onset	duration	sample	value	key	prompt_text
0.813	10.9965	1626	prompt	n/a	the quick brown fox jumps over a lazy dog\n
2.551	0.143	5102	keystroke_t	t	n/a
2.646	0.088	5292	keystroke_h	h	n/a
2.742	0.128	5484	keystroke_e	e	n/a
2.862	0.096	5724	keystroke_Key.space	Key.space	n/a
3.022	0.08	6044	keystroke_q	q	n/a
3.502	0.064	7004	keystroke_Key.backspace	Key.backspace	n/a
4.6145	0.16	9229	keystroke_Key.caps_lock	Key.caps_lock	n/a
4.8225	0.136	9645	keystroke_t	t	n/a
4.9185	0.096	9837	keystroke_h	h	n/a
5.0065	0.136	10013	keystroke_e	e	n/a
5.1425	0.08	10285	keystroke_Key.space	Key.space	n/a
5.2785	0.144	10557	keystroke_q	q	n/a
5.3905	0.144	10781	keystroke_u	u	n/a
5.4705	0.1205	10941	keystroke_i	i	n/a
5.575	0.152	11150	keystroke_c	c	n/a
5.743	0.112	11486	keystroke_k	k	n/a
5.974	0.088	11948	keystroke_Key.space	Key.space	n/a
6.2865	0.096	12573	keystroke_b	b	n/a
6.4145	0.1215	12829	keystroke_r	r	n/a
6.5	0.0655	13000	keystroke_o	o	n/a
6.6245	0.1445	13249	keystroke_w	w	n/a
6.7255	0.0845	13451	keystroke_n	n	n/a
6.929	0.082	13858	keystroke_Key.space	Key.space	n/a
7.109	0.142	14218	keystroke_f	f	n/a
7.2245	0.101	14449	keystroke_o	o	n/a
7.3735	0.144	14747	keystroke_x	x	n/a
7.5415	0.057	15083	keystroke_Key.space	Key.space	n/a
7.7185	0.088	15437	keystroke_j	j	n/a
7.9025	0.088	15805	keystroke_u	u	n/a
8.0865	0.112	16173	keystroke_m	m	n/a
8.2225	0.12	16445	keystroke_p	p	n/a
8.4145	0.128	16829	keystroke_s	s	n/a
8.5105	0.072	17021	keystroke_Key.space	Key.space	n/a
8.6635	0.1045	17327	keystroke_o	o	n/a
8.744	0.112	17488	keystroke_v	v	n/a
8.84	0.184	17680	keystroke_e	e	n/a
9.032	0.152	18064	keystroke_r	r	n/a
9.136	0.12	18272	keystroke_a	a	n/a
9.568	0.08	19136	keystroke_Key.backspace	Key.backspace	n/a
9.8075	0.088	19615	keystroke_Key.space	Key.space	n/a
9.9755	0.136	19951	keystroke_a	a	n/a
10.0475	0.056	20095	keystroke_Key.space	Key.space	n/a
10.2475	0.104	20495	keystroke_l	l	n/a
10.3755	0.128	20751	keystroke_a	a	n/a
10.7035	0.136	21407	keystroke_z	z	n/a
11.0315	0.112	22063	keystroke_y	y	n/a
11.1755	0.088	22351	keystroke_Key.space	Key.space	n/a
11.3675	0.104	22735	keystroke_d	d	n/a
11.4235	0.104	22847	keystroke_o	o	n/a
11.5755	0.12	23151	keystroke_g	g	n/a
11.6955	0.112	23391	keystroke_Key.enter	Key.enter	n/a
11.813	6.2675	23626	prompt	n/a	islamic occupations providing enter\n
12.4795	0.096	24959	keystroke_i	i	n/a
12.5595	0.096	25119	keystroke_s	s	n/a
12.7515	0.088	25503	keystroke_l	l	n/a
12.8555	0.152	25711	keystroke_a	a	n/a
13.0235	0.096	26047	keystroke_m	m	n/a
13.2235	0.096	26447	keystroke_i	i	n/a
13.3115	0.128	26623	keystroke_c	c	n/a
13.4795	0.08	26959	keystroke_Key.space	Key.space	n/a
13.8955	0.104	27791	keystroke_o	o	n/a
14.1515	0.08	28303	keystroke_c	c	n/a
14.3115	0.136	28623	keystroke_c	c	n/a
14.5355	0.096	29071	keystroke_u	u	n/a
14.7995	0.096	29599	keystroke_p	p	n/a
14.9515	0.104	29903	keystroke_a	a	n/a
15.1355	0.136	30271	keystroke_t	t	n/a
15.2235	0.1835	30447	keystroke_i	i	n/a
15.2955	0.1195	30591	keystroke_o	o	n/a
15.359	0.12	30718	keystroke_n	n	n/a
15.455	0.144	30910	keystroke_s	s	n/a
15.607	0.064	31214	keystroke_Key.space	Key.space	n/a
15.783	0.088	31566	keystroke_p	p	n/a
15.911	0.1205	31822	keystroke_r	r	n/a
15.991	0.0725	31982	keystroke_o	o	n/a
16.3435	0.136	32687	keystroke_v	v	n/a
16.4315	0.088	32863	keystroke_i	i	n/a
16.6475	0.144	33295	keystroke_d	d	n/a
16.8795	0.135	33759	keystroke_i	i	n/a
16.9755	0.103	33951	keystroke_n	n	n/a
17.0705	0.12	34141	keystroke_g	g	n/a
17.2065	0.072	34413	keystroke_Key.space	Key.space	n/a
17.3985	0.1365	34797	keystroke_e	e	n/a
17.5185	0.0965	35037	keystroke_n	n	n/a
17.623	0.128	35246	keystroke_t	t	n/a
17.727	0.184	35454	keystroke_e	e	n/a
17.879	0.1275	35758	keystroke_r	r	n/a
17.9985	0.0805	35997	keystroke_Key.enter	Key.enter	n/a
18.0845	6.9905	36169	prompt	n/a	series hamilton valentine syria\n
18.7665	0.144	37533	keystroke_s	s	n/a
19.0065	0.136	38013	keystroke_e	e	n/a
19.0945	0.168	38189	keystroke_r	r	n/a
19.2225	0.104	38445	keystroke_i	i	n/a
19.4385	0.104	38877	keystroke_e	e	n/a
19.6625	0.112	39325	keystroke_s	s	n/a
19.8385	0.064	39677	keystroke_Key.space	Key.space	n/a
20.1825	0.08	40365	keystroke_h	h	n/a
20.3105	0.152	40621	keystroke_a	a	n/a
20.4305	0.104	40861	keystroke_m	m	n/a
20.6145	0.088	41229	keystroke_i	i	n/a
20.7585	0.128	41517	keystroke_l	l	n/a
20.9425	0.112	41885	keystroke_t	t	n/a
21.0945	0.168	42189	keystroke_o	o	n/a
21.2145	0.104	42429	keystroke_n	n	n/a
21.4305	0.08	42861	keystroke_Key.space	Key.space	n/a
21.6945	0.176	43389	keystroke_v	v	n/a
21.7985	0.152	43597	keystroke_a	a	n/a
21.9185	0.08	43837	keystroke_l	l	n/a
22.0785	0.176	44157	keystroke_e	e	n/a
22.215	0.1115	44430	keystroke_n	n	n/a
22.6545	0.144	45309	keystroke_t	t	n/a
22.8465	0.112	45693	keystroke_i	i	n/a
23.0385	0.1035	46077	keystroke_n	n	n/a
23.158	0.152	46316	keystroke_e	e	n/a
23.4385	0.08	46877	keystroke_Key.space	Key.space	n/a
23.7745	0.104	47549	keystroke_s	s	n/a
24.0545	0.048	48109	keystroke_y	y	n/a
24.3585	0.1275	48717	keystroke_r	r	n/a
24.6695	0.0955	49339	keystroke_i	i	n/a
24.833	0.133	49666	keystroke_a	a	n/a
24.998	0.076	49996	keystroke_Key.enter	Key.enter	n/a
25.0775	7.8735	50155	prompt	n/a	python richardson hereby january\n
25.814	0.048	51628	keystroke_p	p	n/a
26.134	0.08	52268	keystroke_h	h	n/a
26.71	0.072	53420	keystroke_Key.backspace	Key.backspace	n/a
26.87	0.1365	53740	keystroke_y	y	n/a
27.198	0.192	54396	keystroke_t	t	n/a
27.366	0.12	54732	keystroke_h	h	n/a
27.4705	0.16	54941	keystroke_o	o	n/a
27.6385	0.1035	55277	keystroke_n	n	n/a
27.855	0.096	55710	keystroke_Key.space	Key.space	n/a
28.1265	0.12	56253	keystroke_r	r	n/a
28.2465	0.088	56493	keystroke_i	i	n/a
28.4305	0.12	56861	keystroke_c	c	n/a
28.5265	0.088	57053	keystroke_h	h	n/a
28.6305	0.176	57261	keystroke_a	a	n/a
28.766	0.1045	57532	keystroke_r	r	n/a
29.014	0.12	58028	keystroke_d	d	n/a
29.3185	0.168	58637	keystroke_s	s	n/a
29.4225	0.136	58845	keystroke_o	o	n/a
29.5265	0.104	59053	keystroke_n	n	n/a
29.7345	0.072	59469	keystroke_Key.space	Key.space	n/a
29.9425	0.08	59885	keystroke_h	h	n/a
30.0225	0.136	60045	keystroke_e	e	n/a
30.1345	0.232	60269	keystroke_r	r	n/a
30.2625	0.16	60525	keystroke_e	e	n/a
30.4945	0.112	60989	keystroke_b	b	n/a
30.6225	0.144	61245	keystroke_y	y	n/a
30.8145	0.056	61629	keystroke_Key.space	Key.space	n/a
31.086	0.104	62172	keystroke_j	j	n/a
31.2775	0.048	62555	keystroke_u	u	n/a
31.653	0.0585	63306	keystroke_Key.backspace	Key.backspace	n/a
31.789	0.169	63578	keystroke_a	a	n/a
31.8605	0.1055	63721	keystroke_n	n	n/a
32.0935	0.096	64187	keystroke_u	u	n/a
32.2695	0.168	64539	keystroke_a	a	n/a
32.4295	0.1205	64859	keystroke_r	r	n/a
32.702	0.128	65404	keystroke_y	y	n/a
32.862	0.088	65724	keystroke_Key.enter	Key.enter	n/a
32.954	9.2955	65908	prompt	n/a	symbols nutritional walked hierarchy\n
33.606	0.0875	67212	keystroke_s	s	n/a
33.8295	0.128	67659	keystroke_y	y	n/a
33.9735	0.0965	67947	keystroke_m	m	n/a
34.206	0.08	68412	keystroke_b	b	n/a
34.4935	0.088	68987	keystroke_o	o	n/a
34.7095	0.088	69419	keystroke_l	l	n/a
34.8695	0.1195	69739	keystroke_s	s	n/a
35.013	0.0715	70026	keystroke_Key.space	Key.space	n/a
35.188	0.085	70376	keystroke_n	n	n/a
35.5645	0.1365	71129	keystroke_u	u	n/a
36.357	0.1045	72714	keystroke_t	t	n/a
36.5575	0.1675	73115	keystroke_r	r	n/a
36.741	0.088	73482	keystroke_i	i	n/a
37.037	0.152	74074	keystroke_t	t	n/a
37.125	0.208	74250	keystroke_i	i	n/a
37.221	0.12	74442	keystroke_o	o	n/a
37.285	0.136	74570	keystroke_n	n	n/a
37.517	0.16	75034	keystroke_a	a	n/a
37.621	0.0885	75242	keystroke_l	l	n/a
37.837	0.088	75674	keystroke_Key.space	Key.space	n/a
38.0925	0.1955	76185	keystroke_w	w	n/a
38.228	0.153	76456	keystroke_a	a	n/a
38.28	0.097	76560	keystroke_l	l	n/a
38.4845	0.0955	76969	keystroke_k	k	n/a
38.572	0.112	77144	keystroke_e	e	n/a
38.7435	0.145	77487	keystroke_d	d	n/a
38.855	0.0735	77710	keystroke_Key.space	Key.space	n/a
39.272	0.096	78544	keystroke_h	h	n/a
39.4245	0.16	78849	keystroke_e	e	n/a
39.9605	0.072	79921	keystroke_Key.backspace	Key.backspace	n/a
40.2085	0.104	80417	keystroke_i	i	n/a
40.5285	0.152	81057	keystroke_e	e	n/a
40.6885	0.16	81377	keystroke_r	r	n/a
40.8085	0.176	81617	keystroke_a	a	n/a
41.256	0.1115	82512	keystroke_r	r	n/a
41.56	0.16	83120	keystroke_c	c	n/a
41.712	0.088	83424	keystroke_h	h	n/a
41.936	0.16	83872	keystroke_y	y	n/a
42.136	0.1125	84272	keystroke_Key.enter	Key.enter	n/a
42.2525	7.4675	84505	prompt	n/a	amsterdam he weddings subtle\n
42.827	0.056	85654	keystroke_s	s	n/a
43.082	0.0695	86164	keystroke_Key.backspace	Key.backspace	n/a
43.251	0.1595	86502	keystroke_a	a	n/a
43.4385	0.0495	86877	keystroke_m	m	n/a
43.7905	0.048	87581	keystroke_s	s	n/a
44.0975	0.1615	88195	keystroke_e	e	n/a
44.5385	0.088	89077	keystroke_Key.backspace	Key.backspace	n/a
44.691	0.128	89382	keystroke_t	t	n/a
44.787	0.216	89574	keystroke_e	e	n/a
44.931	0.168	89862	keystroke_r	r	n/a
45.931	0.1595	91862	keystroke_d	d	n/a
46.011	0.2	92022	keystroke_a	a	n/a
46.1465	0.0885	92293	keystroke_m	m	n/a
46.363	0.056	92726	keystroke_Key.space	Key.space	n/a
46.579	0.088	93158	keystroke_h	h	n/a
46.675	0.16	93350	keystroke_e	e	n/a
46.891	0.072	93782	keystroke_Key.space	Key.space	n/a
47.171	0.104	94342	keystroke_w	w	n/a
47.395	0.12	94790	keystroke_e	e	n/a
47.811	0.08	95622	keystroke_d	d	n/a
47.979	0.088	95958	keystroke_d	d	n/a
48.035	0.144	96070	keystroke_i	i	n/a
48.155	0.112	96310	keystroke_n	n	n/a
48.211	0.1755	96422	keystroke_g	g	n/a
48.339	0.1515	96678	keystroke_s	s	n/a
48.4425	0.088	96885	keystroke_Key.space	Key.space	n/a
48.642	0.108	97284	keystroke_s	s	n/a
48.766	0.12	97532	keystroke_u	u	n/a
48.926	0.1045	97852	keystroke_b	b	n/a
49.215	0.12	98430	keystroke_t	t	n/a
49.343	0.096	98686	keystroke_l	l	n/a
49.4465	0.1205	98893	keystroke_e	e	n/a
49.599	0.12	99198	keystroke_Key.enter	Key.enter	n/a
49.724	5.6675	99448	prompt	n/a	fact exactly left despite\n
50.311	0.12	100622	keystroke_f	f	n/a
50.407	0.136	100814	keystroke_a	a	n/a
50.551	0.112	101102	keystroke_c	c	n/a
50.823	0.136	101646	keystroke_t	t	n/a
51.023	0.088	102046	keystroke_Key.space	Key.space	n/a
51.271	0.088	102542	keystroke_e	e	n/a
51.903	0.112	103806	keystroke_x	x	n/a
52.095	0.12	104190	keystroke_a	a	n/a
52.271	0.12	104542	keystroke_c	c	n/a
52.567	0.152	105134	keystroke_t	t	n/a
52.743	0.104	105486	keystroke_l	l	n/a
52.887	0.104	105774	keystroke_y	y	n/a
53.007	0.08	106014	keystroke_Key.space	Key.space	n/a
53.215	0.136	106430	keystroke_l	l	n/a
53.319	0.176	106638	keystroke_e	e	n/a
53.439	0.128	106878	keystroke_f	f	n/a
53.679	0.144	107358	keystroke_t	t	n/a
53.839	0.064	107678	keystroke_Key.space	Key.space	n/a
54.239	0.16	108478	keystroke_d	d	n/a
54.311	0.104	108622	keystroke_e	e	n/a
54.519	0.16	109038	keystroke_s	s	n/a
54.631	0.072	109262	keystroke_p	p	n/a
54.911	0.12	109822	keystroke_i	i	n/a
55.039	0.192	110078	keystroke_t	t	n/a
55.111	0.168	110222	keystroke_e	e	n/a
55.303	0.088	110606	keystroke_Key.enter	Key.enter	n/a
55.396	6.195	110792	prompt	n/a	recipe avoiding about thinking\n
56.111	0.152	112222	keystroke_r	r	n/a
56.215	0.128	112430	keystroke_e	e	n/a
56.423	0.1755	112846	keystroke_c	c	n/a
56.6545	0.1045	113309	keystroke_i	i	n/a
56.935	0.112	113870	keystroke_p	p	n/a
57.095	0.144	114190	keystroke_e	e	n/a
57.263	0.08	114526	keystroke_Key.space	Key.space	n/a
57.495	0.12	114990	keystroke_a	a	n/a
57.703	0.176	115406	keystroke_v	v	n/a
57.815	0.216	115630	keystroke_o	o	n/a
57.943	0.128	115886	keystroke_i	i	n/a
58.095	0.144	116190	keystroke_d	d	n/a
58.231	0.168	116462	keystroke_i	i	n/a
58.343	0.1125	116686	keystroke_n	n	n/a
58.4235	0.1275	116847	keystroke_g	g	n/a
58.583	0.072	117166	keystroke_Key.space	Key.space	n/a
58.7995	0.2075	117599	keystroke_a	a	n/a
58.8955	0.096	117791	keystroke_b	b	n/a
58.9755	0.248	117951	keystroke_o	o	n/a
59.119	0.1365	118238	keystroke_u	u	n/a
59.2475	0.1435	118495	keystroke_t	t	n/a
59.407	0.08	118814	keystroke_Key.space	Key.space	n/a
59.639	0.152	119278	keystroke_t	t	n/a
59.9185	0.096	119837	keystroke_i	i	n/a
60.2945	0.048	120589	keystroke_Key.backspace	Key.backspace	n/a
60.4945	0.152	120989	keystroke_h	h	n/a
60.6225	0.112	121245	keystroke_i	i	n/a
60.7905	0.1275	121581	keystroke_n	n	n/a
60.8705	0.1035	121741	keystroke_k	k	n/a
61.086	0.1285	122172	keystroke_i	i	n/a
61.1665	0.128	122333	keystroke_n	n	n/a
61.2705	0.12	122541	keystroke_g	g	n/a
61.446	0.144	122892	keystroke_Key.enter	Key.enter	n/a
61.5935	6.47	123187	prompt	n/a	violations lying airlines loop\n
62.3585	0.2005	124717	keystroke_v	v	n/a
62.551	0.1675	125102	keystroke_i	i	n/a
62.671	0.144	125342	keystroke_o	o	n/a
62.983	0.104	125966	keystroke_l	l	n/a
63.255	0.112	126510	keystroke_a	a	n/a
63.487	0.144	126974	keystroke_t	t	n/a
63.535	0.2	127070	keystroke_i	i	n/a
63.615	0.12	127230	keystroke_o	o	n/a
63.695	0.136	127390	keystroke_n	n	n/a
63.847	0.12	127694	keystroke_s	s	n/a
64.183	0.088	128366	keystroke_Key.space	Key.space	n/a
64.575	0.136	129150	keystroke_l	l	n/a
64.783	0.088	129566	keystroke_y	y	n/a
64.975	0.128	129950	keystroke_t	t	n/a
65.063	0.128	130126	keystroke_i	i	n/a
65.159	0.104	130318	keystroke_n	n	n/a
65.271	0.1035	130542	keystroke_g	g	n/a
65.3985	0.0875	130797	keystroke_Key.space	Key.space	n/a
65.594	0.1395	131188	keystroke_a	a	n/a
65.7575	0.089	131515	keystroke_i	i	n/a
65.9265	0.152	131853	keystroke_r	r	n/a
66.1025	0.2155	132205	keystroke_l	l	n/a
66.1985	0.152	132397	keystroke_i	i	n/a
66.31	0.1205	132620	keystroke_n	n	n/a
66.4225	0.096	132845	keystroke_e	e	n/a
66.6625	0.096	133325	keystroke_s	s	n/a
66.8305	0.096	133661	keystroke_Key.space	Key.space	n/a
67.0465	0.088	134093	keystroke_l	l	n/a
67.2385	0.0885	134477	keystroke_o	o	n/a
67.399	0.0715	134798	keystroke_o	o	n/a
67.5665	0.088	135133	keystroke_p	p	n/a
67.935	0.1275	135870	keystroke_Key.enter	Key.enter	n/a
68.0665	8.985	136133	prompt	n/a	bureau slovenia pharmaceuticals temporal\n
69.1985	0.1035	138397	keystroke_b	b	n/a
69.5095	0.0965	139019	keystroke_u	u	n/a
69.694	0.2075	139388	keystroke_r	r	n/a
69.79	0.235	139580	keystroke_e	e	n/a
69.9495	0.0835	139899	keystroke_a	a	n/a
70.509	0.113	141018	keystroke_u	u	n/a
70.8215	0.0795	141643	keystroke_Key.space	Key.space	n/a
71.2015	0.1675	142403	keystroke_s	s	n/a
71.393	0.0875	142786	keystroke_l	l	n/a
71.5925	0.0635	143185	keystroke_o	o	n/a
71.769	0.1715	143538	keystroke_v	v	n/a
71.861	0.1755	143722	keystroke_e	e	n/a
72.0205	0.0795	144041	keystroke_n	n	n/a
72.325	0.088	144650	keystroke_i	i	n/a
72.5325	0.1635	145065	keystroke_a	a	n/a
72.7365	0.0485	145473	keystroke_Key.space	Key.space	n/a
72.9285	0.104	145857	keystroke_p	p	n/a
73.16	0.088	146320	keystroke_h	h	n/a
73.297	0.1275	146594	keystroke_a	a	n/a
73.4005	0.1355	146801	keystroke_r	r	n/a
73.528	0.0955	147056	keystroke_m	m	n/a
73.6475	0.12	147295	keystroke_a	a	n/a
73.9595	0.1	147919	keystroke_c	c	n/a
74.0235	0.0955	148047	keystroke_e	e	n/a
74.2825	0.1135	148565	keystroke_u	u	n/a
74.563	0.1515	149126	keystroke_t	t	n/a
74.7505	0.072	149501	keystroke_i	i	n/a
74.9475	0.143	149895	keystroke_c	c	n/a
75.051	0.093	150102	keystroke_a	a	n/a
75.1025	0.0635	150205	keystroke_l	l	n/a
75.4595	0.1115	150919	keystroke_s	s	n/a
75.667	0.0835	151334	keystroke_Key.space	Key.space	n/a
75.8145	0.177	151629	keystroke_t	t	n/a
75.8955	0.1835	151791	keystroke_e	e	n/a
75.9835	0.1035	151967	keystroke_m	m	n/a
76.159	0.112	152318	keystroke_p	p	n/a
76.4065	0.0885	152813	keystroke_o	o	n/a
76.599	0.1915	153198	keystroke_r	r	n/a
76.7185	0.1635	153437	keystroke_a	a	n/a
76.814	0.084	153628	keystroke_l	l	n/a
77.003	0.0485	154006	keystroke_Key.enter	Key.enter	n/a
77.0515	12.309	154103	prompt	n/a	agreement flickr out mortgages\n
77.7105	0.1115	155421	keystroke_a	a	n/a
77.878	0.1205	155756	keystroke_g	g	n/a
78.1025	0.144	156205	keystroke_r	r	n/a
78.1745	0.128	156349	keystroke_e	e	n/a
78.39	0.1445	156780	keystroke_e	e	n/a
78.5265	0.0635	157053	keystroke_m	m	n/a
78.638	0.1315	157276	keystroke_e	e	n/a
78.762	0.0715	157524	keystroke_n	n	n/a
78.8175	0.128	157635	keystroke_t	t	n/a
78.957	0.072	157914	keystroke_Key.space	Key.space	n/a
79.2775	0.144	158555	keystroke_f	f	n/a
79.3815	0.08	158763	keystroke_l	l	n/a
79.561	0.105	159122	keystroke_o	o	n/a
79.674	0.1435	159348	keystroke_c	c	n/a
79.8975	0.096	159795	keystroke_k	k	n/a
80.53	0.072	161060	keystroke_Key.backspace	Key.backspace	n/a
80.69	0.088	161380	keystroke_Key.backspace	Key.backspace	n/a
81.4185	0.096	162837	keystroke_Key.backspace	Key.backspace	n/a
82.275	0.088	164550	keystroke_i	i	n/a
82.539	0.152	165078	keystroke_c	c	n/a
82.715	0.1045	165430	keystroke_k	k	n/a
83.2035	0.128	166407	keystroke_r	r	n/a
83.8755	0.08	167751	keystroke_Key.space	Key.space	n/a
84.1315	0.2405	168263	keystroke_o	o	n/a
84.868	0.1045	169736	keystroke_Key.backspace	Key.backspace	n/a
85.0915	0.088	170183	keystroke_Key.backspace	Key.backspace	n/a
86.004	0.0835	172008	keystroke_Key.backspace	Key.backspace	n/a
86.616	0.16	173232	keystroke_r	r	n/a
86.776	0.095	173552	keystroke_Key.space	Key.space	n/a
87.016	0.2565	174032	keystroke_o	o	n/a
87.192	0.1365	174384	keystroke_u	u	n/a
87.3285	0.136	174657	keystroke_t	t	n/a
87.48	0.095	174960	keystroke_Key.space	Key.space	n/a
87.8325	0.152	175665	keystroke_m	m	n/a
87.9285	0.1515	175857	keystroke_o	o	n/a
88.096	0.1045	176192	keystroke_r	r	n/a
88.3125	0.088	176625	keystroke_t	t	n/a
88.552	0.152	177104	keystroke_g	g	n/a
88.656	0.096	177312	keystroke_a	a	n/a
88.8	0.16	177600	keystroke_g	g	n/a
88.872	0.128	177744	keystroke_e	e	n/a
89.112	0.1515	178224	keystroke_s	s	n/a
89.2555	0.104	178511	keystroke_Key.enter	Key.enter	n/a
89.3635	5.7495	178727	prompt	n/a	whereas hide names kissing\n
90.031	0.1045	180062	keystroke_w	w	n/a
90.1995	0.088	180399	keystroke_h	h	n/a
90.3035	0.176	180607	keystroke_e	e	n/a
90.9515	0.232	181903	keystroke_r	r	n/a
91.1435	0.28	182287	keystroke_e	e	n/a
91.3035	0.192	182607	keystroke_a	a	n/a
91.584	0.1515	183168	keystroke_s	s	n/a
91.9035	0.079	183807	keystroke_Key.space	Key.space	n/a
92.2955	0.128	184591	keystroke_h	h	n/a
92.3595	0.152	184719	keystroke_i	i	n/a
92.4555	0.176	184911	keystroke_d	d	n/a
92.5195	0.192	185039	keystroke_e	e	n/a
92.7195	0.08	185439	keystroke_Key.space	Key.space	n/a
93.112	0.048	186224	keystroke_n	n	n/a
93.216	0.152	186432	keystroke_a	a	n/a
93.3595	0.0885	186719	keystroke_m	m	n/a
93.488	0.096	186976	keystroke_e	e	n/a
93.688	0.136	187376	keystroke_s	s	n/a
93.831	0.073	187662	keystroke_Key.space	Key.space	n/a
94.0965	0.088	188193	keystroke_k	k	n/a
94.2885	0.08	188577	keystroke_i	i	n/a
94.392	0.0965	188784	keystroke_s	s	n/a
94.5765	0.128	189153	keystroke_s	s	n/a
94.6245	0.176	189249	keystroke_i	i	n/a
94.7365	0.12	189473	keystroke_n	n	n/a
94.8405	0.1275	189681	keystroke_g	g	n/a
94.992	0.12	189984	keystroke_Key.enter	Key.enter	n/a
95.1155	7.437	190231	prompt	n/a	input periods funeral voted\n
95.7675	0.168	191535	keystroke_i	i	n/a
95.9195	0.0965	191839	keystroke_n	n	n/a
96.088	0.1035	192176	keystroke_p	p	n/a
96.3035	0.072	192607	keystroke_u	u	n/a
96.4235	0.111	192847	keystroke_t	t	n/a
96.608	0.0945	193216	keystroke_Key.space	Key.space	n/a
96.8715	0.12	193743	keystroke_p	p	n/a
96.9915	0.2	193983	keystroke_e	e	n/a
97.1035	0.16	194207	keystroke_r	r	n/a
97.2075	0.143	194415	keystroke_i	i	n/a
97.2875	0.152	194575	keystroke_o	o	n/a
97.5115	0.192	195023	keystroke_d	d	n/a
97.6555	0.168	195311	keystroke_s	s	n/a
97.967	0.0955	195934	keystroke_Key.space	Key.space	n/a
98.4	0.16	196800	keystroke_f	f	n/a
98.672	0.104	197344	keystroke_u	u	n/a
98.976	0.12	197952	keystroke_n	n	n/a
99.192	0.36	198384	keystroke_e	e	n/a
99.344	0.16	198688	keystroke_a	a	n/a
99.759	0.0965	199518	keystroke_Key.backspace	Key.backspace	n/a
99.9765	0.088	199953	keystroke_e	e	n/a
100.743	0.08	201486	keystroke_Key.backspace	Key.backspace	n/a
100.936	0.1595	201872	keystroke_r	r	n/a
101.272	0.1675	202544	keystroke_a	a	n/a
101.4	0.0635	202800	keystroke_l	l	n/a
101.5905	0.08	203181	keystroke_Key.space	Key.space	n/a
101.76	0.128	203520	keystroke_v	v	n/a
101.864	0.08	203728	keystroke_o	o	n/a
102.0475	0.1285	204095	keystroke_t	t	n/a
102.127	0.121	204254	keystroke_e	e	n/a
102.36	0.1195	204720	keystroke_d	d	n/a
102.4545	0.096	204909	keystroke_Key.enter	Key.enter	n/a
102.555	11.8495	205110	prompt	n/a	memory disclaimer projector oriented\n
103.184	0.12	206368	keystroke_m	m	n/a
103.296	0.144	206592	keystroke_e	e	n/a
103.456	0.104	206912	keystroke_m	m	n/a
103.567	0.153	207134	keystroke_e	e	n/a
103.672	0.168	207344	keystroke_r	r	n/a
103.856	0.104	207712	keystroke_o	o	n/a
104.7835	0.08	209567	keystroke_Key.backspace	Key.backspace	n/a
104.9515	0.0795	209903	keystroke_Key.backspace	Key.backspace	n/a
105.151	0.096	210302	keystroke_Key.backspace	Key.backspace	n/a
105.48	0.103	210960	keystroke_o	o	n/a
105.624	0.104	211248	keystroke_r	r	n/a
105.855	0.129	211710	keystroke_y	y	n/a
106.039	0.08	212078	keystroke_Key.space	Key.space	n/a
106.3605	0.12	212721	keystroke_d	d	n/a
106.4475	0.0795	212895	keystroke_i	i	n/a
106.575	0.112	213150	keystroke_s	s	n/a
106.9125	0.1505	213825	keystroke_c	c	n/a
107.688	0.08	215376	keystroke_l	l	n/a
107.904	0.176	215808	keystroke_a	a	n/a
108.039	0.152	216078	keystroke_i	i	n/a
108.159	0.1285	216318	keystroke_n	n	n/a
108.7915	0.088	217583	keystroke_Key.backspace	Key.backspace	n/a
109.3765	0.1185	218753	keystroke_m	m	n/a
109.512	0.148	219024	keystroke_e	e	n/a
109.6245	0.1315	219249	keystroke_r	r	n/a
109.776	0.0665	219552	keystroke_Key.space	Key.space	n/a
109.9795	0.127	219959	keystroke_p	p	n/a
110.164	0.135	220328	keystroke_r	r	n/a
110.235	0.072	220470	keystroke_o	o	n/a
110.4435	0.057	220887	keystroke_j	j	n/a
110.4915	0.137	220983	keystroke_e	e	n/a
110.6835	0.097	221367	keystroke_c	c	n/a
110.9395	0.1845	221879	keystroke_t	t	n/a
111.2035	0.073	222407	keystroke_o	o	n/a
111.3315	0.137	222663	keystroke_r	r	n/a
111.6275	0.088	223255	keystroke_Key.space	Key.space	n/a
112.1875	0.0965	224375	keystroke_o	o	n/a
112.347	0.16	224694	keystroke_r	r	n/a
112.5795	0.088	225159	keystroke_i	i	n/a
112.772	0.1585	225544	keystroke_e	e	n/a
113.0065	0.0875	226013	keystroke_n	n	n/a
113.1655	0.1255	226331	keystroke_t	t	n/a
113.26	0.1275	226520	keystroke_e	e	n/a
113.5065	0.1515	227013	keystroke_d	d	n/a
113.682	0.089	227364	keystroke_Key.space	Key.space	n/a
114.043	0.072	228086	keystroke_Key.backspace	Key.backspace	n/a
114.267	0.136	228534	keystroke_Key.enter	Key.enter	n/a
114.4075	8.7965	228815	prompt	n/a	intellectual documented specific exactly\n
114.971	0.1595	229942	keystroke_i	i	n/a
115.083	0.1365	230166	keystroke_n	n	n/a
115.3065	0.16	230613	keystroke_t	t	n/a
115.38	0.1745	230760	keystroke_e	e	n/a
115.5395	0.072	231079	keystroke_l	l	n/a
115.6985	0.088	231397	keystroke_l	l	n/a
115.7875	0.207	231575	keystroke_e	e	n/a
115.9635	0.12	231927	keystroke_c	c	n/a
116.2115	0.159	232423	keystroke_t	t	n/a
116.4035	0.095	232807	keystroke_u	u	n/a
116.6195	0.1605	233239	keystroke_a	a	n/a
116.747	0.088	233494	keystroke_l	l	n/a
116.9945	0.088	233989	keystroke_Key.space	Key.space	n/a
117.22	0.112	234440	keystroke_d	d	n/a
117.3	0.087	234600	keystroke_o	o	n/a
117.507	0.144	235014	keystroke_c	c	n/a
117.627	0.073	235254	keystroke_u	u	n/a
117.8435	0.096	235687	keystroke_m	m	n/a
117.9475	0.1355	235895	keystroke_e	e	n/a
118.091	0.08	236182	keystroke_n	n	n/a
118.18	0.1595	236360	keystroke_t	t	n/a
118.2835	0.137	236567	keystroke_e	e	n/a
118.539	0.12	237078	keystroke_d	d	n/a
118.675	0.072	237350	keystroke_Key.space	Key.space	n/a
119.163	0.136	238326	keystroke_s	s	n/a
119.324	0.079	238648	keystroke_p	p	n/a
119.451	0.12	238902	keystroke_e	e	n/a
119.667	0.152	239334	keystroke_c	c	n/a
119.9165	0.087	239833	keystroke_i	i	n/a
120.251	0.1365	240502	keystroke_f	f	n/a
120.3795	0.08	240759	keystroke_i	i	n/a
120.5395	0.1595	241079	keystroke_c	c	n/a
120.747	0.0805	241494	keystroke_Key.space	Key.space	n/a
121.571	0.08	243142	keystroke_e	e	n/a
121.795	0.096	243590	keystroke_x	x	n/a
122.0345	0.128	244069	keystroke_a	a	n/a
122.2745	0.136	244549	keystroke_c	c	n/a
122.602	0.1605	245204	keystroke_t	t	n/a
122.8195	0.111	245639	keystroke_l	l	n/a
122.9465	0.112	245893	keystroke_y	y	n/a
123.1145	0.088	246229	keystroke_Key.enter	Key.enter	n/a
123.2075	5.1465	246415	prompt	n/a	bosnia encouraged meet called\n
123.822	0.1235	247644	keystroke_b	b	n/a
123.931	0.0785	247862	keystroke_o	o	n/a
124.076	0.1595	248152	keystroke_s	s	n/a
124.2795	0.08	248559	keystroke_n	n	n/a
124.432	0.0575	248864	keystroke_i	i	n/a
124.5215	0.159	249043	keystroke_a	a	n/a
124.649	0.0635	249298	keystroke_Key.space	Key.space	n/a
124.834	0.1075	249668	keystroke_e	e	n/a
124.9425	0.0385	249885	keystroke_n	n	n/a
125.125	0.1435	250250	keystroke_c	c	n/a
125.2525	0.209	250505	keystroke_o	o	n/a
125.3815	0.104	250763	keystroke_u	u	n/a
125.5095	0.1595	251019	keystroke_r	r	n/a
125.629	0.12	251258	keystroke_a	a	n/a
125.813	0.1445	251626	keystroke_g	g	n/a
125.8775	0.12	251755	keystroke_e	e	n/a
126.109	0.152	252218	keystroke_d	d	n/a
126.293	0.088	252586	keystroke_Key.space	Key.space	n/a
126.5015	0.1115	253003	keystroke_m	m	n/a
126.581	0.08	253162	keystroke_e	e	n/a
126.7565	0.096	253513	keystroke_e	e	n/a
126.8925	0.1695	253785	keystroke_t	t	n/a
127.077	0.088	254154	keystroke_Key.space	Key.space	n/a
127.4965	0.168	254993	keystroke_c	c	n/a
127.601	0.1355	255202	keystroke_a	a	n/a
127.7045	0.04	255409	keystroke_l	l	n/a
127.8095	0.1035	255619	keystroke_l	l	n/a
127.921	0.088	255842	keystroke_e	e	n/a
128.1135	0.127	256227	keystroke_d	d	n/a
128.2485	0.104	256497	keystroke_Key.enter	Key.enter	n/a
128.357	6.201	256714	prompt	n/a	wrote figures system recycling\n
129.0885	0.192	258177	keystroke_w	w	n/a
129.2485	0.152	258497	keystroke_r	r	n/a
129.3535	0.0705	258707	keystroke_o	o	n/a
129.536	0.1525	259072	keystroke_t	t	n/a
129.6	0.1685	259200	keystroke_e	e	n/a
129.8175	0.087	259635	keystroke_Key.space	Key.space	n/a
130.2805	0.128	260561	keystroke_f	f	n/a
130.3845	0.08	260769	keystroke_i	i	n/a
130.577	0.112	261154	keystroke_g	g	n/a
130.681	0.072	261362	keystroke_u	u	n/a
130.793	0.1685	261586	keystroke_r	r	n/a
130.857	0.1125	261714	keystroke_e	e	n/a
131.1055	0.128	262211	keystroke_s	s	n/a
131.305	0.08	262610	keystroke_Key.space	Key.space	n/a
131.465	0.104	262930	keystroke_s	s	n/a
131.697	0.072	263394	keystroke_y	y	n/a
131.833	0.112	263666	keystroke_s	s	n/a
131.977	0.2165	263954	keystroke_t	t	n/a
132.0815	0.168	264163	keystroke_e	e	n/a
132.2095	0.096	264419	keystroke_m	m	n/a
132.385	0.144	264770	keystroke_s	s	n/a
132.585	0.0955	265170	keystroke_Key.space	Key.space	n/a
132.856	0.2085	265712	keystroke_r	r	n/a
132.937	0.1595	265874	keystroke_e	e	n/a
133.5515	0.048	267103	keystroke_c	c	n/a
133.7355	0.128	267471	keystroke_y	y	n/a
133.9035	0.089	267807	keystroke_l	l	n/a
134.1365	0.1595	268273	keystroke_i	i	n/a
134.256	0.112	268512	keystroke_n	n	n/a
134.352	0.0995	268704	keystroke_g	g	n/a
134.4675	0.0885	268935	keystroke_Key.enter	Key.enter	n/a
134.5605	5.6075	269121	prompt	n/a	philips cite top scales\n
135.022	0.042	270044	keystroke_p	p	n/a
135.1475	0.148	270295	keystroke_h	h	n/a
135.2635	0.137	270527	keystroke_i	i	n/a
135.527	0.225	271054	keystroke_l	l	n/a
135.632	0.152	271264	keystroke_i	i	n/a
135.936	0.1045	271872	keystroke_p	p	n/a
136.128	0.152	272256	keystroke_s	s	n/a
136.2885	0.08	272577	keystroke_Key.space	Key.space	n/a
136.5125	0.1355	273025	keystroke_c	c	n/a
136.649	0.0965	273298	keystroke_i	i	n/a
136.8165	0.136	273633	keystroke_t	t	n/a
137.081	0.1595	274162	keystroke_e	e	n/a
137.528	0.0955	275056	keystroke_Key.space	Key.space	n/a
137.712	0.128	275424	keystroke_t	t	n/a
137.792	0.0875	275584	keystroke_o	o	n/a
137.865	0.1305	275730	keystroke_p	p	n/a
138.0915	0.063	276183	keystroke_Key.space	Key.space	n/a
138.5035	0.127	277007	keystroke_s	s	n/a
138.6465	0.149	277293	keystroke_c	c	n/a
138.8035	0.0725	277607	keystroke_l	l	n/a
138.94	0.1305	277880	keystroke_a	a	n/a
139.2655	0.0615	278531	keystroke_Key.backspace	Key.backspace	n/a
139.4225	0.048	278845	keystroke_Key.backspace	Key.backspace	n/a
139.4945	0.0915	278989	keystroke_a	a	n/a
139.618	0.1355	279236	keystroke_l	l	n/a
139.77	0.1015	279540	keystroke_e	e	n/a
139.9745	0.1115	279949	keystroke_s	s	n/a
140.118	0.048	280236	keystroke_Key.enter	Key.enter	n/a
140.1705	6.27	280341	prompt	n/a	updates reported buffalo springer\n
140.9305	0.1035	281861	keystroke_u	u	n/a
141.106	0.112	282212	keystroke_n	n	n/a
141.4745	0.1435	282949	keystroke_d	d	n/a
141.554	0.128	283108	keystroke_a	a	n/a
141.8025	0.1515	283605	keystroke_t	t	n/a
141.8825	0.1115	283765	keystroke_e	e	n/a
142.106	0.152	284212	keystroke_s	s	n/a
142.226	0.08	284452	keystroke_Key.space	Key.space	n/a
142.3705	0.1995	284741	keystroke_r	r	n/a
142.45	0.1675	284900	keystroke_e	e	n/a
142.5775	0.088	285155	keystroke_p	p	n/a
142.777	0.0395	285554	keystroke_o	o	n/a
142.8085	0.052	285617	keystroke_r	r	n/a
142.9205	0.131	285841	keystroke_t	t	n/a
142.9765	0.105	285953	keystroke_e	e	n/a
143.185	0.1355	286370	keystroke_d	d	n/a
143.289	0.0875	286578	keystroke_Key.space	Key.space	n/a
143.5375	0.1235	287075	keystroke_b	b	n/a
143.621	0.0875	287242	keystroke_u	u	n/a
143.7645	0.0675	287529	keystroke_f	f	n/a
143.9075	0.092	287815	keystroke_f	f	n/a
144.0315	0.145	288063	keystroke_a	a	n/a
144.1925	0.0795	288385	keystroke_l	l	n/a
144.34	0.096	288680	keystroke_o	o	n/a
144.6525	0.088	289305	keystroke_Key.space	Key.space	n/a
144.7965	0.1035	289593	keystroke_s	s	n/a
145.245	0.0785	290490	keystroke_p	p	n/a
145.4275	0.08	290855	keystroke_i	i	n/a
145.8795	0.1115	291759	keystroke_n	n	n/a
146.023	0.121	292046	keystroke_g	g	n/a
146.1105	0.133	292221	keystroke_e	e	n/a
146.24	0.127	292480	keystroke_r	r	n/a
146.343	0.096	292686	keystroke_Key.enter	Key.enter	n/a
146.445	7.7785	292890	prompt	n/a	mission documents represented coalition\n
147.018	0.076	294036	keystroke_m	m	n/a
147.158	0.097	294316	keystroke_i	i	n/a
147.303	0.08	294606	keystroke_s	s	n/a
147.471	0.136	294942	keystroke_s	s	n/a
147.535	0.216	295070	keystroke_i	i	n/a
147.623	0.144	295246	keystroke_o	o	n/a
147.679	0.136	295358	keystroke_n	n	n/a
147.783	0.104	295566	keystroke_s	s	n/a
148.487	0.08	296974	keystroke_Key.backspace	Key.backspace	n/a
148.735	0.0875	297470	keystroke_Key.space	Key.space	n/a
148.935	0.128	297870	keystroke_d	d	n/a
148.999	0.096	297998	keystroke_o	o	n/a
149.2715	0.161	298543	keystroke_c	c	n/a
149.3685	0.072	298737	keystroke_u	u	n/a
149.5765	0.112	299153	keystroke_m	m	n/a
149.7135	0.1435	299427	keystroke_e	e	n/a
149.817	0.0955	299634	keystroke_n	n	n/a
149.9365	0.1835	299873	keystroke_t	t	n/a
150.0565	0.1595	300113	keystroke_s	s	n/a
150.184	0.08	300368	keystroke_Key.space	Key.space	n/a
150.36	0.176	300720	keystroke_r	r	n/a
150.416	0.16	300832	keystroke_e	e	n/a
150.576	0.0955	301152	keystroke_p	p	n/a
150.7035	0.1595	301407	keystroke_r	r	n/a
150.7755	0.1035	301551	keystroke_e	e	n/a
150.964	0.0435	301928	keystroke_s	s	n/a
151.0715	0.116	302143	keystroke_e	e	n/a
151.1885	0.0945	302377	keystroke_n	n	n/a
151.291	0.16	302582	keystroke_t	t	n/a
151.403	0.1285	302806	keystroke_e	e	n/a
151.659	0.12	303318	keystroke_d	d	n/a
151.784	0.071	303568	keystroke_Key.space	Key.space	n/a
151.9505	0.121	303901	keystroke_s	s	n/a
152.279	0.024	304558	keystroke_Key.backspace	Key.backspace	n/a
152.4145	0.113	304829	keystroke_c	c	n/a
152.5275	0.0755	305055	keystroke_o	o	n/a
152.675	0.0965	305350	keystroke_a	a	n/a
153.034	0.1645	306068	keystroke_l	l	n/a
153.12	0.0905	306240	keystroke_i	i	n/a
153.698	0.1435	307396	keystroke_t	t	n/a
153.818	0.1755	307636	keystroke_i	i	n/a
153.8615	0.14	307723	keystroke_o	o	n/a
153.9295	0.1355	307859	keystroke_n	n	n/a
154.1485	0.075	308297	keystroke_Key.enter	Key.enter	n/a
154.224	5.9425	308448	prompt	n/a	trek religious platinum plus\n
154.785	0.092	309570	keystroke_t	t	n/a
154.9565	0.1355	309913	keystroke_r	r	n/a
155.052	0.156	310104	keystroke_e	e	n/a
155.309	0.0875	310618	keystroke_k	k	n/a
155.5845	0.088	311169	keystroke_Key.space	Key.space	n/a
155.776	0.1685	311552	keystroke_r	r	n/a
155.8565	0.144	311713	keystroke_e	e	n/a
155.9525	0.088	311905	keystroke_l	l	n/a
156.1685	0.088	312337	keystroke_i	i	n/a
156.3765	0.168	312753	keystroke_g	g	n/a
156.5045	0.0955	313009	keystroke_i	i	n/a
156.576	0.256	313152	keystroke_o	o	n/a
156.72	0.112	313440	keystroke_u	u	n/a
156.944	0.152	313888	keystroke_s	s	n/a
157.2	0.096	314400	keystroke_Key.space	Key.space	n/a
157.56	0.112	315120	keystroke_p	p	n/a
157.8	0.104	315600	keystroke_l	l	n/a
157.928	0.152	315856	keystroke_a	a	n/a
158.296	0.1355	316592	keystroke_t	t	n/a
158.376	0.1675	316752	keystroke_i	i	n/a
158.4955	0.112	316991	keystroke_n	n	n/a
158.6955	0.0965	317391	keystroke_u	u	n/a
158.912	0.1435	317824	keystroke_m	m	n/a
159.2085	0.064	318417	keystroke_Key.space	Key.space	n/a
159.4405	0.097	318881	keystroke_p	p	n/a
159.6575	0.072	319315	keystroke_l	l	n/a
159.834	0.072	319668	keystroke_u	u	n/a
159.97	0.1555	319940	keystroke_s	s	n/a
160.0855	0.08	320171	keystroke_Key.enter	Key.enter	n/a
160.169	4.9125	320338	prompt	n/a	aspects refined farming viewers\n
160.935	0.2075	321870	keystroke_a	a	n/a
161.0635	0.111	322127	keystroke_s	s	n/a
161.2225	0.104	322445	keystroke_p	p	n/a
161.3105	0.152	322621	keystroke_e	e	n/a
161.4865	0.112	322973	keystroke_c	c	n/a
161.734	0.1915	323468	keystroke_t	t	n/a
161.878	0.1095	323756	keystroke_s	s	n/a
161.9915	0.0455	323983	keystroke_Key.space	Key.space	n/a
162.069	0.141	324138	keystroke_r	r	n/a
162.129	0.1245	324258	keystroke_e	e	n/a
162.306	0.1075	324612	keystroke_f	f	n/a
162.3735	0.1395	324747	keystroke_i	i	n/a
162.477	0.116	324954	keystroke_n	n	n/a
162.569	0.076	325138	keystroke_e	e	n/a
162.7335	0.116	325467	keystroke_d	d	n/a
162.8575	0.076	325715	keystroke_Key.space	Key.space	n/a
163.0215	0.1515	326043	keystroke_f	f	n/a
163.1255	0.192	326251	keystroke_a	a	n/a
163.3175	0.152	326635	keystroke_r	r	n/a
163.4455	0.0875	326891	keystroke_m	m	n/a
163.629	0.1565	327258	keystroke_i	i	n/a
163.7215	0.1115	327443	keystroke_n	n	n/a
163.833	0.12	327666	keystroke_g	g	n/a
163.961	0.072	327922	keystroke_Key.space	Key.space	n/a
164.177	0.136	328354	keystroke_v	v	n/a
164.313	0.096	328626	keystroke_i	i	n/a
164.425	0.1835	328850	keystroke_e	e	n/a
164.529	0.1275	329058	keystroke_w	w	n/a
164.7125	0.16	329425	keystroke_e	e	n/a
164.821	0.1555	329642	keystroke_r	r	n/a
164.9235	0.1405	329847	keystroke_s	s	n/a
164.9955	0.0845	329991	keystroke_Key.enter	Key.enter	n/a
165.084	4.9395	330168	prompt	n/a	am nodes shorter belgium\n
165.656	0.176	331312	keystroke_a	a	n/a
165.776	0.096	331552	keystroke_m	m	n/a
165.9685	0.064	331937	keystroke_Key.space	Key.space	n/a
166.145	0.128	332290	keystroke_n	n	n/a
166.225	0.128	332450	keystroke_o	o	n/a
166.4015	0.1925	332803	keystroke_d	d	n/a
166.4575	0.1445	332915	keystroke_e	e	n/a
166.714	0.1605	333428	keystroke_s	s	n/a
166.8665	0.072	333733	keystroke_Key.space	Key.space	n/a
167.0985	0.128	334197	keystroke_s	s	n/a
167.1785	0.128	334357	keystroke_h	h	n/a
167.2585	0.1365	334517	keystroke_o	o	n/a
167.3625	0.1205	334725	keystroke_r	r	n/a
167.5705	0.136	335141	keystroke_t	t	n/a
167.7545	0.2325	335509	keystroke_e	e	n/a
167.955	0.1515	335910	keystroke_r	r	n/a
168.1465	0.1045	336293	keystroke_Key.space	Key.space	n/a
168.5715	0.119	337143	keystroke_b	b	n/a
168.7545	0.1685	337509	keystroke_e	e	n/a
168.939	0.072	337878	keystroke_l	l	n/a
169.259	0.168	338518	keystroke_g	g	n/a
169.339	0.096	338678	keystroke_i	i	n/a
169.507	0.096	339014	keystroke_u	u	n/a
169.707	0.112	339414	keystroke_m	m	n/a
169.9155	0.104	339831	keystroke_Key.enter	Key.enter	n/a
170.0235	9.3375	340047	prompt	n/a	advance found endorsed thumbnails\n
170.6845	0.1685	341369	keystroke_a	a	n/a
170.869	0.08	341738	keystroke_d	d	n/a
171.061	0.1755	342122	keystroke_v	v	n/a
171.1805	0.1765	342361	keystroke_a	a	n/a
171.2925	0.0885	342585	keystroke_n	n	n/a
171.437	0.1685	342874	keystroke_d	d	n/a
171.8855	0.08	343771	keystroke_Key.backspace	Key.backspace	n/a
172.0055	0.1845	344011	keystroke_c	c	n/a
172.094	0.176	344188	keystroke_e	e	n/a
172.198	0.08	344396	keystroke_Key.space	Key.space	n/a
172.623	0.1835	345246	keystroke_f	f	n/a
172.719	0.256	345438	keystroke_o	o	n/a
172.8065	0.2005	345613	keystroke_u	u	n/a
172.959	0.168	345918	keystroke_n	n	n/a
173.119	0.1755	346238	keystroke_d	d	n/a
173.3025	0.088	346605	keystroke_Key.space	Key.space	n/a
173.535	0.184	347070	keystroke_e	e	n/a
173.663	0.0805	347326	keystroke_n	n	n/a
173.8075	0.1275	347615	keystroke_d	d	n/a
173.927	0.096	347854	keystroke_o	o	n/a
174.055	0.1845	348110	keystroke_r	r	n/a
174.1915	0.08	348383	keystroke_e	e	n/a
174.7115	0.0885	349423	keystroke_Key.backspace	Key.backspace	n/a
174.831	0.1045	349662	keystroke_s	s	n/a
175.0075	0.128	350015	keystroke_e	e	n/a
175.1915	0.1755	350383	keystroke_d	d	n/a
175.383	0.08	350766	keystroke_Key.space	Key.space	n/a
175.7355	0.1445	351471	keystroke_t	t	n/a
175.7675	0.1365	351535	keystroke_h	h	n/a
175.832	0.135	351664	keystroke_u	u	n/a
176.0475	0.136	352095	keystroke_m	m	n/a
176.983	0.096	353966	keystroke_b	b	n/a
177.535	0.08	355070	keystroke_n	n	n/a
177.655	0.1525	355310	keystroke_a	a	n/a
177.7595	0.12	355519	keystroke_i	i	n/a
177.8875	0.104	355775	keystroke_l	l	n/a
177.9915	0.0795	355983	keystroke_e	e	n/a
178.191	0.1365	356382	keystroke_s	s	n/a
178.888	0.064	357776	keystroke_Key.backspace	Key.backspace	n/a
179.0315	0.08	358063	keystroke_Key.backspace	Key.backspace	n/a
179.1675	0.1285	358335	keystroke_s	s	n/a
179.2555	0.1045	358511	keystroke_Key.enter	Key.enter	n/a
179.3635	6.181	358727	prompt	n/a	avoid film seeks southern\n
179.952	0.096	359904	keystroke_a	a	n/a
180.4	0.1445	360800	keystroke_v	v	n/a
180.504	0.1995	361008	keystroke_o	o	n/a
180.584	0.1195	361168	keystroke_i	i	n/a
180.752	0.152	361504	keystroke_d	d	n/a
180.984	0.0805	361968	keystroke_Key.space	Key.space	n/a
181.2	0.16	362400	keystroke_f	f	n/a
181.312	0.1605	362624	keystroke_i	i	n/a
181.4245	0.144	362849	keystroke_l	l	n/a
181.936	0.1205	363872	keystroke_m	m	n/a
182.1925	0.0715	364385	keystroke_Key.space	Key.space	n/a
182.328	0.136	364656	keystroke_s	s	n/a
182.5685	0.088	365137	keystroke_e	e	n/a
182.768	0.128	365536	keystroke_e	e	n/a
182.92	0.0725	365840	keystroke_k	k	n/a
183.0565	0.144	366113	keystroke_s	s	n/a
183.2325	0.0875	366465	keystroke_Key.space	Key.space	n/a
183.6725	0.2075	367345	keystroke_s	s	n/a
183.816	0.216	367632	keystroke_o	o	n/a
183.904	0.112	367808	keystroke_u	u	n/a
184.1525	0.112	368305	keystroke_t	t	n/a
184.2485	0.096	368497	keystroke_h	h	n/a
184.3685	0.1995	368737	keystroke_e	e	n/a
184.632	0.112	369264	keystroke_m	m	n/a
185.0075	0.0805	370015	keystroke_Key.backspace	Key.backspace	n/a
185.136	0.136	370272	keystroke_r	r	n/a
185.24	0.0965	370480	keystroke_m	m	n/a
185.4555	0.0885	370911	keystroke_Key.enter	Key.enter	n/a
185.547	6.646	371094	prompt	n/a	ellis maiden heath stones\n
186.72	0.1605	373440	keystroke_e	e	n/a
186.8165	0.088	373633	keystroke_l	l	n/a
187.04	0.08	374080	keystroke_i	i	n/a
187.208	0.08	374416	keystroke_i	i	n/a
187.5125	0.0635	375025	keystroke_Key.backspace	Key.backspace	n/a
187.664	0.048	375328	keystroke_Key.backspace	Key.backspace	n/a
187.9445	0.0875	375889	keystroke_l	l	n/a
188.184	0.0805	376368	keystroke_i	i	n/a
188.3365	0.176	376673	keystroke_s	s	n/a
189.08	0.08	378160	keystroke_Key.space	Key.space	n/a
189.2965	0.112	378593	keystroke_m	m	n/a
189.4485	0.1835	378897	keystroke_a	a	n/a
189.592	0.0885	379184	keystroke_i	i	n/a
189.7685	0.1595	379537	keystroke_d	d	n/a
189.8325	0.2	379665	keystroke_e	e	n/a
189.976	0.0805	379952	keystroke_n	n	n/a
190.1915	0.0885	380383	keystroke_Key.space	Key.space	n/a
190.424	0.104	380848	keystroke_h	h	n/a
190.52	0.2235	381040	keystroke_e	e	n/a
190.6005	0.151	381201	keystroke_a	a	n/a
190.6955	0.072	381391	keystroke_l	l	n/a
190.888	0.136	381776	keystroke_t	t	n/a
190.96	0.056	381920	keystroke_h	h	n/a
191.176	0.0715	382352	keystroke_Key.space	Key.space	n/a
191.3595	0.0965	382719	keystroke_s	s	n/a
191.512	0.144	383024	keystroke_t	t	n/a
191.584	0.136	383168	keystroke_o	o	n/a
191.68	0.1195	383360	keystroke_n	n	n/a
191.7675	0.088	383535	keystroke_e	e	n/a
191.9675	0.128	383935	keystroke_s	s	n/a
192.1035	0.088	384207	keystroke_Key.enter	Key.enter	n/a
192.1955	5.392	384391	prompt	n/a	fatal brook existing movers\n
192.7995	0.112	385599	keystroke_f	f	n/a
192.8795	0.128	385759	keystroke_a	a	n/a
193.0635	0.12	386127	keystroke_t	t	n/a
193.4875	0.1595	386975	keystroke_a	a	n/a
193.655	0.08	387310	keystroke_l	l	n/a
193.9275	0.0795	387855	keystroke_Key.space	Key.space	n/a
194.135	0.08	388270	keystroke_b	b	n/a
194.223	0.1515	388446	keystroke_r	r	n/a
194.471	0.072	388942	keystroke_o	o	n/a
194.623	0.088	389246	keystroke_o	o	n/a
194.807	0.104	389614	keystroke_k	k	n/a
195.039	0.08	390078	keystroke_Key.space	Key.space	n/a
195.423	0.072	390846	keystroke_e	e	n/a
195.639	0.08	391278	keystroke_x	x	n/a
195.743	0.0635	391486	keystroke_i	i	n/a
195.8465	0.136	391693	keystroke_s	s	n/a
196.087	0.1115	392174	keystroke_t	t	n/a
196.1825	0.144	392365	keystroke_i	i	n/a
196.2785	0.112	392557	keystroke_n	n	n/a
196.3505	0.12	392701	keystroke_g	g	n/a
196.5025	0.0875	393005	keystroke_Key.space	Key.space	n/a
196.83	0.094	393660	keystroke_m	m	n/a
196.91	0.1235	393820	keystroke_o	o	n/a
197.0415	0.092	394083	keystroke_v	v	n/a
197.0855	0.169	394171	keystroke_e	e	n/a
197.2625	0.1435	394525	keystroke_r	r	n/a
197.384	0.146	394768	keystroke_s	s	n/a
197.506	0.08	395012	keystroke_Key.enter	Key.enter	n/a
197.5895	5.8225	395179	prompt	n/a	eagles refresh boys itself\n
198.2425	0.224	396485	keystroke_e	e	n/a
198.3465	0.152	396693	keystroke_a	a	n/a
198.611	0.152	397222	keystroke_g	g	n/a
198.731	0.0715	397462	keystroke_l	l	n/a
198.851	0.08	397702	keystroke_e	e	n/a
199.043	0.1285	398086	keystroke_s	s	n/a
199.139	0.0805	398278	keystroke_Key.space	Key.space	n/a
199.571	0.1845	399142	keystroke_r	r	n/a
199.6515	0.168	399303	keystroke_e	e	n/a
200.115	0.1125	400230	keystroke_f	f	n/a
200.3315	0.1515	400663	keystroke_r	r	n/a
200.403	0.112	400806	keystroke_e	e	n/a
200.6275	0.144	401255	keystroke_s	s	n/a
200.7795	0.064	401559	keystroke_h	h	n/a
200.979	0.064	401958	keystroke_Key.space	Key.space	n/a
201.131	0.1125	402262	keystroke_b	b	n/a
201.2115	0.168	402423	keystroke_o	o	n/a
201.4355	0.1115	402871	keystroke_y	y	n/a
201.667	0.1435	403334	keystroke_s	s	n/a
201.8745	0.1045	403749	keystroke_Key.space	Key.space	n/a
202.1625	0.08	404325	keystroke_i	i	n/a
202.2985	0.1195	404597	keystroke_t	t	n/a
202.7625	0.064	405525	keystroke_s	s	n/a
202.9385	0.12	405877	keystroke_e	e	n/a
203.0825	0.072	406165	keystroke_l	l	n/a
203.2105	0.112	406421	keystroke_f	f	n/a
203.3305	0.08	406661	keystroke_Key.enter	Key.enter	n/a
203.4145	6.7915	406829	prompt	n/a	rats strategic brain luxembourg\n
204.1705	0.1595	408341	keystroke_r	r	n/a
204.29	0.152	408580	keystroke_a	a	n/a
204.49	0.128	408980	keystroke_t	t	n/a
204.754	0.16	409508	keystroke_s	s	n/a
205.034	0.104	410068	keystroke_Key.space	Key.space	n/a
205.258	0.1195	410516	keystroke_s	s	n/a
205.4815	0.088	410963	keystroke_t	t	n/a
205.658	0.1255	411316	keystroke_r	r	n/a
205.7215	0.1035	411443	keystroke_a	a	n/a
205.876	0.1155	411752	keystroke_t	t	n/a
205.9275	0.084	411855	keystroke_e	e	n/a
206.064	0.092	412128	keystroke_g	g	n/a
206.1675	0.078	412335	keystroke_i	i	n/a
206.2935	0.16	412587	keystroke_c	c	n/a
206.4615	0.08	412923	keystroke_Key.space	Key.space	n/a
206.7815	0.104	413563	keystroke_b	b	n/a
206.9095	0.16	413819	keystroke_r	r	n/a
207.0295	0.2	414059	keystroke_a	a	n/a
207.2215	0.168	414443	keystroke_i	i	n/a
207.3415	0.1115	414683	keystroke_n	n	n/a
207.565	0.08	415130	keystroke_Key.space	Key.space	n/a
207.853	0.104	415706	keystroke_l	l	n/a
208.085	0.088	416170	keystroke_u	u	n/a
208.269	0.16	416538	keystroke_x	x	n/a
208.645	0.1525	417290	keystroke_e	e	n/a
208.8055	0.0875	417611	keystroke_m	m	n/a
209.2295	0.12	418459	keystroke_b	b	n/a
209.3495	0.2635	418699	keystroke_o	o	n/a
209.469	0.128	418938	keystroke_u	u	n/a
209.717	0.088	419434	keystroke_r	r	n/a
209.917	0.12	419834	keystroke_g	g	n/a
210.109	0.0955	420218	keystroke_Key.enter	Key.enter	n/a
210.2085	11.119	420417	prompt	n/a	seal runner diabetes stating\n
210.848	0.0875	421696	keystroke_s	s	n/a
211.0325	0.2475	422065	keystroke_e	e	n/a
211.1365	0.1675	422273	keystroke_a	a	n/a
211.336	0.072	422672	keystroke_l	l	n/a
211.5765	0.0795	423153	keystroke_Key.space	Key.space	n/a
212.144	0.16	424288	keystroke_r	r	n/a
212.248	0.088	424496	keystroke_u	u	n/a
212.432	0.088	424864	keystroke_n	n	n/a
212.592	0.104	425184	keystroke_n	n	n/a
212.68	0.2165	425360	keystroke_e	e	n/a
212.8165	0.152	425633	keystroke_r	r	n/a
212.9125	0.088	425825	keystroke_Key.space	Key.space	n/a
213.1925	0.144	426385	keystroke_d	d	n/a
213.3285	0.088	426657	keystroke_i	i	n/a
213.4245	0.12	426849	keystroke_a	a	n/a
213.6165	0.1675	427233	keystroke_t	t	n/a
213.6965	0.1515	427393	keystroke_e	e	n/a
213.912	0.104	427824	keystroke_b	b	n/a
214.1035	0.1765	428207	keystroke_e	e	n/a
215.4915	0.096	430983	keystroke_Key.backspace	Key.backspace	n/a
215.7	0.072	431400	keystroke_Key.backspace	Key.backspace	n/a
216.62	0.0805	433240	keystroke_Key.backspace	Key.backspace	n/a
216.8285	0.08	433657	keystroke_Key.backspace	Key.backspace	n/a
217.3735	0.0875	434747	keystroke_Key.space	Key.space	n/a
217.7735	0.1605	435547	keystroke_d	d	n/a
217.9655	0.104	435931	keystroke_i	i	n/a
218.1175	0.1685	436235	keystroke_a	a	n/a
218.486	0.112	436972	keystroke_b	b	n/a
218.614	0.1445	437228	keystroke_e	e	n/a
218.8945	0.1595	437789	keystroke_t	t	n/a
218.9745	0.1195	437949	keystroke_e	e	n/a
219.2145	0.1285	438429	keystroke_s	s	n/a
219.327	0.0965	438654	keystroke_Key.space	Key.space	n/a
219.4875	0.1275	438975	keystroke_s	s	n/a
219.655	0.152	439310	keystroke_t	t	n/a
219.759	0.1525	439518	keystroke_a	a	n/a
219.9275	0.1995	439855	keystroke_t	t	n/a
220.0235	0.1595	440047	keystroke_e	e	n/a
220.5115	0.0715	441023	keystroke_Key.backspace	Key.backspace	n/a
220.767	0.1605	441534	keystroke_i	i	n/a
220.8635	0.136	441727	keystroke_n	n	n/a
220.9515	0.1275	441903	keystroke_g	g	n/a
221.215	0.1115	442430	keystroke_Key.enter	Key.enter	n/a
221.3305	6.8375	442661	prompt	n/a	sticky quoted lesson chrome\n
222.0155	0.1435	444031	keystroke_s	s	n/a
222.3515	0.104	444703	keystroke_t	t	n/a
222.4795	0.08	444959	keystroke_i	i	n/a
222.632	0.135	445264	keystroke_c	c	n/a
222.751	0.1045	445502	keystroke_k	k	n/a
223.208	0.127	446416	keystroke_y	y	n/a
223.391	0.096	446782	keystroke_Key.space	Key.space	n/a
223.6795	0.1435	447359	keystroke_q	q	n/a
223.831	0.128	447662	keystroke_u	u	n/a
224.0235	0.112	448047	keystroke_o	o	n/a
224.2075	0.1595	448415	keystroke_t	t	n/a
224.295	0.128	448590	keystroke_e	e	n/a
224.5355	0.16	449071	keystroke_d	d	n/a
224.7595	0.0875	449519	keystroke_Key.space	Key.space	n/a
225.0395	0.096	450079	keystroke_l	l	n/a
225.1915	0.112	450383	keystroke_s	s	n/a
225.6475	0.072	451295	keystroke_Key.backspace	Key.backspace	n/a
225.7755	0.112	451551	keystroke_e	e	n/a
226.0315	0.08	452063	keystroke_s	s	n/a
226.2315	0.144	452463	keystroke_s	s	n/a
226.3195	0.1595	452639	keystroke_o	o	n/a
226.4235	0.112	452847	keystroke_n	n	n/a
226.6555	0.096	453311	keystroke_Key.space	Key.space	n/a
226.9195	0.12	453839	keystroke_c	c	n/a
227.1915	0.104	454383	keystroke_h	h	n/a
227.3915	0.1435	454783	keystroke_r	r	n/a
227.527	0.1605	455054	keystroke_o	o	n/a
227.6475	0.136	455295	keystroke_m	m	n/a
227.7675	0.152	455535	keystroke_e	e	n/a
228.063	0.104	456126	keystroke_Key.enter	Key.enter	n/a
228.1725	5.936	456345	prompt	n/a	secured surface picnic wizard\n
228.9355	0.096	457871	keystroke_s	s	n/a
229.135	0.1045	458270	keystroke_e	e	n/a
229.3115	0.112	458623	keystroke_c	c	n/a
229.4555	0.0885	458911	keystroke_u	u	n/a
229.568	0.1515	459136	keystroke_r	r	n/a
229.624	0.1355	459248	keystroke_e	e	n/a
229.8555	0.16	459711	keystroke_d	d	n/a
230.0235	0.0885	460047	keystroke_Key.space	Key.space	n/a
230.2395	0.144	460479	keystroke_s	s	n/a
230.3835	0.08	460767	keystroke_u	u	n/a
230.4875	0.104	460975	keystroke_r	r	n/a
230.8155	0.144	461631	keystroke_f	f	n/a
230.9195	0.152	461839	keystroke_a	a	n/a
231.1355	0.168	462271	keystroke_c	c	n/a
231.2315	0.1755	462463	keystroke_e	e	n/a
231.447	0.0795	462894	keystroke_Key.space	Key.space	n/a
231.6035	0.0625	463207	keystroke_p	p	n/a
231.728	0.091	463456	keystroke_i	i	n/a
231.875	0.152	463750	keystroke_c	c	n/a
232.195	0.112	464390	keystroke_n	n	n/a
232.315	0.152	464630	keystroke_i	i	n/a
232.459	0.1605	464918	keystroke_c	c	n/a
232.6755	0.08	465351	keystroke_Key.space	Key.space	n/a
232.8195	0.152	465639	keystroke_w	w	n/a
233.0115	0.08	466023	keystroke_i	i	n/a
233.1395	0.136	466279	keystroke_z	z	n/a
233.411	0.1205	466822	keystroke_a	a	n/a
233.5875	0.12	467175	keystroke_r	r	n/a
233.8035	0.144	467607	keystroke_d	d	n/a
233.9955	0.112	467991	keystroke_Key.enter	Key.enter	n/a
234.1115	4.996	468223	prompt	n/a	studio prefer biological fact\n
234.6755	0.1045	469351	keystroke_s	s	n/a
234.844	0.12	469688	keystroke_t	t	n/a
234.94	0.0795	469880	keystroke_u	u	n/a
235.1155	0.1515	470231	keystroke_d	d	n/a
235.2355	0.1675	470471	keystroke_i	i	n/a
235.339	0.12	470678	keystroke_o	o	n/a
235.5835	0.051	471167	keystroke_Key.space	Key.space	n/a
235.724	0.066	471448	keystroke_p	p	n/a
235.798	0.1035	471596	keystroke_r	r	n/a
235.8515	0.086	471703	keystroke_e	e	n/a
236.071	0.095	472142	keystroke_f	f	n/a
236.2315	0.0925	472463	keystroke_r	r	n/a
236.2715	0.0655	472543	keystroke_e	e	n/a
236.353	0.096	472706	keystroke_Key.space	Key.space	n/a
236.6705	0.1235	473341	keystroke_b	b	n/a
236.746	0.168	473492	keystroke_i	i	n/a
236.882	0.12	473764	keystroke_o	o	n/a
237.1145	0.088	474229	keystroke_l	l	n/a
237.2985	0.08	474597	keystroke_o	o	n/a
237.4425	0.1125	474885	keystroke_g	g	n/a
237.563	0.0955	475126	keystroke_i	i	n/a
237.7705	0.176	475541	keystroke_c	c	n/a
237.8825	0.2	475765	keystroke_a	a	n/a
238.0105	0.064	476021	keystroke_l	l	n/a
238.2825	0.12	476565	keystroke_Key.space	Key.space	n/a
238.3945	0.144	476789	keystroke_f	f	n/a
238.5065	0.1445	477013	keystroke_a	a	n/a
238.667	0.1035	477334	keystroke_c	c	n/a
238.9225	0.1285	477845	keystroke_t	t	n/a
239.019	0.088	478038	keystroke_Key.enter	Key.enter	n/a
239.1105	8.1615	478221	prompt	n/a	holidays sold collaborative vegetation\n
239.8105	0.096	479621	keystroke_h	h	n/a
240.082	0.088	480164	keystroke_o	o	n/a
240.298	0.096	480596	keystroke_l	l	n/a
240.498	0.1115	480996	keystroke_i	i	n/a
240.673	0.113	481346	keystroke_d	d	n/a
240.756	0.082	481512	keystroke_a	a	n/a
240.9895	0.056	481979	keystroke_y	y	n/a
241.1815	0.1445	482363	keystroke_s	s	n/a
241.302	0.096	482604	keystroke_Key.space	Key.space	n/a
241.6055	0.1755	483211	keystroke_d	d	n/a
242.006	0.0315	484012	keystroke_Key.backspace	Key.backspace	n/a
242.1815	0.136	484363	keystroke_s	s	n/a
242.2455	0.088	484491	keystroke_o	o	n/a
242.454	0.096	484908	keystroke_l	l	n/a
242.5655	0.176	485131	keystroke_d	d	n/a
242.8135	0.096	485627	keystroke_Key.space	Key.space	n/a
243.233	0.168	486466	keystroke_c	c	n/a
243.361	0.072	486722	keystroke_o	o	n/a
243.5615	0.072	487123	keystroke_l	l	n/a
243.7135	0.12	487427	keystroke_l	l	n/a
243.8575	0.192	487715	keystroke_a	a	n/a
244.449	0.0965	488898	keystroke_b	b	n/a
244.5855	0.1195	489171	keystroke_o	o	n/a
244.753	0.168	489506	keystroke_r	r	n/a
244.833	0.1755	489666	keystroke_a	a	n/a
245.169	0.0825	490338	keystroke_t	t	n/a
245.2555	0.069	490511	keystroke_i	i	n/a
245.3885	0.1395	490777	keystroke_v	v	n/a
245.46	0.157	490920	keystroke_e	e	n/a
245.5755	0.065	491151	keystroke_Key.space	Key.space	n/a
245.852	0.1795	491704	keystroke_v	v	n/a
245.944	0.1675	491888	keystroke_e	e	n/a
246.1845	0.1395	492369	keystroke_g	g	n/a
246.308	0.0795	492616	keystroke_a	a	n/a
246.475	0.0995	492950	keystroke_t	t	n/a
246.736	0.1195	493472	keystroke_a	a	n/a
246.9195	0.0965	493839	keystroke_t	t	n/a
246.992	0.132	493984	keystroke_i	i	n/a
247.0195	0.1205	494039	keystroke_o	o	n/a
247.063	0.093	494126	keystroke_n	n	n/a
247.2195	0.051	494439	keystroke_Key.enter	Key.enter	n/a
247.2745	6.3275	494549	prompt	n/a	treasury includes refurbished promote\n
247.8355	0.0795	495671	keystroke_t	t	n/a
247.979	0.153	495958	keystroke_r	r	n/a
248.0585	0.109	496117	keystroke_e	e	n/a
248.1315	0.06	496263	keystroke_a	a	n/a
248.3	0.132	496600	keystroke_s	s	n/a
248.5025	0.076	497005	keystroke_u	u	n/a
248.654	0.106	497308	keystroke_r	r	n/a
248.959	0.1355	497918	keystroke_y	y	n/a
249.1105	0.0875	498221	keystroke_Key.space	Key.space	n/a
249.3105	0.081	498621	keystroke_i	i	n/a
249.3585	0.0915	498717	keystroke_n	n	n/a
249.3995	0.1245	498799	keystroke_c	c	n/a
249.5295	0.04	499059	keystroke_l	l	n/a
249.6715	0.051	499343	keystroke_u	u	n/a
249.7545	0.1515	499509	keystroke_d	d	n/a
249.85	0.088	499700	keystroke_e	e	n/a
250.0095	0.0675	500019	keystroke_s	s	n/a
250.0995	0.0765	500199	keystroke_Key.space	Key.space	n/a
250.322	0.1615	500644	keystroke_r	r	n/a
250.394	0.094	500788	keystroke_e	e	n/a
250.7855	0.0925	501571	keystroke_f	f	n/a
250.966	0.0955	501932	keystroke_u	u	n/a
251.1015	0.1025	502203	keystroke_r	r	n/a
251.565	0.096	503130	keystroke_b	b	n/a
251.629	0.108	503258	keystroke_i	i	n/a
251.745	0.1115	503490	keystroke_s	s	n/a
251.8645	0.097	503729	keystroke_h	h	n/a
251.9775	0.072	503955	keystroke_e	e	n/a
252.1535	0.136	504307	keystroke_d	d	n/a
252.2165	0.08	504433	keystroke_Key.space	Key.space	n/a
252.4015	0.096	504803	keystroke_p	p	n/a
252.5215	0.144	505043	keystroke_r	r	n/a
252.6255	0.0965	505251	keystroke_o	o	n/a
252.85	0.1915	505700	keystroke_m	m	n/a
253.0015	0.152	506003	keystroke_o	o	n/a
253.2335	0.152	506467	keystroke_t	t	n/a
253.3055	0.168	506611	keystroke_e	e	n/a
253.505	0.095	507010	keystroke_Key.enter	Key.enter	n/a
253.605	5.9775	507210	prompt	n/a	homeland basically curtis italia\n
254.2045	0.12	508409	keystroke_h	h	n/a
254.3005	0.144	508601	keystroke_o	o	n/a
254.476	0.1075	508952	keystroke_m	m	n/a
254.5805	0.099	509161	keystroke_e	e	n/a
254.7235	0.036	509447	keystroke_l	l	n/a
254.764	0.123	509528	keystroke_a	a	n/a
254.855	0.0635	509710	keystroke_n	n	n/a
254.9195	0.076	509839	keystroke_d	d	n/a
254.9745	0.0415	509949	keystroke_Key.space	Key.space	n/a
255.096	0.052	510192	keystroke_b	b	n/a
255.148	0.0995	510296	keystroke_a	a	n/a
255.228	0.1195	510456	keystroke_s	s	n/a
255.335	0.04	510670	keystroke_i	i	n/a
255.5675	0.056	511135	keystroke_c	c	n/a
255.667	0.089	511334	keystroke_a	a	n/a
255.7665	0.044	511533	keystroke_l	l	n/a
255.872	0.0865	511744	keystroke_l	l	n/a
256.0545	0.121	512109	keystroke_y	y	n/a
256.1595	0.096	512319	keystroke_Key.space	Key.space	n/a
256.4955	0.1435	512991	keystroke_c	c	n/a
256.9515	0.104	513903	keystroke_u	u	n/a
257.1595	0.1195	514319	keystroke_r	r	n/a
257.3985	0.1015	514797	keystroke_t	t	n/a
257.5305	0.061	515061	keystroke_i	i	n/a
257.608	0.143	515216	keystroke_s	s	n/a
257.767	0.088	515534	keystroke_Key.space	Key.space	n/a
258.599	0.112	517198	keystroke_i	i	n/a
258.7505	0.112	517501	keystroke_t	t	n/a
258.966	0.0995	517932	keystroke_a	a	n/a
259.0815	0.2245	518163	keystroke_l	l	n/a
259.185	0.153	518370	keystroke_i	i	n/a
259.3435	0.122	518687	keystroke_a	a	n/a
259.4975	0.084	518995	keystroke_Key.enter	Key.enter	n/a
259.585	4.6705	519170	prompt	n/a	instead shades vital remind\n
260.323	0.112	520646	keystroke_i	i	n/a
260.491	0.1205	520982	keystroke_n	n	n/a
260.6275	0.112	521255	keystroke_s	s	n/a
260.8195	0.16	521639	keystroke_t	t	n/a
260.8995	0.2005	521799	keystroke_e	e	n/a
261.0035	0.1605	522007	keystroke_a	a	n/a
261.18	0.1675	522360	keystroke_d	d	n/a
261.316	0.1035	522632	keystroke_Key.space	Key.space	n/a
261.508	0.144	523016	keystroke_s	s	n/a
261.636	0.1045	523272	keystroke_h	h	n/a
261.7245	0.12	523449	keystroke_a	a	n/a
261.8525	0.2085	523705	keystroke_d	d	n/a
261.957	0.128	523914	keystroke_e	e	n/a
262.197	0.1365	524394	keystroke_s	s	n/a
262.4135	0.096	524827	keystroke_Key.space	Key.space	n/a
262.67	0.152	525340	keystroke_v	v	n/a
262.83	0.097	525660	keystroke_i	i	n/a
263.111	0.1515	526222	keystroke_t	t	n/a
263.1985	0.1635	526397	keystroke_a	a	n/a
263.3025	0.0755	526605	keystroke_l	l	n/a
263.4225	0.0735	526845	keystroke_Key.space	Key.space	n/a
263.5545	0.1675	527109	keystroke_r	r	n/a
263.6505	0.1235	527301	keystroke_e	e	n/a
263.73	0.0775	527460	keystroke_m	m	n/a
263.8575	0.137	527715	keystroke_i	i	n/a
263.952	0.0905	527904	keystroke_n	n	n/a
264.0425	0.1075	528085	keystroke_d	d	n/a
264.174	0.08	528348	keystroke_Key.enter	Key.enter	n/a
264.258	7.8435	528516	prompt	n/a	restructuring sensor seriously inches\n
265.1105	0.1835	530221	keystroke_r	r	n/a
265.19	0.136	530380	keystroke_e	e	n/a
265.47	0.118	530940	keystroke_s	s	n/a
265.756	0.0495	531512	keystroke_t	t	n/a
265.893	0.104	531786	keystroke_r	r	n/a
265.989	0.073	531978	keystroke_u	u	n/a
266.1095	0.098	532219	keystroke_c	c	n/a
266.8515	0.1045	533703	keystroke_t	t	n/a
266.996	0.0875	533992	keystroke_u	u	n/a
267.1095	0.1235	534219	keystroke_r	r	n/a
267.241	0.128	534482	keystroke_i	i	n/a
267.321	0.112	534642	keystroke_n	n	n/a
267.433	0.144	534866	keystroke_g	g	n/a
267.561	0.096	535122	keystroke_Key.space	Key.space	n/a
267.817	0.104	535634	keystroke_s	s	n/a
268.0085	0.1445	536017	keystroke_e	e	n/a
268.0885	0.0965	536177	keystroke_n	n	n/a
268.4325	0.136	536865	keystroke_s	s	n/a
268.5845	0.0725	537169	keystroke_o	o	n/a
268.689	0.1675	537378	keystroke_r	r	n/a
269.032	0.072	538064	keystroke_Key.space	Key.space	n/a
269.1485	0.084	538297	keystroke_s	s	n/a
269.296	0.14	538592	keystroke_e	e	n/a
269.404	0.1515	538808	keystroke_r	r	n/a
269.484	0.1195	538968	keystroke_i	i	n/a
269.576	0.348	539152	keystroke_o	o	n/a
269.7725	0.1595	539545	keystroke_u	u	n/a
270.076	0.12	540152	keystroke_s	s	n/a
270.3565	0.096	540713	keystroke_l	l	n/a
270.4845	0.136	540969	keystroke_y	y	n/a
270.8365	0.104	541673	keystroke_Key.space	Key.space	n/a
271.1245	0.192	542249	keystroke_i	i	n/a
271.253	0.1515	542506	keystroke_n	n	n/a
271.4525	0.128	542905	keystroke_c	c	n/a
271.621	0.096	543242	keystroke_h	h	n/a
271.685	0.08	543370	keystroke_e	e	n/a
271.9005	0.128	543801	keystroke_s	s	n/a
272.0285	0.072	544057	keystroke_Key.enter	Key.enter	n/a
272.1045	6.9085	544209	prompt	n/a	arranged real causing elimination\n
272.7565	0.1435	545513	keystroke_a	a	n/a
272.964	0.088	545928	keystroke_r	r	n/a
273.132	0.12	546264	keystroke_r	r	n/a
273.204	0.144	546408	keystroke_a	a	n/a
273.356	0.088	546712	keystroke_n	n	n/a
273.7805	0.136	547561	keystroke_g	g	n/a
273.8685	0.1035	547737	keystroke_e	e	n/a
274.084	0.136	548168	keystroke_d	d	n/a
274.188	0.096	548376	keystroke_Key.space	Key.space	n/a
274.4525	0.207	548905	keystroke_r	r	n/a
274.54	0.2475	549080	keystroke_e	e	n/a
274.6515	0.16	549303	keystroke_a	a	n/a
274.7795	0.096	549559	keystroke_l	l	n/a
275.0835	0.112	550167	keystroke_Key.space	Key.space	n/a
275.4515	0.168	550903	keystroke_c	c	n/a
275.5555	0.2	551111	keystroke_a	a	n/a
275.7315	0.088	551463	keystroke_u	u	n/a
275.8915	0.144	551783	keystroke_s	s	n/a
276.0355	0.144	552071	keystroke_i	i	n/a
276.1395	0.12	552279	keystroke_n	n	n/a
276.2275	0.1445	552455	keystroke_g	g	n/a
276.396	0.096	552792	keystroke_Key.space	Key.space	n/a
276.972	0.16	553944	keystroke_e	e	n/a
277.2115	0.2555	554423	keystroke_l	l	n/a
277.339	0.129	554678	keystroke_i	i	n/a
277.563	0.168	555126	keystroke_m	m	n/a
277.6995	0.184	555399	keystroke_i	i	n/a
277.8515	0.144	555703	keystroke_n	n	n/a
277.9875	0.128	555975	keystroke_a	a	n/a
278.1955	0.1595	556391	keystroke_t	t	n/a
278.435	0.296	556870	keystroke_i	i	n/a
278.579	0.168	557158	keystroke_o	o	n/a
278.636	0.151	557272	keystroke_n	n	n/a
278.907	0.1045	557814	keystroke_Key.enter	Key.enter	n/a
279.0155	5.62	558031	prompt	n/a	persistent template out crown\n
279.7325	0.0725	559465	keystroke_p	p	n/a
279.813	0.1435	559626	keystroke_e	e	n/a
279.9085	0.128	559817	keystroke_r	r	n/a
280.0925	0.1115	560185	keystroke_s	s	n/a
280.188	0.072	560376	keystroke_i	i	n/a
280.3075	0.0405	560615	keystroke_s	s	n/a
280.36	0.1195	560720	keystroke_t	t	n/a
280.4155	0.1	560831	keystroke_e	e	n/a
280.491	0.0325	560982	keystroke_m	m	n/a
280.6915	0.044	561383	keystroke_Key.backspace	Key.backspace	n/a
280.8795	0.076	561759	keystroke_n	n	n/a
280.9835	0.1275	561967	keystroke_t	t	n/a
281.215	0.088	562430	keystroke_Key.space	Key.space	n/a
281.608	0.1025	563216	keystroke_t	t	n/a
281.6715	0.1345	563343	keystroke_e	e	n/a
281.732	0.0795	563464	keystroke_m	m	n/a
281.834	0.1	563668	keystroke_p	p	n/a
282.0305	0.073	564061	keystroke_l	l	n/a
282.104	0.072	564208	keystroke_a	a	n/a
282.372	0.084	564744	keystroke_t	t	n/a
282.4075	0.1305	564815	keystroke_e	e	n/a
282.594	0.088	565188	keystroke_Key.space	Key.space	n/a
282.802	0.256	565604	keystroke_o	o	n/a
282.93	0.12	565860	keystroke_u	u	n/a
283.018	0.12	566036	keystroke_t	t	n/a
283.21	0.088	566420	keystroke_Key.space	Key.space	n/a
283.714	0.0715	567428	keystroke_c	c	n/a
283.9295	0.1205	567859	keystroke_r	r	n/a
284.058	0.072	568116	keystroke_o	o	n/a
284.1775	0.176	568355	keystroke_w	w	n/a
284.3055	0.072	568611	keystroke_n	n	n/a
284.5455	0.088	569091	keystroke_Key.enter	Key.enter	n/a
284.6385	6.4975	569277	prompt	n/a	ground assumption nova fingers\n
285.3215	0.096	570643	keystroke_g	g	n/a
285.5295	0.1355	571059	keystroke_r	r	n/a
285.5455	0.222	571091	keystroke_o	o	n/a
285.649	0.119	571298	keystroke_u	u	n/a
285.769	0.104	571538	keystroke_n	n	n/a
285.933	0.1515	571866	keystroke_d	d	n/a
286.157	0.112	572314	keystroke_Key.space	Key.space	n/a
286.4775	0.144	572955	keystroke_a	a	n/a
286.6695	0.0875	573339	keystroke_s	s	n/a
286.8295	0.192	573659	keystroke_s	s	n/a
286.8855	0.104	573771	keystroke_u	u	n/a
287.0855	0.1285	574171	keystroke_m	m	n/a
287.237	0.1285	574474	keystroke_p	p	n/a
287.829	0.1525	575658	keystroke_t	t	n/a
287.909	0.2085	575818	keystroke_i	i	n/a
287.9975	0.128	575995	keystroke_o	o	n/a
288.0615	0.12	576123	keystroke_n	n	n/a
288.2855	0.0955	576571	keystroke_Key.space	Key.space	n/a
288.749	0.08	577498	keystroke_n	n	n/a
288.83	0.143	577660	keystroke_o	o	n/a
289.221	0.1835	578442	keystroke_v	v	n/a
289.325	0.183	578650	keystroke_e	e	n/a
289.612	0.0875	579224	keystroke_Key.backspace	Key.backspace	n/a
289.7355	0.157	579471	keystroke_a	a	n/a
290.028	0.104	580056	keystroke_Key.space	Key.space	n/a
290.376	0.112	580752	keystroke_f	f	n/a
290.48	0.128	580960	keystroke_i	i	n/a
290.56	0.12	581120	keystroke_n	n	n/a
290.616	0.136	581232	keystroke_g	g	n/a
290.704	0.152	581408	keystroke_e	e	n/a
290.872	0.1675	581744	keystroke_r	r	n/a
290.992	0.1275	581984	keystroke_s	s	n/a
291.0955	0.0405	582191	keystroke_Key.enter	Key.enter	n/a
291.1375	6.6215	582275	prompt	n/a	unfortunately film rhode inclusive\n
291.5875	0.091	583175	keystroke_u	u	n/a
291.6905	0.1	583381	keystroke_n	n	n/a
291.8385	0.12	583677	keystroke_f	f	n/a
291.9665	0.0965	583933	keystroke_o	o	n/a
292.103	0.093	584206	keystroke_r	r	n/a
292.2545	0.1075	584509	keystroke_t	t	n/a
292.3435	0.0865	584687	keystroke_u	u	n/a
292.446	0.1925	584892	keystroke_n	n	n/a
292.7425	0.161	585485	keystroke_a	a	n/a
292.9425	0.168	585885	keystroke_t	t	n/a
293.335	0.191	586670	keystroke_e	e	n/a
293.639	0.079	587278	keystroke_l	l	n/a
293.75	0.136	587500	keystroke_y	y	n/a
293.998	0.096	587996	keystroke_Key.space	Key.space	n/a
294.142	0.152	588284	keystroke_f	f	n/a
294.247	0.143	588494	keystroke_i	i	n/a
294.366	0.136	588732	keystroke_l	l	n/a
294.7375	0.084	589475	keystroke_m	m	n/a
294.977	0.0785	589954	keystroke_Key.space	Key.space	n/a
295.4655	0.1835	590931	keystroke_r	r	n/a
295.7375	0.1195	591475	keystroke_h	h	n/a
295.865	0.12	591730	keystroke_o	o	n/a
296.1285	0.111	592257	keystroke_d	d	n/a
296.1635	0.1535	592327	keystroke_e	e	n/a
296.325	0.088	592650	keystroke_Key.space	Key.space	n/a
296.5675	0.0805	593135	keystroke_i	i	n/a
296.6235	0.0525	593247	keystroke_n	n	n/a
296.7485	0.16	593497	keystroke_c	c	n/a
296.8365	0.096	593673	keystroke_l	l	n/a
297.0365	0.0965	594073	keystroke_u	u	n/a
297.237	0.112	594474	keystroke_s	s	n/a
297.365	0.088	594730	keystroke_i	i	n/a
297.469	0.1925	594938	keystroke_v	v	n/a
297.6055	0.104	595211	keystroke_e	e	n/a
297.6695	0.088	595339	keystroke_Key.enter	Key.enter	n/a
297.7615	7.3495	595523	prompt	n/a	farmer advertiser pontiac resolutions\n
298.5155	0.1365	597031	keystroke_f	f	n/a
298.684	0.1365	597368	keystroke_a	a	n/a
298.829	0.145	597658	keystroke_r	r	n/a
298.958	0.1045	597916	keystroke_m	m	n/a
299.0625	0.184	598125	keystroke_e	e	n/a
299.1745	0.1445	598349	keystroke_r	r	n/a
299.271	0.095	598542	keystroke_Key.space	Key.space	n/a
299.4625	0.1845	598925	keystroke_a	a	n/a
299.623	0.08	599246	keystroke_d	d	n/a
299.815	0.128	599630	keystroke_v	v	n/a
299.983	0.1845	599966	keystroke_e	e	n/a
300.1435	0.128	600287	keystroke_r	r	n/a
300.3595	0.1035	600719	keystroke_t	t	n/a
300.487	0.088	600974	keystroke_i	i	n/a
300.623	0.1365	601246	keystroke_s	s	n/a
300.8715	0.2155	601743	keystroke_e	e	n/a
300.9985	0.1685	601997	keystroke_r	r	n/a
301.207	0.08	602414	keystroke_Key.space	Key.space	n/a
301.5505	0.1285	603101	keystroke_p	p	n/a
301.839	0.2075	603678	keystroke_o	o	n/a
301.9825	0.128	603965	keystroke_n	n	n/a
302.199	0.136	604398	keystroke_t	t	n/a
302.351	0.1205	604702	keystroke_i	i	n/a
302.5745	0.1445	605149	keystroke_a	a	n/a
302.903	0.1355	605806	keystroke_c	c	n/a
303.1105	0.088	606221	keystroke_Key.space	Key.space	n/a
303.311	0.176	606622	keystroke_r	r	n/a
303.407	0.128	606814	keystroke_e	e	n/a
303.6465	0.152	607293	keystroke_s	s	n/a
303.8225	0.104	607645	keystroke_o	o	n/a
304.0465	0.1115	608093	keystroke_l	l	n/a
304.256	0.066	608512	keystroke_u	u	n/a
304.3975	0.144	608795	keystroke_t	t	n/a
304.4775	0.2005	608955	keystroke_i	i	n/a
304.5495	0.1445	609099	keystroke_o	o	n/a
304.637	0.113	609274	keystroke_n	n	n/a
304.8575	0.14	609715	keystroke_s	s	n/a
305.0055	0.104	610011	keystroke_Key.enter	Key.enter	n/a
305.1135	4.4265	610227	prompt	n/a	grad distinct tank cloud\n
305.7295	0.112	611459	keystroke_g	g	n/a
305.9095	0.1195	611819	keystroke_r	r	n/a
305.973	0.16	611946	keystroke_a	a	n/a
306.141	0.1365	612282	keystroke_d	d	n/a
306.3335	0.088	612667	keystroke_Key.space	Key.space	n/a
306.5895	0.136	613179	keystroke_d	d	n/a
306.7415	0.088	613483	keystroke_i	i	n/a
306.8615	0.136	613723	keystroke_s	s	n/a
307.118	0.128	614236	keystroke_t	t	n/a
307.206	0.1515	614412	keystroke_i	i	n/a
307.3095	0.128	614619	keystroke_n	n	n/a
307.4295	0.1275	614859	keystroke_c	c	n/a
307.681	0.132	615362	keystroke_t	t	n/a
307.805	0.087	615610	keystroke_Key.space	Key.space	n/a
307.913	0.1355	615826	keystroke_t	t	n/a
307.9925	0.184	615985	keystroke_a	a	n/a
308.1125	0.16	616225	keystroke_n	n	n/a
308.2085	0.1605	616417	keystroke_k	k	n/a
308.5055	0.096	617011	keystroke_Key.space	Key.space	n/a
308.6735	0.1445	617347	keystroke_c	c	n/a
308.754	0.088	617508	keystroke_l	l	n/a
308.9375	0.2245	617875	keystroke_o	o	n/a
309.074	0.1445	618148	keystroke_u	u	n/a
309.2665	0.1515	618533	keystroke_d	d	n/a
309.45	0.088	618900	keystroke_Key.enter	Key.enter	n/a
309.5425	9.2785	619085	prompt	n/a	transform connection aerospace advisor\n
310.355	0.079	620710	keystroke_t	t	n/a
310.5225	0.144	621045	keystroke_r	r	n/a
310.5945	0.176	621189	keystroke_a	a	n/a
310.7305	0.096	621461	keystroke_n	n	n/a
310.8585	0.1355	621717	keystroke_s	s	n/a
311.05	0.1285	622100	keystroke_f	f	n/a
311.1465	0.096	622293	keystroke_o	o	n/a
311.3065	0.176	622613	keystroke_r	r	n/a
311.4425	0.1195	622885	keystroke_m	m	n/a
311.706	0.096	623412	keystroke_Key.space	Key.space	n/a
312.0105	0.1755	624021	keystroke_c	c	n/a
312.13	0.1125	624260	keystroke_o	o	n/a
312.226	0.0805	624452	keystroke_n	n	n/a
312.3945	0.12	624789	keystroke_n	n	n/a
312.4905	0.1995	624981	keystroke_e	e	n/a
312.61	0.12	625220	keystroke_c	c	n/a
312.8585	0.1925	625717	keystroke_t	t	n/a
312.9625	0.1835	625925	keystroke_i	i	n/a
313.027	0.135	626054	keystroke_o	o	n/a
313.074	0.12	626148	keystroke_n	n	n/a
313.3065	0.096	626613	keystroke_Key.space	Key.space	n/a
314.011	0.1035	628022	keystroke_a	a	n/a
314.1945	0.2085	628389	keystroke_e	e	n/a
314.331	0.184	628662	keystroke_r	r	n/a
314.507	0.0965	629014	keystroke_o	o	n/a
314.7625	0.152	629525	keystroke_s	s	n/a
314.9545	0.096	629909	keystroke_p	p	n/a
315.09	0.12	630180	keystroke_a	a	n/a
315.266	0.184	630532	keystroke_c	c	n/a
315.362	0.192	630724	keystroke_e	e	n/a
315.602	0.096	631204	keystroke_Key.space	Key.space	n/a
316.09	0.152	632180	keystroke_a	a	n/a
316.218	0.088	632436	keystroke_d	d	n/a
316.402	0.144	632804	keystroke_v	v	n/a
316.514	0.096	633028	keystroke_i	i	n/a
317.5385	0.1285	635077	keystroke_s	s	n/a
317.787	0.104	635574	keystroke_r	r	n/a
318.2115	0.072	636423	keystroke_Key.backspace	Key.backspace	n/a
318.4515	0.0955	636903	keystroke_o	o	n/a
318.563	0.136	637126	keystroke_r	r	n/a
318.7475	0.072	637495	keystroke_Key.enter	Key.enter	n/a
318.8235	6.475	637647	prompt	n/a	converted estimation murray joseph\n
319.4915	0.0715	638983	keystroke_o	o	n/a
319.859	0.072	639718	keystroke_Key.backspace	Key.backspace	n/a
320.035	0.1435	640070	keystroke_c	c	n/a
320.1305	0.168	640261	keystroke_o	o	n/a
320.2265	0.152	640453	keystroke_n	n	n/a
320.4025	0.1195	640805	keystroke_v	v	n/a
320.4825	0.184	640965	keystroke_e	e	n/a
320.6745	0.1275	641349	keystroke_r	r	n/a
320.878	0.1355	641756	keystroke_t	t	n/a
320.95	0.0955	641900	keystroke_e	e	n/a
321.1145	0.1195	642229	keystroke_d	d	n/a
321.194	0.096	642388	keystroke_Key.space	Key.space	n/a
321.554	0.128	643108	keystroke_e	e	n/a
321.802	0.088	643604	keystroke_s	s	n/a
322.018	0.1355	644036	keystroke_t	t	n/a
322.1215	0.0965	644243	keystroke_i	i	n/a
322.298	0.1515	644596	keystroke_m	m	n/a
322.4415	0.16	644883	keystroke_a	a	n/a
322.5855	0.178	645171	keystroke_t	t	n/a
322.6415	0.192	645283	keystroke_i	i	n/a
322.7355	0.122	645471	keystroke_o	o	n/a
322.764	0.1095	645528	keystroke_n	n	n/a
322.9695	0.088	645939	keystroke_Key.space	Key.space	n/a
323.1695	0.1045	646339	keystroke_m	m	n/a
323.386	0.1035	646772	keystroke_u	u	n/a
323.5135	0.088	647027	keystroke_r	r	n/a
323.6895	0.152	647379	keystroke_r	r	n/a
323.8095	0.088	647619	keystroke_a	a	n/a
324.0255	0.1355	648051	keystroke_y	y	n/a
324.169	0.096	648338	keystroke_Key.space	Key.space	n/a
324.385	0.116	648770	keystroke_j	j	n/a
324.465	0.1195	648930	keystroke_o	o	n/a
324.6685	0.0675	649337	keystroke_s	s	n/a
324.812	0.048	649624	keystroke_e	e	n/a
324.86	0.0275	649720	keystroke_p	p	n/a
324.977	0.088	649954	keystroke_h	h	n/a
325.177	0.12	650354	keystroke_Key.enter	Key.enter	n/a
325.3015	7.304	650603	prompt	n/a	shift taste ellis tablets\n
325.962	0.1355	651924	keystroke_s	s	n/a
326.0495	0.136	652099	keystroke_h	h	n/a
326.1375	0.1365	652275	keystroke_i	i	n/a
326.218	0.12	652436	keystroke_f	f	n/a
326.45	0.1115	652900	keystroke_t	t	n/a
326.714	0.096	653428	keystroke_Key.space	Key.space	n/a
327.0825	0.1365	654165	keystroke_t	t	n/a
327.179	0.2165	654358	keystroke_a	a	n/a
327.355	0.1125	654710	keystroke_s	s	n/a
327.5475	0.1675	655095	keystroke_t	t	n/a
327.827	0.1045	655654	keystroke_Key.space	Key.space	n/a
328.227	0.1765	656454	keystroke_e	e	n/a
329.219	0.072	658438	keystroke_Key.backspace	Key.backspace	n/a
329.3635	0.096	658727	keystroke_Key.backspace	Key.backspace	n/a
329.5635	0.1435	659127	keystroke_e	e	n/a
329.715	0.0885	659430	keystroke_Key.space	Key.space	n/a
330.2115	0.136	660423	keystroke_e	e	n/a
330.3235	0.0725	660647	keystroke_l	l	n/a
330.468	0.112	660936	keystroke_l	l	n/a
330.748	0.12	661496	keystroke_i	i	n/a
330.9165	0.16	661833	keystroke_s	s	n/a
331.173	0.103	662346	keystroke_Key.space	Key.space	n/a
331.3965	0.2	662793	keystroke_t	t	n/a
331.5405	0.168	663081	keystroke_a	a	n/a
331.7165	0.112	663433	keystroke_b	b	n/a
331.796	0.1445	663592	keystroke_l	l	n/a
331.9245	0.112	663849	keystroke_e	e	n/a
332.268	0.1765	664536	keystroke_t	t	n/a
332.4125	0.1605	664825	keystroke_s	s	n/a
332.5165	0.0885	665033	keystroke_Key.enter	Key.enter	n/a
332.6085	7.5285	665217	prompt	n/a	certain certification editorials finals\n
333.3565	0.1285	666713	keystroke_c	c	n/a
333.453	0.184	666906	keystroke_e	e	n/a
333.613	0.0795	667226	keystroke_r	r	n/a
333.7725	0.0955	667545	keystroke_t	t	n/a
333.852	0.092	667704	keystroke_a	a	n/a
333.8835	0.1245	667767	keystroke_i	i	n/a
333.9435	0.0965	667887	keystroke_n	n	n/a
334.128	0.112	668256	keystroke_Key.space	Key.space	n/a
334.344	0.1365	668688	keystroke_c	c	n/a
334.4325	0.192	668865	keystroke_e	e	n/a
334.5925	0.152	669185	keystroke_r	r	n/a
334.8725	0.104	669745	keystroke_i	i	n/a
335.2485	0.08	670497	keystroke_Key.backspace	Key.backspace	n/a
335.4405	0.1275	670881	keystroke_t	t	n/a
335.544	0.088	671088	keystroke_i	i	n/a
335.768	0.128	671536	keystroke_f	f	n/a
335.864	0.096	671728	keystroke_i	i	n/a
336.064	0.1605	672128	keystroke_c	c	n/a
336.1925	0.1355	672385	keystroke_a	a	n/a
336.416	0.168	672832	keystroke_t	t	n/a
336.472	0.2	672944	keystroke_i	i	n/a
336.544	0.1395	673088	keystroke_o	o	n/a
336.616	0.1075	673232	keystroke_n	n	n/a
336.764	0.059	673528	keystroke_Key.space	Key.space	n/a
336.815	0.112	673630	keystroke_e	e	n/a
337.023	0.137	674046	keystroke_d	d	n/a
337.184	0.08	674368	keystroke_i	i	n/a
337.4635	0.1365	674927	keystroke_t	t	n/a
337.632	0.072	675264	keystroke_o	o	n/a
337.856	0.16	675712	keystroke_r	r	n/a
338.072	0.112	676144	keystroke_i	i	n/a
338.256	0.136	676512	keystroke_a	a	n/a
338.4	0.096	676800	keystroke_l	l	n/a
338.6075	0.1515	677215	keystroke_s	s	n/a
338.887	0.104	677774	keystroke_Key.space	Key.space	n/a
339.239	0.144	678478	keystroke_f	f	n/a
339.295	0.1445	678590	keystroke_i	i	n/a
339.4075	0.128	678815	keystroke_n	n	n/a
339.5195	0.12	679039	keystroke_a	a	n/a
339.6635	0.104	679327	keystroke_l	l	n/a
339.847	0.1765	679694	keystroke_s	s	n/a
340.0315	0.104	680063	keystroke_Key.enter	Key.enter	n/a
340.14	7.0765	680280	prompt	n/a	collective spokesman blogging repeat\n
340.8	0.1515	681600	keystroke_c	c	n/a
340.9355	0.064	681871	keystroke_o	o	n/a
341.1355	0.073	682271	keystroke_l	l	n/a
341.2715	0.129	682543	keystroke_l	l	n/a
341.344	0.2875	682688	keystroke_e	e	n/a
341.4955	0.128	682991	keystroke_c	c	n/a
341.744	0.1515	683488	keystroke_t	t	n/a
341.991	0.096	683982	keystroke_i	i	n/a
342.127	0.16	684254	keystroke_v	v	n/a
342.215	0.2	684430	keystroke_e	e	n/a
342.375	0.112	684750	keystroke_Key.space	Key.space	n/a
342.735	0.1685	685470	keystroke_s	s	n/a
342.8555	0.088	685711	keystroke_p	p	n/a
343.047	0.1125	686094	keystroke_o	o	n/a
343.352	0.1045	686704	keystroke_k	k	n/a
343.8965	0.1355	687793	keystroke_s	s	n/a
344.056	0.088	688112	keystroke_m	m	n/a
344.2	0.1525	688400	keystroke_a	a	n/a
344.3125	0.088	688625	keystroke_n	n	n/a
344.544	0.088	689088	keystroke_Key.space	Key.space	n/a
344.9525	0.1355	689905	keystroke_b	b	n/a
345.064	0.112	690128	keystroke_l	l	n/a
345.28	0.096	690560	keystroke_o	o	n/a
345.464	0.0645	690928	keystroke_g	g	n/a
345.624	0.112	691248	keystroke_g	g	n/a
345.72	0.144	691440	keystroke_i	i	n/a
345.832	0.1205	691664	keystroke_n	n	n/a
345.9045	0.12	691809	keystroke_g	g	n/a
346.0565	0.1035	692113	keystroke_Key.space	Key.space	n/a
346.184	0.1765	692368	keystroke_r	r	n/a
346.272	0.1525	692544	keystroke_e	e	n/a
346.4085	0.088	692817	keystroke_p	p	n/a
346.5445	0.263	693089	keystroke_e	e	n/a
346.648	0.1755	693296	keystroke_a	a	n/a
346.936	0.111	693872	keystroke_t	t	n/a
347.1475	0.068	694295	keystroke_Key.enter	Key.enter	n/a
347.219	6.935	694438	prompt	n/a	piece permanent cement blackberry\n
347.848	0.104	695696	keystroke_p	p	n/a
348.048	0.12	696096	keystroke_i	i	n/a
348.128	0.128	696256	keystroke_e	e	n/a
348.368	0.1765	696736	keystroke_c	c	n/a
348.456	0.1925	696912	keystroke_e	e	n/a
348.6645	0.08	697329	keystroke_Key.space	Key.space	n/a
348.88	0.1125	697760	keystroke_p	p	n/a
348.9845	0.144	697969	keystroke_e	e	n/a
349.0565	0.152	698113	keystroke_r	r	n/a
349.1925	0.088	698385	keystroke_m	m	n/a
349.336	0.1605	698672	keystroke_a	a	n/a
349.44	0.1045	698880	keystroke_n	n	n/a
350.1765	0.1605	700353	keystroke_e	e	n/a
350.392	0.0645	700784	keystroke_n	n	n/a
350.5285	0.112	701057	keystroke_t	t	n/a
350.6165	0.0885	701233	keystroke_Key.space	Key.space	n/a
350.849	0.1915	701698	keystroke_c	c	n/a
350.9365	0.224	701873	keystroke_e	e	n/a
351.297	0.08	702594	keystroke_m	m	n/a
351.393	0.1515	702786	keystroke_e	e	n/a
351.5365	0.0885	703073	keystroke_n	n	n/a
351.609	0.16	703218	keystroke_t	t	n/a
351.9445	0.088	703889	keystroke_Key.space	Key.space	n/a
352.233	0.12	704466	keystroke_b	b	n/a
352.361	0.1035	704722	keystroke_l	l	n/a
352.393	0.1115	704786	keystroke_a	a	n/a
352.593	0.128	705186	keystroke_c	c	n/a
352.8415	0.096	705683	keystroke_k	k	n/a
353.4015	0.072	706803	keystroke_b	b	n/a
353.4815	0.1755	706963	keystroke_e	e	n/a
353.593	0.1125	707186	keystroke_r	r	n/a
353.7695	0.112	707539	keystroke_r	r	n/a
353.986	0.151	707972	keystroke_y	y	n/a
354.073	0.08	708146	keystroke_Key.enter	Key.enter	n/a
354.1565	6.1105	708313	prompt	n/a	phones address performance creature\n
354.8975	0.12	709795	keystroke_p	p	n/a
355.082	0.1115	710164	keystroke_h	h	n/a
355.1855	0.176	710371	keystroke_o	o	n/a
355.3375	0.1205	710675	keystroke_n	n	n/a
355.426	0.08	710852	keystroke_e	e	n/a
355.626	0.1515	711252	keystroke_s	s	n/a
355.7295	0.088	711459	keystroke_Key.space	Key.space	n/a
356.002	0.1755	712004	keystroke_a	a	n/a
356.1455	0.104	712291	keystroke_d	d	n/a
356.3135	0.072	712627	keystroke_d	d	n/a
356.474	0.168	712948	keystroke_r	r	n/a
356.562	0.128	713124	keystroke_e	e	n/a
356.8015	0.072	713603	keystroke_s	s	n/a
356.9695	0.1525	713939	keystroke_s	s	n/a
357.098	0.072	714196	keystroke_Key.space	Key.space	n/a
357.2975	0.12	714595	keystroke_p	p	n/a
357.4175	0.1685	714835	keystroke_e	e	n/a
357.514	0.12	715028	keystroke_r	r	n/a
357.722	0.0875	715444	keystroke_f	f	n/a
357.8175	0.096	715635	keystroke_o	o	n/a
357.922	0.128	715844	keystroke_r	r	n/a
358.058	0.096	716116	keystroke_m	m	n/a
358.194	0.1595	716388	keystroke_a	a	n/a
358.3775	0.1045	716755	keystroke_n	n	n/a
358.49	0.16	716980	keystroke_c	c	n/a
358.538	0.208	717076	keystroke_e	e	n/a
358.722	0.0965	717444	keystroke_Key.space	Key.space	n/a
359.122	0.104	718244	keystroke_c	c	n/a
359.3545	0.1915	718709	keystroke_r	r	n/a
359.434	0.2	718868	keystroke_e	e	n/a
359.498	0.152	718996	keystroke_a	a	n/a
359.69	0.1365	719380	keystroke_t	t	n/a
359.8905	0.0955	719781	keystroke_u	u	n/a
359.994	0.176	719988	keystroke_r	r	n/a
360.066	0.1685	720132	keystroke_e	e	n/a
360.1865	0.08	720373	keystroke_Key.enter	Key.enter	n/a
360.2695	5.209	720539	prompt	n/a	casting checked mating revenue\n
360.9305	0.208	721861	keystroke_c	c	n/a
361.058	0.1925	722116	keystroke_a	a	n/a
361.1305	0.144	722261	keystroke_s	s	n/a
361.3545	0.1525	722709	keystroke_t	t	n/a
361.483	0.1675	722966	keystroke_i	i	n/a
361.5945	0.096	723189	keystroke_n	n	n/a
361.6425	0.128	723285	keystroke_g	g	n/a
361.7945	0.088	723589	keystroke_Key.space	Key.space	n/a
362.035	0.1435	724070	keystroke_c	c	n/a
362.1465	0.088	724293	keystroke_h	h	n/a
362.2505	0.1765	724501	keystroke_e	e	n/a
362.3545	0.1765	724709	keystroke_c	c	n/a
362.435	0.088	724870	keystroke_k	k	n/a
362.7945	0.1205	725589	keystroke_e	e	n/a
363.003	0.1355	726006	keystroke_d	d	n/a
363.099	0.0635	726198	keystroke_Key.space	Key.space	n/a
363.2905	0.0965	726581	keystroke_m	m	n/a
363.3545	0.1205	726709	keystroke_a	a	n/a
363.539	0.1195	727078	keystroke_t	t	n/a
363.6425	0.136	727285	keystroke_i	i	n/a
363.7305	0.104	727461	keystroke_n	n	n/a
363.8105	0.12	727621	keystroke_g	g	n/a
363.9625	0.088	727925	keystroke_Key.space	Key.space	n/a
364.354	0.1315	728708	keystroke_r	r	n/a
364.434	0.1395	728868	keystroke_e	e	n/a
364.6455	0.1365	729291	keystroke_v	v	n/a
364.7265	0.1995	729453	keystroke_e	e	n/a
364.878	0.088	729756	keystroke_n	n	n/a
365.094	0.104	730188	keystroke_u	u	n/a
365.198	0.136	730396	keystroke_e	e	n/a
365.366	0.112	730732	keystroke_Key.enter	Key.enter	n/a
365.4815	7.847	730963	prompt	n/a	marilyn http ensemble paperback\n
366.191	0.1195	732382	keystroke_m	m	n/a
366.3425	0.152	732685	keystroke_a	a	n/a
366.5905	0.1445	733181	keystroke_r	r	n/a
366.9265	0.1125	733853	keystroke_i	i	n/a
367.8465	0.1115	735693	keystroke_l	l	n/a
368.382	0.136	736764	keystroke_y	y	n/a
368.534	0.0965	737068	keystroke_n	n	n/a
368.7745	0.088	737549	keystroke_Key.space	Key.space	n/a
369.014	0.0965	738028	keystroke_h	h	n/a
369.1905	0.088	738381	keystroke_t	t	n/a
369.3745	0.1435	738749	keystroke_t	t	n/a
369.526	0.088	739052	keystroke_p	p	n/a
369.75	0.08	739500	keystroke_Key.space	Key.space	n/a
369.942	0.1525	739884	keystroke_e	e	n/a
370.07	0.0965	740140	keystroke_n	n	n/a
370.2705	0.088	740541	keystroke_s	s	n/a
370.4625	0.1515	740925	keystroke_e	e	n/a
370.8145	0.08	741629	keystroke_m	m	n/a
371.046	0.0725	742092	keystroke_b	b	n/a
371.2225	0.12	742445	keystroke_l	l	n/a
371.3985	0.1525	742797	keystroke_e	e	n/a
371.543	0.0715	743086	keystroke_Key.space	Key.space	n/a
371.7665	0.112	743533	keystroke_p	p	n/a
371.8785	0.1685	743757	keystroke_a	a	n/a
372.1585	0.096	744317	keystroke_p	p	n/a
372.2625	0.2245	744525	keystroke_e	e	n/a
372.3905	0.1845	744781	keystroke_r	r	n/a
372.6145	0.104	745229	keystroke_b	b	n/a
372.7505	0.1125	745501	keystroke_a	a	n/a
372.911	0.1755	745822	keystroke_c	c	n/a
372.991	0.0955	745982	keystroke_k	k	n/a
373.215	0.112	746430	keystroke_Key.enter	Key.enter	n/a
373.3325	6.3015	746665	prompt	n/a	manhattan gnome apart wage\n
373.9755	0.104	747951	keystroke_m	m	n/a
374.199	0.1685	748398	keystroke_a	a	n/a
374.3595	0.096	748719	keystroke_n	n	n/a
374.6315	0.072	749263	keystroke_h	h	n/a
374.7355	0.136	749471	keystroke_a	a	n/a
374.9035	0.088	749807	keystroke_t	t	n/a
375.08	0.1515	750160	keystroke_t	t	n/a
375.192	0.1595	750384	keystroke_a	a	n/a
375.2955	0.088	750591	keystroke_n	n	n/a
375.52	0.088	751040	keystroke_Key.space	Key.space	n/a
375.712	0.1515	751424	keystroke_g	g	n/a
375.8715	0.1285	751743	keystroke_n	n	n/a
375.992	0.12	751984	keystroke_o	o	n/a
376.2245	0.1115	752449	keystroke_m	m	n/a
376.344	0.176	752688	keystroke_e	e	n/a
376.64	0.0965	753280	keystroke_Key.space	Key.space	n/a
376.928	0.128	753856	keystroke_a	a	n/a
377.064	0.0965	754128	keystroke_p	p	n/a
377.272	0.1685	754544	keystroke_a	a	n/a
377.4805	0.1515	754961	keystroke_r	r	n/a
377.784	0.1635	755568	keystroke_t	t	n/a
378.1355	0.0955	756271	keystroke_Key.space	Key.space	n/a
378.464	0.256	756928	keystroke_a	a	n/a
378.56	0.152	757120	keystroke_w	w	n/a
378.968	0.072	757936	keystroke_Key.backspace	Key.backspace	n/a
379.12	0.096	758240	keystroke_Key.backspace	Key.backspace	n/a
379.2	0.144	758400	keystroke_w	w	n/a
379.28	0.088	758560	keystroke_a	a	n/a
379.408	0.176	758816	keystroke_g	g	n/a
379.536	0.096	759072	keystroke_Key.enter	Key.enter	n/a
379.632	0.1765	759264	keystroke_e	e	n/a
379.637	6.613	759274	prompt	n/a	tire pale sweden tracks\n
380.52	0.056	761040	keystroke_Key.backspace	Key.backspace	n/a
380.7925	0.136	761585	keystroke_t	t	n/a
381.096	0.088	762192	keystroke_i	i	n/a
381.2565	0.184	762513	keystroke_r	r	n/a
381.3445	0.184	762689	keystroke_e	e	n/a
381.6405	0.096	763281	keystroke_Key.space	Key.space	n/a
382.1605	0.152	764321	keystroke_p	p	n/a
382.3525	0.1525	764705	keystroke_a	a	n/a
382.481	0.0875	764962	keystroke_l	l	n/a
382.6085	0.152	765217	keystroke_e	e	n/a
382.8085	0.096	765617	keystroke_Key.space	Key.space	n/a
383.3365	0.0885	766673	keystroke_s	s	n/a
383.561	0.08	767122	keystroke_w	w	n/a
383.7685	0.1525	767537	keystroke_e	e	n/a
384.121	0.1515	768242	keystroke_d	d	n/a
384.2005	0.2485	768401	keystroke_e	e	n/a
384.385	0.08	768770	keystroke_n	n	n/a
384.657	0.104	769314	keystroke_Key.space	Key.space	n/a
385.129	0.096	770258	keystroke_t	t	n/a
385.329	0.12	770658	keystroke_r	r	n/a
385.409	0.136	770818	keystroke_a	a	n/a
385.6095	0.1435	771219	keystroke_c	c	n/a
385.785	0.096	771570	keystroke_k	k	n/a
385.905	0.168	771810	keystroke_s	s	n/a
386.145	0.1035	772290	keystroke_Key.enter	Key.enter	n/a
386.2525	6.4235	772505	prompt	n/a	combines destroy require interior\n
387.057	0.184	774114	keystroke_c	c	n/a
387.161	0.168	774322	keystroke_o	o	n/a
387.225	0.112	774450	keystroke_m	m	n/a
387.441	0.12	774882	keystroke_b	b	n/a
387.553	0.1765	775106	keystroke_i	i	n/a
387.7135	0.1435	775427	keystroke_n	n	n/a
387.849	0.096	775698	keystroke_e	e	n/a
388.0655	0.128	776131	keystroke_s	s	n/a
388.1615	0.104	776323	keystroke_Key.space	Key.space	n/a
388.3535	0.176	776707	keystroke_d	d	n/a
388.433	0.1525	776866	keystroke_e	e	n/a
388.7215	0.096	777443	keystroke_s	s	n/a
388.9215	0.104	777843	keystroke_t	t	n/a
389.1215	0.136	778243	keystroke_r	r	n/a
389.2815	0.0965	778563	keystroke_o	o	n/a
389.5375	0.104	779075	keystroke_y	y	n/a
389.7775	0.0965	779555	keystroke_Key.space	Key.space	n/a
390.0575	0.16	780115	keystroke_r	r	n/a
390.1775	0.048	780355	keystroke_e	e	n/a
390.322	0.144	780644	keystroke_q	q	n/a
390.418	0.1675	780836	keystroke_u	u	n/a
390.5135	0.1365	781027	keystroke_i	i	n/a
390.594	0.168	781188	keystroke_r	r	n/a
390.642	0.168	781284	keystroke_e	e	n/a
391.002	0.096	782004	keystroke_Key.space	Key.space	n/a
391.402	0.16	782804	keystroke_i	i	n/a
391.498	0.144	782996	keystroke_n	n	n/a
391.618	0.104	783236	keystroke_t	t	n/a
391.682	0.2005	783364	keystroke_e	e	n/a
391.8425	0.184	783685	keystroke_r	r	n/a
392.0105	0.0955	784021	keystroke_i	i	n/a
392.1945	0.104	784389	keystroke_o	o	n/a
392.3225	0.16	784645	keystroke_r	r	n/a
392.571	0.104	785142	keystroke_Key.enter	Key.enter	n/a
392.679	9.654	785358	prompt	n/a	horizontal webcam cashiers promotion\n
393.427	0.12	786854	keystroke_h	h	n/a
393.819	0.1045	787638	keystroke_o	o	n/a
393.9875	0.104	787975	keystroke_r	r	n/a
394.1235	0.0795	788247	keystroke_i	i	n/a
394.371	0.096	788742	keystroke_z	z	n/a
394.5795	0.096	789159	keystroke_a	a	n/a
395.0435	0.168	790087	keystroke_o	o	n/a
395.1635	0.12	790327	keystroke_n	n	n/a
395.7395	0.08	791479	keystroke_Key.backspace	Key.backspace	n/a
395.9315	0.072	791863	keystroke_Key.backspace	Key.backspace	n/a
396.076	0.072	792152	keystroke_Key.backspace	Key.backspace	n/a
396.4115	0.12	792823	keystroke_o	o	n/a
396.4915	0.128	792983	keystroke_n	n	n/a
396.9955	0.176	793991	keystroke_t	t	n/a
397.1075	0.184	794215	keystroke_a	a	n/a
397.1875	0.08	794375	keystroke_l	l	n/a
397.3715	0.096	794743	keystroke_Key.space	Key.space	n/a
397.5875	0.096	795175	keystroke_w	w	n/a
397.788	0.1515	795576	keystroke_e	e	n/a
397.8755	0.096	795751	keystroke_b	b	n/a
398.1395	0.1765	796279	keystroke_c	c	n/a
398.244	0.1995	796488	keystroke_a	a	n/a
398.4115	0.096	796823	keystroke_m	m	n/a
398.652	0.088	797304	keystroke_Key.space	Key.space	n/a
399.004	0.176	798008	keystroke_c	c	n/a
399.124	0.192	798248	keystroke_a	a	n/a
399.796	0.128	799592	keystroke_s	s	n/a
399.972	0.088	799944	keystroke_h	h	n/a
400.228	0.088	800456	keystroke_i	i	n/a
400.324	0.1765	800648	keystroke_e	e	n/a
400.436	0.176	800872	keystroke_r	r	n/a
400.636	0.1045	801272	keystroke_Key.space	Key.space	n/a
400.9885	0.12	801977	keystroke_p	p	n/a
401.1325	0.152	802265	keystroke_r	r	n/a
401.2125	0.112	802425	keystroke_o	o	n/a
401.3885	0.168	802777	keystroke_m	m	n/a
401.5245	0.088	803049	keystroke_o	o	n/a
401.7005	0.168	803401	keystroke_t	t	n/a
401.7805	0.232	803561	keystroke_i	i	n/a
401.8605	0.16	803721	keystroke_o	o	n/a
401.9325	0.136	803865	keystroke_n	n	n/a
402.2285	0.104	804457	keystroke_Key.enter	Key.enter	n/a
402.336	8.7905	804672	prompt	n/a	scout malpractice book atmospheric\n
403.037	0.136	806074	keystroke_s	s	n/a
403.277	0.128	806554	keystroke_c	c	n/a
403.421	0.24	806842	keystroke_o	o	n/a
403.565	0.08	807130	keystroke_u	u	n/a
403.717	0.1675	807434	keystroke_t	t	n/a
404.268	0.1045	808536	keystroke_Key.space	Key.space	n/a
404.693	0.104	809386	keystroke_m	m	n/a
404.813	0.184	809626	keystroke_a	a	n/a
404.909	0.112	809818	keystroke_l	l	n/a
405.173	0.104	810346	keystroke_p	p	n/a
405.317	0.12	810634	keystroke_r	r	n/a
405.493	0.192	810986	keystroke_a	a	n/a
405.645	0.112	811290	keystroke_c	c	n/a
405.885	0.112	811770	keystroke_t	t	n/a
406.021	0.08	812042	keystroke_i	i	n/a
406.165	0.152	812330	keystroke_v	v	n/a
406.245	0.192	812490	keystroke_e	e	n/a
406.421	0.072	812842	keystroke_Key.space	Key.space	n/a
406.637	0.088	813274	keystroke_b	b	n/a
406.717	0.08	813434	keystroke_o	o	n/a
406.877	0.104	813754	keystroke_o	o	n/a
407.077	0.096	814154	keystroke_k	k	n/a
407.317	0.0965	814634	keystroke_Key.space	Key.space	n/a
407.693	0.136	815386	keystroke_a	a	n/a
407.885	0.16	815770	keystroke_t	t	n/a
408.173	0.112	816346	keystroke_o	o	n/a
408.8375	0.047	817675	keystroke_Key.backspace	Key.backspace	n/a
409.093	0.112	818186	keystroke_m	m	n/a
409.613	0.128	819226	keystroke_o	o	n/a
409.861	0.144	819722	keystroke_s	s	n/a
410.013	0.1045	820026	keystroke_p	p	n/a
410.2935	0.096	820587	keystroke_h	h	n/a
410.4055	0.16	820811	keystroke_e	e	n/a
410.5255	0.1205	821051	keystroke_r	r	n/a
410.614	0.0955	821228	keystroke_i	i	n/a
410.8935	0.1605	821787	keystroke_c	c	n/a
411.054	0.071	822108	keystroke_Key.enter	Key.enter	n/a
411.129	5.1655	822258	prompt	n/a	hunt connector bags kernel\n
411.83	0.128	823660	keystroke_h	h	n/a
411.918	0.136	823836	keystroke_u	u	n/a
412.126	0.088	824252	keystroke_n	n	n/a
412.214	0.1035	824428	keystroke_t	t	n/a
412.3325	0.08	824665	keystroke_Key.space	Key.space	n/a
412.5015	0.168	825003	keystroke_c	c	n/a
412.6775	0.12	825355	keystroke_o	o	n/a
412.8055	0.088	825611	keystroke_n	n	n/a
412.9735	0.128	825947	keystroke_n	n	n/a
413.0775	0.208	826155	keystroke_e	e	n/a
413.1735	0.136	826347	keystroke_c	c	n/a
413.846	0.1275	827692	keystroke_t	t	n/a
414.0295	0.104	828059	keystroke_o	o	n/a
414.1335	0.176	828267	keystroke_r	r	n/a
414.3245	0.072	828649	keystroke_Key.space	Key.space	n/a
414.5175	0.088	829035	keystroke_b	b	n/a
414.5975	0.12	829195	keystroke_a	a	n/a
414.7655	0.216	829531	keystroke_g	g	n/a
414.9095	0.176	829819	keystroke_s	s	n/a
415.0365	0.088	830073	keystroke_Key.space	Key.space	n/a
415.2935	0.104	830587	keystroke_k	k	n/a
415.3895	0.192	830779	keystroke_e	e	n/a
415.5335	0.152	831067	keystroke_r	r	n/a
415.6455	0.088	831291	keystroke_n	n	n/a
415.8295	0.176	831659	keystroke_e	e	n/a
415.974	0.0875	831948	keystroke_l	l	n/a
416.1965	0.096	832393	keystroke_Key.enter	Key.enter	n/a
416.297	12.222	832594	prompt	n/a	gimme description exit mortgage\n
417.213	0.136	834426	keystroke_g	g	n/a
417.357	0.04	834714	keystroke_i	i	n/a
417.733	0.088	835466	keystroke_m	m	n/a
417.909	0.12	835818	keystroke_m	m	n/a
418.037	0.256	836074	keystroke_e	e	n/a
418.46	0.096	836920	keystroke_Key.space	Key.space	n/a
418.9815	0.1605	837963	keystroke_d	d	n/a
419.0535	0.1285	838107	keystroke_e	e	n/a
419.3095	0.12	838619	keystroke_s	s	n/a
419.446	0.096	838892	keystroke_p	p	n/a
419.582	0.103	839164	keystroke_r	r	n/a
419.726	0.0865	839452	keystroke_i	i	n/a
419.8375	0.1605	839675	keystroke_c	c	n/a
420.534	0.192	841068	keystroke_t	t	n/a
420.614	0.176	841228	keystroke_i	i	n/a
420.694	0.144	841388	keystroke_o	o	n/a
421.061	0.096	842122	keystroke_Key.backspace	Key.backspace	n/a
421.269	0.088	842538	keystroke_Key.backspace	Key.backspace	n/a
421.485	0.104	842970	keystroke_Key.backspace	Key.backspace	n/a
421.725	0.104	843450	keystroke_Key.backspace	Key.backspace	n/a
421.925	0.08	843850	keystroke_Key.backspace	Key.backspace	n/a
422.101	0.088	844202	keystroke_Key.backspace	Key.backspace	n/a
422.309	0.088	844618	keystroke_Key.backspace	Key.backspace	n/a
423.1015	0.144	846203	keystroke_c	c	n/a
423.942	0.175	847884	keystroke_r	r	n/a
424.157	0.081	848314	keystroke_i	i	n/a
424.8855	0.08	849771	keystroke_p	p	n/a
425.077	0.144	850154	keystroke_t	t	n/a
425.205	0.2015	850410	keystroke_i	i	n/a
425.261	0.1695	850522	keystroke_o	o	n/a
425.3655	0.128	850731	keystroke_n	n	n/a
425.6215	0.104	851243	keystroke_Key.space	Key.space	n/a
425.8855	0.08	851771	keystroke_e	e	n/a
426.1175	0.1115	852235	keystroke_x	x	n/a
426.261	0.0565	852522	keystroke_i	i	n/a
426.3815	0.161	852763	keystroke_t	t	n/a
426.5975	0.112	853195	keystroke_Key.space	Key.space	n/a
427.2055	0.152	854411	keystroke_m	m	n/a
427.2855	0.153	854571	keystroke_o	o	n/a
427.4065	0.119	854813	keystroke_r	r	n/a
427.6385	0.08	855277	keystroke_t	t	n/a
427.8945	0.167	855789	keystroke_g	g	n/a
428.0215	0.129	856043	keystroke_a	a	n/a
428.2055	0.176	856411	keystroke_g	g	n/a
428.2775	0.201	856555	keystroke_e	e	n/a
428.4385	0.079	856877	keystroke_Key.enter	Key.enter	n/a
428.522	8.9485	857044	prompt	n/a	investigation moments inexpensive frequencies\n
429.2785	0.135	858557	keystroke_i	i	n/a
429.3735	0.128	858747	keystroke_n	n	n/a
429.5105	0.151	859021	keystroke_v	v	n/a
429.5815	0.128	859163	keystroke_e	e	n/a
429.7975	0.112	859595	keystroke_s	s	n/a
429.9655	0.112	859931	keystroke_t	t	n/a
430.0855	0.08	860171	keystroke_i	i	n/a
430.2135	0.137	860427	keystroke_g	g	n/a
430.3175	0.1205	860635	keystroke_a	a	n/a
430.5015	0.153	861003	keystroke_t	t	n/a
430.5655	0.216	861131	keystroke_i	i	n/a
430.6545	0.159	861309	keystroke_o	o	n/a
430.7255	0.113	861451	keystroke_n	n	n/a
430.9255	0.088	861851	keystroke_Key.space	Key.space	n/a
431.1345	0.112	862269	keystroke_m	m	n/a
431.2135	0.121	862427	keystroke_o	o	n/a
431.3735	0.088	862747	keystroke_m	m	n/a
431.4935	0.136	862987	keystroke_e	e	n/a
431.6385	0.071	863277	keystroke_n	n	n/a
431.7345	0.159	863469	keystroke_t	t	n/a
431.8945	0.152	863789	keystroke_s	s	n/a
432.0695	0.088	864139	keystroke_Key.space	Key.space	n/a
432.7575	0.128	865515	keystroke_i	i	n/a
432.8545	0.111	865709	keystroke_n	n	n/a
433.0935	0.0805	866187	keystroke_e	e	n/a
433.334	0.088	866668	keystroke_x	x	n/a
433.566	0.065	867132	keystroke_p	p	n/a
433.686	0.12	867372	keystroke_e	e	n/a
433.847	0.095	867694	keystroke_n	n	n/a
433.998	0.104	867996	keystroke_s	s	n/a
434.118	0.072	868236	keystroke_i	i	n/a
434.247	0.183	868494	keystroke_v	v	n/a
434.342	0.176	868684	keystroke_e	e	n/a
434.494	0.072	868988	keystroke_Key.space	Key.space	n/a
434.7505	0.111	869501	keystroke_f	f	n/a
434.9745	0.136	869949	keystroke_r	r	n/a
435.0545	0.104	870109	keystroke_e	e	n/a
435.2385	0.143	870477	keystroke_q	q	n/a
435.3255	0.072	870651	keystroke_u	u	n/a
435.621	0.096	871242	keystroke_n	n	n/a
436.061	0.224	872122	keystroke_c	c	n/a
436.197	0.152	872394	keystroke_e	e	n/a
436.613	0.088	873226	keystroke_Key.backspace	Key.backspace	n/a
436.869	0.088	873738	keystroke_i	i	n/a
436.958	0.0795	873916	keystroke_e	e	n/a
437.1735	0.12	874347	keystroke_s	s	n/a
437.381	0.088	874762	keystroke_Key.enter	Key.enter	n/a
437.4735	8.9885	874947	prompt	n/a	vulnerability devil hourly developer\n
438.2695	0.136	876539	keystroke_v	v	n/a
438.4695	0.152	876939	keystroke_u	u	n/a
438.8055	0.096	877611	keystroke_l	l	n/a
439.3975	0.1115	878795	keystroke_n	n	n/a
439.517	0.2005	879034	keystroke_e	e	n/a
439.6295	0.16	879259	keystroke_r	r	n/a
439.8535	0.16	879707	keystroke_a	a	n/a
440.1015	0.12	880203	keystroke_b	b	n/a
440.2295	0.104	880459	keystroke_i	i	n/a
440.4295	0.224	880859	keystroke_l	l	n/a
440.4935	0.144	880987	keystroke_i	i	n/a
440.6615	0.089	881323	keystroke_t	t	n/a
440.8695	0.088	881739	keystroke_y	y	n/a
440.9655	0.104	881931	keystroke_Key.space	Key.space	n/a
441.3015	0.136	882603	keystroke_d	d	n/a
441.3815	0.128	882763	keystroke_e	e	n/a
441.605	0.168	883210	keystroke_v	v	n/a
441.885	0.08	883770	keystroke_i	i	n/a
442.101	0.096	884202	keystroke_l	l	n/a
442.317	0.088	884634	keystroke_Key.space	Key.space	n/a
442.605	0.128	885210	keystroke_h	h	n/a
442.669	0.296	885338	keystroke_o	o	n/a
442.829	0.144	885658	keystroke_u	u	n/a
443.037	0.12	886074	keystroke_r	r	n/a
443.181	0.096	886362	keystroke_l	l	n/a
443.413	0.072	886826	keystroke_y	y	n/a
443.517	0.096	887034	keystroke_Key.space	Key.space	n/a
443.877	0.136	887754	keystroke_d	d	n/a
443.957	0.168	887914	keystroke_e	e	n/a
444.373	0.168	888746	keystroke_v	v	n/a
444.477	0.184	888954	keystroke_e	e	n/a
444.621	0.096	889242	keystroke_l	l	n/a
445.0045	0.12	890009	keystroke_p	p	n/a
445.397	0.064	890794	keystroke_Key.backspace	Key.backspace	n/a
445.638	0.151	891276	keystroke_o	o	n/a
445.885	0.096	891770	keystroke_p	p	n/a
446.029	0.1835	892058	keystroke_e	e	n/a
446.1645	0.1595	892329	keystroke_r	r	n/a
446.3645	0.096	892729	keystroke_Key.enter	Key.enter	n/a
446.4655	5.987	892931	prompt	n/a	jackie factor finding everything\n
447.032	0.1355	894064	keystroke_j	j	n/a
447.1925	0.127	894385	keystroke_a	a	n/a
447.359	0.1125	894718	keystroke_c	c	n/a
447.4795	0.06	894959	keystroke_k	k	n/a
447.6325	0.0945	895265	keystroke_i	i	n/a
447.711	0.145	895422	keystroke_e	e	n/a
447.871	0.0965	895742	keystroke_Key.space	Key.space	n/a
447.9685	0.143	895937	keystroke_f	f	n/a
448.0555	0.16	896111	keystroke_a	a	n/a
448.2315	0.128	896463	keystroke_c	c	n/a
448.5035	0.112	897007	keystroke_t	t	n/a
448.6315	0.08	897263	keystroke_o	o	n/a
448.7275	0.152	897455	keystroke_r	r	n/a
448.9115	0.112	897823	keystroke_Key.space	Key.space	n/a
449.248	0.129	898496	keystroke_f	f	n/a
449.36	0.144	898720	keystroke_i	i	n/a
449.448	0.1195	898896	keystroke_n	n	n/a
449.5435	0.1125	899087	keystroke_d	d	n/a
449.688	0.144	899376	keystroke_i	i	n/a
449.768	0.121	899536	keystroke_n	n	n/a
449.856	0.144	899712	keystroke_g	g	n/a
450.008	0.088	900016	keystroke_Key.space	Key.space	n/a
450.36	0.128	900720	keystroke_e	e	n/a
450.576	0.112	901152	keystroke_v	v	n/a
450.664	0.152	901328	keystroke_e	e	n/a
450.848	0.112	901696	keystroke_r	r	n/a
451.4795	0.0965	902959	keystroke_y	y	n/a
451.7435	0.1315	903487	keystroke_t	t	n/a
451.851	0.1035	903702	keystroke_h	h	n/a
451.907	0.1675	903814	keystroke_i	i	n/a
452.0985	0.1205	904197	keystroke_n	n	n/a
452.1715	0.1515	904343	keystroke_g	g	n/a
452.339	0.112	904678	keystroke_Key.enter	Key.enter	n/a
452.455	5.711	904910	prompt	n/a	holes signing tips launch\n
453.211	0.136	906422	keystroke_h	h	n/a
453.315	0.1365	906630	keystroke_o	o	n/a
453.5315	0.112	907063	keystroke_l	l	n/a
453.6355	0.096	907271	keystroke_e	e	n/a
453.8595	0.16	907719	keystroke_s	s	n/a
453.9955	0.088	907991	keystroke_Key.space	Key.space	n/a
454.3475	0.16	908695	keystroke_s	s	n/a
454.4995	0.104	908999	keystroke_i	i	n/a
454.6595	0.176	909319	keystroke_g	g	n/a
454.8365	0.111	909673	keystroke_n	n	n/a
455.1235	0.152	910247	keystroke_i	i	n/a
455.22	0.1035	910440	keystroke_n	n	n/a
455.3075	0.128	910615	keystroke_g	g	n/a
455.4595	0.088	910919	keystroke_Key.space	Key.space	n/a
455.7155	0.128	911431	keystroke_t	t	n/a
455.7875	0.176	911575	keystroke_i	i	n/a
455.9075	0.152	911815	keystroke_p	p	n/a
456.0675	0.1525	912135	keystroke_s	s	n/a
456.228	0.0875	912456	keystroke_Key.space	Key.space	n/a
456.4115	0.112	912823	keystroke_l	l	n/a
456.5795	0.1685	913159	keystroke_a	a	n/a
456.7955	0.096	913591	keystroke_u	u	n/a
457.5715	0.0965	915143	keystroke_n	n	n/a
457.748	0.1435	915496	keystroke_c	c	n/a
457.8435	0.072	915687	keystroke_h	h	n/a
458.0515	0.1135	916103	keystroke_Key.enter	Key.enter	n/a
458.169	7.012	916338	prompt	n/a	thinkpad tend hosted spiritual\n
458.9235	0.16	917847	keystroke_t	t	n/a
458.9565	0.111	917913	keystroke_h	h	n/a
459.0275	0.1115	918055	keystroke_i	i	n/a
459.203	0.136	918406	keystroke_n	n	n/a
459.259	0.136	918518	keystroke_k	k	n/a
459.515	0.08	919030	keystroke_p	p	n/a
459.635	0.152	919270	keystroke_a	a	n/a
459.795	0.144	919590	keystroke_d	d	n/a
459.939	0.0965	919878	keystroke_Key.space	Key.space	n/a
460.2515	0.16	920503	keystroke_t	t	n/a
460.3315	0.1835	920663	keystroke_e	e	n/a
460.491	0.104	920982	keystroke_n	n	n/a
460.659	0.1445	921318	keystroke_d	d	n/a
460.9315	0.104	921863	keystroke_Key.space	Key.space	n/a
461.4835	0.12	922967	keystroke_h	h	n/a
461.5565	0.167	923113	keystroke_o	o	n/a
461.6755	0.096	923351	keystroke_s	s	n/a
461.8595	0.136	923719	keystroke_t	t	n/a
461.9315	0.128	923863	keystroke_e	e	n/a
462.1475	0.136	924295	keystroke_d	d	n/a
462.2355	0.104	924471	keystroke_Key.space	Key.space	n/a
462.7235	0.152	925447	keystroke_s	s	n/a
462.9235	0.1205	925847	keystroke_p	p	n/a
463.7875	0.1125	927575	keystroke_i	i	n/a
464.068	0.1515	928136	keystroke_r	r	n/a
464.2275	0.096	928455	keystroke_i	i	n/a
464.4515	0.1765	928903	keystroke_t	t	n/a
464.6355	0.072	929271	keystroke_u	u	n/a
464.7715	0.168	929543	keystroke_a	a	n/a
464.8595	0.088	929719	keystroke_l	l	n/a
465.0755	0.104	930151	keystroke_Key.enter	Key.enter	n/a
465.1865	9.3945	930373	prompt	n/a	coaching shopping england frankfurt\n
465.9395	0.1685	931879	keystroke_c	c	n/a
466.076	0.104	932152	keystroke_o	o	n/a
466.2435	0.16	932487	keystroke_a	a	n/a
466.9795	0.1765	933959	keystroke_c	c	n/a
467.1315	0.1045	934263	keystroke_h	h	n/a
467.348	0.16	934696	keystroke_i	i	n/a
467.468	0.12	934936	keystroke_n	n	n/a
467.588	0.136	935176	keystroke_g	g	n/a
467.708	0.088	935416	keystroke_Key.space	Key.space	n/a
467.996	0.168	935992	keystroke_s	s	n/a
468.1	0.144	936200	keystroke_h	h	n/a
468.156	0.152	936312	keystroke_i	i	n/a
468.356	0.104	936712	keystroke_p	p	n/a
468.532	0.096	937064	keystroke_p	p	n/a
468.812	0.08	937624	keystroke_Key.backspace	Key.backspace	n/a
468.996	0.08	937992	keystroke_Key.backspace	Key.backspace	n/a
469.124	0.104	938248	keystroke_Key.backspace	Key.backspace	n/a
469.3715	0.144	938743	keystroke_o	o	n/a
469.6355	0.1135	939271	keystroke_p	p	n/a
469.86	0.0965	939720	keystroke_p	p	n/a
470.0435	0.168	940087	keystroke_i	i	n/a
470.1795	0.12	940359	keystroke_n	n	n/a
470.2755	0.152	940551	keystroke_g	g	n/a
470.4115	0.088	940823	keystroke_Key.space	Key.space	n/a
470.5475	0.1765	941095	keystroke_e	e	n/a
471.66	0.072	943320	keystroke_n	n	n/a
471.828	0.12	943656	keystroke_g	g	n/a
471.988	0.088	943976	keystroke_l	l	n/a
472.204	0.168	944408	keystroke_a	a	n/a
472.388	0.08	944776	keystroke_n	n	n/a
472.5405	0.1595	945081	keystroke_d	d	n/a
472.676	0.088	945352	keystroke_Key.space	Key.space	n/a
472.908	0.08	945816	keystroke_f	f	n/a
473.092	0.152	946184	keystroke_r	r	n/a
473.22	0.192	946440	keystroke_a	a	n/a
473.364	0.136	946728	keystroke_n	n	n/a
473.428	0.144	946856	keystroke_k	k	n/a
473.924	0.096	947848	keystroke_f	f	n/a
474.084	0.08	948168	keystroke_u	u	n/a
474.18	0.128	948360	keystroke_r	r	n/a
474.404	0.168	948808	keystroke_t	t	n/a
