onset	duration	sample	value	key	prompt_text
13.9015	19.9195	27803	prompt	n/a	the quick brown fox jumps over a lazy dog\n
15.5535	0.008	31107	keystroke_t	t	n/a
15.5925	0.105	31185	keystroke_h	h	n/a
16.2675	0.075	32535	keystroke_e	e	n/a
16.3865	0.061	32773	keystroke_Key.space	Key.space	n/a
16.5975	0.089	33195	keystroke_q	q	n/a
16.7325	0.12	33465	keystroke_u	u	n/a
16.9125	0.09	33825	keystroke_i	i	n/a
17.0475	0.105	34095	keystroke_c	c	n/a
17.1075	0.059	34215	keystroke_k	k	n/a
17.3165	0.136	34633	keystroke_Key.space	Key.space	n/a
17.7975	0.029	35595	keystroke_r	r	n/a
18.9825	0.044	37965	keystroke_Key.backspace	Key.backspace	n/a
19.5075	0.075	39015	keystroke_b	b	n/a
19.8225	0.09	39645	keystroke_r	r	n/a
20.4525	0.09	40905	keystroke_o	o	n/a
20.5725	0.075	41145	keystroke_w	w	n/a
20.6925	0.09	41385	keystroke_n	n	n/a
20.7975	0.12	41595	keystroke_Key.space	Key.space	n/a
21.0075	0.09	42015	keystroke_f	f	n/a
21.1575	0.075	42315	keystroke_o	o	n/a
21.2775	0.105	42555	keystroke_x	x	n/a
21.4275	0.089	42855	keystroke_Key.space	Key.space	n/a
22.4475	0.075	44895	keystroke_j	j	n/a
22.6875	0.015	45375	keystroke_u	u	n/a
22.7925	0.09	45585	keystroke_m	m	n/a
22.9575	0.075	45915	keystroke_o	o	n/a
23.1075	0.09	46215	keystroke_s	s	n/a
24.0675	0.045	48135	keystroke_Key.backspace	Key.backspace	n/a
24.2175	0.044	48435	keystroke_Key.backspace	Key.backspace	n/a
24.8925	0.075	49785	keystroke_p	p	n/a
25.1325	0.09	50265	keystroke_s	s	n/a
25.2975	0.059	50595	keystroke_Key.space	Key.space	n/a
25.7475	0.03	51495	keystroke_v	v	n/a
26.467	0.06	52934	keystroke_Key.backspace	Key.backspace	n/a
26.947	0.075	53894	keystroke_o	o	n/a
27.037	0.09	54074	keystroke_v	v	n/a
27.262	0.135	54524	keystroke_e	e	n/a
27.337	0.09	54674	keystroke_r	r	n/a
27.472	0.09	54944	keystroke_Key.space	Key.space	n/a
27.667	0.09	55334	keystroke_a	a	n/a
27.742	0.09	55484	keystroke_Key.space	Key.space	n/a
28.087	0.09	56174	keystroke_k	k	n/a
28.162	0.075	56324	keystroke_a	a	n/a
28.342	0.105	56684	keystroke_z	z	n/a
28.477	0.045	56954	keystroke_t	t	n/a
29.1815	0.06	58363	keystroke_Key.backspace	Key.backspace	n/a
29.3165	0.06	58633	keystroke_Key.backspace	Key.backspace	n/a
29.4515	0.06	58903	keystroke_Key.backspace	Key.backspace	n/a
29.6165	0.045	59233	keystroke_Key.backspace	Key.backspace	n/a
30.2925	0.075	60585	keystroke_l	l	n/a
30.4275	0.09	60855	keystroke_a	a	n/a
30.6225	0.105	61245	keystroke_z	z	n/a
30.7875	0.06	61575	keystroke_t	t	n/a
31.7175	0.075	63435	keystroke_Key.backspace	Key.backspace	n/a
32.1225	0.06	64245	keystroke_y	y	n/a
32.2265	0.076	64453	keystroke_Key.space	Key.space	n/a
32.6475	0.075	65295	keystroke_d	d	n/a
32.7525	0.089	65505	keystroke_o	o	n/a
32.9475	0.06	65895	keystroke_g	g	n/a
33.7275	0.09	67455	keystroke_Key.enter	Key.enter	n/a
33.8275	10.0425	67655	prompt	n/a	hobbies getting respective developing\n
34.687	0.09	69374	keystroke_h	h	n/a
34.837	0.09	69674	keystroke_o	o	n/a
34.957	0.075	69914	keystroke_b	b	n/a
35.107	0.06	70214	keystroke_b	b	n/a
35.212	0.09	70424	keystroke_i	i	n/a
35.332	0.09	70664	keystroke_e	e	n/a
35.542	0.09	71084	keystroke_s	s	n/a
35.647	0.075	71294	keystroke_Key.space	Key.space	n/a
35.887	0.06	71774	keystroke_g	g	n/a
35.992	0.09	71984	keystroke_e	e	n/a
36.067	0.06	72134	keystroke_t	t	n/a
36.247	0.075	72494	keystroke_t	t	n/a
36.487	0.105	72974	keystroke_i	i	n/a
36.637	0.09	73274	keystroke_n	n	n/a
36.772	0.075	73544	keystroke_g	g	n/a
36.892	0.105	73784	keystroke_Key.space	Key.space	n/a
37.252	0.09	74504	keystroke_r	r	n/a
37.357	0.03	74714	keystroke_e	e	n/a
37.477	0.105	74954	keystroke_s	s	n/a
37.717	0.075	75434	keystroke_o	o	n/a
37.942	0.12	75884	keystroke_e	e	n/a
38.692	0.06	77384	keystroke_Key.backspace	Key.backspace	n/a
38.797	0.06	77594	keystroke_Key.backspace	Key.backspace	n/a
39.533	0.09	79066	keystroke_p	p	n/a
39.652	0.105	79304	keystroke_e	e	n/a
39.742	0.09	79484	keystroke_c	c	n/a
39.922	0.075	79844	keystroke_t	t	n/a
40.012	0.06	80024	keystroke_i	i	n/a
40.1025	0.075	80205	keystroke_v	v	n/a
40.1925	0.075	80385	keystroke_e	e	n/a
40.3275	0.075	80655	keystroke_Key.space	Key.space	n/a
41.0175	0.09	82035	keystroke_d	d	n/a
41.1375	0.105	82275	keystroke_e	e	n/a
41.3625	0.06	82725	keystroke_v	v	n/a
41.4375	0.09	82875	keystroke_e	e	n/a
42.2175	0.06	84435	keystroke_l	l	n/a
42.3975	0.105	84795	keystroke_o	o	n/a
42.4725	0.105	84945	keystroke_p	p	n/a
42.7725	0.075	85545	keystroke_i	i	n/a
42.8025	0.12	85605	keystroke_n	n	n/a
43.0125	0.075	86025	keystroke_g	g	n/a
43.7925	0.075	87585	keystroke_Key.enter	Key.enter	n/a
43.8755	14.3655	87751	prompt	n/a	actually nitrogen represents quantitative\n
44.7075	0.075	89415	keystroke_a	a	n/a
44.8575	0.075	89715	keystroke_c	c	n/a
45.0375	0.06	90075	keystroke_t	t	n/a
45.1275	0.09	90255	keystroke_u	u	n/a
45.4575	0.09	90915	keystroke_a	a	n/a
45.5325	0.06	91065	keystroke_l	l	n/a
45.6525	0.09	91305	keystroke_l	l	n/a
46.0275	0.09	92055	keystroke_y	y	n/a
46.6725	0.105	93345	keystroke_Key.space	Key.space	n/a
46.9125	0.105	93825	keystroke_n	n	n/a
47.7075	0.075	95415	keystroke_i	i	n/a
47.8275	0.06	95655	keystroke_t	t	n/a
47.9625	0.09	95925	keystroke_r	r	n/a
48.0685	0.089	96137	keystroke_o	o	n/a
48.2325	0.075	96465	keystroke_g	g	n/a
48.9525	0.0745	97905	keystroke_e	e	n/a
49.193	0.089	98386	keystroke_n	n	n/a
49.357	0.12	98714	keystroke_Key.space	Key.space	n/a
49.658	0.1045	99316	keystroke_r	r	n/a
49.7475	0.06	99495	keystroke_e	e	n/a
50.3625	0.09	100725	keystroke_o	o	n/a
50.5875	0.06	101175	keystroke_r	r	n/a
50.6175	0.045	101235	keystroke_e	e	n/a
51.487	0.045	102974	keystroke_Key.backspace	Key.backspace	n/a
51.667	0.06	103334	keystroke_Key.backspace	Key.backspace	n/a
52.223	0.059	104446	keystroke_Key.backspace	Key.backspace	n/a
52.778	0.059	105556	keystroke_p	p	n/a
52.942	0.106	105884	keystroke_r	r	n/a
53.032	0.075	106064	keystroke_e	e	n/a
53.333	0.089	106666	keystroke_s	s	n/a
53.558	0.075	107116	keystroke_e	e	n/a
53.707	0.106	107414	keystroke_n	n	n/a
53.842	0.076	107684	keystroke_t	t	n/a
53.963	0.075	107926	keystroke_s	s	n/a
54.082	0.091	108164	keystroke_Key.space	Key.space	n/a
54.833	0.09	109666	keystroke_q	q	n/a
55.103	0.075	110206	keystroke_u	u	n/a
55.268	0.105	110536	keystroke_a	a	n/a
55.388	0.075	110776	keystroke_n	n	n/a
55.928	0.0745	111856	keystroke_t	t	n/a
56.5725	0.06	113145	keystroke_i	i	n/a
56.6775	0.06	113355	keystroke_t	t	n/a
56.9175	0.105	113835	keystroke_a	a	n/a
57.1575	0.06	114315	keystroke_t	t	n/a
57.2625	0.075	114525	keystroke_i	i	n/a
57.3525	0.09	114705	keystroke_v	v	n/a
57.4575	0.105	114915	keystroke_e	e	n/a
58.1925	0.045	116385	keystroke_Key.enter	Key.enter	n/a
58.2465	13.1035	116493	prompt	n/a	replaced navigation brazilian meal\n
58.9875	0.09	117975	keystroke_r	r	n/a
59.0325	0.105	118065	keystroke_e	e	n/a
59.2125	0.105	118425	keystroke_o	o	n/a
59.2725	0.09	118545	keystroke_k	k	n/a
59.3925	0.09	118785	keystroke_a	a	n/a
60.293	0.06	120586	keystroke_Key.backspace	Key.backspace	n/a
60.4725	0.06	120945	keystroke_Key.backspace	Key.backspace	n/a
60.6375	0.0595	121275	keystroke_Key.backspace	Key.backspace	n/a
61.1625	0.12	122325	keystroke_p	p	n/a
61.2975	0.09	122595	keystroke_l	l	n/a
61.688	0.0895	123376	keystroke_a	a	n/a
61.9125	0.105	123825	keystroke_c	c	n/a
62.213	0.09	124426	keystroke_e	e	n/a
62.258	0.12	124516	keystroke_d	d	n/a
62.692	0.09	125384	keystroke_Key.space	Key.space	n/a
63.158	0.075	126316	keystroke_n	n	n/a
63.247	0.105	126494	keystroke_a	a	n/a
63.6675	0.075	127335	keystroke_v	v	n/a
63.8175	0.105	127635	keystroke_i	i	n/a
64.282	0.06	128564	keystroke_g	g	n/a
64.432	0.09	128864	keystroke_a	a	n/a
64.567	0.075	129134	keystroke_t	t	n/a
64.672	0.105	129344	keystroke_i	i	n/a
64.822	0.135	129644	keystroke_o	o	n/a
64.882	0.12	129764	keystroke_n	n	n/a
65.152	0.06	130304	keystroke_Key.space	Key.space	n/a
65.887	0.015	131774	keystroke_b	b	n/a
65.977	0.09	131954	keystroke_r	r	n/a
66.188	0.074	132376	keystroke_a	a	n/a
66.367	0.09	132734	keystroke_z	z	n/a
66.667	0.09	133334	keystroke_i	i	n/a
67.012	0.075	134024	keystroke_l	l	n/a
67.687	0.075	135374	keystroke_i	i	n/a
67.778	0.104	135556	keystroke_a	a	n/a
67.897	0.076	135794	keystroke_n	n	n/a
68.077	0.075	136154	keystroke_Key.space	Key.space	n/a
68.362	0.09	136724	keystroke_m	m	n/a
68.468	0.074	136936	keystroke_e	e	n/a
68.647	0.12	137294	keystroke_a	a	n/a
68.722	0.09	137444	keystroke_k	k	n/a
69.622	0.06	139244	keystroke_Key.backspace	Key.backspace	n/a
69.998	0.075	139996	keystroke_l	l	n/a
71.2725	0.075	142545	keystroke_Key.enter	Key.enter	n/a
71.355	14.9495	142710	prompt	n/a	posing stats representations eden\n
72.4425	0.105	144885	keystroke_p	p	n/a
72.5025	0.09	145005	keystroke_o	o	n/a
72.6225	0.105	145245	keystroke_s	s	n/a
72.9675	0.12	145935	keystroke_i	i	n/a
73.0275	0.09	146055	keystroke_n	n	n/a
73.1625	0.075	146325	keystroke_g	g	n/a
73.2375	0.075	146475	keystroke_Key.space	Key.space	n/a
73.6875	0.105	147375	keystroke_s	s	n/a
73.8075	0.09	147615	keystroke_t	t	n/a
73.9875	0.09	147975	keystroke_a	a	n/a
74.1675	0.09	148335	keystroke_t	t	n/a
74.3625	0.105	148725	keystroke_s	s	n/a
74.5725	0.06	149145	keystroke_Key.space	Key.space	n/a
75.188	0.09	150376	keystroke_r	r	n/a
75.248	0.09	150496	keystroke_e	e	n/a
75.532	0.076	151064	keystroke_o	o	n/a
75.803	0.105	151606	keystroke_r	r	n/a
76.643	0.044	153286	keystroke_Key.backspace	Key.backspace	n/a
76.763	0.074	153526	keystroke_Key.backspace	Key.backspace	n/a
78.203	0.09	156406	keystroke_p	p	n/a
78.638	0.119	157276	keystroke_r	r	n/a
78.743	0.09	157486	keystroke_e	e	n/a
78.907	0.105	157814	keystroke_Key.space	Key.space	n/a
80.168	0.074	160336	keystroke_Key.backspace	Key.backspace	n/a
80.453	0.075	160906	keystroke_s	s	n/a
80.648	0.09	161296	keystroke_e	e	n/a
80.768	0.105	161536	keystroke_n	n	n/a
80.933	0.06	161866	keystroke_t	t	n/a
81.233	0.09	162466	keystroke_a	a	n/a
81.413	0.09	162826	keystroke_t	t	n/a
81.518	0.105	163036	keystroke_i	i	n/a
81.773	0.135	163546	keystroke_i	i	n/a
82.553	0.09	165106	keystroke_Key.backspace	Key.backspace	n/a
83.618	0.1195	167236	keystroke_o	o	n/a
83.7075	0.135	167415	keystroke_n	n	n/a
83.9325	0.12	167865	keystroke_s	s	n/a
84.1725	0.09	168345	keystroke_Key.space	Key.space	n/a
84.7425	0.135	169485	keystroke_e	e	n/a
84.8625	0.105	169725	keystroke_d	d	n/a
84.9825	0.09	169965	keystroke_e	e	n/a
85.0875	0.075	170175	keystroke_n	n	n/a
86.197	0.105	172394	keystroke_Key.enter	Key.enter	n/a
86.3095	9.325	172619	prompt	n/a	innovation allow algebra induction\n
87.218	0.09	174436	keystroke_i	i	n/a
87.383	0.075	174766	keystroke_n	n	n/a
87.638	0.015	175276	keystroke_n	n	n/a
87.728	0.075	175456	keystroke_o	o	n/a
88.747	0.075	177494	keystroke_v	v	n/a
88.897	0.105	177794	keystroke_a	a	n/a
89.062	0.09	178124	keystroke_t	t	n/a
89.137	0.075	178274	keystroke_i	i	n/a
89.227	0.121	178454	keystroke_o	o	n/a
89.318	0.104	178636	keystroke_n	n	n/a
89.707	0.105	179414	keystroke_Key.space	Key.space	n/a
89.887	0.106	179774	keystroke_a	a	n/a
90.158	0.06	180316	keystroke_l	l	n/a
90.698	0.105	181396	keystroke_l	l	n/a
90.923	0.09	181846	keystroke_o	o	n/a
91.043	0.09	182086	keystroke_w	w	n/a
91.207	0.106	182414	keystroke_Key.space	Key.space	n/a
91.583	0.09	183166	keystroke_a	a	n/a
91.973	0.09	183946	keystroke_l	l	n/a
92.107	0.0905	184214	keystroke_g	g	n/a
92.407	0.075	184814	keystroke_e	e	n/a
92.527	0.12	185054	keystroke_b	b	n/a
92.722	0.075	185444	keystroke_r	r	n/a
92.9025	0.1045	185805	keystroke_a	a	n/a
93.1425	0.0895	186285	keystroke_Key.space	Key.space	n/a
93.577	0.15	187154	keystroke_i	i	n/a
94.223	0.104	188446	keystroke_n	n	n/a
94.373	0.089	188746	keystroke_d	d	n/a
94.493	0.09	188986	keystroke_u	u	n/a
94.628	0.09	189256	keystroke_c	c	n/a
94.8225	0.06	189645	keystroke_t	t	n/a
94.8975	0.075	189795	keystroke_i	i	n/a
94.9875	0.135	189975	keystroke_o	o	n/a
95.0775	0.06	190155	keystroke_n	n	n/a
95.5275	0.105	191055	keystroke_Key.enter	Key.enter	n/a
95.641	11.6185	191282	prompt	n/a	delivery symptoms elements unknown\n
96.3225	0.105	192645	keystroke_d	d	n/a
96.4125	0.105	192825	keystroke_e	e	n/a
96.6225	0.045	193245	keystroke_i	i	n/a
97.4775	0.0905	194955	keystroke_Key.backspace	Key.backspace	n/a
97.8975	0.135	195795	keystroke_l	l	n/a
98.0025	0.09	196005	keystroke_i	i	n/a
98.0775	0.0605	196155	keystroke_v	v	n/a
98.243	0.1045	196486	keystroke_e	e	n/a
98.2725	0.09	196545	keystroke_r	r	n/a
98.4075	0.105	196815	keystroke_y	y	n/a
99.068	0.12	198136	keystroke_Key.space	Key.space	n/a
99.263	0.12	198526	keystroke_s	s	n/a
99.578	0.075	199156	keystroke_y	y	n/a
100.702	0.09	201404	keystroke_m	m	n/a
100.897	0.046	201794	keystroke_p	p	n/a
101.002	0.075	202004	keystroke_t	t	n/a
101.347	0.15	202694	keystroke_o	o	n/a
101.467	0.1055	202934	keystroke_m	m	n/a
101.6025	0.105	203205	keystroke_s	s	n/a
101.7525	0.09	203505	keystroke_Key.space	Key.space	n/a
102.0975	0.075	204195	keystroke_e	e	n/a
102.3075	0.06	204615	keystroke_e	e	n/a
103.0875	0.09	206175	keystroke_Key.backspace	Key.backspace	n/a
103.4325	0.075	206865	keystroke_l	l	n/a
103.5525	0.09	207105	keystroke_e	e	n/a
103.6575	0.09	207315	keystroke_m	m	n/a
104.0325	0.09	208065	keystroke_e	e	n/a
104.1525	0.09	208305	keystroke_n	n	n/a
104.2575	0.09	208515	keystroke_t	t	n/a
104.3925	0.09	208785	keystroke_s	s	n/a
104.4975	0.09	208995	keystroke_Key.space	Key.space	n/a
105.0975	0.105	210195	keystroke_u	u	n/a
105.1575	0.105	210315	keystroke_n	n	n/a
105.4275	0.12	210855	keystroke_k	k	n/a
106.3275	0.09	212655	keystroke_n	n	n/a
106.4775	0.075	212955	keystroke_o	o	n/a
106.5825	0.09	213165	keystroke_w	w	n/a
106.7775	0.135	213555	keystroke_n	n	n/a
107.1525	0.105	214305	keystroke_Key.enter	Key.enter	n/a
107.2645	10.5855	214529	prompt	n/a	publisher along criterion monte\n
109.0725	0.105	218145	keystroke_p	p	n/a
109.5375	0.105	219075	keystroke_u	u	n/a
109.7325	0.075	219465	keystroke_b	b	n/a
110.0625	0.135	220125	keystroke_l	l	n/a
110.1675	0.105	220335	keystroke_i	i	n/a
110.3925	0.075	220785	keystroke_s	s	n/a
110.4975	0.105	220995	keystroke_h	h	n/a
110.6175	0.09	221235	keystroke_e	e	n/a
110.6775	0.075	221355	keystroke_r	r	n/a
110.8125	0.09	221625	keystroke_Key.space	Key.space	n/a
111.2625	0.105	222525	keystroke_a	a	n/a
111.5025	0.105	223005	keystroke_l	l	n/a
111.7275	0.15	223455	keystroke_o	o	n/a
111.8775	0.075	223755	keystroke_h	h	n/a
112.6275	0.09	225255	keystroke_Key.backspace	Key.backspace	n/a
112.9575	0.09	225915	keystroke_n	n	n/a
113.0925	0.075	226185	keystroke_g	g	n/a
113.1825	0.09	226365	keystroke_Key.space	Key.space	n/a
113.8125	0.09	227625	keystroke_c	c	n/a
114.0525	0.0755	228105	keystroke_r	r	n/a
114.248	0.09	228496	keystroke_i	i	n/a
114.428	0.075	228856	keystroke_t	t	n/a
114.683	0.09	229366	keystroke_e	e	n/a
114.743	0.09	229486	keystroke_r	r	n/a
114.848	0.09	229696	keystroke_i	i	n/a
115.208	0.135	230416	keystroke_o	o	n/a
115.223	0.09	230446	keystroke_n	n	n/a
115.523	0.09	231046	keystroke_Key.space	Key.space	n/a
115.883	0.12	231766	keystroke_m	m	n/a
116.9475	0.15	233895	keystroke_o	o	n/a
117.0385	0.089	234077	keystroke_n	n	n/a
117.1885	0.059	234377	keystroke_t	t	n/a
117.4725	0.06	234945	keystroke_e	e	n/a
117.7435	0.104	235487	keystroke_Key.enter	Key.enter	n/a
117.854	11.576	235708	prompt	n/a	italic programs mouse priest\n
118.4625	0.105	236925	keystroke_i	i	n/a
118.6275	0.06	237255	keystroke_t	t	n/a
118.8675	0.09	237735	keystroke_a	a	n/a
118.9425	0.15	237885	keystroke_l	l	n/a
119.0025	0.1055	238005	keystroke_i	i	n/a
119.168	0.105	238336	keystroke_c	c	n/a
119.348	0.09	238696	keystroke_Key.space	Key.space	n/a
119.693	0.09	239386	keystroke_o	o	n/a
119.798	0.075	239596	keystroke_r	r	n/a
119.978	0.105	239956	keystroke_i	i	n/a
120.7125	0.045	241425	keystroke_Key.backspace	Key.backspace	n/a
120.8175	0.015	241635	keystroke_Key.backspace	Key.backspace	n/a
120.9675	0.06	241935	keystroke_Key.backspace	Key.backspace	n/a
121.7925	0.075	243585	keystroke_p	p	n/a
121.9425	0.075	243885	keystroke_r	r	n/a
122.0325	0.075	244065	keystroke_o	o	n/a
122.1975	0.045	244395	keystroke_g	g	n/a
122.3325	0.105	244665	keystroke_r	r	n/a
122.4975	0.105	244995	keystroke_a	a	n/a
122.5875	0.105	245175	keystroke_m	m	n/a
122.7675	0.075	245535	keystroke_s	s	n/a
122.8875	0.075	245775	keystroke_Key.space	Key.space	n/a
123.2775	0.105	246555	keystroke_m	m	n/a
123.5325	0.105	247065	keystroke_u	u	n/a
124.358	0.045	248716	keystroke_Key.backspace	Key.backspace	n/a
124.838	0.135	249676	keystroke_o	o	n/a
125.138	0.09	250276	keystroke_u	u	n/a
125.272	0.061	250544	keystroke_s	s	n/a
125.4385	0.06	250877	keystroke_e	e	n/a
125.4985	0.089	250997	keystroke_Key.space	Key.space	n/a
125.8875	0.045	251775	keystroke_o	o	n/a
126.0235	0.104	252047	keystroke_r	r	n/a
126.6825	0.105	253365	keystroke_Key.backspace	Key.backspace	n/a
126.8475	0.06	253695	keystroke_Key.backspace	Key.backspace	n/a
127.5235	0.059	255047	keystroke_p	p	n/a
127.7185	0.075	255437	keystroke_r	r	n/a
127.8385	0.074	255677	keystroke_i	i	n/a
128.0175	0.06	256035	keystroke_e	e	n/a
128.1835	0.074	256367	keystroke_s	s	n/a
128.2735	0.059	256547	keystroke_t	t	n/a
129.3525	0.075	258705	keystroke_Key.enter	Key.enter	n/a
129.4345	8.8455	258869	prompt	n/a	dinner building nuclear sing\n
130.1485	0.09	260297	keystroke_d	d	n/a
130.2685	0.104	260537	keystroke_i	i	n/a
130.3735	0.089	260747	keystroke_n	n	n/a
130.5085	0.135	261017	keystroke_n	n	n/a
130.8985	0.1345	261797	keystroke_e	e	n/a
131.0175	0.075	262035	keystroke_r	r	n/a
131.1375	0.09	262275	keystroke_Key.space	Key.space	n/a
131.453	0.0595	262906	keystroke_b	b	n/a
131.5275	0.0755	263055	keystroke_u	u	n/a
131.7375	0.1055	263475	keystroke_i	i	n/a
131.8725	0.105	263745	keystroke_l	l	n/a
132.0525	0.1055	264105	keystroke_d	d	n/a
132.1275	0.12	264255	keystroke_i	i	n/a
132.1875	0.0905	264375	keystroke_n	n	n/a
132.323	0.0745	264646	keystroke_g	g	n/a
132.4125	0.075	264825	keystroke_Key.space	Key.space	n/a
132.6675	0.09	265335	keystroke_n	n	n/a
132.8625	0.075	265725	keystroke_u	u	n/a
133.0125	0.075	266025	keystroke_c	c	n/a
133.2525	0.03	266505	keystroke_e	e	n/a
133.628	0.1045	267256	keystroke_Key.backspace	Key.backspace	n/a
134.3475	0.09	268695	keystroke_l	l	n/a
134.4525	0.045	268905	keystroke_e	e	n/a
134.6025	0.075	269205	keystroke_a	a	n/a
134.6785	0.029	269357	keystroke_e	e	n/a
134.6925	0.06	269385	keystroke_r	r	n/a
134.7975	0.075	269595	keystroke_Key.space	Key.space	n/a
135.3825	0.0605	270765	keystroke_Key.backspace	Key.backspace	n/a
135.5475	0.06	271095	keystroke_Key.backspace	Key.backspace	n/a
136.1925	0.06	272385	keystroke_Key.backspace	Key.backspace	n/a
136.7335	0.059	273467	keystroke_r	r	n/a
137.0025	0.09	274005	keystroke_Key.space	Key.space	n/a
137.1975	0.075	274395	keystroke_s	s	n/a
137.3925	0.046	274785	keystroke_i	i	n/a
137.4225	0.06	274845	keystroke_n	n	n/a
137.7375	0.075	275475	keystroke_g	g	n/a
138.173	0.105	276346	keystroke_Key.enter	Key.enter	n/a
138.2845	9.191	276569	prompt	n/a	italic venture counseling posts\n
139.2235	0.075	278447	keystroke_i	i	n/a
139.4935	0.06	278987	keystroke_t	t	n/a
139.6885	0.09	279377	keystroke_a	a	n/a
139.8385	0.12	279677	keystroke_l	l	n/a
140.0335	0.09	280067	keystroke_i	i	n/a
140.1385	0.09	280277	keystroke_c	c	n/a
140.3185	0.075	280637	keystroke_Key.space	Key.space	n/a
140.7685	0.06	281537	keystroke_v	v	n/a
140.8585	0.12	281717	keystroke_e	e	n/a
141.0085	0.09	282017	keystroke_n	n	n/a
141.3685	0.075	282737	keystroke_t	t	n/a
141.4885	0.09	282977	keystroke_u	u	n/a
141.6085	0.105	283217	keystroke_r	r	n/a
141.6835	0.105	283367	keystroke_e	e	n/a
141.8035	0.09	283607	keystroke_Key.space	Key.space	n/a
142.2685	0.09	284537	keystroke_c	c	n/a
142.4485	0.105	284897	keystroke_i	i	n/a
143.8735	0.09	287747	keystroke_Key.backspace	Key.backspace	n/a
144.2185	0.105	288437	keystroke_o	o	n/a
144.3975	0.076	288795	keystroke_u	u	n/a
144.5935	0.075	289187	keystroke_n	n	n/a
144.7135	0.09	289427	keystroke_s	s	n/a
144.9385	0.075	289877	keystroke_e	e	n/a
145.2375	0.09	290475	keystroke_l	l	n/a
145.4335	0.135	290867	keystroke_i	i	n/a
145.5235	0.12	291047	keystroke_n	n	n/a
145.6135	0.075	291227	keystroke_g	g	n/a
145.8085	0.105	291617	keystroke_Key.space	Key.space	n/a
146.6035	0.12	293207	keystroke_p	p	n/a
146.7075	0.1205	293415	keystroke_o	o	n/a
146.903	0.1055	293806	keystroke_s	s	n/a
146.9935	0.075	293987	keystroke_t	t	n/a
147.1135	0.075	294227	keystroke_s	s	n/a
147.368	0.105	294736	keystroke_Key.enter	Key.enter	n/a
147.48	8.515	294960	prompt	n/a	control application antivirus languages\n
148.088	0.1355	296176	keystroke_c	c	n/a
148.2375	0.09	296475	keystroke_o	o	n/a
148.4935	0.059	296987	keystroke_n	n	n/a
148.6875	0.045	297375	keystroke_t	t	n/a
148.8225	0.105	297645	keystroke_r	r	n/a
148.8985	0.09	297797	keystroke_o	o	n/a
149.1085	0.09	298217	keystroke_l	l	n/a
149.2425	0.121	298485	keystroke_Key.space	Key.space	n/a
149.3785	0.105	298757	keystroke_a	a	n/a
149.4535	0.06	298907	keystroke_p	p	n/a
149.6035	0.105	299207	keystroke_p	p	n/a
149.7535	0.09	299507	keystroke_l	l	n/a
149.9635	0.075	299927	keystroke_i	i	n/a
150.0535	0.075	300107	keystroke_c	c	n/a
150.173	0.09	300346	keystroke_a	a	n/a
150.323	0.06	300646	keystroke_t	t	n/a
150.398	0.06	300796	keystroke_i	i	n/a
150.488	0.12	300976	keystroke_o	o	n/a
150.563	0.105	301126	keystroke_n	n	n/a
150.938	0.105	301876	keystroke_Key.space	Key.space	n/a
151.148	0.09	302296	keystroke_a	a	n/a
151.358	0.075	302716	keystroke_n	n	n/a
151.538	0.075	303076	keystroke_t	t	n/a
151.673	0.09	303346	keystroke_i	i	n/a
151.868	0.09	303736	keystroke_v	v	n/a
152.033	0.105	304066	keystroke_i	i	n/a
152.183	0.06	304366	keystroke_r	r	n/a
152.393	0.09	304786	keystroke_u	u	n/a
152.543	0.09	305086	keystroke_s	s	n/a
152.783	0.09	305566	keystroke_Key.space	Key.space	n/a
153.278	0.045	306556	keystroke_k	k	n/a
153.983	0.09	307966	keystroke_Key.backspace	Key.backspace	n/a
154.434	0.089	308868	keystroke_l	l	n/a
154.719	0.089	309438	keystroke_a	a	n/a
154.823	0.091	309646	keystroke_n	n	n/a
155.048	0.061	310096	keystroke_g	g	n/a
155.153	0.105	310306	keystroke_u	u	n/a
155.318	0.091	310636	keystroke_a	a	n/a
155.468	0.09	310936	keystroke_g	g	n/a
155.573	0.061	311146	keystroke_e	e	n/a
155.739	0.104	311478	keystroke_s	s	n/a
155.903	0.09	311806	keystroke_Key.enter	Key.enter	n/a
156.0005	5.9805	312001	prompt	n/a	loose presently juan actually\n
156.714	0.059	313428	keystroke_l	l	n/a
156.893	0.075	313786	keystroke_o	o	n/a
157.028	0.09	314056	keystroke_o	o	n/a
157.148	0.06	314296	keystroke_s	s	n/a
157.328	0.045	314656	keystroke_e	e	n/a
157.388	0.12	314776	keystroke_Key.space	Key.space	n/a
157.898	0.03	315796	keystroke_p	p	n/a
157.988	0.105	315976	keystroke_r	r	n/a
158.078	0.09	316156	keystroke_e	e	n/a
158.273	0.075	316546	keystroke_s	s	n/a
158.423	0.075	316846	keystroke_e	e	n/a
158.483	0.091	316966	keystroke_n	n	n/a
158.588	0.06	317176	keystroke_t	t	n/a
158.979	0.089	317958	keystroke_l	l	n/a
159.113	0.06	318226	keystroke_y	y	n/a
159.248	0.09	318496	keystroke_Key.space	Key.space	n/a
159.503	0.105	319006	keystroke_j	j	n/a
159.713	0.075	319426	keystroke_u	u	n/a
159.833	0.09	319666	keystroke_a	a	n/a
159.938	0.09	319876	keystroke_n	n	n/a
160.088	0.105	320176	keystroke_Key.space	Key.space	n/a
160.343	0.075	320686	keystroke_a	a	n/a
160.493	0.075	320986	keystroke_c	c	n/a
160.688	0.075	321376	keystroke_t	t	n/a
160.838	0.075	321676	keystroke_u	u	n/a
160.958	0.105	321916	keystroke_a	a	n/a
161.378	0.105	322756	keystroke_l	l	n/a
161.528	0.09	323056	keystroke_l	l	n/a
161.663	0.045	323326	keystroke_y	y	n/a
161.873	0.105	323746	keystroke_Key.enter	Key.enter	n/a
161.9855	4.555	323971	prompt	n/a	solo topics watts cache\n
162.503	0.105	325006	keystroke_s	s	n/a
162.668	0.1055	325336	keystroke_o	o	n/a
162.893	0.091	325786	keystroke_l	l	n/a
163.058	0.105	326116	keystroke_o	o	n/a
163.223	0.075	326446	keystroke_Key.space	Key.space	n/a
163.403	0.045	326806	keystroke_t	t	n/a
163.583	0.12	327166	keystroke_o	o	n/a
163.674	0.104	327348	keystroke_p	p	n/a
163.779	0.104	327558	keystroke_i	i	n/a
163.868	0.105	327736	keystroke_c	c	n/a
164.003	0.105	328006	keystroke_s	s	n/a
164.318	0.105	328636	keystroke_Key.space	Key.space	n/a
164.513	0.015	329026	keystroke_w	w	n/a
164.633	0.045	329266	keystroke_a	a	n/a
164.978	0.045	329956	keystroke_t	t	n/a
165.113	0.075	330226	keystroke_t	t	n/a
165.233	0.075	330466	keystroke_s	s	n/a
165.323	0.105	330646	keystroke_Key.space	Key.space	n/a
165.5185	0.075	331037	keystroke_c	c	n/a
165.684	0.12	331368	keystroke_a	a	n/a
165.939	0.074	331878	keystroke_c	c	n/a
166.028	0.09	332056	keystroke_h	h	n/a
166.134	0.074	332268	keystroke_e	e	n/a
166.418	0.12	332836	keystroke_Key.enter	Key.enter	n/a
166.5455	11.1105	333091	prompt	n/a	raised genesis intro judy\n
167.168	0.09	334336	keystroke_r	r	n/a
167.228	0.075	334456	keystroke_e	e	n/a
167.708	0.09	335416	keystroke_Key.backspace	Key.backspace	n/a
167.948	0.09	335896	keystroke_a	a	n/a
168.098	0.09	336196	keystroke_i	i	n/a
168.203	0.105	336406	keystroke_d	d	n/a
168.683	0.075	337366	keystroke_Key.backspace	Key.backspace	n/a
168.864	0.059	337728	keystroke_s	s	n/a
169.044	0.09	338088	keystroke_e	e	n/a
169.118	0.105	338236	keystroke_d	d	n/a
169.208	0.075	338416	keystroke_Key.space	Key.space	n/a
169.538	0.06	339076	keystroke_g	g	n/a
169.659	0.089	339318	keystroke_n	n	n/a
169.718	0.045	339436	keystroke_e	e	n/a
170.318	0.09	340636	keystroke_Key.backspace	Key.backspace	n/a
170.483	0.06	340966	keystroke_Key.backspace	Key.backspace	n/a
170.663	0.06	341326	keystroke_e	e	n/a
170.813	0.075	341626	keystroke_n	n	n/a
170.948	0.09	341896	keystroke_s	s	n/a
171.188	0.06	342376	keystroke_i	i	n/a
171.638	0.075	343276	keystroke_Key.backspace	Key.backspace	n/a
171.803	0.06	343606	keystroke_Key.backspace	Key.backspace	n/a
172.103	0.06	344206	keystroke_e	e	n/a
172.2685	0.0895	344537	keystroke_n	n	n/a
173.8285	0.075	347657	keystroke_Key.backspace	Key.backspace	n/a
174.3835	0.075	348767	keystroke_s	s	n/a
174.5335	0.09	349067	keystroke_i	i	n/a
174.6685	0.09	349337	keystroke_s	s	n/a
174.9085	0.075	349817	keystroke_Key.space	Key.space	n/a
175.4035	0.075	350807	keystroke_i	i	n/a
175.4485	0.105	350897	keystroke_n	n	n/a
175.8235	0.06	351647	keystroke_t	t	n/a
175.9735	0.075	351947	keystroke_r	r	n/a
176.0335	0.105	352067	keystroke_o	o	n/a
176.1985	0.105	352397	keystroke_Key.space	Key.space	n/a
176.6785	0.09	353357	keystroke_j	j	n/a
176.9335	0.1195	353867	keystroke_u	u	n/a
177.068	0.075	354136	keystroke_d	d	n/a
177.174	0.105	354348	keystroke_y	y	n/a
177.563	0.09	355126	keystroke_Key.enter	Key.enter	n/a
177.661	7.2545	355322	prompt	n/a	among browse services optimize\n
178.5835	0.135	357167	keystroke_a	a	n/a
178.7035	0.105	357407	keystroke_m	m	n/a
178.8685	0.135	357737	keystroke_o	o	n/a
178.9435	0.12	357887	keystroke_n	n	n/a
179.0785	0.06	358157	keystroke_g	g	n/a
179.1685	0.09	358337	keystroke_Key.space	Key.space	n/a
179.4085	0.105	358817	keystroke_b	b	n/a
179.5735	0.075	359147	keystroke_r	r	n/a
179.7235	0.09	359447	keystroke_o	o	n/a
179.8285	0.075	359657	keystroke_w	w	n/a
180.0085	0.06	360017	keystroke_s	s	n/a
180.1735	0.06	360347	keystroke_e	e	n/a
180.2485	0.09	360497	keystroke_Key.space	Key.space	n/a
180.4435	0.104	360887	keystroke_s	s	n/a
180.6535	0.09	361307	keystroke_e	e	n/a
180.7285	0.075	361457	keystroke_r	r	n/a
181.1635	0.105	362327	keystroke_v	v	n/a
181.3885	0.09	362777	keystroke_i	i	n/a
181.4935	0.105	362987	keystroke_c	c	n/a
181.5835	0.059	363167	keystroke_e	e	n/a
181.7475	0.091	363495	keystroke_s	s	n/a
181.8385	0.09	363677	keystroke_Key.space	Key.space	n/a
182.2135	0.1195	364427	keystroke_o	o	n/a
182.318	0.09	364636	keystroke_p	p	n/a
182.633	0.09	365266	keystroke_t	t	n/a
182.753	0.09	365506	keystroke_i	i	n/a
182.798	0.105	365596	keystroke_m	m	n/a
182.948	0.09	365896	keystroke_z	z	n/a
182.993	0.075	365986	keystroke_i	i	n/a
183.623	0.06	367246	keystroke_Key.backspace	Key.backspace	n/a
183.773	0.06	367546	keystroke_Key.backspace	Key.backspace	n/a
183.968	0.105	367936	keystroke_i	i	n/a
184.088	0.091	368176	keystroke_z	z	n/a
184.4185	0.09	368837	keystroke_e	e	n/a
184.8235	0.09	369647	keystroke_Key.enter	Key.enter	n/a
184.9205	10.9	369841	prompt	n/a	springs perfume patterns acquisitions\n
185.4685	0.075	370937	keystroke_s	s	n/a
185.6635	0.075	371327	keystroke_o	o	n/a
186.2185	0.09	372437	keystroke_Key.backspace	Key.backspace	n/a
186.4885	0.105	372977	keystroke_p	p	n/a
186.6235	0.09	373247	keystroke_r	r	n/a
186.7435	0.12	373487	keystroke_i	i	n/a
186.8185	0.105	373637	keystroke_n	n	n/a
186.9085	0.075	373817	keystroke_g	g	n/a
187.0285	0.075	374057	keystroke_s	s	n/a
187.1185	0.09	374237	keystroke_Key.space	Key.space	n/a
187.5235	0.09	375047	keystroke_p	p	n/a
187.8385	0.105	375677	keystroke_e	e	n/a
187.9135	0.075	375827	keystroke_r	r	n/a
188.0635	0.09	376127	keystroke_f	f	n/a
188.2885	0.03	376577	keystroke_r	r	n/a
188.6935	0.075	377387	keystroke_Key.backspace	Key.backspace	n/a
188.8585	0.075	377717	keystroke_u	u	n/a
189.053	0.09	378106	keystroke_m	m	n/a
189.1735	0.0745	378347	keystroke_e	e	n/a
189.293	0.0755	378586	keystroke_Key.space	Key.space	n/a
189.834	0.075	379668	keystroke_p	p	n/a
189.9535	0.075	379907	keystroke_a	a	n/a
190.103	0.0755	380206	keystroke_t	t	n/a
190.238	0.075	380476	keystroke_t	t	n/a
190.373	0.12	380746	keystroke_e	e	n/a
190.448	0.09	380896	keystroke_r	r	n/a
190.598	0.09	381196	keystroke_n	n	n/a
190.7035	0.09	381407	keystroke_s	s	n/a
190.808	0.075	381616	keystroke_Key.space	Key.space	n/a
191.318	0.09	382636	keystroke_a	a	n/a
191.543	0.075	383086	keystroke_c	c	n/a
191.8135	0.0745	383627	keystroke_q	q	n/a
191.948	0.09	383896	keystroke_u	u	n/a
192.143	0.061	384286	keystroke_e	e	n/a
192.8925	0.091	385785	keystroke_Key.backspace	Key.backspace	n/a
193.0885	0.09	386177	keystroke_u	u	n/a
193.5535	0.105	387107	keystroke_Key.backspace	Key.backspace	n/a
193.7935	0.09	387587	keystroke_i	i	n/a
194.0485	0.075	388097	keystroke_s	s	n/a
194.3925	0.076	388785	keystroke_t	t	n/a
194.7985	0.074	389597	keystroke_Key.backspace	Key.backspace	n/a
194.9175	0.091	389835	keystroke_i	i	n/a
195.0385	0.075	390077	keystroke_t	t	n/a
195.1285	0.089	390257	keystroke_i	i	n/a
195.2635	0.105	390527	keystroke_o	o	n/a
195.3385	0.075	390677	keystroke_n	n	n/a
195.4875	0.091	390975	keystroke_s	s	n/a
195.7585	0.059	391517	keystroke_Key.enter	Key.enter	n/a
195.828	5.242	391656	prompt	n/a	murray engage weapon prep\n
196.5985	0.12	393197	keystroke_m	m	n/a
196.8375	0.076	393675	keystroke_u	u	n/a
196.9585	0.09	393917	keystroke_r	r	n/a
197.2585	0.06	394517	keystroke_r	r	n/a
197.4685	0.09	394937	keystroke_a	a	n/a
197.5435	0.09	395087	keystroke_y	y	n/a
197.6635	0.104	395327	keystroke_Key.space	Key.space	n/a
197.8285	0.09	395657	keystroke_e	e	n/a
197.9635	0.045	395927	keystroke_n	n	n/a
198.0235	0.074	396047	keystroke_g	g	n/a
198.1885	0.075	396377	keystroke_a	a	n/a
198.3535	0.075	396707	keystroke_g	g	n/a
198.4135	0.074	396827	keystroke_e	e	n/a
198.6525	0.076	397305	keystroke_Key.space	Key.space	n/a
199.2835	0.105	398567	keystroke_w	w	n/a
199.3735	0.09	398747	keystroke_e	e	n/a
199.4785	0.09	398957	keystroke_a	a	n/a
199.6135	0.09	399227	keystroke_p	p	n/a
199.6435	0.105	399287	keystroke_o	o	n/a
199.8535	0.075	399707	keystroke_n	n	n/a
200.0035	0.075	400007	keystroke_Key.space	Key.space	n/a
200.4085	0.075	400817	keystroke_p	p	n/a
200.5885	0.104	401177	keystroke_r	r	n/a
200.6785	0.075	401357	keystroke_e	e	n/a
200.7685	0.075	401537	keystroke_p	p	n/a
200.9785	0.09	401957	keystroke_Key.enter	Key.enter	n/a
201.074	8.396	402148	prompt	n/a	serum noted maximize observations\n
201.6985	0.075	403397	keystroke_s	s	n/a
202.2535	0.075	404507	keystroke_e	e	n/a
202.2985	0.09	404597	keystroke_r	r	n/a
202.4335	0.09	404867	keystroke_u	u	n/a
202.6435	0.09	405287	keystroke_m	m	n/a
203.2135	0.105	406427	keystroke_Key.space	Key.space	n/a
203.3035	0.075	406607	keystroke_n	n	n/a
203.4085	0.105	406817	keystroke_o	o	n/a
203.4985	0.075	406997	keystroke_t	t	n/a
203.7835	0.105	407567	keystroke_e	e	n/a
203.8585	0.09	407717	keystroke_d	d	n/a
203.9485	0.09	407897	keystroke_Key.space	Key.space	n/a
204.533	0.12	409066	keystroke_m	m	n/a
204.938	0.075	409876	keystroke_a	a	n/a
205.1185	0.075	410237	keystroke_x	x	n/a
205.208	0.105	410416	keystroke_i	i	n/a
205.418	0.0905	410836	keystroke_m	m	n/a
205.6285	0.075	411257	keystroke_u	u	n/a
205.7485	0.105	411497	keystroke_z	z	n/a
206.0335	0.075	412067	keystroke_Key.backspace	Key.backspace	n/a
206.2285	0.045	412457	keystroke_Key.backspace	Key.backspace	n/a
206.3935	0.105	412787	keystroke_i	i	n/a
206.5285	0.045	413057	keystroke_z	z	n/a
206.7235	0.075	413447	keystroke_e	e	n/a
206.8585	0.09	413717	keystroke_Key.space	Key.space	n/a
207.1885	0.09	414377	keystroke_o	o	n/a
207.5785	0.09	415157	keystroke_b	b	n/a
207.7135	0.045	415427	keystroke_e	e	n/a
207.9835	0.075	415967	keystroke_Key.backspace	Key.backspace	n/a
208.0435	0.075	416087	keystroke_s	s	n/a
208.194	0.105	416388	keystroke_e	e	n/a
208.269	0.06	416538	keystroke_r	r	n/a
208.4335	0.075	416867	keystroke_v	v	n/a
208.5985	0.075	417197	keystroke_a	a	n/a
208.7185	0.06	417437	keystroke_t	t	n/a
208.7935	0.06	417587	keystroke_i	i	n/a
208.8985	0.135	417797	keystroke_o	o	n/a
208.9735	0.105	417947	keystroke_n	n	n/a
209.0935	0.09	418187	keystroke_s	s	n/a
209.3935	0.075	418787	keystroke_Key.enter	Key.enter	n/a
209.4755	6.46	418951	prompt	n/a	intelligent manage bolivia nothing\n
210.1885	0.09	420377	keystroke_i	i	n/a
210.5635	0.09	421127	keystroke_n	n	n/a
210.7285	0.06	421457	keystroke_t	t	n/a
210.8935	0.09	421787	keystroke_e	e	n/a
210.9535	0.075	421907	keystroke_l	l	n/a
211.1035	0.12	422207	keystroke_l	l	n/a
211.2385	0.09	422477	keystroke_i	i	n/a
211.3585	0.06	422717	keystroke_g	g	n/a
211.4635	0.09	422927	keystroke_e	e	n/a
211.7785	0.09	423557	keystroke_n	n	n/a
211.9135	0.06	423827	keystroke_t	t	n/a
212.0185	0.075	424037	keystroke_Key.space	Key.space	n/a
212.2735	0.09	424547	keystroke_m	m	n/a
212.3785	0.105	424757	keystroke_a	a	n/a
212.4985	0.075	424997	keystroke_n	n	n/a
212.5885	0.075	425177	keystroke_a	a	n/a
212.8885	0.06	425777	keystroke_g	g	n/a
212.9335	0.075	425867	keystroke_e	e	n/a
213.0835	0.09	426167	keystroke_Key.space	Key.space	n/a
213.3835	0.03	426767	keystroke_b	b	n/a
213.4735	0.075	426947	keystroke_o	o	n/a
213.6685	0.105	427337	keystroke_l	l	n/a
213.7435	0.09	427487	keystroke_i	i	n/a
213.9085	0.09	427817	keystroke_v	v	n/a
214.193	0.09	428386	keystroke_i	i	n/a
214.328	0.045	428656	keystroke_a	a	n/a
214.478	0.09	428956	keystroke_Key.space	Key.space	n/a
214.673	0.09	429346	keystroke_n	n	n/a
214.793	0.105	429586	keystroke_o	o	n/a
214.913	0.075	429826	keystroke_t	t	n/a
215.003	0.105	430006	keystroke_h	h	n/a
215.123	0.09	430246	keystroke_i	i	n/a
215.168	0.105	430336	keystroke_n	n	n/a
215.243	0.075	430486	keystroke_g	g	n/a
215.828	0.105	431656	keystroke_Key.enter	Key.enter	n/a
215.9395	8.9955	431879	prompt	n/a	speakers advised combination directory\n
216.683	0.09	433366	keystroke_s	s	n/a
216.804	0.105	433608	keystroke_p	p	n/a
217.029	0.045	434058	keystroke_e	e	n/a
217.163	0.09	434326	keystroke_a	a	n/a
217.238	0.106	434476	keystroke_k	k	n/a
217.404	0.074	434808	keystroke_e	e	n/a
217.448	0.091	434896	keystroke_r	r	n/a
217.584	0.074	435168	keystroke_s	s	n/a
217.703	0.09	435406	keystroke_Key.space	Key.space	n/a
217.913	0.106	435826	keystroke_a	a	n/a
218.063	0.12	436126	keystroke_d	d	n/a
218.289	0.06	436578	keystroke_v	v	n/a
218.394	0.105	436788	keystroke_i	i	n/a
218.619	0.074	437238	keystroke_s	s	n/a
218.799	0.12	437598	keystroke_e	e	n/a
218.904	0.0895	437808	keystroke_d	d	n/a
219.0085	0.09	438017	keystroke_Key.space	Key.space	n/a
219.2485	0.075	438497	keystroke_c	c	n/a
219.3385	0.09	438677	keystroke_o	o	n/a
220.5845	0.089	441169	keystroke_m	m	n/a
220.7785	0.06	441557	keystroke_b	b	n/a
220.8835	0.075	441767	keystroke_i	i	n/a
220.9135	0.105	441827	keystroke_n	n	n/a
221.0335	0.105	442067	keystroke_a	a	n/a
221.1835	0.075	442367	keystroke_t	t	n/a
221.2735	0.105	442547	keystroke_i	i	n/a
221.4385	0.105	442877	keystroke_o	o	n/a
221.4985	0.105	442997	keystroke_n	n	n/a
221.7685	0.075	443537	keystroke_Key.space	Key.space	n/a
222.0385	0.075	444077	keystroke_d	d	n/a
222.2185	0.03	444437	keystroke_e	e	n/a
222.8185	0.09	445637	keystroke_Key.backspace	Key.backspace	n/a
222.9835	0.09	445967	keystroke_i	i	n/a
223.1185	0.075	446237	keystroke_r	r	n/a
223.2985	0.105	446597	keystroke_e	e	n/a
223.4485	0.075	446897	keystroke_c	c	n/a
223.6285	0.06	447257	keystroke_t	t	n/a
224.1085	0.09	448217	keystroke_o	o	n/a
224.2435	0.06	448487	keystroke_r	r	n/a
224.4535	0.06	448907	keystroke_y	y	n/a
224.8285	0.105	449657	keystroke_Key.enter	Key.enter	n/a
224.939	6.8365	449878	prompt	n/a	silly compiler attempting rica\n
225.5185	0.09	451037	keystroke_s	s	n/a
225.6235	0.105	451247	keystroke_i	i	n/a
225.8035	0.045	451607	keystroke_l	l	n/a
225.9985	0.03	451997	keystroke_l	l	n/a
226.0735	0.075	452147	keystroke_y	y	n/a
226.3285	0.075	452657	keystroke_Key.space	Key.space	n/a
226.6285	0.09	453257	keystroke_c	c	n/a
226.7335	0.105	453467	keystroke_o	o	n/a
226.8235	0.06	453647	keystroke_m	m	n/a
227.1835	0.09	454367	keystroke_i	i	n/a
227.5885	0.09	455177	keystroke_Key.backspace	Key.backspace	n/a
228.1295	0.134	456259	keystroke_p	p	n/a
228.3685	0.12	456737	keystroke_i	i	n/a
228.5185	0.091	457037	keystroke_l	l	n/a
228.6985	0.106	457397	keystroke_e	e	n/a
228.7735	0.105	457547	keystroke_r	r	n/a
228.8935	0.105	457787	keystroke_Key.space	Key.space	n/a
229.3285	0.105	458657	keystroke_a	a	n/a
229.4935	0.061	458987	keystroke_t	t	n/a
229.6285	0.075	459257	keystroke_t	t	n/a
229.8385	0.09	459677	keystroke_e	e	n/a
229.9885	0.105	459977	keystroke_m	m	n/a
230.1835	0.075	460367	keystroke_p	p	n/a
230.3185	0.075	460637	keystroke_t	t	n/a
230.4235	0.105	460847	keystroke_i	i	n/a
230.4685	0.105	460937	keystroke_n	n	n/a
230.5745	0.059	461149	keystroke_g	g	n/a
230.6785	0.09	461357	keystroke_Key.space	Key.space	n/a
230.9635	0.075	461927	keystroke_r	r	n/a
231.0535	0.09	462107	keystroke_i	i	n/a
231.2185	0.075	462437	keystroke_c	c	n/a
231.4585	0.091	462917	keystroke_a	a	n/a
231.6835	0.09	463367	keystroke_Key.enter	Key.enter	n/a
231.781	7.495	463562	prompt	n/a	tall quebec returns counsel\n
232.4185	0.06	464837	keystroke_t	t	n/a
232.5685	0.09	465137	keystroke_a	a	n/a
233.3035	0.015	466607	keystroke_l	l	n/a
233.3495	0.089	466699	keystroke_l	l	n/a
233.4685	0.075	466937	keystroke_Key.space	Key.space	n/a
233.8135	0.09	467627	keystroke_q	q	n/a
233.9335	0.09	467867	keystroke_u	u	n/a
234.1435	0.075	468287	keystroke_e	e	n/a
234.2785	0.06	468557	keystroke_b	b	n/a
234.6835	0.075	469367	keystroke_e	e	n/a
234.8035	0.105	469607	keystroke_c	c	n/a
234.8935	0.105	469787	keystroke_Key.space	Key.space	n/a
235.104	0.12	470208	keystroke_r	r	n/a
235.224	0.0905	470448	keystroke_e	e	n/a
235.433	0.076	470866	keystroke_t	t	n/a
235.793	0.06	471586	keystroke_u	u	n/a
235.929	0.06	471858	keystroke_r	r	n/a
236.019	0.075	472038	keystroke_n	n	n/a
236.109	0.09	472218	keystroke_s	s	n/a
236.214	0.09	472428	keystroke_Key.space	Key.space	n/a
236.7535	0.076	473507	keystroke_c	c	n/a
236.8135	0.09	473627	keystroke_o	o	n/a
237.3385	0.106	474677	keystroke_u	u	n/a
237.6085	0.105	475217	keystroke_n	n	n/a
237.8345	0.074	475669	keystroke_s	s	n/a
237.9995	0.089	475999	keystroke_e	e	n/a
238.824	0.105	477648	keystroke_l	l	n/a
239.154	0.1195	478308	keystroke_Key.enter	Key.enter	n/a
239.2805	6.416	478561	prompt	n/a	contrast might checks isbn\n
240.2935	0.09	480587	keystroke_c	c	n/a
240.3685	0.09	480737	keystroke_o	o	n/a
240.3985	0.12	480797	keystroke_n	n	n/a
240.5785	0.075	481157	keystroke_t	t	n/a
240.7285	0.09	481457	keystroke_r	r	n/a
240.8635	0.105	481727	keystroke_a	a	n/a
241.0585	0.105	482117	keystroke_s	s	n/a
241.2085	0.075	482417	keystroke_t	t	n/a
241.3135	0.105	482627	keystroke_Key.space	Key.space	n/a
241.5985	0.105	483197	keystroke_m	m	n/a
241.7635	0.075	483527	keystroke_i	i	n/a
241.8685	0.075	483737	keystroke_g	g	n/a
241.9585	0.075	483917	keystroke_h	h	n/a
242.0485	0.076	484097	keystroke_t	t	n/a
242.1385	0.091	484277	keystroke_Key.space	Key.space	n/a
242.3335	0.091	484667	keystroke_c	c	n/a
242.4395	0.075	484879	keystroke_h	h	n/a
242.5295	0.12	485059	keystroke_e	e	n/a
242.6345	0.089	485269	keystroke_c	c	n/a
242.7395	0.06	485479	keystroke_k	k	n/a
242.8445	0.09	485689	keystroke_s	s	n/a
242.979	0.09	485958	keystroke_Key.space	Key.space	n/a
243.234	0.105	486468	keystroke_i	i	n/a
243.369	0.075	486738	keystroke_s	s	n/a
243.459	0.09	486918	keystroke_b	b	n/a
244.119	0.075	488238	keystroke_b	b	n/a
244.854	0.09	489708	keystroke_Key.backspace	Key.backspace	n/a
245.124	0.09	490248	keystroke_n	n	n/a
245.604	0.09	491208	keystroke_Key.enter	Key.enter	n/a
245.7025	5.2285	491405	prompt	n/a	master greece quickly element\n
246.339	0.105	492678	keystroke_m	m	n/a
246.459	0.105	492918	keystroke_a	a	n/a
246.534	0.135	493068	keystroke_s	s	n/a
246.774	0.075	493548	keystroke_t	t	n/a
246.894	0.105	493788	keystroke_e	e	n/a
247.014	0.03	494028	keystroke_r	r	n/a
247.029	0.09	494058	keystroke_Key.space	Key.space	n/a
247.3285	0.06	494657	keystroke_g	g	n/a
247.4945	0.089	494989	keystroke_r	r	n/a
247.6135	0.09	495227	keystroke_e	e	n/a
247.7635	0.12	495527	keystroke_e	e	n/a
247.9435	0.106	495887	keystroke_c	c	n/a
248.0335	0.105	496067	keystroke_e	e	n/a
248.1685	0.09	496337	keystroke_Key.space	Key.space	n/a
248.4095	0.09	496819	keystroke_q	q	n/a
248.4835	0.076	496967	keystroke_u	u	n/a
248.6485	0.091	497297	keystroke_i	i	n/a
248.7685	0.12	497537	keystroke_c	c	n/a
248.8435	0.075	497687	keystroke_k	k	n/a
248.9645	0.09	497929	keystroke_l	l	n/a
249.0995	0.059	498199	keystroke_y	y	n/a
249.2185	0.09	498437	keystroke_Key.space	Key.space	n/a
249.3835	0.061	498767	keystroke_e	e	n/a
249.4285	0.09	498857	keystroke_l	l	n/a
249.5485	0.09	499097	keystroke_e	e	n/a
249.8195	0.104	499639	keystroke_m	m	n/a
250.3285	0.091	500657	keystroke_e	e	n/a
250.4195	0.074	500839	keystroke_n	n	n/a
250.5535	0.075	501107	keystroke_t	t	n/a
250.8085	0.121	501617	keystroke_Key.enter	Key.enter	n/a
250.9365	6.91	501873	prompt	n/a	carlos train thai imaging\n
251.4995	0.074	502999	keystroke_c	c	n/a
251.6045	0.044	503209	keystroke_h	h	n/a
252.0985	0.075	504197	keystroke_Key.backspace	Key.backspace	n/a
252.2785	0.091	504557	keystroke_a	a	n/a
252.3845	0.09	504769	keystroke_r	r	n/a
252.7435	0.075	505487	keystroke_l	l	n/a
252.9245	0.12	505849	keystroke_o	o	n/a
253.1645	0.075	506329	keystroke_s	s	n/a
253.2535	0.12	506507	keystroke_Key.space	Key.space	n/a
253.5845	0.045	507169	keystroke_t	t	n/a
253.7495	0.09	507499	keystroke_r	r	n/a
253.9285	0.091	507857	keystroke_a	a	n/a
254.0635	0.121	508127	keystroke_i	i	n/a
254.1385	0.105	508277	keystroke_n	n	n/a
254.2585	0.105	508517	keystroke_Key.space	Key.space	n/a
254.4835	0.046	508967	keystroke_t	t	n/a
254.5445	0.105	509089	keystroke_h	h	n/a
254.6645	0.09	509329	keystroke_a	a	n/a
254.7685	0.076	509537	keystroke_i	i	n/a
254.8885	0.121	509777	keystroke_Key.space	Key.space	n/a
256.0585	0.106	512117	keystroke_m	m	n/a
256.5535	0.075	513107	keystroke_Key.backspace	Key.backspace	n/a
256.7945	0.135	513589	keystroke_i	i	n/a
256.9885	0.121	513977	keystroke_m	m	n/a
257.1545	0.09	514309	keystroke_a	a	n/a
257.3185	0.09	514637	keystroke_g	g	n/a
257.4545	0.06	514909	keystroke_i	i	n/a
257.4685	0.091	514937	keystroke_n	n	n/a
257.5445	0.075	515089	keystroke_g	g	n/a
257.7535	0.09	515507	keystroke_Key.enter	Key.enter	n/a
257.8515	8.1245	515703	prompt	n/a	fool height pools huntington\n
258.684	0.0295	517368	keystroke_i	i	n/a
259.1335	0.075	518267	keystroke_Key.backspace	Key.backspace	n/a
259.5545	0.09	519109	keystroke_f	f	n/a
259.6595	0.09	519319	keystroke_o	o	n/a
259.7935	0.091	519587	keystroke_o	o	n/a
260.0495	0.075	520099	keystroke_l	l	n/a
260.3335	0.075	520667	keystroke_Key.space	Key.space	n/a
260.4385	0.136	520877	keystroke_h	h	n/a
260.7845	0.045	521569	keystroke_e	e	n/a
260.8595	0.075	521719	keystroke_i	i	n/a
260.9795	0.075	521959	keystroke_g	g	n/a
261.0695	0.075	522139	keystroke_h	h	n/a
261.1595	0.075	522319	keystroke_t	t	n/a
261.2795	0.059	522559	keystroke_Key.space	Key.space	n/a
261.7895	0.135	523579	keystroke_p	p	n/a
261.9395	0.06	523879	keystroke_o	o	n/a
262.0445	0.09	524089	keystroke_o	o	n/a
262.2695	0.09	524539	keystroke_l	l	n/a
262.5095	0.075	525019	keystroke_s	s	n/a
262.6135	0.061	525227	keystroke_Key.space	Key.space	n/a
262.8095	0.12	525619	keystroke_h	h	n/a
262.9745	0.12	525949	keystroke_u	u	n/a
263.1245	0.105	526249	keystroke_n	n	n/a
263.3345	0.12	526669	keystroke_i	i	n/a
263.5895	0.06	527179	keystroke_t	t	n/a
263.9495	0.075	527899	keystroke_Key.backspace	Key.backspace	n/a
264.1135	0.061	528227	keystroke_Key.backspace	Key.backspace	n/a
264.3095	0.06	528619	keystroke_t	t	n/a
264.5645	0.12	529129	keystroke_i	i	n/a
264.6545	0.105	529309	keystroke_n	n	n/a
264.7895	0.06	529579	keystroke_g	g	n/a
265.4645	0.06	530929	keystroke_t	t	n/a
265.5395	0.1045	531079	keystroke_o	o	n/a
265.614	0.075	531228	keystroke_n	n	n/a
265.899	0.075	531798	keystroke_Key.enter	Key.enter	n/a
265.9805	5.0365	531961	prompt	n/a	artists seminar rail pitch\n
266.559	0.09	533118	keystroke_a	a	n/a
266.754	0.075	533508	keystroke_r	r	n/a
266.919	0.075	533838	keystroke_t	t	n/a
267.039	0.12	534078	keystroke_i	i	n/a
267.129	0.105	534258	keystroke_s	s	n/a
267.249	0.105	534498	keystroke_t	t	n/a
267.429	0.105	534858	keystroke_s	s	n/a
267.564	0.105	535128	keystroke_Key.space	Key.space	n/a
267.939	0.06	535878	keystroke_s	s	n/a
268.104	0.0605	536208	keystroke_e	e	n/a
268.1945	0.09	536389	keystroke_m	m	n/a
268.3295	0.12	536659	keystroke_i	i	n/a
268.4045	0.105	536809	keystroke_n	n	n/a
268.5845	0.1195	537169	keystroke_a	a	n/a
268.689	0.09	537378	keystroke_r	r	n/a
268.794	0.09	537588	keystroke_Key.space	Key.space	n/a
269.229	0.09	538458	keystroke_r	r	n/a
269.379	0.105	538758	keystroke_a	a	n/a
269.469	0.105	538938	keystroke_i	i	n/a
269.529	0.09	539058	keystroke_l	l	n/a
269.754	0.06	539508	keystroke_Key.space	Key.space	n/a
269.964	0.105	539928	keystroke_p	p	n/a
270.1745	0.134	540349	keystroke_i	i	n/a
270.3235	0.031	540647	keystroke_t	t	n/a
270.5035	0.06	541007	keystroke_c	c	n/a
270.5935	0.09	541187	keystroke_h	h	n/a
270.9235	0.09	541847	keystroke_Key.enter	Key.enter	n/a
271.023	10.013	542046	prompt	n/a	valued municipality channels sink\n
271.7785	0.0755	543557	keystroke_v	v	n/a
272.049	0.0745	544098	keystroke_a	a	n/a
272.349	0.12	544698	keystroke_l	l	n/a
272.424	0.105	544848	keystroke_u	u	n/a
273.189	0.135	546378	keystroke_e	e	n/a
273.294	0.105	546588	keystroke_d	d	n/a
273.504	0.105	547008	keystroke_Key.space	Key.space	n/a
273.999	0.105	547998	keystroke_m	m	n/a
274.254	0.105	548508	keystroke_u	u	n/a
274.345	0.074	548690	keystroke_n	n	n/a
274.614	0.09	549228	keystroke_c	c	n/a
275.2585	0.09	550517	keystroke_Key.backspace	Key.backspace	n/a
275.9195	0.09	551839	keystroke_i	i	n/a
276.1145	0.09	552229	keystroke_c	c	n/a
276.2345	0.149	552469	keystroke_i	i	n/a
276.3535	0.106	552707	keystroke_p	p	n/a
276.9085	0.09	553817	keystroke_a	a	n/a
277.0595	0.135	554119	keystroke_l	l	n/a
277.1485	0.106	554297	keystroke_i	i	n/a
277.314	0.0895	554628	keystroke_t	t	n/a
277.389	0.0905	554778	keystroke_y	y	n/a
277.6435	0.09	555287	keystroke_Key.space	Key.space	n/a
278.1535	0.076	556307	keystroke_c	c	n/a
278.2135	0.106	556427	keystroke_h	h	n/a
278.3645	0.09	556729	keystroke_a	a	n/a
278.4395	0.075	556879	keystroke_n	n	n/a
278.5745	0.074	557149	keystroke_n	n	n/a
278.859	0.075	557718	keystroke_e	e	n/a
278.979	0.075	557958	keystroke_l	l	n/a
279.069	0.105	558138	keystroke_s	s	n/a
279.219	0.09	558438	keystroke_Key.space	Key.space	n/a
279.414	0.075	558828	keystroke_s	s	n/a
279.549	0.06	559098	keystroke_i	i	n/a
279.579	0.12	559158	keystroke_n	n	n/a
280.254	0.12	560508	keystroke_k	k	n/a
280.944	0.09	561888	keystroke_Key.enter	Key.enter	n/a
281.042	7.869	562084	prompt	n/a	ohio bargains acid quizzes\n
281.739	0.09	563478	keystroke_o	o	n/a
282.069	0.06	564138	keystroke_h	h	n/a
282.159	0.09	564318	keystroke_i	i	n/a
282.219	0.09	564438	keystroke_o	o	n/a
282.624	0.09	565248	keystroke_Key.space	Key.space	n/a
283.104	0.105	566208	keystroke_b	b	n/a
283.194	0.09	566388	keystroke_a	a	n/a
283.299	0.09	566598	keystroke_r	r	n/a
283.509	0.06	567018	keystroke_g	g	n/a
283.704	0.105	567408	keystroke_a	a	n/a
283.824	0.075	567648	keystroke_i	i	n/a
283.839	0.09	567678	keystroke_n	n	n/a
284.064	0.09	568128	keystroke_s	s	n/a
284.199	0.09	568398	keystroke_Key.space	Key.space	n/a
284.484	0.09	568968	keystroke_a	a	n/a
284.68	0.059	569360	keystroke_c	c	n/a
284.8	0.089	569600	keystroke_i	i	n/a
284.904	0.09	569808	keystroke_d	d	n/a
285.009	0.09	570018	keystroke_Key.space	Key.space	n/a
285.414	0.09	570828	keystroke_q	q	n/a
285.519	0.09	571038	keystroke_u	u	n/a
285.789	0.075	571578	keystroke_i	i	n/a
285.939	0.09	571878	keystroke_i	i	n/a
285.97	0.119	571940	keystroke_z	z	n/a
286.239	0.105	572478	keystroke_e	e	n/a
287.304	0.045	574608	keystroke_Key.backspace	Key.backspace	n/a
287.619	0.075	575238	keystroke_Key.backspace	Key.backspace	n/a
287.934	0.045	575868	keystroke_Key.backspace	Key.backspace	n/a
288.114	0.105	576228	keystroke_z	z	n/a
288.294	0.09	576588	keystroke_z	z	n/a
288.519	0.06	577038	keystroke_e	e	n/a
288.684	0.09	577368	keystroke_s	s	n/a
288.819	0.09	577638	keystroke_Key.enter	Key.enter	n/a
288.9155	9.926	577831	prompt	n/a	publishers sole animated homeland\n
289.944	0.12	579888	keystroke_o	o	n/a
290.199	0.09	580398	keystroke_b	b	n/a
290.409	0.12	580818	keystroke_l	l	n/a
290.424	0.12	580848	keystroke_i	i	n/a
291.039	0.075	582078	keystroke_Key.backspace	Key.backspace	n/a
291.279	0.015	582558	keystroke_Key.backspace	Key.backspace	n/a
291.369	0.06	582738	keystroke_Key.backspace	Key.backspace	n/a
291.804	0.075	583608	keystroke_Key.backspace	Key.backspace	n/a
292.765	0.074	585530	keystroke_p	p	n/a
293.034	0.075	586068	keystroke_u	u	n/a
293.214	0.075	586428	keystroke_b	b	n/a
293.304	0.075	586608	keystroke_l	l	n/a
293.319	0.105	586638	keystroke_i	i	n/a
293.455	0.09	586910	keystroke_s	s	n/a
293.545	0.089	587090	keystroke_h	h	n/a
294.2045	0.09	588409	keystroke_e	e	n/a
294.2795	0.09	588559	keystroke_r	r	n/a
294.3845	0.09	588769	keystroke_s	s	n/a
294.5195	0.045	589039	keystroke_Key.space	Key.space	n/a
294.6245	0.09	589249	keystroke_s	s	n/a
294.7295	0.075	589459	keystroke_o	o	n/a
294.9095	0.09	589819	keystroke_l	l	n/a
295.0445	0.09	590089	keystroke_e	e	n/a
295.1495	0.09	590299	keystroke_Key.space	Key.space	n/a
295.2845	0.105	590569	keystroke_a	a	n/a
295.4045	0.105	590809	keystroke_n	n	n/a
296.14	0.0895	592280	keystroke_i	i	n/a
296.1845	0.105	592369	keystroke_m	m	n/a
296.3045	0.09	592609	keystroke_a	a	n/a
296.4395	0.075	592879	keystroke_t	t	n/a
296.7845	0.12	593569	keystroke_e	e	n/a
296.8745	0.105	593749	keystroke_d	d	n/a
296.9945	0.09	593989	keystroke_Key.space	Key.space	n/a
297.3395	0.105	594679	keystroke_h	h	n/a
297.4745	0.135	594949	keystroke_o	o	n/a
297.5495	0.105	595099	keystroke_m	m	n/a
297.6545	0.06	595309	keystroke_e	e	n/a
297.9245	0.06	595849	keystroke_l	l	n/a
298.195	0.105	596390	keystroke_a	a	n/a
298.39	0.089	596780	keystroke_n	n	n/a
298.495	0.105	596990	keystroke_d	d	n/a
298.734	0.1045	597468	keystroke_Key.enter	Key.enter	n/a
298.846	6.7005	597692	prompt	n/a	years obtaining licence hello\n
299.5895	0.1045	599179	keystroke_y	y	n/a
299.664	0.045	599328	keystroke_e	e	n/a
299.814	0.09	599628	keystroke_a	a	n/a
299.919	0.075	599838	keystroke_r	r	n/a
300.084	0.09	600168	keystroke_s	s	n/a
300.204	0.075	600408	keystroke_Key.space	Key.space	n/a
300.519	0.09	601038	keystroke_o	o	n/a
300.759	0.045	601518	keystroke_b	b	n/a
300.954	0.09	601908	keystroke_a	a	n/a
301.104	0.06	602208	keystroke_t	t	n/a
301.674	0.06	603348	keystroke_Key.backspace	Key.backspace	n/a
301.809	0.075	603618	keystroke_Key.backspace	Key.backspace	n/a
301.899	0.075	603798	keystroke_t	t	n/a
302.019	0.09	604038	keystroke_a	a	n/a
302.094	0.12	604188	keystroke_i	i	n/a
302.184	0.09	604368	keystroke_n	n	n/a
302.769	0.105	605538	keystroke_i	i	n/a
302.829	0.105	605658	keystroke_n	n	n/a
302.979	0.03	605958	keystroke_g	g	n/a
303.039	0.09	606078	keystroke_Key.space	Key.space	n/a
303.309	0.105	606618	keystroke_l	l	n/a
303.34	0.119	606680	keystroke_i	i	n/a
303.444	0.075	606888	keystroke_c	c	n/a
303.549	0.105	607098	keystroke_e	e	n/a
303.789	0.09	607578	keystroke_n	n	n/a
303.894	0.075	607788	keystroke_s	s	n/a
304.059	0.075	608118	keystroke_e	e	n/a
304.149	0.0745	608298	keystroke_Key.space	Key.space	n/a
304.4335	0.091	608867	keystroke_h	h	n/a
304.5095	0.09	609019	keystroke_e	e	n/a
304.6135	0.076	609227	keystroke_l	l	n/a
304.7185	0.106	609437	keystroke_l	l	n/a
305.1385	0.09	610277	keystroke_o	o	n/a
305.4685	0.075	610937	keystroke_Key.enter	Key.enter	n/a
305.5535	6.4575	611107	prompt	n/a	field belief nearby robots\n
306.3995	0.06	612799	keystroke_f	f	n/a
306.4595	0.089	612919	keystroke_i	i	n/a
306.5945	0.09	613189	keystroke_e	e	n/a
306.6985	0.09	613397	keystroke_l	l	n/a
306.8335	0.075	613667	keystroke_d	d	n/a
306.984	0.09	613968	keystroke_Key.space	Key.space	n/a
307.659	0.09	615318	keystroke_b	b	n/a
308.094	0.105	616188	keystroke_e	e	n/a
308.304	0.09	616608	keystroke_l	l	n/a
308.349	0.09	616698	keystroke_i	i	n/a
308.454	0.12	616908	keystroke_e	e	n/a
308.604	0.09	617208	keystroke_f	f	n/a
309.024	0.09	618048	keystroke_Key.space	Key.space	n/a
309.234	0.09	618468	keystroke_n	n	n/a
309.339	0.06	618678	keystroke_e	e	n/a
309.504	0.075	619008	keystroke_a	a	n/a
309.594	0.076	619188	keystroke_r	r	n/a
309.699	0.09	619398	keystroke_b	b	n/a
309.834	0.06	619668	keystroke_y	y	n/a
309.984	0.06	619968	keystroke_Key.space	Key.space	n/a
310.224	0.06	620448	keystroke_r	r	n/a
310.299	0.075	620598	keystroke_o	o	n/a
310.539	0.105	621078	keystroke_o	o	n/a
311.094	0.075	622188	keystroke_Key.backspace	Key.backspace	n/a
311.184	0.105	622368	keystroke_b	b	n/a
311.319	0.135	622638	keystroke_o	o	n/a
311.469	0.06	622938	keystroke_t	t	n/a
311.784	0.091	623568	keystroke_s	s	n/a
311.934	0.075	623868	keystroke_Key.enter	Key.enter	n/a
312.016	9.1755	624032	prompt	n/a	kitchen officially awareness pick\n
312.789	0.09	625578	keystroke_k	k	n/a
312.954	0.09	625908	keystroke_i	i	n/a
313.074	0.045	626148	keystroke_t	t	n/a
313.239	0.105	626478	keystroke_c	c	n/a
313.329	0.061	626658	keystroke_h	h	n/a
313.419	0.09	626838	keystroke_e	e	n/a
313.51	0.089	627020	keystroke_n	n	n/a
313.674	0.121	627348	keystroke_Key.space	Key.space	n/a
313.899	0.075	627798	keystroke_o	o	n/a
314.229	0.06	628458	keystroke_f	f	n/a
314.379	0.075	628758	keystroke_f	f	n/a
314.514	0.09	629028	keystroke_i	i	n/a
314.634	0.09	629268	keystroke_c	c	n/a
314.754	0.09	629508	keystroke_i	i	n/a
314.874	0.12	629748	keystroke_a	a	n/a
315.639	0.075	631278	keystroke_l	l	n/a
315.789	0.09	631578	keystroke_l	l	n/a
315.969	0.075	631938	keystroke_y	y	n/a
316.119	0.09	632238	keystroke_Key.space	Key.space	n/a
316.404	0.09	632808	keystroke_a	a	n/a
316.599	0.09	633198	keystroke_w	w	n/a
317.109	0.09	634218	keystroke_a	a	n/a
317.259	0.09	634518	keystroke_r	r	n/a
317.334	0.075	634668	keystroke_e	e	n/a
317.559	0.105	635118	keystroke_n	n	n/a
317.649	0.06	635298	keystroke_e	e	n/a
317.8	0.074	635600	keystroke_s	s	n/a
317.949	0.06	635898	keystroke_s	s	n/a
318.369	0.09	636738	keystroke_Key.space	Key.space	n/a
318.579	0.165	637158	keystroke_o	o	n/a
318.669	0.135	637338	keystroke_i	i	n/a
318.805	0.089	637610	keystroke_c	c	n/a
319.5995	0.06	639199	keystroke_Key.backspace	Key.backspace	n/a
319.7645	0.075	639529	keystroke_Key.backspace	Key.backspace	n/a
320.1245	0.09	640249	keystroke_Key.backspace	Key.backspace	n/a
320.6345	0.135	641269	keystroke_p	p	n/a
320.7395	0.075	641479	keystroke_i	i	n/a
320.8445	0.105	641689	keystroke_c	c	n/a
320.9345	0.09	641869	keystroke_k	k	n/a
321.1145	0.075	642229	keystroke_Key.enter	Key.enter	n/a
321.1965	7.5395	642393	prompt	n/a	outdoor astrology approximate turkish\n
321.9245	0.12	643849	keystroke_o	o	n/a
322.1645	0.045	644329	keystroke_t	t	n/a
322.6145	0.075	645229	keystroke_Key.backspace	Key.backspace	n/a
322.7645	0.105	645529	keystroke_u	u	n/a
322.8995	0.06	645799	keystroke_t	t	n/a
323.2295	0.075	646459	keystroke_d	d	n/a
323.2895	0.075	646579	keystroke_o	o	n/a
323.4245	0.075	646849	keystroke_o	o	n/a
323.5145	0.075	647029	keystroke_r	r	n/a
323.6495	0.09	647299	keystroke_Key.space	Key.space	n/a
323.8445	0.075	647689	keystroke_a	a	n/a
324.0245	0.09	648049	keystroke_s	s	n/a
324.219	0.06	648438	keystroke_t	t	n/a
324.369	0.075	648738	keystroke_r	r	n/a
324.459	0.06	648918	keystroke_o	o	n/a
324.609	0.06	649218	keystroke_l	l	n/a
324.744	0.105	649488	keystroke_o	o	n/a
324.879	0.075	649758	keystroke_g	g	n/a
324.969	0.09	649938	keystroke_y	y	n/a
325.089	0.105	650178	keystroke_Key.space	Key.space	n/a
325.419	0.075	650838	keystroke_a	a	n/a
325.509	0.045	651018	keystroke_p	p	n/a
325.659	0.09	651318	keystroke_p	p	n/a
326.109	0.0455	652218	keystroke_r	r	n/a
326.1995	0.09	652399	keystroke_o	o	n/a
326.3795	0.045	652759	keystroke_x	x	n/a
326.6045	0.105	653209	keystroke_i	i	n/a
326.7245	0.105	653449	keystroke_m	m	n/a
326.8445	0.09	653689	keystroke_a	a	n/a
326.9945	0.06	653989	keystroke_t	t	n/a
327.1295	0.09	654259	keystroke_e	e	n/a
327.2345	0.09	654469	keystroke_Key.space	Key.space	n/a
327.5795	0.075	655159	keystroke_t	t	n/a
327.6845	0.105	655369	keystroke_u	u	n/a
327.8045	0.075	655609	keystroke_r	r	n/a
327.9095	0.09	655819	keystroke_k	k	n/a
328.269	0.105	656538	keystroke_i	i	n/a
328.359	0.09	656718	keystroke_s	s	n/a
328.464	0.075	656928	keystroke_h	h	n/a
328.659	0.075	657318	keystroke_Key.enter	Key.enter	n/a
328.74	5.561	657480	prompt	n/a	spider natural looks text\n
329.2445	0.075	658489	keystroke_s	s	n/a
329.3795	0.1505	658759	keystroke_o	o	n/a
329.889	0.1045	659778	keystroke_Key.backspace	Key.backspace	n/a
330.4145	0.075	660829	keystroke_p	p	n/a
330.5795	0.09	661159	keystroke_i	i	n/a
330.6545	0.06	661309	keystroke_d	d	n/a
330.7595	0.105	661519	keystroke_e	e	n/a
330.8195	0.075	661639	keystroke_r	r	n/a
330.9095	0.0745	661819	keystroke_Key.space	Key.space	n/a
331.434	0.091	662868	keystroke_n	n	n/a
331.554	0.091	663108	keystroke_a	a	n/a
331.704	0.061	663408	keystroke_t	t	n/a
331.8095	0.09	663619	keystroke_u	u	n/a
331.9145	0.09	663829	keystroke_r	r	n/a
332.1395	0.09	664279	keystroke_a	a	n/a
332.2745	0.09	664549	keystroke_l	l	n/a
332.4545	0.105	664909	keystroke_Key.space	Key.space	n/a
332.5895	0.06	665179	keystroke_l	l	n/a
332.7695	0.06	665539	keystroke_o	o	n/a
332.9045	0.135	665809	keystroke_o	o	n/a
332.9795	0.09	665959	keystroke_k	k	n/a
333.0995	0.075	666199	keystroke_s	s	n/a
333.4595	0.075	666919	keystroke_Key.space	Key.space	n/a
333.5645	0.12	667129	keystroke_t	t	n/a
333.6695	0.12	667339	keystroke_e	e	n/a
333.9095	0.075	667819	keystroke_x	x	n/a
334.0445	0.06	668089	keystroke_t	t	n/a
334.2245	0.075	668449	keystroke_Key.enter	Key.enter	n/a
334.306	8.7105	668612	prompt	n/a	carlos transferred raise replied\n
334.9595	0.075	669919	keystroke_c	c	n/a
335.0945	0.105	670189	keystroke_a	a	n/a
335.2145	0.06	670429	keystroke_r	r	n/a
335.2595	0.075	670519	keystroke_l	l	n/a
335.4095	0.09	670819	keystroke_o	o	n/a
335.5295	0.075	671059	keystroke_s	s	n/a
335.6345	0.09	671269	keystroke_Key.space	Key.space	n/a
336.0245	0.045	672049	keystroke_t	t	n/a
336.1595	0.09	672319	keystroke_r	r	n/a
336.3095	0.09	672619	keystroke_a	a	n/a
336.4895	0.09	672979	keystroke_n	n	n/a
336.6995	0.105	673399	keystroke_s	s	n/a
336.8645	0.075	673729	keystroke_f	f	n/a
336.9995	0.105	673999	keystroke_e	e	n/a
337.284	0.09	674568	keystroke_r	r	n/a
337.449	0.075	674898	keystroke_r	r	n/a
337.569	0.105	675138	keystroke_e	e	n/a
337.645	0.089	675290	keystroke_d	d	n/a
337.764	0.09	675528	keystroke_Key.space	Key.space	n/a
337.989	0.075	675978	keystroke_a	a	n/a
338.529	0.075	677058	keystroke_Key.backspace	Key.backspace	n/a
338.649	0.075	677298	keystroke_r	r	n/a
338.784	0.09	677568	keystroke_a	a	n/a
338.889	0.09	677778	keystroke_i	i	n/a
338.994	0.06	677988	keystroke_s	s	n/a
339.159	0.075	678318	keystroke_e	e	n/a
339.249	0.105	678498	keystroke_Key.space	Key.space	n/a
339.445	0.074	678890	keystroke_a	a	n/a
339.909	0.075	679818	keystroke_Key.backspace	Key.backspace	n/a
340.029	0.09	680058	keystroke_r	r	n/a
340.089	0.075	680178	keystroke_e	e	n/a
340.404	0.105	680808	keystroke_o	o	n/a
340.434	0.09	680868	keystroke_k	k	n/a
340.629	0.09	681258	keystroke_i	i	n/a
341.079	0.075	682158	keystroke_Key.backspace	Key.backspace	n/a
341.364	0.06	682728	keystroke_Key.backspace	Key.backspace	n/a
341.574	0.06	683148	keystroke_Key.backspace	Key.backspace	n/a
342.174	0.12	684348	keystroke_p	p	n/a
342.264	0.09	684528	keystroke_l	l	n/a
342.444	0.09	684888	keystroke_i	i	n/a
342.549	0.09	685098	keystroke_e	e	n/a
342.609	0.09	685218	keystroke_d	d	n/a
342.939	0.075	685878	keystroke_Key.enter	Key.enter	n/a
343.021	7.1205	686042	prompt	n/a	cosmetic gather mounting dial\n
343.9595	0.09	687919	keystroke_c	c	n/a
344.0645	0.105	688129	keystroke_o	o	n/a
344.1845	0.045	688369	keystroke_s	s	n/a
344.5145	0.09	689029	keystroke_e	e	n/a
344.5895	0.09	689179	keystroke_m	m	n/a
344.8445	0.075	689689	keystroke_e	e	n/a
344.9645	0.09	689929	keystroke_t	t	n/a
345.0695	0.075	690139	keystroke_i	i	n/a
345.2345	0.075	690469	keystroke_c	c	n/a
345.2945	0.105	690589	keystroke_Key.space	Key.space	n/a
345.5495	0.06	691099	keystroke_g	g	n/a
345.6845	0.09	691369	keystroke_a	a	n/a
345.8195	0.09	691639	keystroke_t	t	n/a
346.1045	0.09	692209	keystroke_h	h	n/a
346.2695	0.105	692539	keystroke_e	e	n/a
346.3595	0.075	692719	keystroke_r	r	n/a
346.4945	0.075	692989	keystroke_Key.space	Key.space	n/a
347.0795	0.12	694159	keystroke_m	m	n/a
347.3045	0.12	694609	keystroke_o	o	n/a
347.3645	0.09	694729	keystroke_u	u	n/a
347.7995	0.06	695599	keystroke_t	t	n/a
348.0845	0.09	696169	keystroke_Key.backspace	Key.backspace	n/a
348.3095	0.09	696619	keystroke_n	n	n/a
348.4145	0.09	696829	keystroke_t	t	n/a
348.5195	0.135	697039	keystroke_i	i	n/a
348.5945	0.12	697189	keystroke_n	n	n/a
348.7295	0.075	697459	keystroke_g	g	n/a
348.8345	0.09	697669	keystroke_Key.space	Key.space	n/a
349.1795	0.09	698359	keystroke_d	d	n/a
349.3745	0.105	698749	keystroke_i	i	n/a
349.5545	0.09	699109	keystroke_a	a	n/a
349.7045	0.075	699409	keystroke_l	l	n/a
350.0345	0.105	700069	keystroke_Key.enter	Key.enter	n/a
350.146	11.0505	700292	prompt	n/a	draft engineer backed particle\n
351.865	0.135	703730	keystroke_d	d	n/a
352.12	0.075	704240	keystroke_r	r	n/a
352.329	0.075	704658	keystroke_a	a	n/a
352.54	0.075	705080	keystroke_f	f	n/a
352.72	0.075	705440	keystroke_t	t	n/a
352.809	0.106	705618	keystroke_Key.space	Key.space	n/a
353.47	0.09	706940	keystroke_e	e	n/a
353.605	0.09	707210	keystroke_n	n	n/a
353.725	0.075	707450	keystroke_g	g	n/a
353.845	0.135	707690	keystroke_i	i	n/a
353.934	0.106	707868	keystroke_n	n	n/a
354.009	0.091	708018	keystroke_e	e	n/a
354.3995	0.09	708799	keystroke_e	e	n/a
354.5345	0.09	709069	keystroke_r	r	n/a
354.64	0.1045	709280	keystroke_Key.space	Key.space	n/a
355.0595	0.105	710119	keystroke_b	b	n/a
355.1195	0.09	710239	keystroke_a	a	n/a
355.2845	0.09	710569	keystroke_c	c	n/a
355.3595	0.075	710719	keystroke_k	k	n/a
355.4495	0.105	710899	keystroke_Key.space	Key.space	n/a
356.1095	0.075	712219	keystroke_Key.backspace	Key.backspace	n/a
356.4095	0.075	712819	keystroke_e	e	n/a
356.6945	0.075	713389	keystroke_d	d	n/a
356.8745	0.105	713749	keystroke_Key.space	Key.space	n/a
357.5045	0.06	715009	keystroke_p	p	n/a
357.5795	0.075	715159	keystroke_a	a	n/a
357.7445	0.06	715489	keystroke_t	t	n/a
357.9245	0.09	715849	keystroke_r	r	n/a
358.479	0.075	716958	keystroke_Key.backspace	Key.backspace	n/a
358.734	0.045	717468	keystroke_Key.backspace	Key.backspace	n/a
358.93	0.09	717860	keystroke_r	r	n/a
359.319	0.076	718638	keystroke_t	t	n/a
359.454	0.091	718908	keystroke_i	i	n/a
359.604	0.09	719208	keystroke_c	c	n/a
359.815	0.059	719630	keystroke_a	a	n/a
360.2795	0.075	720559	keystroke_Key.backspace	Key.backspace	n/a
360.7745	0.0905	721549	keystroke_l	l	n/a
360.8945	0.0755	721789	keystroke_e	e	n/a
361.1045	0.09	722209	keystroke_Key.enter	Key.enter	n/a
361.2055	8.3615	722411	prompt	n/a	friends formula illustration nursery\n
361.8395	0.075	723679	keystroke_f	f	n/a
362.0045	0.075	724009	keystroke_r	r	n/a
362.1095	0.0905	724219	keystroke_i	i	n/a
362.245	0.075	724490	keystroke_e	e	n/a
362.395	0.09	724790	keystroke_n	n	n/a
362.515	0.09	725030	keystroke_d	d	n/a
362.59	0.075	725180	keystroke_s	s	n/a
362.695	0.075	725390	keystroke_Key.space	Key.space	n/a
363.025	0.06	726050	keystroke_f	f	n/a
363.22	0.06	726440	keystroke_i	i	n/a
363.55	0.09	727100	keystroke_Key.backspace	Key.backspace	n/a
363.715	0.105	727430	keystroke_o	o	n/a
364.105	0.0895	728210	keystroke_r	r	n/a
364.2095	0.09	728419	keystroke_m	m	n/a
364.4045	0.075	728809	keystroke_u	u	n/a
364.5245	0.09	729049	keystroke_l	l	n/a
364.6745	0.09	729349	keystroke_a	a	n/a
364.8245	0.09	729649	keystroke_Key.space	Key.space	n/a
365.4095	0.075	730819	keystroke_i	i	n/a
365.5895	0.06	731179	keystroke_l	l	n/a
365.7405	0.074	731481	keystroke_l	l	n/a
365.8445	0.105	731689	keystroke_u	u	n/a
365.9795	0.09	731959	keystroke_s	s	n/a
366.0845	0.075	732169	keystroke_t	t	n/a
366.2495	0.09	732499	keystroke_r	r	n/a
366.3995	0.09	732799	keystroke_a	a	n/a
366.5345	0.075	733069	keystroke_t	t	n/a
366.6245	0.075	733249	keystroke_i	i	n/a
366.7145	0.165	733429	keystroke_o	o	n/a
366.8495	0.091	733699	keystroke_n	n	n/a
366.9695	0.105	733939	keystroke_Key.space	Key.space	n/a
367.1195	0.075	734239	keystroke_n	n	n/a
367.3295	0.09	734659	keystroke_u	u	n/a
367.6745	0.09	735349	keystroke_r	r	n/a
367.8095	0.075	735619	keystroke_s	s	n/a
367.9895	0.06	735979	keystroke_e	e	n/a
368.0655	0.074	736131	keystroke_y	y	n/a
368.1695	0.076	736339	keystroke_r	r	n/a
368.7845	0.06	737569	keystroke_Key.backspace	Key.backspace	n/a
368.9195	0.06	737839	keystroke_Key.backspace	Key.backspace	n/a
369.1005	0.089	738201	keystroke_r	r	n/a
369.1745	0.105	738349	keystroke_y	y	n/a
369.4895	0.075	738979	keystroke_Key.enter	Key.enter	n/a
369.5715	6.7155	739143	prompt	n/a	listing manor force francisco\n
370.2095	0.15	740419	keystroke_l	l	n/a
370.3145	0.09	740629	keystroke_i	i	n/a
370.4055	0.09	740811	keystroke_s	s	n/a
370.5095	0.075	741019	keystroke_t	t	n/a
370.5995	0.105	741199	keystroke_i	i	n/a
370.6595	0.06	741319	keystroke_n	n	n/a
370.7345	0.075	741469	keystroke_g	g	n/a
370.8245	0.09	741649	keystroke_Key.space	Key.space	n/a
371.0655	0.09	742131	keystroke_m	m	n/a
371.2745	0.015	742549	keystroke_e	e	n/a
371.6345	0.09	743269	keystroke_Key.backspace	Key.backspace	n/a
371.8595	0.075	743719	keystroke_a	a	n/a
371.9195	0.09	743839	keystroke_n	n	n/a
372.0405	0.075	744081	keystroke_o	o	n/a
372.1155	0.104	744231	keystroke_r	r	n/a
372.2345	0.09	744469	keystroke_Key.space	Key.space	n/a
372.5945	0.12	745189	keystroke_f	f	n/a
372.7745	0.075	745549	keystroke_o	o	n/a
372.8355	0.03	745671	keystroke_r	r	n/a
373.0145	0.09	746029	keystroke_c	c	n/a
373.1195	0.075	746239	keystroke_e	e	n/a
373.1795	0.09	746359	keystroke_Key.space	Key.space	n/a
373.3445	0.106	746689	keystroke_f	f	n/a
373.5245	0.075	747049	keystroke_r	r	n/a
373.6605	0.075	747321	keystroke_a	a	n/a
373.7195	0.105	747439	keystroke_n	n	n/a
374.0345	0.046	748069	keystroke_s	s	n/a
374.3345	0.09	748669	keystroke_Key.backspace	Key.backspace	n/a
374.4995	0.061	748999	keystroke_c	c	n/a
374.7995	0.091	749599	keystroke_i	i	n/a
375.0405	0.09	750081	keystroke_s	s	n/a
375.3695	0.076	750739	keystroke_o	o	n/a
375.7295	0.075	751459	keystroke_Key.backspace	Key.backspace	n/a
375.9245	0.105	751849	keystroke_c	c	n/a
376.0145	0.105	752029	keystroke_o	o	n/a
376.2245	0.06	752449	keystroke_Key.enter	Key.enter	n/a
376.2925	8.274	752585	prompt	n/a	stayed proprietary ability jason\n
376.96	0.045	753920	keystroke_s	s	n/a
377.035	0.105	754070	keystroke_t	t	n/a
377.23	0.075	754460	keystroke_a	a	n/a
377.29	0.09	754580	keystroke_y	y	n/a
377.425	0.105	754850	keystroke_e	e	n/a
377.5	0.12	755000	keystroke_d	d	n/a
377.575	0.09	755150	keystroke_Key.space	Key.space	n/a
377.98	0.09	755960	keystroke_p	p	n/a
378.085	0.09	756170	keystroke_r	r	n/a
378.19	0.09	756380	keystroke_o	o	n/a
378.325	0.06	756650	keystroke_p	p	n/a
378.8805	0.119	757761	keystroke_r	r	n/a
378.9855	0.074	757971	keystroke_e	e	n/a
379.0745	0.105	758149	keystroke_i	i	n/a
379.6445	0.09	759289	keystroke_Key.backspace	Key.backspace	n/a
379.7795	0.075	759559	keystroke_Key.backspace	Key.backspace	n/a
380.0205	0.09	760041	keystroke_i	i	n/a
380.4245	0.105	760849	keystroke_e	e	n/a
380.5895	0.105	761179	keystroke_t	t	n/a
380.9795	0.075	761959	keystroke_y	y	n/a
381.2495	0.09	762499	keystroke_Key.backspace	Key.backspace	n/a
381.5205	0.089	763041	keystroke_a	a	n/a
381.5945	0.105	763189	keystroke_r	r	n/a
381.6695	0.09	763339	keystroke_y	y	n/a
381.9245	0.12	763849	keystroke_Key.space	Key.space	n/a
382.345	0.075	764690	keystroke_a	a	n/a
382.6	0.09	765200	keystroke_b	b	n/a
382.691	0.089	765382	keystroke_i	i	n/a
382.78	0.12	765560	keystroke_l	l	n/a
382.84	0.105	765680	keystroke_i	i	n/a
382.99	0.06	765980	keystroke_t	t	n/a
383.08	0.075	766160	keystroke_y	y	n/a
383.395	0.105	766790	keystroke_Key.space	Key.space	n/a
383.7695	0.105	767539	keystroke_j	j	n/a
383.8755	0.104	767751	keystroke_a	a	n/a
383.9345	0.12	767869	keystroke_s	s	n/a
384.0695	0.075	768139	keystroke_o	o	n/a
384.1295	0.06	768259	keystroke_n	n	n/a
384.5045	0.06	769009	keystroke_Key.enter	Key.enter	n/a
384.571	8.621	769142	prompt	n/a	karaoke sensors hopes solve\n
385.2995	0.12	770599	keystroke_k	k	n/a
385.4345	0.06	770869	keystroke_a	a	n/a
385.5095	0.075	771019	keystroke_r	r	n/a
386.545	0.09	773090	keystroke_a	a	n/a
386.755	0.135	773510	keystroke_o	o	n/a
386.905	0.075	773810	keystroke_i	i	n/a
387.415	0.09	774830	keystroke_Key.backspace	Key.backspace	n/a
387.625	0.09	775250	keystroke_j	j	n/a
387.775	0.06	775550	keystroke_e	e	n/a
387.91	0.075	775820	keystroke_Key.space	Key.space	n/a
388.3155	0.075	776631	keystroke_s	s	n/a
388.4655	0.075	776931	keystroke_e	e	n/a
388.5545	0.091	777109	keystroke_n	n	n/a
388.6595	0.06	777319	keystroke_s	s	n/a
389.11	0.045	778220	keystroke_e	e	n/a
389.8	0.045	779600	keystroke_Key.backspace	Key.backspace	n/a
390.085	0.09	780170	keystroke_o	o	n/a
390.22	0.0905	780440	keystroke_r	r	n/a
390.3245	0.091	780649	keystroke_s	s	n/a
390.46	0.0895	780920	keystroke_Key.space	Key.space	n/a
390.9705	0.09	781941	keystroke_h	h	n/a
391.2555	0.12	782511	keystroke_o	o	n/a
391.3305	0.09	782661	keystroke_p	p	n/a
391.4495	0.046	782899	keystroke_e	e	n/a
391.6155	0.075	783231	keystroke_s	s	n/a
391.6745	0.091	783349	keystroke_Key.space	Key.space	n/a
391.8405	0.075	783681	keystroke_s	s	n/a
392.1705	0.105	784341	keystroke_o	o	n/a
392.3955	0.015	784791	keystroke_l	l	n/a
392.4255	0.075	784851	keystroke_v	v	n/a
392.5905	0.075	785181	keystroke_e	e	n/a
393.1005	0.09	786201	keystroke_Key.enter	Key.enter	n/a
393.197	10.481	786394	prompt	n/a	interactions medicine organizer who'll\n
393.8655	0.135	787731	keystroke_i	i	n/a
393.9405	0.09	787881	keystroke_n	n	n/a
394.0155	0.06	788031	keystroke_t	t	n/a
394.0905	0.105	788181	keystroke_e	e	n/a
394.1655	0.09	788331	keystroke_r	r	n/a
394.3305	0.075	788661	keystroke_a	a	n/a
394.4805	0.105	788961	keystroke_c	c	n/a
394.6755	0.06	789351	keystroke_t	t	n/a
394.7505	0.075	789501	keystroke_i	i	n/a
394.8405	0.105	789681	keystroke_o	o	n/a
394.9155	0.105	789831	keystroke_n	n	n/a
395.0055	0.09	790011	keystroke_s	s	n/a
395.1105	0.089	790221	keystroke_Key.space	Key.space	n/a
395.2455	0.104	790491	keystroke_m	m	n/a
395.3655	0.105	790731	keystroke_e	e	n/a
395.4555	0.075	790911	keystroke_d	d	n/a
395.6805	0.09	791361	keystroke_i	i	n/a
395.9805	0.075	791961	keystroke_c	c	n/a
396.1005	0.12	792201	keystroke_i	i	n/a
396.1605	0.075	792321	keystroke_n	n	n/a
396.2505	0.06	792501	keystroke_e	e	n/a
396.3255	0.104	792651	keystroke_Key.space	Key.space	n/a
396.6555	0.135	793311	keystroke_o	o	n/a
396.8055	0.06	793611	keystroke_r	r	n/a
396.9105	0.075	793821	keystroke_a	a	n/a
397.0905	0.075	794181	keystroke_g	g	n/a
398.2595	0.06	796519	keystroke_Key.backspace	Key.backspace	n/a
398.4245	0.045	796849	keystroke_Key.backspace	Key.backspace	n/a
398.8455	0.059	797691	keystroke_g	g	n/a
399.0245	0.075	798049	keystroke_a	a	n/a
399.1605	0.089	798321	keystroke_n	n	n/a
399.7005	0.09	799401	keystroke_i	i	n/a
399.7305	0.09	799461	keystroke_z	z	n/a
399.9705	0.105	799941	keystroke_e	e	n/a
400.0905	0.044	800181	keystroke_r	r	n/a
400.2245	0.075	800449	keystroke_Key.space	Key.space	n/a
400.45	0.075	800900	keystroke_w	w	n/a
400.57	0.075	801140	keystroke_h	h	n/a
400.825	0.09	801650	keystroke_o	o	n/a
401.65	0.075	803300	keystroke_;	;	n/a
402.46	0.075	804920	keystroke_Key.backspace	Key.backspace	n/a
402.7	0.075	805400	keystroke_'	'	n/a
403.12	0.075	806240	keystroke_l	l	n/a
403.2545	0.091	806509	keystroke_l	l	n/a
403.5855	0.09	807171	keystroke_Key.enter	Key.enter	n/a
403.682	8.8755	807364	prompt	n/a	whom'st migration disorders jeep\n
404.8	0.075	809600	keystroke_w	w	n/a
405.085	0.075	810170	keystroke_h	h	n/a
405.19	0.12	810380	keystroke_o	o	n/a
405.25	0.105	810500	keystroke_m	m	n/a
405.52	0.075	811040	keystroke_s	s	n/a
406.4655	0.06	812931	keystroke_Key.backspace	Key.backspace	n/a
406.9755	0.06	813951	keystroke_'	'	n/a
407.1855	0.105	814371	keystroke_s	s	n/a
407.3055	0.09	814611	keystroke_t	t	n/a
407.5005	0.105	815001	keystroke_Key.space	Key.space	n/a
407.8755	0.105	815751	keystroke_m	m	n/a
408.0255	0.09	816051	keystroke_i	i	n/a
408.1755	0.09	816351	keystroke_g	g	n/a
408.3555	0.09	816711	keystroke_r	r	n/a
408.5055	0.09	817011	keystroke_a	a	n/a
408.6405	0.09	817281	keystroke_t	t	n/a
408.7755	0.12	817551	keystroke_i	i	n/a
408.9405	0.1345	817881	keystroke_o	o	n/a
409.015	0.105	818030	keystroke_n	n	n/a
409.15	0.105	818300	keystroke_Key.space	Key.space	n/a
409.345	0.09	818690	keystroke_d	d	n/a
409.72	0.105	819440	keystroke_i	i	n/a
409.84	0.105	819680	keystroke_s	s	n/a
409.99	0.06	819980	keystroke_o	o	n/a
410.08	0.075	820160	keystroke_r	r	n/a
410.23	0.09	820460	keystroke_d	d	n/a
410.365	0.105	820730	keystroke_e	e	n/a
410.455	0.09	820910	keystroke_r	r	n/a
410.575	0.09	821150	keystroke_s	s	n/a
410.71	0.075	821420	keystroke_Key.space	Key.space	n/a
411.085	0.09	822170	keystroke_d	d	n/a
411.655	0.075	823310	keystroke_Key.backspace	Key.backspace	n/a
411.865	0.09	823730	keystroke_j	j	n/a
412	0.06	824000	keystroke_e	e	n/a
412.135	0.06	824270	keystroke_e	e	n/a
412.2405	0.105	824481	keystroke_p	p	n/a
412.4645	0.09	824929	keystroke_Key.enter	Key.enter	n/a
412.5615	10.0155	825123	prompt	n/a	infringement entertainment wendy editions\n
413.3355	0.12	826671	keystroke_i	i	n/a
413.4105	0.09	826821	keystroke_n	n	n/a
413.5145	0.075	827029	keystroke_f	f	n/a
413.9645	0.09	827929	keystroke_r	r	n/a
414.1005	0.1195	828201	keystroke_i	i	n/a
414.175	0.075	828350	keystroke_n	n	n/a
414.295	0.06	828590	keystroke_g	g	n/a
414.745	0.09	829490	keystroke_m	m	n/a
414.85	0.105	829700	keystroke_e	e	n/a
414.97	0.09	829940	keystroke_n	n	n/a
415.105	0.09	830210	keystroke_t	t	n/a
415.345	0.03	830690	keystroke_Key.space	Key.space	n/a
416.3205	0.06	832641	keystroke_e	e	n/a
416.4105	0.075	832821	keystroke_n	n	n/a
416.5005	0.075	833001	keystroke_t	t	n/a
416.6205	0.105	833241	keystroke_e	e	n/a
416.6955	0.09	833391	keystroke_r	r	n/a
417.2055	0.045	834411	keystroke_t	t	n/a
417.3105	0.105	834621	keystroke_a	a	n/a
417.4005	0.09	834801	keystroke_i	i	n/a
417.4455	0.075	834891	keystroke_n	n	n/a
417.7155	0.075	835431	keystroke_e	e	n/a
418.2395	0.06	836479	keystroke_Key.backspace	Key.backspace	n/a
418.4505	0.074	836901	keystroke_m	m	n/a
418.5705	0.09	837141	keystroke_e	e	n/a
418.6745	0.106	837349	keystroke_n	n	n/a
418.8405	0.089	837681	keystroke_t	t	n/a
418.9455	0.09	837891	keystroke_Key.space	Key.space	n/a
419.4705	0.09	838941	keystroke_w	w	n/a
419.7255	0.06	839451	keystroke_e	e	n/a
420.0855	0.075	840171	keystroke_n	n	n/a
420.295	0.105	840590	keystroke_d	d	n/a
420.415	0.075	840830	keystroke_y	y	n/a
420.535	0.105	841070	keystroke_Key.space	Key.space	n/a
420.73	0.075	841460	keystroke_e	e	n/a
420.94	0.09	841880	keystroke_d	d	n/a
421.12	0.075	842240	keystroke_i	i	n/a
421.315	0.075	842630	keystroke_t	t	n/a
421.405	0.075	842810	keystroke_i	i	n/a
421.495	0.12	842990	keystroke_o	o	n/a
421.69	0.075	843380	keystroke_s	s	n/a
422.05	0.075	844100	keystroke_Key.backspace	Key.backspace	n/a
422.245	0.09	844490	keystroke_n	n	n/a
422.38	0.09	844760	keystroke_s	s	n/a
422.515	0.06	845030	keystroke_Key.enter	Key.enter	n/a
422.582	8.89	845164	prompt	n/a	treating causes weapons penn\n
423.415	0.06	846830	keystroke_t	t	n/a
423.58	0.105	847160	keystroke_r	r	n/a
423.655	0.075	847310	keystroke_e	e	n/a
423.85	0.06	847700	keystroke_a	a	n/a
423.985	0.075	847970	keystroke_t	t	n/a
424.15	0.0755	848300	keystroke_i	i	n/a
424.18	0.09	848360	keystroke_n	n	n/a
424.645	0.076	849290	keystroke_g	g	n/a
424.7945	0.1205	849589	keystroke_Key.space	Key.space	n/a
425.05	0.0595	850100	keystroke_c	c	n/a
425.186	0.0745	850372	keystroke_a	a	n/a
425.2745	0.091	850549	keystroke_u	u	n/a
425.35	0.0755	850700	keystroke_s	s	n/a
425.53	0.0605	851060	keystroke_e	e	n/a
425.6945	0.0915	851389	keystroke_s	s	n/a
425.83	0.0595	851660	keystroke_Key.space	Key.space	n/a
426.2055	0.075	852411	keystroke_w	w	n/a
426.4005	0.105	852801	keystroke_e	e	n/a
426.5655	0.105	853131	keystroke_a	a	n/a
426.6855	0.105	853371	keystroke_o	o	n/a
426.7305	0.09	853461	keystroke_i	i	n/a
427.0755	0.045	854151	keystroke_s	s	n/a
427.465	0.045	854930	keystroke_Key.backspace	Key.backspace	n/a
427.7955	0.06	855591	keystroke_Key.backspace	Key.backspace	n/a
428.095	0.06	856190	keystroke_Key.backspace	Key.backspace	n/a
428.65	0.1205	857300	keystroke_p	p	n/a
428.725	0.09	857450	keystroke_o	o	n/a
428.95	0.06	857900	keystroke_n	n	n/a
429.07	0.075	858140	keystroke_s	s	n/a
429.235	0.09	858470	keystroke_Key.space	Key.space	n/a
429.641	0.059	859282	keystroke_e	e	n/a
430.06	0.0905	860120	keystroke_Key.backspace	Key.backspace	n/a
430.5555	0.06	861111	keystroke_p	p	n/a
430.7805	0.075	861561	keystroke_e	e	n/a
430.8855	0.09	861771	keystroke_n	n	n/a
431.0355	0.09	862071	keystroke_n	n	n/a
431.3805	0.09	862761	keystroke_Key.enter	Key.enter	n/a
431.478	9.9395	862956	prompt	n/a	findlaw forecast serum keyboard\n
432.5205	0.09	865041	keystroke_f	f	n/a
432.6405	0.15	865281	keystroke_i	i	n/a
432.7605	0.105	865521	keystroke_n	n	n/a
432.8955	0.09	865791	keystroke_d	d	n/a
433.2555	0.09	866511	keystroke_l	l	n/a
433.3605	0.075	866721	keystroke_a	a	n/a
433.9455	0.09	867891	keystroke_w	w	n/a
434.1705	0.105	868341	keystroke_Key.space	Key.space	n/a
435.5205	0.09	871041	keystroke_f	f	n/a
435.6405	0.06	871281	keystroke_i	i	n/a
436.1205	0.105	872241	keystroke_Key.backspace	Key.backspace	n/a
436.7205	0.12	873441	keystroke_o	o	n/a
436.9005	0.045	873801	keystroke_r	r	n/a
437.0955	0.12	874191	keystroke_c	c	n/a
437.2005	0.09	874401	keystroke_e	e	n/a
437.9655	0.075	875931	keystroke_Key.backspace	Key.backspace	n/a
438.1155	0.075	876231	keystroke_Key.backspace	Key.backspace	n/a
438.2955	0.075	876591	keystroke_e	e	n/a
438.5355	0.075	877071	keystroke_c	c	n/a
438.7905	0.06	877581	keystroke_a	a	n/a
438.8055	0.105	877611	keystroke_s	s	n/a
439.0455	0.045	878091	keystroke_t	t	n/a
439.1505	0.09	878301	keystroke_Key.space	Key.space	n/a
439.3155	0.075	878631	keystroke_s	s	n/a
439.4955	0.09	878991	keystroke_e	e	n/a
439.5405	0.075	879081	keystroke_r	r	n/a
439.6605	0.075	879321	keystroke_u	u	n/a
439.8555	0.075	879711	keystroke_m	m	n/a
439.9905	0.105	879981	keystroke_Key.space	Key.space	n/a
440.2005	0.09	880401	keystroke_k	k	n/a
440.3355	0.06	880671	keystroke_e	e	n/a
440.4555	0.105	880911	keystroke_y	y	n/a
440.7255	0.075	881451	keystroke_b	b	n/a
440.8905	0.0895	881781	keystroke_o	o	n/a
440.995	0.061	881990	keystroke_a	a	n/a
441.04	0.09	882080	keystroke_r	r	n/a
441.205	0.075	882410	keystroke_d	d	n/a
441.325	0.09	882650	keystroke_Key.enter	Key.enter	n/a
441.422	9.1	882844	prompt	n/a	chemical animals collaborative popular\n
442.016	0.104	884032	keystroke_c	c	n/a
442.105	0.105	884210	keystroke_h	h	n/a
442.256	0.075	884512	keystroke_e	e	n/a
442.406	0.09	884812	keystroke_m	m	n/a
442.481	0.12	884962	keystroke_i	i	n/a
442.631	0.075	885262	keystroke_c	c	n/a
442.781	0.1045	885562	keystroke_a	a	n/a
443.7855	0.09	887571	keystroke_l	l	n/a
444.13	0.105	888260	keystroke_Key.space	Key.space	n/a
444.4	0.105	888800	keystroke_a	a	n/a
444.506	0.119	889012	keystroke_n	n	n/a
444.64	0.165	889280	keystroke_i	i	n/a
444.76	0.135	889520	keystroke_m	m	n/a
444.94	0.105	889880	keystroke_a	a	n/a
445.075	0.105	890150	keystroke_l	l	n/a
445.195	0.075	890390	keystroke_s	s	n/a
445.315	0.105	890630	keystroke_Key.space	Key.space	n/a
445.705	0.076	891410	keystroke_c	c	n/a
445.766	0.075	891532	keystroke_o	o	n/a
445.945	0.061	891890	keystroke_l	l	n/a
446.066	0.074	892132	keystroke_l	l	n/a
446.26	0.09	892520	keystroke_a	a	n/a
446.5	0.075	893000	keystroke_b	b	n/a
447.025	0.075	894050	keystroke_o	o	n/a
447.13	0.09	894260	keystroke_r	r	n/a
447.295	0.09	894590	keystroke_a	a	n/a
447.46	0.06	894920	keystroke_t	t	n/a
447.595	0.09	895190	keystroke_e	e	n/a
448.1955	0.075	896391	keystroke_Key.backspace	Key.backspace	n/a
448.3905	0.09	896781	keystroke_i	i	n/a
448.4955	0.075	896991	keystroke_v	v	n/a
448.6305	0.09	897261	keystroke_e	e	n/a
448.7955	0.105	897591	keystroke_Key.space	Key.space	n/a
449.1705	0.105	898341	keystroke_p	p	n/a
449.4105	0.12	898821	keystroke_o	o	n/a
449.5905	0.075	899181	keystroke_p	p	n/a
449.7855	0.135	899571	keystroke_u	u	n/a
449.9055	0.09	899811	keystroke_l	l	n/a
450.0855	0.045	900171	keystroke_a	a	n/a
450.1605	0.09	900321	keystroke_r	r	n/a
450.4305	0.09	900861	keystroke_Key.enter	Key.enter	n/a
450.529	9.909	901058	prompt	n/a	dump simpson accomplish premier\n
451.0905	0.105	902181	keystroke_d	d	n/a
451.2105	0.09	902421	keystroke_u	u	n/a
451.4355	0.09	902871	keystroke_n	n	n/a
451.6005	0.09	903201	keystroke_p	p	n/a
452.0955	0.06	904191	keystroke_Key.backspace	Key.backspace	n/a
452.245	0.061	904490	keystroke_Key.backspace	Key.backspace	n/a
452.741	0.09	905482	keystroke_m	m	n/a
453.161	0.1195	906322	keystroke_p	p	n/a
453.3705	0.09	906741	keystroke_Key.space	Key.space	n/a
453.5505	0.09	907101	keystroke_s	s	n/a
453.6705	0.09	907341	keystroke_i	i	n/a
453.8505	0.075	907701	keystroke_m	m	n/a
454.0305	0.075	908061	keystroke_p	p	n/a
454.1205	0.0905	908241	keystroke_s	s	n/a
454.24	0.12	908480	keystroke_o	o	n/a
454.315	0.12	908630	keystroke_n	n	n/a
454.57	0.105	909140	keystroke_Key.space	Key.space	n/a
454.915	0.06	909830	keystroke_a	a	n/a
455.08	0.09	910160	keystroke_c	c	n/a
455.185	0.09	910370	keystroke_o	o	n/a
455.38	0.106	910760	keystroke_o	o	n/a
456.04	0.075	912080	keystroke_Key.backspace	Key.backspace	n/a
456.175	0.09	912350	keystroke_Key.backspace	Key.backspace	n/a
456.325	0.105	912650	keystroke_c	c	n/a
456.535	0.121	913070	keystroke_o	o	n/a
456.895	0.105	913790	keystroke_m	m	n/a
457.105	0.12	914210	keystroke_p	p	n/a
457.165	0.135	914330	keystroke_l	l	n/a
457.406	0.089	914812	keystroke_i	i	n/a
457.555	0.075	915110	keystroke_s	s	n/a
457.645	0.105	915290	keystroke_h	h	n/a
457.87	0.105	915740	keystroke_Key.space	Key.space	n/a
458.41	0.09	916820	keystroke_p	p	n/a
458.59	0.075	917180	keystroke_r	r	n/a
458.921	0.06	917842	keystroke_e	e	n/a
459.4	0.076	918800	keystroke_m	m	n/a
459.566	0.015	919132	keystroke_i	i	n/a
459.956	0.09	919912	keystroke_e	e	n/a
460.015	0.091	920030	keystroke_r	r	n/a
460.345	0.091	920690	keystroke_Key.enter	Key.enter	n/a
460.4435	4.929	920887	prompt	n/a	heat bond bank repeated\n
461.126	0.0905	922252	keystroke_h	h	n/a
461.2005	0.075	922401	keystroke_e	e	n/a
461.3805	0.06	922761	keystroke_a	a	n/a
461.5005	0.075	923001	keystroke_t	t	n/a
462.1155	0.075	924231	keystroke_Key.space	Key.space	n/a
462.3105	0.075	924621	keystroke_b	b	n/a
462.4605	0.12	924921	keystroke_o	o	n/a
462.5055	0.135	925011	keystroke_n	n	n/a
462.6855	0.09	925371	keystroke_d	d	n/a
462.7905	0.09	925581	keystroke_Key.space	Key.space	n/a
463.0305	0.09	926061	keystroke_b	b	n/a
463.1355	0.12	926271	keystroke_a	a	n/a
463.2405	0.135	926481	keystroke_n	n	n/a
463.3605	0.105	926721	keystroke_k	k	n/a
463.6005	0.09	927201	keystroke_Key.space	Key.space	n/a
463.9005	0.105	927801	keystroke_r	r	n/a
463.9755	0.12	927951	keystroke_e	e	n/a
464.3655	0.09	928731	keystroke_p	p	n/a
464.4715	0.059	928943	keystroke_e	e	n/a
464.6505	0.075	929301	keystroke_a	a	n/a
464.8455	0.045	929691	keystroke_t	t	n/a
464.9355	0.121	929871	keystroke_e	e	n/a
465.0405	0.105	930081	keystroke_d	d	n/a
465.2805	0.09	930561	keystroke_Key.enter	Key.enter	n/a
465.3775	10.3295	930755	prompt	n/a	scary canberra antivirus pamela\n
466.1505	0.12	932301	keystroke_s	s	n/a
466.3905	0.09	932781	keystroke_c	c	n/a
466.5405	0.075	933081	keystroke_a	a	n/a
466.6455	0.06	933291	keystroke_r	r	n/a
466.7505	0.075	933501	keystroke_y	y	n/a
466.9005	0.12	933801	keystroke_Key.space	Key.space	n/a
467.6505	0.075	935301	keystroke_c	c	n/a
467.8305	0.09	935661	keystroke_n	n	n/a
467.9955	0.105	935991	keystroke_a	a	n/a
468.7005	0.045	937401	keystroke_Key.backspace	Key.backspace	n/a
468.8205	0.06	937641	keystroke_Key.backspace	Key.backspace	n/a
469.0155	0.09	938031	keystroke_a	a	n/a
469.2855	0.12	938571	keystroke_n	n	n/a
469.5705	0.09	939141	keystroke_b	b	n/a
469.7955	0.106	939591	keystroke_e	e	n/a
469.8555	0.075	939711	keystroke_r	r	n/a
469.9905	0.09	939981	keystroke_r	r	n/a
470.1705	0.12	940341	keystroke_a	a	n/a
470.2755	0.075	940551	keystroke_Key.space	Key.space	n/a
470.4405	0.09	940881	keystroke_a	a	n/a
470.5155	0.105	941031	keystroke_n	n	n/a
470.7105	0.06	941421	keystroke_t	t	n/a
470.7855	0.105	941571	keystroke_i	i	n/a
470.9955	0.075	941991	keystroke_v	v	n/a
471.221	0.1045	942442	keystroke_r	r	n/a
471.3405	0.075	942681	keystroke_i	i	n/a
471.4455	0.09	942891	keystroke_s	s	n/a
471.5205	0.09	943041	keystroke_u	u	n/a
472.1505	0.075	944301	keystroke_Key.backspace	Key.backspace	n/a
472.3305	0.045	944661	keystroke_Key.backspace	Key.backspace	n/a
472.7055	0.045	945411	keystroke_Key.backspace	Key.backspace	n/a
473.0205	0.075	946041	keystroke_Key.backspace	Key.backspace	n/a
473.4555	0.09	946911	keystroke_i	i	n/a
473.5605	0.09	947121	keystroke_r	r	n/a
473.6805	0.09	947361	keystroke_u	u	n/a
473.7555	0.105	947511	keystroke_s	s	n/a
473.9055	0.09	947811	keystroke_Key.space	Key.space	n/a
474.5355	0.06	949071	keystroke_p	p	n/a
474.6855	0.09	949371	keystroke_a	a	n/a
474.8805	0.09	949761	keystroke_m	m	n/a
475.0605	0.06	950121	keystroke_e	e	n/a
475.1655	0.09	950331	keystroke_l	l	n/a
475.3005	0.09	950601	keystroke_a	a	n/a
475.6305	0.075	951261	keystroke_Key.enter	Key.enter	n/a
475.712	4.8555	951424	prompt	n/a	agent offset hungry dryer\n
476.336	0.09	952672	keystroke_a	a	n/a
476.531	0.06	953062	keystroke_g	g	n/a
476.621	0.075	953242	keystroke_e	e	n/a
476.726	0.09	953452	keystroke_n	n	n/a
476.846	0.06	953692	keystroke_t	t	n/a
476.921	0.1045	953842	keystroke_Key.space	Key.space	n/a
477.1605	0.105	954321	keystroke_o	o	n/a
477.2505	0.045	954501	keystroke_f	f	n/a
477.4005	0.045	954801	keystroke_f	f	n/a
477.6405	0.09	955281	keystroke_s	s	n/a
477.8205	0.075	955641	keystroke_e	e	n/a
477.9105	0.075	955821	keystroke_t	t	n/a
478.0005	0.09	956001	keystroke_Key.space	Key.space	n/a
478.2855	0.105	956571	keystroke_h	h	n/a
478.4055	0.105	956811	keystroke_u	u	n/a
478.4805	0.075	956961	keystroke_n	n	n/a
478.9005	0.075	957801	keystroke_g	g	n/a
479.0505	0.105	958101	keystroke_r	r	n/a
479.1405	0.09	958281	keystroke_y	y	n/a
479.2755	0.12	958551	keystroke_Key.space	Key.space	n/a
479.6355	0.09	959271	keystroke_d	d	n/a
479.9205	0.09	959841	keystroke_r	r	n/a
480.0405	0.09	960081	keystroke_y	y	n/a
480.2055	0.09	960411	keystroke_e	e	n/a
480.2655	0.09	960531	keystroke_r	r	n/a
480.4755	0.09	960951	keystroke_Key.enter	Key.enter	n/a
480.572	9.6105	961144	prompt	n/a	munich otherwise maternity essence\n
481.3305	0.105	962661	keystroke_m	m	n/a
481.5255	0.15	963051	keystroke_u	u	n/a
481.8105	0.075	963621	keystroke_i	i	n/a
482.3205	0.09	964641	keystroke_Key.backspace	Key.backspace	n/a
482.5455	0.09	965091	keystroke_b	b	n/a
483.116	0.089	966232	keystroke_Key.backspace	Key.backspace	n/a
483.37	0.106	966740	keystroke_n	n	n/a
483.536	0.09	967072	keystroke_i	i	n/a
483.761	0.105	967522	keystroke_c	c	n/a
483.85	0.106	967700	keystroke_h	h	n/a
484.03	0.09	968060	keystroke_Key.space	Key.space	n/a
484.3305	0.0905	968661	keystroke_o	o	n/a
484.5105	0.0755	969021	keystroke_t	t	n/a
484.616	0.09	969232	keystroke_h	h	n/a
484.676	0.105	969352	keystroke_e	e	n/a
484.736	0.0895	969472	keystroke_r	r	n/a
484.9605	0.0605	969921	keystroke_w	w	n/a
485.0655	0.105	970131	keystroke_i	i	n/a
485.1555	0.06	970311	keystroke_s	s	n/a
485.3055	0.075	970611	keystroke_e	e	n/a
485.4855	0.09	970971	keystroke_Key.space	Key.space	n/a
486.0105	0.09	972021	keystroke_m	m	n/a
486.0855	0.075	972171	keystroke_a	a	n/a
486.2505	0.06	972501	keystroke_t	t	n/a
486.3705	0.105	972741	keystroke_e	e	n/a
486.4455	0.09	972891	keystroke_r	r	n/a
486.6855	0.09	973371	keystroke_n	n	n/a
486.9105	0.09	973821	keystroke_i	i	n/a
487.0305	0.075	974061	keystroke_t	t	n/a
487.1205	0.09	974241	keystroke_y	y	n/a
487.2255	0.1195	974451	keystroke_Key.space	Key.space	n/a
487.751	0.06	975502	keystroke_e	e	n/a
487.916	0.06	975832	keystroke_s	s	n/a
488.051	0.06	976102	keystroke_s	s	n/a
488.216	0.06	976432	keystroke_e	e	n/a
488.336	0.105	976672	keystroke_n	n	n/a
488.426	0.075	976852	keystroke_s	s	n/a
488.576	0.06	977152	keystroke_e	e	n/a
489.626	0.06	979252	keystroke_Key.backspace	Key.backspace	n/a
489.79	0.076	979580	keystroke_Key.backspace	Key.backspace	n/a
489.896	0.09	979792	keystroke_c	c	n/a
490.001	0.075	980002	keystroke_e	e	n/a
490.106	0.074	980212	keystroke_Key.enter	Key.enter	n/a
490.1885	8.2895	980377	prompt	n/a	alleged connecting left astrology\n
490.886	0.075	981772	keystroke_a	a	n/a
490.946	0.06	981892	keystroke_k	k	n/a
491.44	0.075	982880	keystroke_Key.backspace	Key.backspace	n/a
491.936	0.059	983872	keystroke_l	l	n/a
492.07	0.075	984140	keystroke_l	l	n/a
492.175	0.09	984350	keystroke_e	e	n/a
492.385	0.045	984770	keystroke_g	g	n/a
492.625	0.12	985250	keystroke_e	e	n/a
492.73	0.106	985460	keystroke_d	d	n/a
492.85	0.09	985700	keystroke_Key.space	Key.space	n/a
493.045	0.105	986090	keystroke_c	c	n/a
493.105	0.105	986210	keystroke_o	o	n/a
493.181	0.12	986362	keystroke_n	n	n/a
493.405	0.046	986810	keystroke_n	n	n/a
493.54	0.091	987080	keystroke_e	e	n/a
493.616	0.089	987232	keystroke_c	c	n/a
493.796	0.075	987592	keystroke_t	t	n/a
493.885	0.06	987770	keystroke_i	i	n/a
494.32	0.09	988640	keystroke_n	n	n/a
494.711	0.104	989422	keystroke_g	g	n/a
494.89	0.12	989780	keystroke_Key.space	Key.space	n/a
496.06	0.091	992120	keystroke_l	l	n/a
496.165	0.12	992330	keystroke_e	e	n/a
496.316	0.104	992632	keystroke_f	f	n/a
496.555	0.076	993110	keystroke_t	t	n/a
496.645	0.09	993290	keystroke_Key.space	Key.space	n/a
496.916	0.09	993832	keystroke_a	a	n/a
497.11	0.091	994220	keystroke_s	s	n/a
497.276	0.075	994552	keystroke_t	t	n/a
497.441	0.09	994882	keystroke_r	r	n/a
497.501	0.075	995002	keystroke_o	o	n/a
497.681	0.06	995362	keystroke_l	l	n/a
497.86	0.061	995720	keystroke_o	o	n/a
497.966	0.06	995932	keystroke_g	g	n/a
498.071	0.105	996142	keystroke_y	y	n/a
498.401	0.075	996802	keystroke_Key.enter	Key.enter	n/a
498.484	13.464	996968	prompt	n/a	we'll cnet joel musicians\n
499.391	0.104	998782	keystroke_w	w	n/a
499.481	0.104	998962	keystroke_e	e	n/a
501.041	0.09	1002082	keystroke_'	'	n/a
501.865	0.076	1003730	keystroke_k	k	n/a
502.42	0.075	1004840	keystroke_=	=	n/a
503.095	0.045	1006190	keystroke_Key.backspace	Key.backspace	n/a
503.26	0.075	1006520	keystroke_Key.backspace	Key.backspace	n/a
503.8305	0.045	1007661	keystroke_l	l	n/a
503.9505	0.075	1007901	keystroke_l	l	n/a
504.31	0.121	1008620	keystroke_Key.space	Key.space	n/a
504.581	0.089	1009162	keystroke_c	c	n/a
504.76	0.031	1009520	keystroke_b	b	n/a
504.851	0.075	1009702	keystroke_e	e	n/a
505.676	0.059	1011352	keystroke_Key.backspace	Key.backspace	n/a
505.886	0.059	1011772	keystroke_Key.backspace	Key.backspace	n/a
506.1265	0.105	1012253	keystroke_n	n	n/a
506.3505	0.09	1012701	keystroke_e	e	n/a
506.4265	0.075	1012853	keystroke_t	t	n/a
506.5155	0.075	1013031	keystroke_Key.space	Key.space	n/a
506.815	0.031	1013630	keystroke_g	g	n/a
507.2505	0.075	1014501	keystroke_Key.backspace	Key.backspace	n/a
507.8205	0.106	1015641	keystroke_j	j	n/a
507.9105	0.09	1015821	keystroke_o	o	n/a
508.1055	0.075	1016211	keystroke_a	a	n/a
508.196	0.075	1016392	keystroke_l	l	n/a
508.9005	0.06	1017801	keystroke_Key.backspace	Key.backspace	n/a
509.0805	0.045	1018161	keystroke_Key.backspace	Key.backspace	n/a
509.246	0.0745	1018492	keystroke_e	e	n/a
509.3655	0.105	1018731	keystroke_l	l	n/a
509.6805	0.0905	1019361	keystroke_Key.space	Key.space	n/a
509.9205	0.075	1019841	keystroke_m	m	n/a
510.1155	0.0905	1020231	keystroke_u	u	n/a
510.236	0.105	1020472	keystroke_s	s	n/a
510.9415	0.089	1021883	keystroke_i	i	n/a
511.046	0.0895	1022092	keystroke_c	c	n/a
511.1505	0.0755	1022301	keystroke_i	i	n/a
511.481	0.09	1022962	keystroke_a	a	n/a
511.586	0.105	1023172	keystroke_n	n	n/a
511.706	0.075	1023412	keystroke_s	s	n/a
511.871	0.075	1023742	keystroke_Key.enter	Key.enter	n/a
511.9535	5.589	1023907	prompt	n/a	click hungry aurora coaches\n
512.561	0.09	1025122	keystroke_c	c	n/a
512.696	0.09	1025392	keystroke_l	l	n/a
512.711	0.12	1025422	keystroke_i	i	n/a
512.996	0.09	1025992	keystroke_c	c	n/a
513.101	0.09	1026202	keystroke_k	k	n/a
513.356	0.09	1026712	keystroke_Key.space	Key.space	n/a
513.551	0.12	1027102	keystroke_h	h	n/a
513.716	0.105	1027432	keystroke_u	u	n/a
513.776	0.09	1027552	keystroke_n	n	n/a
513.881	0.045	1027762	keystroke_g	g	n/a
514.046	0.09	1028092	keystroke_r	r	n/a
514.151	0.09	1028302	keystroke_y	y	n/a
514.301	0.105	1028602	keystroke_Key.space	Key.space	n/a
514.511	0.075	1029022	keystroke_a	a	n/a
514.811	0.105	1029622	keystroke_u	u	n/a
514.931	0.09	1029862	keystroke_r	r	n/a
515.051	0.09	1030102	keystroke_o	o	n/a
515.411	0.09	1030822	keystroke_r	r	n/a
515.546	0.09	1031092	keystroke_a	a	n/a
515.651	0.09	1031302	keystroke_Key.space	Key.space	n/a
516.566	0.09	1033132	keystroke_c	c	n/a
516.671	0.105	1033342	keystroke_o	o	n/a
516.821	0.075	1033642	keystroke_a	a	n/a
516.986	0.075	1033972	keystroke_c	c	n/a
517.046	0.075	1034092	keystroke_h	h	n/a
517.136	0.06	1034272	keystroke_e	e	n/a
517.301	0.075	1034602	keystroke_s	s	n/a
517.451	0.09	1034902	keystroke_Key.enter	Key.enter	n/a
517.5465	14.3365	1035093	prompt	n/a	holder gone defend laboratories\n
522.4795	0.057	1044959	keystroke_h	h	n/a
522.6115	0.075	1045223	keystroke_o	o	n/a
522.7915	0.075	1045583	keystroke_l	l	n/a
522.8965	0.105	1045793	keystroke_d	d	n/a
523.0315	0.105	1046063	keystroke_e	e	n/a
523.1065	0.075	1046213	keystroke_r	r	n/a
523.2415	0.135	1046483	keystroke_Key.space	Key.space	n/a
523.6165	0.09	1047233	keystroke_g	g	n/a
523.7365	0.15	1047473	keystroke_o	o	n/a
523.8115	0.105	1047623	keystroke_n	n	n/a
523.9015	0.105	1047803	keystroke_e	e	n/a
524.636	0.105	1049272	keystroke_Key.space	Key.space	n/a
524.771	0.105	1049542	keystroke_d	d	n/a
524.861	0.075	1049722	keystroke_e	e	n/a
524.981	0.075	1049962	keystroke_f	f	n/a
525.116	0.09	1050232	keystroke_e	e	n/a
525.296	0.09	1050592	keystroke_n	n	n/a
525.431	0.09	1050862	keystroke_d	d	n/a
525.551	0.09	1051102	keystroke_Key.space	Key.space	n/a
525.776	0.105	1051552	keystroke_l	l	n/a
525.941	0.105	1051882	keystroke_a	a	n/a
526.061	0.09	1052122	keystroke_b	b	n/a
526.256	0.06	1052512	keystroke_r	r	n/a
526.406	0.09	1052812	keystroke_o	o	n/a
526.946	0.075	1053892	keystroke_Key.backspace	Key.backspace	n/a
527.096	0.075	1054192	keystroke_Key.backspace	Key.backspace	n/a
527.277	0.104	1054554	keystroke_o	o	n/a
527.426	0.105	1054852	keystroke_r	r	n/a
527.561	0.105	1055122	keystroke_a	a	n/a
527.771	0.06	1055542	keystroke_t	t	n/a
527.936	0.09	1055872	keystroke_i	i	n/a
528.356	0.06	1056712	keystroke_v	v	n/a
529.631	0.06	1059262	keystroke_Key.backspace	Key.backspace	n/a
529.796	0.075	1059592	keystroke_Key.backspace	Key.backspace	n/a
530.066	0.075	1060132	keystroke_o	o	n/a
530.171	0.075	1060342	keystroke_r	r	n/a
530.381	0.075	1060762	keystroke_i	i	n/a
530.741	0.09	1061482	keystroke_a	a	n/a
531.206	0.075	1062412	keystroke_Key.backspace	Key.backspace	n/a
531.311	0.075	1062622	keystroke_e	e	n/a
531.476	0.09	1062952	keystroke_s	s	n/a
531.791	0.09	1063582	keystroke_Key.enter	Key.enter	n/a
531.889	6.6995	1063778	prompt	n/a	assuming earning why's passive\n
532.556	0.075	1065112	keystroke_a	a	n/a
532.736	0.06	1065472	keystroke_s	s	n/a
532.871	0.045	1065742	keystroke_s	s	n/a
532.901	0.09	1065802	keystroke_u	u	n/a
533.096	0.075	1066192	keystroke_m	m	n/a
533.246	0.105	1066492	keystroke_i	i	n/a
533.321	0.06	1066642	keystroke_n	n	n/a
533.396	0.06	1066792	keystroke_g	g	n/a
533.486	0.09	1066972	keystroke_Key.space	Key.space	n/a
533.906	0.06	1067812	keystroke_e	e	n/a
534.071	0.06	1068142	keystroke_a	a	n/a
534.146	0.075	1068292	keystroke_r	r	n/a
534.236	0.075	1068472	keystroke_n	n	n/a
534.386	0.12	1068772	keystroke_i	i	n/a
534.476	0.09	1068952	keystroke_n	n	n/a
534.611	0.09	1069222	keystroke_g	g	n/a
534.686	0.105	1069372	keystroke_Key.space	Key.space	n/a
535.031	0.06	1070062	keystroke_w	w	n/a
535.106	0.075	1070212	keystroke_h	h	n/a
535.301	0.06	1070602	keystroke_y	y	n/a
535.811	0.105	1071622	keystroke_;	;	n/a
536.261	0.09	1072522	keystroke_Key.backspace	Key.backspace	n/a
536.517	0.119	1073034	keystroke_'	'	n/a
536.756	0.09	1073512	keystroke_s	s	n/a
536.981	0.09	1073962	keystroke_Key.space	Key.space	n/a
537.506	0.105	1075012	keystroke_p	p	n/a
537.581	0.105	1075162	keystroke_a	a	n/a
537.701	0.105	1075402	keystroke_s	s	n/a
537.881	0.09	1075762	keystroke_s	s	n/a
538.001	0.09	1076002	keystroke_i	i	n/a
538.121	0.075	1076242	keystroke_v	v	n/a
538.301	0.075	1076602	keystroke_e	e	n/a
538.511	0.075	1077022	keystroke_Key.enter	Key.enter	n/a
538.5955	7.5675	1077191	prompt	n/a	nokia of tampa who'll\n
539.6365	0.074	1079273	keystroke_n	n	n/a
539.7855	0.1205	1079571	keystroke_o	o	n/a
539.8315	0.1195	1079663	keystroke_k	k	n/a
540.041	0.075	1080082	keystroke_i	i	n/a
540.161	0.105	1080322	keystroke_a	a	n/a
540.281	0.06	1080562	keystroke_Key.space	Key.space	n/a
540.461	0.09	1080922	keystroke_o	o	n/a
540.566	0.075	1081132	keystroke_f	f	n/a
540.686	0.09	1081372	keystroke_Key.space	Key.space	n/a
541.1515	0.075	1082303	keystroke_t	t	n/a
541.4215	0.09	1082843	keystroke_a	a	n/a
541.9915	0.105	1083983	keystroke_m	m	n/a
542.2015	0.045	1084403	keystroke_o	o	n/a
543.0405	0.075	1086081	keystroke_Key.backspace	Key.backspace	n/a
543.2515	0.09	1086503	keystroke_p	p	n/a
543.3555	0.091	1086711	keystroke_a	a	n/a
543.9855	0.105	1087971	keystroke_Key.space	Key.space	n/a
544.1515	0.0745	1088303	keystroke_w	w	n/a
544.346	0.1055	1088692	keystroke_h	h	n/a
544.466	0.135	1088932	keystroke_o	o	n/a
545.006	0.0755	1090012	keystroke_'	'	n/a
545.276	0.1055	1090552	keystroke_l	l	n/a
545.426	0.09	1090852	keystroke_l	l	n/a
546.056	0.105	1092112	keystroke_Key.enter	Key.enter	n/a
546.167	7.0315	1092334	prompt	n/a	vault offers electric vitamin\n
546.866	0.06	1093732	keystroke_w	w	n/a
547.286	0.075	1094572	keystroke_Key.backspace	Key.backspace	n/a
547.511	0.06	1095022	keystroke_v	v	n/a
547.706	0.09	1095412	keystroke_a	a	n/a
547.871	0.12	1095742	keystroke_u	u	n/a
548.021	0.075	1096042	keystroke_l	l	n/a
548.201	0.0605	1096402	keystroke_t	t	n/a
548.3215	0.0895	1096643	keystroke_Key.space	Key.space	n/a
548.5765	0.075	1097153	keystroke_o	o	n/a
548.6665	0.045	1097333	keystroke_f	f	n/a
548.7865	0.075	1097573	keystroke_f	f	n/a
548.8915	0.105	1097783	keystroke_e	e	n/a
548.9665	0.09	1097933	keystroke_r	r	n/a
549.0865	0.075	1098173	keystroke_s	s	n/a
549.2215	0.075	1098443	keystroke_Key.space	Key.space	n/a
549.5665	0.075	1099133	keystroke_e	e	n/a
549.6265	0.09	1099253	keystroke_l	l	n/a
549.7165	0.135	1099433	keystroke_e	e	n/a
550.0165	0.09	1100033	keystroke_c	c	n/a
550.2265	0.06	1100453	keystroke_t	t	n/a
550.3615	0.09	1100723	keystroke_r	r	n/a
550.4815	0.075	1100963	keystroke_i	i	n/a
550.5715	0.09	1101143	keystroke_c	c	n/a
550.7065	0.09	1101413	keystroke_Key.space	Key.space	n/a
551.2015	0.075	1102403	keystroke_v	v	n/a
551.3065	0.075	1102613	keystroke_i	i	n/a
551.4115	0.075	1102823	keystroke_t	t	n/a
551.5615	0.09	1103123	keystroke_a	a	n/a
551.6365	0.12	1103273	keystroke_m	m	n/a
551.9065	0.15	1103813	keystroke_i	i	n/a
551.9815	0.135	1103963	keystroke_n	n	n/a
552.1015	0.045	1104203	keystroke_s	s	n/a
552.8965	0.075	1105793	keystroke_Key.backspace	Key.backspace	n/a
553.121	0.075	1106242	keystroke_Key.enter	Key.enter	n/a
553.203	9.385	1106406	prompt	n/a	branches intermediate issues specialties\n
553.917	0.104	1107834	keystroke_b	b	n/a
554.006	0.09	1108012	keystroke_r	r	n/a
554.1565	0.105	1108313	keystroke_a	a	n/a
554.2765	0.09	1108553	keystroke_n	n	n/a
554.3965	0.075	1108793	keystroke_c	c	n/a
554.5165	0.09	1109033	keystroke_h	h	n/a
554.6065	0.045	1109213	keystroke_e	e	n/a
554.7565	0.075	1109513	keystroke_s	s	n/a
554.8465	0.105	1109693	keystroke_Key.space	Key.space	n/a
555.2815	0.135	1110563	keystroke_i	i	n/a
555.4615	0.09	1110923	keystroke_t	t	n/a
555.7915	0.075	1111583	keystroke_Key.backspace	Key.backspace	n/a
555.987	0.075	1111974	keystroke_n	n	n/a
556.076	0.061	1112152	keystroke_t	t	n/a
556.152	0.105	1112304	keystroke_e	e	n/a
556.226	0.091	1112452	keystroke_r	r	n/a
556.5115	0.09	1113023	keystroke_m	m	n/a
556.6165	0.105	1113233	keystroke_e	e	n/a
556.9915	0.075	1113983	keystroke_d	d	n/a
557.0815	0.09	1114163	keystroke_i	i	n/a
557.1865	0.075	1114373	keystroke_a	a	n/a
557.3215	0.09	1114643	keystroke_t	t	n/a
557.4115	0.075	1114823	keystroke_e	e	n/a
557.6215	0.075	1115243	keystroke_Key.space	Key.space	n/a
558.0565	0.09	1116113	keystroke_i	i	n/a
558.2965	0.06	1116593	keystroke_s	s	n/a
558.4615	0.06	1116923	keystroke_s	s	n/a
