onset	duration	sample	value	key	prompt_text
7.6725	17.3635	15345	prompt	n/a	the quick brown fox jumps over a lazy dog\n
9.623	0.114	19246	keystroke_t	t	n/a
9.8575	0.1135	19715	keystroke_h	h	n/a
9.9925	0.1125	19985	keystroke_e	e	n/a
10.2105	0.1375	20421	keystroke_Key.space	Key.space	n/a
10.9155	0.1145	21831	keystroke_q	q	n/a
11.0525	0.092	22105	keystroke_u	u	n/a
11.3175	0.1355	22635	keystroke_i	i	n/a
11.593	0.1375	23186	keystroke_c	c	n/a
11.7725	0.1545	23545	keystroke_k	k	n/a
12.269	0.1135	24538	keystroke_Key.space	Key.space	n/a
12.7885	0.091	25577	keystroke_v	v	n/a
13.449	0.1355	26898	keystroke_Key.backspace	Key.backspace	n/a
13.8485	0.114	27697	keystroke_b	b	n/a
14.187	0.1135	28374	keystroke_r	r	n/a
14.57	0.1345	29140	keystroke_o	o	n/a
14.846	0.1365	29692	keystroke_w	w	n/a
15.012	0.1345	30024	keystroke_n	n	n/a
15.851	0.1115	31702	keystroke_Key.space	Key.space	n/a
16.274	0.116	32548	keystroke_f	f	n/a
16.5905	0.113	33181	keystroke_o	o	n/a
16.942	0.111	33884	keystroke_x	x	n/a
17.1395	0.137	34279	keystroke_Key.space	Key.space	n/a
17.953	0.115	35906	keystroke_j	j	n/a
18.428	0.089	36856	keystroke_u	u	n/a
18.6695	0.1115	37339	keystroke_m	m	n/a
19.0525	0.1575	38105	keystroke_p	p	n/a
19.275	0.1335	38550	keystroke_s	s	n/a
19.679	0.136	39358	keystroke_Key.space	Key.space	n/a
20.145	0.1115	40290	keystroke_o	o	n/a
20.432	0.113	40864	keystroke_v	v	n/a
20.616	0.113	41232	keystroke_e	e	n/a
20.8345	0.0915	41669	keystroke_r	r	n/a
21.045	0.135	42090	keystroke_Key.space	Key.space	n/a
21.863	0.092	43726	keystroke_a	a	n/a
22.0805	0.09	44161	keystroke_Key.space	Key.space	n/a
22.5835	0.112	45167	keystroke_l	l	n/a
22.697	0.09	45394	keystroke_a	a	n/a
22.938	0.1555	45876	keystroke_z	z	n/a
23.2055	0.136	46411	keystroke_y	y	n/a
23.419	0.1115	46838	keystroke_Key.space	Key.space	n/a
24.0315	0.1135	48063	keystroke_d	d	n/a
24.339	0.112	48678	keystroke_o	o	n/a
24.6075	0.088	49215	keystroke_g	g	n/a
24.9655	0.068	49931	keystroke_Key.enter	Key.enter	n/a
25.0425	10.284	50085	prompt	n/a	tunes sofa jordan unity\n
27.7475	0.113	55495	keystroke_t	t	n/a
28.076	0.1335	56152	keystroke_u	u	n/a
28.3645	0.1365	56729	keystroke_n	n	n/a
29.0775	0.09	58155	keystroke_e	e	n/a
29.359	0.1115	58718	keystroke_s	s	n/a
29.551	0.113	59102	keystroke_Key.space	Key.space	n/a
29.9685	0.134	59937	keystroke_s	s	n/a
30.329	0.1115	60658	keystroke_o	o	n/a
30.542	0.113	61084	keystroke_f	f	n/a
30.914	0.133	61828	keystroke_a	a	n/a
31.1	0.093	62200	keystroke_Key.space	Key.space	n/a
31.5725	0.112	63145	keystroke_j	j	n/a
31.848	0.09	63696	keystroke_o	o	n/a
32.273	0.1365	64546	keystroke_r	r	n/a
33.051	0.113	66102	keystroke_d	d	n/a
33.308	0.1115	66616	keystroke_a	a	n/a
33.4965	0.091	66993	keystroke_n	n	n/a
33.6965	0.111	67393	keystroke_Key.space	Key.space	n/a
34.2	0.114	68400	keystroke_u	u	n/a
34.374	0.134	68748	keystroke_n	n	n/a
34.53	0.137	69060	keystroke_i	i	n/a
34.6435	0.1145	69287	keystroke_t	t	n/a
34.841	0.0935	69682	keystroke_y	y	n/a
35.187	0.138	70374	keystroke_Key.enter	Key.enter	n/a
35.33	14.937	70660	prompt	n/a	january delay occupied cash\n
36.5015	0.088	73003	keystroke_j	j	n/a
37.716	0.114	75432	keystroke_a	a	n/a
38.002	0.16	76004	keystroke_u	u	n/a
38.399	0.132	76798	keystroke_n	n	n/a
38.7255	0.1585	77451	keystroke_a	a	n/a
39.1525	0.138	78305	keystroke_r	r	n/a
41.3985	0.1135	82797	keystroke_y	y	n/a
41.578	0.138	83156	keystroke_Key.space	Key.space	n/a
42.4635	0.154	84927	keystroke_d	d	n/a
43.495	0.157	86990	keystroke_e	e	n/a
43.8505	0.1365	87701	keystroke_l	l	n/a
44.0775	0.137	88155	keystroke_a	a	n/a
44.359	0.138	88718	keystroke_y	y	n/a
44.659	0.09	89318	keystroke_Key.space	Key.space	n/a
45.2355	0.1115	90471	keystroke_o	o	n/a
45.522	0.1145	91044	keystroke_c	c	n/a
45.7465	0.1125	91493	keystroke_c	c	n/a
46.6235	0.0895	93247	keystroke_u	u	n/a
47.3225	0.115	94645	keystroke_p	p	n/a
48.2675	0.1365	96535	keystroke_i	i	n/a
48.5175	0.1105	97035	keystroke_e	e	n/a
48.8	0.138	97600	keystroke_d	d	n/a
49.018	0.1355	98036	keystroke_Key.space	Key.space	n/a
49.2725	0.1095	98545	keystroke_c	c	n/a
49.569	0.1125	99138	keystroke_a	a	n/a
49.788	0.0915	99576	keystroke_s	s	n/a
49.9005	0.112	99801	keystroke_h	h	n/a
50.1755	0.09	100351	keystroke_Key.enter	Key.enter	n/a
50.272	14.8155	100544	prompt	n/a	plymouth soviet those're reserved\n
51.4835	0.1975	102967	keystroke_p	p	n/a
51.7025	0.115	103405	keystroke_l	l	n/a
52.5285	0.093	105057	keystroke_y	y	n/a
52.8405	0.1135	105681	keystroke_m	m	n/a
53.074	0.113	106148	keystroke_o	o	n/a
53.283	0.114	106566	keystroke_n	n	n/a
53.57	0.1135	107140	keystroke_t	t	n/a
53.705	0.117	107410	keystroke_h	h	n/a
53.923	0.136	107846	keystroke_Key.space	Key.space	n/a
54.549	0.0925	109098	keystroke_s	s	n/a
54.851	0.133	109702	keystroke_o	o	n/a
55.2	0.0925	110400	keystroke_v	v	n/a
56.18	0.112	112360	keystroke_i	i	n/a
56.516	0.07	113032	keystroke_e	e	n/a
56.7915	0.1355	113583	keystroke_t	t	n/a
57.104	0.1355	114208	keystroke_Key.space	Key.space	n/a
57.8475	0.0905	115695	keystroke_t	t	n/a
57.969	0.1135	115938	keystroke_h	h	n/a
58.1895	0.1365	116379	keystroke_o	o	n/a
58.363	0.0905	116726	keystroke_s	s	n/a
58.622	0.137	117244	keystroke_e	e	n/a
59.9845	0.1365	119969	keystroke_'	'	n/a
60.2295	0.068	120459	keystroke_r	r	n/a
60.505	0.137	121010	keystroke_e	e	n/a
61.3545	0.1575	122709	keystroke_Key.space	Key.space	n/a
61.8415	0.112	123683	keystroke_r	r	n/a
62.0705	0.0905	124141	keystroke_e	e	n/a
63.191	0.1345	126382	keystroke_s	s	n/a
63.5335	0.1375	127067	keystroke_e	e	n/a
63.7665	0.089	127533	keystroke_r	r	n/a
64.35	0.138	128700	keystroke_v	v	n/a
64.5265	0.178	129053	keystroke_e	e	n/a
64.765	0.1345	129530	keystroke_d	d	n/a
64.9515	0.134	129903	keystroke_Key.enter	Key.enter	n/a
65.094	8.945	130188	prompt	n/a	booth ahead deeply electric\n
65.896	0.1125	131792	keystroke_b	b	n/a
66.1835	0.0925	132367	keystroke_o	o	n/a
66.3775	0.135	132755	keystroke_o	o	n/a
66.5135	0.1355	133027	keystroke_t	t	n/a
66.6805	0.0905	133361	keystroke_h	h	n/a
66.9845	0.113	133969	keystroke_Key.space	Key.space	n/a
67.6365	0.1105	135273	keystroke_a	a	n/a
67.813	0.1135	135626	keystroke_h	h	n/a
67.9715	0.1125	135943	keystroke_e	e	n/a
68.2755	0.1125	136551	keystroke_a	a	n/a
68.5105	0.137	137021	keystroke_d	d	n/a
68.7395	0.156	137479	keystroke_Key.space	Key.space	n/a
69.3685	0.1155	138737	keystroke_d	d	n/a
69.5905	0.157	139181	keystroke_e	e	n/a
69.87	0.091	139740	keystroke_e	e	n/a
70.1285	0.204	140257	keystroke_p	p	n/a
70.333	0.155	140666	keystroke_l	l	n/a
70.682	0.1335	141364	keystroke_y	y	n/a
71.3375	0.133	142675	keystroke_Key.space	Key.space	n/a
71.7425	0.09	143485	keystroke_e	e	n/a
71.9435	0.1125	143887	keystroke_l	l	n/a
72.056	0.114	144112	keystroke_e	e	n/a
72.437	0.1585	144874	keystroke_c	c	n/a
73.1455	0.091	146291	keystroke_t	t	n/a
73.371	0.09	146742	keystroke_r	r	n/a
73.5425	0.113	147085	keystroke_i	i	n/a
73.7665	0.0915	147533	keystroke_c	c	n/a
73.945	0.0915	147890	keystroke_Key.enter	Key.enter	n/a
74.0435	17.372	148087	prompt	n/a	programmes moderator advisory there\n
75.201	0.111	150402	keystroke_p	p	n/a
75.509	0.092	151018	keystroke_r	r	n/a
75.816	0.158	151632	keystroke_o	o	n/a
76.5705	0.0915	153141	keystroke_g	g	n/a
76.706	0.114	153412	keystroke_r	r	n/a
76.988	0.136	153976	keystroke_a	a	n/a
77.269	0.113	154538	keystroke_m	m	n/a
77.452	0.1145	154904	keystroke_m	m	n/a
77.6555	0.137	155311	keystroke_e	e	n/a
78.178	0.135	156356	keystroke_s	s	n/a
78.649	0.134	157298	keystroke_Key.space	Key.space	n/a
79.0255	0.1395	158051	keystroke_m	m	n/a
79.2545	0.113	158509	keystroke_o	o	n/a
79.5015	0.114	159003	keystroke_d	d	n/a
80.5035	0.1115	161007	keystroke_e	e	n/a
80.7865	0.07	161573	keystroke_r	r	n/a
82.0705	0.117	164141	keystroke_a	a	n/a
82.4365	0.113	164873	keystroke_t	t	n/a
82.591	0.1375	165182	keystroke_o	o	n/a
83.7095	0.114	167419	keystroke_r	r	n/a
84.042	0.117	168084	keystroke_Key.space	Key.space	n/a
84.9855	0.1135	169971	keystroke_a	a	n/a
85.2485	0.1125	170497	keystroke_d	d	n/a
85.599	0.1385	171198	keystroke_v	v	n/a
85.8145	0.1355	171629	keystroke_i	i	n/a
86.2485	0.1355	172497	keystroke_s	s	n/a
87.209	0.1135	174418	keystroke_o	o	n/a
87.3445	0.0925	174689	keystroke_r	r	n/a
87.5885	0.1165	175177	keystroke_y	y	n/a
87.796	0.134	175592	keystroke_Key.space	Key.space	n/a
88.717	0.114	177434	keystroke_t	t	n/a
88.853	0.09	177706	keystroke_h	h	n/a
89.0045	0.137	178009	keystroke_e	e	n/a
89.4205	0.1605	178841	keystroke_e	e	n/a
90.5545	0.112	181109	keystroke_Key.backspace	Key.backspace	n/a
90.8015	0.1115	181603	keystroke_r	r	n/a
91.046	0.1155	182092	keystroke_e	e	n/a
91.3205	0.093	182641	keystroke_Key.enter	Key.enter	n/a
91.4275	22.1325	182855	prompt	n/a	delivers commodities vinyl mailto\n
94.195	0.1365	188390	keystroke_d	d	n/a
94.9655	0.136	189931	keystroke_e	e	n/a
95.2235	0.16	190447	keystroke_l	l	n/a
95.5305	0.114	191061	keystroke_i	i	n/a
95.7015	0.178	191403	keystroke_v	v	n/a
95.9015	0.157	191803	keystroke_e	e	n/a
96.1805	0.114	192361	keystroke_r	r	n/a
96.675	0.1795	193350	keystroke_s	s	n/a
97.067	0.1345	194134	keystroke_Key.space	Key.space	n/a
97.4425	0.1365	194885	keystroke_c	c	n/a
97.705	0.1355	195410	keystroke_o	o	n/a
97.936	0.135	195872	keystroke_m	m	n/a
98.1255	0.1355	196251	keystroke_m	m	n/a
99.212	0.159	198424	keystroke_o	o	n/a
99.372	0.134	198744	keystroke_d	d	n/a
99.8565	0.154	199713	keystroke_i	i	n/a
100.3565	0.113	200713	keystroke_t	t	n/a
100.5795	0.114	201159	keystroke_i	i	n/a
100.923	0.1135	201846	keystroke_t	t	n/a
101.1775	0.1335	202355	keystroke_e	e	n/a
101.4715	0.1815	202943	keystroke_s	s	n/a
101.6825	0.1585	203365	keystroke_Key.space	Key.space	n/a
102.0265	0.1135	204053	keystroke_v	v	n/a
102.355	0.1375	204710	keystroke_i	i	n/a
102.5865	0.1605	205173	keystroke_n	n	n/a
103.685	0.095	207370	keystroke_y	y	n/a
103.9055	0.1355	207811	keystroke_l	l	n/a
104.1675	0.1375	208335	keystroke_Key.space	Key.space	n/a
104.786	0.136	209572	keystroke_m	m	n/a
104.995	0.138	209990	keystroke_a	a	n/a
105.3485	0.181	210697	keystroke_t	t	n/a
109.014	0.1145	218028	keystroke_Key.backspace	Key.backspace	n/a
109.432	0.1145	218864	keystroke_i	i	n/a
112.205	0.1135	224410	keystroke_t	t	n/a
113.0945	0.09	226189	keystroke_o	o	n/a
113.49	0.0665	226980	keystroke_Key.enter	Key.enter	n/a
113.5655	11.6145	227131	prompt	n/a	glory davis worry brad\n
114.721	0.092	229442	keystroke_g	g	n/a
114.8355	0.1125	229671	keystroke_l	l	n/a
115.045	0.113	230090	keystroke_o	o	n/a
115.1905	0.0915	230381	keystroke_r	r	n/a
115.4125	0.1555	230825	keystroke_y	y	n/a
115.665	0.1575	231330	keystroke_Key.space	Key.space	n/a
116.195	0.114	232390	keystroke_d	d	n/a
116.508	0.157	233016	keystroke_a	a	n/a
117.107	0.069	234214	keystroke_v	v	n/a
117.13	0.024	234260	keystroke_b	b	n/a
117.344	0.09	234688	keystroke_i	i	n/a
118.577	0.117	237154	keystroke_Key.backspace	Key.backspace	n/a
118.776	0.113	237552	keystroke_Key.backspace	Key.backspace	n/a
119.733	0.136	239466	keystroke_i	i	n/a
119.9645	0.114	239929	keystroke_s	s	n/a
120.498	0.1345	240996	keystroke_Key.space	Key.space	n/a
120.847	0.1375	241694	keystroke_w	w	n/a
121.149	0.11	242298	keystroke_o	o	n/a
122.0195	0.092	244039	keystroke_r	r	n/a
122.203	0.091	244406	keystroke_r	r	n/a
122.501	0.137	245002	keystroke_y	y	n/a
122.712	0.114	245424	keystroke_Key.space	Key.space	n/a
123.395	0.1135	246790	keystroke_b	b	n/a
123.5785	0.091	247157	keystroke_r	r	n/a
123.8685	0.089	247737	keystroke_a	a	n/a
124.0975	0.1365	248195	keystroke_d	d	n/a
125.065	0.1135	250130	keystroke_Key.enter	Key.enter	n/a
125.1845	14.1195	250369	prompt	n/a	experts leslie commitment reflected\n
128.3515	0.1135	256703	keystroke_e	e	n/a
128.6255	0.1375	257251	keystroke_x	x	n/a
129.9045	0.113	259809	keystroke_p	p	n/a
130.0395	0.113	260079	keystroke_e	e	n/a
130.2875	0.091	260575	keystroke_r	r	n/a
130.7885	0.1335	261577	keystroke_t	t	n/a
130.9455	0.1375	261891	keystroke_s	s	n/a
131.106	0.1355	262212	keystroke_Key.space	Key.space	n/a
131.594	0.115	263188	keystroke_l	l	n/a
131.731	0.0685	263462	keystroke_e	e	n/a
132.069	0.1365	264138	keystroke_s	s	n/a
132.7915	0.09	265583	keystroke_i	i	n/a
132.99	0.1355	265980	keystroke_l	l	n/a
133.1015	0.092	266203	keystroke_e	e	n/a
133.316	0.135	266632	keystroke_Key.space	Key.space	n/a
133.6355	0.115	267271	keystroke_c	c	n/a
133.883	0.156	267766	keystroke_o	o	n/a
134.213	0.112	268426	keystroke_m	m	n/a
134.4	0.1575	268800	keystroke_m	m	n/a
135.388	0.1335	270776	keystroke_i	i	n/a
135.6065	0.094	271213	keystroke_t	t	n/a
135.762	0.1365	271524	keystroke_m	m	n/a
135.9815	0.1135	271963	keystroke_e	e	n/a
136.1355	0.135	272271	keystroke_n	n	n/a
136.2915	0.115	272583	keystroke_t	t	n/a
136.566	0.115	273132	keystroke_Key.space	Key.space	n/a
136.982	0.092	273964	keystroke_r	r	n/a
137.201	0.091	274402	keystroke_e	e	n/a
137.519	0.092	275038	keystroke_f	f	n/a
137.816	0.1375	275632	keystroke_l	l	n/a
137.9545	0.1125	275909	keystroke_e	e	n/a
138.2365	0.113	276473	keystroke_c	c	n/a
138.62	0.092	277240	keystroke_t	t	n/a
138.832	0.1145	277664	keystroke_e	e	n/a
139.0225	0.1355	278045	keystroke_d	d	n/a
139.1875	0.1145	278375	keystroke_Key.enter	Key.enter	n/a
139.309	7.2045	278618	prompt	n/a	such prefix hotels is\n
140.105	0.134	280210	keystroke_s	s	n/a
140.316	0.136	280632	keystroke_u	u	n/a
140.4755	0.1355	280951	keystroke_c	c	n/a
140.633	0.093	281266	keystroke_h	h	n/a
140.831	0.1125	281662	keystroke_Key.space	Key.space	n/a
141.512	0.113	283024	keystroke_p	p	n/a
141.7615	0.093	283523	keystroke_r	r	n/a
142.0155	0.0905	284031	keystroke_e	e	n/a
142.433	0.067	284866	keystroke_f	f	n/a
143.1665	0.1365	286333	keystroke_i	i	n/a
143.342	0.112	286684	keystroke_x	x	n/a
143.865	0.136	287730	keystroke_Key.space	Key.space	n/a
144.515	0.113	289030	keystroke_h	h	n/a
144.776	0.1355	289552	keystroke_o	o	n/a
145.0125	0.112	290025	keystroke_t	t	n/a
145.2585	0.1355	290517	keystroke_e	e	n/a
145.4405	0.139	290881	keystroke_l	l	n/a
145.6355	0.138	291271	keystroke_s	s	n/a
145.8205	0.1365	291641	keystroke_Key.space	Key.space	n/a
145.958	0.157	291916	keystroke_i	i	n/a
146.137	0.094	292274	keystroke_s	s	n/a
146.3735	0.1375	292747	keystroke_Key.enter	Key.enter	n/a
146.517	9.018	293034	prompt	n/a	lite everywhere solve viking\n
147.4445	0.137	294889	keystroke_l	l	n/a
147.6785	0.1375	295357	keystroke_i	i	n/a
148.049	0.1125	296098	keystroke_t	t	n/a
148.2625	0.1585	296525	keystroke_e	e	n/a
148.5145	0.136	297029	keystroke_Key.space	Key.space	n/a
148.7345	0.1375	297469	keystroke_w	w	n/a
149.7885	0.1345	299577	keystroke_Key.backspace	Key.backspace	n/a
150.218	0.1135	300436	keystroke_e	e	n/a
150.3325	0.067	300665	keystroke_v	v	n/a
150.6895	0.134	301379	keystroke_e	e	n/a
150.882	0.1135	301764	keystroke_r	r	n/a
151.1305	0.137	302261	keystroke_y	y	n/a
151.6695	0.136	303339	keystroke_w	w	n/a
151.8915	0.092	303783	keystroke_h	h	n/a
152.016	0.1365	304032	keystroke_e	e	n/a
152.2465	0.115	304493	keystroke_r	r	n/a
152.4885	0.136	304977	keystroke_e	e	n/a
152.6845	0.158	305369	keystroke_Key.space	Key.space	n/a
152.8735	0.136	305747	keystroke_s	s	n/a
153.031	0.1135	306062	keystroke_o	o	n/a
153.25	0.136	306500	keystroke_l	l	n/a
153.387	0.159	306774	keystroke_v	v	n/a
153.547	0.1545	307094	keystroke_e	e	n/a
153.8355	0.113	307671	keystroke_Key.space	Key.space	n/a
154.2915	0.091	308583	keystroke_v	v	n/a
154.5505	0.0905	309101	keystroke_i	i	n/a
154.7335	0.114	309467	keystroke_k	k	n/a
154.8995	0.136	309799	keystroke_i	i	n/a
155.0645	0.1365	310129	keystroke_n	n	n/a
155.2225	0.092	310445	keystroke_g	g	n/a
155.375	0.1585	310750	keystroke_Key.enter	Key.enter	n/a
155.5405	14.034	311081	prompt	n/a	digital artists linux victor\n
156.312	0.1135	312624	keystroke_d	d	n/a
156.5315	0.136	313063	keystroke_i	i	n/a
156.7625	0.135	313525	keystroke_g	g	n/a
156.9705	0.1345	313941	keystroke_i	i	n/a
157.216	0.113	314432	keystroke_t	t	n/a
157.525	0.071	315050	keystroke_s	s	n/a
157.6175	0.16	315235	keystroke_l	l	n/a
158.011	0.1145	316022	keystroke_Key.space	Key.space	n/a
158.6175	0.136	317235	keystroke_Key.backspace	Key.backspace	n/a
158.8715	0.067	317743	keystroke_Key.backspace	Key.backspace	n/a
159.0855	0.11	318171	keystroke_Key.backspace	Key.backspace	n/a
161.823	0.0915	323646	keystroke_a	a	n/a
162.0025	0.1145	324005	keystroke_l	l	n/a
162.1175	0.155	324235	keystroke_Key.space	Key.space	n/a
162.2735	0.111	324547	keystroke_a	a	n/a
162.571	0.1145	325142	keystroke_r	r	n/a
162.7965	0.0925	325593	keystroke_t	t	n/a
162.997	0.135	325994	keystroke_i	i	n/a
163.2335	0.113	326467	keystroke_s	s	n/a
163.554	0.1145	327108	keystroke_t	t	n/a
163.9985	0.114	327997	keystroke_s	s	n/a
164.3	0.1335	328600	keystroke_Key.space	Key.space	n/a
164.7995	0.1345	329599	keystroke_l	l	n/a
165.0975	0.1105	330195	keystroke_i	i	n/a
165.271	0.1365	330542	keystroke_n	n	n/a
165.495	0.114	330990	keystroke_u	u	n/a
166.038	0.136	332076	keystroke_x	x	n/a
166.312	0.1145	332624	keystroke_Key.space	Key.space	n/a
166.896	0.1115	333792	keystroke_v	v	n/a
167.16	0.092	334320	keystroke_i	i	n/a
168.416	0.156	336832	keystroke_c	c	n/a
168.852	0.1165	337704	keystroke_t	t	n/a
169.0855	0.138	338171	keystroke_o	o	n/a
169.2235	0.09	338447	keystroke_r	r	n/a
169.4385	0.134	338877	keystroke_Key.enter	Key.enter	n/a
169.579	12.0945	339158	prompt	n/a	differently worried thought belarus\n
170.682	0.0695	341364	keystroke_d	d	n/a
170.955	0.135	341910	keystroke_i	i	n/a
171.165	0.114	342330	keystroke_f	f	n/a
171.36	0.1395	342720	keystroke_f	f	n/a
172.019	0.1605	344038	keystroke_e	e	n/a
172.24	0.114	344480	keystroke_r	r	n/a
172.4685	0.114	344937	keystroke_e	e	n/a
172.7235	0.1355	345447	keystroke_n	n	n/a
172.9475	0.135	345895	keystroke_t	t	n/a
173.1795	0.158	346359	keystroke_l	l	n/a
173.36	0.0915	346720	keystroke_y	y	n/a
173.9075	0.1565	347815	keystroke_Key.space	Key.space	n/a
174.2905	0.136	348581	keystroke_w	w	n/a
174.4685	0.1565	348937	keystroke_o	o	n/a
174.674	0.0905	349348	keystroke_r	r	n/a
174.8625	0.0905	349725	keystroke_r	r	n/a
175.0485	0.135	350097	keystroke_i	i	n/a
175.205	0.115	350410	keystroke_e	e	n/a
175.4675	0.1335	350935	keystroke_d	d	n/a
175.6835	0.114	351367	keystroke_Key.space	Key.space	n/a
175.9695	0.114	351939	keystroke_t	t	n/a
176.1125	0.1155	352225	keystroke_h	h	n/a
176.29	0.114	352580	keystroke_r	r	n/a
176.427	0.158	352854	keystroke_o	o	n/a
176.644	0.1335	353288	keystroke_u	u	n/a
176.7985	0.114	353597	keystroke_g	g	n/a
176.967	0.1135	353934	keystroke_h	h	n/a
177.0565	0.115	354113	keystroke_t	t	n/a
177.329	0.155	354658	keystroke_Key.space	Key.space	n/a
178.5755	0.115	357151	keystroke_b	b	n/a
179.297	0.1145	358594	keystroke_e	e	n/a
179.607	0.1575	359214	keystroke_l	l	n/a
180.4215	0.2285	360843	keystroke_a	a	n/a
180.964	0.115	361928	keystroke_r	r	n/a
181.2335	0.114	362467	keystroke_u	u	n/a
181.3705	0.1135	362741	keystroke_s	s	n/a
181.5355	0.1355	363071	keystroke_Key.enter	Key.enter	n/a
181.6775	8.1885	363355	prompt	n/a	saint ment aren't activity\n
182.9715	0.136	365943	keystroke_s	s	n/a
183.1915	0.1335	366383	keystroke_a	a	n/a
183.37	0.137	366740	keystroke_i	i	n/a
183.554	0.1355	367108	keystroke_n	n	n/a
183.76	0.1135	367520	keystroke_t	t	n/a
184.0785	0.1135	368157	keystroke_Key.space	Key.space	n/a
184.3225	0.136	368645	keystroke_m	m	n/a
184.48	0.1135	368960	keystroke_e	e	n/a
184.57	0.158	369140	keystroke_n	n	n/a
184.761	0.114	369522	keystroke_t	t	n/a
184.998	0.135	369996	keystroke_Key.space	Key.space	n/a
185.2185	0.137	370437	keystroke_a	a	n/a
185.504	0.134	371008	keystroke_r	r	n/a
185.7155	0.113	371431	keystroke_e	e	n/a
185.9	0.115	371800	keystroke_n	n	n/a
186.9225	0.093	373845	keystroke_'	'	n/a
187.0165	0.092	374033	keystroke_t	t	n/a
187.25	0.1385	374500	keystroke_Key.space	Key.space	n/a
188	0.116	376000	keystroke_a	a	n/a
188.259	0.18	376518	keystroke_c	c	n/a
188.591	0.113	377182	keystroke_t	t	n/a
188.786	0.0905	377572	keystroke_i	i	n/a
188.962	0.1355	377924	keystroke_v	v	n/a
189.098	0.136	378196	keystroke_i	i	n/a
189.3215	0.1355	378643	keystroke_t	t	n/a
189.479	0.114	378958	keystroke_y	y	n/a
189.729	0.1345	379458	keystroke_Key.enter	Key.enter	n/a
189.87	14.2265	379740	prompt	n/a	hull methodology interior ratings\n
191.013	0.136	382026	keystroke_h	h	n/a
191.2345	0.0465	382469	keystroke_u	u	n/a
191.524	0.139	383048	keystroke_l	l	n/a
191.7285	0.137	383457	keystroke_l	l	n/a
191.819	0.137	383638	keystroke_Key.space	Key.space	n/a
192.0905	0.154	384181	keystroke_m	m	n/a
192.245	0.1345	384490	keystroke_e	e	n/a
192.5225	0.0905	385045	keystroke_t	t	n/a
192.657	0.135	385314	keystroke_h	h	n/a
193.64	0.115	387280	keystroke_o	o	n/a
193.843	0.112	387686	keystroke_d	d	n/a
194.83	0.137	389660	keystroke_o	o	n/a
196.3065	0.112	392613	keystroke_g	g	n/a
196.4675	0.112	392935	keystroke_y	y	n/a
197.033	0.1125	394066	keystroke_Key.space	Key.space	n/a
197.455	0.115	394910	keystroke_i	i	n/a
197.653	0.134	395306	keystroke_n	n	n/a
199.833	0.1135	399666	keystroke_e	e	n/a
200.0765	0.112	400153	keystroke_r	r	n/a
200.9515	0.158	401903	keystroke_i	i	n/a
201.6895	0.136	403379	keystroke_o	o	n/a
201.8685	0.113	403737	keystroke_r	r	n/a
202.3925	0.113	404785	keystroke_Key.space	Key.space	n/a
202.7295	0.092	405459	keystroke_r	r	n/a
202.9835	0.1365	405967	keystroke_a	a	n/a
203.2925	0.1145	406585	keystroke_t	t	n/a
203.4945	0.134	406989	keystroke_i	i	n/a
203.6505	0.137	407301	keystroke_n	n	n/a
203.7645	0.1365	407529	keystroke_g	g	n/a
203.978	0.117	407956	keystroke_Key.enter	Key.enter	n/a
204.1015	15.78	408203	prompt	n/a	compressed cited venture intense\n
205.161	0.1375	410322	keystroke_c	c	n/a
205.3205	0.1335	410641	keystroke_o	o	n/a
205.5005	0.1575	411001	keystroke_m	m	n/a
206.34	0.116	412680	keystroke_p	p	n/a
206.5865	0.113	413173	keystroke_r	r	n/a
206.7975	0.092	413595	keystroke_e	e	n/a
207.0135	0.0895	414027	keystroke_s	s	n/a
207.1925	0.1355	414385	keystroke_s	s	n/a
207.653	0.113	415306	keystroke_e	e	n/a
208.481	0.155	416962	keystroke_d	d	n/a
208.816	0.1375	417632	keystroke_Key.space	Key.space	n/a
209.325	0.112	418650	keystroke_c	c	n/a
209.554	0.115	419108	keystroke_i	i	n/a
209.757	0.09	419514	keystroke_t	t	n/a
209.9635	0.1145	419927	keystroke_e	e	n/a
210.204	0.1365	420408	keystroke_d	d	n/a
210.3615	0.139	420723	keystroke_Key.space	Key.space	n/a
210.9075	0.156	421815	keystroke_v	v	n/a
211.112	0.116	422224	keystroke_e	e	n/a
211.3935	0.159	422787	keystroke_m	m	n/a
212.387	0.0945	424774	keystroke_Key.backspace	Key.backspace	n/a
212.859	0.134	425718	keystroke_n	n	n/a
214.41	0.1365	428820	keystroke_t	t	n/a
214.687	0.1125	429374	keystroke_u	u	n/a
215.009	0.0915	430018	keystroke_e	e	n/a
215.5465	0.1145	431093	keystroke_Key.backspace	Key.backspace	n/a
215.7295	0.1125	431459	keystroke_r	r	n/a
215.9305	0.1155	431861	keystroke_e	e	n/a
216.2605	0.1355	432521	keystroke_Key.space	Key.space	n/a
216.743	0.113	433486	keystroke_i	i	n/a
216.929	0.114	433858	keystroke_n	n	n/a
218.4225	0.0465	436845	keystroke_t	t	n/a
218.632	0.157	437264	keystroke_e	e	n/a
219.0265	0.157	438053	keystroke_n	n	n/a
219.205	0.113	438410	keystroke_s	s	n/a
219.493	0.111	438986	keystroke_e	e	n/a
219.766	0.114	439532	keystroke_Key.enter	Key.enter	n/a
219.8885	9.7695	439777	prompt	n/a	keyboards martha sale delhi\n
220.76	0.115	441520	keystroke_k	k	n/a
220.8975	0.112	441795	keystroke_e	e	n/a
221.2855	0.067	442571	keystroke_y	y	n/a
221.544	0.091	443088	keystroke_b	b	n/a
221.831	0.112	443662	keystroke_o	o	n/a
222.023	0.1145	444046	keystroke_r	r	n/a
222.243	0.1365	444486	keystroke_e	e	n/a
222.4855	0.1355	444971	keystroke_d	d	n/a
222.6695	0.116	445339	keystroke_Key.space	Key.space	n/a
222.8995	0.1155	445799	keystroke_m	m	n/a
223.0475	0.134	446095	keystroke_a	a	n/a
223.4095	0.139	446819	keystroke_r	r	n/a
223.6875	0.092	447375	keystroke_t	t	n/a
223.845	0.1375	447690	keystroke_h	h	n/a
224.1035	0.1345	448207	keystroke_a	a	n/a
224.3275	0.137	448655	keystroke_Key.space	Key.space	n/a
224.5065	0.134	449013	keystroke_s	s	n/a
224.7315	0.159	449463	keystroke_a	a	n/a
224.8915	0.1105	449783	keystroke_l	l	n/a
225.0315	0.137	450063	keystroke_e	e	n/a
225.252	0.159	450504	keystroke_Key.space	Key.space	n/a
225.739	0.091	451478	keystroke_h	h	n/a
226.173	0.138	452346	keystroke_Key.backspace	Key.backspace	n/a
226.6035	0.114	453207	keystroke_d	d	n/a
226.876	0.1115	453752	keystroke_e	e	n/a
227.743	0.094	455486	keystroke_l	l	n/a
228.743	0.112	457486	keystroke_h	h	n/a
229.2365	0.1165	458473	keystroke_i	i	n/a
229.5185	0.138	459037	keystroke_Key.enter	Key.enter	n/a
229.6615	11.368	459323	prompt	n/a	doing she'll acres twenty\n
230.4945	0.112	460989	keystroke_d	d	n/a
230.781	0.136	461562	keystroke_o	o	n/a
230.9835	0.135	461967	keystroke_i	i	n/a
231.1395	0.137	462279	keystroke_n	n	n/a
231.2775	0.135	462555	keystroke_g	g	n/a
231.4965	0.137	462993	keystroke_Key.space	Key.space	n/a
231.8135	0.113	463627	keystroke_s	s	n/a
232.0715	0.0895	464143	keystroke_h	h	n/a
232.3985	0.115	464797	keystroke_e	e	n/a
232.8685	0.0895	465737	keystroke_'	'	n/a
233.033	0.0905	466066	keystroke_'	'	n/a
234.349	0.0685	468698	keystroke_Key.backspace	Key.backspace	n/a
235.544	0.112	471088	keystroke_l	l	n/a
235.7395	0.113	471479	keystroke_l	l	n/a
235.9245	0.1375	471849	keystroke_Key.space	Key.space	n/a
236.1645	0.156	472329	keystroke_a	a	n/a
236.7345	0.113	473469	keystroke_c	c	n/a
237.371	0.093	474742	keystroke_r	r	n/a
237.559	0.1115	475118	keystroke_e	e	n/a
237.8175	0.114	475635	keystroke_s	s	n/a
238.137	0.1335	476274	keystroke_Key.space	Key.space	n/a
238.7545	0.14	477509	keystroke_t	t	n/a
239.131	0.162	478262	keystroke_w	w	n/a
239.404	0.138	478808	keystroke_e	e	n/a
240.1865	0.1595	480373	keystroke_n	n	n/a
240.4295	0.1115	480859	keystroke_t	t	n/a
240.605	0.1155	481210	keystroke_y	y	n/a
240.936	0.092	481872	keystroke_Key.enter	Key.enter	n/a
241.0345	15.168	482069	prompt	n/a	vendors needn't adams modification\n
242.1255	0.1355	484251	keystroke_v	v	n/a
242.302	0.113	484604	keystroke_e	e	n/a
242.474	0.1145	484948	keystroke_n	n	n/a
242.64	0.1115	485280	keystroke_d	d	n/a
243.7045	0.138	487409	keystroke_o	o	n/a
243.8185	0.1125	487637	keystroke_r	r	n/a
244.0235	0.0905	488047	keystroke_e	e	n/a
244.9475	0.136	489895	keystroke_s	s	n/a
245.8175	0.135	491635	keystroke_Key.backspace	Key.backspace	n/a
246.0665	0.089	492133	keystroke_Key.backspace	Key.backspace	n/a
246.1975	0.179	492395	keystroke_s	s	n/a
246.4055	0.158	492811	keystroke_Key.space	Key.space	n/a
246.7615	0.091	493523	keystroke_n	n	n/a
246.9005	0.1165	493801	keystroke_e	e	n/a
247.088	0.089	494176	keystroke_e	e	n/a
247.3365	0.1595	494673	keystroke_d	d	n/a
248.5855	0.0905	497171	keystroke_n	n	n/a
249.0435	0.1355	498087	keystroke_'	'	n/a
249.338	0.113	498676	keystroke_t	t	n/a
249.625	0.136	499250	keystroke_Key.space	Key.space	n/a
250.039	0.1145	500078	keystroke_a	a	n/a
250.306	0.113	500612	keystroke_d	d	n/a
250.5665	0.0905	501133	keystroke_a	a	n/a
250.7025	0.1355	501405	keystroke_m	m	n/a
250.904	0.156	501808	keystroke_s	s	n/a
251.171	0.113	502342	keystroke_Key.space	Key.space	n/a
251.5175	0.1135	503035	keystroke_m	m	n/a
251.7115	0.111	503423	keystroke_o	o	n/a
251.844	0.136	503688	keystroke_d	d	n/a
252.237	0.1135	504474	keystroke_i	i	n/a
252.4045	0.114	504809	keystroke_f	f	n/a
252.7575	0.093	505515	keystroke_i	i	n/a
252.893	0.112	505786	keystroke_c	c	n/a
253.1315	0.1375	506263	keystroke_a	a	n/a
253.4735	0.1195	506947	keystroke_t	t	n/a
253.6735	0.113	507347	keystroke_i	i	n/a
253.919	0.136	507838	keystroke_o	o	n/a
254.141	0.138	508282	keystroke_n	n	n/a
255.0115	0.09	510023	keystroke_s	s	n/a
255.6945	0.113	511389	keystroke_Key.backspace	Key.backspace	n/a
256.1335	0.0675	512267	keystroke_Key.enter	Key.enter	n/a
256.207	28.4695	512414	prompt	n/a	farmers paragraph conduct working\n
269.5225	0.113	539045	keystroke_f	f	n/a
269.9915	0.091	539983	keystroke_a	a	n/a
270.8965	0.091	541793	keystroke_r	r	n/a
272.2985	0.113	544597	keystroke_m	m	n/a
272.4695	0.134	544939	keystroke_e	e	n/a
272.713	0.072	545426	keystroke_r	r	n/a
273.019	0.0455	546038	keystroke_s	s	n/a
274.29	0.16	548580	keystroke_Key.space	Key.space	n/a
274.884	0.1605	549768	keystroke_p	p	n/a
274.9995	0.113	549999	keystroke_a	a	n/a
275.38	0.1355	550760	keystroke_r	r	n/a
275.6915	0.113	551383	keystroke_a	a	n/a
276.707	0.1145	553414	keystroke_g	g	n/a
276.987	0.092	553974	keystroke_r	r	n/a
277.2495	0.113	554499	keystroke_a	a	n/a
278.0745	0.1385	556149	keystroke_p	p	n/a
278.553	0.1165	557106	keystroke_h	h	n/a
278.927	0.117	557854	keystroke_Key.space	Key.space	n/a
279.4925	0.069	558985	keystroke_c	c	n/a
279.854	0.157	559708	keystroke_o	o	n/a
280.076	0.113	560152	keystroke_n	n	n/a
281.08	0.091	562160	keystroke_d	d	n/a
281.3655	0.1135	562731	keystroke_u	u	n/a
281.501	0.1155	563002	keystroke_c	c	n/a
281.775	0.1125	563550	keystroke_t	t	n/a
282.0635	0.134	564127	keystroke_Key.space	Key.space	n/a
282.275	0.113	564550	keystroke_w	w	n/a
282.4905	0.1375	564981	keystroke_o	o	n/a
282.6505	0.113	565301	keystroke_r	r	n/a
282.8375	0.135	565675	keystroke_k	k	n/a
283.036	0.161	566072	keystroke_i	i	n/a
283.1735	0.1605	566347	keystroke_n	n	n/a
283.356	0.1135	566712	keystroke_g	g	n/a
284.585	0.0895	569170	keystroke_Key.enter	Key.enter	n/a
284.6815	32.4945	569363	prompt	n/a	martial amazing option correlation\n
304.805	0.113	609610	keystroke_m	m	n/a
305.7575	0.093	611515	keystroke_a	a	n/a
306.959	0.1145	613918	keystroke_r	r	n/a
307.501	0.1135	615002	keystroke_t	t	n/a
307.7585	0.138	615517	keystroke_i	i	n/a
307.8975	0.136	615795	keystroke_a	a	n/a
308.0805	0.112	616161	keystroke_l	l	n/a
308.266	0.1325	616532	keystroke_Key.space	Key.space	n/a
308.5395	0.0915	617079	keystroke_a	a	n/a
308.6825	0.1145	617365	keystroke_m	m	n/a
308.773	0.1355	617546	keystroke_a	a	n/a
309.0515	0.09	618103	keystroke_z	z	n/a
309.096	0.1335	618192	keystroke_i	i	n/a
309.325	0.1375	618650	keystroke_n	n	n/a
309.493	0.138	618986	keystroke_g	g	n/a
309.883	0.1355	619766	keystroke_Key.space	Key.space	n/a
310.67	0.1145	621340	keystroke_o	o	n/a
310.8745	0.114	621749	keystroke_p	p	n/a
311.075	0.09	622150	keystroke_t	t	n/a
311.4325	0.113	622865	keystroke_i	i	n/a
311.6255	0.134	623251	keystroke_o	o	n/a
311.7995	0.138	623599	keystroke_n	n	n/a
312.0335	0.112	624067	keystroke_Key.space	Key.space	n/a
312.3315	0.158	624663	keystroke_c	c	n/a
312.8135	0.0915	625627	keystroke_o	o	n/a
313.3515	0.0905	626703	keystroke_r	r	n/a
313.5675	0.09	627135	keystroke_r	r	n/a
314.3825	0.09	628765	keystroke_e	e	n/a
314.9465	0.1145	629893	keystroke_l	l	n/a
315.014	0.1365	630028	keystroke_a	a	n/a
315.367	0.114	630734	keystroke_t	t	n/a
315.631	0.068	631262	keystroke_i	i	n/a
315.825	0.112	631650	keystroke_o	o	n/a
316.294	0.091	632588	keystroke_n	n	n/a
317.084	0.09	634168	keystroke_Key.enter	Key.enter	n/a
317.181	21.057	634362	prompt	n/a	hundreds replication automotive digital\n
318.0995	0.115	636199	keystroke_h	h	n/a
318.317	0.136	636634	keystroke_u	u	n/a
318.6705	0.1575	637341	keystroke_n	n	n/a
319.604	0.137	639208	keystroke_d	d	n/a
320.002	0.113	640004	keystroke_r	r	n/a
320.398	0.0915	640796	keystroke_e	e	n/a
320.673	0.114	641346	keystroke_d	d	n/a
320.9565	0.113	641913	keystroke_s	s	n/a
321.234	0.1125	642468	keystroke_Key.space	Key.space	n/a
321.7635	0.0685	643527	keystroke_r	r	n/a
321.9415	0.1145	643883	keystroke_e	e	n/a
322.234	0.184	644468	keystroke_p	p	n/a
323.6635	0.072	647327	keystroke_l	l	n/a
323.8805	0.1355	647761	keystroke_i	i	n/a
324.0375	0.112	648075	keystroke_c	c	n/a
324.6545	0.137	649309	keystroke_a	a	n/a
325.0715	0.0905	650143	keystroke_t	t	n/a
325.21	0.09	650420	keystroke_i	i	n/a
325.408	0.112	650816	keystroke_o	o	n/a
325.8495	0.1115	651699	keystroke_n	n	n/a
326.182	0.179	652364	keystroke_Key.space	Key.space	n/a
327.248	0.1145	654496	keystroke_a	a	n/a
327.545	0.0915	655090	keystroke_u	u	n/a
327.699	0.116	655398	keystroke_t	t	n/a
327.899	0.138	655798	keystroke_o	o	n/a
328.724	0.091	657448	keystroke_m	m	n/a
328.925	0.113	657850	keystroke_o	o	n/a
329.092	0.092	658184	keystroke_t	t	n/a
329.5955	0.112	659191	keystroke_u	u	n/a
329.7845	0.18	659569	keystroke_c	c	n/a
330.038	0.0925	660076	keystroke_e	e	n/a
330.776	0.112	661552	keystroke_Key.backspace	Key.backspace	n/a
331.185	0.0905	662370	keystroke_Key.backspace	Key.backspace	n/a
331.7515	0.0915	663503	keystroke_Key.backspace	Key.backspace	n/a
332.7935	0.112	665587	keystroke_i	i	n/a
333.188	0.092	666376	keystroke_c	c	n/a
334.357	0.09	668714	keystroke_Key.backspace	Key.backspace	n/a
334.5765	0.1355	669153	keystroke_v	v	n/a
334.713	0.16	669426	keystroke_e	e	n/a
335.016	0.137	670032	keystroke_Key.space	Key.space	n/a
335.3235	0.113	670647	keystroke_d	d	n/a
335.5805	0.137	671161	keystroke_i	i	n/a
336.5695	0.112	673139	keystroke_g	g	n/a
336.8675	0.115	673735	keystroke_i	i	n/a
337.005	0.138	674010	keystroke_t	t	n/a
337.342	0.1335	674684	keystroke_a	a	n/a
337.499	0.135	674998	keystroke_l	l	n/a
338.166	0.07	676332	keystroke_Key.enter	Key.enter	n/a
338.2415	15.6185	676483	prompt	n/a	genes enhancement blame camcorder\n
339.4925	0.1125	678985	keystroke_g	g	n/a
339.65	0.136	679300	keystroke_e	e	n/a
339.884	0.112	679768	keystroke_n	n	n/a
340.1445	0.1365	680289	keystroke_e	e	n/a
340.559	0.135	681118	keystroke_s	s	n/a
340.978	0.113	681956	keystroke_Key.space	Key.space	n/a
341.5555	0.091	683111	keystroke_e	e	n/a
341.802	0.136	683604	keystroke_n	n	n/a
342.8405	0.115	685681	keystroke_h	h	n/a
343.042	0.1125	686084	keystroke_a	a	n/a
343.242	0.1135	686484	keystroke_n	n	n/a
345.1155	0.0715	690231	keystroke_c	c	n/a
345.3915	0.136	690783	keystroke_m	m	n/a
345.5285	0.112	691057	keystroke_e	e	n/a
345.6615	0.114	691323	keystroke_n	n	n/a
345.809	0.1125	691618	keystroke_t	t	n/a
346.3845	0.135	692769	keystroke_Key.space	Key.space	n/a
347.0405	0.091	694081	keystroke_b	b	n/a
347.2565	0.1175	694513	keystroke_l	l	n/a
347.414	0.133	694828	keystroke_a	a	n/a
347.568	0.1345	695136	keystroke_m	m	n/a
347.7745	0.1375	695549	keystroke_e	e	n/a
348.61	0.178	697220	keystroke_Key.space	Key.space	n/a
349.27	0.1125	698540	keystroke_c	c	n/a
349.5625	0.1345	699125	keystroke_a	a	n/a
349.7885	0.0905	699577	keystroke_m	m	n/a
350.65	0.1355	701300	keystroke_c	c	n/a
351.0485	0.1135	702097	keystroke_o	o	n/a
352.0575	0.113	704115	keystroke_r	r	n/a
352.3635	0.113	704727	keystroke_d	d	n/a
353.214	0.18	706428	keystroke_e	e	n/a
353.415	0.09	706830	keystroke_r	r	n/a
353.766	0.0915	707532	keystroke_Key.enter	Key.enter	n/a
353.864	11.8975	707728	prompt	n/a	assign episode head houston\n
354.773	0.112	709546	keystroke_a	a	n/a
355.013	0.068	710026	keystroke_s	s	n/a
355.179	0.094	710358	keystroke_s	s	n/a
356.012	0.135	712024	keystroke_i	i	n/a
356.1695	0.1145	712339	keystroke_g	g	n/a
356.2845	0.112	712569	keystroke_n	n	n/a
356.568	0.1385	713136	keystroke_Key.space	Key.space	n/a
357.1405	0.07	714281	keystroke_e	e	n/a
357.3305	0.1155	714661	keystroke_p	p	n/a
357.5765	0.1135	715153	keystroke_i	i	n/a
357.723	0.113	715446	keystroke_s	s	n/a
357.95	0.113	715900	keystroke_o	o	n/a
358.324	0.134	716648	keystroke_d	d	n/a
359.061	0.1115	718122	keystroke_e	e	n/a
359.4	0.1355	718800	keystroke_Key.space	Key.space	n/a
359.6755	0.091	719351	keystroke_h	h	n/a
359.7885	0.0925	719577	keystroke_e	e	n/a
360.0345	0.136	720069	keystroke_a	a	n/a
360.301	0.1175	720602	keystroke_d	d	n/a
360.514	0.139	721028	keystroke_Key.space	Key.space	n/a
361.4995	0.092	722999	keystroke_h	h	n/a
362.0655	0.114	724131	keystroke_u	u	n/a
363.015	0.114	726030	keystroke_Key.backspace	Key.backspace	n/a
363.3545	0.0915	726709	keystroke_o	o	n/a
363.6365	0.092	727273	keystroke_u	u	n/a
364.5015	0.1595	729003	keystroke_s	s	n/a
364.9635	0.116	729927	keystroke_t	t	n/a
365.1955	0.0925	730391	keystroke_o	o	n/a
365.3865	0.1365	730773	keystroke_n	n	n/a
365.646	0.1135	731292	keystroke_Key.enter	Key.enter	n/a
365.7655	12.647	731531	prompt	n/a	crossword deviant wanted contest\n
366.6665	0.1345	733333	keystroke_c	c	n/a
366.99	0.09	733980	keystroke_e	e	n/a
367.3645	0.1585	734729	keystroke_Key.backspace	Key.backspace	n/a
367.599	0.089	735198	keystroke_r	r	n/a
368.009	0.092	736018	keystroke_o	o	n/a
368.1245	0.1155	736249	keystroke_s	s	n/a
368.3135	0.115	736627	keystroke_s	s	n/a
368.7035	0.136	737407	keystroke_w	w	n/a
369.0115	0.136	738023	keystroke_o	o	n/a
369.2345	0.111	738469	keystroke_r	r	n/a
369.51	0.1125	739020	keystroke_d	d	n/a
369.9335	0.1335	739867	keystroke_Key.space	Key.space	n/a
370.4115	0.095	740823	keystroke_d	d	n/a
370.885	0.1095	741770	keystroke_e	e	n/a
371.355	0.114	742710	keystroke_v	v	n/a
372.181	0.135	744362	keystroke_i	i	n/a
372.516	0.136	745032	keystroke_a	a	n/a
372.692	0.114	745384	keystroke_n	n	n/a
373.604	0.112	747208	keystroke_Key.space	Key.space	n/a
373.891	0.1345	747782	keystroke_w	w	n/a
374.129	0.1365	748258	keystroke_a	a	n/a
374.288	0.1135	748576	keystroke_n	n	n/a
374.5205	0.113	749041	keystroke_t	t	n/a
374.7755	0.091	749551	keystroke_e	e	n/a
375.0735	0.18	750147	keystroke_d	d	n/a
375.4065	0.1125	750813	keystroke_Key.space	Key.space	n/a
376.062	0.135	752124	keystroke_c	c	n/a
376.304	0.112	752608	keystroke_o	o	n/a
376.546	0.1345	753092	keystroke_n	n	n/a
377.479	0.137	754958	keystroke_t	t	n/a
377.616	0.087	755232	keystroke_e	e	n/a
377.787	0.114	755574	keystroke_s	s	n/a
377.878	0.09	755756	keystroke_t	t	n/a
378.298	0.113	756596	keystroke_Key.enter	Key.enter	n/a
378.417	12.0305	756834	prompt	n/a	nuke barnes vendor player\n
379.768	0.1115	759536	keystroke_n	n	n/a
380.0475	0.1135	760095	keystroke_u	u	n/a
380.5545	0.111	761109	keystroke_k	k	n/a
380.8865	0.069	761773	keystroke_e	e	n/a
381.2365	0.113	762473	keystroke_Key.space	Key.space	n/a
381.737	0.0915	763474	keystroke_b	b	n/a
382.3095	0.1145	764619	keystroke_a	a	n/a
382.969	0.1155	765938	keystroke_r	r	n/a
383.8365	0.136	767673	keystroke_n	n	n/a
384.0515	0.158	768103	keystroke_e	e	n/a
384.3705	0.115	768741	keystroke_s	s	n/a
384.654	0.111	769308	keystroke_Key.space	Key.space	n/a
385.105	0.1145	770210	keystroke_v	v	n/a
385.5065	0.114	771013	keystroke_e	e	n/a
385.7445	0.0905	771489	keystroke_n	n	n/a
386.6325	0.18	773265	keystroke_d	d	n/a
386.845	0.1585	773690	keystroke_e	e	n/a
387.6305	0.116	775261	keystroke_o	o	n/a
387.7215	0.115	775443	keystroke_r	r	n/a
388.035	0.1565	776070	keystroke_Key.space	Key.space	n/a
389.2895	0.1345	778579	keystroke_p	p	n/a
389.4245	0.137	778849	keystroke_l	l	n/a
389.622	0.0925	779244	keystroke_a	a	n/a
389.8295	0.1125	779659	keystroke_y	y	n/a
389.981	0.137	779962	keystroke_e	e	n/a
390.1845	0.115	780369	keystroke_r	r	n/a
390.3315	0.114	780663	keystroke_Key.enter	Key.enter	n/a
390.4555	10.235	780911	prompt	n/a	others torture five these're\n
391.5375	0.1365	783075	keystroke_o	o	n/a
391.676	0.111	783352	keystroke_t	t	n/a
391.824	0.1115	783648	keystroke_h	h	n/a
391.958	0.0905	783916	keystroke_e	e	n/a
392.162	0.1145	784324	keystroke_r	r	n/a
392.3665	0.161	784733	keystroke_Key.space	Key.space	n/a
392.9655	0.1155	785931	keystroke_t	t	n/a
393.8925	0.136	787785	keystroke_o	o	n/a
394.5055	0.109	789011	keystroke_r	r	n/a
394.702	0.1135	789404	keystroke_t	t	n/a
395.0375	0.117	790075	keystroke_u	u	n/a
395.191	0.157	790382	keystroke_r	r	n/a
395.467	0.1155	790934	keystroke_e	e	n/a
395.8805	0.1595	791761	keystroke_Key.space	Key.space	n/a
396.063	0.112	792126	keystroke_f	f	n/a
396.255	0.1115	792510	keystroke_i	i	n/a
396.446	0.135	792892	keystroke_v	v	n/a
396.652	0.161	793304	keystroke_e	e	n/a
396.883	0.1145	793766	keystroke_Key.space	Key.space	n/a
397.397	0.1135	794794	keystroke_t	t	n/a
397.602	0.071	795204	keystroke_h	h	n/a
397.711	0.16	795422	keystroke_e	e	n/a
398.007	0.137	796014	keystroke_s	s	n/a
398.295	0.1155	796590	keystroke_e	e	n/a
399.102	0.1125	798204	keystroke_'	'	n/a
399.2715	0.112	798543	keystroke_r	r	n/a
399.526	0.114	799052	keystroke_e	e	n/a
400.62	0.068	801240	keystroke_Key.enter	Key.enter	n/a
400.695	12.7635	801390	prompt	n/a	considers taking stanley hartford\n
401.6515	0.1165	803303	keystroke_c	c	n/a
402.0205	0.204	804041	keystroke_o	o	n/a
402.2965	0.16	804593	keystroke_n	n	n/a
403.3425	0.114	806685	keystroke_s	s	n/a
403.5305	0.137	807061	keystroke_i	i	n/a
403.7435	0.1385	807487	keystroke_d	d	n/a
404.0825	0.159	808165	keystroke_e	e	n/a
404.4205	0.135	808841	keystroke_r	r	n/a
404.761	0.135	809522	keystroke_s	s	n/a
404.992	0.158	809984	keystroke_Key.space	Key.space	n/a
405.567	0.0695	811134	keystroke_t	t	n/a
405.79	0.134	811580	keystroke_a	a	n/a
405.946	0.113	811892	keystroke_l	l	n/a
406.1755	0.091	812351	keystroke_k	k	n/a
406.307	0.1565	812614	keystroke_i	i	n/a
406.4645	0.1355	812929	keystroke_n	n	n/a
406.622	0.112	813244	keystroke_g	g	n/a
406.8315	0.136	813663	keystroke_Key.space	Key.space	n/a
407.492	0.1125	814984	keystroke_s	s	n/a
407.839	0.113	815678	keystroke_t	t	n/a
408.1955	0.1375	816391	keystroke_a	a	n/a
409.087	0.0915	818174	keystroke_n	n	n/a
409.325	0.114	818650	keystroke_t	t	n/a
409.536	0.1335	819072	keystroke_l	l	n/a
409.6705	0.1115	819341	keystroke_y	y	n/a
410.005	0.181	820010	keystroke_Key.space	Key.space	n/a
410.8375	0.114	821675	keystroke_h	h	n/a
410.9055	0.137	821811	keystroke_a	a	n/a
411.212	0.1135	822424	keystroke_r	r	n/a
411.3815	0.0915	822763	keystroke_t	t	n/a
412.3685	0.091	824737	keystroke_f	f	n/a
412.652	0.111	825304	keystroke_o	o	n/a
412.849	0.114	825698	keystroke_r	r	n/a
413.0845	0.136	826169	keystroke_d	d	n/a
413.3445	0.112	826689	keystroke_Key.enter	Key.enter	n/a
413.462	13.4135	826924	prompt	n/a	longer came resulting nicaragua\n
414.4525	0.1135	828905	keystroke_l	l	n/a
414.6875	0.114	829375	keystroke_o	o	n/a
414.8795	0.135	829759	keystroke_n	n	n/a
415.015	0.112	830030	keystroke_g	g	n/a
415.264	0.1365	830528	keystroke_e	e	n/a
415.509	0.071	831018	keystroke_r	r	n/a
415.657	0.158	831314	keystroke_Key.space	Key.space	n/a
415.96	0.1345	831920	keystroke_c	c	n/a
416.5165	0.111	833033	keystroke_a	a	n/a
416.7145	0.112	833429	keystroke_m	m	n/a
416.8485	0.095	833697	keystroke_e	e	n/a
417.1535	0.156	834307	keystroke_Key.space	Key.space	n/a
417.921	0.1115	835842	keystroke_r	r	n/a
418.7815	0.092	837563	keystroke_e	e	n/a
419.0715	0.112	838143	keystroke_s	s	n/a
419.4065	0.068	838813	keystroke_u	u	n/a
419.694	0.1145	839388	keystroke_l	l	n/a
420.6105	0.109	841221	keystroke_t	t	n/a
420.7965	0.1375	841593	keystroke_i	i	n/a
420.9555	0.136	841911	keystroke_n	n	n/a
421.0925	0.133	842185	keystroke_g	g	n/a
421.3355	0.134	842671	keystroke_Key.space	Key.space	n/a
422.1215	0.114	844243	keystroke_n	n	n/a
422.3095	0.138	844619	keystroke_i	i	n/a
422.5795	0.1135	845159	keystroke_c	c	n/a
423.453	0.135	846906	keystroke_a	a	n/a
423.818	0.134	847636	keystroke_r	r	n/a
424.117	0.114	848234	keystroke_a	a	n/a
425.107	0.1135	850214	keystroke_h	h	n/a
425.3725	0.09	850745	keystroke_u	u	n/a
426.482	0.136	852964	keystroke_a	a	n/a
426.786	0.088	853572	keystroke_Key.enter	Key.enter	n/a
426.879	16.339	853758	prompt	n/a	ethernet colombia assault eagle\n
427.828	0.112	855656	keystroke_e	e	n/a
428.146	0.0455	856292	keystroke_t	t	n/a
428.3805	0.1135	856761	keystroke_h	h	n/a
428.4965	0.1335	856993	keystroke_e	e	n/a
428.7435	0.1125	857487	keystroke_r	r	n/a
429.4205	0.116	858841	keystroke_n	n	n/a
429.5375	0.1095	859075	keystroke_e	e	n/a
429.8295	0.1345	859659	keystroke_t	t	n/a
434.908	0.137	869816	keystroke_Key.space	Key.space	n/a
435.4495	0.092	870899	keystroke_c	c	n/a
435.6175	0.137	871235	keystroke_o	o	n/a
435.907	0.161	871814	keystroke_l	l	n/a
436.235	0.138	872470	keystroke_o	o	n/a
436.924	0.091	873848	keystroke_b	b	n/a
437.165	0.116	874330	keystroke_i	i	n/a
438.0435	0.138	876087	keystroke_a	a	n/a
438.3135	0.159	876627	keystroke_Key.space	Key.space	n/a
438.848	0.091	877696	keystroke_a	a	n/a
439.069	0.091	878138	keystroke_s	s	n/a
439.2405	0.1125	878481	keystroke_s	s	n/a
440.3005	0.1155	880601	keystroke_a	a	n/a
440.513	0.092	881026	keystroke_u	u	n/a
440.844	0.115	881688	keystroke_l	l	n/a
441.0015	0.157	882003	keystroke_t	t	n/a
441.3095	0.136	882619	keystroke_Key.space	Key.space	n/a
441.844	0.1145	883688	keystroke_e	e	n/a
442.116	0.0915	884232	keystroke_a	a	n/a
442.529	0.0695	885058	keystroke_g	g	n/a
442.7175	0.1365	885435	keystroke_l	l	n/a
442.8295	0.1375	885659	keystroke_e	e	n/a
443.126	0.09	886252	keystroke_Key.enter	Key.enter	n/a
443.2225	9.947	886445	prompt	n/a	votes adams autumn friends\n
444.2835	0.1115	888567	keystroke_v	v	n/a
444.613	0.139	889226	keystroke_o	o	n/a
444.953	0.1135	889906	keystroke_t	t	n/a
445.199	0.136	890398	keystroke_e	e	n/a
445.453	0.156	890906	keystroke_s	s	n/a
445.7575	0.137	891515	keystroke_Key.space	Key.space	n/a
445.98	0.115	891960	keystroke_a	a	n/a
446.2595	0.112	892519	keystroke_d	d	n/a
446.4925	0.1135	892985	keystroke_a	a	n/a
446.7945	0.0905	893589	keystroke_m	m	n/a
446.9715	0.115	893943	keystroke_Key.space	Key.space	n/a
447.4065	0.111	894813	keystroke_a	a	n/a
447.6955	0.135	895391	keystroke_u	u	n/a
448.1425	0.137	896285	keystroke_t	t	n/a
449.0565	0.114	898113	keystroke_u	u	n/a
450.2045	0.1135	900409	keystroke_m	m	n/a
450.414	0.112	900828	keystroke_n	n	n/a
450.677	0.1145	901354	keystroke_Key.space	Key.space	n/a
451.175	0.092	902350	keystroke_f	f	n/a
451.3805	0.0905	902761	keystroke_r	r	n/a
451.5665	0.092	903133	keystroke_i	i	n/a
451.688	0.114	903376	keystroke_e	e	n/a
451.866	0.116	903732	keystroke_n	n	n/a
452.004	0.113	904008	keystroke_d	d	n/a
452.6875	0.135	905375	keystroke_s	s	n/a
453.053	0.114	906106	keystroke_Key.enter	Key.enter	n/a
453.174	15.5855	906348	prompt	n/a	answering bumper bleeding demand\n
454.5375	0.1135	909075	keystroke_a	a	n/a
454.691	0.1105	909382	keystroke_n	n	n/a
454.9175	0.1595	909835	keystroke_s	s	n/a
455.486	0.1135	910972	keystroke_w	w	n/a
455.7185	0.1835	911437	keystroke_e	e	n/a
457.1785	0.092	914357	keystroke_r	r	n/a
457.78	0.135	915560	keystroke_i	i	n/a
457.9475	0.162	915895	keystroke_n	n	n/a
458.1095	0.11	916219	keystroke_g	g	n/a
458.3275	0.139	916655	keystroke_Key.space	Key.space	n/a
458.934	0.0685	917868	keystroke_b	b	n/a
459.186	0.113	918372	keystroke_u	u	n/a
459.9905	0.1125	919981	keystroke_m	m	n/a
460.5935	0.115	921187	keystroke_b	b	n/a
460.7725	0.1115	921545	keystroke_e	e	n/a
460.9545	0.112	921909	keystroke_r	r	n/a
461.2655	0.16	922531	keystroke_Key.space	Key.space	n/a
461.9095	0.113	923819	keystroke_b	b	n/a
462.1295	0.0925	924259	keystroke_l	l	n/a
462.2435	0.0905	924487	keystroke_e	e	n/a
462.434	0.0905	924868	keystroke_e	e	n/a
462.623	0.113	925246	keystroke_d	d	n/a
462.788	0.16	925576	keystroke_i	i	n/a
462.9705	0.1375	925941	keystroke_n	n	n/a
463.109	0.1115	926218	keystroke_g	g	n/a
463.432	0.137	926864	keystroke_Key.space	Key.space	n/a
465.7555	0.091	931511	keystroke_d	d	n/a
466.0035	0.089	932007	keystroke_e	e	n/a
466.1995	0.137	932399	keystroke_m	m	n/a
466.9725	0.1155	933945	keystroke_a	a	n/a
467.1465	0.1125	934293	keystroke_n	n	n/a
467.28	0.136	934560	keystroke_d	d	n/a
468.643	0.1145	937286	keystroke_Key.enter	Key.enter	n/a
468.764	24.16	937528	prompt	n/a	potatoes findarticles campbell vocational\n
470.137	0.159	940274	keystroke_p	p	n/a
470.8385	0.114	941677	keystroke_o	o	n/a
471.6895	0.134	943379	keystroke_t	t	n/a
472.6865	0.1355	945373	keystroke_a	a	n/a
473.25	0.116	946500	keystroke_t	t	n/a
473.514	0.135	947028	keystroke_o	o	n/a
473.7115	0.1145	947423	keystroke_e	e	n/a
474.0115	0.16	948023	keystroke_s	s	n/a
474.3565	0.135	948713	keystroke_Key.space	Key.space	n/a
475.4	0.1385	950800	keystroke_f	f	n/a
475.6255	0.1375	951251	keystroke_i	i	n/a
475.8185	0.1355	951637	keystroke_n	n	n/a
476.961	0.09	953922	keystroke_d	d	n/a
477.197	0.1155	954394	keystroke_a	a	n/a
477.567	0.159	955134	keystroke_r	r	n/a
478.7555	0.1145	957511	keystroke_d	d	n/a
481.8555	0.1355	963711	keystroke_a	a	n/a
482.3265	0.0915	964653	keystroke_r	r	n/a
482.5375	0.112	965075	keystroke_t	t	n/a
483.6275	0.1115	967255	keystroke_c	c	n/a
484.079	0.137	968158	keystroke_l	l	n/a
484.1685	0.138	968337	keystroke_e	e	n/a
484.401	0.157	968802	keystroke_s	s	n/a
484.626	0.136	969252	keystroke_Key.space	Key.space	n/a
484.83	0.137	969660	keystroke_c	c	n/a
485.0945	0.113	970189	keystroke_a	a	n/a
485.3175	0.1355	970635	keystroke_m	m	n/a
486.7515	0.134	973503	keystroke_b	b	n/a
487.6895	0.114	975379	keystroke_e	e	n/a
487.911	0.1125	975822	keystroke_l	l	n/a
488.104	0.114	976208	keystroke_l	l	n/a
488.263	0.116	976526	keystroke_Key.space	Key.space	n/a
488.811	0.094	977622	keystroke_v	v	n/a
489.073	0.1135	978146	keystroke_o	o	n/a
489.897	0.115	979794	keystroke_c	c	n/a
490.461	0.116	980922	keystroke_a	a	n/a
490.771	0.114	981542	keystroke_t	t	n/a
491.2055	0.1135	982411	keystroke_i	i	n/a
491.3965	0.1345	982793	keystroke_o	o	n/a
491.6075	0.115	983215	keystroke_n	n	n/a
492.466	0.0905	984932	keystroke_a	a	n/a
492.604	0.1115	985208	keystroke_l	l	n/a
492.811	0.1115	985622	keystroke_Key.enter	Key.enter	n/a
492.928	11.6995	985856	prompt	n/a	gnome mattress girls evolution\n
494.0415	0.1145	988083	keystroke_g	g	n/a
494.251	0.1135	988502	keystroke_n	n	n/a
494.5105	0.112	989021	keystroke_o	o	n/a
494.773	0.1595	989546	keystroke_m	m	n/a
494.9545	0.113	989909	keystroke_e	e	n/a
495.385	0.1335	990770	keystroke_Key.space	Key.space	n/a
495.711	0.113	991422	keystroke_m	m	n/a
495.845	0.0905	991690	keystroke_a	a	n/a
496.086	0.115	992172	keystroke_t	t	n/a
496.284	0.089	992568	keystroke_t	t	n/a
496.5025	0.135	993005	keystroke_e	e	n/a
496.7675	0.137	993535	keystroke_r	r	n/a
497.5575	0.135	995115	keystroke_Key.backspace	Key.backspace	n/a
497.862	0.1135	995724	keystroke_s	s	n/a
499.3805	0.157	998761	keystroke_s	s	n/a
499.5865	0.16	999173	keystroke_Key.space	Key.space	n/a
500.2495	0.115	1000499	keystroke_g	g	n/a
500.3855	0.112	1000771	keystroke_i	i	n/a
500.601	0.09	1001202	keystroke_r	r	n/a
500.7935	0.137	1001587	keystroke_l	l	n/a
500.9675	0.1335	1001935	keystroke_s	s	n/a
501.1865	0.1335	1002373	keystroke_Key.space	Key.space	n/a
501.7805	0.137	1003561	keystroke_e	e	n/a
502.04	0.158	1004080	keystroke_v	v	n/a
502.2875	0.1355	1004575	keystroke_o	o	n/a
502.4885	0.1365	1004977	keystroke_l	l	n/a
503.539	0.092	1007078	keystroke_u	u	n/a
503.7	0.092	1007400	keystroke_t	t	n/a
503.9665	0.09	1007933	keystroke_i	i	n/a
504.156	0.1355	1008312	keystroke_o	o	n/a
504.3135	0.11	1008627	keystroke_n	n	n/a
504.5135	0.1125	1009027	keystroke_Key.enter	Key.enter	n/a
504.63	17.293	1009260	prompt	n/a	several unemployment herein logitech\n
505.501	0.114	1011002	keystroke_s	s	n/a
505.771	0.136	1011542	keystroke_e	e	n/a
506.045	0.0905	1012090	keystroke_v	v	n/a
506.1905	0.0905	1012381	keystroke_e	e	n/a
506.36	0.114	1012720	keystroke_r	r	n/a
506.741	0.115	1013482	keystroke_a	a	n/a
506.96	0.1375	1013920	keystroke_l	l	n/a
507.215	0.1325	1014430	keystroke_Key.space	Key.space	n/a
507.8165	0.111	1015633	keystroke_u	u	n/a
507.9855	0.137	1015971	keystroke_n	n	n/a
508.2125	0.094	1016425	keystroke_e	e	n/a
508.3905	0.134	1016781	keystroke_m	m	n/a
508.7305	0.137	1017461	keystroke_p	p	n/a
508.9285	0.114	1017857	keystroke_l	l	n/a
511.065	0.1365	1022130	keystroke_o	o	n/a
511.4675	0.092	1022935	keystroke_y	y	n/a
511.7915	0.135	1023583	keystroke_m	m	n/a
511.9495	0.092	1023899	keystroke_e	e	n/a
512.064	0.115	1024128	keystroke_n	n	n/a
512.1805	0.1115	1024361	keystroke_t	t	n/a
512.4345	0.135	1024869	keystroke_Key.space	Key.space	n/a
513.0065	0.116	1026013	keystroke_h	h	n/a
513.5815	0.1585	1027163	keystroke_e	e	n/a
513.8555	0.136	1027711	keystroke_r	r	n/a
514.1105	0.135	1028221	keystroke_e	e	n/a
514.5845	0.1145	1029169	keystroke_i	i	n/a
514.7635	0.1145	1029527	keystroke_n	n	n/a
514.9545	0.136	1029909	keystroke_Key.space	Key.space	n/a
515.561	0.112	1031122	keystroke_l	l	n/a
515.758	0.162	1031516	keystroke_o	o	n/a
516.0765	0.1135	1032153	keystroke_g	g	n/a
517.36	0.115	1034720	keystroke_i	i	n/a
517.56	0.068	1035120	keystroke_t	t	n/a
518.4295	0.136	1036859	keystroke_h	h	n/a
518.9765	0.136	1037953	keystroke_Key.backspace	Key.backspace	n/a
519.5325	0.1125	1039065	keystroke_e	e	n/a
520.9775	0.114	1041955	keystroke_c	c	n/a
521.505	0.09	1043010	keystroke_h	h	n/a
521.808	0.113	1043616	keystroke_Key.enter	Key.enter	n/a
521.928	13.6585	1043856	prompt	n/a	prevention exception baseball easier\n
523.0345	0.134	1046069	keystroke_p	p	n/a
523.258	0.1125	1046516	keystroke_r	r	n/a
523.4525	0.114	1046905	keystroke_e	e	n/a
524.0035	0.07	1048007	keystroke_v	v	n/a
524.28	0.1135	1048560	keystroke_e	e	n/a
525.1805	0.0905	1050361	keystroke_n	n	n/a
525.4955	0.1145	1050991	keystroke_t	t	n/a
525.7835	0.0915	1051567	keystroke_i	i	n/a
525.9795	0.0925	1051959	keystroke_o	o	n/a
526.124	0.135	1052248	keystroke_n	n	n/a
526.288	0.1345	1052576	keystroke_Key.space	Key.space	n/a
526.6965	0.112	1053393	keystroke_e	e	n/a
527.297	0.1125	1054594	keystroke_x	x	n/a
527.8535	0.18	1055707	keystroke_c	c	n/a
528.0885	0.18	1056177	keystroke_e	e	n/a
528.4215	0.143	1056843	keystroke_p	p	n/a
528.7695	0.0915	1057539	keystroke_t	t	n/a
529.3065	0.115	1058613	keystroke_i	i	n/a
529.5265	0.137	1059053	keystroke_o	o	n/a
529.707	0.1365	1059414	keystroke_n	n	n/a
530.0345	0.135	1060069	keystroke_Key.space	Key.space	n/a
530.3675	0.113	1060735	keystroke_b	b	n/a
530.5025	0.1125	1061005	keystroke_a	a	n/a
530.677	0.1365	1061354	keystroke_s	s	n/a
531.1925	0.0905	1062385	keystroke_b	b	n/a
531.782	0.112	1063564	keystroke_a	a	n/a
531.9775	0.1145	1063955	keystroke_l	l	n/a
532.195	0.0895	1064390	keystroke_l	l	n/a
532.641	0.135	1065282	keystroke_Key.space	Key.space	n/a
533.029	0.091	1066058	keystroke_e	e	n/a
533.28	0.1145	1066560	keystroke_a	a	n/a
533.459	0.1375	1066918	keystroke_s	s	n/a
533.903	0.091	1067806	keystroke_o	o	n/a
534.2835	0.138	1068567	keystroke_Key.backspace	Key.backspace	n/a
534.8375	0.114	1069675	keystroke_i	i	n/a
534.9735	0.113	1069947	keystroke_e	e	n/a
535.166	0.1115	1070332	keystroke_r	r	n/a
535.4705	0.1135	1070941	keystroke_Key.enter	Key.enter	n/a
535.6055	15.9885	1071211	prompt	n/a	inherited penny creating impossible\n
536.5875	0.109	1073175	keystroke_i	i	n/a
536.7565	0.135	1073513	keystroke_n	n	n/a
537.1495	0.134	1074299	keystroke_h	h	n/a
538.0785	0.135	1076157	keystroke_e	e	n/a
538.7345	0.138	1077469	keystroke_r	r	n/a
539.7385	0.117	1079477	keystroke_i	i	n/a
539.895	0.1135	1079790	keystroke_t	t	n/a
540.1115	0.133	1080223	keystroke_e	e	n/a
540.3555	0.1365	1080711	keystroke_d	d	n/a
540.522	0.1345	1081044	keystroke_Key.space	Key.space	n/a
540.949	0.112	1081898	keystroke_p	p	n/a
541.0915	0.116	1082183	keystroke_e	e	n/a
541.3795	0.09	1082759	keystroke_n	n	n/a
541.548	0.093	1083096	keystroke_n	n	n/a
542.0395	0.0885	1084079	keystroke_y	y	n/a
542.643	0.1585	1085286	keystroke_Key.space	Key.space	n/a
543.487	0.111	1086974	keystroke_c	c	n/a
543.779	0.091	1087558	keystroke_r	r	n/a
543.965	0.1165	1087930	keystroke_e	e	n/a
544.231	0.1155	1088462	keystroke_a	a	n/a
544.5195	0.113	1089039	keystroke_t	t	n/a
547.4515	0.158	1094903	keystroke_i	i	n/a
547.6915	0.158	1095383	keystroke_n	n	n/a
547.8495	0.113	1095699	keystroke_g	g	n/a
548.1105	0.16	1096221	keystroke_Key.space	Key.space	n/a
549.015	0.115	1098030	keystroke_i	i	n/a
549.181	0.136	1098362	keystroke_m	m	n/a
549.5595	0.114	1099119	keystroke_p	p	n/a
549.8515	0.0905	1099703	keystroke_o	o	n/a
550.1435	0.0915	1100287	keystroke_s	s	n/a
550.291	0.114	1100582	keystroke_s	s	n/a
550.5855	0.135	1101171	keystroke_i	i	n/a
550.834	0.113	1101668	keystroke_b	b	n/a
551.081	0.1595	1102162	keystroke_l	l	n/a
551.263	0.137	1102526	keystroke_e	e	n/a
551.546	0.0465	1103092	keystroke_Key.enter	Key.enter	n/a
551.598	13.9635	1103196	prompt	n/a	intended briefing necessary holiday\n
552.5695	0.1335	1105139	keystroke_i	i	n/a
552.7245	0.137	1105449	keystroke_n	n	n/a
552.9425	0.114	1105885	keystroke_t	t	n/a
553.196	0.1335	1106392	keystroke_e	e	n/a
553.377	0.1355	1106754	keystroke_n	n	n/a
553.5135	0.1135	1107027	keystroke_d	d	n/a
553.788	0.135	1107576	keystroke_e	e	n/a
553.998	0.16	1107996	keystroke_d	d	n/a
554.234	0.136	1108468	keystroke_Key.space	Key.space	n/a
554.7675	0.1345	1109535	keystroke_b	b	n/a
554.991	0.111	1109982	keystroke_r	r	n/a
556.102	0.116	1112204	keystroke_i	i	n/a
556.2395	0.1125	1112479	keystroke_e	e	n/a
557.1665	0.134	1114333	keystroke_f	f	n/a
557.387	0.1365	1114774	keystroke_i	i	n/a
557.5245	0.136	1115049	keystroke_n	n	n/a
557.6365	0.115	1115273	keystroke_g	g	n/a
557.858	0.134	1115716	keystroke_Key.space	Key.space	n/a
558.519	0.136	1117038	keystroke_n	n	n/a
558.7235	0.112	1117447	keystroke_e	e	n/a
559.4375	0.1355	1118875	keystroke_c	c	n/a
560.856	0.091	1121712	keystroke_e	e	n/a
561.486	0.0905	1122972	keystroke_s	s	n/a
561.6775	0.135	1123355	keystroke_s	s	n/a
562.3585	0.1355	1124717	keystroke_a	a	n/a
562.654	0.1145	1125308	keystroke_r	r	n/a
563.274	0.1145	1126548	keystroke_y	y	n/a
563.489	0.113	1126978	keystroke_Key.space	Key.space	n/a
563.98	0.138	1127960	keystroke_h	h	n/a
564.203	0.137	1128406	keystroke_o	o	n/a
564.3925	0.14	1128785	keystroke_l	l	n/a
564.6485	0.137	1129297	keystroke_i	i	n/a
564.7615	0.0915	1129523	keystroke_d	d	n/a
564.976	0.139	1129952	keystroke_a	a	n/a
565.116	0.115	1130232	keystroke_y	y	n/a
565.4675	0.092	1130935	keystroke_Key.enter	Key.enter	n/a
565.5665	6.6535	1131133	prompt	n/a	kind seating word joint\n
566.4925	0.113	1132985	keystroke_k	k	n/a
566.656	0.137	1133312	keystroke_i	i	n/a
566.816	0.136	1133632	keystroke_n	n	n/a
566.954	0.112	1133908	keystroke_g	g	n/a
567.225	0.1375	1134450	keystroke_Key.space	Key.space	n/a
567.9255	0.135	1135851	keystroke_s	s	n/a
568.1785	0.0925	1136357	keystroke_e	e	n/a
568.3695	0.137	1136739	keystroke_a	a	n/a
568.664	0.113	1137328	keystroke_t	t	n/a
568.809	0.1145	1137618	keystroke_i	i	n/a
568.924	0.1345	1137848	keystroke_n	n	n/a
569.0355	0.0925	1138071	keystroke_g	g	n/a
569.2165	0.138	1138433	keystroke_Key.space	Key.space	n/a
569.5235	0.112	1139047	keystroke_w	w	n/a
569.6885	0.1355	1139377	keystroke_o	o	n/a
569.864	0.114	1139728	keystroke_r	r	n/a
570.1485	0.16	1140297	keystroke_l	l	n/a
570.3395	0.138	1140679	keystroke_d	d	n/a
570.576	0.1155	1141152	keystroke_Key.space	Key.space	n/a
571.228	0.0915	1142456	keystroke_j	j	n/a
571.38	0.1125	1142760	keystroke_o	o	n/a
571.568	0.113	1143136	keystroke_i	i	n/a
571.7415	0.1355	1143483	keystroke_n	n	n/a
571.878	0.113	1143756	keystroke_t	t	n/a
572.1255	0.093	1144251	keystroke_Key.enter	Key.enter	n/a
572.226	14.754	1144452	prompt	n/a	joan windsor comes nintendo\n
573.2455	0.136	1146491	keystroke_j	j	n/a
573.4665	0.113	1146933	keystroke_o	o	n/a
574.176	0.1145	1148352	keystroke_a	a	n/a
574.2915	0.091	1148583	keystroke_n	n	n/a
574.6145	0.159	1149229	keystroke_Key.space	Key.space	n/a
576.6595	0.091	1153319	keystroke_w	w	n/a
576.9145	0.1115	1153829	keystroke_i	i	n/a
577.8615	0.111	1155723	keystroke_n	n	n/a
579.1675	0.113	1158335	keystroke_d	d	n/a
579.3965	0.111	1158793	keystroke_s	s	n/a
579.618	0.1135	1159236	keystroke_o	o	n/a
581.7455	0.1345	1163491	keystroke_r	r	n/a
582.191	0.139	1164382	keystroke_Key.space	Key.space	n/a
582.603	0.1375	1165206	keystroke_c	c	n/a
582.778	0.1145	1165556	keystroke_o	o	n/a
582.9275	0.16	1165855	keystroke_m	m	n/a
583.088	0.088	1166176	keystroke_e	e	n/a
583.353	0.112	1166706	keystroke_s	s	n/a
583.547	0.138	1167094	keystroke_Key.space	Key.space	n/a
583.9145	0.135	1167829	keystroke_n	n	n/a
584.1205	0.134	1168241	keystroke_i	i	n/a
584.3255	0.16	1168651	keystroke_n	n	n/a
585.67	0.115	1171340	keystroke_t	t	n/a
585.904	0.116	1171808	keystroke_e	e	n/a
586.178	0.111	1172356	keystroke_n	n	n/a
586.311	0.115	1172622	keystroke_d	d	n/a
586.448	0.1375	1172896	keystroke_o	o	n/a
586.9085	0.07	1173817	keystroke_Key.enter	Key.enter	n/a
586.9855	13.948	1173971	prompt	n/a	breeding require promotes charge\n
587.86	0.0915	1175720	keystroke_b	b	n/a
588.0345	0.1145	1176069	keystroke_r	r	n/a
588.252	0.092	1176504	keystroke_e	e	n/a
588.419	0.1135	1176838	keystroke_e	e	n/a
588.621	0.1365	1177242	keystroke_d	d	n/a
588.83	0.1575	1177660	keystroke_i	i	n/a
589.0225	0.115	1178045	keystroke_n	n	n/a
589.169	0.134	1178338	keystroke_g	g	n/a
589.458	0.136	1178916	keystroke_Key.space	Key.space	n/a
589.8875	0.0925	1179775	keystroke_r	r	n/a
590.082	0.113	1180164	keystroke_e	e	n/a
591.305	0.093	1182610	keystroke_q	q	n/a
591.6055	0.111	1183211	keystroke_u	u	n/a
591.9045	0.1355	1183809	keystroke_i	i	n/a
592.041	0.135	1184082	keystroke_r	r	n/a
592.32	0.135	1184640	keystroke_e	e	n/a
592.639	0.137	1185278	keystroke_Key.space	Key.space	n/a
593.4815	0.1155	1186963	keystroke_p	p	n/a
593.653	0.114	1187306	keystroke_r	r	n/a
593.996	0.159	1187992	keystroke_o	o	n/a
595.084	0.1575	1190168	keystroke_m	m	n/a
596.377	0.136	1192754	keystroke_o	o	n/a
596.695	0.1125	1193390	keystroke_t	t	n/a
596.848	0.135	1193696	keystroke_e	e	n/a
597.114	0.1365	1194228	keystroke_s	s	n/a
597.284	0.1355	1194568	keystroke_Key.space	Key.space	n/a
597.6095	0.1105	1195219	keystroke_c	c	n/a
597.7885	0.1135	1195577	keystroke_h	h	n/a
597.9035	0.133	1195807	keystroke_a	a	n/a
598.1795	0.136	1196359	keystroke_r	r	n/a
598.348	0.1175	1196696	keystroke_g	g	n/a
598.7425	0.1355	1197485	keystroke_w	w	n/a
599.701	0.114	1199402	keystroke_Key.backspace	Key.backspace	n/a
600.133	0.113	1200266	keystroke_e	e	n/a
600.8625	0.0685	1201725	keystroke_Key.enter	Key.enter	n/a
600.9375	19.223	1201875	prompt	n/a	context recall concluded alien\n
604.5115	0.112	1209023	keystroke_c	c	n/a
604.712	0.136	1209424	keystroke_o	o	n/a
604.9965	0.1115	1209993	keystroke_n	n	n/a
605.9625	0.114	1211925	keystroke_t	t	n/a
606.2395	0.136	1212479	keystroke_e	e	n/a
606.547	0.1155	1213094	keystroke_x	x	n/a
606.717	0.1575	1213434	keystroke_t	t	n/a
606.951	0.113	1213902	keystroke_Key.space	Key.space	n/a
607.665	0.0675	1215330	keystroke_r	r	n/a
607.889	0.1135	1215778	keystroke_e	e	n/a
608.358	0.114	1216716	keystroke_c	c	n/a
608.6645	0.0705	1217329	keystroke_Key.caps_lock	Key.caps_lock	n/a
608.669	0.068	1217338	keystroke_a	a	n/a
608.859	0.0915	1217718	keystroke_l	l	n/a
610.1175	0.0905	1220235	keystroke_Key.backspace	Key.backspace	n/a
610.439	0.09	1220878	keystroke_Key.backspace	Key.backspace	n/a
611.0775	0.069	1222155	keystroke_Key.caps_lock	Key.caps_lock	n/a
613.36	0.1355	1226720	keystroke_a	a	n/a
613.613	0.1155	1227226	keystroke_l	l	n/a
613.806	0.1135	1227612	keystroke_l	l	n/a
613.994	0.138	1227988	keystroke_Key.space	Key.space	n/a
614.468	0.089	1228936	keystroke_c	c	n/a
614.722	0.158	1229444	keystroke_o	o	n/a
614.942	0.1375	1229884	keystroke_n	n	n/a
616.1455	0.114	1232291	keystroke_c	c	n/a
616.302	0.1565	1232604	keystroke_l	l	n/a
616.6755	0.1355	1233351	keystroke_u	u	n/a
617.3205	0.136	1234641	keystroke_d	d	n/a
617.591	0.114	1235182	keystroke_e	e	n/a
617.8525	0.135	1235705	keystroke_d	d	n/a
618.2375	0.115	1236475	keystroke_Key.space	Key.space	n/a
618.5815	0.136	1237163	keystroke_a	a	n/a
618.8885	0.116	1237777	keystroke_l	l	n/a
619.1085	0.156	1238217	keystroke_i	i	n/a
619.542	0.0935	1239084	keystroke_e	e	n/a
619.69	0.1135	1239380	keystroke_n	n	n/a
620.0675	0.091	1240135	keystroke_Key.enter	Key.enter	n/a
620.1645	24.3945	1240329	prompt	n/a	marking ministers spotlight getting\n
621.0475	0.115	1242095	keystroke_m	m	n/a
621.1635	0.109	1242327	keystroke_a	a	n/a
621.448	0.114	1242896	keystroke_r	r	n/a
621.6415	0.181	1243283	keystroke_k	k	n/a
622.3145	0.1355	1244629	keystroke_i	i	n/a
622.4725	0.1365	1244945	keystroke_n	n	n/a
622.5625	0.1375	1245125	keystroke_g	g	n/a
623.144	0.1125	1246288	keystroke_Key.space	Key.space	n/a
623.5225	0.1355	1247045	keystroke_m	m	n/a
623.787	0.09	1247574	keystroke_i	i	n/a
623.899	0.113	1247798	keystroke_n	n	n/a
624.071	0.159	1248142	keystroke_i	i	n/a
625.29	0.139	1250580	keystroke_s	s	n/a
625.593	0.1175	1251186	keystroke_t	t	n/a
625.733	0.09	1251466	keystroke_e	e	n/a
625.9055	0.112	1251811	keystroke_r	r	n/a
626.077	0.1375	1252154	keystroke_Key.space	Key.space	n/a
626.504	0.1155	1253008	keystroke_s	s	n/a
626.6535	0.155	1253307	keystroke_p	p	n/a
626.9495	0.091	1253899	keystroke_o	o	n/a
628.6055	0.0685	1257211	keystroke_t	t	n/a
628.768	0.1385	1257536	keystroke_l	l	n/a
629.07	0.1385	1258140	keystroke_i	i	n/a
629.2665	0.135	1258533	keystroke_n	n	n/a
629.976	0.1145	1259952	keystroke_e	e	n/a
630.7665	0.137	1261533	keystroke_\	\	n/a
631.7175	0.071	1263435	keystroke_Key.backspace	Key.backspace	n/a
632.078	0.092	1264156	keystroke_Key.backspace	Key.backspace	n/a
632.496	0.07	1264992	keystroke_Key.backspace	Key.backspace	n/a
633.2945	0.068	1266589	keystroke_Key.backspace	Key.backspace	n/a
634.1965	0.0935	1268393	keystroke_Key.backspace	Key.backspace	n/a
641.2035	0.1155	1282407	keystroke_l	l	n/a
641.4	0.1605	1282800	keystroke_i	i	n/a
641.561	0.091	1283122	keystroke_g	g	n/a
641.6805	0.1155	1283361	keystroke_h	h	n/a
641.8175	0.135	1283635	keystroke_t	t	n/a
642.1125	0.159	1284225	keystroke_Key.space	Key.space	n/a
642.6925	0.1125	1285385	keystroke_g	g	n/a
642.8525	0.07	1285705	keystroke_e	e	n/a
643.0105	0.1145	1286021	keystroke_t	t	n/a
643.2095	0.089	1286419	keystroke_t	t	n/a
643.856	0.137	1287712	keystroke_i	i	n/a
644.015	0.1335	1288030	keystroke_n	n	n/a
644.1495	0.11	1288299	keystroke_g	g	n/a
644.4435	0.113	1288887	keystroke_Key.enter	Key.enter	n/a
644.5635	12.012	1289127	prompt	n/a	foam its embassy recommendation\n
645.7635	0.112	1291527	keystroke_f	f	n/a
646.2885	0.136	1292577	keystroke_o	o	n/a
646.547	0.1155	1293094	keystroke_a	a	n/a
646.694	0.137	1293388	keystroke_m	m	n/a
647.138	0.1395	1294276	keystroke_Key.space	Key.space	n/a
647.7185	0.139	1295437	keystroke_i	i	n/a
647.858	0.1375	1295716	keystroke_t	t	n/a
648.202	0.1605	1296404	keystroke_s	s	n/a
648.436	0.136	1296872	keystroke_Key.space	Key.space	n/a
648.652	0.139	1297304	keystroke_e	e	n/a
648.821	0.113	1297642	keystroke_m	m	n/a
649.5655	0.113	1299131	keystroke_b	b	n/a
649.6795	0.0885	1299359	keystroke_a	a	n/a
649.8735	0.112	1299747	keystroke_s	s	n/a
650.0575	0.114	1300115	keystroke_s	s	n/a
650.552	0.093	1301104	keystroke_y	y	n/a
650.7515	0.1365	1301503	keystroke_Key.space	Key.space	n/a
651.3655	0.111	1302731	keystroke_r	r	n/a
651.5665	0.09	1303133	keystroke_e	e	n/a
651.8265	0.1125	1303653	keystroke_c	c	n/a
652.114	0.1125	1304228	keystroke_o	o	n/a
652.342	0.1395	1304684	keystroke_m	m	n/a
653.019	0.07	1306038	keystroke_e	e	n/a
653.204	0.1145	1306408	keystroke_n	n	n/a
653.478	0.111	1306956	keystroke_d	d	n/a
653.972	0.1135	1307944	keystroke_a	a	n/a
654.344	0.1125	1308688	keystroke_t	t	n/a
654.5325	0.091	1309065	keystroke_i	i	n/a
654.724	0.1135	1309448	keystroke_o	o	n/a
654.8905	0.136	1309781	keystroke_n	n	n/a
656.441	0.133	1312882	keystroke_Key.enter	Key.enter	n/a
656.579	33.8195	1313158	prompt	n/a	securely methodology subsidiaries submitting\n
674.9675	0.111	1349935	keystroke_s	s	n/a
675.2425	0.116	1350485	keystroke_e	e	n/a
675.858	0.137	1351716	keystroke_c	c	n/a
676.145	0.16	1352290	keystroke_u	u	n/a
676.348	0.1355	1352696	keystroke_r	r	n/a
676.562	0.1305	1353124	keystroke_l	l	n/a
676.891	0.071	1353782	keystroke_y	y	n/a
677.0825	0.132	1354165	keystroke_Key.space	Key.space	n/a
678.1655	0.1155	1356331	keystroke_m	m	n/a
678.4525	0.1185	1356905	keystroke_e	e	n/a
679.232	0.091	1358464	keystroke_t	t	n/a
679.3875	0.09	1358775	keystroke_h	h	n/a
679.6155	0.1365	1359231	keystroke_o	o	n/a
679.833	0.137	1359666	keystroke_l	l	n/a
680.398	0.1355	1360796	keystroke_g	g	n/a
680.5685	0.162	1361137	keystroke_y	y	n/a
680.7975	0.115	1361595	keystroke_Key.space	Key.space	n/a
681.482	0.115	1362964	keystroke_s	s	n/a
681.736	0.1375	1363472	keystroke_u	u	n/a
681.988	0.1145	1363976	keystroke_b	b	n/a
682.817	0.089	1365634	keystroke_s	s	n/a
683.127	0.1165	1366254	keystroke_u	u	n/a
683.5295	0.1125	1367059	keystroke_Key.backspace	Key.backspace	n/a
684.4145	0.1145	1368829	keystroke_i	i	n/a
684.5505	0.157	1369101	keystroke_d	d	n/a
685.332	0.155	1370664	keystroke_a	a	n/a
686.0205	0.1625	1372041	keystroke_i	i	n/a
686.184	0.089	1372368	keystroke_r	r	n/a
686.7735	0.0915	1373547	keystroke_e	e	n/a
687.034	0.155	1374068	keystroke_s	s	n/a
687.2315	0.161	1374463	keystroke_Key.space	Key.space	n/a
687.4135	0.1135	1374827	keystroke_s	s	n/a
687.5935	0.1335	1375187	keystroke_u	u	n/a
688.5955	0.0885	1377191	keystroke_b	b	n/a
689.1535	0.1125	1378307	keystroke_m	m	n/a
689.342	0.112	1378684	keystroke_i	i	n/a
689.558	0.0905	1379116	keystroke_t	t	n/a
689.746	0.09	1379492	keystroke_t	t	n/a
689.837	0.1365	1379674	keystroke_i	i	n/a
689.996	0.1135	1379992	keystroke_n	n	n/a
690.0845	0.138	1380169	keystroke_g	g	n/a
690.283	0.114	1380566	keystroke_Key.enter	Key.enter	n/a
690.4035	12.3285	1380807	prompt	n/a	focus monitored trance leadership\n
691.2675	0.0885	1382535	keystroke_f	f	n/a
691.5095	0.1325	1383019	keystroke_o	o	n/a
691.6195	0.134	1383239	keystroke_c	c	n/a
691.8435	0.1375	1383687	keystroke_u	u	n/a
692.031	0.1165	1384062	keystroke_s	s	n/a
692.339	0.1145	1384678	keystroke_Key.space	Key.space	n/a
692.8425	0.113	1385685	keystroke_m	m	n/a
693.8025	0.114	1387605	keystroke_o	o	n/a
694.0615	0.1355	1388123	keystroke_n	n	n/a
694.3605	0.1365	1388721	keystroke_i	i	n/a
695.6055	0.1355	1391211	keystroke_t	t	n/a
696.01	0.115	1392020	keystroke_o	o	n/a
696.8925	0.113	1393785	keystroke_r	r	n/a
697.1225	0.114	1394245	keystroke_e	e	n/a
697.422	0.136	1394844	keystroke_d	d	n/a
697.729	0.138	1395458	keystroke_Key.space	Key.space	n/a
698.0765	0.0905	1396153	keystroke_t	t	n/a
698.261	0.1135	1396522	keystroke_r	r	n/a
698.516	0.113	1397032	keystroke_a	a	n/a
698.7275	0.1135	1397455	keystroke_n	n	n/a
698.937	0.136	1397874	keystroke_c	c	n/a
699.113	0.1575	1398226	keystroke_e	e	n/a
699.4685	0.1115	1398937	keystroke_Key.space	Key.space	n/a
699.818	0.111	1399636	keystroke_l	l	n/a
699.9515	0.1335	1399903	keystroke_e	e	n/a
700.2075	0.138	1400415	keystroke_a	a	n/a
700.4745	0.1145	1400949	keystroke_d	d	n/a
700.686	0.114	1401372	keystroke_e	e	n/a
700.866	0.092	1401732	keystroke_r	r	n/a
701.0815	0.114	1402163	keystroke_s	s	n/a
701.279	0.089	1402558	keystroke_h	h	n/a
701.8005	0.159	1403601	keystroke_i	i	n/a
702.0345	0.135	1404069	keystroke_p	p	n/a
702.641	0.0885	1405282	keystroke_Key.enter	Key.enter	n/a
702.7385	12.746	1405477	prompt	n/a	worthy university province eminem\n
703.8885	0.1355	1407777	keystroke_w	w	n/a
704.113	0.1365	1408226	keystroke_o	o	n/a
704.9065	0.1135	1409813	keystroke_r	r	n/a
705.1145	0.1135	1410229	keystroke_t	t	n/a
705.2495	0.137	1410499	keystroke_h	h	n/a
705.4685	0.115	1410937	keystroke_y	y	n/a
705.6655	0.1375	1411331	keystroke_Key.space	Key.space	n/a
706.3725	0.1135	1412745	keystroke_u	u	n/a
706.557	0.113	1413114	keystroke_n	n	n/a
706.7555	0.1365	1413511	keystroke_i	i	n/a
707.0475	0.113	1414095	keystroke_v	v	n/a
707.356	0.135	1414712	keystroke_e	e	n/a
707.5665	0.0915	1415133	keystroke_r	r	n/a
707.869	0.1125	1415738	keystroke_c	c	n/a
708.267	0.1565	1416534	keystroke_i	i	n/a
708.453	0.0925	1416906	keystroke_t	t	n/a
708.578	0.113	1417156	keystroke_y	y	n/a
708.8075	0.1145	1417615	keystroke_Key.space	Key.space	n/a
709.5815	0.135	1419163	keystroke_p	p	n/a
709.7385	0.1135	1419477	keystroke_r	r	n/a
709.943	0.134	1419886	keystroke_o	o	n/a
710.8875	0.1335	1421775	keystroke_v	v	n/a
711.1785	0.1345	1422357	keystroke_i	i	n/a
711.3495	0.158	1422699	keystroke_n	n	n/a
711.5085	0.1355	1423017	keystroke_c	c	n/a
711.686	0.1585	1423372	keystroke_e	e	n/a
711.9945	0.09	1423989	keystroke_Key.space	Key.space	n/a
712.7155	0.091	1425431	keystroke_e	e	n/a
712.9135	0.158	1425827	keystroke_m	m	n/a
713.841	0.16	1427682	keystroke_i	i	n/a
714.063	0.158	1428126	keystroke_n	n	n/a
714.9305	0.114	1429861	keystroke_e	e	n/a
715.0665	0.114	1430133	keystroke_m	m	n/a
715.3695	0.113	1430739	keystroke_Key.enter	Key.enter	n/a
715.489	18.8755	1430978	prompt	n/a	assessment calculator liverpool syria\n
718.231	0.114	1436462	keystroke_a	a	n/a
718.483	0.115	1436966	keystroke_s	s	n/a
718.691	0.1115	1437382	keystroke_s	s	n/a
719.356	0.115	1438712	keystroke_e	e	n/a
719.614	0.0915	1439228	keystroke_s	s	n/a
719.803	0.092	1439606	keystroke_s	s	n/a
720.3825	0.1355	1440765	keystroke_m	m	n/a
720.4715	0.1145	1440943	keystroke_e	e	n/a
720.6155	0.0945	1441231	keystroke_n	n	n/a
720.7855	0.1145	1441571	keystroke_t	t	n/a
721.1235	0.1345	1442247	keystroke_Key.space	Key.space	n/a
721.826	0.069	1443652	keystroke_c	c	n/a
723.3955	0.092	1446791	keystroke_a	a	n/a
723.6135	0.113	1447227	keystroke_l	l	n/a
725.0445	0.1125	1450089	keystroke_c	c	n/a
725.968	0.114	1451936	keystroke_u	u	n/a
726.658	0.0895	1453316	keystroke_l	l	n/a
727.087	0.1135	1454174	keystroke_a	a	n/a
727.4205	0.113	1454841	keystroke_t	t	n/a
727.6225	0.113	1455245	keystroke_o	o	n/a
727.7095	0.1155	1455419	keystroke_r	r	n/a
728.05	0.136	1456100	keystroke_Key.space	Key.space	n/a
728.5235	0.137	1457047	keystroke_l	l	n/a
728.7885	0.132	1457577	keystroke_i	i	n/a
728.944	0.112	1457888	keystroke_v	v	n/a
729.1485	0.1575	1458297	keystroke_e	e	n/a
729.449	0.115	1458898	keystroke_r	r	n/a
729.651	0.1605	1459302	keystroke_p	p	n/a
729.8985	0.134	1459797	keystroke_o	o	n/a
730.0795	0.135	1460159	keystroke_o	o	n/a
730.622	0.114	1461244	keystroke_l	l	n/a
731.334	0.1375	1462668	keystroke_Key.space	Key.space	n/a
731.705	0.112	1463410	keystroke_s	s	n/a
731.949	0.1355	1463898	keystroke_y	y	n/a
733.3805	0.09	1466761	keystroke_r	r	n/a
733.6125	0.138	1467225	keystroke_i	i	n/a
734.09	0.137	1468180	keystroke_a	a	n/a
734.249	0.114	1468498	keystroke_Key.enter	Key.enter	n/a
734.3685	9.655	1468737	prompt	n/a	wanna determined outputs ideas\n
735.57	0.091	1471140	keystroke_w	w	n/a
735.7705	0.1385	1471541	keystroke_a	a	n/a
735.952	0.091	1471904	keystroke_n	n	n/a
736.115	0.092	1472230	keystroke_n	n	n/a
736.2285	0.1345	1472457	keystroke_a	a	n/a
736.3965	0.1375	1472793	keystroke_Key.space	Key.space	n/a
736.6675	0.0905	1473335	keystroke_d	d	n/a
737.0075	0.1125	1474015	keystroke_e	e	n/a
737.188	0.1585	1474376	keystroke_t	t	n/a
737.4565	0.048	1474913	keystroke_e	e	n/a
738.188	0.046	1476376	keystroke_e	e	n/a
738.2805	0.137	1476561	keystroke_r	r	n/a
738.6135	0.134	1477227	keystroke_m	m	n/a
738.8055	0.136	1477611	keystroke_i	i	n/a
738.9635	0.115	1477927	keystroke_n	n	n/a
739.0795	0.1095	1478159	keystroke_d	d	n/a
739.304	0.1375	1478608	keystroke_Key.space	Key.space	n/a
739.9095	0.138	1479819	keystroke_o	o	n/a
740.16	0.1145	1480320	keystroke_u	u	n/a
740.3385	0.1145	1480677	keystroke_t	t	n/a
740.587	0.135	1481174	keystroke_p	p	n/a
740.853	0.179	1481706	keystroke_u	u	n/a
741.344	0.113	1482688	keystroke_t	t	n/a
741.7615	0.135	1483523	keystroke_s	s	n/a
742.08	0.135	1484160	keystroke_Key.space	Key.space	n/a
742.7855	0.137	1485571	keystroke_i	i	n/a
742.8985	0.135	1485797	keystroke_d	d	n/a
743.1365	0.1115	1486273	keystroke_e	e	n/a
743.4105	0.071	1486821	keystroke_a	a	n/a
743.571	0.113	1487142	keystroke_s	s	n/a
743.93	0.092	1487860	keystroke_Key.enter	Key.enter	n/a
744.0285	17.0415	1488057	prompt	n/a	calculate coaches family arthur\n
745.0495	0.1135	1490099	keystroke_c	c	n/a
745.324	0.1135	1490648	keystroke_a	a	n/a
745.547	0.116	1491094	keystroke_l	l	n/a
745.6865	0.093	1491373	keystroke_a	a	n/a
746.5205	0.113	1493041	keystroke_c	c	n/a
746.687	0.0925	1493374	keystroke_u	u	n/a
747.002	0.1375	1494004	keystroke_l	l	n/a
748.5755	0.116	1497151	keystroke_Key.backspace	Key.backspace	n/a
752.8765	0.137	1505753	keystroke_t	t	n/a
752.967	0.157	1505934	keystroke_e	e	n/a
753.216	0.162	1506432	keystroke_Key.space	Key.space	n/a
754.0645	0.091	1508129	keystroke_c	c	n/a
755.048	0.1145	1510096	keystroke_o	o	n/a
755.216	0.114	1510432	keystroke_a	a	n/a
755.428	0.1335	1510856	keystroke_s	s	n/a
755.8985	0.139	1511797	keystroke_c	c	n/a
756.1305	0.09	1512261	keystroke_h	h	n/a
756.2415	0.09	1512483	keystroke_e	e	n/a
756.478	0.112	1512956	keystroke_s	s	n/a
756.689	0.134	1513378	keystroke_Key.space	Key.space	n/a
757.0135	0.091	1514027	keystroke_f	f	n/a
757.252	0.114	1514504	keystroke_a	a	n/a
757.389	0.11	1514778	keystroke_m	m	n/a
757.566	0.133	1515132	keystroke_i	i	n/a
757.825	0.1605	1515650	keystroke_l	l	n/a
758.762	0.09	1517524	keystroke_y	y	n/a
758.909	0.159	1517818	keystroke_Key.space	Key.space	n/a
759.5175	0.134	1519035	keystroke_a	a	n/a
759.8635	0.114	1519727	keystroke_r	r	n/a
760.098	0.1115	1520196	keystroke_t	t	n/a
760.2805	0.1115	1520561	keystroke_h	h	n/a
760.4885	0.1145	1520977	keystroke_u	u	n/a
760.6465	0.1365	1521293	keystroke_r	r	n/a
760.956	0.113	1521912	keystroke_Key.enter	Key.enter	n/a
761.081	17.772	1522162	prompt	n/a	affair mario connected booking\n
761.834	0.137	1523668	keystroke_a	a	n/a
762.485	0.114	1524970	keystroke_f	f	n/a
762.697	0.069	1525394	keystroke_f	f	n/a
763.325	0.137	1526650	keystroke_a	a	n/a
763.463	0.1355	1526926	keystroke_i	i	n/a
763.6885	0.136	1527377	keystroke_r	r	n/a
764.3635	0.162	1528727	keystroke_Key.space	Key.space	n/a
765.238	0.112	1530476	keystroke_m	m	n/a
765.3045	0.1585	1530609	keystroke_a	a	n/a
765.7215	0.0895	1531443	keystroke_r	r	n/a
766.169	0.1775	1532338	keystroke_i	i	n/a
767.1885	0.1375	1534377	keystroke_o	o	n/a
767.932	0.1595	1535864	keystroke_Key.space	Key.space	n/a
768.3805	0.1125	1536761	keystroke_c	c	n/a
768.649	0.1375	1537298	keystroke_o	o	n/a
768.9195	0.0915	1537839	keystroke_n	n	n/a
769.0935	0.1355	1538187	keystroke_n	n	n/a
770.5235	0.137	1541047	keystroke_e	e	n/a
771.015	0.135	1542030	keystroke_c	c	n/a
772.0745	0.1145	1544149	keystroke_t	t	n/a
772.304	0.1355	1544608	keystroke_e	e	n/a
772.5755	0.1585	1545151	keystroke_d	d	n/a
772.842	0.1375	1545684	keystroke_Key.space	Key.space	n/a
776.9185	0.1135	1553837	keystroke_Key.space	Key.space	n/a
777.194	0.116	1554388	keystroke_b	b	n/a
777.399	0.093	1554798	keystroke_o	o	n/a
777.5835	0.135	1555167	keystroke_o	o	n/a
777.741	0.112	1555482	keystroke_k	k	n/a
777.8955	0.1585	1555791	keystroke_i	i	n/a
778.0545	0.179	1556109	keystroke_n	n	n/a
778.256	0.134	1556512	keystroke_h	h	n/a
778.763	0.088	1557526	keystroke_Key.enter	Key.enter	n/a
778.858	10.77	1557716	prompt	n/a	driver peak shaped mods\n
780.052	0.1325	1560104	keystroke_d	d	n/a
780.727	0.1135	1561454	keystroke_r	r	n/a
781.341	0.137	1562682	keystroke_i	i	n/a
781.55	0.115	1563100	keystroke_v	v	n/a
781.7865	0.1105	1563573	keystroke_e	e	n/a
781.983	0.181	1563966	keystroke_r	r	n/a
782.658	0.139	1565316	keystroke_Key.space	Key.space	n/a
783.4405	0.1855	1566881	keystroke_p	p	n/a
783.649	0.114	1567298	keystroke_e	e	n/a
783.9425	0.156	1567885	keystroke_a	a	n/a
784.704	0.1345	1569408	keystroke_k	k	n/a
784.967	0.1615	1569934	keystroke_Key.space	Key.space	n/a
786.154	0.1365	1572308	keystroke_s	s	n/a
786.393	0.1125	1572786	keystroke_h	h	n/a
786.5275	0.1575	1573055	keystroke_a	a	n/a
787.3435	0.116	1574687	keystroke_p	p	n/a
787.4805	0.092	1574961	keystroke_e	e	n/a
787.7355	0.134	1575471	keystroke_d	d	n/a
788.0085	0.133	1576017	keystroke_Key.space	Key.space	n/a
788.6835	0.0685	1577367	keystroke_m	m	n/a
788.8365	0.1355	1577673	keystroke_o	o	n/a
789.1125	0.1115	1578225	keystroke_d	d	n/a
789.348	0.088	1578696	keystroke_s	s	n/a
789.5565	0.07	1579113	keystroke_Key.enter	Key.enter	n/a
789.6325	17.134	1579265	prompt	n/a	delaware assignment craft opera\n
791.479	0.113	1582958	keystroke_d	d	n/a
791.736	0.1375	1583472	keystroke_a	a	n/a
794.1235	0.116	1588247	keystroke_Key.backspace	Key.backspace	n/a
794.6895	0.1095	1589379	keystroke_e	e	n/a
794.886	0.1375	1589772	keystroke_l	l	n/a
795.0455	0.1355	1590091	keystroke_a	a	n/a
795.4265	0.112	1590853	keystroke_w	w	n/a
795.6555	0.136	1591311	keystroke_a	a	n/a
795.9575	0.1135	1591915	keystroke_r	r	n/a
796.178	0.137	1592356	keystroke_e	e	n/a
796.6145	0.157	1593229	keystroke_Key.space	Key.space	n/a
796.9495	0.1145	1593899	keystroke_a	a	n/a
797.16	0.0915	1594320	keystroke_s	s	n/a
797.314	0.1145	1594628	keystroke_s	s	n/a
797.5515	0.09	1595103	keystroke_i	i	n/a
797.7175	0.134	1595435	keystroke_m	m	n/a
797.8275	0.161	1595655	keystroke_e	e	n/a
798.0255	0.1585	1596051	keystroke_n	n	n/a
798.186	0.153	1596372	keystroke_t	t	n/a
798.523	0.136	1597046	keystroke_Key.space	Key.space	n/a
799.285	0.115	1598570	keystroke_c	c	n/a
799.576	0.112	1599152	keystroke_r	r	n/a
799.9015	0.113	1599803	keystroke_a	a	n/a
800.143	0.113	1600286	keystroke_d	d	n/a
800.477	0.1355	1600954	keystroke_t	t	n/a
801.396	0.093	1602792	keystroke_Key.backspace	Key.backspace	n/a
801.7075	0.093	1603415	keystroke_Key.backspace	Key.backspace	n/a
803.2165	0.137	1606433	keystroke_f	f	n/a
803.509	0.112	1607018	keystroke_t	t	n/a
803.825	0.138	1607650	keystroke_Key.space	Key.space	n/a
804.684	0.113	1609368	keystroke_o	o	n/a
805.024	0.137	1610048	keystroke_p	p	n/a
805.987	0.092	1611974	keystroke_e	e	n/a
806.17	0.0915	1612340	keystroke_r	r	n/a
806.412	0.135	1612824	keystroke_a	a	n/a
806.651	0.113	1613302	keystroke_Key.enter	Key.enter	n/a
806.7715	8.38	1613543	prompt	n/a	ratings hire steve waiting\n
807.835	0.114	1615670	keystroke_r	r	n/a
808.139	0.1375	1616278	keystroke_a	a	n/a
808.503	0.112	1617006	keystroke_t	t	n/a
808.8355	0.16	1617671	keystroke_i	i	n/a
809.018	0.159	1618036	keystroke_n	n	n/a
809.327	0.1145	1618654	keystroke_g	g	n/a
809.636	0.16	1619272	keystroke_s	s	n/a
809.9855	0.138	1619971	keystroke_Key.space	Key.space	n/a
810.5575	0.1145	1621115	keystroke_h	h	n/a
810.7685	0.136	1621537	keystroke_i	i	n/a
811.014	0.136	1622028	keystroke_r	r	n/a
811.243	0.1155	1622486	keystroke_e	e	n/a
811.494	0.114	1622988	keystroke_Key.space	Key.space	n/a
811.9375	0.1335	1623875	keystroke_s	s	n/a
812.356	0.1155	1624712	keystroke_t	t	n/a
812.494	0.1345	1624988	keystroke_e	e	n/a
812.7625	0.136	1625525	keystroke_v	v	n/a
812.921	0.1125	1625842	keystroke_e	e	n/a
813.358	0.112	1626716	keystroke_Key.space	Key.space	n/a
813.626	0.114	1627252	keystroke_w	w	n/a
813.859	0.115	1627718	keystroke_a	a	n/a
814.0475	0.134	1628095	keystroke_i	i	n/a
814.203	0.113	1628406	keystroke_t	t	n/a
814.3375	0.1355	1628675	keystroke_i	i	n/a
814.474	0.1605	1628948	keystroke_n	n	n/a
814.564	0.138	1629128	keystroke_g	g	n/a
815.0355	0.1135	1630071	keystroke_Key.enter	Key.enter	n/a
815.156	13.093	1630312	prompt	n/a	islamic fishing expense stopped\n
816.125	0.091	1632250	keystroke_i	i	n/a
819.2185	0.115	1638437	keystroke_s	s	n/a
819.45	0.114	1638900	keystroke_l	l	n/a
819.585	0.0695	1639170	keystroke_a	a	n/a
819.7835	0.138	1639567	keystroke_m	m	n/a
820.1515	0.1135	1640303	keystroke_i	i	n/a
820.266	0.135	1640532	keystroke_c	c	n/a
820.555	0.091	1641110	keystroke_Key.space	Key.space	n/a
821.2905	0.112	1642581	keystroke_f	f	n/a
821.494	0.112	1642988	keystroke_i	i	n/a
821.629	0.068	1643258	keystroke_s	s	n/a
821.8565	0.1145	1643713	keystroke_h	h	n/a
822.045	0.1385	1644090	keystroke_i	i	n/a
822.2055	0.136	1644411	keystroke_n	n	n/a
822.3735	0.136	1644747	keystroke_g	g	n/a
822.7305	0.0905	1645461	keystroke_Key.space	Key.space	n/a
823.024	0.114	1646048	keystroke_e	e	n/a
823.3575	0.1175	1646715	keystroke_x	x	n/a
825.059	0.137	1650118	keystroke_p	p	n/a
825.5305	0.0905	1651061	keystroke_e	e	n/a
825.697	0.093	1651394	keystroke_n	n	n/a
825.846	0.136	1651692	keystroke_s	s	n/a
826.0865	0.137	1652173	keystroke_e	e	n/a
826.3935	0.135	1652787	keystroke_Key.space	Key.space	n/a
826.6945	0.1595	1653389	keystroke_s	s	n/a
827.049	0.117	1654098	keystroke_t	t	n/a
827.253	0.1125	1654506	keystroke_o	o	n/a
827.511	0.091	1655022	keystroke_p	p	n/a
827.6945	0.114	1655389	keystroke_p	p	n/a
827.7845	0.091	1655569	keystroke_e	e	n/a
827.98	0.1135	1655960	keystroke_d	d	n/a
828.1335	0.113	1656267	keystroke_Key.enter	Key.enter	n/a
828.2595	15.4015	1656519	prompt	n/a	follows certain oscar star\n
829.1595	0.115	1658319	keystroke_f	f	n/a
829.4115	0.113	1658823	keystroke_o	o	n/a
829.6125	0.135	1659225	keystroke_l	l	n/a
829.7985	0.115	1659597	keystroke_l	l	n/a
830.0095	0.09	1660019	keystroke_o	o	n/a
830.2015	0.1155	1660403	keystroke_w	w	n/a
830.4555	0.137	1660911	keystroke_s	s	n/a
830.6995	0.136	1661399	keystroke_Key.space	Key.space	n/a
831.2425	0.1115	1662485	keystroke_c	c	n/a
832.5875	0.1375	1665175	keystroke_e	e	n/a
833.395	0.093	1666790	keystroke_r	r	n/a
834.423	0.161	1668846	keystroke_r	r	n/a
835.6605	0.091	1671321	keystroke_Key.backspace	Key.backspace	n/a
835.9065	0.09	1671813	keystroke_t	t	n/a
836.162	0.1375	1672324	keystroke_a	a	n/a
836.442	0.1585	1672884	keystroke_i	i	n/a
836.6655	0.1365	1673331	keystroke_n	n	n/a
836.824	0.1135	1673648	keystroke_Key.space	Key.space	n/a
837.57	0.115	1675140	keystroke_o	o	n/a
837.662	0.0915	1675324	keystroke_s	s	n/a
837.874	0.1365	1675748	keystroke_c	c	n/a
838.5325	0.1385	1677065	keystroke_a	a	n/a
838.8675	0.1355	1677735	keystroke_r	r	n/a
839.1305	0.134	1678261	keystroke_Key.space	Key.space	n/a
839.701	0.136	1679402	keystroke_s	s	n/a
840.027	0.0695	1680054	keystroke_g	g	n/a
840.118	0.182	1680236	keystroke_a	a	n/a
841.129	0.095	1682258	keystroke_Key.backspace	Key.backspace	n/a
841.351	0.09	1682702	keystroke_Key.backspace	Key.backspace	n/a
842.671	0.092	1685342	keystroke_t	t	n/a
842.785	0.115	1685570	keystroke_a	a	n/a
843.066	0.112	1686132	keystroke_r	r	n/a
843.59	0.0695	1687180	keystroke_Key.enter	Key.enter	n/a
843.6675	16.2365	1687335	prompt	n/a	beginners hung membership covering\n
847.494	0.11	1694988	keystroke_b	b	n/a
847.696	0.1145	1695392	keystroke_e	e	n/a
848.7	0.115	1697400	keystroke_g	g	n/a
848.937	0.1365	1697874	keystroke_i	i	n/a
849.129	0.1175	1698258	keystroke_n	n	n/a
849.31	0.115	1698620	keystroke_n	n	n/a
849.467	0.1355	1698934	keystroke_i	i	n/a
850.5495	0.134	1701099	keystroke_Key.backspace	Key.backspace	n/a
850.7475	0.1135	1701495	keystroke_e	e	n/a
850.9545	0.089	1701909	keystroke_r	r	n/a
851.2285	0.091	1702457	keystroke_s	s	n/a
851.616	0.136	1703232	keystroke_Key.space	Key.space	n/a
852.092	0.116	1704184	keystroke_h	h	n/a
852.28	0.1395	1704560	keystroke_u	u	n/a
852.4405	0.16	1704881	keystroke_n	n	n/a
852.6975	0.139	1705395	keystroke_g	g	n/a
853.0295	0.1115	1706059	keystroke_Key.space	Key.space	n/a
853.72	0.07	1707440	keystroke_e	e	n/a
854.186	0.111	1708372	keystroke_Key.backspace	Key.backspace	n/a
854.676	0.137	1709352	keystroke_m	m	n/a
854.814	0.1135	1709628	keystroke_e	e	n/a
854.9695	0.136	1709939	keystroke_m	m	n/a
855.6645	0.1145	1711329	keystroke_b	b	n/a
855.78	0.1535	1711560	keystroke_e	e	n/a
856.0055	0.114	1712011	keystroke_r	r	n/a
856.286	0.1135	1712572	keystroke_s	s	n/a
856.4005	0.1135	1712801	keystroke_h	h	n/a
856.5905	0.136	1713181	keystroke_i	i	n/a
857.048	0.135	1714096	keystroke_p	p	n/a
857.2685	0.1385	1714537	keystroke_Key.space	Key.space	n/a
857.802	0.1145	1715604	keystroke_c	c	n/a
858.2605	0.138	1716521	keystroke_o	o	n/a
858.5395	0.116	1717079	keystroke_v	v	n/a
858.694	0.1545	1717388	keystroke_e	e	n/a
858.974	0.159	1717948	keystroke_r	r	n/a
859.3035	0.136	1718607	keystroke_i	i	n/a
859.4625	0.136	1718925	keystroke_n	n	n/a
859.62	0.0895	1719240	keystroke_g	g	n/a
859.7865	0.114	1719573	keystroke_Key.enter	Key.enter	n/a
859.9085	11.1445	1719817	prompt	n/a	horizon colorado city hate\n
861.4095	0.112	1722819	keystroke_h	h	n/a
861.6365	0.1345	1723273	keystroke_o	o	n/a
862.6755	0.116	1725351	keystroke_i	i	n/a
863.919	0.0925	1727838	keystroke_z	z	n/a
864.2215	0.136	1728443	keystroke_o	o	n/a
864.415	0.1345	1728830	keystroke_n	n	n/a
864.6405	0.113	1729281	keystroke_Key.space	Key.space	n/a
864.941	0.138	1729882	keystroke_c	c	n/a
865.2365	0.068	1730473	keystroke_o	o	n/a
866.202	0.1125	1732404	keystroke_l	l	n/a
866.461	0.091	1732922	keystroke_o	o	n/a
867.2995	0.0915	1734599	keystroke_r	r	n/a
867.586	0.093	1735172	keystroke_a	a	n/a
867.84	0.185	1735680	keystroke_d	d	n/a
868.153	0.135	1736306	keystroke_o	o	n/a
868.425	0.137	1736850	keystroke_Key.space	Key.space	n/a
869.031	0.1375	1738062	keystroke_c	c	n/a
869.204	0.114	1738408	keystroke_i	i	n/a
869.41	0.114	1738820	keystroke_t	t	n/a
869.561	0.115	1739122	keystroke_y	y	n/a
869.677	0.133	1739354	keystroke_Key.space	Key.space	n/a
870.336	0.111	1740672	keystroke_h	h	n/a
870.425	0.114	1740850	keystroke_a	a	n/a
870.6055	0.1385	1741211	keystroke_t	t	n/a
870.7445	0.1115	1741489	keystroke_e	e	n/a
870.9335	0.1185	1741867	keystroke_Key.enter	Key.enter	n/a
871.057	13.6325	1742114	prompt	n/a	textbooks acute chamber bracket\n
872.8735	0.1345	1745747	keystroke_t	t	n/a
873.009	0.0905	1746018	keystroke_e	e	n/a
873.272	0.0915	1746544	keystroke_x	x	n/a
873.4055	0.112	1746811	keystroke_t	t	n/a
873.6235	0.1365	1747247	keystroke_Key.space	Key.space	n/a
874.095	0.115	1748190	keystroke_b	b	n/a
874.365	0.1335	1748730	keystroke_o	o	n/a
874.579	0.137	1749158	keystroke_o	o	n/a
874.6245	0.2275	1749249	keystroke_k	k	n/a
874.939	0.1575	1749878	keystroke_s	s	n/a
875.499	0.1355	1750998	keystroke_Key.space	Key.space	n/a
876.2725	0.157	1752545	keystroke_a	a	n/a
876.606	0.1575	1753212	keystroke_c	c	n/a
877.082	0.1125	1754164	keystroke_u	u	n/a
878.0765	0.09	1756153	keystroke_t	t	n/a
878.327	0.136	1756654	keystroke_e	e	n/a
878.535	0.136	1757070	keystroke_Key.space	Key.space	n/a
878.797	0.092	1757594	keystroke_c	c	n/a
879.0485	0.115	1758097	keystroke_h	h	n/a
879.1855	0.115	1758371	keystroke_a	a	n/a
879.3195	0.137	1758639	keystroke_m	m	n/a
879.6275	0.139	1759255	keystroke_b	b	n/a
879.7415	0.116	1759483	keystroke_e	e	n/a
879.9355	0.133	1759871	keystroke_r	r	n/a
880.1335	0.1385	1760267	keystroke_Key.space	Key.space	n/a
880.881	0.114	1761762	keystroke_b	b	n/a
882.032	0.09	1764064	keystroke_r	r	n/a
882.3375	0.116	1764675	keystroke_a	a	n/a
882.9515	0.0905	1765903	keystroke_c	c	n/a
883.336	0.157	1766672	keystroke_k	k	n/a
883.469	0.1155	1766938	keystroke_e	e	n/a
883.7685	0.159	1767537	keystroke_t	t	n/a
883.9965	0.1595	1767993	keystroke_Key.space	Key.space	n/a
884.573	0.1145	1769146	keystroke_Key.enter	Key.enter	n/a
884.6965	9.588	1769393	prompt	n/a	dash maybe wanting stuart\n
885.6605	0.093	1771321	keystroke_d	d	n/a
885.8775	0.112	1771755	keystroke_a	a	n/a
886.0635	0.113	1772127	keystroke_s	s	n/a
886.1995	0.112	1772399	keystroke_h	h	n/a
886.535	0.117	1773070	keystroke_Key.space	Key.space	n/a
886.859	0.1385	1773718	keystroke_m	m	n/a
886.951	0.137	1773902	keystroke_a	a	n/a
887.209	0.1145	1774418	keystroke_y	y	n/a
887.386	0.1355	1774772	keystroke_b	b	n/a
887.4975	0.136	1774995	keystroke_e	e	n/a
887.7745	0.1335	1775549	keystroke_Key.space	Key.space	n/a
888.3485	0.114	1776697	keystroke_w	w	n/a
888.5505	0.158	1777101	keystroke_a	a	n/a
888.685	0.112	1777370	keystroke_n	n	n/a
888.894	0.134	1777788	keystroke_t	t	n/a
889.134	0.14	1778268	keystroke_i	i	n/a
889.3055	0.115	1778611	keystroke_n	n	n/a
889.4425	0.1145	1778885	keystroke_g	g	n/a
889.6165	0.136	1779233	keystroke_Key.space	Key.space	n/a
890.955	0.139	1781910	keystroke_s	s	n/a
892.1475	0.115	1784295	keystroke_t	t	n/a
892.799	0.178	1785598	keystroke_u	u	n/a
893.191	0.1355	1786382	keystroke_a	a	n/a
893.779	0.156	1787558	keystroke_r	r	n/a
894.0325	0.1375	1788065	keystroke_t	t	n/a
894.146	0.136	1788292	keystroke_Key.enter	Key.enter	n/a
894.2895	16.063	1788579	prompt	n/a	saskatchewan predict named mounted\n
895.634	0.133	1791268	keystroke_s	s	n/a
895.8935	0.1395	1791787	keystroke_a	a	n/a
896.412	0.1165	1792824	keystroke_w	w	n/a
898.1415	0.136	1796283	keystroke_Key.backspace	Key.backspace	n/a
898.2785	0.111	1796557	keystroke_s	s	n/a
898.6185	0.116	1797237	keystroke_k	k	n/a
898.7355	0.112	1797471	keystroke_a	a	n/a
898.9745	0.182	1797949	keystroke_t	t	n/a
899.7365	0.1335	1799473	keystroke_c	c	n/a
899.9395	0.1145	1799879	keystroke_h	h	n/a
900.076	0.047	1800152	keystroke_w	w	n/a
900.614	0.117	1801228	keystroke_e	e	n/a
900.986	0.113	1801972	keystroke_a	a	n/a
901.35	0.115	1802700	keystroke_n	n	n/a
901.506	0.137	1803012	keystroke_Key.space	Key.space	n/a
902.4695	0.157	1804939	keystroke_p	p	n/a
903.0855	0.114	1806171	keystroke_r	r	n/a
903.296	0.116	1806592	keystroke_e	e	n/a
903.5475	0.1575	1807095	keystroke_d	d	n/a
903.846	0.136	1807692	keystroke_i	i	n/a
903.9595	0.1365	1807919	keystroke_c	c	n/a
904.209	0.1125	1808418	keystroke_t	t	n/a
904.4745	0.1335	1808949	keystroke_Key.space	Key.space	n/a
904.988	0.1155	1809976	keystroke_n	n	n/a
905.104	0.158	1810208	keystroke_a	a	n/a
905.2835	0.137	1810567	keystroke_m	m	n/a
905.4425	0.1595	1810885	keystroke_e	e	n/a
905.697	0.157	1811394	keystroke_d	d	n/a
905.8755	0.1375	1811751	keystroke_Key.space	Key.space	n/a
906.295	0.137	1812590	keystroke_m	m	n/a
906.505	0.091	1813010	keystroke_a	a	n/a
907.678	0.1565	1815356	keystroke_Key.backspace	Key.backspace	n/a
908.2275	0.135	1816455	keystroke_o	o	n/a
909.1515	0.1125	1818303	keystroke_u	u	n/a
909.3195	0.134	1818639	keystroke_n	n	n/a
909.636	0.1585	1819272	keystroke_t	t	n/a
909.7955	0.111	1819591	keystroke_e	e	n/a
910.037	0.1365	1820074	keystroke_d	d	n/a
910.2565	0.094	1820513	keystroke_Key.enter	Key.enter	n/a
910.3575	21.8565	1820715	prompt	n/a	city cradle mills briefs\n
913.8105	0.115	1827621	keystroke_c	c	n/a
914.096	0.113	1828192	keystroke_i	i	n/a
914.312	0.135	1828624	keystroke_t	t	n/a
914.4825	0.1145	1828965	keystroke_y	y	n/a
914.663	0.136	1829326	keystroke_Key.space	Key.space	n/a
915.3765	0.137	1830753	keystroke_c	c	n/a
916.623	0.0885	1833246	keystroke_r	r	n/a
919.091	0.135	1838182	keystroke_a	a	n/a
926.1685	0.137	1852337	keystroke_d	d	n/a
926.3685	0.157	1852737	keystroke_l	l	n/a
926.5025	0.114	1853005	keystroke_e	e	n/a
926.7135	0.138	1853427	keystroke_Key.space	Key.space	n/a
927.1365	0.1155	1854273	keystroke_m	m	n/a
927.328	0.134	1854656	keystroke_i	i	n/a
927.584	0.112	1855168	keystroke_l	l	n/a
927.7695	0.091	1855539	keystroke_l	l	n/a
927.8615	0.158	1855723	keystroke_s	s	n/a
928.0765	0.138	1856153	keystroke_Key.space	Key.space	n/a
928.6285	0.138	1857257	keystroke_b	b	n/a
929.372	0.111	1858744	keystroke_r	r	n/a
930.1125	0.1375	1860225	keystroke_i	i	n/a
931.0875	0.112	1862175	keystroke_e	e	n/a
931.3695	0.1365	1862739	keystroke_f	f	n/a
931.7645	0.1125	1863529	keystroke_s	s	n/a
932.0995	0.1125	1864199	keystroke_Key.enter	Key.enter	n/a
932.217	8.5215	1864434	prompt	n/a	tree moses yeast belts\n
933.3245	0.1125	1866649	keystroke_t	t	n/a
933.5965	0.067	1867193	keystroke_r	r	n/a
933.9435	0.046	1867887	keystroke_e	e	n/a
934.1565	0.0465	1868313	keystroke_e	e	n/a
934.502	0.091	1869004	keystroke_Key.space	Key.space	n/a
934.712	0.1385	1869424	keystroke_m	m	n/a
934.88	0.137	1869760	keystroke_o	o	n/a
935.0595	0.1165	1870119	keystroke_s	s	n/a
935.403	0.1595	1870806	keystroke_s	s	n/a
936.5575	0.112	1873115	keystroke_Key.backspace	Key.backspace	n/a
936.7315	0.1355	1873463	keystroke_e	e	n/a
936.9895	0.1375	1873979	keystroke_s	s	n/a
937.324	0.1135	1874648	keystroke_Key.space	Key.space	n/a
937.958	0.1355	1875916	keystroke_y	y	n/a
938.048	0.1365	1876096	keystroke_e	e	n/a
938.309	0.113	1876618	keystroke_s	s	n/a
938.454	0.159	1876908	keystroke_t	t	n/a
938.742	0.136	1877484	keystroke_Key.space	Key.space	n/a
939.239	0.0915	1878478	keystroke_b	b	n/a
939.3515	0.139	1878703	keystroke_e	e	n/a
939.5765	0.1375	1879153	keystroke_l	l	n/a
940.013	0.138	1880026	keystroke_t	t	n/a
940.318	0.136	1880636	keystroke_s	s	n/a
940.623	0.113	1881246	keystroke_Key.enter	Key.enter	n/a
940.7525	8.769	1881505	prompt	n/a	presents chapters turner henderson\n
941.95	0.156	1883900	keystroke_p	p	n/a
942.127	0.115	1884254	keystroke_r	r	n/a
942.341	0.1365	1884682	keystroke_e	e	n/a
942.646	0.137	1885292	keystroke_s	s	n/a
942.916	0.091	1885832	keystroke_e	e	n/a
943.1975	0.1125	1886395	keystroke_n	n	n/a
943.3315	0.114	1886663	keystroke_t	t	n/a
943.64	0.07	1887280	keystroke_s	s	n/a
943.9025	0.1595	1887805	keystroke_Key.space	Key.space	n/a
944.151	0.135	1888302	keystroke_c	c	n/a
944.4415	0.113	1888883	keystroke_h	h	n/a
944.5305	0.1805	1889061	keystroke_a	a	n/a
944.7125	0.1345	1889425	keystroke_m	m	n/a
944.911	0.1335	1889822	keystroke_p	p	n/a
945.0665	0.0915	1890133	keystroke_e	e	n/a
945.2245	0.113	1890449	keystroke_r	r	n/a
945.4235	0.16	1890847	keystroke_Key.space	Key.space	n/a
945.944	0.1135	1891888	keystroke_t	t	n/a
946.1895	0.111	1892379	keystroke_u	u	n/a
946.3825	0.1145	1892765	keystroke_n	n	n/a
946.5185	0.091	1893037	keystroke_e	e	n/a
946.6885	0.135	1893377	keystroke_r	r	n/a
946.898	0.1345	1893796	keystroke_Key.space	Key.space	n/a
947.5745	0.116	1895149	keystroke_h	h	n/a
947.6905	0.1385	1895381	keystroke_e	e	n/a
947.877	0.113	1895754	keystroke_n	n	n/a
948.011	0.114	1896022	keystroke_d	d	n/a
948.363	0.139	1896726	keystroke_e	e	n/a
948.565	0.113	1897130	keystroke_r	r	n/a
948.821	0.115	1897642	keystroke_s	s	n/a
948.988	0.1125	1897976	keystroke_o	o	n/a
949.193	0.1155	1898386	keystroke_n	n	n/a
949.406	0.112	1898812	keystroke_Key.enter	Key.enter	n/a
949.526	10.674	1899052	prompt	n/a	brochure tapes only judge\n
950.718	0.0925	1901436	keystroke_b	b	n/a
951.7925	0.1605	1903585	keystroke_r	r	n/a
952.207	0.1135	1904414	keystroke_o	o	n/a
953.6595	0.1145	1907319	keystroke_h	h	n/a
953.821	0.1385	1907642	keystroke_u	u	n/a
953.9595	0.09	1907919	keystroke_r	r	n/a
954.1465	0.1385	1908293	keystroke_e	e	n/a
954.387	0.138	1908774	keystroke_Key.space	Key.space	n/a
954.8175	0.091	1909635	keystroke_t	t	n/a
954.931	0.1145	1909862	keystroke_a	a	n/a
955.4585	0.1175	1910917	keystroke_p	p	n/a
955.5505	0.116	1911101	keystroke_e	e	n/a
955.7995	0.1345	1911599	keystroke_s	s	n/a
956.002	0.113	1912004	keystroke_Key.space	Key.space	n/a
956.5855	0.1575	1913171	keystroke_o	o	n/a
956.81	0.1345	1913620	keystroke_n	n	n/a
957.0145	0.1365	1914029	keystroke_l	l	n/a
957.183	0.1175	1914366	keystroke_y	y	n/a
957.4385	0.114	1914877	keystroke_Key.space	Key.space	n/a
958.157	0.111	1916314	keystroke_j	j	n/a
958.331	0.1355	1916662	keystroke_u	u	n/a
958.5205	0.1355	1917041	keystroke_d	d	n/a
959.658	0.0905	1919316	keystroke_g	g	n/a
959.7825	0.092	1919565	keystroke_e	e	n/a
960.1075	0.0895	1920215	keystroke_Key.enter	Key.enter	n/a
960.203	17.287	1920406	prompt	n/a	touring vertex hydrogen travesti\n
961.304	0.114	1922608	keystroke_t	t	n/a
961.551	0.181	1923102	keystroke_o	o	n/a
961.8565	0.1115	1923713	keystroke_u	u	n/a
962.458	0.1815	1924916	keystroke_r	r	n/a
962.715	0.1555	1925430	keystroke_i	i	n/a
962.8915	0.136	1925783	keystroke_n	n	n/a
963.0665	0.138	1926133	keystroke_g	g	n/a
963.3675	0.1355	1926735	keystroke_Key.space	Key.space	n/a
965.6845	0.091	1931369	keystroke_v	v	n/a
966.139	0.116	1932278	keystroke_e	e	n/a
966.358	0.091	1932716	keystroke_r	r	n/a
966.7745	0.135	1933549	keystroke_t	t	n/a
967.0595	0.114	1934119	keystroke_e	e	n/a
967.403	0.1335	1934806	keystroke_x	x	n/a
967.87	0.0935	1935740	keystroke_Key.space	Key.space	n/a
968.6195	0.111	1937239	keystroke_g	g	n/a
968.9935	0.1145	1937987	keystroke_y	y	n/a
970.038	0.1135	1940076	keystroke_Key.backspace	Key.backspace	n/a
970.237	0.113	1940474	keystroke_Key.backspace	Key.backspace	n/a
970.857	0.09	1941714	keystroke_h	h	n/a
971.0415	0.1125	1942083	keystroke_y	y	n/a
972.4015	0.1805	1944803	keystroke_d	d	n/a
972.9375	0.136	1945875	keystroke_r	r	n/a
973.6755	0.161	1947351	keystroke_o	o	n/a
974.0185	0.114	1948037	keystroke_g	g	n/a
974.1335	0.134	1948267	keystroke_e	e	n/a
974.268	0.111	1948536	keystroke_n	n	n/a
974.526	0.159	1949052	keystroke_Key.space	Key.space	n/a
975.104	0.1365	1950208	keystroke_t	t	n/a
975.364	0.1125	1950728	keystroke_r	r	n/a
975.667	0.1355	1951334	keystroke_a	a	n/a
976.333	0.0905	1952666	keystroke_v	v	n/a
976.5935	0.0905	1953187	keystroke_e	e	n/a
976.8345	0.134	1953669	keystroke_s	s	n/a
977.1345	0.1145	1954269	keystroke_t	t	n/a
977.354	0.134	1954708	keystroke_Key.enter	Key.enter	n/a
977.498	16.4745	1954996	prompt	n/a	bronze propecia jelsoft moms\n
978.728	0.113	1957456	keystroke_b	b	n/a
978.8975	0.113	1957795	keystroke_r	r	n/a
979.3855	0.1375	1958771	keystroke_o	o	n/a
979.656	0.0475	1959312	keystroke_n	n	n/a
980.1365	0.135	1960273	keystroke_z	z	n/a
980.481	0.136	1960962	keystroke_e	e	n/a
980.764	0.157	1961528	keystroke_Key.space	Key.space	n/a
981.271	0.114	1962542	keystroke_p	p	n/a
981.407	0.1375	1962814	keystroke_r	r	n/a
981.6875	0.1115	1963375	keystroke_o	o	n/a
984.9165	0.114	1969833	keystroke_o	o	n/a
985.396	0.113	1970792	keystroke_Key.backspace	Key.backspace	n/a
986.2085	0.138	1972417	keystroke_p	p	n/a
986.4085	0.112	1972817	keystroke_e	e	n/a
986.9235	0.113	1973847	keystroke_c	c	n/a
987.94	0.112	1975880	keystroke_i	i	n/a
988.0525	0.134	1976105	keystroke_a	a	n/a
988.2415	0.134	1976483	keystroke_Key.space	Key.space	n/a
988.9945	0.091	1977989	keystroke_j	j	n/a
989.1475	0.092	1978295	keystroke_e	e	n/a
990.548	0.161	1981096	keystroke_l	l	n/a
991.211	0.137	1982422	keystroke_s	s	n/a
991.444	0.1135	1982888	keystroke_o	o	n/a
991.629	0.115	1983258	keystroke_f	f	n/a
991.892	0.138	1983784	keystroke_t	t	n/a
992.164	0.16	1984328	keystroke_Key.space	Key.space	n/a
992.719	0.114	1985438	keystroke_m	m	n/a
993.171	0.1385	1986342	keystroke_o	o	n/a
993.3405	0.137	1986681	keystroke_m	m	n/a
993.6725	0.091	1987345	keystroke_s	s	n/a
993.8795	0.091	1987759	keystroke_Key.enter	Key.enter	n/a
993.977	15.352	1987954	prompt	n/a	eyed finite promotional overview\n
995.177	0.09	1990354	keystroke_e	e	n/a
995.3695	0.137	1990739	keystroke_y	y	n/a
995.4815	0.118	1990963	keystroke_e	e	n/a
995.6955	0.156	1991391	keystroke_d	d	n/a
995.9325	0.089	1991865	keystroke_Key.space	Key.space	n/a
999.773	0.0475	1999546	keystroke_d	d	n/a
1000.5545	0.116	2001109	keystroke_Key.backspace	Key.backspace	n/a
1000.9615	0.09	2001923	keystroke_f	f	n/a
1001.256	0.135	2002512	keystroke_i	i	n/a
1001.493	0.113	2002986	keystroke_n	n	n/a
1002.397	0.1165	2004794	keystroke_i	i	n/a
1002.5605	0.112	2005121	keystroke_t	t	n/a
1002.8215	0.134	2005643	keystroke_e	e	n/a
1003.09	0.1375	2006180	keystroke_Key.space	Key.space	n/a
1003.7625	0.114	2007525	keystroke_p	p	n/a
1003.9255	0.1365	2007851	keystroke_r	r	n/a
1004.1935	0.1355	2008387	keystroke_o	o	n/a
1005.398	0.134	2010796	keystroke_m	m	n/a
1005.618	0.1365	2011236	keystroke_o	o	n/a
1005.934	0.1155	2011868	keystroke_t	t	n/a
1006.096	0.113	2012192	keystroke_i	i	n/a
1006.3245	0.1105	2012649	keystroke_o	o	n/a
1006.507	0.1145	2013014	keystroke_n	n	n/a
1006.685	0.113	2013370	keystroke_a	a	n/a
1006.839	0.1165	2013678	keystroke_l	l	n/a
1007.0235	0.136	2014047	keystroke_Key.space	Key.space	n/a
1007.348	0.139	2014696	keystroke_o	o	n/a
1007.591	0.137	2015182	keystroke_v	v	n/a
1007.7895	0.1555	2015579	keystroke_e	e	n/a
1008.031	0.115	2016062	keystroke_r	r	n/a
1008.3895	0.1145	2016779	keystroke_v	v	n/a
1008.7175	0.111	2017435	keystroke_i	i	n/a
