onset	duration	sample	value	key	prompt_text
2.0385	8.9145	4077	prompt	n/a	the quick brown fox jumps over a lazy dog\n
3.379	0.001	6758	keystroke	t	n/a
3.392	0.075	6784	keystroke	h	n/a
3.497	0.075	6994	keystroke	e	n/a
3.632	0.075	7264	keystroke	Key.space	n/a
4.0215	0.075	8043	keystroke	q	n/a
4.1415	0.0445	8283	keystroke	u	n/a
4.292	0.058	8584	keystroke	i	n/a
4.4255	0.075	8851	keystroke	c	n/a
4.5605	0.06	9121	keystroke	k	n/a
4.6955	0.076	9391	keystroke	Key.space	n/a
5.2215	0.059	10443	keystroke	b	n/a
5.4455	0.076	10891	keystroke	r	n/a
5.6255	0.045	11251	keystroke	o	n/a
5.7005	0.075	11401	keystroke	w	n/a
5.8655	0.075	11731	keystroke	n	n/a
6.0755	0.046	12151	keystroke	Key.space	n/a
6.391	0.06	12782	keystroke	f	n/a
6.511	0.06	13022	keystroke	o	n/a
6.6005	0.075	13201	keystroke	x	n/a
6.7055	0.06	13411	keystroke	Key.space	n/a
6.916	0.03	13832	keystroke	j	n/a
7.066	0.06	14132	keystroke	u	n/a
7.321	0.075	14642	keystroke	m	n/a
7.441	0.09	14882	keystroke	p	n/a
7.591	0.075	15182	keystroke	s	n/a
7.711	0.075	15422	keystroke	Key.space	n/a
8.011	0.075	16022	keystroke	o	n/a
8.101	0.0745	16202	keystroke	v	n/a
8.3255	0.12	16651	keystroke	e	n/a
8.3855	0.09	16771	keystroke	r	n/a
8.6105	0.075	17221	keystroke	Key.space	n/a
8.8505	0.091	17701	keystroke	a	n/a
8.9865	0.074	17973	keystroke	Key.space	n/a
9.3615	0.074	18723	keystroke	l	n/a
9.5255	0.06	19051	keystroke	a	n/a
9.736	0.0745	19472	keystroke	z	n/a
9.9605	0.06	19921	keystroke	y	n/a
10.0955	0.09	20191	keystroke	Key.space	n/a
10.2605	0.06	20521	keystroke	d	n/a
10.3505	0.09	20701	keystroke	o	n/a
10.5005	0.0605	21001	keystroke	g	n/a
10.891	0.06	21782	keystroke	Key.enter	n/a
10.9575	8.522	21915	prompt	n/a	units filename movie frequency\n
11.611	0.06	23222	keystroke	u	n/a
11.806	0.03	23612	keystroke	n	n/a
11.911	0.06	23822	keystroke	i	n/a
12.016	0.075	24032	keystroke	t	n/a
12.3615	0.074	24723	keystroke	s	n/a
12.5555	0.0605	25111	keystroke	Key.space	n/a
13.0815	0.075	26163	keystroke	f	n/a
13.2765	0.06	26553	keystroke	i	n/a
13.4415	0.075	26883	keystroke	l	n/a
13.5465	0.06	27093	keystroke	e	n/a
13.876	0.06	27752	keystroke	n	n/a
14.2055	0.091	28411	keystroke	a	n/a
14.3265	0.0595	28653	keystroke	m	n/a
14.461	0.075	28922	keystroke	e	n/a
14.671	0.06	29342	keystroke	Key.space	n/a
15.406	0.015	30812	keystroke	m	n/a
15.511	0.06	31022	keystroke	o	n/a
15.601	0.075	31202	keystroke	v	n/a
15.766	0.045	31532	keystroke	i	n/a
15.826	0.075	31652	keystroke	e	n/a
16.0065	0.075	32013	keystroke	Key.space	n/a
16.6365	0.075	33273	keystroke	f	n/a
16.8615	0.135	33723	keystroke	r	n/a
16.9665	0.09	33933	keystroke	e	n/a
17.2065	0.075	34413	keystroke	q	n/a
17.3415	0.06	34683	keystroke	u	n/a
17.5215	0.075	35043	keystroke	e	n/a
17.6565	0.0595	35313	keystroke	n	n/a
18.211	0.0755	36422	keystroke	c	n/a
18.4515	0.045	36903	keystroke	y	n/a
19.4105	0.06	38821	keystroke	Key.enter	n/a
19.4845	10.675	38969	prompt	n/a	electricity yards everybody strengths\n
20.0855	0.06	40171	keystroke	e	n/a
20.2205	0.075	40441	keystroke	l	n/a
20.3265	0.06	40653	keystroke	e	n/a
20.5355	0.075	41071	keystroke	c	n/a
20.7915	0.059	41583	keystroke	t	n/a
21.0155	0.061	42031	keystroke	r	n/a
21.1805	0.06	42361	keystroke	i	n/a
21.3605	0.09	42721	keystroke	c	n/a
22.2605	0.045	44521	keystroke	i	n/a
22.3355	0.075	44671	keystroke	t	n/a
22.5305	0.06	45061	keystroke	y	n/a
22.6505	0.075	45301	keystroke	Key.space	n/a
22.9355	0.06	45871	keystroke	y	n/a
23.161	0.135	46322	keystroke	a	n/a
23.266	0.09	46532	keystroke	r	n/a
23.461	0.075	46922	keystroke	d	n/a
23.656	0.075	47312	keystroke	s	n/a
23.866	0.06	47732	keystroke	Key.space	n/a
24.481	0.0595	48962	keystroke	e	n/a
24.6605	0.075	49321	keystroke	v	n/a
24.8705	0.15	49741	keystroke	e	n/a
24.9605	0.075	49921	keystroke	r	n/a
25.2005	0.06	50401	keystroke	y	n/a
26.881	0.075	53762	keystroke	b	n/a
27.016	0.06	54032	keystroke	o	n/a
27.121	0.06	54242	keystroke	d	n/a
27.286	0.075	54572	keystroke	y	n/a
27.631	0.06	55262	keystroke	Key.space	n/a
28.1115	0.06	56223	keystroke	s	n/a
28.2765	0.06	56553	keystroke	t	n/a
28.486	0.09	56972	keystroke	r	n/a
28.6065	0.06	57213	keystroke	e	n/a
28.8165	0.06	57633	keystroke	n	n/a
28.9215	0.075	57843	keystroke	g	n/a
29.4315	0.075	58863	keystroke	t	n/a
29.5815	0.06	59163	keystroke	h	n/a
29.7015	0.0595	59403	keystroke	s	n/a
30.091	0.06	60182	keystroke	Key.enter	n/a
30.1635	10.084	60327	prompt	n/a	fifteen meets rally telephony\n
30.991	0.075	61982	keystroke	f	n/a
31.111	0.075	62222	keystroke	i	n/a
31.246	0.0895	62492	keystroke	f	n/a
31.3665	0.045	62733	keystroke	i	n/a
31.5315	0.044	63063	keystroke	t	n/a
31.6805	0.061	63361	keystroke	e	n/a
31.8005	0.0605	63601	keystroke	n	n/a
32.431	0.06	64862	keystroke	Key.backspace	n/a
32.521	0.075	65042	keystroke	e	n/a
32.686	0.09	65372	keystroke	n	n/a
32.926	0.0605	65852	keystroke	Key.space	n/a
33.8255	0.06	67651	keystroke	m	n/a
33.9455	0.075	67891	keystroke	e	n/a
34.1705	0.06	68341	keystroke	t	n/a
34.3355	0.075	68671	keystroke	t	n/a
34.6055	0.06	69211	keystroke	Key.backspace	n/a
34.7555	0.075	69511	keystroke	Key.backspace	n/a
34.8165	0.104	69633	keystroke	e	n/a
34.9065	0.074	69813	keystroke	t	n/a
35.0855	0.075	70171	keystroke	s	n/a
35.2205	0.06	70441	keystroke	Key.space	n/a
35.746	0.105	71492	keystroke	r	n/a
35.821	0.075	71642	keystroke	e	n/a
36.016	0.105	72032	keystroke	a	n/a
36.4815	0.03	72963	keystroke	Key.backspace	n/a
36.6165	0.06	73233	keystroke	Key.backspace	n/a
36.7815	0.0895	73563	keystroke	a	n/a
36.946	0.075	73892	keystroke	l	n/a
37.111	0.06	74222	keystroke	l	n/a
37.216	0.06	74432	keystroke	y	n/a
37.336	0.09	74672	keystroke	Key.space	n/a
37.816	0.0755	75632	keystroke	t	n/a
37.9965	0.075	75993	keystroke	e	n/a
38.1165	0.075	76233	keystroke	l	n/a
38.2365	0.075	76473	keystroke	e	n/a
38.4315	0.06	76863	keystroke	p	n/a
38.6415	0.06	77283	keystroke	h	n/a
38.8215	0.045	77643	keystroke	o	n/a
38.9865	0.045	77973	keystroke	n	n/a
39.1065	0.06	78213	keystroke	y	n/a
40.1865	0.06	80373	keystroke	Key.enter	n/a
40.25	12.6195	80500	prompt	n/a	haiti messages convenient charged\n
41.0265	0.075	82053	keystroke	h	n/a
41.1615	0.09	82323	keystroke	a	n/a
41.3565	0.0445	82713	keystroke	i	n/a
41.506	0.06	83012	keystroke	t	n/a
41.626	0.06	83252	keystroke	i	n/a
41.746	0.09	83492	keystroke	s	n/a
42.4215	0.06	84843	keystroke	Key.backspace	n/a
43.2165	0.06	86433	keystroke	s	n/a
43.3515	0.075	86703	keystroke	Key.space	n/a
43.846	0.06	87692	keystroke	Key.backspace	n/a
43.996	0.06	87992	keystroke	Key.backspace	n/a
44.161	0.0605	88322	keystroke	Key.space	n/a
44.7465	0.06	89493	keystroke	m	n/a
44.8665	0.09	89733	keystroke	e	n/a
45.0765	0.06	90153	keystroke	s	n/a
45.2405	0.0755	90481	keystroke	s	n/a
45.331	0.15	90662	keystroke	a	n/a
45.466	0.135	90932	keystroke	g	n/a
45.602	0.074	91204	keystroke	e	n/a
45.781	0.075	91562	keystroke	s	n/a
45.961	0.06	91922	keystroke	Key.space	n/a
46.441	0.075	92882	keystroke	m	n/a
46.621	0.075	93242	keystroke	c	n/a
46.681	0.045	93362	keystroke	o	n/a
47.101	0.045	94202	keystroke	Key.backspace	n/a
47.251	0.045	94502	keystroke	Key.backspace	n/a
47.386	0.045	94772	keystroke	Key.backspace	n/a
47.551	0.075	95102	keystroke	c	n/a
47.656	0.045	95312	keystroke	o	n/a
47.821	0.06	95642	keystroke	n	n/a
48.361	0.045	96722	keystroke	v	n/a
48.571	0.075	97142	keystroke	e	n/a
48.691	0.075	97382	keystroke	n	n/a
49.1715	0.045	98343	keystroke	i	n/a
49.9065	0.0905	99813	keystroke	e	n/a
50.101	0.0905	100202	keystroke	n	n/a
50.2665	0.075	100533	keystroke	t	n/a
50.5515	0.075	101103	keystroke	s	n/a
50.9865	0.06	101973	keystroke	Key.backspace	n/a
51.2115	0.06	102423	keystroke	Key.space	n/a
51.5565	0.075	103113	keystroke	c	n/a
51.6465	0.06	103293	keystroke	h	n/a
51.7515	0.1195	103503	keystroke	a	n/a
51.826	0.075	103652	keystroke	r	n/a
52.036	0.076	104072	keystroke	g	n/a
52.201	0.06	104402	keystroke	e	n/a
52.396	0.06	104792	keystroke	d	n/a
52.801	0.06	105602	keystroke	Key.enter	n/a
52.874	9.731	105748	prompt	n/a	acquire gender determination assumption\n
53.491	0.075	106982	keystroke	a	n/a
53.761	0.09	107522	keystroke	c	n/a
54.376	0.09	108752	keystroke	q	n/a
54.481	0.045	108962	keystroke	u	n/a
54.676	0.06	109352	keystroke	i	n/a
54.811	0.1505	109622	keystroke	r	n/a
54.901	0.1055	109802	keystroke	e	n/a
55.1565	0.06	110313	keystroke	Key.space	n/a
55.936	0.06	111872	keystroke	g	n/a
56.131	0.0455	112262	keystroke	e	n/a
56.2365	0.075	112473	keystroke	n	n/a
56.3415	0.09	112683	keystroke	e	n/a
56.791	0.0605	113582	keystroke	Key.backspace	n/a
56.9115	0.06	113823	keystroke	d	n/a
57.1065	0.105	114213	keystroke	e	n/a
57.1965	0.075	114393	keystroke	r	n/a
57.391	0.075	114782	keystroke	Key.space	n/a
57.841	0.06	115682	keystroke	d	n/a
58.036	0.075	116072	keystroke	e	n/a
58.171	0.09	116342	keystroke	t	n/a
58.366	0.09	116732	keystroke	e	n/a
58.441	0.075	116882	keystroke	r	n/a
58.576	0.06	117152	keystroke	m	n/a
58.741	0.045	117482	keystroke	i	n/a
58.906	0.06	117812	keystroke	n	n/a
59.086	0.075	118172	keystroke	a	n/a
59.206	0.075	118412	keystroke	t	n/a
59.326	0.12	118652	keystroke	i	n/a
59.416	0.09	118832	keystroke	o	n/a
59.566	0.09	119132	keystroke	n	n/a
59.761	0.06	119522	keystroke	Key.space	n/a
60.2715	0.06	120543	keystroke	a	n/a
60.4515	0.03	120903	keystroke	s	n/a
60.5715	0.06	121143	keystroke	s	n/a
60.6915	0.075	121383	keystroke	u	n/a
60.8865	0.075	121773	keystroke	m	n/a
61.0215	0.09	122043	keystroke	p	n/a
61.1705	0.061	122341	keystroke	r	n/a
61.696	0.06	123392	keystroke	Key.backspace	n/a
61.786	0.0605	123572	keystroke	t	n/a
61.921	0.1355	123842	keystroke	i	n/a
62.0115	0.075	124023	keystroke	o	n/a
62.1315	0.09	124263	keystroke	n	n/a
62.5365	0.06	125073	keystroke	Key.enter	n/a
62.612	14.8875	125224	prompt	n/a	poetry wrong knowledgestorm pounds\n
63.1815	0.075	126363	keystroke	p	n/a
63.4065	0.075	126813	keystroke	r	n/a
63.931	0.06	127862	keystroke	Key.backspace	n/a
64.051	0.06	128102	keystroke	e	n/a
64.156	0.09	128312	keystroke	i	n/a
64.561	0.06	129122	keystroke	Key.backspace	n/a
64.696	0.06	129392	keystroke	Key.backspace	n/a
64.906	0.06	129812	keystroke	i	n/a
64.996	0.06	129992	keystroke	e	n/a
65.491	0.06	130982	keystroke	Key.backspace	n/a
65.641	0.06	131282	keystroke	Key.backspace	n/a
66.376	0.045	132752	keystroke	o	n/a
66.496	0.06	132992	keystroke	e	n/a
67.2305	0.09	134461	keystroke	t	n/a
67.3665	0.059	134733	keystroke	r	n/a
67.5755	0.045	135151	keystroke	y	n/a
67.7115	0.075	135423	keystroke	Key.space	n/a
67.8315	0.0895	135663	keystroke	w	n/a
68.026	0.075	136052	keystroke	r	n/a
68.116	0.06	136232	keystroke	o	n/a
68.282	0.074	136564	keystroke	n	n/a
68.372	0.074	136744	keystroke	g	n/a
68.506	0.075	137012	keystroke	Key.space	n/a
68.911	0.045	137822	keystroke	k	n/a
69.031	0.06	138062	keystroke	n	n/a
69.211	0.075	138422	keystroke	o	n/a
69.436	0.06	138872	keystroke	e	n/a
69.9465	0.06	139893	keystroke	Key.backspace	n/a
70.0515	0.075	140103	keystroke	w	n/a
70.2615	0.06	140523	keystroke	l	n/a
70.4715	0.06	140943	keystroke	e	n/a
70.6665	0.06	141333	keystroke	d	n/a
70.7865	0.15	141573	keystroke	g	n/a
70.9215	0.0745	141843	keystroke	e	n/a
71.431	0.06	142862	keystroke	s	n/a
71.581	0.075	143162	keystroke	t	n/a
72.241	0.045	144482	keystroke	r	n/a
73.231	0.045	146462	keystroke	Key.backspace	n/a
73.426	0.06	146852	keystroke	o	n/a
73.6065	0.06	147213	keystroke	r	n/a
73.8465	0.075	147693	keystroke	m	n/a
74.0865	0.105	148173	keystroke	Key.space	n/a
74.4615	0.06	148923	keystroke	o	n/a
74.9265	0.06	149853	keystroke	Key.backspace	n/a
75.1665	0.09	150333	keystroke	p	n/a
75.3765	0.06	150753	keystroke	u	n/a
75.5715	0.06	151143	keystroke	n	n/a
75.6765	0.075	151353	keystroke	d	n/a
75.9765	0.06	151953	keystroke	Key.backspace	n/a
76.1415	0.045	152283	keystroke	Key.backspace	n/a
76.2765	0.045	152553	keystroke	Key.backspace	n/a
76.4565	0.075	152913	keystroke	o	n/a
76.6065	0.06	153213	keystroke	u	n/a
76.8015	0.075	153603	keystroke	n	n/a
76.9065	0.09	153813	keystroke	d	n/a
77.0265	0.089	154053	keystroke	s	n/a
77.4305	0.061	154861	keystroke	Key.enter	n/a
77.505	8.6495	155010	prompt	n/a	relation velocity tons frequencies\n
78.181	0.105	156362	keystroke	r	n/a
78.286	0.06	156572	keystroke	e	n/a
78.736	0.06	157472	keystroke	l	n/a
78.841	0.135	157682	keystroke	a	n/a
78.961	0.075	157922	keystroke	t	n/a
79.0805	0.12	158161	keystroke	i	n/a
79.1865	0.074	158373	keystroke	o	n/a
79.3365	0.075	158673	keystroke	n	n/a
79.5305	0.061	159061	keystroke	Key.space	n/a
79.8465	0.06	159693	keystroke	v	n/a
80.0705	0.06	160141	keystroke	e	n/a
80.2205	0.06	160441	keystroke	l	n/a
80.4465	0.074	160893	keystroke	c	n/a
80.8505	0.06	161701	keystroke	Key.backspace	n/a
81.0755	0.075	162151	keystroke	o	n/a
81.4665	0.074	162933	keystroke	c	n/a
81.5715	0.059	163143	keystroke	i	n/a
81.7205	0.0755	163441	keystroke	t	n/a
81.946	0.045	163892	keystroke	y	n/a
82.036	0.075	164072	keystroke	Key.space	n/a
82.216	0.045	164432	keystroke	t	n/a
82.351	0.045	164702	keystroke	o	n/a
82.516	0.075	165032	keystroke	n	n/a
82.621	0.075	165242	keystroke	s	n/a
82.786	0.075	165572	keystroke	Key.space	n/a
83.4915	0.075	166983	keystroke	f	n/a
83.686	0.1355	167372	keystroke	r	n/a
83.7765	0.06	167553	keystroke	e	n/a
84.0015	0.0745	168003	keystroke	q	n/a
84.1065	0.06	168213	keystroke	u	n/a
84.301	0.06	168602	keystroke	e	n/a
84.436	0.06	168872	keystroke	n	n/a
84.586	0.09	169172	keystroke	c	n/a
84.706	0.06	169412	keystroke	i	n/a
85.4565	0.03	170913	keystroke	e	n/a
85.4715	0.06	170943	keystroke	s	n/a
86.071	0.075	172142	keystroke	Key.enter	n/a
86.1585	11.186	172317	prompt	n/a	hotel stewart talking upload\n
86.791	0.045	173582	keystroke	h	n/a
86.956	0.06	173912	keystroke	o	n/a
87.301	0.045	174602	keystroke	t	n/a
87.466	0.06	174932	keystroke	e	n/a
87.616	0.075	175232	keystroke	l	n/a
87.811	0.075	175622	keystroke	Key.space	n/a
88.156	0.09	176312	keystroke	s	n/a
88.351	0.075	176702	keystroke	t	n/a
88.5915	0.105	177183	keystroke	a	n/a
88.7115	0.045	177423	keystroke	r	n/a
88.9665	0.06	177933	keystroke	Key.backspace	n/a
89.1015	0.09	178203	keystroke	Key.backspace	n/a
89.2065	0.09	178413	keystroke	e	n/a
89.791	0.12	179582	keystroke	w	n/a
89.926	0.12	179852	keystroke	a	n/a
90.031	0.075	180062	keystroke	r	n/a
90.7365	0.06	181473	keystroke	t	n/a
91.1565	0.045	182313	keystroke	Key.space	n/a
91.4415	0.105	182883	keystroke	t	n/a
91.5465	0.105	183093	keystroke	a	n/a
91.6965	0.09	183393	keystroke	l	n/a
91.8015	0.045	183603	keystroke	k	n/a
91.9515	0.075	183903	keystroke	i	n/a
92.1315	0.06	184263	keystroke	n	n/a
92.2205	0.075	184441	keystroke	g	n/a
92.3855	0.06	184771	keystroke	Key.space	n/a
93.0905	0.045	186181	keystroke	u	n/a
93.2255	0.091	186451	keystroke	o	n/a
93.4655	0.091	186931	keystroke	l	n/a
93.8715	0.045	187743	keystroke	Key.backspace	n/a
94.0365	0.075	188073	keystroke	Key.backspace	n/a
94.7865	0.06	189573	keystroke	p	n/a
94.9815	0.0595	189963	keystroke	l	n/a
95.146	0.075	190292	keystroke	o	n/a
95.4315	0.12	190863	keystroke	a	n/a
95.5365	0.09	191073	keystroke	d	n/a
97.276	0.06	194552	keystroke	Key.enter	n/a
97.3485	9.8665	194697	prompt	n/a	exposure switzerland specialized creek\n
97.996	0.06	195992	keystroke	e	n/a
98.176	0.09	196352	keystroke	x	n/a
98.311	0.06	196622	keystroke	p	n/a
98.461	0.0755	196922	keystroke	o	n/a
98.5965	0.09	197193	keystroke	s	n/a
98.7465	0.075	197493	keystroke	u	n/a
98.8365	0.15	197673	keystroke	r	n/a
98.9415	0.075	197883	keystroke	e	n/a
99.0615	0.075	198123	keystroke	Key.space	n/a
99.2865	0.075	198573	keystroke	s	n/a
99.571	0.075	199142	keystroke	w	n/a
99.721	0.0755	199442	keystroke	i	n/a
99.9165	0.075	199833	keystroke	t	n/a
100.7415	0.075	201483	keystroke	z	n/a
101.266	0.105	202532	keystroke	e	n/a
101.326	0.09	202652	keystroke	r	n/a
101.551	0.06	203102	keystroke	l	n/a
101.656	0.06	203312	keystroke	a	n/a
101.761	0.09	203522	keystroke	n	n/a
101.881	0.06	203762	keystroke	d	n/a
102.016	0.075	204032	keystroke	Key.space	n/a
102.466	0.06	204932	keystroke	s	n/a
102.556	0.075	205112	keystroke	p	n/a
102.721	0.075	205442	keystroke	e	n/a
103.351	0.105	206702	keystroke	c	n/a
103.501	0.06	207002	keystroke	i	n/a
103.621	0.09	207242	keystroke	a	n/a
103.756	0.075	207512	keystroke	l	n/a
105.136	0.075	210272	keystroke	i	n/a
105.2865	0.0745	210573	keystroke	z	n/a
105.481	0.06	210962	keystroke	e	n/a
105.6765	0.0595	211353	keystroke	d	n/a
105.796	0.0605	211592	keystroke	Key.space	n/a
106.081	0.105	212162	keystroke	c	n/a
106.3515	0.075	212703	keystroke	r	n/a
106.5465	0.06	213093	keystroke	e	n/a
106.7115	0.06	213423	keystroke	e	n/a
106.8465	0.075	213693	keystroke	k	n/a
107.146	0.06	214292	keystroke	Key.enter	n/a
107.219	6.949	214438	prompt	n/a	pulled but necessity wallpapers\n
107.866	0.06	215732	keystroke	p	n/a
108.061	0.046	216122	keystroke	u	n/a
108.332	0.074	216664	keystroke	l	n/a
108.482	0.074	216964	keystroke	l	n/a
108.691	0.045	217382	keystroke	e	n/a
108.857	0.074	217714	keystroke	d	n/a
108.961	0.075	217922	keystroke	Key.space	n/a
109.142	0.059	218284	keystroke	b	n/a
109.232	0.059	218464	keystroke	u	n/a
109.352	0.059	218704	keystroke	t	n/a
109.471	0.075	218942	keystroke	Key.space	n/a
109.816	0.06	219632	keystroke	n	n/a
109.921	0.06	219842	keystroke	e	n/a
110.1765	0.09	220353	keystroke	c	n/a
110.446	0.06	220892	keystroke	e	n/a
110.716	0.0905	221432	keystroke	s	n/a
110.8665	0.075	221733	keystroke	s	n/a
111.4815	0.045	222963	keystroke	i	n/a
111.5715	0.06	223143	keystroke	t	n/a
111.7805	0.0605	223561	keystroke	y	n/a
111.946	0.0595	223892	keystroke	Key.space	n/a
112.4265	0.09	224853	keystroke	w	n/a
112.5615	0.09	225123	keystroke	a	n/a
112.6665	0.06	225333	keystroke	l	n/a
112.8315	0.045	225663	keystroke	l	n/a
113.0115	0.06	226023	keystroke	p	n/a
113.0865	0.075	226173	keystroke	a	n/a
113.2065	0.06	226413	keystroke	p	n/a
113.3415	0.105	226683	keystroke	e	n/a
113.4165	0.075	226833	keystroke	r	n/a
113.6115	0.075	227223	keystroke	s	n/a
114.0915	0.075	228183	keystroke	Key.enter	n/a
114.172	8.3875	228344	prompt	n/a	closely handy graphs there\n
114.961	0.06	229922	keystroke	d	n/a
115.276	0.06	230552	keystroke	Key.backspace	n/a
115.426	0.075	230852	keystroke	c	n/a
115.516	0.075	231032	keystroke	l	n/a
115.711	0.06	231422	keystroke	o	n/a
115.906	0.075	231812	keystroke	s	n/a
116.116	0.06	232232	keystroke	e	n/a
116.416	0.06	232832	keystroke	l	n/a
116.641	0.015	233282	keystroke	y	n/a
116.776	0.075	233552	keystroke	Key.space	n/a
117.736	0.06	235472	keystroke	h	n/a
117.811	0.075	235622	keystroke	a	n/a
117.931	0.06	235862	keystroke	n	n/a
118.036	0.075	236072	keystroke	d	n/a
118.156	0.0755	236312	keystroke	l	n/a
118.5765	0.06	237153	keystroke	Key.backspace	n/a
118.6965	0.075	237393	keystroke	y	n/a
118.877	0.075	237754	keystroke	Key.space	n/a
119.147	0.06	238294	keystroke	g	n/a
119.387	0.12	238774	keystroke	r	n/a
119.492	0.09	238984	keystroke	a	n/a
119.627	0.059	239254	keystroke	p	n/a
120.3015	0.075	240603	keystroke	h	n/a
120.8565	0.075	241713	keystroke	s	n/a
121.0065	0.075	242013	keystroke	Key.space	n/a
121.3065	0.06	242613	keystroke	t	n/a
121.4115	0.06	242823	keystroke	h	n/a
121.4865	0.09	242973	keystroke	e	n/a
121.5915	0.1345	243183	keystroke	r	n/a
121.6815	0.0595	243363	keystroke	e	n/a
122.476	0.075	244952	keystroke	Key.enter	n/a
122.564	8.0355	245128	prompt	n/a	expressed mason indirect estimation\n
123.226	0.06	246452	keystroke	e	n/a
123.421	0.09	246842	keystroke	x	n/a
123.526	0.06	247052	keystroke	p	n/a
123.676	0.1505	247352	keystroke	r	n/a
123.7665	0.09	247533	keystroke	e	n/a
124.0815	0.09	248163	keystroke	s	n/a
124.2465	0.06	248493	keystroke	s	n/a
124.4415	0.045	248883	keystroke	e	n/a
124.5915	0.075	249183	keystroke	d	n/a
124.7115	0.075	249423	keystroke	Key.space	n/a
124.9515	0.075	249903	keystroke	m	n/a
125.0565	0.1505	250113	keystroke	a	n/a
125.192	0.09	250384	keystroke	s	n/a
125.372	0.0895	250744	keystroke	o	n/a
125.5515	0.105	251103	keystroke	n	n/a
125.746	0.06	251492	keystroke	Key.space	n/a
126.212	0.0445	252424	keystroke	i	n/a
126.3615	0.075	252723	keystroke	n	n/a
126.4815	0.075	252963	keystroke	d	n/a
127.412	0.06	254824	keystroke	i	n/a
127.502	0.12	255004	keystroke	r	n/a
127.592	0.09	255184	keystroke	e	n/a
127.8315	0.09	255663	keystroke	c	n/a
128.0565	0.06	256113	keystroke	t	n/a
128.1915	0.075	256383	keystroke	Key.space	n/a
128.4465	0.06	256893	keystroke	e	n/a
128.6265	0.075	257253	keystroke	s	n/a
128.7915	0.06	257583	keystroke	t	n/a
128.8965	0.06	257793	keystroke	i	n/a
129.0465	0.105	258093	keystroke	m	n/a
129.1065	0.09	258213	keystroke	a	n/a
129.2115	0.045	258423	keystroke	t	n/a
129.2865	0.105	258573	keystroke	i	n/a
129.3615	0.09	258723	keystroke	o	n/a
129.5115	0.105	259023	keystroke	n	n/a
130.531	0.06	261062	keystroke	Key.enter	n/a
130.6035	11.216	261207	prompt	n/a	chip cole jennifer photographs\n
131.251	0.075	262502	keystroke	c	n/a
131.776	0.075	263552	keystroke	h	n/a
132.001	0.12	264002	keystroke	o	n/a
132.106	0.075	264212	keystroke	p	n/a
132.7515	0.075	265503	keystroke	Key.backspace	n/a
132.9165	0.06	265833	keystroke	Key.backspace	n/a
133.652	0.045	267304	keystroke	i	n/a
133.787	0.075	267574	keystroke	p	n/a
133.982	0.075	267964	keystroke	Key.space	n/a
134.687	0.075	269374	keystroke	c	n/a
134.777	0.06	269554	keystroke	o	n/a
134.957	0.06	269914	keystroke	l	n/a
135.032	0.075	270064	keystroke	e	n/a
135.167	0.074	270334	keystroke	Key.space	n/a
135.347	0.075	270694	keystroke	j	n/a
135.512	0.06	271024	keystroke	e	n/a
135.812	0.045	271624	keystroke	n	n/a
135.962	0.06	271924	keystroke	n	n/a
136.262	0.0595	272524	keystroke	i	n/a
136.4415	0.06	272883	keystroke	f	n/a
136.6365	0.135	273273	keystroke	e	n/a
136.7265	0.075	273453	keystroke	r	n/a
136.8915	0.075	273783	keystroke	Key.space	n/a
137.1465	0.075	274293	keystroke	p	n/a
137.3265	0.06	274653	keystroke	h	n/a
137.4765	0.075	274953	keystroke	t	n/a
137.5965	0.06	275193	keystroke	o	n/a
137.7615	0.045	275523	keystroke	t	n/a
138.1515	0.0605	276303	keystroke	Key.backspace	n/a
138.317	0.06	276634	keystroke	Key.backspace	n/a
138.437	0.045	276874	keystroke	Key.backspace	n/a
138.722	0.03	277444	keystroke	o	n/a
138.812	0.075	277624	keystroke	t	n/a
139.412	0.06	278824	keystroke	o	n/a
140.027	0.06	280054	keystroke	g	n/a
140.222	0.105	280444	keystroke	r	n/a
140.297	0.12	280594	keystroke	a	n/a
140.402	0.06	280804	keystroke	p	n/a
140.597	0.075	281194	keystroke	h	n/a
141.3615	0.06	282723	keystroke	s	n/a
141.7515	0.06	283503	keystroke	Key.enter	n/a
141.8235	8.066	283647	prompt	n/a	blink normal provided physical\n
142.7415	0.075	285483	keystroke	b	n/a
142.8465	0.075	285693	keystroke	l	n/a
143.0115	0.045	286023	keystroke	i	n/a
143.131	0.09	286262	keystroke	n	n/a
143.251	0.075	286502	keystroke	k	n/a
143.476	0.045	286952	keystroke	Key.space	n/a
144.001	0.06	288002	keystroke	n	n/a
144.227	0.015	288454	keystroke	o	n/a
144.302	0.075	288604	keystroke	r	n/a
144.392	0.059	288784	keystroke	m	n/a
144.5115	0.075	289023	keystroke	a	n/a
144.6165	0.075	289233	keystroke	l	n/a
144.7815	0.075	289563	keystroke	Key.space	n/a
145.2915	0.06	290583	keystroke	p	n/a
145.4115	0.075	290823	keystroke	r	n/a
145.5465	0.075	291093	keystroke	o	n/a
145.7115	0.075	291423	keystroke	v	n/a
145.8465	0.06	291693	keystroke	i	n/a
145.9515	0.06	291903	keystroke	d	n/a
146.1465	0.0595	292293	keystroke	e	n/a
146.327	0.059	292654	keystroke	d	n/a
146.431	0.06	292862	keystroke	Key.space	n/a
147.4965	0.045	294993	keystroke	p	n/a
147.5865	0.06	295173	keystroke	h	n/a
147.7065	0.06	295413	keystroke	y	n/a
147.9015	0.075	295803	keystroke	s	n/a
148.2015	0.045	296403	keystroke	c	n/a
148.891	0.075	297782	keystroke	Key.backspace	n/a
149.131	0.075	298262	keystroke	i	n/a
149.251	0.09	298502	keystroke	c	n/a
149.326	0.09	298652	keystroke	a	n/a
149.446	0.075	298892	keystroke	l	n/a
149.821	0.06	299642	keystroke	Key.enter	n/a
149.894	7.8255	299788	prompt	n/a	releases worn blade frankfurt\n
150.6765	0.12	301353	keystroke	r	n/a
150.7665	0.0895	301533	keystroke	e	n/a
150.946	0.075	301892	keystroke	l	n/a
151.0665	0.0895	302133	keystroke	e	n/a
151.186	0.18	302372	keystroke	a	n/a
151.336	0.15	302672	keystroke	s	n/a
151.471	0.09	302942	keystroke	e	n/a
151.636	0.076	303272	keystroke	s	n/a
151.832	0.06	303664	keystroke	Key.space	n/a
152.402	0.06	304804	keystroke	w	n/a
152.582	0.06	305164	keystroke	r	n/a
152.6715	0.075	305343	keystroke	o	n/a
152.9415	0.03	305883	keystroke	n	n/a
153.1515	0.06	306303	keystroke	Key.backspace	n/a
153.3315	0.03	306663	keystroke	Key.backspace	n/a
153.4215	0.075	306843	keystroke	Key.backspace	n/a
153.6315	0.0605	307263	keystroke	o	n/a
153.722	0.074	307444	keystroke	r	n/a
153.857	0.075	307714	keystroke	n	n/a
154.051	0.06	308102	keystroke	Key.space	n/a
154.501	0.06	309002	keystroke	b	n/a
154.606	0.09	309212	keystroke	l	n/a
154.681	0.106	309362	keystroke	a	n/a
154.801	0.075	309602	keystroke	d	n/a
155.012	0.06	310024	keystroke	e	n/a
155.086	0.0755	310172	keystroke	Key.space	n/a
155.2665	0.06	310533	keystroke	f	n/a
155.4765	0.135	310953	keystroke	r	n/a
155.5965	0.09	311193	keystroke	a	n/a
155.986	0.045	311972	keystroke	n	n/a
156.136	0.06	312272	keystroke	k	n/a
156.451	0.075	312902	keystroke	f	n/a
156.586	0.06	313172	keystroke	u	n/a
156.706	0.0755	313412	keystroke	r	n/a
156.9165	0.045	313833	keystroke	t	n/a
157.6515	0.0605	315303	keystroke	Key.enter	n/a
157.7235	7.819	315447	prompt	n/a	wanting searches snowboard wake\n
158.417	0.075	316834	keystroke	w	n/a
158.552	0.075	317104	keystroke	n	n/a
158.657	0.09	317314	keystroke	a	n/a
159.107	0.06	318214	keystroke	Key.backspace	n/a
159.272	0.03	318544	keystroke	Key.backspace	n/a
159.317	0.075	318634	keystroke	a	n/a
159.467	0.059	318934	keystroke	n	n/a
159.602	0.0595	319204	keystroke	t	n/a
159.737	0.06	319474	keystroke	i	n/a
159.887	0.075	319774	keystroke	n	n/a
160.007	0.044	320014	keystroke	g	n/a
160.126	0.076	320252	keystroke	Key.space	n/a
160.382	0.075	320764	keystroke	s	n/a
160.592	0.105	321184	keystroke	e	n/a
160.682	0.15	321364	keystroke	a	n/a
160.817	0.075	321634	keystroke	r	n/a
161.057	0.075	322114	keystroke	c	n/a
161.177	0.06	322354	keystroke	h	n/a
161.312	0.09	322624	keystroke	e	n/a
161.447	0.105	322894	keystroke	s	n/a
161.612	0.074	323224	keystroke	Key.space	n/a
161.882	0.075	323764	keystroke	s	n/a
162.017	0.075	324034	keystroke	n	n/a
162.196	0.076	324392	keystroke	o	n/a
162.317	0.0745	324634	keystroke	w	n/a
163.1115	0.075	326223	keystroke	c	n/a
163.4415	0.075	326883	keystroke	Key.backspace	n/a
163.5465	0.075	327093	keystroke	b	n/a
163.6815	0.075	327363	keystroke	o	n/a
163.7715	0.105	327543	keystroke	a	n/a
163.8315	0.075	327663	keystroke	r	n/a
164.0265	0.075	328053	keystroke	d	n/a
164.6715	0.06	329343	keystroke	Key.space	n/a
164.9415	0.06	329883	keystroke	w	n/a
165.0915	0.0905	330183	keystroke	a	n/a
165.212	0.06	330424	keystroke	k	n/a
165.3465	0.06	330693	keystroke	e	n/a
165.4815	0.06	330963	keystroke	Key.enter	n/a
165.5495	6.7655	331099	prompt	n/a	polls count apparel replies\n
166.1565	0.075	332313	keystroke	p	n/a
166.4715	0.06	332943	keystroke	o	n/a
166.6815	0.06	333363	keystroke	l	n/a
166.8315	0.06	333663	keystroke	l	n/a
166.9365	0.075	333873	keystroke	s	n/a
167.0715	0.075	334143	keystroke	Key.space	n/a
167.3265	0.105	334653	keystroke	c	n/a
167.4015	0.075	334803	keystroke	o	n/a
167.5215	0.06	335043	keystroke	u	n/a
167.7015	0.075	335403	keystroke	n	n/a
167.8065	0.06	335613	keystroke	t	n/a
167.9115	0.075	335823	keystroke	Key.space	n/a
168.1365	0.06	336273	keystroke	a	n/a
168.2265	0.09	336453	keystroke	p	n/a
168.4815	0.075	336963	keystroke	p	n/a
169.276	0.135	338552	keystroke	a	n/a
169.381	0.075	338762	keystroke	r	n/a
169.621	0.045	339242	keystroke	e	n/a
169.816	0.045	339632	keystroke	l	n/a
170.011	0.06	340022	keystroke	Key.space	n/a
171.2565	0.105	342513	keystroke	r	n/a
171.3465	0.09	342693	keystroke	e	n/a
171.4665	0.045	342933	keystroke	p	n/a
171.6165	0.06	343233	keystroke	l	n/a
171.751	0.075	343502	keystroke	i	n/a
171.871	0.06	343742	keystroke	e	n/a
172.051	0.075	344102	keystroke	s	n/a
172.261	0.045	344522	keystroke	Key.enter	n/a
172.3205	10.6595	344641	prompt	n/a	blair stakeholders collaboration analysts\n
173.0565	0.06	346113	keystroke	b	n/a
173.2365	0.09	346473	keystroke	l	n/a
173.3715	0.09	346743	keystroke	a	n/a
173.5665	0.045	347133	keystroke	i	n/a
173.6865	0.075	347373	keystroke	r	n/a
174.211	0.075	348422	keystroke	Key.space	n/a
174.481	0.075	348962	keystroke	s	n/a
174.691	0.075	349382	keystroke	t	n/a
174.767	0.0895	349534	keystroke	a	n/a
174.9015	0.06	349803	keystroke	k	n/a
175.0215	0.06	350043	keystroke	e	n/a
175.261	0.076	350522	keystroke	b	n/a
176.026	0.06	352052	keystroke	Key.backspace	n/a
176.2665	0.06	352533	keystroke	h	n/a
176.4465	0.075	352893	keystroke	o	n/a
176.6415	0.045	353283	keystroke	l	n/a
176.7165	0.075	353433	keystroke	d	n/a
176.9565	0.09	353913	keystroke	e	n/a
177.0315	0.075	354063	keystroke	r	n/a
177.2115	0.06	354423	keystroke	s	n/a
177.3465	0.06	354693	keystroke	Key.space	n/a
177.5415	0.12	355083	keystroke	c	n/a
177.6765	0.06	355353	keystroke	o	n/a
177.932	0.06	355864	keystroke	l	n/a
178.082	0.06	356164	keystroke	l	n/a
178.487	0.0745	356974	keystroke	a	n/a
178.7265	0.075	357453	keystroke	b	n/a
178.9665	0.075	357933	keystroke	o	n/a
179.1615	0.12	358323	keystroke	r	n/a
179.2665	0.105	358533	keystroke	a	n/a
179.5215	0.06	359043	keystroke	t	n/a
179.7015	0.15	359403	keystroke	i	n/a
179.8065	0.075	359613	keystroke	o	n/a
179.9565	0.09	359913	keystroke	n	n/a
180.1515	0.06	360303	keystroke	Key.space	n/a
180.7365	0.075	361473	keystroke	a	n/a
180.8415	0.075	361683	keystroke	n	n/a
180.9615	0.09	361923	keystroke	a	n/a
181.0665	0.0755	362133	keystroke	l	n/a
181.217	0.0595	362434	keystroke	y	n/a
181.427	0.075	362854	keystroke	s	n/a
181.607	0.075	363214	keystroke	t	n/a
181.742	0.074	363484	keystroke	s	n/a
182.896	0.075	365792	keystroke	Key.enter	n/a
182.9835	13.9915	365967	prompt	n/a	trusts highways robertson warrior\n
184.337	0.06	368674	keystroke	t	n/a
184.502	0.06	369004	keystroke	r	n/a
184.652	0.06	369304	keystroke	u	n/a
184.727	0.12	369454	keystroke	s	n/a
184.832	0.075	369664	keystroke	t	n/a
185.042	0.075	370084	keystroke	Key.space	n/a
185.6265	0.06	371253	keystroke	h	n/a
185.791	0.045	371582	keystroke	i	n/a
185.897	0.059	371794	keystroke	g	n/a
185.986	0.075	371972	keystroke	h	n/a
186.196	0.091	372392	keystroke	w	n/a
186.421	0.09	372842	keystroke	a	n/a
186.526	0.075	373052	keystroke	y	n/a
186.721	0.06	373442	keystroke	s	n/a
186.946	0.075	373892	keystroke	Key.space	n/a
187.501	0.09	375002	keystroke	r	n/a
187.907	0.06	375814	keystroke	o	n/a
188.102	0.06	376204	keystroke	b	n/a
188.327	0.105	376654	keystroke	e	n/a
188.402	0.06	376804	keystroke	r	n/a
188.612	0.045	377224	keystroke	t	n/a
189.227	0.06	378454	keystroke	s	n/a
189.302	0.045	378604	keystroke	o	n/a
189.4815	0.06	378963	keystroke	n	n/a
195.2585	0.001	390517	keystroke	Key.space	n/a
195.3915	0.09	390783	keystroke	w	n/a
195.4965	0.12	390993	keystroke	a	n/a
195.6015	0.09	391203	keystroke	r	n/a
195.7965	0.09	391593	keystroke	r	n/a
195.9765	0.045	391953	keystroke	i	n/a
196.1565	0.06	392313	keystroke	o	n/a
196.307	0.06	392614	keystroke	r	n/a
196.922	0.045	393844	keystroke	Key.enter	n/a
196.979	8.1105	393958	prompt	n/a	each hide inclusion feelings\n
197.777	0.075	395554	keystroke	e	n/a
197.942	0.12	395884	keystroke	a	n/a
198.077	0.075	396154	keystroke	c	n/a
198.197	0.06	396394	keystroke	h	n/a
198.347	0.06	396694	keystroke	Key.space	n/a
198.572	0.045	397144	keystroke	h	n/a
198.722	0.045	397444	keystroke	i	n/a
198.797	0.045	397594	keystroke	d	n/a
198.962	0.0595	397924	keystroke	e	n/a
199.0665	0.075	398133	keystroke	Key.space	n/a
199.3225	0.089	398645	keystroke	c	n/a
199.4265	0.06	398853	keystroke	i	n/a
199.8465	0.06	399693	keystroke	Key.backspace	n/a
200.0115	0.06	400023	keystroke	Key.backspace	n/a
200.2365	0.045	400473	keystroke	i	n/a
200.4165	0.061	400833	keystroke	n	n/a
200.5815	0.09	401163	keystroke	c	n/a
200.7015	0.06	401403	keystroke	l	n/a
200.8525	0.044	401705	keystroke	u	n/a
201.0015	0.046	402003	keystroke	d	n/a
201.632	0.06	403264	keystroke	Key.backspace	n/a
202.2015	0.061	404403	keystroke	s	n/a
202.3965	0.105	404793	keystroke	i	n/a
202.4715	0.061	404943	keystroke	o	n/a
202.5915	0.105	405183	keystroke	n	n/a
202.7715	0.075	405543	keystroke	Key.space	n/a
203.2515	0.06	406503	keystroke	f	n/a
203.4315	0.06	406863	keystroke	e	n/a
203.7315	0.045	407463	keystroke	e	n/a
203.8965	0.06	407793	keystroke	l	n/a
204.0765	0.06	408153	keystroke	i	n/a
204.2565	0.06	408513	keystroke	n	n/a
204.3465	0.06	408693	keystroke	g	n/a
204.5115	0.0605	409023	keystroke	s	n/a
205.0365	0.045	410073	keystroke	Key.enter	n/a
205.0935	9.0715	410187	prompt	n/a	assignment rouge dice mauritius\n
205.6515	0.09	411303	keystroke	a	n/a
205.8765	0.045	411753	keystroke	s	n/a
206.0265	0.06	412053	keystroke	s	n/a
206.1165	0.06	412233	keystroke	i	n/a
206.3415	0.06	412683	keystroke	g	n/a
206.4915	0.06	412983	keystroke	n	n/a
206.6865	0.06	413373	keystroke	m	n/a
206.7765	0.075	413553	keystroke	e	n/a
206.9265	0.045	413853	keystroke	n	n/a
207.0015	0.09	414003	keystroke	t	n/a
207.1665	0.045	414333	keystroke	Key.space	n/a
207.3915	0.06	414783	keystroke	r	n/a
207.5415	0.045	415083	keystroke	o	n/a
207.6615	0.0605	415323	keystroke	u	n/a
207.887	0.075	415774	keystroke	n	n/a
208.022	0.045	416044	keystroke	g	n/a
208.202	0.06	416404	keystroke	e	n/a
208.6815	0.06	417363	keystroke	Key.backspace	n/a
208.8465	0.0605	417693	keystroke	Key.backspace	n/a
208.982	0.06	417964	keystroke	Key.backspace	n/a
209.072	0.06	418144	keystroke	g	n/a
209.147	0.09	418294	keystroke	e	n/a
209.312	0.09	418624	keystroke	Key.space	n/a
209.552	0.075	419104	keystroke	d	n/a
209.657	0.06	419314	keystroke	i	n/a
209.807	0.075	419614	keystroke	c	n/a
209.897	0.09	419794	keystroke	e	n/a
210.062	0.09	420124	keystroke	Key.space	n/a
210.2865	0.06	420573	keystroke	a	n/a
210.4815	0.075	420963	keystroke	m	n/a
210.8265	0.06	421653	keystroke	u	n/a
210.9615	0.075	421923	keystroke	r	n/a
211.2015	0.06	422403	keystroke	i	n/a
211.8165	0.06	423633	keystroke	t	n/a
212.402	0.074	424804	keystroke	i	n/a
212.657	0.075	425314	keystroke	u	n/a
212.807	0.075	425614	keystroke	s	n/a
212.972	0.075	425944	keystroke	Key.space	n/a
213.902	0.06	427804	keystroke	Key.backspace	n/a
214.082	0.075	428164	keystroke	Key.enter	n/a
214.169	8.351	428338	prompt	n/a	truly so're pollution tropical\n
214.8165	0.075	429633	keystroke	t	n/a
215.027	0.06	430054	keystroke	r	n/a
215.117	0.06	430234	keystroke	u	n/a
215.297	0.075	430594	keystroke	l	n/a
215.432	0.03	430864	keystroke	y	n/a
215.552	0.09	431104	keystroke	Key.space	n/a
216.047	0.06	432094	keystroke	s	n/a
216.152	0.075	432304	keystroke	o	n/a
216.6915	0.06	433383	keystroke	'	n/a
216.8415	0.105	433683	keystroke	r	n/a
216.9165	0.075	433833	keystroke	e	n/a
217.1115	0.06	434223	keystroke	Key.space	n/a
217.652	0.0745	435304	keystroke	p	n/a
218.297	0.06	436594	keystroke	o	n/a
218.612	0.06	437224	keystroke	l	n/a
218.762	0.06	437524	keystroke	l	n/a
218.897	0.075	437794	keystroke	u	n/a
219.152	0.06	438304	keystroke	t	n/a
219.287	0.12	438574	keystroke	i	n/a
219.362	0.0895	438724	keystroke	o	n/a
219.5115	0.09	439023	keystroke	n	n/a
219.752	0.06	439504	keystroke	Key.space	n/a
220.712	0.075	441424	keystroke	t	n/a
220.937	0.09	441874	keystroke	r	n/a
221.537	0.135	443074	keystroke	o	n/a
221.657	0.03	443314	keystroke	p	n/a
221.822	0.045	443644	keystroke	i	n/a
221.927	0.09	443854	keystroke	c	n/a
222.062	0.09	444124	keystroke	a	n/a
222.152	0.06	444304	keystroke	l	n/a
222.452	0.06	444904	keystroke	Key.enter	n/a
222.524	7.691	445048	prompt	n/a	indigenous assure demands hobby\n
223.2765	0.045	446553	keystroke	i	n/a
223.4265	0.06	446853	keystroke	n	n/a
223.5165	0.0755	447033	keystroke	d	n/a
223.667	0.06	447334	keystroke	i	n/a
223.891	0.06	447782	keystroke	g	n/a
224.072	0.06	448144	keystroke	e	n/a
224.222	0.0595	448444	keystroke	n	n/a
225.181	0.0465	450362	keystroke	o	n/a
225.2575	0.074	450515	keystroke	u	n/a
225.4215	0.06	450843	keystroke	s	n/a
225.5115	0.075	451023	keystroke	Key.space	n/a
225.8575	0.044	451715	keystroke	a	n/a
225.9915	0.045	451983	keystroke	s	n/a
226.1265	0.06	452253	keystroke	s	n/a
226.2175	0.0745	452435	keystroke	u	n/a
226.352	0.135	452704	keystroke	r	n/a
226.472	0.075	452944	keystroke	e	n/a
226.667	0.06	453334	keystroke	Key.space	n/a
227.2665	0.06	454533	keystroke	d	n/a
227.4465	0.045	454893	keystroke	e	n/a
227.5365	0.075	455073	keystroke	m	n/a
227.702	0.045	455404	keystroke	a	n/a
227.822	0.06	455644	keystroke	n	n/a
227.912	0.09	455824	keystroke	d	n/a
228.047	0.09	456094	keystroke	s	n/a
228.437	0.06	456874	keystroke	Key.space	n/a
228.707	0.03	457414	keystroke	h	n/a
228.857	0.06	457714	keystroke	o	n/a
229.007	0.045	458014	keystroke	b	n/a
229.157	0.06	458314	keystroke	b	n/a
229.577	0.075	459154	keystroke	y	n/a
230.117	0.09	460234	keystroke	Key.enter	n/a
230.219	9.2515	460438	prompt	n/a	carol province advancement sitemap\n
230.8965	0.105	461793	keystroke	c	n/a
231.0165	0.075	462033	keystroke	a	n/a
231.3765	0.075	462753	keystroke	r	n/a
231.9315	0.06	463863	keystroke	o	n/a
232.1115	0.06	464223	keystroke	l	n/a
232.307	0.06	464614	keystroke	Key.space	n/a
232.532	0.09	465064	keystroke	p	n/a
232.712	0.06	465424	keystroke	r	n/a
232.817	0.09	465634	keystroke	o	n/a
232.997	0.075	465994	keystroke	v	n/a
233.1165	0.06	466233	keystroke	i	n/a
233.417	0.06	466834	keystroke	n	n/a
233.567	0.12	467134	keystroke	c	n/a
233.657	0.075	467314	keystroke	e	n/a
233.852	0.045	467704	keystroke	Key.space	n/a
234.407	0.105	468814	keystroke	a	n/a
234.587	0.075	469174	keystroke	d	n/a
235.232	0.06	470464	keystroke	b	n/a
235.727	0.06	471454	keystroke	Key.backspace	n/a
235.817	0.12	471634	keystroke	v	n/a
235.922	0.09	471844	keystroke	a	n/a
236.102	0.06	472204	keystroke	n	n/a
236.732	0.105	473464	keystroke	c	n/a
236.882	0.09	473764	keystroke	e	n/a
237.092	0.06	474184	keystroke	m	n/a
237.182	0.06	474364	keystroke	e	n/a
237.317	0.06	474634	keystroke	n	n/a
237.407	0.0595	474814	keystroke	t	n/a
237.5715	0.06	475143	keystroke	Key.space	n/a
238.1415	0.076	476283	keystroke	s	n/a
238.2775	0.06	476555	keystroke	i	n/a
238.382	0.12	476764	keystroke	t	n/a
238.517	0.045	477034	keystroke	e	n/a
238.772	0.06	477544	keystroke	m	n/a
238.877	0.075	477754	keystroke	a	n/a
238.9965	0.09	477993	keystroke	p	n/a
239.402	0.0605	478804	keystroke	Key.enter	n/a
239.4765	9.4585	478953	prompt	n/a	newton actually activation where're\n
240.1215	0.06	480243	keystroke	n	n/a
240.2565	0.075	480513	keystroke	e	n/a
240.4065	0.075	480813	keystroke	t	n/a
240.7065	0.075	481413	keystroke	Key.backspace	n/a
241.2765	0.075	482553	keystroke	w	n/a
241.5315	0.075	483063	keystroke	t	n/a
241.682	0.06	483364	keystroke	o	n/a
241.862	0.075	483724	keystroke	n	n/a
242.042	0.06	484084	keystroke	Key.space	n/a
242.5215	0.045	485043	keystroke	a	n/a
242.6115	0.105	485223	keystroke	c	n/a
242.8515	0.06	485703	keystroke	t	n/a
243.0015	0.045	486003	keystroke	u	n/a
243.1215	0.075	486243	keystroke	a	n/a
243.2115	0.075	486423	keystroke	l	n/a
243.3765	0.045	486753	keystroke	l	n/a
243.5265	0.06	487053	keystroke	y	n/a
243.722	0.06	487444	keystroke	Key.space	n/a
244.502	0.075	489004	keystroke	a	n/a
244.682	0.075	489364	keystroke	c	n/a
244.952	0.045	489904	keystroke	t	n/a
245.102	0.06	490204	keystroke	i	n/a
245.222	0.075	490444	keystroke	v	n/a
245.4765	0.09	490953	keystroke	a	n/a
245.6415	0.0905	491283	keystroke	t	n/a
245.792	0.09	491584	keystroke	i	n/a
245.837	0.09	491674	keystroke	o	n/a
245.987	0.09	491974	keystroke	n	n/a
246.197	0.045	492394	keystroke	Key.space	n/a
247.187	0.075	494374	keystroke	w	n/a
247.307	0.06	494614	keystroke	h	n/a
247.412	0.09	494824	keystroke	e	n/a
247.487	0.12	494974	keystroke	r	n/a
247.607	0.06	495214	keystroke	e	n/a
248.057	0.075	496114	keystroke	'	n/a
248.1615	0.12	496323	keystroke	r	n/a
248.2515	0.06	496503	keystroke	e	n/a
248.8665	0.06	497733	keystroke	Key.enter	n/a
248.939	13.136	497878	prompt	n/a	component shepherd sheriff bolivia\n
249.4965	0.105	498993	keystroke	c	n/a
249.6465	0.0605	499293	keystroke	o	n/a
249.782	0.105	499564	keystroke	m	n/a
249.992	0.06	499984	keystroke	p	n/a
250.202	0.0595	500404	keystroke	o	n/a
250.6215	0.06	501243	keystroke	n	n/a
250.7865	0.06	501573	keystroke	e	n/a
250.8915	0.06	501783	keystroke	n	n/a
251.0115	0.045	502023	keystroke	t	n/a
251.3715	0.06	502743	keystroke	Key.space	n/a
251.7765	0.075	503553	keystroke	s	n/a
251.8665	0.06	503733	keystroke	h	n/a
252.0615	0.045	504123	keystroke	e	n/a
252.1815	0.075	504363	keystroke	p	n/a
252.797	0.075	505594	keystroke	h	n/a
253.472	0.0895	506944	keystroke	e	n/a
253.532	0.0595	507064	keystroke	r	n/a
253.7265	0.06	507453	keystroke	d	n/a
254.3115	0.06	508623	keystroke	Key.space	n/a
254.5665	0.06	509133	keystroke	s	n/a
254.8365	0.06	509673	keystroke	h	n/a
254.9715	0.06	509943	keystroke	e	n/a
255.1815	0.03	510363	keystroke	i	n/a
255.5865	0.03	511173	keystroke	f	n/a
255.7365	0.045	511473	keystroke	f	n/a
256.3065	0.06	512613	keystroke	Key.space	n/a
256.8765	0.06	513753	keystroke	Key.backspace	n/a
257.0415	0.045	514083	keystroke	Key.backspace	n/a
257.1915	0.06	514383	keystroke	Key.backspace	n/a
258.782	0.06	517564	keystroke	Key.backspace	n/a
258.872	0.075	517744	keystroke	r	n/a
259.067	0.06	518134	keystroke	i	n/a
259.232	0.045	518464	keystroke	f	n/a
259.382	0.06	518764	keystroke	f	n/a
259.532	0.075	519064	keystroke	Key.space	n/a
260.162	0.075	520324	keystroke	b	n/a
260.4765	0.06	520953	keystroke	o	n/a
260.656	0.0605	521312	keystroke	l	n/a
260.8365	0.046	521673	keystroke	i	n/a
261.197	0.075	522394	keystroke	v	n/a
261.332	0.075	522664	keystroke	i	n/a
261.452	0.075	522904	keystroke	a	n/a
262.0065	0.06	524013	keystroke	Key.enter	n/a
262.079	7.264	524158	prompt	n/a	marsh ratio face yemen\n
262.7265	0.045	525453	keystroke	a	n/a
262.8165	0.075	525633	keystroke	m	n/a
263.0715	0.045	526143	keystroke	Key.backspace	n/a
263.2065	0.06	526413	keystroke	Key.backspace	n/a
263.4165	0.09	526833	keystroke	m	n/a
263.4925	0.104	526985	keystroke	a	n/a
263.5665	0.076	527133	keystroke	r	n/a
263.7465	0.075	527493	keystroke	Key.space	n/a
264.0765	0.06	528153	keystroke	Key.backspace	n/a
264.287	0.06	528574	keystroke	s	n/a
264.392	0.075	528784	keystroke	h	n/a
264.617	0.075	529234	keystroke	Key.space	n/a
264.947	0.06	529894	keystroke	r	n/a
265.097	0.06	530194	keystroke	o	n/a
265.2765	0.045	530553	keystroke	t	n/a
265.5165	0.06	531033	keystroke	Key.backspace	n/a
265.6515	0.075	531303	keystroke	Key.backspace	n/a
265.7415	0.09	531483	keystroke	a	n/a
265.8175	0.074	531635	keystroke	t	n/a
265.9065	0.12	531813	keystroke	i	n/a
265.9815	0.09	531963	keystroke	o	n/a
266.162	0.0595	532324	keystroke	Key.space	n/a
266.672	0.06	533344	keystroke	f	n/a
266.777	0.15	533554	keystroke	a	n/a
266.882	0.165	533764	keystroke	c	n/a
267.017	0.09	534034	keystroke	e	n/a
267.152	0.09	534304	keystroke	Key.space	n/a
267.452	0.075	534904	keystroke	y	n/a
267.662	0.06	535324	keystroke	e	n/a
267.842	0.075	535684	keystroke	m	n/a
268.157	0.06	536314	keystroke	e	n/a
268.292	0.06	536584	keystroke	n	n/a
269.282	0.06	538564	keystroke	Key.enter	n/a
269.348	10.547	538696	prompt	n/a	grave resort siemens inquiry\n
269.9425	0.06	539885	keystroke	g	n/a
270.1365	0.091	540273	keystroke	r	n/a
270.2425	0.09	540485	keystroke	a	n/a
270.392	0.075	540784	keystroke	v	n/a
270.557	0.075	541114	keystroke	e	n/a
270.677	0.075	541354	keystroke	Key.space	n/a
270.812	0.135	541624	keystroke	r	n/a
270.902	0.09	541804	keystroke	e	n/a
271.172	0.0755	542344	keystroke	s	n/a
271.952	0.12	543904	keystroke	p	n/a
272.012	0.135	544024	keystroke	o	n/a
272.162	0.06	544324	keystroke	r	n/a
272.372	0.06	544744	keystroke	t	n/a
272.612	0.075	545224	keystroke	Key.backspace	n/a
272.792	0.045	545584	keystroke	Key.backspace	n/a
272.912	0.045	545824	keystroke	Key.backspace	n/a
273.302	0.06	546604	keystroke	Key.backspace	n/a
274.052	0.06	548104	keystroke	o	n/a
274.277	0.045	548554	keystroke	r	n/a
274.502	0.045	549004	keystroke	t	n/a
274.9215	0.06	549843	keystroke	Key.space	n/a
275.417	0.075	550834	keystroke	s	n/a
275.8665	0.06	551733	keystroke	i	n/a
276.2715	0.06	552543	keystroke	e	n/a
276.4665	0.06	552933	keystroke	m	n/a
276.6315	0.06	553263	keystroke	e	n/a
276.7665	0.06	553533	keystroke	n	n/a
277.0815	0.0605	554163	keystroke	s	n/a
277.277	0.045	554554	keystroke	Key.space	n/a
277.7415	0.03	555483	keystroke	i	n/a
277.8615	0.075	555723	keystroke	n	n/a
277.9975	0.09	555995	keystroke	q	n/a
278.1165	0.045	556233	keystroke	u	n/a
278.2965	0.061	556593	keystroke	i	n/a
278.4015	0.135	556803	keystroke	r	n/a
278.5065	0.09	557013	keystroke	e	n/a
279.1365	0.06	558273	keystroke	Key.backspace	n/a
279.2565	0.075	558513	keystroke	y	n/a
279.8265	0.06	559653	keystroke	Key.enter	n/a
279.905	13.4155	559810	prompt	n/a	queries emma premium numerous\n
280.562	0.06	561124	keystroke	q	n/a
280.652	0.075	561304	keystroke	u	n/a
280.952	0.12	561904	keystroke	e	n/a
281.042	0.105	562084	keystroke	r	n/a
281.7165	0.075	563433	keystroke	i	n/a
281.9115	0.075	563823	keystroke	e	n/a
282.1065	0.0905	564213	keystroke	s	n/a
282.317	0.075	564634	keystroke	Key.space	n/a
283.052	0.06	566104	keystroke	e	n/a
283.172	0.075	566344	keystroke	m	n/a
283.337	0.06	566674	keystroke	m	n/a
283.427	0.075	566854	keystroke	a	n/a
283.5465	0.075	567093	keystroke	Key.space	n/a
283.8165	0.06	567633	keystroke	p	n/a
283.9815	0.12	567963	keystroke	r	n/a
284.0715	0.075	568143	keystroke	e	n/a
284.7015	0.06	569403	keystroke	i	n/a
285.347	0.075	570694	keystroke	Key.backspace	n/a
285.842	0.09	571684	keystroke	m	n/a
286.052	0.075	572104	keystroke	i	n/a
286.202	0.0595	572404	keystroke	u	n/a
286.4265	0.075	572853	keystroke	m	n/a
286.6215	0.06	573243	keystroke	Key.space	n/a
287.0115	0.06	574023	keystroke	n	n/a
287.5515	0.06	575103	keystroke	e	n/a
287.9115	0.06	575823	keystroke	Key.backspace	n/a
288.1215	0.06	576243	keystroke	u	n/a
288.3315	0.075	576663	keystroke	m	n/a
288.6915	0.12	577383	keystroke	e	n/a
288.7665	0.075	577533	keystroke	r	n/a
288.9465	0.075	577893	keystroke	i	n/a
289.0065	0.06	578013	keystroke	o	n/a
289.562	0.06	579124	keystroke	Key.backspace	n/a
289.922	0.045	579844	keystroke	Key.backspace	n/a
291.017	0.045	582034	keystroke	Key.backspace	n/a
291.542	0.075	583084	keystroke	r	n/a
291.737	0.06	583474	keystroke	o	n/a
291.872	0.075	583744	keystroke	u	n/a
291.962	0.075	583924	keystroke	s	n/a
293.2365	0.075	586473	keystroke	Key.enter	n/a
293.3245	9.4005	586649	prompt	n/a	faced presentations memory throughout\n
294.0765	0.075	588153	keystroke	f	n/a
294.2265	0.105	588453	keystroke	a	n/a
294.3465	0.135	588693	keystroke	c	n/a
294.4965	0.06	588993	keystroke	e	n/a
294.6915	0.0755	589383	keystroke	d	n/a
294.827	0.09	589654	keystroke	Key.space	n/a
295.067	0.06	590134	keystroke	p	n/a
295.247	0.12	590494	keystroke	r	n/a
295.322	0.075	590644	keystroke	e	n/a
296.1775	0.09	592355	keystroke	s	n/a
296.3875	0.075	592775	keystroke	e	n/a
296.5375	0.06	593075	keystroke	n	n/a
296.6275	0.09	593255	keystroke	t	n/a
296.7325	0.12	593465	keystroke	a	n/a
296.8375	0.0745	593675	keystroke	t	n/a
296.927	0.12	593854	keystroke	i	n/a
297.002	0.075	594004	keystroke	o	n/a
297.152	0.09	594304	keystroke	n	n/a
297.257	0.06	594514	keystroke	s	n/a
297.932	0.075	595864	keystroke	Key.space	n/a
298.2315	0.075	596463	keystroke	m	n/a
298.3675	0.074	596735	keystroke	e	n/a
298.5465	0.075	597093	keystroke	m	n/a
299.1315	0.09	598263	keystroke	o	n/a
299.4165	0.091	598833	keystroke	r	n/a
299.7765	0.075	599553	keystroke	y	n/a
300.0315	0.06	600063	keystroke	Key.space	n/a
300.2715	0.061	600543	keystroke	t	n/a
300.3915	0.046	600783	keystroke	h	n/a
300.5415	0.061	601083	keystroke	r	n/a
300.6315	0.045	601263	keystroke	o	n/a
300.7675	0.044	601535	keystroke	u	n/a
300.8725	0.074	601745	keystroke	g	n/a
301.0065	0.061	602013	keystroke	h	n/a
301.7715	0.03	603543	keystroke	o	n/a
301.9215	0.06	603843	keystroke	u	n/a
302.0415	0.075	604083	keystroke	t	n/a
302.702	0.015	605404	keystroke	Key.enter	n/a
302.7325	12.878	605465	prompt	n/a	boost underground stadium cabinets\n
303.3475	0.06	606695	keystroke	b	n/a
303.4675	0.0895	606935	keystroke	o	n/a
303.6325	0.06	607265	keystroke	o	n/a
303.752	0.18	607504	keystroke	s	n/a
304.052	0.09	608104	keystroke	t	n/a
304.4115	0.075	608823	keystroke	Key.space	n/a
304.922	0.06	609844	keystroke	u	n/a
305.102	0.075	610204	keystroke	n	n/a
305.162	0.06	610324	keystroke	d	n/a
305.357	0.09	610714	keystroke	e	n/a
305.402	0.075	610804	keystroke	r	n/a
305.5975	0.045	611195	keystroke	s	n/a
305.7475	0.075	611495	keystroke	g	n/a
305.8825	0.06	611765	keystroke	o	n/a
306.1965	0.06	612393	keystroke	Key.backspace	n/a
306.3615	0.061	612723	keystroke	Key.backspace	n/a
306.4965	0.06	612993	keystroke	Key.backspace	n/a
306.5725	0.075	613145	keystroke	g	n/a
308.462	0.06	616924	keystroke	r	n/a
308.597	0.06	617194	keystroke	o	n/a
309.212	0.075	618424	keystroke	u	n/a
309.4215	0.075	618843	keystroke	n	n/a
309.5115	0.075	619023	keystroke	d	n/a
309.752	0.075	619504	keystroke	Key.space	n/a
310.292	0.0445	620584	keystroke	s	n/a
310.4115	0.105	620823	keystroke	t	n/a
310.5615	0.09	621123	keystroke	a	n/a
310.7565	0.076	621513	keystroke	d	n/a
310.9225	0.045	621845	keystroke	i	n/a
311.192	0.06	622384	keystroke	u	n/a
311.432	0.06	622864	keystroke	m	n/a
311.627	0.075	623254	keystroke	Key.space	n/a
312.002	0.06	624004	keystroke	a	n/a
312.302	0.06	624604	keystroke	Key.backspace	n/a
312.392	0.1205	624784	keystroke	c	n/a
312.4825	0.09	624965	keystroke	a	n/a
312.8725	0.06	625745	keystroke	b	n/a
312.9775	0.06	625955	keystroke	i	n/a
313.1575	0.06	626315	keystroke	n	n/a
314.5525	0.075	629105	keystroke	e	n/a
314.7775	0.014	629555	keystroke	t	n/a
314.897	0.09	629794	keystroke	s	n/a
315.527	0.075	631054	keystroke	Key.enter	n/a
315.6145	11.1255	631229	prompt	n/a	teddy porcelain assess pennsylvania\n
316.6215	0.075	633243	keystroke	t	n/a
316.8615	0.06	633723	keystroke	r	n/a
317.2965	0.075	634593	keystroke	Key.backspace	n/a
317.3865	0.06	634773	keystroke	e	n/a
317.7315	0.046	635463	keystroke	d	n/a
317.8665	0.06	635733	keystroke	d	n/a
318.0775	0.044	636155	keystroke	y	n/a
318.2115	0.09	636423	keystroke	Key.space	n/a
318.6915	0.046	637383	keystroke	p	n/a
318.8865	0.046	637773	keystroke	r	n/a
319.217	0.06	638434	keystroke	Key.backspace	n/a
319.442	0.075	638884	keystroke	o	n/a
319.742	0.075	639484	keystroke	r	n/a
320.207	0.06	640414	keystroke	c	n/a
320.387	0.075	640774	keystroke	e	n/a
320.507	0.075	641014	keystroke	l	n/a
320.717	0.06	641434	keystroke	a	n/a
320.837	0.06	641674	keystroke	i	n/a
321.017	0.075	642034	keystroke	n	n/a
321.1965	0.09	642393	keystroke	Key.space	n/a
321.7815	0.075	643563	keystroke	a	n/a
321.9615	0.075	643923	keystroke	s	n/a
322.1415	0.061	644283	keystroke	s	n/a
322.3215	0.045	644643	keystroke	e	n/a
322.4865	0.06	644973	keystroke	s	n/a
322.6375	0.059	645275	keystroke	s	n/a
322.7415	0.075	645483	keystroke	Key.space	n/a
323.0265	0.06	646053	keystroke	p	n/a
323.3115	0.06	646623	keystroke	e	n/a
323.4765	0.045	646953	keystroke	n	n/a
323.6415	0.045	647283	keystroke	n	n/a
323.8215	0.06	647643	keystroke	s	n/a
324.0615	0.075	648123	keystroke	y	n/a
324.3915	0.075	648783	keystroke	l	n/a
324.7965	0.12	649593	keystroke	v	n/a
325.0215	0.06	650043	keystroke	a	n/a
325.1415	0.075	650283	keystroke	n	n/a
325.5025	0.0745	651005	keystroke	i	n/a
325.622	0.09	651244	keystroke	a	n/a
326.6565	0.075	653313	keystroke	Key.enter	n/a
326.744	15.926	653488	prompt	n/a	roommates vegetarian engagement lifestyle\n
327.722	0.045	655444	keystroke	r	n/a
327.827	0.075	655654	keystroke	o	n/a
328.232	0.06	656464	keystroke	o	n/a
328.457	0.0745	656914	keystroke	m	n/a
328.877	0.075	657754	keystroke	m	n/a
329.7615	0.0905	659523	keystroke	a	n/a
329.8665	0.165	659733	keystroke	t	n/a
330.0165	0.075	660033	keystroke	e	n/a
330.2565	0.075	660513	keystroke	s	n/a
330.4365	0.075	660873	keystroke	Key.space	n/a
330.6765	0.06	661353	keystroke	v	n/a
330.887	0.06	661774	keystroke	a	n/a
331.382	0.0905	662764	keystroke	Key.backspace	n/a
331.5325	0.075	663065	keystroke	e	n/a
331.742	0.105	663484	keystroke	g	n/a
331.832	0.09	663664	keystroke	a	n/a
332.072	0.075	664144	keystroke	t	n/a
332.8365	0.075	665673	keystroke	Key.backspace	n/a
333.0025	0.059	666005	keystroke	Key.backspace	n/a
333.0765	0.075	666153	keystroke	e	n/a
333.2865	0.075	666573	keystroke	t	n/a
334.247	0.12	668494	keystroke	a	n/a
334.337	0.105	668674	keystroke	r	n/a
334.532	0.06	669064	keystroke	i	n/a
334.667	0.06	669334	keystroke	a	n/a
334.787	0.075	669574	keystroke	n	n/a
334.997	0.075	669994	keystroke	Key.space	n/a
335.852	0.075	671704	keystroke	a	n/a
335.957	0.075	671914	keystroke	n	n/a
336.6915	0.06	673383	keystroke	Key.backspace	n/a
336.8565	0.045	673713	keystroke	Key.backspace	n/a
336.9465	0.06	673893	keystroke	e	n/a
337.1115	0.075	674223	keystroke	n	n/a
337.6665	0.105	675333	keystroke	g	n/a
337.7865	0.09	675573	keystroke	a	n/a
338.0265	0.06	676053	keystroke	g	n/a
338.477	0.06	676954	keystroke	e	n/a
338.762	0.06	677524	keystroke	m	n/a
338.867	0.06	677734	keystroke	e	n/a
339.002	0.06	678004	keystroke	n	n/a
339.062	0.09	678124	keystroke	t	n/a
339.257	0.075	678514	keystroke	Key.space	n/a
339.737	0.03	679474	keystroke	l	n/a
339.887	0.06	679774	keystroke	i	n/a
340.022	0.075	680044	keystroke	f	n/a
340.082	0.0895	680164	keystroke	e	n/a
340.3965	0.075	680793	keystroke	s	n/a
340.5615	0.09	681123	keystroke	t	n/a
340.772	0.075	681544	keystroke	a	n/a
341.267	0.06	682534	keystroke	Key.backspace	n/a
341.432	0.06	682864	keystroke	y	n/a
341.672	0.075	683344	keystroke	l	n/a
341.822	0.075	683644	keystroke	e	n/a
342.5715	0.0905	685143	keystroke	Key.enter	n/a
342.674	7.9005	685348	prompt	n/a	movement cape blade document\n
343.2915	0.0455	686583	keystroke	n	n/a
343.5615	0.0755	687123	keystroke	Key.backspace	n/a
343.757	0.0755	687514	keystroke	m	n/a
343.9075	0.075	687815	keystroke	o	n/a
344.0425	0.06	688085	keystroke	v	n/a
344.207	0.06	688414	keystroke	e	n/a
344.387	0.06	688774	keystroke	m	n/a
344.477	0.06	688954	keystroke	e	n/a
344.627	0.045	689254	keystroke	n	n/a
344.702	0.06	689404	keystroke	t	n/a
344.852	0.06	689704	keystroke	Key.space	n/a
345.347	0.1045	690694	keystroke	c	n/a
345.6475	0.075	691295	keystroke	a	n/a
345.7825	0.045	691565	keystroke	p	n/a
345.9475	0.045	691895	keystroke	e	n/a
346.0665	0.075	692133	keystroke	Key.space	n/a
346.6665	0.061	693333	keystroke	b	n/a
346.8315	0.045	693663	keystroke	l	n/a
346.8465	0.09	693693	keystroke	a	n/a
347.4465	0.045	694893	keystroke	d	n/a
347.6115	0.06	695223	keystroke	e	n/a
347.7615	0.06	695523	keystroke	Key.space	n/a
348.1515	0.075	696303	keystroke	d	n/a
348.3015	0.06	696603	keystroke	o	n/a
348.4365	0.09	696873	keystroke	c	n/a
348.5865	0.045	697173	keystroke	u	n/a
349.202	0.075	698404	keystroke	m	n/a
349.592	0.075	699184	keystroke	e	n/a
349.727	0.075	699454	keystroke	n	n/a
349.832	0.06	699664	keystroke	t	n/a
350.507	0.06	701014	keystroke	Key.enter	n/a
350.579	8.4115	701158	prompt	n/a	division florists admissions grave\n
351.122	0.075	702244	keystroke	d	n/a
351.2715	0.06	702543	keystroke	i	n/a
351.5265	0.09	703053	keystroke	v	n/a
351.7215	0.06	703443	keystroke	i	n/a
351.7965	0.075	703593	keystroke	s	n/a
351.9165	0.105	703833	keystroke	i	n/a
351.9915	0.09	703983	keystroke	o	n/a
352.1565	0.075	704313	keystroke	n	n/a
352.3515	0.06	704703	keystroke	Key.space	n/a
353.117	0.075	706234	keystroke	f	n/a
353.387	0.075	706774	keystroke	l	n/a
353.582	0.045	707164	keystroke	o	n/a
353.687	0.09	707374	keystroke	r	n/a
354.122	0.075	708244	keystroke	i	n/a
354.257	0.075	708514	keystroke	s	n/a
354.8115	0.06	709623	keystroke	t	n/a
354.9765	0.09	709953	keystroke	s	n/a
355.1415	0.075	710283	keystroke	Key.space	n/a
355.4565	0.06	710913	keystroke	a	n/a
355.6365	0.075	711273	keystroke	d	n/a
355.7865	0.075	711573	keystroke	m	n/a
355.9665	0.06	711933	keystroke	i	n/a
356.0565	0.045	712113	keystroke	s	n/a
356.192	0.06	712384	keystroke	s	n/a
356.282	0.09	712564	keystroke	i	n/a
356.327	0.09	712654	keystroke	o	n/a
356.492	0.075	712984	keystroke	n	n/a
356.597	0.075	713194	keystroke	s	n/a
356.762	0.075	713524	keystroke	Key.space	n/a
357.032	0.075	714064	keystroke	g	n/a
357.257	0.09	714514	keystroke	r	n/a
357.332	0.12	714664	keystroke	a	n/a
357.482	0.075	714964	keystroke	d	n/a
357.677	0.06	715354	keystroke	e	n/a
358.007	0.0605	716014	keystroke	Key.backspace	n/a
358.1725	0.06	716345	keystroke	Key.backspace	n/a
358.2475	0.06	716495	keystroke	v	n/a
358.4275	0.0595	716855	keystroke	e	n/a
358.9225	0.06	717845	keystroke	Key.enter	n/a
358.9945	7.7205	717989	prompt	n/a	google upgrading orientation anchor\n
359.6275	0.0595	719255	keystroke	g	n/a
359.732	0.06	719464	keystroke	o	n/a
359.897	0.045	719794	keystroke	o	n/a
359.987	0.075	719974	keystroke	g	n/a
360.092	0.075	720184	keystroke	l	n/a
360.182	0.06	720364	keystroke	e	n/a
360.332	0.06	720664	keystroke	Key.space	n/a
360.587	0.075	721174	keystroke	u	n/a
360.797	0.075	721594	keystroke	p	n/a
361.142	0.075	722284	keystroke	g	n/a
361.352	0.09	722704	keystroke	r	n/a
361.412	0.105	722824	keystroke	a	n/a
361.682	0.075	723364	keystroke	d	n/a
361.832	0.06	723664	keystroke	i	n/a
362.027	0.045	724054	keystroke	n	n/a
362.5075	0.06	725015	keystroke	g	n/a
362.777	0.075	725554	keystroke	Key.space	n/a
363.347	0.075	726694	keystroke	o	n/a
363.482	0.075	726964	keystroke	r	n/a
363.632	0.0755	727264	keystroke	i	n/a
363.8425	0.075	727685	keystroke	e	n/a
363.9775	0.075	727955	keystroke	n	n/a
364.1275	0.06	728255	keystroke	t	n/a
364.2175	0.104	728435	keystroke	a	n/a
364.3365	0.06	728673	keystroke	t	n/a
364.3975	0.1195	728795	keystroke	i	n/a
364.4725	0.0895	728945	keystroke	o	n/a
364.637	0.075	729274	keystroke	n	n/a
364.802	0.06	729604	keystroke	Key.space	n/a
365.5215	0.06	731043	keystroke	a	n/a
365.6575	0.0745	731315	keystroke	n	n/a
365.882	0.075	731764	keystroke	c	n/a
366.002	0.045	732004	keystroke	h	n/a
366.167	0.06	732334	keystroke	o	n/a
366.272	0.075	732544	keystroke	r	n/a
366.6315	0.0755	733263	keystroke	Key.enter	n/a
366.719	10.2115	733438	prompt	n/a	fioricet martin diving springer\n
367.3675	0.06	734735	keystroke	f	n/a
367.6375	0.0745	735275	keystroke	i	n/a
367.832	0.075	735664	keystroke	o	n/a
368.192	0.09	736384	keystroke	c	n/a
368.642	0.06	737284	keystroke	Key.backspace	n/a
368.762	0.075	737524	keystroke	r	n/a
369.7215	0.09	739443	keystroke	i	n/a
369.9915	0.015	739983	keystroke	c	n/a
370.4265	0.105	740853	keystroke	e	n/a
370.5915	0.045	741183	keystroke	t	n/a
370.9215	0.06	741843	keystroke	Key.space	n/a
371.5215	0.09	743043	keystroke	m	n/a
371.5965	0.12	743193	keystroke	a	n/a
371.6865	0.075	743373	keystroke	r	n/a
371.9115	0.06	743823	keystroke	t	n/a
372.0315	0.06	744063	keystroke	i	n/a
372.2115	0.075	744423	keystroke	n	n/a
372.3615	0.075	744723	keystroke	Key.space	n/a
374.267	0.075	748534	keystroke	d	n/a
374.387	0.075	748774	keystroke	i	n/a
374.492	0.075	748984	keystroke	v	n/a
374.597	0.0595	749194	keystroke	i	n/a
374.7465	0.06	749493	keystroke	n	n/a
374.8075	0.074	749615	keystroke	g	n/a
374.9415	0.075	749883	keystroke	Key.space	n/a
375.2715	0.075	750543	keystroke	s	n/a
375.467	0.075	750934	keystroke	p	n/a
375.632	0.075	751264	keystroke	r	n/a
375.752	0.06	751504	keystroke	i	n/a
375.902	0.075	751804	keystroke	n	n/a
376.007	0.045	752014	keystroke	g	n/a
376.202	0.135	752404	keystroke	e	n/a
376.292	0.09	752584	keystroke	r	n/a
376.862	0.06	753724	keystroke	Key.enter	n/a
376.936	9.759	753872	prompt	n/a	plants mixed virginia immediate\n
377.7475	0.045	755495	keystroke	l	n/a
378.227	0.06	756454	keystroke	Key.backspace	n/a
378.4365	0.09	756873	keystroke	p	n/a
378.6465	0.06	757293	keystroke	l	n/a
378.7365	0.09	757473	keystroke	a	n/a
378.8865	0.06	757773	keystroke	n	n/a
379.1125	0.059	758225	keystroke	t	n/a
379.2915	0.076	758583	keystroke	s	n/a
379.4425	0.074	758885	keystroke	Key.space	n/a
379.9825	0.045	759965	keystroke	m	n/a
380.1325	0.06	760265	keystroke	i	n/a
380.2225	0.075	760445	keystroke	x	n/a
380.4775	0.06	760955	keystroke	v	n/a
380.837	0.059	761674	keystroke	Key.backspace	n/a
380.927	0.0595	761854	keystroke	e	n/a
381.1065	0.076	762213	keystroke	d	n/a
381.2125	0.074	762425	keystroke	Key.space	n/a
381.6025	0.0595	763205	keystroke	v	n/a
381.7665	0.06	763533	keystroke	i	n/a
381.9315	0.06	763863	keystroke	r	n/a
382.3225	0.059	764645	keystroke	g	n/a
382.4425	0.044	764885	keystroke	i	n/a
382.6225	0.06	765245	keystroke	n	n/a
382.8325	0.06	765665	keystroke	i	n/a
382.9515	0.075	765903	keystroke	a	n/a
383.1175	0.059	766235	keystroke	Key.space	n/a
383.4165	0.046	766833	keystroke	i	n/a
383.6125	0.06	767225	keystroke	m	n/a
383.7615	0.076	767523	keystroke	m	n/a
385.4425	0.0445	770885	keystroke	e	n/a
385.622	0.075	771244	keystroke	d	n/a
385.757	0.06	771514	keystroke	i	n/a
385.982	0.105	771964	keystroke	a	n/a
386.102	0.09	772204	keystroke	t	n/a
386.252	0.075	772504	keystroke	e	n/a
386.627	0.06	773254	keystroke	Key.enter	n/a
386.699	9.041	773398	prompt	n/a	bands corpus scsi ordering\n
387.332	0.075	774664	keystroke	b	n/a
387.542	0.09	775084	keystroke	a	n/a
387.662	0.075	775324	keystroke	n	n/a
387.752	0.09	775504	keystroke	d	n/a
387.902	0.075	775804	keystroke	Key.space	n/a
388.262	0.06	776524	keystroke	Key.backspace	n/a
388.367	0.075	776734	keystroke	s	n/a
388.517	0.06	777034	keystroke	Key.space	n/a
389.027	0.075	778054	keystroke	c	n/a
389.2825	0.074	778565	keystroke	o	n/a
389.3865	0.06	778773	keystroke	r	n/a
389.7315	0.09	779463	keystroke	p	n/a
389.987	0.075	779974	keystroke	u	n/a
390.152	0.0595	780304	keystroke	s	n/a
390.2415	0.09	780483	keystroke	Key.space	n/a
390.7815	0.06	781563	keystroke	s	n/a
390.9615	0.075	781923	keystroke	c	n/a
391.652	0.09	783304	keystroke	s	n/a
391.982	0.06	783964	keystroke	i	n/a
392.207	0.075	784414	keystroke	Key.space	n/a
392.912	0.09	785824	keystroke	o	n/a
394.037	0.075	788074	keystroke	r	n/a
394.367	0.06	788734	keystroke	d	n/a
394.592	0.15	789184	keystroke	e	n/a
394.727	0.075	789454	keystroke	r	n/a
394.922	0.06	789844	keystroke	i	n/a
395.102	0.045	790204	keystroke	n	n/a
395.162	0.075	790324	keystroke	g	n/a
395.672	0.06	791344	keystroke	Key.enter	n/a
395.744	8.7715	791488	prompt	n/a	visitors times supplies ghana\n
396.5115	0.06	793023	keystroke	v	n/a
396.6165	0.0605	793233	keystroke	i	n/a
396.737	0.06	793474	keystroke	s	n/a
397.052	0.075	794104	keystroke	i	n/a
397.232	0.06	794464	keystroke	t	n/a
397.727	0.075	795454	keystroke	o	n/a
397.877	0.06	795754	keystroke	r	n/a
398.192	0.06	796384	keystroke	s	n/a
398.387	0.06	796774	keystroke	Key.space	n/a
398.6565	0.075	797313	keystroke	t	n/a
398.7615	0.075	797523	keystroke	i	n/a
398.9115	0.09	797823	keystroke	m	n/a
398.9715	0.075	797943	keystroke	e	n/a
399.1365	0.09	798273	keystroke	s	n/a
399.2715	0.075	798543	keystroke	Key.space	n/a
399.4965	0.06	798993	keystroke	s	n/a
399.7825	0.075	799565	keystroke	p	n/a
399.9925	0.06	799985	keystroke	p	n/a
400.5025	0.075	801005	keystroke	Key.backspace	n/a
400.6675	0.06	801335	keystroke	Key.backspace	n/a
400.8475	0.06	801695	keystroke	u	n/a
401.0425	0.06	802085	keystroke	p	n/a
401.2375	0.06	802475	keystroke	p	n/a
401.522	0.075	803044	keystroke	l	n/a
401.717	0.06	803434	keystroke	i	n/a
401.867	0.06	803734	keystroke	e	n/a
402.032	0.09	804064	keystroke	s	n/a
402.197	0.075	804394	keystroke	Key.space	n/a
402.872	0.075	805744	keystroke	g	n/a
403.187	0.06	806374	keystroke	h	n/a
403.562	0.105	807124	keystroke	a	n/a
404.012	0.06	808024	keystroke	n	n/a
404.117	0.0605	808234	keystroke	a	n/a
404.4475	0.06	808895	keystroke	Key.enter	n/a
404.5195	12.0405	809039	prompt	n/a	tools msgid restrict beijing\n
405.2115	0.06	810423	keystroke	t	n/a
405.3315	0.06	810663	keystroke	o	n/a
405.5265	0.075	811053	keystroke	o	n/a
405.7065	0.06	811413	keystroke	l	n/a
405.8115	0.075	811623	keystroke	s	n/a
405.9915	0.075	811983	keystroke	Key.space	n/a
406.307	0.09	812614	keystroke	m	n/a
406.532	0.075	813064	keystroke	s	n/a
407.102	0.06	814204	keystroke	g	n/a
407.237	0.045	814474	keystroke	i	n/a
407.432	0.045	814864	keystroke	d	n/a
407.552	0.09	815104	keystroke	Key.space	n/a
409.442	0.12	818884	keystroke	r	n/a
409.517	0.075	819034	keystroke	e	n/a
409.712	0.09	819424	keystroke	s	n/a
409.952	0.075	819904	keystroke	t	n/a
410.132	0.06	820264	keystroke	u	n/a
410.267	0.06	820534	keystroke	r	n/a
410.357	0.06	820714	keystroke	i	n/a
410.522	0.03	821044	keystroke	c	n/a
411.077	0.045	822154	keystroke	Key.backspace	n/a
411.212	0.075	822424	keystroke	Key.backspace	n/a
411.272	0.075	822544	keystroke	c	n/a
411.497	0.06	822994	keystroke	t	n/a
411.7365	0.075	823473	keystroke	Key.backspace	n/a
411.9015	0.09	823803	keystroke	Key.backspace	n/a
412.0665	0.06	824133	keystroke	Key.backspace	n/a
412.2165	0.06	824433	keystroke	Key.backspace	n/a
412.8315	0.045	825663	keystroke	r	n/a
412.9815	0.045	825963	keystroke	i	n/a
413.1465	0.075	826293	keystroke	c	n/a
413.3715	0.06	826743	keystroke	t	n/a
413.7015	0.06	827403	keystroke	Key.space	n/a
414.3015	0.06	828603	keystroke	b	n/a
414.497	0.06	828994	keystroke	e	n/a
415.052	0.06	830104	keystroke	i	n/a
415.292	0.06	830584	keystroke	j	n/a
415.7875	0.06	831575	keystroke	i	n/a
415.952	0.0755	831904	keystroke	n	n/a
416.0425	0.06	832085	keystroke	g	n/a
416.492	0.06	832984	keystroke	Key.enter	n/a
416.564	12.507	833128	prompt	n/a	ministers your proteins major\n
417.1975	0.045	834395	keystroke	m	n/a
417.3325	0.06	834665	keystroke	i	n/a
417.4825	0.045	834965	keystroke	n	n/a
417.9925	0.09	835985	keystroke	s	n/a
418.667	0.075	837334	keystroke	i	n/a
419.237	0.06	838474	keystroke	Key.backspace	n/a
419.327	0.075	838654	keystroke	t	n/a
419.522	0.12	839044	keystroke	e	n/a
419.597	0.075	839194	keystroke	r	n/a
420.227	0.06	840454	keystroke	Key.space	n/a
420.8265	0.06	841653	keystroke	Key.backspace	n/a
420.9165	0.075	841833	keystroke	s	n/a
421.0515	0.075	842103	keystroke	Key.space	n/a
421.412	0.06	842824	keystroke	y	n/a
421.457	0.075	842914	keystroke	o	n/a
421.622	0.045	843244	keystroke	u	n/a
421.6965	0.075	843393	keystroke	r	n/a
421.8615	0.06	843723	keystroke	Key.space	n/a
422.5065	0.0755	845013	keystroke	p	n/a
422.642	0.06	845284	keystroke	r	n/a
422.762	0.06	845524	keystroke	o	n/a
422.9865	0.045	845973	keystroke	m	n/a
423.3165	0.06	846633	keystroke	Key.backspace	n/a
423.4365	0.105	846873	keystroke	t	n/a
423.527	0.0745	847054	keystroke	e	n/a
424.052	0.061	848104	keystroke	n	n/a
424.217	0.06	848434	keystroke	i	n/a
424.442	0.06	848884	keystroke	n	n/a
424.637	0.075	849274	keystroke	s	n/a
425.117	0.075	850234	keystroke	Key.backspace	n/a
425.312	0.06	850624	keystroke	Key.backspace	n/a
425.477	0.06	850954	keystroke	Key.backspace	n/a
425.657	0.06	851314	keystroke	Key.backspace	n/a
426.7225	0.075	853445	keystroke	i	n/a
426.9325	0.06	853865	keystroke	n	n/a
427.5175	0.06	855035	keystroke	s	n/a
427.712	0.06	855424	keystroke	Key.space	n/a
427.952	0.075	855904	keystroke	m	n/a
428.087	0.06	856174	keystroke	a	n/a
428.1615	0.06	856323	keystroke	j	n/a
428.2965	0.09	856593	keystroke	o	n/a
428.4315	0.061	856863	keystroke	r	n/a
429.0015	0.06	858003	keystroke	Key.enter	n/a
429.075	9.67	858150	prompt	n/a	optimum queue featuring gore\n
429.9025	0.165	859805	keystroke	o	n/a
430.0225	0.075	860045	keystroke	p	n/a
430.292	0.075	860584	keystroke	t	n/a
430.877	0.075	861754	keystroke	i	n/a
431.282	0.075	862564	keystroke	m	n/a
431.657	0.075	863314	keystroke	u	n/a
431.987	0.06	863974	keystroke	m	n/a
432.4225	0.06	864845	keystroke	Key.space	n/a
432.767	0.075	865534	keystroke	q	n/a
432.857	0.06	865714	keystroke	u	n/a
433.037	0.076	866074	keystroke	e	n/a
433.142	0.075	866284	keystroke	n	n/a
433.262	0.06	866524	keystroke	e	n/a
433.562	0.06	867124	keystroke	Key.backspace	n/a
433.712	0.045	867424	keystroke	Key.backspace	n/a
433.877	0.06	867754	keystroke	u	n/a
433.952	0.06	867904	keystroke	e	n/a
434.117	0.0455	868234	keystroke	Key.space	n/a
434.6725	0.135	869345	keystroke	e	n/a
435.032	0.045	870064	keystroke	Key.backspace	n/a
435.122	0.09	870244	keystroke	f	n/a
435.242	0.135	870484	keystroke	e	n/a
435.347	0.12	870694	keystroke	a	n/a
435.557	0.075	871114	keystroke	t	n/a
435.692	0.06	871384	keystroke	u	n/a
435.812	0.12	871624	keystroke	r	n/a
435.872	0.12	871744	keystroke	e	n/a
436.127	0.0895	872254	keystroke	s	n/a
436.5465	0.06	873093	keystroke	Key.backspace	n/a
436.9515	0.06	873903	keystroke	Key.backspace	n/a
437.1765	0.06	874353	keystroke	i	n/a
437.3565	0.06	874713	keystroke	n	n/a
437.4465	0.06	874893	keystroke	g	n/a
437.5515	0.06	875103	keystroke	Key.space	n/a
437.7015	0.045	875403	keystroke	g	n/a
437.8365	0.06	875673	keystroke	o	n/a
437.9565	0.12	875913	keystroke	r	n/a
438.0315	0.09	876063	keystroke	e	n/a
438.6615	0.075	877323	keystroke	Key.enter	n/a
438.749	9.4315	877498	prompt	n/a	attribute road breath leader\n
439.3665	0.0755	878733	keystroke	a	n/a
439.517	0.06	879034	keystroke	t	n/a
439.697	0.045	879394	keystroke	t	n/a
439.862	0.06	879724	keystroke	r	n/a
440.042	0.06	880084	keystroke	i	n/a
440.537	0.075	881074	keystroke	b	n/a
440.702	0.045	881404	keystroke	u	n/a
441.3165	0.075	882633	keystroke	t	n/a
441.5865	0.076	883173	keystroke	e	n/a
441.812	0.06	883624	keystroke	Key.space	n/a
442.2325	0.075	884465	keystroke	r	n/a
442.3525	0.075	884705	keystroke	o	n/a
442.5925	0.105	885185	keystroke	a	n/a
442.757	0.06	885514	keystroke	d	n/a
443.057	0.075	886114	keystroke	Key.space	n/a
443.6265	0.076	887253	keystroke	b	n/a
443.987	0.1345	887974	keystroke	r	n/a
444.0915	0.12	888183	keystroke	e	n/a
444.377	0.1055	888754	keystroke	t	n/a
444.587	0.045	889174	keystroke	h	n/a
444.872	0.06	889744	keystroke	Key.backspace	n/a
445.007	0.0605	890014	keystroke	Key.backspace	n/a
445.0975	0.09	890195	keystroke	a	n/a
445.1725	0.09	890345	keystroke	t	n/a
445.3075	0.075	890615	keystroke	h	n/a
445.4875	0.06	890975	keystroke	Key.space	n/a
446.1325	0.075	892265	keystroke	l	n/a
446.2225	0.105	892445	keystroke	e	n/a
446.3125	0.15	892625	keystroke	a	n/a
446.5075	0.0895	893015	keystroke	d	n/a
446.717	0.09	893434	keystroke	e	n/a
446.762	0.105	893524	keystroke	r	n/a
448.097	0.0755	896194	keystroke	Key.enter	n/a
448.184	12.7315	896368	prompt	n/a	percent mary lecture ebony\n
448.9975	0.045	897995	keystroke	p	n/a
449.3725	0.12	898745	keystroke	e	n/a
449.4625	0.075	898925	keystroke	r	n/a
449.702	0.091	899404	keystroke	c	n/a
449.823	0.0895	899646	keystroke	e	n/a
449.9725	0.075	899945	keystroke	n	n/a
450.0925	0.06	900185	keystroke	t	n/a
450.1975	0.075	900395	keystroke	Key.space	n/a
450.4225	0.075	900845	keystroke	m	n/a
450.5725	0.12	901145	keystroke	a	n/a
450.6475	0.09	901295	keystroke	r	n/a
451.0225	0.075	902045	keystroke	Key.space	n/a
451.4725	0.075	902945	keystroke	Key.backspace	n/a
451.5775	0.09	903155	keystroke	y	n/a
451.7275	0.0745	903455	keystroke	Key.space	n/a
451.997	0.09	903994	keystroke	l	n/a
452.147	0.09	904294	keystroke	e	n/a
452.552	0.09	905104	keystroke	c	n/a
452.747	0.06	905494	keystroke	u	n/a
453.587	0.135	907174	keystroke	r	n/a
453.692	0.0755	907384	keystroke	e	n/a
454.0375	0.06	908075	keystroke	Key.backspace	n/a
454.187	0.075	908374	keystroke	Key.backspace	n/a
454.307	0.075	908614	keystroke	t	n/a
454.457	0.075	908914	keystroke	u	n/a
454.547	0.105	909094	keystroke	r	n/a
454.607	0.09	909214	keystroke	e	n/a
454.862	0.06	909724	keystroke	Key.space	n/a
455.4465	0.06	910893	keystroke	Key.backspace	n/a
455.612	0.06	911224	keystroke	Key.backspace	n/a
455.777	0.06	911554	keystroke	Key.backspace	n/a
455.942	0.075	911884	keystroke	Key.backspace	n/a
456.152	0.075	912304	keystroke	Key.backspace	n/a
456.332	0.06	912664	keystroke	Key.backspace	n/a
456.707	0.075	913414	keystroke	t	n/a
456.857	0.075	913714	keystroke	u	n/a
456.992	0.09	913984	keystroke	r	n/a
457.052	0.075	914104	keystroke	e	n/a
457.262	0.06	914524	keystroke	Key.space	n/a
457.9525	0.06	915905	keystroke	b	n/a
458.3725	0.075	916745	keystroke	e	n/a
458.6575	0.06	917315	keystroke	Key.backspace	n/a
458.8075	0.06	917615	keystroke	Key.backspace	n/a
458.8525	0.06	917705	keystroke	e	n/a
459.0625	0.075	918125	keystroke	b	n/a
459.3025	0.06	918605	keystroke	o	n/a
459.4825	0.06	918965	keystroke	n	n/a
459.5875	0.075	919175	keystroke	y	n/a
460.847	0.06	921694	keystroke	Key.enter	n/a
460.9235	12.502	921847	prompt	n/a	everywhere ingredients freebsd receiver\n
461.5975	0.06	923195	keystroke	e	n/a
461.8375	0.06	923675	keystroke	v	n/a
462.0025	0.15	924005	keystroke	e	n/a
462.1075	0.0745	924215	keystroke	r	n/a
462.347	0.06	924694	keystroke	y	n/a
462.9025	0.105	925805	keystroke	w	n/a
463.0825	0.06	926165	keystroke	h	n/a
463.1575	0.09	926315	keystroke	e	n/a
463.2625	0.105	926525	keystroke	r	n/a
463.3525	0.06	926705	keystroke	e	n/a
463.472	0.075	926944	keystroke	Key.space	n/a
463.982	0.06	927964	keystroke	i	n/a
464.147	0.075	928294	keystroke	n	n/a
464.522	0.075	929044	keystroke	d	n/a
465.197	0.06	930394	keystroke	Key.backspace	n/a
465.302	0.0605	930604	keystroke	g	n/a
465.5575	0.105	931115	keystroke	r	n/a
465.6475	0.06	931295	keystroke	e	n/a
465.8575	0.075	931715	keystroke	d	n/a
466.0225	0.06	932045	keystroke	i	n/a
466.1875	0.06	932375	keystroke	e	n/a
466.2925	0.06	932585	keystroke	n	n/a
466.4275	0.06	932855	keystroke	t	n/a
466.6525	0.075	933305	keystroke	s	n/a
466.8475	0.075	933695	keystroke	Key.space	n/a
467.2675	0.06	934535	keystroke	b	n/a
467.5675	0.06	935135	keystroke	Key.backspace	n/a
467.6875	0.075	935375	keystroke	f	n/a
467.9125	0.09	935825	keystroke	r	n/a
468.1525	0.0595	936305	keystroke	e	n/a
468.332	0.045	936664	keystroke	e	n/a
468.512	0.075	937024	keystroke	Key.space	n/a
468.887	0.075	937774	keystroke	Key.backspace	n/a
468.977	0.075	937954	keystroke	b	n/a
469.157	0.135	938314	keystroke	a	n/a
469.277	0.105	938554	keystroke	d	n/a
469.742	0.06	939484	keystroke	Key.backspace	n/a
469.892	0.06	939784	keystroke	Key.backspace	n/a
469.967	0.09	939934	keystroke	s	n/a
470.717	0.045	941434	keystroke	d	n/a
470.852	0.06	941704	keystroke	Key.space	n/a
471.197	0.105	942394	keystroke	r	n/a
471.257	0.09	942514	keystroke	e	n/a
471.512	0.09	943024	keystroke	c	n/a
471.647	0.09	943294	keystroke	e	n/a
471.842	0.06	943684	keystroke	i	n/a
472.802	0.06	945604	keystroke	v	n/a
473.0125	0.15	946025	keystroke	e	n/a
473.1175	0.09	946235	keystroke	r	n/a
473.3425	0.075	946685	keystroke	Key.enter	n/a
473.4295	11.081	946859	prompt	n/a	mediawiki trains edge strictly\n
474.1675	0.075	948335	keystroke	m	n/a
474.2875	0.09	948575	keystroke	a	n/a
474.4975	0.075	948995	keystroke	d	n/a
474.6175	0.075	949235	keystroke	i	n/a
474.7975	0.09	949595	keystroke	a	n/a
475.2475	0.075	950495	keystroke	Key.backspace	n/a
475.4275	0.06	950855	keystroke	Key.backspace	n/a
475.6075	0.075	951215	keystroke	Key.backspace	n/a
475.757	0.075	951514	keystroke	Key.backspace	n/a
475.847	0.06	951694	keystroke	e	n/a
476.027	0.06	952054	keystroke	d	n/a
476.132	0.06	952264	keystroke	i	n/a
476.237	0.09	952474	keystroke	a	n/a
477.7825	0.06	955565	keystroke	w	n/a
477.9325	0.06	955865	keystroke	i	n/a
478.1275	0.075	956255	keystroke	k	n/a
478.3525	0.045	956705	keystroke	i	n/a
478.6375	0.06	957275	keystroke	Key.space	n/a
479.0725	0.075	958145	keystroke	t	n/a
479.2975	0.12	958595	keystroke	r	n/a
479.4025	0.06	958805	keystroke	a	n/a
479.5075	0.06	959015	keystroke	i	n/a
479.6725	0.075	959345	keystroke	n	n/a
479.7775	0.06	959555	keystroke	s	n/a
480.512	0.0605	961024	keystroke	Key.space	n/a
480.917	0.06	961834	keystroke	e	n/a
481.097	0.06	962194	keystroke	d	n/a
481.262	0.12	962524	keystroke	g	n/a
481.352	0.09	962704	keystroke	e	n/a
481.607	0.06	963214	keystroke	Key.space	n/a
482.2075	0.06	964415	keystroke	s	n/a
482.3725	0.075	964745	keystroke	t	n/a
482.582	0.06	965164	keystroke	r	n/a
482.732	0.06	965464	keystroke	i	n/a
482.912	0.075	965824	keystroke	c	n/a
483.542	0.015	967084	keystroke	t	n/a
483.573	0.059	967146	keystroke	l	n/a
483.692	0.0905	967384	keystroke	y	n/a
484.427	0.075	968854	keystroke	Key.enter	n/a
484.517	8.093	969034	prompt	n/a	captain plots miller lies\n
485.177	0.12	970354	keystroke	c	n/a
485.492	0.075	970984	keystroke	a	n/a
485.807	0.075	971614	keystroke	p	n/a
486.107	0.06	972214	keystroke	t	n/a
486.7675	0.09	973535	keystroke	a	n/a
486.9325	0.06	973865	keystroke	i	n/a
487.0975	0.075	974195	keystroke	n	n/a
487.2925	0.075	974585	keystroke	Key.space	n/a
488.102	0.075	976204	keystroke	p	n/a
488.297	0.075	976594	keystroke	l	n/a
488.477	0.06	976954	keystroke	o	n/a
488.657	0.03	977314	keystroke	t	n/a
489.347	0.015	978694	keystroke	Key.space	n/a
489.602	0.06	979204	keystroke	Key.backspace	n/a
489.707	0.075	979414	keystroke	s	n/a
489.827	0.075	979654	keystroke	Key.space	n/a
490.3825	0.09	980765	keystroke	m	n/a
490.5625	0.06	981125	keystroke	i	n/a
490.7575	0.03	981515	keystroke	l	n/a
490.8925	0.06	981785	keystroke	l	n/a
491.0575	0.12	982115	keystroke	e	n/a
491.1475	0.09	982295	keystroke	r	n/a
491.3425	0.06	982685	keystroke	Key.space	n/a
491.6575	0.06	983315	keystroke	l	n/a
491.8075	0.0595	983615	keystroke	i	n/a
491.882	0.135	983764	keystroke	e	n/a
492.137	0.0905	984274	keystroke	s	n/a
492.527	0.075	985054	keystroke	Key.enter	n/a
492.6145	9.926	985229	prompt	n/a	slovakia garbage stones accessing\n
493.382	0.075	986764	keystroke	s	n/a
493.757	0.06	987514	keystroke	o	n/a
494.147	0.0605	988294	keystroke	Key.backspace	n/a
494.3575	0.075	988715	keystroke	l	n/a
494.5525	0.06	989105	keystroke	o	n/a
494.7475	0.09	989495	keystroke	v	n/a
495.0775	0.075	990155	keystroke	a	n/a
495.692	0.06	991384	keystroke	k	n/a
495.872	0.045	991744	keystroke	i	n/a
495.962	0.09	991924	keystroke	a	n/a
496.082	0.075	992164	keystroke	Key.space	n/a
496.742	0.075	993484	keystroke	g	n/a
496.922	0.12	993844	keystroke	a	n/a
497.012	0.075	994024	keystroke	r	n/a
497.507	0.0905	995014	keystroke	b	n/a
497.7025	0.075	995405	keystroke	a	n/a
498.437	0.09	996874	keystroke	g	n/a
498.542	0.0455	997084	keystroke	e	n/a
499.292	0.075	998584	keystroke	Key.space	n/a
499.502	0.045	999004	keystroke	s	n/a
499.607	0.075	999214	keystroke	t	n/a
499.712	0.06	999424	keystroke	o	n/a
499.877	0.06	999754	keystroke	n	n/a
499.922	0.06	999844	keystroke	e	n/a
500.327	0.06	1000654	keystroke	Key.space	n/a
500.672	0.09	1001344	keystroke	a	n/a
500.897	0.12	1001794	keystroke	c	n/a
501.287	0.075	1002574	keystroke	c	n/a
501.5415	0.03	1003083	keystroke	e	n/a
501.722	0.06	1003444	keystroke	s	n/a
501.872	0.06	1003744	keystroke	s	n/a
501.962	0.075	1003924	keystroke	i	n/a
502.142	0.061	1004284	keystroke	n	n/a
502.217	0.061	1004434	keystroke	g	n/a
502.472	0.06	1004944	keystroke	Key.enter	n/a
502.5445	9.851	1005089	prompt	n/a	sandwich login punk motherboard\n
503.1325	0.075	1006265	keystroke	s	n/a
503.2675	0.075	1006535	keystroke	a	n/a
503.4025	0.075	1006805	keystroke	n	n/a
503.5825	0.075	1007165	keystroke	d	n/a
504.3775	0.06	1008755	keystroke	w	n/a
504.557	0.045	1009114	keystroke	h	n/a
504.707	0.06	1009414	keystroke	i	n/a
505.172	0.06	1010344	keystroke	Key.backspace	n/a
505.337	0.03	1010674	keystroke	Key.backspace	n/a
505.5625	0.075	1011125	keystroke	i	n/a
505.7575	0.06	1011515	keystroke	c	n/a
505.8625	0.09	1011725	keystroke	h	n/a
506.1025	0.06	1012205	keystroke	Key.space	n/a
506.5525	0.075	1013105	keystroke	l	n/a
506.7175	0.06	1013435	keystroke	o	n/a
506.8075	0.06	1013615	keystroke	g	n/a
506.8975	0.06	1013795	keystroke	i	n/a
507.0625	0.0745	1014125	keystroke	n	n/a
507.242	0.06	1014484	keystroke	Key.space	n/a
507.617	0.09	1015234	keystroke	p	n/a
508.127	0.06	1016254	keystroke	u	n/a
508.337	0.075	1016674	keystroke	n	n/a
508.4575	0.075	1016915	keystroke	k	n/a
508.6525	0.06	1017305	keystroke	Key.space	n/a
509.1475	0.06	1018295	keystroke	m	n/a
509.3275	0.045	1018655	keystroke	o	n/a
509.7025	0.059	1019405	keystroke	t	n/a
509.807	0.06	1019614	keystroke	h	n/a
509.927	0.12	1019854	keystroke	e	n/a
510.002	0.09	1020004	keystroke	r	n/a
511.292	0.075	1022584	keystroke	b	n/a
511.427	0.09	1022854	keystroke	o	n/a
511.532	0.135	1023064	keystroke	a	n/a
511.622	0.075	1023244	keystroke	r	n/a
511.847	0.09	1023694	keystroke	d	n/a
512.327	0.06	1024654	keystroke	Key.enter	n/a
512.3995	9.731	1024799	prompt	n/a	devices packaging toxic concluded\n
513.0625	0.075	1026125	keystroke	d	n/a
513.5875	0.075	1027175	keystroke	e	n/a
513.7825	0.075	1027565	keystroke	v	n/a
513.9325	0.06	1027865	keystroke	i	n/a
514.0825	0.12	1028165	keystroke	c	n/a
514.1575	0.09	1028315	keystroke	e	n/a
514.4275	0.075	1028855	keystroke	Key.space	n/a
514.892	0.06	1029784	keystroke	p	n/a
514.997	0.1355	1029994	keystroke	a	n/a
515.0875	0.135	1030175	keystroke	c	n/a
515.2075	0.0745	1030415	keystroke	k	n/a
515.627	0.105	1031254	keystroke	a	n/a
515.702	0.0905	1031404	keystroke	g	n/a
515.8075	0.12	1031615	keystroke	e	n/a
516.5725	0.015	1033145	keystroke	Key.backspace	n/a
516.7225	0.06	1033445	keystroke	i	n/a
516.8875	0.075	1033775	keystroke	n	n/a
517.0375	0.06	1034075	keystroke	g	n/a
517.2475	0.06	1034495	keystroke	Key.space	n/a
517.7125	0.0595	1035425	keystroke	t	n/a
517.832	0.045	1035664	keystroke	o	n/a
517.997	0.03	1035994	keystroke	n	n/a
518.477	0.015	1036954	keystroke	Key.backspace	n/a
518.507	0.015	1037014	keystroke	x	n/a
518.582	0.075	1037164	keystroke	i	n/a
519.167	0.09	1038334	keystroke	c	n/a
519.392	0.075	1038784	keystroke	Key.space	n/a
519.7675	0.0745	1039535	keystroke	c	n/a
519.872	0.075	1039744	keystroke	o	n/a
520.067	0.06	1040134	keystroke	n	n/a
520.2325	0.074	1040465	keystroke	c	n/a
520.3515	0.061	1040703	keystroke	l	n/a
521.3115	0.06	1042623	keystroke	u	n/a
521.4775	0.0595	1042955	keystroke	d	n/a
521.672	0.045	1043344	keystroke	e	n/a
521.8525	0.06	1043705	keystroke	d	n/a
522.0475	0.0745	1044095	keystroke	Key.enter	n/a
522.1345	23.1865	1044269	prompt	n/a	replaced released stops cakes\n
522.857	0.135	1045714	keystroke	r	n/a
522.932	0.105	1045864	keystroke	e	n/a
523.142	0.045	1046284	keystroke	p	n/a
523.292	0.09	1046584	keystroke	l	n/a
523.367	0.105	1046734	keystroke	a	n/a
523.457	0.15	1046914	keystroke	c	n/a
523.592	0.075	1047184	keystroke	e	n/a
523.787	0.075	1047574	keystroke	d	n/a
523.997	0.075	1047994	keystroke	Key.space	n/a
524.388	0.1345	1048776	keystroke	r	n/a
524.4775	0.09	1048955	keystroke	e	n/a
524.6875	0.09	1049375	keystroke	l	n/a
524.852	0.105	1049704	keystroke	a	n/a
525.077	0.18	1050154	keystroke	s	n/a
525.242	0.09	1050484	keystroke	e	n/a
527.8245	0.013	1055649	keystroke	Key.backspace	n/a
529.097	0.09	1058194	keystroke	e	n/a
529.337	0.045	1058674	keystroke	d	n/a
529.532	0.06	1059064	keystroke	Key.space	n/a
529.982	0.075	1059964	keystroke	s	n/a
530.417	0.06	1060834	keystroke	Key.backspace	n/a
530.582	0.06	1061164	keystroke	Key.backspace	n/a
530.7625	0.045	1061525	keystroke	Key.backspace	n/a
531.347	0.075	1062694	keystroke	Key.backspace	n/a
532.667	0.0605	1065334	keystroke	e	n/a
532.8625	0.075	1065725	keystroke	d	n/a
533.2525	0.045	1066505	keystroke	Key.space	n/a
534.1975	0.075	1068395	keystroke	Key.backspace	n/a
534.3925	0.06	1068785	keystroke	Key.backspace	n/a
534.5725	0.06	1069145	keystroke	Key.backspace	n/a
534.992	0.06	1069984	keystroke	Key.backspace	n/a
535.172	0.075	1070344	keystroke	Key.backspace	n/a
535.3975	0.21	1070795	keystroke	e	n/a
535.5475	0.105	1071095	keystroke	s	n/a
536.1775	0.075	1072355	keystroke	s	n/a
536.3725	0.075	1072745	keystroke	e	n/a
536.5675	0.075	1073135	keystroke	d	n/a
536.8225	0.03	1073645	keystroke	Key.space	n/a
537.2725	0.06	1074545	keystroke	Key.backspace	n/a
537.4375	0.075	1074875	keystroke	Key.backspace	n/a
537.6175	0.045	1075235	keystroke	Key.backspace	n/a
537.7675	0.06	1075535	keystroke	Key.backspace	n/a
538.802	0.06	1077604	keystroke	e	n/a
538.982	0.075	1077964	keystroke	d	n/a
539.132	0.075	1078264	keystroke	Key.space	n/a
539.9875	0.075	1079975	keystroke	Key.backspace	n/a
540.1675	0.06	1080335	keystroke	Key.backspace	n/a
540.3475	0.06	1080695	keystroke	Key.backspace	n/a
540.5425	0.06	1081085	keystroke	Key.backspace	n/a
541.6675	0.0895	1083335	keystroke	a	n/a
542.207	0.075	1084414	keystroke	s	n/a
542.372	0.06	1084744	keystroke	e	n/a
542.537	0.075	1085074	keystroke	d	n/a
542.627	0.06	1085254	keystroke	Key.space	n/a
542.777	0.09	1085554	keystroke	s	n/a
542.927	0.075	1085854	keystroke	t	n/a
543.0175	0.135	1086035	keystroke	o	n/a
543.092	0.0905	1086184	keystroke	p	n/a
543.302	0.06	1086604	keystroke	Key.space	n/a
544.2925	0.1045	1088585	keystroke	c	n/a
544.4125	0.105	1088825	keystroke	a	n/a
544.547	0.061	1089094	keystroke	k	n/a
544.653	0.06	1089306	keystroke	e	n/a
544.848	0.075	1089696	keystroke	s	n/a
545.238	0.074	1090476	keystroke	Key.enter	n/a
545.3255	10.72	1090651	prompt	n/a	remained boundary maternity hobbies\n
545.988	0.12	1091976	keystroke	r	n/a
546.453	0.09	1092906	keystroke	e	n/a
546.6925	0.075	1093385	keystroke	a	n/a
547.2775	0.06	1094555	keystroke	Key.backspace	n/a
547.5025	0.09	1095005	keystroke	m	n/a
547.6225	0.0895	1095245	keystroke	a	n/a
547.727	0.06	1095454	keystroke	i	n/a
547.877	0.075	1095754	keystroke	n	n/a
547.967	0.045	1095934	keystroke	e	n/a
548.132	0.06	1096264	keystroke	d	n/a
548.252	0.06	1096504	keystroke	Key.space	n/a
548.523	0.059	1097046	keystroke	b	n/a
548.628	0.06	1097256	keystroke	o	n/a
548.777	0.03	1097554	keystroke	u	n/a
549.198	0.074	1098396	keystroke	n	n/a
549.6325	0.0895	1099265	keystroke	d	n/a
549.797	0.15	1099594	keystroke	a	n/a
549.948	0.104	1099896	keystroke	r	n/a
550.202	0.06	1100404	keystroke	y	n/a
550.532	0.06	1101064	keystroke	Key.space	n/a
551.2675	0.06	1102535	keystroke	m	n/a
551.3575	0.105	1102715	keystroke	a	n/a
551.5675	0.075	1103135	keystroke	t	n/a
551.7625	0.12	1103525	keystroke	e	n/a
551.8525	0.06	1103705	keystroke	r	n/a
551.9425	0.06	1103885	keystroke	n	n/a
552.1225	0.045	1104245	keystroke	i	n/a
552.2575	0.06	1104515	keystroke	t	n/a
552.4675	0.06	1104935	keystroke	y	n/a
552.6475	0.06	1105295	keystroke	Key.space	n/a
553.5925	0.0755	1107185	keystroke	b	n/a
553.848	0.06	1107696	keystroke	o	n/a
554.208	0.045	1108416	keystroke	Key.backspace	n/a
554.343	0.03	1108686	keystroke	Key.backspace	n/a
554.508	0.075	1109016	keystroke	h	n/a
554.703	0.045	1109406	keystroke	o	n/a
554.823	0.06	1109646	keystroke	b	n/a
554.988	0.06	1109976	keystroke	b	n/a
555.093	0.06	1110186	keystroke	i	n/a
555.678	0.075	1111356	keystroke	e	n/a
555.828	0.09	1111656	keystroke	s	n/a
555.978	0.06	1111956	keystroke	Key.enter	n/a
556.0505	9.9405	1112101	prompt	n/a	dated observer merit inspector\n
556.668	0.105	1113336	keystroke	d	n/a
556.758	0.135	1113516	keystroke	a	n/a
556.878	0.09	1113756	keystroke	t	n/a
556.997	0.076	1113994	keystroke	e	n/a
557.193	0.06	1114386	keystroke	d	n/a
557.343	0.06	1114686	keystroke	Key.space	n/a
557.583	0.06	1115166	keystroke	o	n/a
557.808	0.015	1115616	keystroke	b	n/a
558.2275	0.12	1116455	keystroke	s	n/a
558.3775	0.165	1116755	keystroke	e	n/a
558.4675	0.09	1116935	keystroke	r	n/a
558.7375	0.075	1117475	keystroke	v	n/a
558.9175	0.135	1117835	keystroke	e	n/a
559.0075	0.075	1118015	keystroke	r	n/a
559.1875	0.075	1118375	keystroke	Key.space	n/a
559.7425	0.0605	1119485	keystroke	m	n/a
559.8475	0.165	1119695	keystroke	e	n/a
559.9975	0.045	1119995	keystroke	r	n/a
560.1475	0.06	1120295	keystroke	i	n/a
560.2675	0.06	1120535	keystroke	t	n/a
560.4775	0.03	1120955	keystroke	Key.space	n/a
561.138	0.06	1122276	keystroke	i	n/a
561.273	0.075	1122546	keystroke	n	n/a
561.378	0.09	1122756	keystroke	s	n/a
561.483	0.06	1122966	keystroke	p	n/a
561.588	0.06	1123176	keystroke	e	n/a
561.768	0.075	1123536	keystroke	c	n/a
563.3275	0.09	1126655	keystroke	r	n/a
563.9275	0.0745	1127855	keystroke	Key.backspace	n/a
564.048	0.075	1128096	keystroke	t	n/a
564.198	0.06	1128396	keystroke	o	n/a
564.287	0.061	1128574	keystroke	r	n/a
565.922	0.06	1131844	keystroke	Key.enter	n/a
565.996	10.6595	1131992	prompt	n/a	investigations computers galaxy dock\n
566.6875	0.06	1133375	keystroke	i	n/a
566.8675	0.075	1133735	keystroke	n	n/a
567.9925	0.075	1135985	keystroke	v	n/a
568.2175	0.105	1136435	keystroke	e	n/a
568.3375	0.1495	1136675	keystroke	s	n/a
568.5175	0.105	1137035	keystroke	t	n/a
568.7425	0.06	1137485	keystroke	i	n/a
568.982	0.075	1137964	keystroke	g	n/a
569.087	0.105	1138174	keystroke	a	n/a
569.237	0.09	1138474	keystroke	t	n/a
569.342	0.105	1138684	keystroke	i	n/a
569.417	0.09	1138834	keystroke	o	n/a
569.552	0.0905	1139104	keystroke	n	n/a
569.687	0.06	1139374	keystroke	s	n/a
569.792	0.075	1139584	keystroke	Key.space	n/a
570.3025	0.1045	1140605	keystroke	c	n/a
570.422	0.075	1140844	keystroke	o	n/a
570.572	0.09	1141144	keystroke	m	n/a
570.708	0.089	1141416	keystroke	p	n/a
570.842	0.075	1141684	keystroke	u	n/a
570.977	0.06	1141954	keystroke	t	n/a
571.127	0.105	1142254	keystroke	e	n/a
571.217	0.06	1142434	keystroke	r	n/a
571.7275	0.06	1143455	keystroke	s	n/a
571.8925	0.075	1143785	keystroke	Key.space	n/a
572.4775	0.105	1144955	keystroke	g	n/a
572.6125	0.09	1145225	keystroke	a	n/a
572.8375	0.075	1145675	keystroke	l	n/a
573.0175	0.075	1146035	keystroke	a	n/a
573.947	0.075	1147894	keystroke	x	n/a
574.202	0.06	1148404	keystroke	y	n/a
574.772	0.06	1149544	keystroke	Key.space	n/a
575.3425	0.075	1150685	keystroke	d	n/a
575.927	0.045	1151854	keystroke	o	n/a
576.017	0.105	1152034	keystroke	c	n/a
576.167	0.0755	1152334	keystroke	k	n/a
576.5725	0.075	1153145	keystroke	Key.enter	n/a
576.66	10.406	1153320	prompt	n/a	allowance persian downtown chart\n
577.997	0.075	1155994	keystroke	a	n/a
578.132	0.0605	1156264	keystroke	l	n/a
578.2825	0.06	1156565	keystroke	l	n/a
578.4175	0.075	1156835	keystroke	o	n/a
578.5375	0.075	1157075	keystroke	w	n/a
578.7925	0.075	1157585	keystroke	a	n/a
578.8975	0.075	1157795	keystroke	n	n/a
579.0325	0.135	1158065	keystroke	c	n/a
579.1375	0.09	1158275	keystroke	e	n/a
579.3175	0.075	1158635	keystroke	Key.space	n/a
579.6175	0.015	1159235	keystroke	p	n/a
579.6925	0.1345	1159385	keystroke	e	n/a
579.798	0.09	1159596	keystroke	r	n/a
580.023	0.09	1160046	keystroke	s	n/a
580.188	0.03	1160376	keystroke	i	n/a
580.293	0.075	1160586	keystroke	a	n/a
580.443	0.0745	1160886	keystroke	n	n/a
580.6375	0.06	1161275	keystroke	Key.space	n/a
581.912	0.06	1163824	keystroke	d	n/a
582.002	0.06	1164004	keystroke	o	n/a
582.137	0.09	1164274	keystroke	w	n/a
582.257	0.075	1164514	keystroke	n	n/a
582.467	0.075	1164934	keystroke	t	n/a
582.572	0.0755	1165144	keystroke	o	n/a
583.0675	0.075	1166135	keystroke	w	n/a
583.1575	0.06	1166315	keystroke	n	n/a
583.3225	0.0745	1166645	keystroke	Key.space	n/a
583.5475	0.09	1167095	keystroke	c	n/a
583.6825	0.075	1167365	keystroke	h	n/a
583.7725	0.12	1167545	keystroke	a	n/a
583.8475	0.075	1167695	keystroke	r	n/a
584.0725	0.06	1168145	keystroke	t	n/a
587.03	0.027	1174060	keystroke	Key.enter	n/a
587.07	10.136	1174140	prompt	n/a	shoppers richard cotton imported\n
588.197	0.06	1176394	keystroke	s	n/a
588.258	0.014	1176516	keystroke	h	n/a
588.497	0.075	1176994	keystroke	o	n/a
588.677	0.06	1177354	keystroke	p	n/a
589.0975	0.075	1178195	keystroke	p	n/a
589.6375	0.12	1179275	keystroke	e	n/a
589.728	0.0745	1179456	keystroke	r	n/a
589.9075	0.105	1179815	keystroke	s	n/a
590.0575	0.0755	1180115	keystroke	Key.space	n/a
590.3275	0.15	1180655	keystroke	r	n/a
590.4625	0.105	1180925	keystroke	a	n/a
590.6425	0.06	1181285	keystroke	i	n/a
591.1675	0.06	1182335	keystroke	Key.backspace	n/a
591.3025	0.075	1182605	keystroke	Key.backspace	n/a
592.143	0.06	1184286	keystroke	i	n/a
592.308	0.075	1184616	keystroke	c	n/a
592.398	0.075	1184796	keystroke	h	n/a
592.608	0.135	1185216	keystroke	a	n/a
592.713	0.0895	1185426	keystroke	r	n/a
592.9225	0.09	1185845	keystroke	d	n/a
593.0425	0.075	1186085	keystroke	Key.space	n/a
593.358	0.075	1186716	keystroke	c	n/a
593.928	0.06	1187856	keystroke	o	n/a
594.1675	0.0455	1188335	keystroke	t	n/a
594.333	0.045	1188666	keystroke	t	n/a
594.408	0.075	1188816	keystroke	o	n/a
594.603	0.06	1189206	keystroke	n	n/a
594.768	0.06	1189536	keystroke	Key.space	n/a
594.978	0.06	1189956	keystroke	i	n/a
595.128	0.0745	1190256	keystroke	m	n/a
595.2625	0.09	1190525	keystroke	p	n/a
595.3975	0.09	1190795	keystroke	o	n/a
595.4725	0.075	1190945	keystroke	r	n/a
595.6825	0.075	1191365	keystroke	t	n/a
595.8025	0.09	1191605	keystroke	a	n/a
596.3125	0.06	1192625	keystroke	Key.backspace	n/a
596.6275	0.045	1193255	keystroke	e	n/a
596.8075	0.06	1193615	keystroke	d	n/a
597.1375	0.06	1194275	keystroke	Key.enter	n/a
597.2125	16.1225	1194425	prompt	n/a	afghanistan mechanisms opponent distances\n
598.0525	0.105	1196105	keystroke	a	n/a
598.5775	0.09	1197155	keystroke	f	n/a
599.0275	0.075	1198055	keystroke	g	n/a
599.297	0.06	1198594	keystroke	h	n/a
599.567	0.1655	1199134	keystroke	a	n/a
599.6875	0.0755	1199375	keystroke	s	n/a
599.942	0.06	1199884	keystroke	n	n/a
600.168	0.059	1200336	keystroke	i	n/a
600.753	0.089	1201506	keystroke	s	n/a
601.3225	0.09	1202645	keystroke	t	n/a
602.3275	0.09	1204655	keystroke	a	n/a
602.4625	0.075	1204925	keystroke	n	n/a
602.6425	0.09	1205285	keystroke	Key.space	n/a
602.9425	0.06	1205885	keystroke	m	n/a
603.0475	0.075	1206095	keystroke	e	n/a
603.9625	0.0895	1207925	keystroke	c	n/a
604.323	0.06	1208646	keystroke	h	n/a
605.1025	0.075	1210205	keystroke	a	n/a
605.238	0.075	1210476	keystroke	n	n/a
605.508	0.06	1211016	keystroke	i	n/a
605.613	0.09	1211226	keystroke	s	n/a
605.762	0.09	1211524	keystroke	m	n/a
605.973	0.06	1211946	keystroke	s	n/a
606.152	0.06	1212304	keystroke	Key.space	n/a
606.9325	0.135	1213865	keystroke	o	n/a
607.0375	0.06	1214075	keystroke	p	n/a
607.2325	0.09	1214465	keystroke	p	n/a
607.7875	0.075	1215575	keystroke	o	n/a
608.0275	0.06	1216055	keystroke	n	n/a
608.702	0.045	1217404	keystroke	e	n/a
609.1075	0.075	1218215	keystroke	n	n/a
609.2575	0.09	1218515	keystroke	t	n/a
609.7225	0.0605	1219445	keystroke	Key.space	n/a
610.068	0.06	1220136	keystroke	d	n/a
610.158	0.075	1220316	keystroke	i	n/a
610.278	0.09	1220556	keystroke	s	n/a
610.698	0.105	1221396	keystroke	t	n/a
610.893	0.09	1221786	keystroke	a	n/a
612.003	0.075	1224006	keystroke	n	n/a
612.123	0.18	1224246	keystroke	c	n/a
612.258	0.105	1224516	keystroke	e	n/a
612.498	0.075	1224996	keystroke	s	n/a
613.188	0.135	1226376	keystroke	Key.enter	n/a
613.34	9.516	1226680	prompt	n/a	shed festival themselves occurrence\n
614.013	0.09	1228026	keystroke	s	n/a
614.133	0.075	1228266	keystroke	h	n/a
614.238	0.06	1228476	keystroke	e	n/a
614.418	0.06	1228836	keystroke	d	n/a
614.553	0.09	1229106	keystroke	Key.space	n/a
614.7625	0.0755	1229525	keystroke	f	n/a
614.943	0.105	1229886	keystroke	e	n/a
615.078	0.105	1230156	keystroke	s	n/a
615.213	0.075	1230426	keystroke	t	n/a
615.408	0.06	1230816	keystroke	i	n/a
615.543	0.09	1231086	keystroke	v	n/a
615.798	0.075	1231596	keystroke	a	n/a
615.948	0.06	1231896	keystroke	l	n/a
616.113	0.075	1232226	keystroke	Key.space	n/a
616.6525	0.075	1233305	keystroke	t	n/a
616.7575	0.075	1233515	keystroke	h	n/a
616.908	0.0595	1233816	keystroke	e	n/a
617.0575	0.045	1234115	keystroke	m	n/a
617.2825	0.075	1234565	keystroke	s	n/a
617.7775	0.075	1235555	keystroke	e	n/a
617.9725	0.06	1235945	keystroke	l	n/a
618.5725	0.06	1237145	keystroke	v	n/a
618.7525	0.06	1237505	keystroke	e	n/a
618.9175	0.09	1237835	keystroke	s	n/a
619.0675	0.075	1238135	keystroke	Key.space	n/a
619.3225	0.105	1238645	keystroke	c	n/a
619.8325	0.075	1239665	keystroke	Key.backspace	n/a
620.0425	0.06	1240085	keystroke	o	n/a
620.1925	0.06	1240385	keystroke	c	n/a
620.3575	0.075	1240715	keystroke	c	n/a
620.7175	0.075	1241435	keystroke	u	n/a
620.8525	0.045	1241705	keystroke	r	n/a
621.0025	0.06	1242005	keystroke	r	n/a
621.3025	0.075	1242605	keystroke	e	n/a
621.6475	0.06	1243295	keystroke	n	n/a
621.9625	0.075	1243925	keystroke	e	n/a
622.3525	0.06	1244705	keystroke	Key.backspace	n/a
622.4575	0.165	1244915	keystroke	c	n/a
622.5625	0.09	1245125	keystroke	e	n/a
622.7875	0.06	1245575	keystroke	Key.enter	n/a
622.8605	11.531	1245721	prompt	n/a	convinced border sellers quarters\n
623.6125	0.09	1247225	keystroke	c	n/a
623.7175	0.06	1247435	keystroke	o	n/a
623.8825	0.075	1247765	keystroke	n	n/a
624.0175	0.06	1248035	keystroke	v	n/a
624.1375	0.06	1248275	keystroke	i	n/a
624.8275	0.075	1249655	keystroke	n	n/a
625.0075	0.12	1250015	keystroke	c	n/a
625.1425	0.075	1250285	keystroke	e	n/a
625.3525	0.075	1250705	keystroke	d	n/a
625.4875	0.09	1250975	keystroke	Key.space	n/a
625.6825	0.075	1251365	keystroke	d	n/a
625.8175	0.06	1251635	keystroke	o	n/a
626.2675	0.075	1252535	keystroke	Key.backspace	n/a
626.4175	0.06	1252835	keystroke	Key.backspace	n/a
626.5075	0.075	1253015	keystroke	b	n/a
626.6725	0.06	1253345	keystroke	o	n/a
627.1675	0.075	1254335	keystroke	r	n/a
627.3925	0.06	1254785	keystroke	d	n/a
627.572	0.105	1255144	keystroke	e	n/a
627.647	0.075	1255294	keystroke	r	n/a
627.872	0.06	1255744	keystroke	Key.space	n/a
628.097	0.015	1256194	keystroke	s	n/a
628.217	0.06	1256434	keystroke	e	n/a
628.322	0.075	1256644	keystroke	l	n/a
628.472	0.075	1256944	keystroke	l	n/a
628.577	0.075	1257154	keystroke	e	n/a
628.832	0.135	1257664	keystroke	e	n/a
628.952	0.075	1257904	keystroke	r	n/a
629.7775	0.06	1259555	keystroke	Key.backspace	n/a
629.942	0.06	1259884	keystroke	Key.backspace	n/a
630.062	0.076	1260124	keystroke	r	n/a
630.287	0.075	1260574	keystroke	s	n/a
630.467	0.075	1260934	keystroke	Key.space	n/a
631.082	0.045	1262164	keystroke	q	n/a
631.187	0.06	1262374	keystroke	u	n/a
631.4275	0.12	1262855	keystroke	a	n/a
631.5325	0.06	1263065	keystroke	r	n/a
631.7425	0.06	1263485	keystroke	t	n/a
631.9225	0.135	1263845	keystroke	e	n/a
632.0275	0.075	1264055	keystroke	r	n/a
634.205	0.027	1268410	keystroke	s	n/a
634.322	0.061	1268644	keystroke	Key.enter	n/a
634.396	8.8295	1268792	prompt	n/a	newsletters riders offline display\n
635.0275	0.075	1270055	keystroke	n	n/a
635.1625	0.0895	1270325	keystroke	e	n/a
635.492	0.135	1270984	keystroke	w	n/a
636.348	0.0745	1272696	keystroke	l	n/a
636.692	0.075	1273384	keystroke	Key.backspace	n/a
636.797	0.075	1273594	keystroke	s	n/a
637.637	0.075	1275274	keystroke	l	n/a
637.832	0.045	1275664	keystroke	e	n/a
638.0125	0.06	1276025	keystroke	t	n/a
638.1925	0.03	1276385	keystroke	t	n/a
638.327	0.15	1276654	keystroke	e	n/a
638.432	0.09	1276864	keystroke	r	n/a
638.657	0.075	1277314	keystroke	s	n/a
638.792	0.075	1277584	keystroke	Key.space	n/a
639.152	0.075	1278304	keystroke	r	n/a
639.287	0.06	1278574	keystroke	i	n/a
639.377	0.06	1278754	keystroke	d	n/a
639.557	0.105	1279114	keystroke	e	n/a
639.632	0.075	1279264	keystroke	r	n/a
639.782	0.105	1279564	keystroke	s	n/a
639.917	0.075	1279834	keystroke	Key.space	n/a
640.112	0.0605	1280224	keystroke	o	n/a
640.2325	0.06	1280465	keystroke	f	n/a
640.3975	0.045	1280795	keystroke	f	n/a
640.5475	0.075	1281095	keystroke	l	n/a
640.727	0.06	1281454	keystroke	i	n/a
640.907	0.075	1281814	keystroke	n	n/a
640.997	0.0755	1281994	keystroke	e	n/a
641.1625	0.06	1282325	keystroke	Key.space	n/a
641.627	0.075	1283254	keystroke	d	n/a
641.747	0.075	1283494	keystroke	i	n/a
641.837	0.09	1283674	keystroke	s	n/a
642.002	0.061	1284004	keystroke	p	n/a
642.1825	0.0755	1284365	keystroke	l	n/a
642.2425	0.12	1284485	keystroke	a	n/a
642.3925	0.06	1284785	keystroke	y	n/a
643.052	0.165	1286104	keystroke	Key.enter	n/a
643.2305	11.7405	1286461	prompt	n/a	note cleanup caroline physician\n
644.5075	0.06	1289015	keystroke	n	n/a
644.6575	0.075	1289315	keystroke	o	n/a
644.7925	0.12	1289585	keystroke	t	n/a
644.8825	0.09	1289765	keystroke	e	n/a
645.1375	0.0745	1290275	keystroke	Key.space	n/a
645.6475	0.105	1291295	keystroke	c	n/a
645.7675	0.075	1291535	keystroke	l	n/a
645.8875	0.135	1291775	keystroke	e	n/a
646.0075	0.105	1292015	keystroke	a	n/a
646.0825	0.075	1292165	keystroke	n	n/a
646.2325	0.06	1292465	keystroke	Key.space	n/a
646.3975	0.06	1292795	keystroke	u	n/a
646.5475	0.075	1293095	keystroke	p	n/a
646.8025	0.0745	1293605	keystroke	Key.backspace	n/a
646.952	0.06	1293904	keystroke	Key.backspace	n/a
647.072	0.0605	1294144	keystroke	Key.backspace	n/a
647.282	0.045	1294564	keystroke	u	n/a
647.507	0.06	1295014	keystroke	p	n/a
647.702	0.075	1295404	keystroke	Key.space	n/a
648.438	0.045	1296876	keystroke	c	n/a
648.558	0.12	1297116	keystroke	a	n/a
648.648	0.0895	1297296	keystroke	r	n/a
648.857	0.076	1297714	keystroke	l	n/a
649.082	0.075	1298164	keystroke	o	n/a
650.582	0.061	1301164	keystroke	Key.backspace	n/a
651.3625	0.075	1302725	keystroke	Key.backspace	n/a
651.6325	0.075	1303265	keystroke	o	n/a
651.9475	0.075	1303895	keystroke	l	n/a
652.1125	0.06	1304225	keystroke	i	n/a
652.2775	0.0745	1304555	keystroke	n	n/a
652.367	0.075	1304734	keystroke	e	n/a
652.487	0.06	1304974	keystroke	Key.space	n/a
652.697	0.06	1305394	keystroke	p	n/a
652.877	0.0755	1305754	keystroke	h	n/a
652.9975	0.09	1305995	keystroke	y	n/a
653.7175	0.075	1307435	keystroke	s	n/a
654.0625	0.075	1308125	keystroke	i	n/a
654.1975	0.0905	1308395	keystroke	c	n/a
654.3475	0.075	1308695	keystroke	i	n/a
654.4525	0.105	1308905	keystroke	a	n/a
654.5725	0.075	1309145	keystroke	n	n/a
654.9025	0.06	1309805	keystroke	Key.enter	n/a
654.9805	9.515	1309961	prompt	n/a	museums indonesian laws shuttle\n
655.773	0.045	1311546	keystroke	m	n/a
655.968	0.075	1311936	keystroke	u	n/a
656.163	0.06	1312326	keystroke	s	n/a
656.358	0.075	1312716	keystroke	e	n/a
656.927	0.076	1313854	keystroke	u	n/a
657.153	0.09	1314306	keystroke	m	n/a
657.3475	0.075	1314695	keystroke	Key.space	n/a
657.873	0.059	1315746	keystroke	i	n/a
658.038	0.06	1316076	keystroke	n	n/a
658.142	0.076	1316284	keystroke	d	n/a
658.307	0.061	1316614	keystroke	o	n/a
658.8475	0.075	1317695	keystroke	n	n/a
659.0575	0.075	1318115	keystroke	e	n/a
659.2825	0.075	1318565	keystroke	s	n/a
659.4325	0.06	1318865	keystroke	i	n/a
659.552	0.09	1319104	keystroke	a	n/a
659.657	0.075	1319314	keystroke	n	n/a
659.8375	0.075	1319675	keystroke	Key.space	n/a
662.165	0.028	1324330	keystroke	l	n/a
662.2975	0.09	1324595	keystroke	a	n/a
662.4775	0.0895	1324955	keystroke	w	n/a
662.702	0.09	1325404	keystroke	s	n/a
662.898	0.074	1325796	keystroke	Key.space	n/a
663.302	0.06	1326604	keystroke	s	n/a
663.392	0.075	1326784	keystroke	h	n/a
663.587	0.06	1327174	keystroke	u	n/a
663.707	0.045	1327414	keystroke	t	n/a
663.858	0.06	1327716	keystroke	t	n/a
664.007	0.06	1328014	keystroke	l	n/a
