onset	duration	sample	value	key	prompt_text
9.6735	10.8075	19347	prompt	n/a	the quick brown fox jumps over a lazy dog\n
11.105	0.013	22210	keystroke	t	n/a
11.238	0.075	22476	keystroke	h	n/a
11.478	0.045	22956	keystroke	e	n/a
11.613	0.06	23226	keystroke	Key.space	n/a
11.763	0.075	23526	keystroke	q	n/a
11.853	0.06	23706	keystroke	u	n/a
12.138	0.09	24276	keystroke	i	n/a
12.318	0.03	24636	keystroke	c	n/a
13.008	0.136	26016	keystroke	k	n/a
13.129	0.105	26258	keystroke	Key.space	n/a
13.804	0.045	27608	keystroke	b	n/a
14.043	0.0455	28086	keystroke	o	n/a
15.108	0.09	30216	keystroke	Key.backspace	n/a
15.6035	0.06	31207	keystroke	r	n/a
15.7235	0.09	31447	keystroke	o	n/a
15.8285	0.105	31657	keystroke	w	n/a
15.9635	0.075	31927	keystroke	n	n/a
16.1135	0.075	32227	keystroke	Key.space	n/a
16.2035	0.1045	32407	keystroke	f	n/a
16.323	0.075	32646	keystroke	o	n/a
16.473	0.045	32946	keystroke	c	n/a
16.788	0.075	33576	keystroke	Key.backspace	n/a
16.848	0.075	33696	keystroke	x	n/a
16.998	0.075	33996	keystroke	Key.space	n/a
17.163	0.045	34326	keystroke	j	n/a
17.268	0.075	34536	keystroke	u	n/a
17.4035	0.1045	34807	keystroke	m	n/a
17.553	0.0755	35106	keystroke	p	n/a
17.6435	0.0755	35287	keystroke	s	n/a
17.749	0.075	35498	keystroke	Key.space	n/a
17.899	0.075	35798	keystroke	o	n/a
17.9885	0.06	35977	keystroke	v	n/a
18.138	0.121	36276	keystroke	e	n/a
18.199	0.105	36398	keystroke	r	n/a
18.304	0.0595	36608	keystroke	Key.space	n/a
18.3935	0.09	36787	keystroke	a	n/a
18.5135	0.06	37027	keystroke	Key.space	n/a
18.6335	0.09	37267	keystroke	l	n/a
18.7085	0.06	37417	keystroke	a	n/a
19.3835	0.075	38767	keystroke	z	n/a
19.6085	0.1205	39217	keystroke	y	n/a
19.684	0.12	39368	keystroke	Key.space	n/a
19.939	0.075	39878	keystroke	d	n/a
20.029	0.06	40058	keystroke	o	n/a
20.134	0.075	40268	keystroke	g	n/a
20.3885	0.09	40777	keystroke	Key.enter	n/a
20.4945	15.3085	40989	prompt	n/a	showers subscription invited tours\n
22.264	0.03	44528	keystroke	s	n/a
22.3535	0.0455	44707	keystroke	h	n/a
22.519	0.06	45038	keystroke	o	n/a
22.594	0.104	45188	keystroke	w	n/a
22.669	0.12	45338	keystroke	e	n/a
22.834	0.119	45668	keystroke	r	n/a
22.984	0.105	45968	keystroke	s	n/a
23.148	0.06	46296	keystroke	Key.space	n/a
23.298	0.091	46596	keystroke	s	n/a
23.493	0.061	46986	keystroke	u	n/a
23.688	0.076	47376	keystroke	b	n/a
23.793	0.091	47586	keystroke	s	n/a
24.093	0.09	48186	keystroke	c	n/a
24.304	0.06	48608	keystroke	r	n/a
24.438	0.075	48876	keystroke	i	n/a
24.619	0.059	49238	keystroke	o	n/a
24.709	0.075	49418	keystroke	t	n/a
24.844	0.044	49688	keystroke	i	n/a
24.978	0.076	49956	keystroke	o	n/a
25.173	0.12	50346	keystroke	n	n/a
25.248	0.105	50496	keystroke	Key.space	n/a
25.398	0.06	50796	keystroke	i	n/a
25.549	0.074	51098	keystroke	n	n/a
25.8335	0.06	51667	keystroke	v	n/a
25.9985	0.06	51997	keystroke	i	n/a
26.1635	0.075	52327	keystroke	t	n/a
26.4035	0.015	52807	keystroke	e	n/a
26.5085	0.075	53017	keystroke	d	n/a
26.6435	0.06	53287	keystroke	Key.space	n/a
26.8235	0.06	53647	keystroke	t	n/a
26.9435	0.06	53887	keystroke	o	n/a
27.7685	0.0455	55537	keystroke	Key.backspace	n/a
27.9635	0.045	55927	keystroke	Key.backspace	n/a
28.1135	0.045	56227	keystroke	Key.backspace	n/a
28.2635	0.045	56527	keystroke	Key.backspace	n/a
28.4285	0.06	56857	keystroke	Key.backspace	n/a
28.609	0.06	57218	keystroke	Key.backspace	n/a
28.789	0.06	57578	keystroke	Key.backspace	n/a
28.984	0.06	57968	keystroke	Key.backspace	n/a
29.164	0.06	58328	keystroke	Key.backspace	n/a
29.344	0.06	58688	keystroke	Key.backspace	n/a
29.523	0.046	59046	keystroke	Key.backspace	n/a
29.704	0.059	59408	keystroke	Key.backspace	n/a
29.899	0.045	59798	keystroke	Key.backspace	n/a
30.064	0.06	60128	keystroke	Key.backspace	n/a
30.243	0.061	60486	keystroke	Key.backspace	n/a
30.423	0.046	60846	keystroke	Key.backspace	n/a
30.618	0.06	61236	keystroke	Key.backspace	n/a
31.6235	0.06	63247	keystroke	i	n/a
31.8185	0.06	63637	keystroke	p	n/a
31.9235	0.075	63847	keystroke	t	n/a
32.0435	0.045	64087	keystroke	i	n/a
32.1485	0.09	64297	keystroke	o	n/a
32.3285	0.12	64657	keystroke	n	n/a
32.4185	0.12	64837	keystroke	Key.space	n/a
32.8835	0.06	65767	keystroke	i	n/a
33.0335	0.06	66067	keystroke	n	n/a
33.1835	0.075	66367	keystroke	v	n/a
33.3035	0.06	66607	keystroke	i	n/a
33.4085	0.075	66817	keystroke	t	n/a
33.5585	0.075	67117	keystroke	e	n/a
33.7085	0.105	67417	keystroke	d	n/a
33.8735	0.075	67747	keystroke	Key.space	n/a
33.9935	0.075	67987	keystroke	t	n/a
34.1135	0.045	68227	keystroke	o	n/a
34.2935	0.075	68587	keystroke	u	n/a
34.4885	0.06	68977	keystroke	r	n/a
34.6385	0.105	69277	keystroke	s	n/a
34.8635	0.06	69727	keystroke	Key.shift_r	n/a
35.7185	0.075	71437	keystroke	Key.enter	n/a
35.8085	8.7615	71617	prompt	n/a	mysql hollywood staffing sudan\n
36.844	0.06	73688	keystroke	m	n/a
37.0985	0.0595	74197	keystroke	y	n/a
37.3835	0.09	74767	keystroke	s	n/a
37.9085	0.06	75817	keystroke	q	n/a
38.0285	0.06	76057	keystroke	l	n/a
38.3435	0.06	76687	keystroke	Key.space	n/a
39.6335	0.0755	79267	keystroke	h	n/a
39.873	0.015	79746	keystroke	o	n/a
39.978	0.045	79956	keystroke	l	n/a
40.114	0.074	80228	keystroke	l	n/a
40.623	0.076	81246	keystroke	y	n/a
40.803	0.076	81606	keystroke	w	n/a
40.893	0.0605	81786	keystroke	o	n/a
41.0285	0.06	82057	keystroke	o	n/a
41.1335	0.09	82267	keystroke	d	n/a
41.2685	0.105	82537	keystroke	Key.space	n/a
41.8535	0.06	83707	keystroke	s	n/a
42.0935	0.06	84187	keystroke	t	n/a
42.1385	0.075	84277	keystroke	a	n/a
42.3335	0.045	84667	keystroke	f	n/a
42.4535	0.06	84907	keystroke	f	n/a
42.7685	0.045	85537	keystroke	i	n/a
42.9035	0.09	85807	keystroke	n	n/a
43.0085	0.09	86017	keystroke	g	n/a
43.143	0.0905	86286	keystroke	Key.space	n/a
43.5635	0.0455	87127	keystroke	s	n/a
43.684	0.06	87368	keystroke	u	n/a
43.9235	0.105	87847	keystroke	d	n/a
44.1185	0.075	88237	keystroke	a	n/a
44.2085	0.075	88417	keystroke	n	n/a
44.5085	0.06	89017	keystroke	Key.enter	n/a
44.5835	6.482	89167	prompt	n/a	error surfing beans bias\n
45.424	0.075	90848	keystroke	e	n/a
45.574	0.0595	91148	keystroke	r	n/a
45.7835	0.015	91567	keystroke	r	n/a
45.8135	0.075	91627	keystroke	o	n/a
45.9485	0.045	91897	keystroke	r	n/a
46.0685	0.06	92137	keystroke	Key.space	n/a
46.3535	0.105	92707	keystroke	s	n/a
46.8785	0.06	93757	keystroke	u	n/a
46.9985	0.06	93997	keystroke	r	n/a
47.2235	0.045	94447	keystroke	f	n/a
47.2835	0.045	94567	keystroke	i	n/a
47.4185	0.075	94837	keystroke	n	n/a
47.5235	0.075	95047	keystroke	g	n/a
47.6435	0.0895	95287	keystroke	Key.space	n/a
48.184	0.059	96368	keystroke	b	n/a
48.258	0.06	96516	keystroke	e	n/a
48.3785	0.105	96757	keystroke	a	n/a
48.4985	0.075	96997	keystroke	n	n/a
48.5885	0.075	97177	keystroke	s	n/a
48.8585	0.045	97717	keystroke	Key.space	n/a
49.0535	0.06	98107	keystroke	b	n/a
49.2185	0.06	98437	keystroke	i	n/a
49.3235	0.09	98647	keystroke	a	n/a
49.5035	0.06	99007	keystroke	n	n/a
50.5385	0.06	101077	keystroke	Key.backspace	n/a
50.6885	0.09	101377	keystroke	s	n/a
50.9885	0.075	101977	keystroke	Key.enter	n/a
51.0685	8.5545	102137	prompt	n/a	exclusive jury textile translate\n
51.964	0.045	103928	keystroke	e	n/a
52.204	0.075	104408	keystroke	x	n/a
52.384	0.059	104768	keystroke	c	n/a
52.504	0.075	105008	keystroke	l	n/a
52.714	0.075	105428	keystroke	u	n/a
52.804	0.075	105608	keystroke	s	n/a
52.999	0.075	105998	keystroke	i	n/a
53.1035	0.12	106207	keystroke	c	n/a
53.7035	0.06	107407	keystroke	v	n/a
54.1085	0.06	108217	keystroke	Key.backspace	n/a
54.2735	0.06	108547	keystroke	Key.backspace	n/a
54.3785	0.045	108757	keystroke	v	n/a
54.5285	0.075	109057	keystroke	e	n/a
54.7235	0.075	109447	keystroke	Key.space	n/a
55.3985	0.045	110797	keystroke	j	n/a
55.5185	0.075	111037	keystroke	u	n/a
55.6535	0.075	111307	keystroke	r	n/a
55.834	0.1045	111668	keystroke	y	n/a
55.9085	0.12	111817	keystroke	Key.space	n/a
56.1485	0.075	112297	keystroke	t	n/a
56.2535	0.075	112507	keystroke	e	n/a
56.6585	0.075	113317	keystroke	x	n/a
56.7785	0.075	113557	keystroke	t	n/a
56.9885	0.06	113977	keystroke	i	n/a
57.1835	0.06	114367	keystroke	l	n/a
57.2885	0.09	114577	keystroke	e	n/a
57.4385	0.06	114877	keystroke	Key.space	n/a
57.8885	0.045	115777	keystroke	t	n/a
58.0985	0.09	116197	keystroke	r	n/a
58.2935	0.075	116587	keystroke	a	n/a
58.3835	0.075	116767	keystroke	n	n/a
58.4735	0.09	116947	keystroke	s	n/a
58.6385	0.075	117277	keystroke	l	n/a
58.6985	0.075	117397	keystroke	a	n/a
59.0285	0.075	118057	keystroke	t	n/a
59.0885	0.045	118177	keystroke	e	n/a
59.5235	0.09	119047	keystroke	Key.enter	n/a
59.629	10.944	119258	prompt	n/a	underground auckland zope blair\n
60.8435	0.06	121687	keystroke	u	n/a
61.0235	0.09	122047	keystroke	n	n/a
61.0985	0.075	122197	keystroke	d	n/a
61.2635	0.09	122527	keystroke	e	n/a
61.3235	0.105	122647	keystroke	r	n/a
61.5335	0.075	123067	keystroke	g	n/a
61.6385	0.09	123277	keystroke	r	n/a
61.7735	0.075	123547	keystroke	o	n/a
61.8935	0.09	123787	keystroke	u	n/a
62.1035	0.045	124207	keystroke	n	n/a
62.8535	0.03	125707	keystroke	d	n/a
62.9885	0.105	125977	keystroke	Key.space	n/a
63.378	0.06	126756	keystroke	a	n/a
63.573	0.09	127146	keystroke	c	n/a
63.768	0.075	127536	keystroke	u	n/a
64.1735	0.045	128347	keystroke	k	n/a
65.5385	0.06	131077	keystroke	l	n/a
65.6285	0.075	131257	keystroke	a	n/a
65.7785	0.09	131557	keystroke	n	n/a
65.8985	0.09	131797	keystroke	d	n/a
66.0335	0.075	132067	keystroke	Key.space	n/a
67.1135	0.09	134227	keystroke	z	n/a
67.3085	0.06	134617	keystroke	o	n/a
67.4885	0.075	134977	keystroke	p	n/a
67.6385	0.09	135277	keystroke	e	n/a
67.8335	0.09	135667	keystroke	Key.space	n/a
68.5985	0.03	137197	keystroke	b	n/a
68.7485	0.06	137497	keystroke	l	n/a
68.8385	0.1045	137677	keystroke	a	n/a
68.974	0.06	137948	keystroke	i	n/a
69.364	0.06	138728	keystroke	r	n/a
70.488	0.076	140976	keystroke	Key.enter	n/a
70.5775	6.183	141155	prompt	n/a	curtis bullet were equation\n
71.448	0.045	142896	keystroke	c	n/a
71.553	0.075	143106	keystroke	u	n/a
71.644	0.074	143288	keystroke	r	n/a
71.823	0.061	143646	keystroke	t	n/a
71.898	0.075	143796	keystroke	i	n/a
72.048	0.076	144096	keystroke	s	n/a
72.198	0.06	144396	keystroke	Key.space	n/a
72.558	0.075	145116	keystroke	b	n/a
72.708	0.075	145416	keystroke	u	n/a
72.933	0.045	145866	keystroke	l	n/a
73.054	0.06	146108	keystroke	l	n/a
73.144	0.045	146288	keystroke	e	n/a
73.339	0.135	146678	keystroke	t	n/a
73.429	0.1345	146858	keystroke	Key.space	n/a
74.133	0.09	148266	keystroke	w	n/a
74.178	0.106	148356	keystroke	e	n/a
74.373	0.09	148746	keystroke	r	n/a
74.449	0.059	148898	keystroke	e	n/a
74.583	0.09	149166	keystroke	Key.space	n/a
75.0335	0.06	150067	keystroke	e	n/a
75.3185	0.075	150637	keystroke	q	n/a
75.4385	0.075	150877	keystroke	u	n/a
75.5585	0.09	151117	keystroke	a	n/a
75.7835	0.09	151567	keystroke	t	n/a
75.9185	0.075	151837	keystroke	i	n/a
76.0535	0.075	152107	keystroke	o	n/a
76.2185	0.075	152437	keystroke	n	n/a
76.6835	0.075	153367	keystroke	Key.enter	n/a
76.766	10.172	153532	prompt	n/a	galaxy urgent chick grocery\n
79.266	0	158532	keystroke	g	n/a
79.278	0.075	158556	keystroke	a	n/a
79.474	0.045	158948	keystroke	l	n/a
79.534	0.09	159068	keystroke	a	n/a
79.789	0.089	159578	keystroke	z	n/a
79.923	0.135	159846	keystroke	y	n/a
80.013	0.12	160026	keystroke	Key.space	n/a
80.703	0.06	161406	keystroke	Key.backspace	n/a
80.898	0.06	161796	keystroke	Key.backspace	n/a
81.108	0.06	162216	keystroke	Key.backspace	n/a
81.378	0.12	162756	keystroke	x	n/a
81.798	0.075	163596	keystroke	y	n/a
81.843	0.105	163686	keystroke	Key.space	n/a
82.713	0.0155	165426	keystroke	u	n/a
82.773	0.075	165546	keystroke	r	n/a
82.908	0.06	165816	keystroke	g	n/a
83.013	0.06	166026	keystroke	e	n/a
83.1335	0.075	166267	keystroke	n	n/a
83.2535	0.075	166507	keystroke	t	n/a
83.4035	0.075	166807	keystroke	Key.space	n/a
83.6135	0.09	167227	keystroke	c	n/a
83.6885	0.075	167377	keystroke	h	n/a
83.8535	0.075	167707	keystroke	i	n/a
84.0635	0.09	168127	keystroke	c	n/a
84.1985	0.09	168397	keystroke	k	n/a
84.4235	0.075	168847	keystroke	Key.space	n/a
84.9635	0.06	169927	keystroke	g	n/a
85.0385	0.09	170077	keystroke	r	n/a
85.1885	0.075	170377	keystroke	o	n/a
85.3835	0.06	170767	keystroke	c	n/a
85.6685	0.105	171337	keystroke	e	n/a
85.7745	0.089	171549	keystroke	r	n/a
86.0885	0.075	172177	keystroke	y	n/a
86.3135	0.105	172627	keystroke	Key.space	n/a
86.8685	0.06	173737	keystroke	Key.enter	n/a
86.9425	8.3125	173885	prompt	n/a	penguin oxide annually bent\n
87.8735	0.06	175747	keystroke	p	n/a
87.9485	0.0895	175897	keystroke	e	n/a
88.113	0.075	176226	keystroke	n	n/a
88.338	0.06	176676	keystroke	g	n/a
88.458	0.06	176916	keystroke	u	n/a
88.608	0.06	177216	keystroke	i	n/a
88.728	0.1655	177456	keystroke	n	n/a
88.848	0.105	177696	keystroke	Key.space	n/a
89.1185	0.06	178237	keystroke	o	n/a
89.7935	0.0605	179587	keystroke	x	n/a
89.944	0.074	179888	keystroke	i	n/a
90.139	0.135	180278	keystroke	d	n/a
90.214	0.105	180428	keystroke	e	n/a
90.379	0.074	180758	keystroke	Key.space	n/a
91.024	0.075	182048	keystroke	a	n/a
91.174	0.045	182348	keystroke	n	n/a
91.3085	0.06	182617	keystroke	n	n/a
91.4435	0.06	182887	keystroke	u	n/a
91.8335	0.06	183667	keystroke	a	n/a
91.9535	0.06	183907	keystroke	l	n/a
92.0885	0.075	184177	keystroke	l	n/a
92.4935	0.12	184987	keystroke	y	n/a
92.5685	0.12	185137	keystroke	Key.space	n/a
94.3985	0.075	188797	keystroke	b	n/a
94.4885	0.06	188977	keystroke	e	n/a
94.6085	0.09	189217	keystroke	n	n/a
94.8485	0.06	189697	keystroke	t	n/a
95.1935	0.06	190387	keystroke	Key.enter	n/a
95.2645	6.8605	190529	prompt	n/a	wool warehouse designing generic\n
96.0635	0.06	192127	keystroke	w	n/a
96.1985	0.045	192397	keystroke	o	n/a
96.3035	0.075	192607	keystroke	o	n/a
96.4685	0.105	192937	keystroke	l	n/a
96.5585	0.075	193117	keystroke	Key.space	n/a
96.6785	0.09	193357	keystroke	w	n/a
96.7385	0.105	193477	keystroke	a	n/a
96.9335	0.0745	193867	keystroke	r	n/a
97.039	0.09	194078	keystroke	e	n/a
97.219	0.059	194438	keystroke	h	n/a
97.399	0.044	194798	keystroke	o	n/a
97.5185	0.075	195037	keystroke	u	n/a
97.8185	0.165	195637	keystroke	s	n/a
97.9685	0.075	195937	keystroke	e	n/a
98.0735	0.0905	196147	keystroke	Key.space	n/a
98.689	0.135	197378	keystroke	d	n/a
98.809	0.135	197618	keystroke	e	n/a
98.929	0.089	197858	keystroke	s	n/a
99.094	0.074	198188	keystroke	i	n/a
99.228	0.09	198456	keystroke	g	n/a
99.319	0.074	198638	keystroke	n	n/a
99.4685	0.045	198937	keystroke	i	n/a
99.5585	0.12	199117	keystroke	n	n/a
99.6935	0.075	199387	keystroke	g	n/a
99.7985	0.075	199597	keystroke	Key.space	n/a
100.4135	0.06	200827	keystroke	g	n/a
100.5035	0.06	201007	keystroke	e	n/a
100.6085	0.075	201217	keystroke	n	n/a
100.7135	0.105	201427	keystroke	e	n/a
100.7735	0.135	201547	keystroke	r	n/a
101.343	0.075	202686	keystroke	i	n/a
101.538	0.075	203076	keystroke	c	n/a
102.048	0.075	204096	keystroke	Key.enter	n/a
102.129	12.304	204258	prompt	n/a	indicating individually dryer probe\n
102.933	0.061	205866	keystroke	i	n/a
103.068	0.075	206136	keystroke	n	n/a
103.203	0.075	206406	keystroke	d	n/a
103.308	0.06	206616	keystroke	i	n/a
103.383	0.09	206766	keystroke	c	n/a
103.5635	0.06	207127	keystroke	a	n/a
103.728	0.075	207456	keystroke	t	n/a
103.818	0.045	207636	keystroke	i	n/a
104.073	0.075	208146	keystroke	n	n/a
104.2385	0.075	208477	keystroke	g	n/a
104.3585	0.09	208717	keystroke	Key.space	n/a
104.5835	0.06	209167	keystroke	i	n/a
104.9735	0.0605	209947	keystroke	n	n/a
105.184	0.075	210368	keystroke	d	n/a
105.319	0.06	210638	keystroke	i	n/a
105.439	0.075	210878	keystroke	v	n/a
105.558	0.061	211116	keystroke	i	n/a
105.723	0.076	211446	keystroke	d	n/a
105.904	0.059	211808	keystroke	y	n/a
106.024	0.06	212048	keystroke	a	n/a
106.2785	0.075	212557	keystroke	Key.backspace	n/a
106.5185	0.06	213037	keystroke	u	n/a
106.6235	0.075	213247	keystroke	a	n/a
106.7585	0.06	213517	keystroke	l	n/a
106.9235	0.045	213847	keystroke	l	n/a
107.253	0.06	214506	keystroke	Key.backspace	n/a
107.463	0.03	214926	keystroke	Key.backspace	n/a
107.673	0.06	215346	keystroke	Key.backspace	n/a
107.883	0.075	215766	keystroke	Key.backspace	n/a
108.2135	0.045	216427	keystroke	Key.backspace	n/a
108.8735	0.045	217747	keystroke	u	n/a
108.9935	0.075	217987	keystroke	a	n/a
109.1435	0.075	218287	keystroke	l	n/a
109.2635	0.075	218527	keystroke	l	n/a
109.5335	0.105	219067	keystroke	y	n/a
109.5935	0.12	219187	keystroke	Key.space	n/a
110.6285	0.06	221257	keystroke	d	n/a
110.7635	0.075	221527	keystroke	r	n/a
110.8985	0.06	221797	keystroke	y	n/a
111.0035	0.12	222007	keystroke	e	n/a
111.0785	0.12	222157	keystroke	r	n/a
111.2435	0.09	222487	keystroke	Key.space	n/a
111.4685	0.06	222937	keystroke	o	n/a
111.5735	0.06	223147	keystroke	r	n/a
112.563	0.075	225126	keystroke	Key.backspace	n/a
112.773	0.075	225546	keystroke	Key.backspace	n/a
113.178	0.06	226356	keystroke	p	n/a
113.283	0.075	226566	keystroke	r	n/a
113.463	0.075	226926	keystroke	o	n/a
114.018	0.075	228036	keystroke	b	n/a
114.108	0.09	228216	keystroke	e	n/a
114.333	0.09	228666	keystroke	Key.enter	n/a
114.438	4.8165	228876	prompt	n/a	thru metro yale paintings\n
115.219	0.044	230438	keystroke	t	n/a
115.323	0.06	230646	keystroke	h	n/a
115.398	0.06	230796	keystroke	r	n/a
115.503	0.135	231006	keystroke	u	n/a
115.578	0.15	231156	keystroke	Key.space	n/a
115.8785	0.075	231757	keystroke	m	n/a
115.9685	0.06	231937	keystroke	e	n/a
116.1485	0.045	232297	keystroke	t	n/a
116.2985	0.06	232597	keystroke	r	n/a
116.4185	0.165	232837	keystroke	o	n/a
116.5235	0.105	233047	keystroke	Key.space	n/a
117.0485	0.06	234097	keystroke	y	n/a
117.1385	0.075	234277	keystroke	a	n/a
117.2735	0.075	234547	keystroke	l	n/a
117.3635	0.09	234727	keystroke	e	n/a
117.5135	0.105	235027	keystroke	Key.space	n/a
117.8585	0.075	235717	keystroke	p	n/a
118.1135	0.075	236227	keystroke	a	n/a
118.2635	0.06	236527	keystroke	i	n/a
118.3985	0.075	236797	keystroke	n	n/a
118.4885	0.06	236977	keystroke	t	n/a
118.5935	0.06	237187	keystroke	i	n/a
118.7435	0.06	237487	keystroke	n	n/a
118.7735	0.09	237547	keystroke	g	n/a
118.9685	0.075	237937	keystroke	s	n/a
119.1935	0.06	238387	keystroke	Key.enter	n/a
119.2575	9.875	238515	prompt	n/a	unknown report illustration transfers\n
120.2735	0.06	240547	keystroke	u	n/a
120.4235	0.06	240847	keystroke	n	n/a
120.5735	0.06	241147	keystroke	k	n/a
120.6785	0.06	241357	keystroke	n	n/a
120.8285	0.06	241657	keystroke	o	n/a
120.9335	0.06	241867	keystroke	w	n/a
121.0535	0.12	242107	keystroke	n	n/a
121.1885	0.09	242377	keystroke	Key.space	n/a
121.8185	0.15	243637	keystroke	r	n/a
121.9535	0.03	243907	keystroke	e	n/a
122.0135	0.09	244027	keystroke	p	n/a
122.1335	0.105	244267	keystroke	o	n/a
122.2835	0.0605	244567	keystroke	r	n/a
122.4485	0.075	244897	keystroke	t	n/a
122.5835	0.06	245167	keystroke	Key.space	n/a
122.7185	0.06	245437	keystroke	i	n/a
122.9285	0.045	245857	keystroke	l	n/a
123.0635	0.06	246127	keystroke	l	n/a
123.289	0.06	246578	keystroke	u	n/a
123.753	0.06	247506	keystroke	s	n/a
124.1585	0.06	248317	keystroke	t	n/a
124.3385	0.045	248677	keystroke	r	n/a
124.5035	0.075	249007	keystroke	a	n/a
124.6385	0.06	249277	keystroke	i	n/a
125.1035	0.075	250207	keystroke	Key.backspace	n/a
126.0185	0.06	252037	keystroke	t	n/a
126.1535	0.045	252307	keystroke	i	n/a
126.3035	0.06	252607	keystroke	o	n/a
126.4685	0.12	252937	keystroke	n	n/a
126.5585	0.09	253117	keystroke	Key.space	n/a
127.008	0.061	254016	keystroke	t	n/a
127.189	0.045	254378	keystroke	r	n/a
127.369	0.0745	254738	keystroke	a	n/a
127.5035	0.09	255007	keystroke	n	n/a
127.6535	0.075	255307	keystroke	s	n/a
127.8485	0.075	255697	keystroke	f	n/a
128.044	0.0745	256088	keystroke	e	n/a
128.1485	0.045	256297	keystroke	r	n/a
128.5385	0.061	257077	keystroke	s	n/a
129.048	0.075	258096	keystroke	Key.enter	n/a
129.137	13.7055	258274	prompt	n/a	praise reproduce separated reproduced\n
130.698	0.06	261396	keystroke	p	n/a
130.773	0.045	261546	keystroke	e	n/a
130.923	0.0605	261846	keystroke	i	n/a
131.1035	0.09	262207	keystroke	a	n/a
131.3735	0.06	262747	keystroke	Key.backspace	n/a
131.5985	0.045	263197	keystroke	Key.backspace	n/a
131.8235	0.045	263647	keystroke	Key.backspace	n/a
132.0485	0.0755	264097	keystroke	r	n/a
132.2135	0.075	264427	keystroke	a	n/a
132.4685	0.06	264937	keystroke	i	n/a
132.6335	0.06	265267	keystroke	s	n/a
132.8135	0.045	265627	keystroke	e	n/a
132.9185	0.0895	265837	keystroke	Key.space	n/a
134.988	0.09	269976	keystroke	r	n/a
135.034	0.105	270068	keystroke	e	n/a
135.289	0.06	270578	keystroke	p	n/a
135.409	0.074	270818	keystroke	r	n/a
135.619	0.044	271238	keystroke	i	n/a
136.023	0.075	272046	keystroke	Key.backspace	n/a
136.219	0.0745	272438	keystroke	o	n/a
136.3085	0.09	272617	keystroke	d	n/a
136.9985	0.0595	273997	keystroke	u	n/a
137.118	0.12	274236	keystroke	c	n/a
137.208	0.105	274416	keystroke	e	n/a
137.358	0.105	274716	keystroke	Key.space	n/a
137.913	0.09	275826	keystroke	s	n/a
138.093	0.061	276186	keystroke	e	n/a
138.333	0.06	276666	keystroke	p	n/a
138.438	0.06	276876	keystroke	a	n/a
138.558	0.135	277116	keystroke	r	n/a
138.708	0.075	277416	keystroke	a	n/a
138.903	0.045	277806	keystroke	t	n/a
139.293	0.09	278586	keystroke	e	n/a
139.533	0.09	279066	keystroke	d	n/a
139.668	0.09	279336	keystroke	Key.space	n/a
140.028	0.105	280056	keystroke	r	n/a
140.148	0.105	280296	keystroke	e	n/a
140.523	0.016	281046	keystroke	p	n/a
141.318	0.075	282636	keystroke	r	n/a
141.468	0.06	282936	keystroke	o	n/a
141.933	0.09	283866	keystroke	d	n/a
142.143	0.06	284286	keystroke	u	n/a
142.248	0.045	284496	keystroke	c	n/a
142.353	0.075	284706	keystroke	e	n/a
142.548	0.09	285096	keystroke	d	n/a
142.788	0.045	285576	keystroke	Key.enter	n/a
142.847	7.3825	285694	prompt	n/a	settle condition lafayette hello\n
143.568	0.075	287136	keystroke	s	n/a
143.733	0.075	287466	keystroke	e	n/a
143.973	0.06	287946	keystroke	t	n/a
144.108	0.06	288216	keystroke	t	n/a
144.258	0.06	288516	keystroke	l	n/a
144.333	0.09	288666	keystroke	e	n/a
144.468	0.075	288936	keystroke	Key.space	n/a
144.693	0.075	289386	keystroke	c	n/a
144.753	0.06	289506	keystroke	o	n/a
144.888	0.09	289776	keystroke	n	n/a
145.023	0.106	290046	keystroke	d	n/a
145.218	0.076	290436	keystroke	i	n/a
145.353	0.09	290706	keystroke	t	n/a
145.428	0.076	290856	keystroke	i	n/a
145.579	0.044	291158	keystroke	o	n/a
145.743	0.135	291486	keystroke	n	n/a
145.863	0.075	291726	keystroke	Key.space	n/a
146.523	0.03	293046	keystroke	l	n/a
146.583	0.09	293166	keystroke	a	n/a
147.094	0.0745	294188	keystroke	f	n/a
147.243	0.075	294486	keystroke	a	n/a
147.528	0.06	295056	keystroke	y	n/a
148.038	0.03	296076	keystroke	e	n/a
148.188	0.0755	296376	keystroke	t	n/a
148.3385	0.075	296677	keystroke	t	n/a
148.4585	0.075	296917	keystroke	e	n/a
148.6385	0.09	297277	keystroke	Key.space	n/a
149.1635	0.06	298327	keystroke	h	n/a
149.2835	0.075	298567	keystroke	e	n/a
149.4785	0.075	298957	keystroke	l	n/a
149.6285	0.075	299257	keystroke	l	n/a
149.7785	0.09	299557	keystroke	o	n/a
150.1535	0.075	300307	keystroke	Key.enter	n/a
150.2335	10.504	300467	prompt	n/a	transmitted implemented holy honolulu\n
151.1585	0.03	302317	keystroke	t	n/a
151.2935	0.045	302587	keystroke	r	n/a
151.4585	0.06	302917	keystroke	a	n/a
151.6085	0.045	303217	keystroke	n	n/a
151.6985	0.075	303397	keystroke	s	n/a
152.2535	0.06	304507	keystroke	m	n/a
152.4035	0.075	304807	keystroke	i	n/a
152.5535	0.045	305107	keystroke	t	n/a
152.6885	0.06	305377	keystroke	t	n/a
152.7935	0.075	305587	keystroke	e	n/a
153.0185	0.075	306037	keystroke	d	n/a
153.2135	0.045	306427	keystroke	Key.space	n/a
153.5135	0.045	307027	keystroke	i	n/a
153.6185	0.09	307237	keystroke	m	n/a
153.7835	0.045	307567	keystroke	p	n/a
153.9335	0.075	307867	keystroke	l	n/a
154.0535	0.06	308107	keystroke	e	n/a
154.2335	0.075	308467	keystroke	m	n/a
154.4585	0.075	308917	keystroke	e	n/a
154.5785	0.06	309157	keystroke	n	n/a
154.6835	0.075	309367	keystroke	t	n/a
154.9235	0.075	309847	keystroke	e	n/a
155.1335	0.09	310267	keystroke	d	n/a
155.2685	0.09	310537	keystroke	Key.space	n/a
155.8085	0.075	311617	keystroke	h	n/a
155.9735	0.06	311947	keystroke	o	n/a
156.1535	0.015	312307	keystroke	l	n/a
156.5885	0.15	313177	keystroke	y	n/a
156.7085	0.12	313417	keystroke	Key.space	n/a
157.6235	0.06	315247	keystroke	h	n/a
157.7585	0.075	315517	keystroke	o	n/a
157.9085	0.06	315817	keystroke	n	n/a
158.0435	0.075	316087	keystroke	o	n/a
158.4935	0.045	316987	keystroke	l	n/a
158.7485	0.06	317497	keystroke	u	n/a
159.0035	0.045	318007	keystroke	s	n/a
159.5885	0.045	319177	keystroke	Key.backspace	n/a
160.0985	0.075	320197	keystroke	l	n/a
160.3235	0.0605	320647	keystroke	u	n/a
160.668	0.06	321336	keystroke	Key.enter	n/a
160.742	9.581	321484	prompt	n/a	legally vegas healing peterson\n
161.6135	0.075	323227	keystroke	l	n/a
161.7035	0.06	323407	keystroke	e	n/a
161.9735	0.06	323947	keystroke	g	n/a
162.0635	0.09	324127	keystroke	a	n/a
162.2285	0.045	324457	keystroke	l	n/a
162.348	0.0905	324696	keystroke	l	n/a
162.6185	0.15	325237	keystroke	y	n/a
162.6935	0.135	325387	keystroke	Key.space	n/a
163.368	0.075	326736	keystroke	b	n/a
163.459	0.044	326918	keystroke	e	n/a
163.848	0.06	327696	keystroke	Key.backspace	n/a
164.043	0.06	328086	keystroke	Key.backspace	n/a
164.178	0.075	328356	keystroke	v	n/a
164.388	0.075	328776	keystroke	e	n/a
164.868	0.016	329736	keystroke	g	n/a
164.898	0.045	329796	keystroke	a	n/a
165.0785	0.075	330157	keystroke	s	n/a
165.1835	0.09	330367	keystroke	Key.space	n/a
165.7535	0.06	331507	keystroke	h	n/a
165.8285	0.09	331657	keystroke	e	n/a
165.9785	0.09	331957	keystroke	a	n/a
166.0535	0.075	332107	keystroke	l	n/a
166.2185	0.06	332437	keystroke	i	n/a
166.368	0.075	332736	keystroke	n	n/a
166.473	0.09	332946	keystroke	g	n/a
166.608	0.075	333216	keystroke	Key.space	n/a
166.833	0.075	333666	keystroke	p	n/a
167.643	0.076	335286	keystroke	e	n/a
167.839	0.059	335678	keystroke	t	n/a
167.928	0.1505	335856	keystroke	e	n/a
168.0335	0.12	336067	keystroke	r	n/a
168.3485	0.0895	336697	keystroke	d	n/a
168.528	0.06	337056	keystroke	o	n/a
168.708	0.075	337416	keystroke	n	n/a
169.0835	0.03	338167	keystroke	Key.backspace	n/a
169.2485	0.06	338497	keystroke	Key.backspace	n/a
169.4585	0.06	338917	keystroke	Key.backspace	n/a
169.5785	0.09	339157	keystroke	s	n/a
169.7585	0.075	339517	keystroke	o	n/a
169.9385	0.09	339877	keystroke	n	n/a
170.2535	0.06	340507	keystroke	Key.enter	n/a
170.327	9.8955	340654	prompt	n/a	patterns reproduced merely specialties\n
171.1985	0.06	342397	keystroke	p	n/a
171.3185	0.06	342637	keystroke	a	n/a
171.5735	0.045	343147	keystroke	t	n/a
171.7085	0.0605	343417	keystroke	t	n/a
171.8135	0.105	343627	keystroke	e	n/a
171.904	0.0895	343808	keystroke	r	n/a
172.0235	0.075	344047	keystroke	n	n/a
172.1285	0.105	344257	keystroke	s	n/a
172.2785	0.0755	344557	keystroke	Key.space	n/a
173.1485	0.105	346297	keystroke	r	n/a
173.2235	0.09	346447	keystroke	e	n/a
173.4635	0.075	346927	keystroke	p	n/a
173.6135	0.075	347227	keystroke	r	n/a
173.7185	0.075	347437	keystroke	o	n/a
173.9285	0.075	347857	keystroke	d	n/a
174.1385	0.06	348277	keystroke	u	n/a
174.2285	0.135	348457	keystroke	c	n/a
174.3485	0.075	348697	keystroke	e	n/a
174.5885	0.075	349177	keystroke	d	n/a
174.6935	0.105	349387	keystroke	Key.space	n/a
175.2035	0.105	350407	keystroke	m	n/a
175.2935	0.09	350587	keystroke	e	n/a
175.4885	0.12	350977	keystroke	r	n/a
175.5635	0.12	351127	keystroke	e	n/a
175.7735	0.075	351547	keystroke	l	n/a
175.9835	0.09	351967	keystroke	y	n/a
176.0885	0.135	352177	keystroke	Key.space	n/a
176.3285	0.075	352657	keystroke	s	n/a
176.4185	0.09	352837	keystroke	p	n/a
176.5235	0.075	353047	keystroke	e	n/a
176.9585	0.075	353917	keystroke	c	n/a
177.1235	0.075	354247	keystroke	i	n/a
177.2435	0.075	354487	keystroke	a	n/a
177.3635	0.06	354727	keystroke	l	n/a
177.5585	0.06	355117	keystroke	i	n/a
178.0685	0.075	356137	keystroke	Key.backspace	n/a
178.6835	0.075	357367	keystroke	t	n/a
179.2385	0.075	358477	keystroke	i	n/a
179.6285	0.06	359257	keystroke	e	n/a
179.8535	0.0895	359707	keystroke	s	n/a
180.123	0.09	360246	keystroke	Key.enter	n/a
180.2285	5.731	360457	prompt	n/a	moon spanish auckland bright\n
181.413	0.06	362826	keystroke	m	n/a
181.578	0.06	363156	keystroke	o	n/a
181.713	0.045	363426	keystroke	o	n/a
181.863	0.105	363726	keystroke	n	n/a
181.938	0.105	363876	keystroke	Key.space	n/a
182.103	0.09	364206	keystroke	s	n/a
182.178	0.06	364356	keystroke	p	n/a
182.328	0.075	364656	keystroke	a	n/a
182.418	0.075	364836	keystroke	n	n/a
182.5985	0.0445	365197	keystroke	i	n/a
182.644	0.119	365288	keystroke	s	n/a
182.793	0.12	365586	keystroke	h	n/a
182.883	0.105	365766	keystroke	Key.space	n/a
183.438	0.075	366876	keystroke	a	n/a
183.618	0.06	367236	keystroke	u	n/a
183.843	0.075	367686	keystroke	c	n/a
183.978	0.06	367956	keystroke	k	n/a
184.158	0.06	368316	keystroke	l	n/a
184.233	0.09	368466	keystroke	a	n/a
184.353	0.0745	368706	keystroke	n	n/a
184.4435	0.089	368887	keystroke	d	n/a
184.5625	0.075	369125	keystroke	Key.space	n/a
185.1335	0.059	370267	keystroke	b	n/a
185.2525	0.06	370505	keystroke	r	n/a
185.3275	0.06	370655	keystroke	i	n/a
185.4625	0.075	370925	keystroke	g	n/a
185.5235	0.074	371047	keystroke	h	n/a
185.6425	0.105	371285	keystroke	t	n/a
185.8975	0.06	371795	keystroke	Key.enter	n/a
185.965	9.692	371930	prompt	n/a	representing opposite liabilities ranging\n
187.1135	0.09	374227	keystroke	r	n/a
187.1585	0.105	374317	keystroke	e	n/a
187.3835	0.045	374767	keystroke	p	n/a
187.4735	0.09	374947	keystroke	r	n/a
187.5185	0.12	375037	keystroke	e	n/a
187.8035	0.06	375607	keystroke	s	n/a
187.9385	0.0595	375877	keystroke	e	n/a
188.028	0.09	376056	keystroke	n	n/a
188.163	0.06	376326	keystroke	t	n/a
188.238	0.045	376476	keystroke	i	n/a
188.3885	0.075	376777	keystroke	n	n/a
188.4785	0.045	376957	keystroke	g	n/a
188.6435	0.09	377287	keystroke	Key.space	n/a
189.018	0.075	378036	keystroke	o	n/a
189.213	0.03	378426	keystroke	p	n/a
189.348	0.045	378696	keystroke	p	n/a
189.483	0.06	378966	keystroke	o	n/a
189.723	0.06	379446	keystroke	s	n/a
190.128	0.075	380256	keystroke	i	n/a
190.233	0.075	380466	keystroke	t	n/a
190.458	0.015	380916	keystroke	Key.space	n/a
190.818	0.06	381636	keystroke	Key.backspace	n/a
190.938	0.0905	381876	keystroke	e	n/a
191.0875	0.09	382175	keystroke	Key.space	n/a
192.1685	0.059	384337	keystroke	l	n/a
192.3485	0.0595	384697	keystroke	i	n/a
192.453	0.06	384906	keystroke	a	n/a
192.633	0.06	385266	keystroke	b	n/a
192.783	0.06	385566	keystroke	i	n/a
192.978	0.0455	385956	keystroke	l	n/a
193.113	0.075	386226	keystroke	i	n/a
193.6075	0.075	387215	keystroke	t	n/a
193.7275	0.076	387455	keystroke	i	n/a
193.8175	0.09	387635	keystroke	e	n/a
194.0125	0.0905	388025	keystroke	s	n/a
194.163	0.075	388326	keystroke	Key.space	n/a
194.6875	0.09	389375	keystroke	r	n/a
194.8225	0.06	389645	keystroke	a	n/a
194.8975	0.075	389795	keystroke	n	n/a
195.0335	0.09	390067	keystroke	g	n/a
195.1085	0.06	390217	keystroke	i	n/a
195.2585	0.06	390517	keystroke	n	n/a
195.3195	0.089	390639	keystroke	g	n/a
195.5735	0.075	391147	keystroke	Key.enter	n/a
195.6615	9.326	391323	prompt	n/a	arbitrary matches passport displays\n
196.473	0.075	392946	keystroke	a	n/a
196.728	0.06	393456	keystroke	r	n/a
197.0735	0.06	394147	keystroke	b	n/a
197.2685	0.06	394537	keystroke	i	n/a
197.5235	0.06	395047	keystroke	t	n/a
197.8235	0.075	395647	keystroke	r	n/a
198.0185	0.075	396037	keystroke	a	n/a
198.4235	0.06	396847	keystroke	r	n/a
198.5435	0.165	397087	keystroke	y	n/a
198.6785	0.135	397357	keystroke	Key.space	n/a
199.2475	0.091	398495	keystroke	m	n/a
199.3225	0.075	398645	keystroke	a	n/a
199.5325	0.06	399065	keystroke	t	n/a
199.8325	0.06	399665	keystroke	h	n/a
199.9525	0.0905	399905	keystroke	e	n/a
200.613	0.075	401226	keystroke	Key.backspace	n/a
200.838	0.06	401676	keystroke	Key.backspace	n/a
201.003	0.075	402006	keystroke	c	n/a
201.169	0.059	402338	keystroke	h	n/a
201.258	0.061	402516	keystroke	e	n/a
201.409	0.089	402818	keystroke	s	n/a
201.573	0.075	403146	keystroke	Key.space	n/a
201.888	0.06	403776	keystroke	p	n/a
202.158	0.06	404316	keystroke	a	n/a
202.338	0.06	404676	keystroke	s	n/a
202.473	0.09	404946	keystroke	s	n/a
202.593	0.135	405186	keystroke	p	n/a
202.668	0.12	405336	keystroke	o	n/a
202.848	0.075	405696	keystroke	r	n/a
203.028	0.06	406056	keystroke	t	n/a
203.178	0.06	406356	keystroke	Key.space	n/a
203.748	0.06	407496	keystroke	d	n/a
203.883	0.045	407766	keystroke	i	n/a
203.943	0.075	407886	keystroke	s	n/a
204.123	0.045	408246	keystroke	p	n/a
204.243	0.09	408486	keystroke	l	n/a
204.3635	0.0595	408727	keystroke	a	n/a
204.573	0.045	409146	keystroke	y	n/a
204.648	0.075	409296	keystroke	s	n/a
204.918	0.06	409836	keystroke	Key.enter	n/a
205.006	14.0215	410012	prompt	n/a	nightlife documented monaco knives\n
205.803	0.06	411606	keystroke	n	n/a
205.923	0.075	411846	keystroke	i	n/a
206.028	0.06	412056	keystroke	g	n/a
206.089	0.089	412178	keystroke	h	n/a
206.208	0.075	412416	keystroke	t	n/a
206.343	0.0755	412686	keystroke	l	n/a
206.4935	0.0595	412987	keystroke	i	n/a
206.583	0.06	413166	keystroke	f	n/a
206.748	0.06	413496	keystroke	e	n/a
206.853	0.105	413706	keystroke	Key.space	n/a
207.423	0.075	414846	keystroke	d	n/a
207.513	0.06	415026	keystroke	o	n/a
207.618	0.12	415236	keystroke	c	n/a
207.753	0.075	415506	keystroke	u	n/a
208.053	0.075	416106	keystroke	e	n/a
208.5925	0.09	417185	keystroke	Key.backspace	n/a
210.1675	0.061	420335	keystroke	m	n/a
210.2725	0.1055	420545	keystroke	e	n/a
210.408	0.075	420816	keystroke	n	n/a
210.558	0.075	421116	keystroke	t	n/a
210.648	0.09	421296	keystroke	e	n/a
210.858	0.135	421716	keystroke	d	n/a
211.008	0.075	422016	keystroke	Key.space	n/a
211.6535	0.09	423307	keystroke	m	n/a
211.8185	0.06	423637	keystroke	o	n/a
211.968	0.06	423936	keystroke	n	n/a
212.4185	0.105	424837	keystroke	c	n/a
212.598	0.1505	425196	keystroke	o	n/a
212.7035	0.09	425407	keystroke	Key.space	n/a
213.4235	0.06	426847	keystroke	Key.backspace	n/a
213.6335	0.045	427267	keystroke	Key.backspace	n/a
213.8285	0.06	427657	keystroke	Key.backspace	n/a
214.0085	0.06	428017	keystroke	Key.backspace	n/a
214.2035	0.075	428407	keystroke	a	n/a
214.4135	0.105	428827	keystroke	c	n/a
214.8185	0.075	429637	keystroke	Key.backspace	n/a
215.0435	0.06	430087	keystroke	Key.backspace	n/a
215.8685	0.06	431737	keystroke	n	n/a
215.9435	0.09	431887	keystroke	a	n/a
216.1385	0.105	432277	keystroke	c	n/a
216.2585	0.12	432517	keystroke	o	n/a
216.4085	0.09	432817	keystroke	Key.space	n/a
217.173	0.09	434346	keystroke	k	n/a
217.233	0.09	434466	keystroke	n	n/a
217.398	0.06	434796	keystroke	o	n/a
217.713	0.045	435426	keystroke	Key.backspace	n/a
217.893	0.075	435786	keystroke	i	n/a
218.028	0.045	436056	keystroke	v	n/a
218.193	0.06	436386	keystroke	e	n/a
218.358	0.09	436716	keystroke	s	n/a
218.928	0.0905	437856	keystroke	Key.enter	n/a
219.0325	11.875	438065	prompt	n/a	doctors converter desert length\n
221.12	0.013	442240	keystroke	d	n/a
221.163	0.06	442326	keystroke	o	n/a
221.238	0.075	442476	keystroke	c	n/a
221.433	0.075	442866	keystroke	t	n/a
221.538	0.075	443076	keystroke	o	n/a
221.628	0.075	443256	keystroke	r	n/a
221.883	0.075	443766	keystroke	s	n/a
221.989	0.089	443978	keystroke	Key.space	n/a
222.468	0.06	444936	keystroke	c	n/a
222.513	0.061	445026	keystroke	o	n/a
222.663	0.091	445326	keystroke	n	n/a
222.783	0.06	445566	keystroke	c	n/a
223.068	0.06	446136	keystroke	Key.backspace	n/a
223.158	0.075	446316	keystroke	v	n/a
223.398	0.1055	446796	keystroke	e	n/a
223.473	0.15	446946	keystroke	r	n/a
223.803	0.075	447606	keystroke	t	n/a
223.908	0.135	447816	keystroke	e	n/a
223.998	0.105	447996	keystroke	r	n/a
224.268	0.09	448536	keystroke	Key.space	n/a
225.0335	0.045	450067	keystroke	d	n/a
225.2585	0.06	450517	keystroke	e	n/a
225.4235	0.075	450847	keystroke	r	n/a
225.6035	0.075	451207	keystroke	e	n/a
225.9335	0.045	451867	keystroke	t	n/a
226.4435	0.075	452887	keystroke	Key.backspace	n/a
226.6385	0.045	453277	keystroke	r	n/a
227.298	0.06	454596	keystroke	Key.backspace	n/a
227.583	0.09	455166	keystroke	Key.backspace	n/a
227.823	0.09	455646	keystroke	Key.backspace	n/a
228.258	0.1055	456516	keystroke	s	n/a
228.483	0.06	456966	keystroke	e	n/a
228.663	0.06	457326	keystroke	r	n/a
228.888	0.075	457776	keystroke	t	n/a
229.0675	0.075	458135	keystroke	Key.space	n/a
229.788	0.075	459576	keystroke	l	n/a
229.8925	0.06	459785	keystroke	e	n/a
230.0125	0.09	460025	keystroke	n	n/a
230.163	0.075	460326	keystroke	g	n/a
230.373	0.06	460746	keystroke	t	n/a
230.5525	0.06	461105	keystroke	h	n/a
230.8075	0.0905	461615	keystroke	Key.enter	n/a
230.9115	7.413	461823	prompt	n/a	hollow robot ampland static\n
231.708	0.06	463416	keystroke	h	n/a
231.873	0.06	463746	keystroke	o	n/a
232.023	0.06	464046	keystroke	l	n/a
232.128	0.075	464256	keystroke	l	n/a
232.278	0.0755	464556	keystroke	o	n/a
232.4285	0.09	464857	keystroke	w	n/a
232.5785	0.045	465157	keystroke	Key.space	n/a
233.1035	0.09	466207	keystroke	r	n/a
233.2085	0.06	466417	keystroke	o	n/a
233.3735	0.075	466747	keystroke	n	n/a
233.7335	0.045	467467	keystroke	Key.backspace	n/a
233.8385	0.075	467677	keystroke	b	n/a
233.9585	0.06	467917	keystroke	o	n/a
234.1235	0.075	468247	keystroke	t	n/a
234.528	0.09	469056	keystroke	Key.space	n/a
235.008	0.075	470016	keystroke	a	n/a
235.113	0.075	470226	keystroke	m	n/a
235.278	0.06	470556	keystroke	p	n/a
235.458	0.075	470916	keystroke	l	n/a
235.593	0.075	471186	keystroke	a	n/a
235.8185	0.104	471637	keystroke	d	n/a
236.4025	0.075	472805	keystroke	Key.space	n/a
236.7635	0.09	473527	keystroke	s	n/a
237.153	0.06	474306	keystroke	t	n/a
237.303	0.075	474606	keystroke	a	n/a
237.438	0.06	474876	keystroke	t	n/a
237.528	0.06	475056	keystroke	i	n/a
237.843	0.105	475686	keystroke	c	n/a
238.248	0.075	476496	keystroke	Key.enter	n/a
238.3305	12.812	476661	prompt	n/a	patrick questions portugal solid\n
239.658	0.06	479316	keystroke	p	n/a
239.748	0.075	479496	keystroke	a	n/a
239.958	0.03	479916	keystroke	t	n/a
240.108	0.045	480216	keystroke	r	n/a
240.213	0.075	480426	keystroke	i	n/a
240.408	0.075	480816	keystroke	c	n/a
240.513	0.12	481026	keystroke	k	n/a
240.603	0.135	481206	keystroke	Key.space	n/a
241.458	0.045	482916	keystroke	q	n/a
241.578	0.06	483156	keystroke	u	n/a
241.743	0.06	483486	keystroke	e	n/a
242.058	0.09	484116	keystroke	s	n/a
242.268	0.075	484536	keystroke	t	n/a
242.3585	0.06	484717	keystroke	i	n/a
242.478	0.075	484956	keystroke	o	n/a
242.6285	0.075	485257	keystroke	n	n/a
242.8685	0.075	485737	keystroke	s	n/a
243.0335	0.06	486067	keystroke	Key.space	n/a
243.438	0.12	486876	keystroke	p	n/a
243.513	0.12	487026	keystroke	o	n/a
244.113	0.06	488226	keystroke	r	n/a
244.278	0.06	488556	keystroke	t	n/a
244.488	0.06	488976	keystroke	u	n/a
245.343	0.075	490686	keystroke	Key.backspace	n/a
245.433	0.075	490866	keystroke	g	n/a
246.123	0.06	492246	keystroke	Key.backspace	n/a
246.873	0.0605	493746	keystroke	u	n/a
247.1125	0.075	494225	keystroke	g	n/a
247.3525	0.03	494705	keystroke	a	n/a
247.4125	0.09	494825	keystroke	l	n/a
247.5925	0.075	495185	keystroke	Key.space	n/a
250.415	0	500830	keystroke	s	n/a
250.443	0.06	500886	keystroke	o	n/a
250.608	0.06	501216	keystroke	l	n/a
250.758	0.0595	501516	keystroke	i	n/a
250.8185	0.104	501637	keystroke	d	n/a
251.0725	0.06	502145	keystroke	Key.enter	n/a
251.148	5.5815	502296	prompt	n/a	poems disclaimer listen battle\n
251.9275	0.12	503855	keystroke	p	n/a
252.0025	0.1205	504005	keystroke	o	n/a
252.4085	0.06	504817	keystroke	e	n/a
252.5285	0.06	505057	keystroke	m	n/a
252.6185	0.104	505237	keystroke	s	n/a
252.7385	0.09	505477	keystroke	Key.space	n/a
253.263	0.075	506526	keystroke	d	n/a
253.383	0.06	506766	keystroke	i	n/a
253.428	0.075	506856	keystroke	s	n/a
253.593	0.075	507186	keystroke	c	n/a
253.728	0.06	507456	keystroke	l	n/a
253.803	0.09	507606	keystroke	a	n/a
253.938	0.06	507876	keystroke	i	n/a
254.118	0.075	508236	keystroke	m	n/a
254.208	0.135	508416	keystroke	e	n/a
254.298	0.1045	508596	keystroke	r	n/a
254.4325	0.075	508865	keystroke	Key.space	n/a
254.7625	0.045	509525	keystroke	l	n/a
254.9125	0.045	509825	keystroke	i	n/a
254.9725	0.076	509945	keystroke	s	n/a
255.1835	0.03	510367	keystroke	t	n/a
255.2585	0.06	510517	keystroke	e	n/a
255.3335	0.12	510667	keystroke	n	n/a
255.4385	0.0745	510877	keystroke	Key.space	n/a
255.6635	0.075	511327	keystroke	b	n/a
255.7835	0.074	511567	keystroke	a	n/a
256.0235	0.059	512047	keystroke	t	n/a
256.1735	0.059	512347	keystroke	t	n/a
256.3225	0.075	512645	keystroke	l	n/a
256.3985	0.089	512797	keystroke	e	n/a
256.6525	0.075	513305	keystroke	Key.enter	n/a
256.7325	5.187	513465	prompt	n/a	soup millions wing associate\n
257.3585	0.0595	514717	keystroke	s	n/a
257.583	0.0905	515166	keystroke	o	n/a
257.6585	0.0745	515317	keystroke	u	n/a
257.8235	0.1195	515647	keystroke	p	n/a
257.8835	0.1195	515767	keystroke	Key.space	n/a
258.108	0.06	516216	keystroke	m	n/a
258.2585	0.06	516517	keystroke	i	n/a
258.4385	0.045	516877	keystroke	l	n/a
258.5585	0.06	517117	keystroke	l	n/a
258.7085	0.075	517417	keystroke	i	n/a
258.8435	0.045	517687	keystroke	o	n/a
259.0085	0.075	518017	keystroke	n	n/a
259.1435	0.075	518287	keystroke	s	n/a
259.2485	0.09	518497	keystroke	Key.space	n/a
259.4885	0.06	518977	keystroke	w	n/a
259.5635	0.06	519127	keystroke	i	n/a
259.7285	0.045	519457	keystroke	n	n/a
260.2385	0.0595	520477	keystroke	g	n/a
260.373	0.045	520746	keystroke	Key.space	n/a
260.538	0.075	521076	keystroke	a	n/a
260.688	0.06	521376	keystroke	s	n/a
260.823	0.06	521646	keystroke	s	n/a
260.913	0.075	521826	keystroke	o	n/a
261.003	0.105	522006	keystroke	c	n/a
261.123	0.075	522246	keystroke	i	n/a
261.258	0.06	522516	keystroke	a	n/a
261.543	0.06	523086	keystroke	t	n/a
261.708	0.075	523416	keystroke	e	n/a
261.843	0.075	523686	keystroke	Key.enter	n/a
261.922	10.0405	523844	prompt	n/a	soma boots protest geography\n
262.8935	0.015	525787	keystroke	s	n/a
262.9225	0.06	525845	keystroke	o	n/a
263.0575	0.09	526115	keystroke	m	n/a
263.1625	0.045	526325	keystroke	a	n/a
263.3125	0.06	526625	keystroke	Key.space	n/a
263.4925	0.061	526985	keystroke	b	n/a
263.6735	0.059	527347	keystroke	o	n/a
263.8085	0.06	527617	keystroke	o	n/a
264.5285	0.059	529057	keystroke	y	n/a
264.9025	0.06	529805	keystroke	Key.backspace	n/a
265.0225	0.09	530045	keystroke	t	n/a
265.1735	0.074	530347	keystroke	s	n/a
265.3075	0.09	530615	keystroke	Key.space	n/a
266.5825	0.06	533165	keystroke	p	n/a
266.6725	0.076	533345	keystroke	r	n/a
266.7775	0.06	533555	keystroke	o	n/a
266.9875	0.06	533975	keystroke	t	n/a
267.108	0.0745	534216	keystroke	e	n/a
267.3325	0.06	534665	keystroke	s	n/a
267.4985	0.074	534997	keystroke	t	n/a
267.6325	0.075	535265	keystroke	Key.space	n/a
269.118	0.075	538236	keystroke	g	n/a
269.178	0.075	538356	keystroke	e	n/a
269.373	0.06	538746	keystroke	o	n/a
270.273	0.06	540546	keystroke	g	n/a
270.393	0.075	540786	keystroke	r	n/a
270.603	0.06	541206	keystroke	a	n/a
270.888	0.09	541776	keystroke	p	n/a
271.128	0.045	542256	keystroke	h	n/a
271.293	0.12	542586	keystroke	y	n/a
271.398	0.12	542796	keystroke	Key.space	n/a
271.878	0.075	543756	keystroke	Key.enter	n/a
271.9685	9.144	543937	prompt	n/a	strap gospel olympus cardiff\n
272.793	0.06	545586	keystroke	s	n/a
272.988	0.06	545976	keystroke	t	n/a
273.153	0.075	546306	keystroke	r	n/a
273.288	0.09	546576	keystroke	a	n/a
273.423	0.135	546846	keystroke	p	n/a
273.768	0.105	547536	keystroke	Key.space	n/a
274.623	0.06	549246	keystroke	g	n/a
274.833	0.045	549666	keystroke	o	n/a
274.923	0.06	549846	keystroke	s	n/a
275.103	0.045	550206	keystroke	p	n/a
275.178	0.075	550356	keystroke	e	n/a
275.298	0.12	550596	keystroke	l	n/a
275.433	0.09	550866	keystroke	Key.space	n/a
276.003	0.06	552006	keystroke	o	n/a
276.213	0.09	552426	keystroke	l	n/a
276.873	0.06	553746	keystroke	y	n/a
277.158	0.075	554316	keystroke	m	n/a
277.398	0.045	554796	keystroke	b	n/a
277.848	0.06	555696	keystroke	Key.backspace	n/a
278.6275	0.06	557255	keystroke	p	n/a
278.8825	0.06	557765	keystroke	u	n/a
279.138	0.06	558276	keystroke	s	n/a
279.258	0.09	558516	keystroke	Key.space	n/a
279.9035	0.0595	559807	keystroke	c	n/a
280.068	0.06	560136	keystroke	a	n/a
280.203	0.075	560406	keystroke	r	n/a
280.4135	0.075	560827	keystroke	d	n/a
280.5185	0.075	561037	keystroke	i	n/a
280.6535	0.06	561307	keystroke	f	n/a
280.7885	0.075	561577	keystroke	f	n/a
281.0125	0.09	562025	keystroke	Key.enter	n/a
281.1175	9.73	562235	prompt	n/a	antarctica hadn't implement ferry\n
282.093	0.09	564186	keystroke	a	n/a
282.243	0.06	564486	keystroke	n	n/a
282.4075	0.06	564815	keystroke	t	n/a
282.5875	0.061	565175	keystroke	a	n/a
282.7675	0.075	565535	keystroke	r	n/a
282.9625	0.045	565925	keystroke	t	n/a
283.3075	0.03	566615	keystroke	i	n/a
283.3825	0.06	566765	keystroke	c	n/a
283.5775	0.06	567155	keystroke	a	n/a
283.7275	0.09	567455	keystroke	Key.space	n/a
284.6425	0.075	569285	keystroke	h	n/a
284.7325	0.03	569465	keystroke	a	n/a
284.943	0.06	569886	keystroke	d	n/a
285.093	0.0595	570186	keystroke	n	n/a
286.248	0.06	572496	keystroke	'	n/a
286.6375	0.121	573275	keystroke	t	n/a
286.7125	0.135	573425	keystroke	Key.space	n/a
287.1475	0.06	574295	keystroke	i	n/a
287.8075	0.046	575615	keystroke	m	n/a
288.0335	0.044	576067	keystroke	p	n/a
288.1975	0.061	576395	keystroke	l	n/a
288.4085	0.059	576817	keystroke	e	n/a
288.5575	0.075	577115	keystroke	m	n/a
288.6625	0.09	577325	keystroke	e	n/a
288.7985	0.06	577597	keystroke	n	n/a
288.9185	0.06	577837	keystroke	t	n/a
289.3375	0.075	578675	keystroke	Key.space	n/a
289.7585	0.059	579517	keystroke	f	n/a
289.8925	0.06	579785	keystroke	e	n/a
290.0575	0.075	580115	keystroke	r	n/a
290.2075	0.09	580415	keystroke	r	n/a
290.3425	0.121	580685	keystroke	y	n/a
290.4175	0.15	580835	keystroke	Key.space	n/a
290.8225	0.015	581645	keystroke	Key.enter	n/a
290.852	7.6755	581704	prompt	n/a	radios survivors recruiting professional\n
291.7525	0.075	583505	keystroke	r	n/a
291.8875	0.09	583775	keystroke	a	n/a
292.1875	0.09	584375	keystroke	d	n/a
292.3225	0.075	584645	keystroke	i	n/a
292.5325	0.06	585065	keystroke	o	n/a
292.6525	0.105	585305	keystroke	s	n/a
292.8025	0.09	585605	keystroke	Key.space	n/a
293.0725	0.075	586145	keystroke	s	n/a
293.2975	0.06	586595	keystroke	u	n/a
293.4925	0.06	586985	keystroke	r	n/a
293.7175	0.045	587435	keystroke	v	n/a
293.8375	0.045	587675	keystroke	i	n/a
293.9125	0.09	587825	keystroke	v	n/a
294.1675	0.075	588335	keystroke	o	n/a
294.3025	0.075	588605	keystroke	r	n/a
294.5575	0.09	589115	keystroke	s	n/a
294.7075	0.075	589415	keystroke	Key.space	n/a
294.9025	0.105	589805	keystroke	r	n/a
294.9775	0.09	589955	keystroke	e	n/a
295.2625	0.06	590525	keystroke	c	n/a
295.4575	0.075	590915	keystroke	r	n/a
295.6525	0.03	591305	keystroke	u	n/a
295.7875	0.06	591575	keystroke	i	n/a
295.9225	0.075	591845	keystroke	t	n/a
296.0275	0.06	592055	keystroke	i	n/a
296.2225	0.06	592445	keystroke	n	n/a
296.3425	0.09	592685	keystroke	g	n/a
296.4475	0.075	592895	keystroke	Key.space	n/a
296.7025	0.045	593405	keystroke	p	n/a
296.9275	0.075	593855	keystroke	r	n/a
297.0175	0.09	594035	keystroke	o	n/a
297.1975	0.03	594395	keystroke	f	n/a
297.3025	0.075	594605	keystroke	e	n/a
297.5125	0.06	595025	keystroke	s	n/a
297.6475	0.09	595295	keystroke	s	n/a
297.7525	0.045	595505	keystroke	i	n/a
297.8725	0.06	595745	keystroke	o	n/a
298.0525	0.09	596105	keystroke	n	n/a
298.0975	0.09	596195	keystroke	a	n/a
298.2325	0.06	596465	keystroke	l	n/a
298.4425	0.075	596885	keystroke	Key.enter	n/a
298.5325	10.4045	597065	prompt	n/a	baltimore spaces crops municipality\n
299.2825	0.06	598565	keystroke	b	n/a
299.3875	0.075	598775	keystroke	a	n/a
299.5375	0.045	599075	keystroke	l	n/a
299.7925	0.075	599585	keystroke	t	n/a
299.9725	0.03	599945	keystroke	i	n/a
300.1525	0.075	600305	keystroke	m	n/a
300.3625	0.075	600725	keystroke	o	n/a
300.5125	0.105	601025	keystroke	r	n/a
300.6325	0.075	601265	keystroke	e	n/a
300.7525	0.075	601505	keystroke	Key.space	n/a
301.1275	0.09	602255	keystroke	s	n/a
301.2475	0.06	602495	keystroke	p	n/a
301.7275	0.075	603455	keystroke	a	n/a
301.9075	0.09	603815	keystroke	c	n/a
302.0875	0.076	604175	keystroke	e	n/a
302.3725	0.03	604745	keystroke	d	n/a
302.9275	0.015	605855	keystroke	Key.backspace	n/a
302.9575	0.06	605915	keystroke	s	n/a
303.0775	0.09	606155	keystroke	Key.space	n/a
303.4975	0.075	606995	keystroke	c	n/a
303.6925	0.075	607385	keystroke	r	n/a
303.8125	0.06	607625	keystroke	o	n/a
303.9775	0.06	607955	keystroke	p	n/a
304.0385	0.104	608077	keystroke	s	n/a
304.2475	0.075	608495	keystroke	Key.space	n/a
304.6225	0.075	609245	keystroke	m	n/a
304.8325	0.045	609665	keystroke	u	n/a
305.1925	0.075	610385	keystroke	n	n/a
305.3425	0.075	610685	keystroke	i	n/a
305.6125	0.075	611225	keystroke	c	n/a
305.7325	0.075	611465	keystroke	i	n/a
305.9725	0.045	611945	keystroke	p	n/a
306.3325	0.075	612665	keystroke	a	n/a
306.4975	0.06	612995	keystroke	l	n/a
306.7375	0.0155	613475	keystroke	o	n/a
307.158	0.06	614316	keystroke	Key.backspace	n/a
307.653	0.075	615306	keystroke	i	n/a
307.923	0.105	615846	keystroke	t	n/a
308.208	0.09	616416	keystroke	y	n/a
308.283	0.15	616566	keystroke	Key.space	n/a
308.838	0.09	617676	keystroke	Key.enter	n/a
308.942	7.622	617884	prompt	n/a	velvet murphy suggests merchandise\n
309.8125	0.06	619625	keystroke	v	n/a
309.9775	0.061	619955	keystroke	e	n/a
310.0975	0.06	620195	keystroke	l	n/a
310.2625	0.075	620525	keystroke	v	n/a
310.4425	0.061	620885	keystroke	e	n/a
310.6235	0.044	621247	keystroke	t	n/a
310.7285	0.104	621457	keystroke	Key.space	n/a
310.9385	0.0595	621877	keystroke	m	n/a
311.208	0.075	622416	keystroke	u	n/a
311.418	0.075	622836	keystroke	r	n/a
311.643	0.06	623286	keystroke	p	n/a
311.823	0.06	623646	keystroke	h	n/a
311.988	0.1195	623976	keystroke	y	n/a
312.093	0.1195	624186	keystroke	Key.space	n/a
312.483	0.09	624966	keystroke	s	n/a
312.708	0.045	625416	keystroke	u	n/a
312.948	0.0445	625896	keystroke	g	n/a
313.0825	0.045	626165	keystroke	g	n/a
313.1425	0.06	626285	keystroke	e	n/a
313.323	0.0595	626646	keystroke	s	n/a
313.4125	0.0605	626825	keystroke	t	n/a
313.578	0.06	627156	keystroke	s	n/a
313.728	0.075	627456	keystroke	Key.space	n/a
314.178	0.06	628356	keystroke	m	n/a
314.253	0.06	628506	keystroke	e	n/a
314.6575	0.075	629315	keystroke	r	n/a
314.8825	0.075	629765	keystroke	c	n/a
315.0025	0.06	630005	keystroke	h	n/a
315.0775	0.09	630155	keystroke	a	n/a
315.2125	0.09	630425	keystroke	n	n/a
315.4375	0.045	630875	keystroke	d	n/a
315.5575	0.045	631115	keystroke	i	n/a
315.8275	0.075	631655	keystroke	s	n/a
316.0225	0.06	632045	keystroke	e	n/a
316.4575	0.105	632915	keystroke	Key.enter	n/a
316.5675	6.7015	633135	prompt	n/a	exceed treaty narrow lyric\n
317.883	0.06	635766	keystroke	e	n/a
318.1235	0.0745	636247	keystroke	x	n/a
318.303	0.0605	636606	keystroke	c	n/a
318.4985	0.03	636997	keystroke	e	n/a
318.6335	0.09	637267	keystroke	e	n/a
318.7385	0.075	637477	keystroke	d	n/a
318.8575	0.075	637715	keystroke	Key.space	n/a
319.3535	0.074	638707	keystroke	t	n/a
319.5175	0.045	639035	keystroke	r	n/a
319.6675	0.06	639335	keystroke	e	n/a
319.8335	0.059	639667	keystroke	a	n/a
320.2825	0.075	640565	keystroke	t	n/a
320.4025	0.075	640805	keystroke	y	n/a
320.5375	0.135	641075	keystroke	Key.space	n/a
320.8375	0.06	641675	keystroke	n	n/a
321.0475	0.09	642095	keystroke	a	n/a
321.4375	0.045	642875	keystroke	r	n/a
321.5725	0.075	643145	keystroke	r	n/a
321.6625	0.075	643325	keystroke	o	n/a
321.8425	0.09	643685	keystroke	w	n/a
321.9625	0.075	643925	keystroke	Key.space	n/a
322.1125	0.06	644225	keystroke	l	n/a
322.3825	0.06	644765	keystroke	y	n/a
322.5775	0.075	645155	keystroke	r	n/a
322.6825	0.06	645365	keystroke	i	n/a
322.8775	0.105	645755	keystroke	c	n/a
323.1925	0.075	646385	keystroke	Key.enter	n/a
323.272	7.3695	646544	prompt	n/a	everybody numerous affects volume\n
324.0325	0.045	648065	keystroke	e	n/a
324.2875	0.03	648575	keystroke	v	n/a
324.4225	0.105	648845	keystroke	e	n/a
324.4975	0.09	648995	keystroke	r	n/a
324.6325	0.06	649265	keystroke	y	n/a
324.8125	0.045	649625	keystroke	b	n/a
324.9475	0.075	649895	keystroke	o	n/a
325.0825	0.075	650165	keystroke	d	n/a
325.1875	0.12	650375	keystroke	y	n/a
325.2625	0.15	650525	keystroke	Key.space	n/a
325.5475	0.075	651095	keystroke	n	n/a
325.9525	0.06	651905	keystroke	u	n/a
326.2075	0.06	652415	keystroke	m	n/a
326.7025	0.12	653405	keystroke	e	n/a
326.7625	0.12	653525	keystroke	r	n/a
327.0475	0.09	654095	keystroke	o	n/a
327.1075	0.09	654215	keystroke	u	n/a
327.2275	0.105	654455	keystroke	s	n/a
327.3625	0.09	654725	keystroke	Key.space	n/a
327.8875	0.015	655775	keystroke	a	n/a
328.1125	0.09	656225	keystroke	f	n/a
328.3225	0.06	656645	keystroke	f	n/a
328.473	0.045	656946	keystroke	e	n/a
328.638	0.06	657276	keystroke	c	n/a
328.878	0.075	657756	keystroke	t	n/a
329.013	0.075	658026	keystroke	s	n/a
329.193	0.06	658386	keystroke	Key.space	n/a
329.373	0.045	658746	keystroke	v	n/a
329.493	0.09	658986	keystroke	o	n/a
329.718	0.06	659436	keystroke	l	n/a
330.093	0.045	660186	keystroke	u	n/a
330.273	0.075	660546	keystroke	m	n/a
330.363	0.06	660726	keystroke	e	n/a
330.573	0.06	661146	keystroke	Key.enter	n/a
330.6465	7.0675	661293	prompt	n/a	cheese wave collector peter\n
331.368	0.075	662736	keystroke	c	n/a
331.488	0.06	662976	keystroke	h	n/a
331.562	0.061	663124	keystroke	e	n/a
331.728	0.045	663456	keystroke	e	n/a
331.877	0.076	663754	keystroke	s	n/a
332.027	0.076	664054	keystroke	e	n/a
332.163	0.075	664326	keystroke	Key.space	n/a
332.283	0.1045	664566	keystroke	w	n/a
332.3725	0.105	664745	keystroke	a	n/a
332.6275	0.06	665255	keystroke	v	n/a
332.7025	0.09	665405	keystroke	e	n/a
332.8525	0.075	665705	keystroke	Key.space	n/a
333.408	0.045	666816	keystroke	c	n/a
333.513	0.045	667026	keystroke	o	n/a
333.873	0.045	667746	keystroke	l	n/a
333.993	0.06	667986	keystroke	l	n/a
334.068	0.075	668136	keystroke	e	n/a
334.308	0.03	668616	keystroke	v	n/a
334.668	0.06	669336	keystroke	c	n/a
334.803	0.045	669606	keystroke	Key.backspace	n/a
335.043	0.06	670086	keystroke	Key.backspace	n/a
335.373	0.1345	670746	keystroke	c	n/a
335.9725	0.075	671945	keystroke	t	n/a
336.1525	0.075	672305	keystroke	o	n/a
336.2725	0.075	672545	keystroke	r	n/a
336.498	0.09	672996	keystroke	Key.space	n/a
336.888	0.0595	673776	keystroke	p	n/a
336.9775	0.0755	673955	keystroke	e	n/a
337.1725	0.06	674345	keystroke	t	n/a
337.3085	0.119	674617	keystroke	e	n/a
337.3825	0.121	674765	keystroke	r	n/a
337.6375	0.075	675275	keystroke	Key.enter	n/a
337.722	7.066	675444	prompt	n/a	flexibility queen wages private\n
338.6875	0.075	677375	keystroke	f	n/a
338.8075	0.06	677615	keystroke	l	n/a
338.8825	0.1055	677765	keystroke	e	n/a
339.198	0.075	678396	keystroke	x	n/a
339.333	0.0745	678666	keystroke	i	n/a
339.5125	0.075	679025	keystroke	b	n/a
339.6775	0.045	679355	keystroke	i	n/a
339.8425	0.06	679685	keystroke	l	n/a
339.9925	0.06	679985	keystroke	i	n/a
340.2175	0.03	680435	keystroke	t	n/a
340.353	0.1045	680706	keystroke	y	n/a
340.4425	0.12	680885	keystroke	Key.space	n/a
341.357	0.06	682714	keystroke	q	n/a
341.462	0.045	682924	keystroke	u	n/a
341.582	0.075	683164	keystroke	e	n/a
341.762	0.06	683524	keystroke	e	n/a
341.837	0.12	683674	keystroke	n	n/a
341.912	0.105	683824	keystroke	Key.space	n/a
342.048	0.134	684096	keystroke	w	n/a
342.167	0.105	684334	keystroke	a	n/a
342.347	0.06	684694	keystroke	g	n/a
342.437	0.09	684874	keystroke	e	n/a
342.647	0.075	685294	keystroke	s	n/a
342.767	0.105	685534	keystroke	Key.space	n/a
343.292	0.061	686584	keystroke	p	n/a
343.457	0.076	686914	keystroke	r	n/a
343.563	0.075	687126	keystroke	i	n/a
343.862	0.061	687724	keystroke	v	n/a
344.0125	0.075	688025	keystroke	a	n/a
344.2825	0.06	688565	keystroke	t	n/a
344.4175	0.075	688835	keystroke	e	n/a
344.703	0.075	689406	keystroke	Key.enter	n/a
344.7925	9.9395	689585	prompt	n/a	sacrifice burton hydrogen allocated\n
345.8275	0.075	691655	keystroke	s	n/a
345.9625	0.09	691925	keystroke	a	n/a
346.1425	0.075	692285	keystroke	c	n/a
346.3375	0.075	692675	keystroke	r	n/a
347.148	0.105	694296	keystroke	i	n/a
347.298	0.075	694596	keystroke	f	n/a
347.418	0.075	694836	keystroke	i	n/a
347.628	0.075	695256	keystroke	c	n/a
347.913	0.09	695826	keystroke	e	n/a
348.093	0.06	696186	keystroke	Key.space	n/a
348.588	0.045	697176	keystroke	b	n/a
348.648	0.075	697296	keystroke	u	n/a
348.738	0.06	697476	keystroke	r	n/a
348.918	0.075	697836	keystroke	t	n/a
349.023	0.09	698046	keystroke	o	n/a
349.263	0.12	698526	keystroke	n	n/a
349.368	0.09	698736	keystroke	Key.space	n/a
350.193	0.06	700386	keystroke	g	n/a
350.628	0.045	701256	keystroke	Key.backspace	n/a
350.883	0.045	701766	keystroke	h	n/a
351.048	0.045	702096	keystroke	y	n/a
351.603	0.075	703206	keystroke	d	n/a
351.798	0.06	703596	keystroke	r	n/a
351.903	0.09	703806	keystroke	o	n/a
352.458	0.075	704916	keystroke	g	n/a
352.548	0.09	705096	keystroke	e	n/a
352.713	0.15	705426	keystroke	n	n/a
352.833	0.09	705666	keystroke	Key.space	n/a
353.118	0.09	706236	keystroke	a	n/a
353.253	0.06	706506	keystroke	l	n/a
353.373	0.075	706746	keystroke	l	n/a
353.538	0.075	707076	keystroke	o	n/a
353.838	0.03	707676	keystroke	c	n/a
353.958	0.06	707916	keystroke	a	n/a
354.168	0.075	708336	keystroke	t	n/a
354.258	0.06	708516	keystroke	e	n/a
354.453	0.09	708906	keystroke	d	n/a
354.633	0.09	709266	keystroke	Key.enter	n/a
354.738	12.624	709476	prompt	n/a	deals cartridges conflicts maui\n
355.5625	0.105	711125	keystroke	d	n/a
355.6075	0.105	711215	keystroke	e	n/a
355.7725	0.075	711545	keystroke	a	n/a
355.8925	0.06	711785	keystroke	l	n/a
355.9675	0.075	711935	keystroke	s	n/a
356.1325	0.06	712265	keystroke	Key.space	n/a
356.2825	0.0755	712565	keystroke	c	n/a
356.4625	0.045	712925	keystroke	a	n/a
356.6125	0.06	713225	keystroke	r	n/a
356.7775	0.075	713555	keystroke	t	n/a
358.727	0.075	717454	keystroke	r	n/a
358.907	0.06	717814	keystroke	i	n/a
360.288	0.074	720576	keystroke	d	n/a
360.438	0.075	720876	keystroke	g	n/a
360.542	0.061	721084	keystroke	e	n/a
360.753	0.12	721506	keystroke	s	n/a
360.918	0.059	721836	keystroke	Key.space	n/a
361.533	0.059	723066	keystroke	c	n/a
361.743	0.045	723486	keystroke	n	n/a
362.282	0.06	724564	keystroke	Key.backspace	n/a
362.553	0.045	725106	keystroke	o	n/a
362.808	0.075	725616	keystroke	n	n/a
362.958	0.09	725916	keystroke	f	n/a
363.183	0.06	726366	keystroke	l	n/a
363.438	0.06	726876	keystroke	i	n/a
363.558	0.105	727116	keystroke	c	n/a
363.797	0.061	727594	keystroke	t	n/a
363.9025	0.0755	727805	keystroke	s	n/a
363.993	0.105	727986	keystroke	Key.space	n/a
366.4395	0.001	732879	keystroke	m	n/a
366.4525	0.075	732905	keystroke	a	n/a
366.678	0.045	733356	keystroke	u	n/a
366.828	0.105	733656	keystroke	i	n/a
366.9925	0.12	733985	keystroke	Key.space	n/a
367.2625	0.09	734525	keystroke	Key.enter	n/a
367.367	8.44	734734	prompt	n/a	province score divx canvas\n
368.2075	0.075	736415	keystroke	p	n/a
368.2975	0.06	736595	keystroke	r	n/a
368.387	0.075	736774	keystroke	i	n/a
369.048	0.075	738096	keystroke	Key.backspace	n/a
369.2575	0.0905	738515	keystroke	o	n/a
369.378	0.09	738756	keystroke	v	n/a
369.603	0.09	739206	keystroke	i	n/a
370.2625	0.06	740525	keystroke	n	n/a
370.3975	0.105	740795	keystroke	c	n/a
370.4425	0.12	740885	keystroke	e	n/a
370.6225	0.06	741245	keystroke	Key.space	n/a
371.4175	0.06	742835	keystroke	s	n/a
371.5825	0.075	743165	keystroke	c	n/a
371.7475	0.075	743495	keystroke	o	n/a
371.8675	0.105	743735	keystroke	r	n/a
371.9275	0.105	743855	keystroke	e	n/a
372.0925	0.09	744185	keystroke	Key.space	n/a
372.8725	0.09	745745	keystroke	d	n/a
373.0225	0.075	746045	keystroke	i	n/a
373.3675	0.09	746735	keystroke	v	n/a
373.6525	0.06	747305	keystroke	x	n/a
373.7875	0.075	747575	keystroke	Key.space	n/a
374.1775	0.075	748355	keystroke	c	n/a
374.4325	0.075	748865	keystroke	a	n/a
374.6425	0.075	749285	keystroke	n	n/a
375.212	0.045	750424	keystroke	v	n/a
375.317	0.105	750634	keystroke	a	n/a
375.437	0.121	750874	keystroke	s	n/a
375.723	0.075	751446	keystroke	Key.enter	n/a
375.8255	5.764	751651	prompt	n/a	bull narrow strikes valves\n
376.683	0.06	753366	keystroke	b	n/a
376.818	0.06	753636	keystroke	u	n/a
377.013	0.0445	754026	keystroke	l	n/a
377.1325	0.12	754265	keystroke	l	n/a
377.2225	0.09	754445	keystroke	Key.space	n/a
377.4025	0.105	754805	keystroke	n	n/a
377.4775	0.09	754955	keystroke	a	n/a
377.6875	0.045	755375	keystroke	r	n/a
377.8375	0.06	755675	keystroke	r	n/a
377.9125	0.06	755825	keystroke	o	n/a
378.4375	0.075	756875	keystroke	w	n/a
378.5575	0.075	757115	keystroke	Key.space	n/a
378.7225	0.075	757445	keystroke	s	n/a
378.9625	0.06	757925	keystroke	t	n/a
379.0825	0.045	758165	keystroke	r	n/a
379.2175	0.045	758435	keystroke	i	n/a
379.3825	0.06	758765	keystroke	k	n/a
379.4435	0.089	758887	keystroke	e	n/a
379.6525	0.075	759305	keystroke	s	n/a
379.7575	0.075	759515	keystroke	Key.space	n/a
379.9975	0.09	759995	keystroke	w	n/a
380.3425	0.075	760685	keystroke	Key.backspace	n/a
380.4625	0.075	760925	keystroke	v	n/a
380.6425	0.06	761285	keystroke	a	n/a
380.7175	0.075	761435	keystroke	l	n/a
380.9575	0.06	761915	keystroke	v	n/a
381.1525	0.075	762305	keystroke	e	n/a
381.3475	0.09	762695	keystroke	s	n/a
381.5125	0.075	763025	keystroke	Key.enter	n/a
381.595	12.482	763190	prompt	n/a	skins builder birmingham owns\n
382.4885	0.089	764977	keystroke	s	n/a
382.6225	0.06	765245	keystroke	k	n/a
382.7725	0.06	765545	keystroke	i	n/a
382.8925	0.105	765785	keystroke	n	n/a
383.0575	0.045	766115	keystroke	g	n/a
383.3425	0.045	766685	keystroke	Key.backspace	n/a
383.4475	0.09	766895	keystroke	s	n/a
383.5675	0.075	767135	keystroke	Key.space	n/a
384.1075	0.045	768215	keystroke	b	n/a
384.2575	0.045	768515	keystroke	u	n/a
384.3925	0.06	768785	keystroke	i	n/a
384.5425	0.075	769085	keystroke	l	n/a
384.6475	0.075	769295	keystroke	d	n/a
384.9025	0.105	769805	keystroke	e	n/a
384.9775	0.12	769955	keystroke	r	n/a
385.1275	0.09	770255	keystroke	Key.space	n/a
385.878	0.044	771756	keystroke	b	n/a
386.027	0.075	772054	keystroke	i	n/a
386.147	0.091	772294	keystroke	r	n/a
387.0925	0.09	774185	keystroke	m	n/a
387.3925	0.06	774785	keystroke	i	n/a
387.602	0.075	775204	keystroke	n	n/a
387.767	0.06	775534	keystroke	g	n/a
388.382	0.09	776764	keystroke	h	n/a
388.487	0.03	776974	keystroke	a	n/a
388.682	0.075	777364	keystroke	m	n/a
393.2305	0.001	786461	keystroke	Key.space	n/a
393.3175	0.075	786635	keystroke	o	n/a
393.6625	0.045	787325	keystroke	w	n/a
393.7225	0.045	787445	keystroke	n	n/a
393.7975	0.09	787595	keystroke	s	n/a
393.9925	0.075	787985	keystroke	Key.enter	n/a
394.0815	8.006	788163	prompt	n/a	acre comparable transmitted chevy\n
394.728	0.06	789456	keystroke	a	n/a
395.178	0.074	790356	keystroke	c	n/a
395.372	0.09	790744	keystroke	r	n/a
395.418	0.104	790836	keystroke	e	n/a
395.5825	0.09	791165	keystroke	Key.space	n/a
395.7925	0.06	791585	keystroke	c	n/a
395.8225	0.06	791645	keystroke	o	n/a
396.2275	0.06	792455	keystroke	m	n/a
396.4975	0.075	792995	keystroke	p	n/a
396.7975	0.06	793595	keystroke	a	n/a
397.292	0.09	794584	keystroke	r	n/a
397.397	0.09	794794	keystroke	a	n/a
397.592	0.06	795184	keystroke	b	n/a
397.772	0.06	795544	keystroke	l	n/a
397.847	0.06	795694	keystroke	e	n/a
397.952	0.091	795904	keystroke	Key.space	n/a
398.628	0.06	797256	keystroke	t	n/a
398.763	0.045	797526	keystroke	r	n/a
398.913	0.06	797826	keystroke	a	n/a
399.033	0.06	798066	keystroke	n	n/a
399.123	0.105	798246	keystroke	s	n/a
399.543	0.06	799086	keystroke	m	n/a
399.708	0.06	799416	keystroke	i	n/a
399.888	0.045	799776	keystroke	t	n/a
400.023	0.059	800046	keystroke	t	n/a
400.128	0.105	800256	keystroke	e	n/a
400.3525	0.0605	800705	keystroke	d	n/a
400.473	0.075	800946	keystroke	Key.space	n/a
400.847	0.075	801694	keystroke	c	n/a
400.937	0.06	801874	keystroke	h	n/a
401.402	0.075	802804	keystroke	e	n/a
401.597	0.06	803194	keystroke	v	n/a
401.732	0.075	803464	keystroke	y	n/a
402.032	0.045	804064	keystroke	Key.enter	n/a
402.093	9.264	804186	prompt	n/a	devon encryption caring housewares\n
403.187	0.015	806374	keystroke	d	n/a
403.277	0.045	806554	keystroke	e	n/a
403.472	0.0755	806944	keystroke	v	n/a
403.607	0.06	807214	keystroke	o	n/a
403.787	0.1355	807574	keystroke	n	n/a
403.923	0.104	807846	keystroke	Key.space	n/a
404.147	0.075	808294	keystroke	e	n/a
404.297	0.0755	808594	keystroke	n	n/a
404.5075	0.045	809015	keystroke	c	n/a
404.6875	0.06	809375	keystroke	r	n/a
405.6475	0.06	811295	keystroke	y	n/a
406.2925	0.075	812585	keystroke	p	n/a
406.4575	0.045	812915	keystroke	t	n/a
406.5775	0.045	813155	keystroke	i	n/a
406.6975	0.0605	813395	keystroke	o	n/a
406.878	0.12	813756	keystroke	n	n/a
406.983	0.075	813966	keystroke	Key.space	n/a
407.478	0.045	814956	keystroke	a	n/a
407.778	0.075	815556	keystroke	Key.backspace	n/a
407.868	0.075	815736	keystroke	c	n/a
408.033	0.045	816066	keystroke	a	n/a
408.243	0.045	816486	keystroke	r	n/a
408.498	0.045	816996	keystroke	i	n/a
408.693	0.09	817386	keystroke	n	n/a
408.798	0.075	817596	keystroke	g	n/a
408.933	0.09	817866	keystroke	Key.space	n/a
409.443	0.06	818886	keystroke	h	n/a
409.608	0.12	819216	keystroke	o	n/a
409.698	0.105	819396	keystroke	u	n/a
409.803	0.075	819606	keystroke	s	n/a
409.998	0.06	819996	keystroke	e	n/a
410.253	0.1195	820506	keystroke	w	n/a
410.328	0.1195	820656	keystroke	a	n/a
410.6125	0.075	821225	keystroke	r	n/a
410.7025	0.06	821405	keystroke	e	n/a
410.9275	0.075	821855	keystroke	s	n/a
411.2425	0.105	822485	keystroke	Key.enter	n/a
411.363	6.601	822726	prompt	n/a	continental watson purchase using\n
412.2175	0.06	824435	keystroke	c	n/a
412.2325	0.09	824465	keystroke	o	n/a
412.3825	0.075	824765	keystroke	n	n/a
412.5175	0.06	825035	keystroke	t	n/a
412.6225	0.03	825245	keystroke	i	n/a
412.7575	0.09	825515	keystroke	n	n/a
412.9825	0.09	825965	keystroke	e	n/a
413.1925	0.075	826385	keystroke	n	n/a
413.3575	0.06	826715	keystroke	t	n/a
413.5525	0.045	827105	keystroke	a	n/a
413.6575	0.1505	827315	keystroke	l	n/a
413.7775	0.0905	827555	keystroke	Key.space	n/a
414.153	0.135	828306	keystroke	w	n/a
414.258	0.09	828516	keystroke	a	n/a
414.498	0.06	828996	keystroke	t	n/a
414.618	0.09	829236	keystroke	s	n/a
414.738	0.06	829476	keystroke	o	n/a
414.918	0.12	829836	keystroke	n	n/a
415.038	0.0595	830076	keystroke	Key.space	n/a
415.3375	0.045	830675	keystroke	p	n/a
415.5175	0.075	831035	keystroke	u	n/a
415.743	0.075	831486	keystroke	r	n/a
415.923	0.06	831846	keystroke	c	n/a
416.013	0.06	832026	keystroke	h	n/a
416.103	0.09	832206	keystroke	a	n/a
416.223	0.09	832446	keystroke	s	n/a
416.403	0.06	832806	keystroke	e	n/a
416.718	0.09	833436	keystroke	Key.space	n/a
417.063	0.06	834126	keystroke	u	n/a
417.153	0.075	834306	keystroke	s	n/a
417.378	0.06	834756	keystroke	i	n/a
417.528	0.075	835056	keystroke	n	n/a
417.618	0.09	835236	keystroke	g	n/a
417.888	0.075	835776	keystroke	Key.enter	n/a
417.967	7.6105	835934	prompt	n/a	troops equally excluding beatles\n
418.7575	0.045	837515	keystroke	t	n/a
418.9075	0.045	837815	keystroke	r	n/a
419.0425	0.06	838085	keystroke	o	n/a
419.1775	0.06	838355	keystroke	o	n/a
419.3425	0.075	838685	keystroke	p	n/a
419.5525	0.09	839105	keystroke	s	n/a
419.6725	0.09	839345	keystroke	Key.space	n/a
419.8825	0.06	839765	keystroke	e	n/a
420.228	0.06	840456	keystroke	q	n/a
420.348	0.06	840696	keystroke	u	n/a
420.962	0.076	841924	keystroke	a	n/a
421.1875	0.03	842375	keystroke	l	n/a
421.2775	0.075	842555	keystroke	l	n/a
421.5175	0.15	843035	keystroke	y	n/a
421.6375	0.12	843275	keystroke	Key.space	n/a
422.493	0.0745	844986	keystroke	e	n/a
422.7325	0.09	845465	keystroke	x	n/a
422.9575	0.075	845915	keystroke	c	n/a
423.0775	0.075	846155	keystroke	l	n/a
423.2725	0.06	846545	keystroke	u	n/a
423.407	0.076	846814	keystroke	d	n/a
423.498	0.074	846996	keystroke	i	n/a
423.663	0.044	847326	keystroke	n	n/a
423.783	0.075	847566	keystroke	g	n/a
423.843	0.0895	847686	keystroke	Key.space	n/a
424.3235	0.044	848647	keystroke	b	n/a
424.3825	0.075	848765	keystroke	e	n/a
424.5775	0.045	849155	keystroke	a	n/a
424.7725	0.06	849545	keystroke	t	n/a
424.9525	0.0755	849905	keystroke	l	n/a
425.043	0.075	850086	keystroke	e	n/a
425.238	0.0745	850476	keystroke	s	n/a
425.4925	0.075	850985	keystroke	Key.enter	n/a
425.582	11.755	851164	prompt	n/a	workers thesaurus disagree families\n
426.3775	0.06	852755	keystroke	w	n/a
426.4975	0.06	852995	keystroke	o	n/a
426.5875	0.06	853175	keystroke	r	n/a
426.7075	0.09	853415	keystroke	k	n/a
426.8425	0.135	853685	keystroke	e	n/a
426.9025	0.12	853805	keystroke	r	n/a
427.2025	0.06	854405	keystroke	s	n/a
427.3225	0.09	854645	keystroke	Key.space	n/a
427.9375	0.045	855875	keystroke	t	n/a
428.0125	0.06	856025	keystroke	h	n/a
428.0875	0.09	856175	keystroke	e	n/a
429.303	0.075	858606	keystroke	s	n/a
429.663	0.12	859326	keystroke	a	n/a
429.933	0.06	859866	keystroke	u	n/a
430.338	0.06	860676	keystroke	r	n/a
432.485	0.001	864970	keystroke	u	n/a
432.528	0.09	865056	keystroke	s	n/a
432.648	0.105	865296	keystroke	Key.space	n/a
433.6975	0.06	867395	keystroke	d	n/a
433.7725	0.06	867545	keystroke	i	n/a
433.8475	0.09	867695	keystroke	s	n/a
434.0275	0.075	868055	keystroke	a	n/a
434.1625	0.06	868325	keystroke	g	n/a
434.3275	0.1055	868655	keystroke	r	n/a
434.448	0.09	868896	keystroke	e	n/a
434.628	0.06	869256	keystroke	e	n/a
434.7775	0.06	869555	keystroke	Key.space	n/a
435.273	0.06	870546	keystroke	f	n/a
435.438	0.075	870876	keystroke	a	n/a
435.543	0.045	871086	keystroke	i	n/a
435.902	0.061	871804	keystroke	Key.backspace	n/a
436.098	0.074	872196	keystroke	m	n/a
436.292	0.06	872584	keystroke	i	n/a
436.457	0.076	872914	keystroke	l	n/a
436.623	0.059	873246	keystroke	i	n/a
436.862	0.075	873724	keystroke	e	n/a
437.088	0.075	874176	keystroke	s	n/a
437.313	0.015	874626	keystroke	Key.enter	n/a
437.3415	6.5725	874683	prompt	n/a	avatar through breed studies\n
438.078	0.09	876156	keystroke	a	n/a
438.3625	0.045	876725	keystroke	v	n/a
438.4525	0.06	876905	keystroke	a	n/a
438.6475	0.045	877295	keystroke	t	n/a
439.2325	0.09	878465	keystroke	a	n/a
439.3075	0.09	878615	keystroke	r	n/a
439.4575	0.09	878915	keystroke	Key.space	n/a
439.8625	0.045	879725	keystroke	t	n/a
439.9525	0.06	879905	keystroke	h	n/a
440.0425	0.09	880085	keystroke	r	n/a
440.1775	0.105	880355	keystroke	o	n/a
440.2525	0.1055	880505	keystroke	u	n/a
440.388	0.075	880776	keystroke	g	n/a
440.463	0.135	880926	keystroke	h	n/a
440.553	0.12	881106	keystroke	Key.space	n/a
440.868	0.06	881736	keystroke	b	n/a
440.958	0.12	881916	keystroke	r	n/a
441.048	0.09	882096	keystroke	e	n/a
441.228	0.075	882456	keystroke	e	n/a
441.573	0.09	883146	keystroke	d	n/a
441.708	0.09	883416	keystroke	Key.space	n/a
441.933	0.075	883866	keystroke	s	n/a
442.143	0.06	884286	keystroke	t	n/a
442.353	0.03	884706	keystroke	u	n/a
442.398	0.075	884796	keystroke	d	n/a
443.402	0.016	886804	keystroke	i	n/a
443.462	0.061	886924	keystroke	e	n/a
443.673	0.06	887346	keystroke	s	n/a
443.838	0.074	887676	keystroke	Key.enter	n/a
443.9185	9.5435	887837	prompt	n/a	traditions universities value central\n
445.0975	0.0605	890195	keystroke	t	n/a
445.262	0.045	890524	keystroke	r	n/a
445.397	0.075	890794	keystroke	a	n/a
445.638	0.059	891276	keystroke	d	n/a
445.7425	0.0745	891485	keystroke	i	n/a
445.907	0.0905	891814	keystroke	t	n/a
446.012	0.03	892024	keystroke	i	n/a
446.1775	0.0145	892355	keystroke	o	n/a
446.8225	0.06	893645	keystroke	n	n/a
446.9125	0.09	893825	keystroke	s	n/a
447.092	0.075	894184	keystroke	Key.space	n/a
447.7225	0.0455	895445	keystroke	u	n/a
447.887	0.046	895774	keystroke	n	n/a
447.992	0.06	895984	keystroke	i	n/a
448.097	0.075	896194	keystroke	v	n/a
448.277	0.106	896554	keystroke	e	n/a
448.353	0.0895	896706	keystroke	r	n/a
448.5175	0.105	897035	keystroke	s	n/a
448.6675	0.06	897335	keystroke	i	n/a
448.8025	0.06	897605	keystroke	t	n/a
448.8635	0.074	897727	keystroke	i	n/a
449.1325	0.075	898265	keystroke	e	n/a
449.4475	0.075	898895	keystroke	s	n/a
449.5525	0.09	899105	keystroke	Key.space	n/a
450.183	0.06	900366	keystroke	v	n/a
450.348	0.06	900696	keystroke	a	n/a
450.573	0.06	901146	keystroke	l	n/a
451.653	0.06	903306	keystroke	u	n/a
451.758	0.075	903516	keystroke	e	n/a
451.908	0.09	903816	keystroke	Key.space	n/a
452.103	0.09	904206	keystroke	c	n/a
452.238	0.09	904476	keystroke	e	n/a
452.343	0.09	904686	keystroke	n	n/a
452.493	0.045	904986	keystroke	t	n/a
452.688	0.06	905376	keystroke	r	n/a
452.838	0.09	905676	keystroke	a	n/a
453.018	0.075	906036	keystroke	l	n/a
453.198	0.075	906396	keystroke	Key.space	n/a
453.378	0.075	906756	keystroke	Key.enter	n/a
453.47	12.097	906940	prompt	n/a	aluminum horrible username children\n
454.113	0.075	908226	keystroke	a	n/a
454.248	0.075	908496	keystroke	l	n/a
454.458	0.045	908916	keystroke	u	n/a
454.638	0.075	909276	keystroke	m	n/a
456.033	0.06	912066	keystroke	i	n/a
456.243	0.09	912486	keystroke	n	n/a
457.4125	0.06	914825	keystroke	u	n/a
457.6075	0.135	915215	keystroke	m	n/a
457.6975	0.105	915395	keystroke	Key.space	n/a
458.3875	0.045	916775	keystroke	h	n/a
458.5075	0.076	917015	keystroke	i	n/a
458.927	0.0605	917854	keystroke	Key.backspace	n/a
459.1225	0.06	918245	keystroke	o	n/a
459.2125	0.075	918425	keystroke	r	n/a
459.3925	0.075	918785	keystroke	r	n/a
459.5275	0.0755	919055	keystroke	i	n/a
459.858	0.06	919716	keystroke	b	n/a
460.038	0.06	920076	keystroke	l	n/a
460.113	0.075	920226	keystroke	e	n/a
460.233	0.105	920466	keystroke	Key.space	n/a
460.877	0.061	921754	keystroke	u	n/a
460.9825	0.045	921965	keystroke	s	n/a
461.1175	0.045	922235	keystroke	e	n/a
461.2075	0.105	922415	keystroke	r	n/a
461.4625	0.045	922925	keystroke	n	n/a
461.5675	0.06	923135	keystroke	a	n/a
461.6875	0.075	923375	keystroke	m	n/a
461.7925	0.075	923585	keystroke	e	n/a
462.0025	0.075	924005	keystroke	Key.space	n/a
462.4225	0.075	924845	keystroke	c	n/a
462.5275	0.06	925055	keystroke	h	n/a
462.6625	0.075	925325	keystroke	i	n/a
462.8575	0.06	925715	keystroke	o	n/a
462.9025	0.105	925805	keystroke	d	n/a
463.7425	0.09	927485	keystroke	Key.backspace	n/a
463.9375	0.045	927875	keystroke	Key.backspace	n/a
464.418	0.06	928836	keystroke	l	n/a
464.538	0.105	929076	keystroke	d	n/a
464.748	0.105	929496	keystroke	r	n/a
464.838	0.105	929676	keystroke	e	n/a
465.0025	0.135	930005	keystroke	n	n/a
465.1225	0.105	930245	keystroke	Key.space	n/a
465.4975	0.06	930995	keystroke	Key.enter	n/a
465.5775	7.6015	931155	prompt	n/a	stays midlands jeans narrow\n
466.2175	0.06	932435	keystroke	s	n/a
466.4275	0.06	932855	keystroke	t	n/a
466.4725	0.09	932945	keystroke	a	n/a
466.6075	0.06	933215	keystroke	t	n/a
466.7275	0.105	933455	keystroke	s	n/a
467.088	0.045	934176	keystroke	Key.backspace	n/a
467.223	0.045	934446	keystroke	Key.backspace	n/a
467.6425	0.06	935285	keystroke	y	n/a
467.7325	0.075	935465	keystroke	s	n/a
467.8375	0.09	935675	keystroke	Key.space	n/a
468.0925	0.075	936185	keystroke	m	n/a
468.2725	0.06	936545	keystroke	a	n/a
468.558	0.075	937116	keystroke	Key.backspace	n/a
468.828	0.075	937656	keystroke	i	n/a
469.053	0.06	938106	keystroke	d	n/a
469.218	0.06	938436	keystroke	l	n/a
469.293	0.06	938586	keystroke	a	n/a
469.413	0.075	938826	keystroke	n	n/a
469.473	0.09	938946	keystroke	d	n/a
469.668	0.105	939336	keystroke	s	n/a
469.833	0.075	939666	keystroke	Key.space	n/a
470.403	0.075	940806	keystroke	j	n/a
470.568	0.045	941136	keystroke	u	n/a
470.883	0.059	941766	keystroke	Key.backspace	n/a
470.958	0.075	941916	keystroke	e	n/a
471.108	0.075	942216	keystroke	a	n/a
471.258	0.075	942516	keystroke	n	n/a
471.348	0.09	942696	keystroke	s	n/a
471.482	0.076	942964	keystroke	Key.space	n/a
471.663	0.09	943326	keystroke	n	n/a
471.738	0.059	943476	keystroke	a	n/a
472.308	0.059	944616	keystroke	r	n/a
472.457	0.06	944914	keystroke	r	n/a
472.592	0.075	945184	keystroke	o	n/a
472.712	0.075	945424	keystroke	w	n/a
473.1025	0.075	946205	keystroke	Key.enter	n/a
473.182	5.187	946364	prompt	n/a	stores current usually samples\n
474.0025	0.075	948005	keystroke	s	n/a
474.1825	0.075	948365	keystroke	t	n/a
474.3025	0.06	948605	keystroke	o	n/a
474.3925	0.105	948785	keystroke	r	n/a
474.4675	0.105	948935	keystroke	e	n/a
474.6925	0.075	949385	keystroke	s	n/a
474.8425	0.075	949685	keystroke	Key.space	n/a
474.9185	0.104	949837	keystroke	c	n/a
475.0525	0.06	950105	keystroke	u	n/a
475.1575	0.06	950315	keystroke	r	n/a
475.3225	0.075	950645	keystroke	r	n/a
475.3825	0.105	950765	keystroke	e	n/a
475.5035	0.059	951007	keystroke	n	n/a
475.5775	0.06	951155	keystroke	t	n/a
475.6975	0.075	951395	keystroke	Key.space	n/a
475.9075	0.06	951815	keystroke	u	n/a
476.0125	0.075	952025	keystroke	s	n/a
476.1625	0.06	952325	keystroke	u	n/a
476.2525	0.09	952505	keystroke	a	n/a
476.387	0.06	952774	keystroke	l	n/a
476.522	0.075	953044	keystroke	l	n/a
476.702	0.135	953404	keystroke	y	n/a
476.777	0.135	953554	keystroke	Key.space	n/a
476.927	0.135	953854	keystroke	s	n/a
477.032	0.105	954064	keystroke	a	n/a
477.122	0.075	954244	keystroke	m	n/a
477.452	0.061	954904	keystroke	p	n/a
477.617	0.075	955234	keystroke	l	n/a
477.677	0.075	955354	keystroke	e	n/a
477.8575	0.0745	955715	keystroke	s	n/a
478.322	0.045	956644	keystroke	Key.enter	n/a
478.377	7.74	956754	prompt	n/a	stylus dominican fate heather\n
479.2675	0.075	958535	keystroke	s	n/a
479.4775	0.06	958955	keystroke	t	n/a
479.6275	0.045	959255	keystroke	y	n/a
479.8075	0.075	959615	keystroke	k	n/a
479.9875	0.06	959975	keystroke	u	n/a
480.4075	0.09	960815	keystroke	d	n/a
480.7675	0.045	961535	keystroke	Key.backspace	n/a
480.9625	0.0455	961925	keystroke	Key.backspace	n/a
481.157	0.06	962314	keystroke	Key.backspace	n/a
481.713	0.074	963426	keystroke	l	n/a
481.952	0.06	963904	keystroke	u	n/a
482.042	0.09	964084	keystroke	s	n/a
482.162	0.09	964324	keystroke	Key.space	n/a
482.342	0.1055	964684	keystroke	d	n/a
482.5075	0.045	965015	keystroke	o	n/a
482.6425	0.075	965285	keystroke	m	n/a
482.8225	0.06	965645	keystroke	i	n/a
482.9425	0.075	965885	keystroke	n	n/a
483.0775	0.075	966155	keystroke	i	n/a
483.2125	0.09	966425	keystroke	c	n/a
483.3475	0.09	966695	keystroke	a	n/a
483.4675	0.15	966935	keystroke	n	n/a
483.6325	0.06	967265	keystroke	Key.space	n/a
484.3525	0.045	968705	keystroke	f	n/a
484.4425	0.075	968885	keystroke	a	n/a
484.5625	0.06	969125	keystroke	t	n/a
484.6675	0.09	969335	keystroke	e	n/a
484.8025	0.105	969605	keystroke	Key.space	n/a
485.0425	0.075	970085	keystroke	h	n/a
485.1475	0.0755	970295	keystroke	e	n/a
485.328	0.09	970656	keystroke	a	n/a
485.568	0.045	971136	keystroke	t	n/a
485.628	0.075	971256	keystroke	h	n/a
485.733	0.09	971466	keystroke	e	n/a
485.778	0.12	971556	keystroke	r	n/a
486.033	0.075	972066	keystroke	Key.enter	n/a
486.122	8.29	972244	prompt	n/a	routines injuries maldives transit\n
487.173	0.075	974346	keystroke	r	n/a
487.263	0.12	974526	keystroke	o	n/a
487.338	0.105	974676	keystroke	u	n/a
487.503	0.06	975006	keystroke	t	n/a
487.593	0.045	975186	keystroke	i	n/a
487.818	0.075	975636	keystroke	n	n/a
487.908	0.075	975816	keystroke	e	n/a
488.103	0.09	976206	keystroke	s	n/a
488.253	0.09	976506	keystroke	Key.space	n/a
488.5225	0.075	977045	keystroke	i	n/a
488.7025	0.06	977405	keystroke	n	n/a
488.8375	0.075	977675	keystroke	j	n/a
489.002	0.061	978004	keystroke	u	n/a
489.152	0.076	978304	keystroke	r	n/a
489.3175	0.06	978635	keystroke	i	n/a
489.4075	0.09	978815	keystroke	e	n/a
489.6475	0.045	979295	keystroke	s	n/a
489.8425	0.075	979685	keystroke	Key.space	n/a
490.3075	0.075	980615	keystroke	m	n/a
490.4275	0.075	980855	keystroke	a	n/a
490.5475	0.06	981095	keystroke	l	n/a
490.668	0.0895	981336	keystroke	d	n/a
490.8175	0.06	981635	keystroke	i	n/a
490.9375	0.0295	981875	keystroke	c	n/a
491.717	0.06	983434	keystroke	Key.backspace	n/a
491.883	0.045	983766	keystroke	v	n/a
492.018	0.074	984036	keystroke	e	n/a
492.257	0.06	984514	keystroke	s	n/a
492.602	0.06	985204	keystroke	Key.space	n/a
492.902	0.0605	985804	keystroke	t	n/a
493.127	0.06	986254	keystroke	r	n/a
493.247	0.09	986494	keystroke	a	n/a
493.412	0.075	986824	keystroke	n	n/a
493.562	0.075	987124	keystroke	s	n/a
493.682	0.061	987364	keystroke	i	n/a
493.893	0.0445	987786	keystroke	t	n/a
494.342	0.0605	988684	keystroke	Key.enter	n/a
494.4165	6.8725	988833	prompt	n/a	shark long porter newcastle\n
495.317	0.045	990634	keystroke	s	n/a
495.438	0.059	990876	keystroke	h	n/a
495.513	0.075	991026	keystroke	a	n/a
495.722	0.045	991444	keystroke	r	n/a
495.872	0.15	991744	keystroke	k	n/a
495.962	0.105	991924	keystroke	Key.space	n/a
496.127	0.075	992254	keystroke	l	n/a
496.262	0.075	992524	keystroke	o	n/a
496.427	0.06	992854	keystroke	n	n/a
496.532	0.06	993064	keystroke	g	n/a
496.622	0.06	993244	keystroke	Key.space	n/a
496.772	0.105	993544	keystroke	p	n/a
496.832	0.12	993664	keystroke	o	n/a
496.982	0.0605	993964	keystroke	r	n/a
497.1475	0.06	994295	keystroke	t	n/a
497.3275	0.105	994655	keystroke	e	n/a
497.3875	0.1345	994775	keystroke	r	n/a
497.598	0.09	995196	keystroke	Key.space	n/a
497.868	0.075	995736	keystroke	n	n/a
498.003	0.075	996006	keystroke	e	n/a
498.228	0.09	996456	keystroke	w	n/a
498.5725	0.06	997145	keystroke	c	n/a
498.7375	0.06	997475	keystroke	a	n/a
498.9325	0.06	997865	keystroke	t	n/a
499.0975	0.045	998195	keystroke	t	n/a
499.2025	0.075	998405	keystroke	l	n/a
499.6375	0.06	999275	keystroke	Key.backspace	n/a
499.8775	0.06	999755	keystroke	Key.backspace	n/a
500.0875	0.06	1000175	keystroke	Key.backspace	n/a
500.5225	0.06	1001045	keystroke	s	n/a
500.7175	0.076	1001435	keystroke	t	n/a
500.8375	0.075	1001675	keystroke	l	n/a
500.9575	0.06	1001915	keystroke	e	n/a
501.2125	0.075	1002425	keystroke	Key.enter	n/a
501.292	5.592	1002584	prompt	n/a	cordless rich popularity sides\n
502.1125	0.06	1004225	keystroke	c	n/a
502.2175	0.06	1004435	keystroke	o	n/a
502.3525	0.06	1004705	keystroke	r	n/a
502.5625	0.045	1005125	keystroke	d	n/a
502.6975	0.045	1005395	keystroke	l	n/a
502.7435	0.074	1005487	keystroke	e	n/a
502.9675	0.045	1005935	keystroke	s	n/a
503.0875	0.075	1006175	keystroke	s	n/a
503.2375	0.075	1006475	keystroke	Key.space	n/a
503.4775	0.015	1006955	keystroke	r	n/a
503.5075	0.045	1007015	keystroke	i	n/a
503.7025	0.105	1007405	keystroke	c	n/a
503.7625	0.15	1007525	keystroke	h	n/a
503.8375	0.15	1007675	keystroke	Key.space	n/a
504.3325	0.12	1008665	keystroke	p	n/a
504.4075	0.12	1008815	keystroke	o	n/a
504.5725	0.09	1009145	keystroke	p	n/a
504.7975	0.06	1009595	keystroke	u	n/a
504.9775	0.075	1009955	keystroke	l	n/a
505.1125	0.06	1010225	keystroke	a	n/a
505.293	0.0595	1010586	keystroke	r	n/a
505.3975	0.075	1010795	keystroke	i	n/a
505.5475	0.06	1011095	keystroke	t	n/a
505.7575	0.105	1011515	keystroke	y	n/a
505.8175	0.15	1011635	keystroke	Key.space	n/a
506.3125	0.075	1012625	keystroke	s	n/a
506.4025	0.075	1012805	keystroke	i	n/a
506.4925	0.135	1012985	keystroke	d	n/a
506.5825	0.12	1013165	keystroke	e	n/a
506.8225	0.06	1013645	keystroke	Key.enter	n/a
506.888	8.7635	1013776	prompt	n/a	lens lang decor instrumentation\n
507.9625	0.06	1015925	keystroke	l	n/a
508.1275	0.045	1016255	keystroke	e	n/a
508.2475	0.075	1016495	keystroke	n	n/a
508.3675	0.075	1016735	keystroke	s	n/a
508.5925	0.075	1017185	keystroke	Key.space	n/a
509.0875	0.06	1018175	keystroke	l	n/a
509.1775	0.075	1018355	keystroke	a	n/a
509.2825	0.075	1018565	keystroke	n	n/a
509.3725	0.075	1018745	keystroke	d	n/a
509.5075	0.06	1019015	keystroke	Key.space	n/a
510.287	0.0455	1020574	keystroke	Key.backspace	n/a
510.4975	0.06	1020995	keystroke	Key.backspace	n/a
510.9775	0.075	1021955	keystroke	g	n/a
511.173	0.075	1022346	keystroke	Key.space	n/a
511.413	0.0895	1022826	keystroke	d	n/a
511.458	0.1195	1022916	keystroke	e	n/a
511.7425	0.09	1023485	keystroke	c	n/a
511.8625	0.075	1023725	keystroke	o	n/a
511.9975	0.075	1023995	keystroke	r	n/a
512.1625	0.06	1024325	keystroke	Key.space	n/a
512.958	0.075	1025916	keystroke	i	n/a
513.138	0.074	1026276	keystroke	n	n/a
513.378	0.075	1026756	keystroke	s	n/a
513.723	0.075	1027446	keystroke	t	n/a
513.933	0.045	1027866	keystroke	r	n/a
514.082	0.06	1028164	keystroke	u	n/a
514.3525	0.075	1028705	keystroke	m	n/a
514.4575	0.075	1028915	keystroke	e	n/a
514.5775	0.075	1029155	keystroke	n	n/a
514.6825	0.06	1029365	keystroke	t	n/a
514.8475	0.06	1029695	keystroke	a	n/a
515.0125	0.06	1030025	keystroke	t	n/a
515.0425	0.06	1030085	keystroke	i	n/a
515.1775	0.075	1030355	keystroke	o	n/a
515.3275	0.075	1030655	keystroke	n	n/a
515.5675	0.075	1031135	keystroke	Key.enter	n/a
515.6565	10.4805	1031313	prompt	n/a	douglas rhythm planners colored\n
516.602	0.06	1033204	keystroke	d	n/a
516.707	0.12	1033414	keystroke	o	n/a
516.797	0.1205	1033594	keystroke	u	n/a
517.023	0.075	1034046	keystroke	g	n/a
517.158	0.09	1034316	keystroke	l	n/a
517.263	0.105	1034526	keystroke	a	n/a
517.398	0.12	1034796	keystroke	s	n/a
517.548	0.074	1035096	keystroke	Key.space	n/a
518.192	0.046	1036384	keystroke	r	n/a
518.328	0.0445	1036656	keystroke	h	n/a
519.7075	0.045	1039415	keystroke	y	n/a
520.0675	0.09	1040135	keystroke	t	n/a
520.2625	0.0745	1040525	keystroke	h	n/a
520.622	0.0755	1041244	keystroke	m	n/a
520.9525	0.075	1041905	keystroke	Key.space	n/a
521.6575	0.105	1043315	keystroke	p	n/a
521.7175	0.105	1043435	keystroke	l	n/a
521.8225	0.075	1043645	keystroke	a	n/a
521.9875	0.045	1043975	keystroke	n	n/a
522.1075	0.06	1044215	keystroke	n	n/a
522.1825	0.075	1044365	keystroke	e	n/a
522.497	0.075	1044994	keystroke	r	n/a
522.647	0.105	1045294	keystroke	s	n/a
522.812	0.075	1045624	keystroke	Key.space	n/a
522.9775	0.09	1045955	keystroke	c	n/a
523.0825	0.045	1046165	keystroke	o	n/a
523.2325	0.06	1046465	keystroke	l	n/a
523.4425	0.06	1046885	keystroke	o	n/a
523.6525	0.075	1047305	keystroke	e	n/a
524.1475	0.03	1048295	keystroke	Key.backspace	n/a
524.3275	0.09	1048655	keystroke	r	n/a
524.4025	0.0905	1048805	keystroke	e	n/a
524.6425	0.075	1049285	keystroke	s	n/a
525.1825	0.075	1050365	keystroke	Key.backspace	n/a
525.3325	0.06	1050665	keystroke	d	n/a
526.0375	0.09	1052075	keystroke	Key.enter	n/a
526.1435	6.998	1052287	prompt	n/a	armor payments travelers blessed\n
527.133	0.045	1054266	keystroke	a	n/a
527.343	0.075	1054686	keystroke	r	n/a
527.508	0.06	1055016	keystroke	m	n/a
527.628	0.06	1055256	keystroke	o	n/a
527.718	0.06	1055436	keystroke	r	n/a
527.838	0.075	1055676	keystroke	Key.space	n/a
528.123	0.06	1056246	keystroke	p	n/a
528.228	0.03	1056456	keystroke	a	n/a
528.708	0.045	1057416	keystroke	y	n/a
528.843	0.075	1057686	keystroke	m	n/a
528.903	0.075	1057806	keystroke	e	n/a
529.022	0.06	1058044	keystroke	n	n/a
529.128	0.059	1058256	keystroke	t	n/a
529.247	0.075	1058494	keystroke	s	n/a
529.368	0.074	1058736	keystroke	Key.space	n/a
529.533	0.06	1059066	keystroke	t	n/a
529.712	0.061	1059424	keystroke	r	n/a
529.878	0.074	1059756	keystroke	a	n/a
530.043	0.03	1060086	keystroke	n	n/a
530.297	0.06	1060594	keystroke	Key.backspace	n/a
530.388	0.059	1060776	keystroke	v	n/a
530.552	0.06	1061104	keystroke	e	n/a
530.672	0.06	1061344	keystroke	l	n/a
530.747	0.075	1061494	keystroke	e	n/a
531.1975	0.0595	1062395	keystroke	r	n/a
531.422	0.075	1062844	keystroke	s	n/a
531.617	0.06	1063234	keystroke	Key.space	n/a
531.872	0.06	1063744	keystroke	b	n/a
532.052	0.075	1064104	keystroke	l	n/a
532.142	0.06	1064284	keystroke	e	n/a
532.337	0.06	1064674	keystroke	s	n/a
532.457	0.075	1064914	keystroke	s	n/a
532.637	0.045	1065274	keystroke	e	n/a
532.787	0.105	1065574	keystroke	d	n/a
533.057	0.075	1066114	keystroke	Key.enter	n/a
533.1515	6.3425	1066303	prompt	n/a	larger love cingular legends\n
534.032	0.06	1068064	keystroke	l	n/a
534.122	0.075	1068244	keystroke	a	n/a
534.332	0.045	1068664	keystroke	r	n/a
534.542	0.06	1069084	keystroke	g	n/a
534.737	0.105	1069474	keystroke	e	n/a
534.797	0.12	1069594	keystroke	r	n/a
534.962	0.075	1069924	keystroke	Key.space	n/a
535.112	0.075	1070224	keystroke	l	n/a
535.292	0.045	1070584	keystroke	o	n/a
535.412	0.105	1070824	keystroke	v	n/a
535.622	0.075	1071244	keystroke	e	n/a
535.757	0.075	1071514	keystroke	Key.space	n/a
536.5075	0.075	1073015	keystroke	c	n/a
536.6125	0.06	1073225	keystroke	i	n/a
536.7775	0.075	1073555	keystroke	n	n/a
536.8825	0.075	1073765	keystroke	g	n/a
537.0625	0.075	1074125	keystroke	u	n/a
537.2425	0.09	1074485	keystroke	l	n/a
537.3335	0.074	1074667	keystroke	a	n/a
537.4825	0.09	1074965	keystroke	r	n/a
537.6175	0.09	1075235	keystroke	Key.space	n/a
538.1875	0.045	1076375	keystroke	l	n/a
538.2475	0.03	1076495	keystroke	e	n/a
538.3975	0.06	1076795	keystroke	g	n/a
538.5475	0.06	1077095	keystroke	e	n/a
538.6675	0.075	1077335	keystroke	n	n/a
539.0575	0.15	1078115	keystroke	d	n/a
539.1175	0.135	1078235	keystroke	s	n/a
539.4175	0.075	1078835	keystroke	Key.enter	n/a
539.4965	8.345	1078993	prompt	n/a	accounts ridge plenty proud\n
540.1975	0.075	1080395	keystroke	a	n/a
540.393	0.075	1080786	keystroke	c	n/a
540.632	0.016	1081264	keystroke	c	n/a
540.662	0.091	1081324	keystroke	o	n/a
540.708	0.09	1081416	keystroke	u	n/a
540.903	0.075	1081806	keystroke	n	n/a
540.963	0.06	1081926	keystroke	t	n/a
541.128	0.044	1082256	keystroke	s	n/a
541.232	0.075	1082464	keystroke	Key.space	n/a
541.548	0.075	1083096	keystroke	r	n/a
541.682	0.076	1083364	keystroke	i	n/a
541.907	0.106	1083814	keystroke	d	n/a
542.147	0.045	1084294	keystroke	g	n/a
542.268	0.075	1084536	keystroke	e	n/a
542.4175	0.0895	1084835	keystroke	Key.space	n/a
542.642	0.075	1085284	keystroke	p	n/a
542.777	0.075	1085554	keystroke	l	n/a
542.867	0.06	1085734	keystroke	e	n/a
543.317	0.075	1086634	keystroke	n	n/a
543.452	0.076	1086904	keystroke	t	n/a
543.617	0.12	1087234	keystroke	y	n/a
543.707	0.1655	1087414	keystroke	Key.space	n/a
543.9925	0.045	1087985	keystroke	Key.space	n/a
544.4875	0.06	1088975	keystroke	Key.backspace	n/a
544.7575	0.015	1089515	keystroke	Key.backspace	n/a
545.522	0.09	1091044	keystroke	Key.space	n/a
545.852	0.06	1091704	keystroke	r	n/a
546.167	0.075	1092334	keystroke	Key.backspace	n/a
546.392	0.075	1092784	keystroke	p	n/a
546.7375	0.0905	1093475	keystroke	r	n/a
547.143	0.06	1094286	keystroke	o	n/a
547.248	0.075	1094496	keystroke	u	n/a
547.367	0.106	1094734	keystroke	d	n/a
547.758	0.075	1095516	keystroke	Key.enter	n/a
547.853	6.806	1095706	prompt	n/a	smile disclosure yang gifts\n
549.062	0.045	1098124	keystroke	s	n/a
549.152	0.06	1098304	keystroke	m	n/a
549.2875	0.075	1098575	keystroke	i	n/a
549.4675	0.06	1098935	keystroke	l	n/a
549.5575	0.075	1099115	keystroke	e	n/a
549.7675	0.09	1099535	keystroke	d	n/a
550.127	0.075	1100254	keystroke	Key.backspace	n/a
550.277	0.105	1100554	keystroke	Key.space	n/a
550.427	0.075	1100854	keystroke	d	n/a
550.517	0.09	1101034	keystroke	i	n/a
550.728	0.075	1101456	keystroke	s	n/a
551.207	0.091	1102414	keystroke	c	n/a
551.402	0.06	1102804	keystroke	l	n/a
551.582	0.06	1103164	keystroke	o	n/a
551.717	0.09	1103434	keystroke	s	n/a
551.912	0.09	1103824	keystroke	u	n/a
552.167	0.03	1104334	keystroke	r	n/a
552.182	0.075	1104364	keystroke	e	n/a
552.317	0.09	1104634	keystroke	Key.space	n/a
552.677	0.06	1105354	keystroke	y	n/a
552.932	0.0905	1105864	keystroke	a	n/a
553.052	0.06	1106104	keystroke	n	n/a
553.142	0.105	1106284	keystroke	d	n/a
553.277	0.06	1106554	keystroke	Key.space	n/a
553.457	0.045	1106914	keystroke	g	n/a
553.607	0.075	1107214	keystroke	i	n/a
553.742	0.105	1107484	keystroke	f	n/a
554.0425	0.06	1108085	keystroke	t	n/a
554.2225	0.045	1108445	keystroke	s	n/a
554.5975	0.06	1109195	keystroke	Key.enter	n/a
554.6665	9.135	1109333	prompt	n/a	pike glen cardiovascular capable\n
555.7825	0.045	1111565	keystroke	p	n/a
555.902	0.06	1111804	keystroke	i	n/a
556.067	0.06	1112134	keystroke	k	n/a
556.142	0.06	1112284	keystroke	e	n/a
556.262	0.075	1112524	keystroke	Key.space	n/a
557.147	0.06	1114294	keystroke	g	n/a
557.252	0.06	1114504	keystroke	l	n/a
557.342	0.075	1114684	keystroke	e	n/a
557.582	0.105	1115164	keystroke	n	n/a
557.672	0.135	1115344	keystroke	Key.space	n/a
558.302	0.015	1116604	keystroke	a	n/a
558.557	0.015	1117114	keystroke	Key.backspace	n/a
558.632	0.06	1117264	keystroke	c	n/a
558.782	0.0755	1117564	keystroke	a	n/a
558.9925	0.075	1117985	keystroke	r	n/a
559.8625	0.075	1119725	keystroke	d	n/a
560.0125	0.06	1120025	keystroke	i	n/a
560.1775	0.06	1120355	keystroke	o	n/a
560.4025	0.06	1120805	keystroke	v	n/a
560.5825	0.105	1121165	keystroke	a	n/a
561.1075	0.09	1122215	keystroke	s	n/a
561.3175	0.105	1122635	keystroke	c	n/a
561.5875	0.06	1123175	keystroke	u	n/a
561.8275	0.06	1123655	keystroke	l	n/a
561.9025	0.075	1123805	keystroke	a	n/a
562.0825	0.06	1124165	keystroke	r	n/a
562.1725	0.075	1124345	keystroke	Key.space	n/a
562.6825	0.045	1125365	keystroke	c	n/a
562.8475	0.06	1125695	keystroke	a	n/a
562.922	0.075	1125844	keystroke	p	n/a
563.042	0.09	1126084	keystroke	a	n/a
563.267	0.045	1126534	keystroke	b	n/a
563.432	0.075	1126864	keystroke	l	n/a
563.492	0.075	1126984	keystroke	e	n/a
563.732	0.06	1127464	keystroke	Key.enter	n/a
563.8145	11.867	1127629	prompt	n/a	adjusted founded fathers generate\n
564.5275	0.09	1129055	keystroke	a	n/a
564.8425	0.09	1129685	keystroke	d	n/a
565.0225	0.045	1130045	keystroke	j	n/a
565.1725	0.06	1130345	keystroke	u	n/a
566.103	0.06	1132206	keystroke	t	n/a
566.283	0.075	1132566	keystroke	e	n/a
567.002	0.0605	1134004	keystroke	Key.backspace	n/a
567.1975	0.06	1134395	keystroke	Key.backspace	n/a
567.3625	0.045	1134725	keystroke	s	n/a
567.5725	0.075	1135145	keystroke	t	n/a
567.7825	0.075	1135565	keystroke	e	n/a
567.9775	0.09	1135955	keystroke	d	n/a
568.1575	0.075	1136315	keystroke	Key.space	n/a
568.712	0.09	1137424	keystroke	f	n/a
568.847	0.105	1137694	keystroke	o	n/a
568.922	0.075	1137844	keystroke	u	n/a
569.117	0.075	1138234	keystroke	n	n/a
569.177	0.09	1138354	keystroke	d	n/a
569.222	0.15	1138444	keystroke	e	n/a
569.387	0.12	1138774	keystroke	d	n/a
569.582	0.105	1139164	keystroke	Key.space	n/a
570.1975	0.015	1140395	keystroke	f	n/a
570.3175	0.0605	1140635	keystroke	a	n/a
570.438	0.06	1140876	keystroke	t	n/a
570.618	0.06	1141236	keystroke	h	n/a
570.693	0.06	1141386	keystroke	e	n/a
570.723	0.1045	1141446	keystroke	r	n/a
570.8425	0.105	1141685	keystroke	e	n/a
571.0675	0.0745	1142135	keystroke	s	n/a
571.233	0.075	1142466	keystroke	Key.space	n/a
572.7175	0.06	1145435	keystroke	Key.backspace	n/a
572.9275	0.075	1145855	keystroke	Key.backspace	n/a
573.1525	0.075	1146305	keystroke	Key.backspace	n/a
574.0525	0.075	1148105	keystroke	s	n/a
574.1575	0.105	1148315	keystroke	Key.space	n/a
574.4125	0.06	1148825	keystroke	g	n/a
574.4875	0.075	1148975	keystroke	e	n/a
574.5775	0.09	1149155	keystroke	n	n/a
574.6825	0.06	1149365	keystroke	e	n/a
574.907	0.045	1149814	keystroke	r	n/a
575.087	0.075	1150174	keystroke	a	n/a
575.297	0.075	1150594	keystroke	t	n/a
575.327	0.09	1150654	keystroke	e	n/a
575.582	0.09	1151164	keystroke	Key.enter	n/a
575.696	7.53	1151392	prompt	n/a	pregnant record advised websites\n
576.677	0.0755	1153354	keystroke	p	n/a
576.7675	0.105	1153535	keystroke	r	n/a
576.8275	0.09	1153655	keystroke	e	n/a
577.037	0.06	1154074	keystroke	g	n/a
577.217	0.06	1154434	keystroke	n	n/a
577.292	0.06	1154584	keystroke	a	n/a
577.382	0.06	1154764	keystroke	n	n/a
577.562	0.06	1155124	keystroke	t	n/a
577.682	0.09	1155364	keystroke	Key.space	n/a
578.267	0.18	1156534	keystroke	r	n/a
578.432	0.03	1156864	keystroke	e	n/a
578.5675	0.0595	1157135	keystroke	c	n/a
578.672	0.03	1157344	keystroke	o	n/a
578.837	0.075	1157674	keystroke	r	n/a
579.018	0.059	1158036	keystroke	d	n/a
579.137	0.06	1158274	keystroke	Key.space	n/a
579.213	0.089	1158426	keystroke	a	n/a
579.408	0.075	1158816	keystroke	d	n/a
579.677	0.076	1159354	keystroke	v	n/a
579.857	0.076	1159714	keystroke	i	n/a
579.978	0.104	1159956	keystroke	c	n/a
580.067	0.075	1160134	keystroke	e	n/a
580.367	0.06	1160734	keystroke	Key.backspace	n/a
580.547	0.075	1161094	keystroke	Key.backspace	n/a
580.682	0.075	1161364	keystroke	s	n/a
580.862	0.06	1161724	keystroke	e	n/a
581.1325	0.105	1162265	keystroke	d	n/a
581.3125	0.075	1162625	keystroke	Key.space	n/a
581.9725	0.09	1163945	keystroke	w	n/a
582.1375	0.09	1164275	keystroke	e	n/a
582.2875	0.0745	1164575	keystroke	b	n/a
582.422	0.09	1164844	keystroke	s	n/a
582.527	0.075	1165054	keystroke	i	n/a
582.677	0.075	1165354	keystroke	t	n/a
582.767	0.09	1165534	keystroke	e	n/a
582.962	0.09	1165924	keystroke	s	n/a
583.127	0.09	1166254	keystroke	Key.enter	n/a
583.2305	7.5565	1166461	prompt	n/a	katie bedding referred junior\n
584.252	0.12	1168504	keystroke	k	n/a
584.387	0.015	1168774	keystroke	a	n/a
584.567	0.075	1169134	keystroke	t	n/a
584.7325	0.0145	1169465	keystroke	i	n/a
584.868	0.075	1169736	keystroke	e	n/a
585.002	0.0905	1170004	keystroke	Key.space	n/a
585.3775	0.045	1170755	keystroke	b	n/a
585.4225	0.06	1170845	keystroke	e	n/a
585.6025	0.09	1171205	keystroke	d	n/a
585.7825	0.06	1171565	keystroke	d	n/a
585.8575	0.06	1171715	keystroke	i	n/a
585.9775	0.09	1171955	keystroke	n	n/a
586.0525	0.105	1172105	keystroke	g	n/a
586.1875	0.09	1172375	keystroke	Key.space	n/a
586.352	0.135	1172704	keystroke	r	n/a
586.442	0.105	1172884	keystroke	e	n/a
586.667	0.075	1173334	keystroke	f	n/a
586.832	0.075	1173664	keystroke	f	n/a
586.952	0.0755	1173904	keystroke	e	n/a
587.3725	0.045	1174745	keystroke	Key.backspace	n/a
587.567	0.045	1175134	keystroke	Key.backspace	n/a
587.747	0.0905	1175494	keystroke	e	n/a
587.9725	0.075	1175945	keystroke	r	n/a
588.1675	0.045	1176335	keystroke	r	n/a
588.3325	0.0895	1176665	keystroke	e	n/a
588.527	0.09	1177054	keystroke	d	n/a
588.737	0.0755	1177474	keystroke	Key.space	n/a
589.202	0.045	1178404	keystroke	j	n/a
589.352	0.075	1178704	keystroke	u	n/a
589.562	0.0455	1179124	keystroke	n	n/a
589.697	0.045	1179394	keystroke	i	n/a
589.832	0.06	1179664	keystroke	o	n/a
590.477	0.075	1180954	keystroke	e	n/a
590.702	0.075	1181404	keystroke	Key.enter	n/a
590.7915	9.2055	1181583	prompt	n/a	stanley proper worse renaissance\n
592.667	0.075	1185334	keystroke	s	n/a
592.877	0.045	1185754	keystroke	t	n/a
592.937	0.075	1185874	keystroke	a	n/a
593.072	0.075	1186144	keystroke	n	n/a
593.267	0.06	1186534	keystroke	l	n/a
593.447	0.06	1186894	keystroke	e	n/a
593.552	0.135	1187104	keystroke	y	n/a
593.642	0.135	1187284	keystroke	Key.space	n/a
594.017	0.075	1188034	keystroke	p	n/a
594.227	0.03	1188454	keystroke	r	n/a
595.532	0.045	1191064	keystroke	o	n/a
595.652	0.075	1191304	keystroke	p	n/a
595.757	0.12	1191514	keystroke	e	n/a
595.817	0.151	1191634	keystroke	r	n/a
596.057	0.075	1192114	keystroke	Key.space	n/a
596.372	0.18	1192744	keystroke	w	n/a
596.567	0.06	1193134	keystroke	o	n/a
596.732	0.0455	1193464	keystroke	r	n/a
596.9275	0.0895	1193855	keystroke	s	n/a
597.107	0.075	1194214	keystroke	e	n/a
597.227	0.09	1194454	keystroke	Key.space	n/a
597.692	0.12	1195384	keystroke	r	n/a
597.753	0.119	1195506	keystroke	e	n/a
598.263	0.014	1196526	keystroke	n	n/a
598.292	0.06	1196584	keystroke	a	n/a
598.4275	0.075	1196855	keystroke	i	n/a
598.5475	0.09	1197095	keystroke	s	n/a
598.7425	0.12	1197485	keystroke	s	n/a
598.8775	0.09	1197755	keystroke	a	n/a
599.1025	0.06	1198205	keystroke	n	n/a
599.2975	0.075	1198595	keystroke	c	n/a
599.3425	0.105	1198685	keystroke	e	n/a
599.912	0.075	1199824	keystroke	Key.enter	n/a
600.0015	9.745	1200003	prompt	n/a	endorsement algorithms hunt commodities\n
600.962	0.06	1201924	keystroke	e	n/a
601.0825	0.0745	1202165	keystroke	n	n/a
601.337	0.06	1202674	keystroke	d	n/a
601.412	0.06	1202824	keystroke	o	n/a
601.577	0.09	1203154	keystroke	r	n/a
601.862	0.03	1203724	keystroke	s	n/a
601.967	0.06	1203934	keystroke	e	n/a
602.192	0.06	1204384	keystroke	m	n/a
602.267	0.09	1204534	keystroke	e	n/a
602.387	0.06	1204774	keystroke	n	n/a
602.477	0.06	1204954	keystroke	t	n/a
602.627	0.075	1205254	keystroke	Key.space	n/a
603.032	0.06	1206064	keystroke	a	n/a
603.332	0.09	1206664	keystroke	l	n/a
603.647	0.06	1207294	keystroke	g	n/a
603.752	0.0905	1207504	keystroke	o	n/a
603.9325	0.075	1207865	keystroke	r	n/a
604.1275	0.09	1208255	keystroke	t	n/a
604.5175	0.045	1209035	keystroke	Key.backspace	n/a
604.7275	0.075	1209455	keystroke	i	n/a
604.8175	0.105	1209635	keystroke	t	n/a
604.9825	0.06	1209965	keystroke	h	n/a
605.508	0.06	1211016	keystroke	m	n/a
605.762	0.091	1211524	keystroke	s	n/a
605.927	0.075	1211854	keystroke	Key.space	n/a
606.8575	0.045	1213715	keystroke	h	n/a
606.9775	0.075	1213955	keystroke	u	n/a
607.1725	0.045	1214345	keystroke	n	n/a
607.2475	0.09	1214495	keystroke	t	n/a
607.4125	0.075	1214825	keystroke	Key.space	n/a
607.6525	0.09	1215305	keystroke	c	n/a
607.7425	0.075	1215485	keystroke	o	n/a
607.8925	0.075	1215785	keystroke	m	n/a
608.0275	0.09	1216055	keystroke	m	n/a
608.1925	0.105	1216385	keystroke	o	n/a
608.837	0.045	1217674	keystroke	d	n/a
608.897	0.015	1217794	keystroke	i	n/a
608.9725	0.0895	1217945	keystroke	t	n/a
609.077	0.045	1218154	keystroke	i	n/a
609.257	0.075	1218514	keystroke	e	n/a
609.467	0.06	1218934	keystroke	s	n/a
609.677	0.06	1219354	keystroke	Key.enter	n/a
609.7545	7.6725	1219509	prompt	n/a	auctions mechanics build colorado\n
610.502	0.075	1221004	keystroke	a	n/a
610.832	0.06	1221664	keystroke	u	n/a
611.012	0.06	1222024	keystroke	s	n/a
611.312	0.06	1222624	keystroke	Key.backspace	n/a
611.417	0.075	1222834	keystroke	c	n/a
611.612	0.075	1223224	keystroke	t	n/a
611.702	0.045	1223404	keystroke	i	n/a
611.852	0.06	1223704	keystroke	o	n/a
612.0175	0.06	1224035	keystroke	n	n/a
612.0625	0.075	1224125	keystroke	s	n/a
612.242	0.06	1224484	keystroke	Key.space	n/a
612.7525	0.06	1225505	keystroke	m	n/a
612.8725	0.075	1225745	keystroke	e	n/a
613.1275	0.09	1226255	keystroke	c	n/a
613.2325	0.045	1226465	keystroke	h	n/a
613.3225	0.075	1226645	keystroke	a	n/a
613.4125	0.06	1226825	keystroke	n	n/a
613.5475	0.06	1227095	keystroke	i	n/a
613.9675	0.105	1227935	keystroke	c	n/a
614.0425	0.12	1228085	keystroke	s	n/a
614.2225	0.09	1228445	keystroke	Key.space	n/a
614.4925	0.075	1228985	keystroke	b	n/a
614.6725	0.075	1229345	keystroke	u	n/a
614.9125	0.06	1229825	keystroke	i	n/a
615.092	0.045	1230184	keystroke	l	n/a
615.152	0.12	1230304	keystroke	d	n/a
615.347	0.075	1230694	keystroke	Key.space	n/a
615.7975	0.075	1231595	keystroke	c	n/a
615.9325	0.06	1231865	keystroke	o	n/a
