onset	duration	sample	value	key	prompt_text
3.6345	47.9535	7269	prompt	n/a	the quick brown fox jumps over a lazy dog\n
39.6155	0.136	79231	keystroke	t	n/a
39.8035	0.115	79607	keystroke	h	n/a
40.1565	0.136	80313	keystroke	e	n/a
40.3135	0.114	80627	keystroke	Key.space	n/a
41.1865	0.136	82373	keystroke	q	n/a
41.3945	0.092	82789	keystroke	u	n/a
41.5835	0.114	83167	keystroke	i	n/a
41.7945	0.137	83589	keystroke	c	n/a
41.9895	0.164	83979	keystroke	k	n/a
42.1545	0.111	84309	keystroke	Key.space	n/a
42.4015	0.09	84803	keystroke	b	n/a
42.6035	0.092	85207	keystroke	e	n/a
43.0665	0.158	86133	keystroke	Key.backspace	n/a
43.2465	0.115	86493	keystroke	r	n/a
43.5835	0.115	87167	keystroke	w	n/a
43.7205	0.161	87441	keystroke	o	n/a
44.2025	0.114	88405	keystroke	Key.backspace	n/a
44.4015	0.09	88803	keystroke	Key.backspace	n/a
44.561	0.1375	89122	keystroke	o	n/a
44.6995	0.157	89399	keystroke	w	n/a
44.8785	0.16	89757	keystroke	n	n/a
45.0715	0.1145	90143	keystroke	Key.space	n/a
45.8785	0.115	91757	keystroke	f	n/a
46.0955	0.1335	92191	keystroke	o	n/a
46.454	0.16	92908	keystroke	x	n/a
46.615	0.133	93230	keystroke	Key.space	n/a
46.845	0.093	93690	keystroke	j	n/a
47.029	0.091	94058	keystroke	u	n/a
47.257	0.1155	94514	keystroke	m	n/a
47.4475	0.138	94895	keystroke	p	n/a
47.5865	0.158	95173	keystroke	s	n/a
47.6955	0.117	95391	keystroke	Key.space	n/a
47.8595	0.0915	95719	keystroke	o	n/a
48.146	0.1135	96292	keystroke	v	n/a
48.2365	0.135	96473	keystroke	e	n/a
48.452	0.091	96904	keystroke	r	n/a
48.544	0.135	97088	keystroke	Key.space	n/a
48.765	0.204	97530	keystroke	a	n/a
48.945	0.115	97890	keystroke	Key.space	n/a
49.367	0.136	98734	keystroke	l	n/a
49.568	0.159	99136	keystroke	a	n/a
50.108	0.159	100216	keystroke	z	n/a
50.317	0.1355	100634	keystroke	y	n/a
50.4895	0.094	100979	keystroke	Key.space	n/a
50.7205	0.118	101441	keystroke	d	n/a
50.8975	0.114	101795	keystroke	o	n/a
51.202	0.09	102404	keystroke	g	n/a
51.45	0.136	102900	keystroke	Key.enter	n/a
51.592	11.0445	103184	prompt	n/a	first hurricane lonely tragedy\n
52.647	0.159	105294	keystroke	f	n/a
52.858	0.115	105716	keystroke	i	n/a
52.974	0.135	105948	keystroke	r	n/a
53.275	0.161	106550	keystroke	s	n/a
53.412	0.163	106824	keystroke	t	n/a
53.576	0.132	107152	keystroke	Key.space	n/a
53.77	0.088	107540	keystroke	h	n/a
53.952	0.09	107904	keystroke	u	n/a
54.21	0.114	108420	keystroke	r	n/a
54.454	0.113	108908	keystroke	i	n/a
54.625	0.138	109250	keystroke	c	n/a
55.387	0.115	110774	keystroke	Key.backspace	n/a
56.4545	0.136	112909	keystroke	t	n/a
56.818	0.0925	113636	keystroke	Key.backspace	n/a
56.9955	0.069	113991	keystroke	Key.backspace	n/a
57.0405	0.114	114081	keystroke	t	n/a
57.2335	0.112	114467	keystroke	i	n/a
57.7035	0.093	115407	keystroke	Key.backspace	n/a
57.8735	0.091	115747	keystroke	Key.backspace	n/a
58.3885	0.091	116777	keystroke	r	n/a
58.5745	0.07	117149	keystroke	i	n/a
58.7115	0.137	117423	keystroke	c	n/a
58.9625	0.159	117925	keystroke	a	n/a
59.0965	0.092	118193	keystroke	n	n/a
59.2795	0.114	118559	keystroke	e	n/a
59.4425	0.115	118885	keystroke	Key.space	n/a
59.7995	0.113	119599	keystroke	l	n/a
59.9975	0.069	119995	keystroke	o	n/a
60.183	0.09	120366	keystroke	n	n/a
60.296	0.116	120592	keystroke	e	n/a
60.433	0.09	120866	keystroke	l	n/a
60.647	0.068	121294	keystroke	y	n/a
60.798	0.091	121596	keystroke	Key.space	n/a
61.404	0.115	122808	keystroke	t	n/a
61.577	0.096	123154	keystroke	r	n/a
61.695	0.157	123390	keystroke	a	n/a
61.853	0.089	123706	keystroke	g	n/a
61.963	0.112	123926	keystroke	e	n/a
62.194	0.092	124388	keystroke	d	n/a
62.287	0.069	124574	keystroke	y	n/a
62.541	0.094	125082	keystroke	Key.enter	n/a
62.6395	10.796	125279	prompt	n/a	cottage inquiries qualification dare\n
63.4545	0.117	126909	keystroke	c	n/a
63.6425	0.07	127285	keystroke	p	n/a
63.6435	0.093	127287	keystroke	o	n/a
64.4625	0.115	128925	keystroke	Key.backspace	n/a
64.6385	0.091	129277	keystroke	Key.backspace	n/a
65.0515	0.093	130103	keystroke	o	n/a
65.3175	0.134	130635	keystroke	t	n/a
65.5255	0.092	131051	keystroke	t	n/a
65.6495	0.137	131299	keystroke	a	n/a
65.7875	0.069	131575	keystroke	g	n/a
65.8875	0.115	131775	keystroke	e	n/a
66.0245	0.091	132049	keystroke	Key.space	n/a
66.705	0.071	133410	keystroke	i	n/a
66.913	0.07	133826	keystroke	n	n/a
67.194	0.159	134388	keystroke	q	n/a
67.449	0.09	134898	keystroke	u	n/a
67.617	0.071	135234	keystroke	i	n/a
67.7305	0.114	135461	keystroke	r	n/a
67.9745	0.089	135949	keystroke	e	n/a
68.1785	0.112	136357	keystroke	s	n/a
68.3205	0.091	136641	keystroke	Key.space	n/a
69.115	0.137	138230	keystroke	q	n/a
69.313	0.18	138626	keystroke	i	n/a
69.784	0.113	139568	keystroke	Key.backspace	n/a
70.023	0.09	140046	keystroke	u	n/a
70.134	0.157	140268	keystroke	a	n/a
70.292	0.134	140584	keystroke	l	n/a
70.447	0.0695	140894	keystroke	i	n/a
70.6975	0.113	141395	keystroke	f	n/a
70.8695	0.069	141739	keystroke	i	n/a
71.0945	0.113	142189	keystroke	c	n/a
71.3375	0.1375	142675	keystroke	a	n/a
71.451	0.071	142902	keystroke	t	n/a
71.7085	0.093	143417	keystroke	i	n/a
71.838	0.093	143676	keystroke	o	n/a
72.019	0.092	144038	keystroke	n	n/a
72.158	0.1135	144316	keystroke	s	n/a
72.2725	0.067	144545	keystroke	Key.space	n/a
72.5185	0.115	145037	keystroke	d	n/a
72.7385	0.159	145477	keystroke	a	n/a
72.9485	0.092	145897	keystroke	r	n/a
73.1175	0.1365	146235	keystroke	e	n/a
73.32	0.113	146640	keystroke	Key.enter	n/a
73.4385	5.7115	146877	prompt	n/a	resort brokers larry inch\n
74.21	0.115	148420	keystroke	r	n/a
74.425	0.0915	148850	keystroke	e	n/a
74.6265	0.113	149253	keystroke	s	n/a
74.7405	0.068	149481	keystroke	o	n/a
74.9405	0.09	149881	keystroke	r	n/a
75.1005	0.07	150201	keystroke	t	n/a
75.2595	0.092	150519	keystroke	Key.space	n/a
75.7515	0.071	151503	keystroke	b	n/a
75.9125	0.115	151825	keystroke	r	n/a
76.0575	0.113	152115	keystroke	o	n/a
76.2295	0.092	152459	keystroke	k	n/a
76.3225	0.09	152645	keystroke	e	n/a
76.5015	0.091	153003	keystroke	r	n/a
76.7505	0.093	153501	keystroke	s	n/a
76.8195	0.115	153639	keystroke	Key.space	n/a
77.0575	0.112	154115	keystroke	l	n/a
77.1705	0.1355	154341	keystroke	a	n/a
77.41	0.092	154820	keystroke	r	n/a
77.583	0.092	155166	keystroke	r	n/a
77.676	0.093	155352	keystroke	y	n/a
77.865	0.067	155730	keystroke	Key.space	n/a
78.3225	0.091	156645	keystroke	i	n/a
78.552	0.091	157104	keystroke	n	n/a
78.755	0.161	157510	keystroke	c	n/a
78.89	0.071	157780	keystroke	h	n/a
79.079	0.07	158158	keystroke	Key.enter	n/a
79.153	10.075	158306	prompt	n/a	engineering captain locale surrounding\n
79.9805	0.1365	159961	keystroke	e	n/a
80.252	0.114	160504	keystroke	n	n/a
80.479	0.069	160958	keystroke	g	n/a
80.637	0.091	161274	keystroke	i	n/a
80.82	0.093	161640	keystroke	n	n/a
80.948	0.069	161896	keystroke	e	n/a
81.087	0.114	162174	keystroke	e	n/a
81.302	0.0695	162604	keystroke	r	n/a
81.393	0.093	162786	keystroke	i	n/a
81.554	0.091	163108	keystroke	n	n/a
81.757	0.114	163514	keystroke	g	n/a
81.902	0.089	163804	keystroke	Key.space	n/a
82.022	0.138	164044	keystroke	c	n/a
82.3055	0.136	164611	keystroke	a	n/a
82.5475	0.113	165095	keystroke	p	n/a
82.856	0.094	165712	keystroke	t	n/a
83.052	0.094	166104	keystroke	a	n/a
83.185	0.114	166370	keystroke	i	n/a
83.392	0.091	166784	keystroke	n	n/a
83.529	0.091	167058	keystroke	Key.space	n/a
84.311	0.115	168622	keystroke	l	n/a
84.512	0.093	169024	keystroke	o	n/a
84.627	0.11	169254	keystroke	c	n/a
84.838	0.161	169676	keystroke	a	n/a
84.974	0.094	169948	keystroke	l	n/a
85.113	0.134	170226	keystroke	e	n/a
85.248	0.088	170496	keystroke	Key.space	n/a
85.955	0.139	171910	keystroke	s	n/a
86.125	0.047	172250	keystroke	u	n/a
86.728	0.0955	173456	keystroke	r	n/a
86.9405	0.069	173881	keystroke	r	n/a
87.0695	0.112	174139	keystroke	o	n/a
87.9235	0.069	175847	keystroke	u	n/a
88.1215	0.07	176243	keystroke	n	n/a
88.232	0.116	176464	keystroke	d	n/a
88.371	0.09	176742	keystroke	i	n/a
88.535	0.09	177070	keystroke	n	n/a
88.733	0.091	177466	keystroke	g	n/a
88.959	0.135	177918	keystroke	s	n/a
89.136	0.09	178272	keystroke	Key.enter	n/a
89.231	9.3645	178462	prompt	n/a	nasdaq candidates adopt organ\n
90.263	0.07	180526	keystroke	n	n/a
90.393	0.1795	180786	keystroke	a	n/a
90.6765	0.114	181353	keystroke	s	n/a
90.9705	0.092	181941	keystroke	d	n/a
91.1855	0.117	182371	keystroke	a	n/a
91.4485	0.159	182897	keystroke	q	n/a
91.7195	0.117	183439	keystroke	Key.space	n/a
92.469	0.094	184938	keystroke	c	n/a
92.595	0.1595	185190	keystroke	a	n/a
92.7755	0.093	185551	keystroke	n	n/a
92.9855	0.158	185971	keystroke	d	n/a
93.2045	0.07	186409	keystroke	i	n/a
94.136	0.162	188272	keystroke	d	n/a
94.384	0.183	188768	keystroke	a	n/a
94.772	0.094	189544	keystroke	t	n/a
94.915	0.092	189830	keystroke	e	n/a
95.12	0.113	190240	keystroke	s	n/a
95.234	0.092	190468	keystroke	Key.space	n/a
95.381	0.134	190762	keystroke	a	n/a
96.089	0.133	192178	keystroke	d	n/a
96.35	0.091	192700	keystroke	o	n/a
96.471	0.136	192942	keystroke	p	n/a
96.739	0.116	193478	keystroke	t	n/a
96.877	0.092	193754	keystroke	Key.space	n/a
97.063	0.117	194126	keystroke	o	n/a
97.7285	0.161	195457	keystroke	r	n/a
97.9615	0.091	195923	keystroke	g	n/a
98.0745	0.162	196149	keystroke	a	n/a
98.2865	0.09	196573	keystroke	n	n/a
98.5275	0.066	197055	keystroke	Key.enter	n/a
98.5985	7.4525	197197	prompt	n/a	arlington icons stores halo\n
99.476	0.157	198952	keystroke	a	n/a
99.719	0.115	199438	keystroke	r	n/a
99.9395	0.158	199879	keystroke	l	n/a
100.1595	0.1135	200319	keystroke	i	n/a
100.4535	0.114	200907	keystroke	n	n/a
100.6755	0.092	201351	keystroke	g	n/a
100.8725	0.07	201745	keystroke	t	n/a
101.0875	0.094	202175	keystroke	o	n/a
101.3215	0.116	202643	keystroke	n	n/a
101.4385	0.112	202877	keystroke	Key.space	n/a
101.7285	0.139	203457	keystroke	i	n/a
101.9275	0.137	203855	keystroke	c	n/a
102.0655	0.089	204131	keystroke	o	n/a
102.2865	0.092	204573	keystroke	n	n/a
103.052	0.1575	206104	keystroke	s	n/a
103.2305	0.094	206461	keystroke	Key.space	n/a
103.782	0.138	207564	keystroke	s	n/a
104.063	0.091	208126	keystroke	t	n/a
104.293	0.113	208586	keystroke	o	n/a
104.475	0.068	208950	keystroke	r	n/a
104.639	0.115	209278	keystroke	e	n/a
104.859	0.117	209718	keystroke	s	n/a
104.951	0.092	209902	keystroke	Key.space	n/a
105.332	0.09	210664	keystroke	h	n/a
105.48	0.137	210960	keystroke	a	n/a
105.593	0.093	211186	keystroke	l	n/a
105.767	0.091	211534	keystroke	o	n/a
105.979	0.07	211958	keystroke	Key.enter	n/a
106.055	12.7295	212110	prompt	n/a	membership iron alive ross\n
106.6775	0.137	213355	keystroke	m	n/a
106.8155	0.119	213631	keystroke	e	n/a
106.9355	0.089	213871	keystroke	m	n/a
107.0455	0.159	214091	keystroke	e	n/a
107.2055	0.154	214411	keystroke	b	n/a
107.5005	0.113	215001	keystroke	e	n/a
107.6945	0.066	215389	keystroke	r	n/a
107.9295	0.138	215859	keystroke	s	n/a
108.0905	0.07	216181	keystroke	h	n/a
108.2965	0.09	216593	keystroke	i	n/a
108.4825	0.136	216965	keystroke	p	n/a
108.6555	0.114	217311	keystroke	Key.space	n/a
108.9815	0.094	217963	keystroke	i	n/a
109.2085	0.117	218417	keystroke	r	n/a
109.3685	0.158	218737	keystroke	o	n/a
109.6905	0.093	219381	keystroke	Key.backspace	n/a
109.8645	0.072	219729	keystroke	Key.backspace	n/a
110.054	0.046	220108	keystroke	Key.backspace	n/a
111.8105	0.09	223621	keystroke	Key.backspace	n/a
111.9745	0.071	223949	keystroke	Key.backspace	n/a
112.113	0.07	224226	keystroke	Key.backspace	n/a
112.2475	0.067	224495	keystroke	Key.backspace	n/a
112.368	0.0675	224736	keystroke	Key.backspace	n/a
112.494	0.0695	224988	keystroke	Key.backspace	n/a
112.5995	0.094	225199	keystroke	Key.backspace	n/a
112.7865	0.114	225573	keystroke	Key.backspace	n/a
113.0005	0.157	226001	keystroke	Key.backspace	n/a
113.6525	0.091	227305	keystroke	b	n/a
113.7735	0.112	227547	keystroke	e	n/a
113.9565	0.091	227913	keystroke	r	n/a
114.1845	0.136	228369	keystroke	s	n/a
114.3425	0.07	228685	keystroke	h	n/a
114.5355	0.069	229071	keystroke	i	n/a
114.7425	0.155	229485	keystroke	p	n/a
114.9205	0.071	229841	keystroke	Key.space	n/a
115.6445	0.089	231289	keystroke	i	n/a
115.7715	0.113	231543	keystroke	r	n/a
115.9055	0.097	231811	keystroke	o	n/a
116.1125	0.114	232225	keystroke	n	n/a
116.2485	0.113	232497	keystroke	Key.space	n/a
116.771	0.16	233542	keystroke	a	n/a
116.932	0.159	233864	keystroke	l	n/a
117.092	0.089	234184	keystroke	i	n/a
117.37	0.115	234740	keystroke	v	n/a
117.523	0.115	235046	keystroke	e	n/a
117.66	0.0905	235320	keystroke	Key.space	n/a
118.049	0.113	236098	keystroke	r	n/a
118.2255	0.092	236451	keystroke	o	n/a
118.3625	0.068	236725	keystroke	s	n/a
118.5245	0.115	237049	keystroke	s	n/a
118.6915	0.091	237383	keystroke	Key.enter	n/a
118.7875	9.656	237575	prompt	n/a	jaguar discover anthropology near\n
119.7615	0.068	239523	keystroke	h	n/a
120.1455	0.1375	240291	keystroke	Key.backspace	n/a
120.436	0.093	240872	keystroke	j	n/a
120.563	0.136	241126	keystroke	a	n/a
120.779	0.091	241558	keystroke	g	n/a
120.944	0.094	241888	keystroke	u	n/a
121.039	0.158	242078	keystroke	a	n/a
121.294	0.141	242588	keystroke	r	n/a
121.476	0.115	242952	keystroke	Key.space	n/a
122.007	0.156	244014	keystroke	d	n/a
122.2405	0.07	244481	keystroke	i	n/a
122.5165	0.135	245033	keystroke	s	n/a
122.8125	0.114	245625	keystroke	c	n/a
122.9275	0.092	245855	keystroke	o	n/a
123.1995	0.093	246399	keystroke	v	n/a
123.3145	0.094	246629	keystroke	e	n/a
123.4995	0.069	246999	keystroke	r	n/a
123.6035	0.072	247207	keystroke	Key.space	n/a
124.685	0.137	249370	keystroke	a	n/a
124.844	0.116	249688	keystroke	n	n/a
125.127	0.069	250254	keystroke	t	n/a
125.2945	0.094	250589	keystroke	h	n/a
125.4215	0.113	250843	keystroke	r	n/a
125.6235	0.114	251247	keystroke	o	n/a
125.8255	0.09	251651	keystroke	p	n/a
126.1445	0.091	252289	keystroke	o	n/a
126.4085	0.068	252817	keystroke	l	n/a
126.5805	0.071	253161	keystroke	o	n/a
126.88	0.092	253760	keystroke	g	n/a
127.071	0.09	254142	keystroke	y	n/a
127.199	0.113	254398	keystroke	Key.space	n/a
127.654	0.113	255308	keystroke	n	n/a
127.788	0.158	255576	keystroke	e	n/a
127.996	0.139	255992	keystroke	a	n/a
128.194	0.091	256388	keystroke	r	n/a
128.328	0.114	256656	keystroke	Key.enter	n/a
128.446	7.836	256892	prompt	n/a	discussion languages december todd\n
129.3345	0.1125	258669	keystroke	d	n/a
129.526	0.069	259052	keystroke	i	n/a
129.617	0.112	259234	keystroke	s	n/a
129.872	0.069	259744	keystroke	c	n/a
130.008	0.116	260016	keystroke	u	n/a
130.197	0.067	260394	keystroke	s	n/a
130.342	0.093	260684	keystroke	s	n/a
130.457	0.093	260914	keystroke	i	n/a
130.579	0.115	261158	keystroke	o	n/a
130.788	0.114	261576	keystroke	n	n/a
130.923	0.093	261846	keystroke	Key.space	n/a
131.516	0.091	263032	keystroke	l	n/a
131.673	0.135	263346	keystroke	a	n/a
131.763	0.091	263526	keystroke	n	n/a
131.98	0.0935	263960	keystroke	g	n/a
132.1495	0.115	264299	keystroke	u	n/a
132.2395	0.139	264479	keystroke	a	n/a
132.3555	0.091	264711	keystroke	g	n/a
132.4835	0.093	264967	keystroke	e	n/a
132.6975	0.116	265395	keystroke	s	n/a
132.8355	0.091	265671	keystroke	Key.space	n/a
133.545	0.114	267090	keystroke	d	n/a
133.7595	0.1135	267519	keystroke	e	n/a
133.874	0.091	267748	keystroke	c	n/a
133.995	0.115	267990	keystroke	e	n/a
134.184	0.134	268368	keystroke	m	n/a
134.433	0.0915	268866	keystroke	b	n/a
134.5455	0.092	269091	keystroke	e	n/a
134.7295	0.092	269459	keystroke	r	n/a
134.8225	0.111	269645	keystroke	Key.space	n/a
135.4005	0.113	270801	keystroke	t	n/a
135.6245	0.114	271249	keystroke	o	n/a
135.9185	0.091	271837	keystroke	d	n/a
136.0715	0.1155	272143	keystroke	d	n/a
136.2105	0.07	272421	keystroke	Key.enter	n/a
136.285	8.4485	272570	prompt	n/a	bless systematic instruments trustee\n
137.445	0.025	274890	keystroke	n	n/a
137.446	0.071	274892	keystroke	b	n/a
137.67	0.119	275340	keystroke	l	n/a
137.79	0.114	275580	keystroke	e	n/a
138.0695	0.069	276139	keystroke	s	n/a
138.2305	0.115	276461	keystroke	s	n/a
138.3465	0.067	276693	keystroke	Key.space	n/a
138.6405	0.131	277281	keystroke	s	n/a
138.9455	0.092	277891	keystroke	y	n/a
139.0385	0.112	278077	keystroke	s	n/a
139.1515	0.09	278303	keystroke	t	n/a
139.2985	0.112	278597	keystroke	e	n/a
139.4545	0.092	278909	keystroke	m	n/a
139.6715	0.112	279343	keystroke	a	n/a
139.8845	0.1165	279769	keystroke	t	n/a
140.096	0.1145	280192	keystroke	i	n/a
140.2555	0.116	280511	keystroke	c	n/a
140.4015	0.09	280803	keystroke	Key.space	n/a
140.5905	0.092	281181	keystroke	i	n/a
140.7945	0.113	281589	keystroke	n	n/a
140.9085	0.134	281817	keystroke	s	n/a
141.0655	0.092	282131	keystroke	t	n/a
141.2295	0.067	282459	keystroke	r	n/a
141.429	0.114	282858	keystroke	u	n/a
141.663	0.114	283326	keystroke	m	n/a
141.798	0.116	283596	keystroke	e	n/a
141.915	0.066	283830	keystroke	n	n/a
142.09	0.0715	284180	keystroke	t	n/a
142.2565	0.113	284513	keystroke	s	n/a
142.37	0.112	284740	keystroke	Key.space	n/a
143.048	0.093	286096	keystroke	t	n/a
143.246	0.045	286492	keystroke	r	n/a
143.516	0.114	287032	keystroke	u	n/a
143.632	0.137	287264	keystroke	s	n/a
143.744	0.072	287488	keystroke	t	n/a
143.91	0.114	287820	keystroke	e	n/a
144.451	0.115	288902	keystroke	e	n/a
144.642	0.0905	289284	keystroke	Key.enter	n/a
144.7365	9.2645	289473	prompt	n/a	gotta postcards bacteria toshiba\n
145.633	0.07	291266	keystroke	g	n/a
145.868	0.16	291736	keystroke	o	n/a
146.122	0.092	292244	keystroke	t	n/a
146.3615	0.161	292723	keystroke	t	n/a
147.689	0.162	295378	keystroke	a	n/a
147.852	0.135	295704	keystroke	Key.space	n/a
148.214	0.203	296428	keystroke	p	n/a
148.439	0.094	296878	keystroke	o	n/a
148.565	0.134	297130	keystroke	s	n/a
148.73	0.091	297460	keystroke	t	n/a
149.0445	0.117	298089	keystroke	c	n/a
149.2755	0.134	298551	keystroke	a	n/a
149.5105	0.113	299021	keystroke	r	n/a
149.7485	0.134	299497	keystroke	d	n/a
149.9775	0.1365	299955	keystroke	s	n/a
150.136	0.0935	300272	keystroke	Key.space	n/a
150.5995	0.091	301199	keystroke	b	n/a
150.7125	0.092	301425	keystroke	a	n/a
150.937	0.093	301874	keystroke	c	n/a
151.064	0.09	302128	keystroke	t	n/a
151.208	0.093	302416	keystroke	e	n/a
151.362	0.112	302724	keystroke	r	n/a
151.529	0.138	303058	keystroke	i	n/a
151.69	0.116	303380	keystroke	a	n/a
151.807	0.09	303614	keystroke	Key.space	n/a
152.557	0.091	305114	keystroke	t	n/a
152.81	0.158	305620	keystroke	o	n/a
153.02	0.114	306040	keystroke	s	n/a
153.277	0.091	306554	keystroke	h	n/a
153.463	0.091	306926	keystroke	i	n/a
153.666	0.094	307332	keystroke	b	n/a
153.821	0.135	307642	keystroke	a	n/a
153.931	0.069	307862	keystroke	Key.enter	n/a
154.0045	9.0745	308009	prompt	n/a	lawrence math inclusion mysimon\n
154.8115	0.07	309623	keystroke	l	n/a
154.9805	0.182	309961	keystroke	a	n/a
155.1855	0.115	310371	keystroke	w	n/a
155.4525	0.091	310905	keystroke	r	n/a
155.631	0.113	311262	keystroke	e	n/a
155.798	0.1145	311596	keystroke	n	n/a
155.9665	0.0925	311933	keystroke	c	n/a
156.1775	0.0955	312355	keystroke	e	n/a
156.2745	0.089	312549	keystroke	Key.space	n/a
156.461	0.093	312922	keystroke	m	n/a
156.555	0.11	313110	keystroke	a	n/a
156.7015	0.1165	313403	keystroke	t	n/a
156.935	0.116	313870	keystroke	h	n/a
157.074	0.112	314148	keystroke	Key.space	n/a
158.2015	0.072	316403	keystroke	i	n/a
158.4805	0.092	316961	keystroke	n	n/a
158.7345	0.113	317469	keystroke	c	n/a
158.8695	0.116	317739	keystroke	l	n/a
159.0525	0.1155	318105	keystroke	u	n/a
159.248	0.16	318496	keystroke	s	n/a
159.517	0.182	319034	keystroke	i	n/a
159.7	0.114	319400	keystroke	o	n/a
159.925	0.114	319850	keystroke	n	n/a
160.079	0.091	320158	keystroke	Key.space	n/a
160.406	0.204	320812	keystroke	m	n/a
161.471	0.138	322942	keystroke	y	n/a
161.779	0.1595	323558	keystroke	s	n/a
162.1705	0.09	324341	keystroke	i	n/a
162.4285	0.114	324857	keystroke	m	n/a
162.5655	0.117	325131	keystroke	o	n/a
162.7655	0.092	325531	keystroke	n	n/a
162.9855	0.0925	325971	keystroke	Key.enter	n/a
163.082	9.197	326164	prompt	n/a	persons shipped enhanced happiness\n
164.0025	0.09	328005	keystroke	p	n/a
164.1755	0.068	328351	keystroke	r	n/a
164.5455	0.093	329091	keystroke	Key.backspace	n/a
164.6595	0.092	329319	keystroke	e	n/a
164.8465	0.071	329693	keystroke	r	n/a
165.066	0.114	330132	keystroke	s	n/a
165.182	0.113	330364	keystroke	o	n/a
165.4045	0.115	330809	keystroke	n	n/a
165.934	0.137	331868	keystroke	s	n/a
166.072	0.112	332144	keystroke	Key.space	n/a
166.4445	0.113	332889	keystroke	s	n/a
166.5795	0.092	333159	keystroke	h	n/a
166.7975	0.136	333595	keystroke	i	n/a
167.0565	0.091	334113	keystroke	p	n/a
167.2005	0.1155	334401	keystroke	p	n/a
167.29	0.093	334580	keystroke	e	n/a
167.498	0.092	334996	keystroke	d	n/a
167.625	0.114	335250	keystroke	Key.space	n/a
167.912	0.091	335824	keystroke	e	n/a
168.08	0.1145	336160	keystroke	n	n/a
168.2785	0.093	336557	keystroke	h	n/a
168.3725	0.158	336745	keystroke	a	n/a
168.7115	0.161	337423	keystroke	n	n/a
168.9345	0.114	337869	keystroke	c	n/a
169.1915	0.067	338383	keystroke	e	n/a
169.3825	0.093	338765	keystroke	d	n/a
169.5195	0.138	339039	keystroke	Key.space	n/a
170.5885	0.07	341177	keystroke	h	n/a
170.7415	0.159	341483	keystroke	a	n/a
170.9525	0.091	341905	keystroke	p	n/a
171.118	0.1145	342236	keystroke	p	n/a
171.2715	0.137	342543	keystroke	i	n/a
171.5375	0.092	343075	keystroke	n	n/a
171.6585	0.116	343317	keystroke	e	n/a
171.9245	0.07	343849	keystroke	s	n/a
172.0605	0.115	344121	keystroke	s	n/a
172.206	0.071	344412	keystroke	Key.enter	n/a
172.2825	10.4275	344565	prompt	n/a	summary source effectively golf\n
172.905	0.159	345810	keystroke	s	n/a
173.109	0.094	346218	keystroke	u	n/a
173.399	0.069	346798	keystroke	m	n/a
173.52	0.116	347040	keystroke	m	n/a
173.611	0.137	347222	keystroke	a	n/a
173.843	0.138	347686	keystroke	r	n/a
174.0555	0.114	348111	keystroke	y	n/a
174.2055	0.116	348411	keystroke	Key.space	n/a
174.4055	0.114	348811	keystroke	s	n/a
174.5425	0.135	349085	keystroke	o	n/a
174.7105	0.091	349421	keystroke	u	n/a
175.2005	0.114	350401	keystroke	c	n/a
175.3835	0.092	350767	keystroke	r	n/a
175.6985	0.137	351397	keystroke	e	n/a
175.9105	0.093	351821	keystroke	Key.space	n/a
176.365	0.093	352730	keystroke	Key.backspace	n/a
176.535	0.07	353070	keystroke	Key.backspace	n/a
176.702	0.091	353404	keystroke	Key.backspace	n/a
176.871	0.07	353742	keystroke	Key.backspace	n/a
176.942	0.135	353884	keystroke	r	n/a
177.218	0.137	354436	keystroke	c	n/a
177.469	0.1595	354938	keystroke	e	n/a
177.6295	0.112	355259	keystroke	Key.space	n/a
177.884	0.1355	355768	keystroke	e	n/a
178.1905	0.089	356381	keystroke	f	n/a
178.3685	0.093	356737	keystroke	f	n/a
178.5805	0.093	357161	keystroke	e	n/a
178.8115	0.138	357623	keystroke	c	n/a
178.9715	0.07	357943	keystroke	t	n/a
179.7695	0.091	359539	keystroke	i	n/a
180.0905	0.157	360181	keystroke	v	n/a
180.3265	0.113	360653	keystroke	e	n/a
180.4625	0.138	360925	keystroke	l	n/a
180.681	0.157	361362	keystroke	y	n/a
180.8595	0.093	361719	keystroke	Key.space	n/a
181.682	0.091	363364	keystroke	g	n/a
181.926	0.111	363852	keystroke	o	n/a
182.1295	0.114	364259	keystroke	l	n/a
182.4245	0.115	364849	keystroke	f	n/a
182.5945	0.114	365189	keystroke	Key.enter	n/a
182.7135	7.3605	365427	prompt	n/a	watch modular modules newsletter\n
183.3425	0.162	366685	keystroke	w	n/a
183.5745	0.139	367149	keystroke	a	n/a
183.7145	0.089	367429	keystroke	t	n/a
183.8685	0.14	367737	keystroke	c	n/a
184.0295	0.138	368059	keystroke	h	n/a
184.1415	0.116	368283	keystroke	Key.space	n/a
184.6205	0.092	369241	keystroke	m	n/a
184.7995	0.091	369599	keystroke	o	n/a
184.9475	0.136	369895	keystroke	d	n/a
185.1285	0.114	370257	keystroke	u	n/a
185.3365	0.115	370673	keystroke	l	n/a
185.4745	0.136	370949	keystroke	a	n/a
185.7155	0.138	371431	keystroke	r	n/a
185.8745	0.115	371749	keystroke	Key.space	n/a
186.1055	0.117	372211	keystroke	m	n/a
186.2895	0.114	372579	keystroke	o	n/a
186.4265	0.14	372853	keystroke	d	n/a
186.6205	0.069	373241	keystroke	u	n/a
187.0085	0.115	374017	keystroke	l	n/a
187.1455	0.113	374291	keystroke	e	n/a
187.3805	0.137	374761	keystroke	s	n/a
187.5185	0.066	375037	keystroke	Key.space	n/a
187.9995	0.112	375999	keystroke	n	n/a
188.1585	0.113	376317	keystroke	e	n/a
188.3785	0.094	376757	keystroke	w	n/a
188.5875	0.134	377175	keystroke	s	n/a
188.8115	0.113	377623	keystroke	l	n/a
189.2685	0.115	378537	keystroke	e	n/a
189.4385	0.07	378877	keystroke	t	n/a
189.5615	0.091	379123	keystroke	t	n/a
189.6295	0.09	379259	keystroke	e	n/a
189.8305	0.07	379661	keystroke	r	n/a
189.981	0.0915	379962	keystroke	Key.enter	n/a
190.0765	6.788	380153	prompt	n/a	bowl helena additions pursue\n
190.7895	0.0915	381579	keystroke	b	n/a
191.0105	0.09	382021	keystroke	o	n/a
191.137	0.114	382274	keystroke	w	n/a
191.273	0.113	382546	keystroke	l	n/a
191.421	0.09	382842	keystroke	Key.space	n/a
192.036	0.092	384072	keystroke	h	n/a
192.186	0.1365	384372	keystroke	e	n/a
192.3235	0.092	384647	keystroke	l	n/a
192.4165	0.111	384833	keystroke	e	n/a
192.5675	0.0915	385135	keystroke	n	n/a
192.803	0.138	385606	keystroke	a	n/a
192.964	0.091	385928	keystroke	Key.space	n/a
193.347	0.138	386694	keystroke	a	n/a
193.615	0.091	387230	keystroke	d	n/a
193.771	0.117	387542	keystroke	d	n/a
193.864	0.093	387728	keystroke	i	n/a
194.108	0.094	388216	keystroke	t	n/a
194.474	0.136	388948	keystroke	i	n/a
194.632	0.114	389264	keystroke	o	n/a
194.855	0.14	389710	keystroke	n	n/a
195.0155	0.115	390031	keystroke	s	n/a
195.1315	0.089	390263	keystroke	Key.space	n/a
195.548	0.1585	391096	keystroke	p	n/a
195.8205	0.071	391641	keystroke	u	n/a
195.9885	0.116	391977	keystroke	r	n/a
196.2405	0.1415	392481	keystroke	s	n/a
196.335	0.1365	392670	keystroke	u	n/a
196.6275	0.113	393255	keystroke	e	n/a
196.7725	0.091	393545	keystroke	Key.enter	n/a
196.868	8.412	393736	prompt	n/a	alignment revolutionary listing nested\n
197.702	0.1355	395404	keystroke	a	n/a
197.8675	0.138	395735	keystroke	l	n/a
198.0065	0.088	396013	keystroke	i	n/a
198.252	0.092	396504	keystroke	g	n/a
198.484	0.095	396968	keystroke	n	n/a
198.831	0.112	397662	keystroke	m	n/a
198.974	0.112	397948	keystroke	e	n/a
199.087	0.114	398174	keystroke	n	n/a
199.3665	0.094	398733	keystroke	t	n/a
199.5345	0.09	399069	keystroke	Key.space	n/a
200.0435	0.091	400087	keystroke	r	n/a
200.234	0.0925	400468	keystroke	e	n/a
200.4925	0.0905	400985	keystroke	v	n/a
200.639	0.093	401278	keystroke	o	n/a
200.839	0.113	401678	keystroke	l	n/a
201.017	0.089	402034	keystroke	u	n/a
201.411	0.139	402822	keystroke	t	n/a
201.573	0.091	403146	keystroke	i	n/a
201.72	0.091	403440	keystroke	o	n/a
201.908	0.114	403816	keystroke	n	n/a
202.044	0.138	404088	keystroke	a	n/a
202.294	0.161	404588	keystroke	r	n/a
202.477	0.135	404954	keystroke	y	n/a
202.634	0.092	405268	keystroke	Key.space	n/a
202.85	0.141	405700	keystroke	l	n/a
203.057	0.114	406114	keystroke	i	n/a
203.203	0.112	406406	keystroke	s	n/a
203.36	0.114	406720	keystroke	t	n/a
203.57	0.138	407140	keystroke	i	n/a
203.791	0.093	407582	keystroke	n	n/a
203.981	0.115	407962	keystroke	g	n/a
204.097	0.134	408194	keystroke	s	n/a
204.162	0.116	408324	keystroke	Key.space	n/a
204.345	0.117	408690	keystroke	n	n/a
204.438	0.068	408876	keystroke	e	n/a
204.6325	0.14	409265	keystroke	s	n/a
204.7245	0.116	409449	keystroke	t	n/a
204.8825	0.069	409765	keystroke	e	n/a
205.0525	0.091	410105	keystroke	d	n/a
205.1445	0.134	410289	keystroke	Key.enter	n/a
205.2845	8.104	410569	prompt	n/a	inflation west educators types\n
206.0165	0.07	412033	keystroke	i	n/a
206.2885	0.111	412577	keystroke	n	n/a
206.5355	0.074	413071	keystroke	f	n/a
206.7445	0.112	413489	keystroke	l	n/a
206.7675	0.135	413535	keystroke	a	n/a
207.0155	0.114	414031	keystroke	t	n/a
207.3145	0.114	414629	keystroke	i	n/a
207.4295	0.113	414859	keystroke	o	n/a
207.6305	0.115	415261	keystroke	n	n/a
207.7755	0.112	415551	keystroke	Key.space	n/a
207.9795	0.116	415959	keystroke	w	n/a
208.219	0.069	416438	keystroke	e	n/a
208.392	0.137	416784	keystroke	s	n/a
208.506	0.094	417012	keystroke	t	n/a
208.649	0.093	417298	keystroke	Key.space	n/a
209.009	0.139	418018	keystroke	e	n/a
209.283	0.112	418566	keystroke	d	n/a
209.418	0.091	418836	keystroke	u	n/a
209.54	0.114	419080	keystroke	c	n/a
209.761	0.1625	419522	keystroke	a	n/a
209.855	0.0925	419710	keystroke	t	n/a
210.0495	0.092	420099	keystroke	o	n/a
210.1755	0.136	420351	keystroke	r	n/a
211.8305	0.16	423661	keystroke	s	n/a
212.0305	0.162	424061	keystroke	Key.space	n/a
212.344	0.112	424688	keystroke	t	n/a
212.59	0.092	425180	keystroke	y	n/a
212.82	0.117	425640	keystroke	p	n/a
212.959	0.0925	425918	keystroke	e	n/a
213.138	0.137	426276	keystroke	s	n/a
213.276	0.111	426552	keystroke	Key.enter	n/a
213.3915	7.222	426783	prompt	n/a	theorem liver posters craps\n
214.2865	0.112	428573	keystroke	t	n/a
214.4905	0.112	428981	keystroke	h	n/a
214.5795	0.141	429159	keystroke	e	n/a
214.7785	0.137	429557	keystroke	o	n/a
214.9615	0.071	429923	keystroke	r	n/a
215.1435	0.116	430287	keystroke	e	n/a
215.2605	0.154	430521	keystroke	m	n/a
215.4375	0.089	430875	keystroke	Key.space	n/a
215.8105	0.139	431621	keystroke	l	n/a
215.9715	0.113	431943	keystroke	i	n/a
216.2705	0.114	432541	keystroke	v	n/a
216.4595	0.07	432919	keystroke	e	n/a
216.6225	0.092	433245	keystroke	r	n/a
216.7365	0.111	433473	keystroke	Key.space	n/a
216.8775	0.161	433755	keystroke	p	n/a
217.0775	0.135	434155	keystroke	o	n/a
217.2435	0.14	434487	keystroke	s	n/a
217.4155	0.092	434831	keystroke	t	n/a
217.6575	0.1585	435315	keystroke	c	n/a
218.231	0.091	436462	keystroke	Key.backspace	n/a
218.343	0.115	436686	keystroke	e	n/a
218.573	0.069	437146	keystroke	r	n/a
218.768	0.115	437536	keystroke	s	n/a
218.884	0.09	437768	keystroke	Key.space	n/a
219.069	0.112	438138	keystroke	c	n/a
219.311	0.111	438622	keystroke	r	n/a
219.526	0.14	439052	keystroke	a	n/a
219.667	0.135	439334	keystroke	p	n/a
220.316	0.136	440632	keystroke	s	n/a
220.475	0.137	440950	keystroke	Key.enter	n/a
220.617	5.709	441234	prompt	n/a	evans slave costumes papers\n
221.418	0.137	442836	keystroke	e	n/a
221.642	0.115	443284	keystroke	v	n/a
221.778	0.182	443556	keystroke	a	n/a
221.935	0.139	443870	keystroke	n	n/a
222.05	0.135	444100	keystroke	s	n/a
222.163	0.091	444326	keystroke	Key.space	n/a
222.56	0.093	445120	keystroke	s	n/a
222.677	0.135	445354	keystroke	l	n/a
222.813	0.137	445626	keystroke	a	n/a
222.984	0.1345	445968	keystroke	v	n/a
223.1505	0.112	446301	keystroke	e	n/a
223.3055	0.135	446611	keystroke	Key.space	n/a
223.7585	0.0935	447517	keystroke	c	n/a
223.9125	0.114	447825	keystroke	o	n/a
224.0615	0.1395	448123	keystroke	s	n/a
224.202	0.112	448404	keystroke	t	n/a
224.451	0.112	448902	keystroke	u	n/a
224.694	0.096	449388	keystroke	m	n/a
224.791	0.109	449582	keystroke	e	n/a
224.991	0.117	449982	keystroke	s	n/a
225.083	0.092	450166	keystroke	Key.space	n/a
225.232	0.093	450464	keystroke	p	n/a
225.301	0.161	450602	keystroke	a	n/a
225.438	0.093	450876	keystroke	p	n/a
225.532	0.113	451064	keystroke	e	n/a
225.772	0.0915	451544	keystroke	r	n/a
226.0485	0.162	452097	keystroke	s	n/a
226.1855	0.139	452371	keystroke	Key.enter	n/a
226.3285	9.8265	452657	prompt	n/a	virtually motels create premier\n
227.1435	0.1135	454287	keystroke	v	n/a
227.7075	0.118	455415	keystroke	i	n/a
227.9145	0.136	455829	keystroke	r	n/a
228.1715	0.0935	456343	keystroke	t	n/a
228.591	0.07	457182	keystroke	u	n/a
229.049	0.136	458098	keystroke	a	n/a
229.208	0.115	458416	keystroke	l	n/a
229.38	0.094	458760	keystroke	l	n/a
229.576	0.114	459152	keystroke	y	n/a
229.741	0.116	459482	keystroke	Key.space	n/a
230.0075	0.116	460015	keystroke	m	n/a
230.1895	0.113	460379	keystroke	o	n/a
230.3995	0.092	460799	keystroke	t	n/a
230.5145	0.156	461029	keystroke	a	n/a
230.9685	0.116	461937	keystroke	Key.backspace	n/a
231.1465	0.116	462293	keystroke	e	n/a
231.3335	0.0695	462667	keystroke	k	n/a
231.5445	0.1335	463089	keystroke	s	n/a
231.679	0.114	463358	keystroke	Key.space	n/a
232.194	0.093	464388	keystroke	Key.backspace	n/a
232.377	0.092	464754	keystroke	Key.backspace	n/a
232.564	0.048	465128	keystroke	Key.backspace	n/a
232.794	0.138	465588	keystroke	l	n/a
233.008	0.135	466016	keystroke	s	n/a
233.144	0.1145	466288	keystroke	Key.space	n/a
233.3985	0.137	466797	keystroke	c	n/a
233.8625	0.089	467725	keystroke	r	n/a
234.0405	0.093	468081	keystroke	e	n/a
234.2125	0.164	468425	keystroke	a	n/a
234.3275	0.094	468655	keystroke	t	n/a
234.4435	0.137	468887	keystroke	e	n/a
234.6025	0.136	469205	keystroke	Key.space	n/a
234.9255	0.115	469851	keystroke	p	n/a
235.1595	0.113	470319	keystroke	r	n/a
235.3585	0.091	470717	keystroke	e	n/a
235.4715	0.113	470943	keystroke	m	n/a
235.6465	0.117	471293	keystroke	i	n/a
235.7645	0.092	471529	keystroke	e	n/a
235.9495	0.071	471899	keystroke	r	n/a
236.0625	0.09	472125	keystroke	Key.enter	n/a
236.1575	8.3775	472315	prompt	n/a	swing look comparative holdem\n
236.7515	0.117	473503	keystroke	s	n/a
236.9785	0.116	473957	keystroke	w	n/a
237.1345	0.093	474269	keystroke	i	n/a
237.3785	0.091	474757	keystroke	n	n/a
237.5705	0.114	475141	keystroke	g	n/a
237.7095	0.138	475419	keystroke	Key.space	n/a
237.9225	0.094	475845	keystroke	l	n/a
238.1335	0.092	476267	keystroke	o	n/a
238.2925	0.093	476585	keystroke	o	n/a
238.4225	0.092	476845	keystroke	k	n/a
238.5825	0.112	477165	keystroke	Key.space	n/a
239.0295	0.135	478059	keystroke	c	n/a
239.2035	0.115	478407	keystroke	o	n/a
239.4055	0.1145	478811	keystroke	m	n/a
239.623	0.091	479246	keystroke	p	n/a
239.786	0.16	479572	keystroke	a	n/a
240.323	0.095	480646	keystroke	r	n/a
240.511	0.137	481022	keystroke	a	n/a
240.715	0.092	481430	keystroke	t	n/a
240.899	0.116	481798	keystroke	i	n/a
241.151	0.136	482302	keystroke	v	n/a
241.376	0.114	482752	keystroke	e	n/a
241.604	0.114	483208	keystroke	l	n/a
242.0315	0.137	484063	keystroke	Key.backspace	n/a
242.2965	0.139	484593	keystroke	Key.space	n/a
243.378	0.138	486756	keystroke	h	n/a
243.636	0.092	487272	keystroke	o	n/a
243.827	0.095	487654	keystroke	l	n/a
243.923	0.089	487846	keystroke	d	n/a
244.101	0.115	488202	keystroke	e	n/a
244.238	0.115	488476	keystroke	m	n/a
244.464	0.07	488928	keystroke	Key.enter	n/a
244.538	7.777	489076	prompt	n/a	studied boat suppose admit\n
246.016	0.137	492032	keystroke	s	n/a
246.4325	0.115	492865	keystroke	t	n/a
246.6905	0.112	493381	keystroke	u	n/a
246.8635	0.137	493727	keystroke	d	n/a
247.0215	0.071	494043	keystroke	i	n/a
247.2105	0.135	494421	keystroke	e	n/a
247.4415	0.115	494883	keystroke	d	n/a
247.5895	0.069	495179	keystroke	Key.space	n/a
248.52	0.093	497040	keystroke	b	n/a
248.752	0.091	497504	keystroke	o	n/a
248.875	0.1605	497750	keystroke	a	n/a
249.3195	0.158	498639	keystroke	t	n/a
249.5125	0.138	499025	keystroke	Key.space	n/a
249.8445	0.161	499689	keystroke	s	n/a
250.0745	0.091	500149	keystroke	u	n/a
250.2815	0.092	500563	keystroke	p	n/a
250.446	0.091	500892	keystroke	p	n/a
250.513	0.095	501026	keystroke	o	n/a
250.609	0.135	501218	keystroke	s	n/a
250.849	0.119	501698	keystroke	e	n/a
250.969	0.114	501938	keystroke	Key.space	n/a
251.215	0.16	502430	keystroke	a	n/a
251.41	0.116	502820	keystroke	d	n/a
251.527	0.092	503054	keystroke	m	n/a
251.715	0.091	503430	keystroke	i	n/a
251.96	0.09	503920	keystroke	t	n/a
252.222	0.092	504444	keystroke	Key.enter	n/a
252.318	7.9815	504636	prompt	n/a	referenced diving points initial\n
253.023	0.117	506046	keystroke	r	n/a
253.275	0.089	506550	keystroke	e	n/a
253.719	0.093	507438	keystroke	f	n/a
253.914	0.115	507828	keystroke	e	n/a
254.131	0.069	508262	keystroke	r	n/a
254.282	0.137	508564	keystroke	e	n/a
254.4835	0.114	508967	keystroke	n	n/a
254.6215	0.135	509243	keystroke	c	n/a
254.8635	0.092	509727	keystroke	e	n/a
255.0475	0.092	510095	keystroke	d	n/a
255.1885	0.094	510377	keystroke	Key.space	n/a
255.4265	0.09	510853	keystroke	Key.backspace	n/a
255.6865	0.114	511373	keystroke	Key.space	n/a
256.027	0.07	512054	keystroke	d	n/a
256.184	0.091	512368	keystroke	i	n/a
256.4485	0.094	512897	keystroke	v	n/a
256.5645	0.07	513129	keystroke	i	n/a
256.7905	0.0915	513581	keystroke	n	n/a
256.9715	0.0915	513943	keystroke	g	n/a
257.1275	0.114	514255	keystroke	Key.space	n/a
257.3565	0.18	514713	keystroke	p	n/a
257.5685	0.092	515137	keystroke	o	n/a
257.7375	0.09	515475	keystroke	i	n/a
257.9455	0.092	515891	keystroke	n	n/a
258.1635	0.0905	516327	keystroke	t	n/a
258.312	0.206	516624	keystroke	s	n/a
258.494	0.1135	516988	keystroke	Key.space	n/a
258.9315	0.097	517863	keystroke	i	n/a
259.1665	0.091	518333	keystroke	n	n/a
259.4165	0.071	518833	keystroke	t	n/a
259.6295	0.139	519259	keystroke	i	n/a
259.8175	0.135	519635	keystroke	a	n/a
259.9755	0.117	519951	keystroke	l	n/a
260.208	0.09	520416	keystroke	Key.enter	n/a
260.3025	10.4525	520605	prompt	n/a	obligations stomach governments engines\n
261.221	0.0705	522442	keystroke	o	n/a
261.5015	0.094	523003	keystroke	b	n/a
261.7385	0.136	523477	keystroke	l	n/a
261.8755	0.068	523751	keystroke	i	n/a
262.0805	0.114	524161	keystroke	g	n/a
262.1955	0.137	524391	keystroke	a	n/a
262.3085	0.114	524617	keystroke	t	n/a
262.5815	0.139	525163	keystroke	i	n/a
262.7215	0.114	525443	keystroke	o	n/a
262.9175	0.117	525835	keystroke	n	n/a
263.0965	0.162	526193	keystroke	s	n/a
263.2595	0.113	526519	keystroke	Key.space	n/a
263.4135	0.137	526827	keystroke	s	n/a
263.5515	0.067	527103	keystroke	t	n/a
263.7635	0.092	527527	keystroke	i	n/a
264.455	0.134	528910	keystroke	Key.backspace	n/a
264.96	0.119	529920	keystroke	o	n/a
265.219	0.091	530438	keystroke	m	n/a
265.349	0.137	530698	keystroke	a	n/a
265.658	0.07	531316	keystroke	c	n/a
265.763	0.0925	531526	keystroke	h	n/a
265.9035	0.116	531807	keystroke	Key.space	n/a
266.709	0.094	533418	keystroke	g	n/a
266.932	0.0925	533864	keystroke	o	n/a
267.198	0.0915	534396	keystroke	v	n/a
267.3115	0.112	534623	keystroke	e	n/a
267.5185	0.113	535037	keystroke	r	n/a
267.9975	0.091	535995	keystroke	n	n/a
268.1925	0.09	536385	keystroke	m	n/a
268.3125	0.136	536625	keystroke	e	n/a
268.4255	0.092	536851	keystroke	n	n/a
268.6245	0.091	537249	keystroke	t	n/a
268.8035	0.114	537607	keystroke	s	n/a
268.9495	0.068	537899	keystroke	Key.space	n/a
269.3785	0.1365	538757	keystroke	e	n/a
269.622	0.114	539244	keystroke	n	n/a
269.848	0.071	539696	keystroke	g	n/a
270.018	0.093	540036	keystroke	i	n/a
270.24	0.069	540480	keystroke	n	n/a
270.332	0.069	540664	keystroke	e	n/a
270.5265	0.113	541053	keystroke	s	n/a
270.6625	0.091	541325	keystroke	Key.enter	n/a
270.7575	7.473	541515	prompt	n/a	transfers train submit needs\n
271.566	0.093	543132	keystroke	t	n/a
271.777	0.09	543554	keystroke	r	n/a
271.889	0.159	543778	keystroke	a	n/a
272.093	0.1145	544186	keystroke	n	n/a
272.2585	0.114	544517	keystroke	s	n/a
272.5135	0.092	545027	keystroke	f	n/a
272.7145	0.114	545429	keystroke	e	n/a
272.9185	0.09	545837	keystroke	r	n/a
273.1375	0.114	546275	keystroke	s	n/a
273.2535	0.1125	546507	keystroke	Key.space	n/a
273.47	0.1125	546940	keystroke	t	n/a
273.7605	0.114	547521	keystroke	a	n/a
273.9095	0.069	547819	keystroke	r	n/a
274.22	0.09	548440	keystroke	Key.backspace	n/a
274.396	0.09	548792	keystroke	Key.backspace	n/a
274.487	0.135	548974	keystroke	r	n/a
274.721	0.138	549442	keystroke	a	n/a
274.813	0.1825	549626	keystroke	i	n/a
275.0475	0.184	550095	keystroke	n	n/a
275.2085	0.136	550417	keystroke	Key.space	n/a
275.4515	0.136	550903	keystroke	s	n/a
275.7485	0.138	551497	keystroke	u	n/a
276.0855	0.094	552171	keystroke	b	n/a
276.2905	0.092	552581	keystroke	m	n/a
276.5155	0.114	553031	keystroke	i	n/a
276.7295	0.137	553459	keystroke	t	n/a
276.8905	0.114	553781	keystroke	Key.space	n/a
277.3425	0.091	554685	keystroke	n	n/a
277.4775	0.097	554955	keystroke	e	n/a
277.6435	0.093	555287	keystroke	e	n/a
277.8465	0.07	555693	keystroke	d	n/a
278.0195	0.116	556039	keystroke	s	n/a
278.1585	0.07	556317	keystroke	Key.enter	n/a
278.233	7.1315	556466	prompt	n/a	industry cassette weapons trail\n
278.9195	0.116	557839	keystroke	i	n/a
279.1755	0.115	558351	keystroke	n	n/a
279.3595	0.116	558719	keystroke	d	n/a
279.4765	0.112	558953	keystroke	u	n/a
279.6105	0.111	559221	keystroke	s	n/a
279.8415	0.133	559683	keystroke	t	n/a
280.0555	0.093	560111	keystroke	r	n/a
280.2885	0.094	560577	keystroke	y	n/a
280.4415	0.114	560883	keystroke	Key.space	n/a
280.6865	0.159	561373	keystroke	c	n/a
280.9645	0.184	561929	keystroke	a	n/a
281.1945	0.138	562389	keystroke	s	n/a
281.4505	0.138	562901	keystroke	s	n/a
281.764	0.114	563528	keystroke	e	n/a
281.944	0.093	563888	keystroke	t	n/a
282.115	0.0915	564230	keystroke	t	n/a
282.2075	0.112	564415	keystroke	e	n/a
282.3415	0.09	564683	keystroke	Key.space	n/a
282.6555	0.116	565311	keystroke	w	n/a
282.8555	0.091	565711	keystroke	e	n/a
282.9915	0.186	565983	keystroke	a	n/a
283.0825	0.187	566165	keystroke	p	n/a
283.2455	0.092	566491	keystroke	o	n/a
283.4635	0.093	566927	keystroke	n	n/a
283.5795	0.1605	567159	keystroke	s	n/a
283.716	0.092	567432	keystroke	Key.space	n/a
284.249	0.093	568498	keystroke	t	n/a
284.444	0.067	568888	keystroke	r	n/a
284.5625	0.1355	569125	keystroke	a	n/a
284.771	0.092	569542	keystroke	i	n/a
285.017	0.09	570034	keystroke	l	n/a
285.272	0.09	570544	keystroke	Key.enter	n/a
285.369	7.753	570738	prompt	n/a	sept costs formatting victoria\n
285.9155	0.115	571831	keystroke	s	n/a
286.1445	0.0955	572289	keystroke	e	n/a
286.2615	0.111	572523	keystroke	p	n/a
286.5735	0.139	573147	keystroke	t	n/a
286.7805	0.115	573561	keystroke	Key.space	n/a
287.2085	0.136	574417	keystroke	c	n/a
287.3755	0.114	574751	keystroke	o	n/a
287.5115	0.135	575023	keystroke	s	n/a
287.6695	0.0915	575339	keystroke	t	n/a
287.783	0.134	575566	keystroke	s	n/a
287.939	0.089	575878	keystroke	Key.space	n/a
288.3605	0.093	576721	keystroke	f	n/a
288.5495	0.026	577099	keystroke	o	n/a
288.6055	0.114	577211	keystroke	r	n/a
288.7725	0.117	577545	keystroke	m	n/a
288.9105	0.135	577821	keystroke	a	n/a
289.0665	0.093	578133	keystroke	t	n/a
289.2405	0.114	578481	keystroke	t	n/a
289.4385	0.115	578877	keystroke	i	n/a
289.6565	0.112	579313	keystroke	n	n/a
289.8675	0.069	579735	keystroke	g	n/a
289.9875	0.136	579975	keystroke	Key.space	n/a
290.5825	0.046	581165	keystroke	i	n/a
290.997	0.09	581994	keystroke	Key.backspace	n/a
291.167	0.094	582334	keystroke	v	n/a
291.282	0.092	582564	keystroke	i	n/a
291.615	0.114	583230	keystroke	c	n/a
292.049	0.093	584098	keystroke	t	n/a
292.315	0.116	584630	keystroke	o	n/a
292.466	0.136	584932	keystroke	r	n/a
292.623	0.0695	585246	keystroke	i	n/a
292.7615	0.136	585523	keystroke	a	n/a
293.0265	0.094	586053	keystroke	Key.enter	n/a
293.125	5.864	586250	prompt	n/a	skating seeing timer deaths\n
293.8895	0.1605	587779	keystroke	s	n/a
294.096	0.117	588192	keystroke	k	n/a
294.188	0.159	588376	keystroke	a	n/a
294.437	0.117	588874	keystroke	t	n/a
294.649	0.117	589298	keystroke	i	n/a
294.825	0.158	589650	keystroke	n	n/a
295.081	0.092	590162	keystroke	g	n/a
295.217	0.114	590434	keystroke	Key.space	n/a
295.456	0.137	590912	keystroke	s	n/a
295.718	0.09	591436	keystroke	e	n/a
295.8835	0.1355	591767	keystroke	e	n/a
296.02	0.1125	592040	keystroke	i	n/a
296.1775	0.115	592355	keystroke	n	n/a
296.3875	0.117	592775	keystroke	g	n/a
296.5395	0.112	593079	keystroke	Key.space	n/a
296.7395	0.115	593479	keystroke	t	n/a
296.97	0.137	593940	keystroke	i	n/a
297.195	0.1155	594390	keystroke	m	n/a
297.332	0.0925	594664	keystroke	e	n/a
297.506	0.093	595012	keystroke	r	n/a
297.5755	0.115	595151	keystroke	Key.space	n/a
297.9555	0.1135	595911	keystroke	d	n/a
298.162	0.14	596324	keystroke	e	n/a
298.337	0.1605	596674	keystroke	a	n/a
298.4055	0.136	596811	keystroke	t	n/a
298.6285	0.114	597257	keystroke	h	n/a
298.7635	0.111	597527	keystroke	s	n/a
298.8975	0.09	597795	keystroke	Key.enter	n/a
298.9915	8.725	597983	prompt	n/a	numeric actors employment smart\n
299.972	0.092	599944	keystroke	n	n/a
300.18	0.0915	600360	keystroke	u	n/a
300.3625	0.136	600725	keystroke	m	n/a
300.4745	0.094	600949	keystroke	e	n/a
300.6555	0.0915	601311	keystroke	r	n/a
300.748	0.113	601496	keystroke	i	n/a
300.941	0.136	601882	keystroke	c	n/a
301.1	0.09	602200	keystroke	Key.space	n/a
301.38	0.137	602760	keystroke	a	n/a
301.639	0.114	603278	keystroke	c	n/a
301.776	0.069	603552	keystroke	t	n/a
301.953	0.113	603906	keystroke	o	n/a
302.067	0.089	604134	keystroke	r	n/a
302.285	0.139	604570	keystroke	s	n/a
302.399	0.117	604798	keystroke	Key.space	n/a
302.567	0.094	605134	keystroke	e	n/a
302.682	0.094	605364	keystroke	m	n/a
302.892	0.091	605784	keystroke	p	n/a
303.403	0.1145	606806	keystroke	l	n/a
303.5925	0.095	607185	keystroke	o	n/a
303.8505	0.092	607701	keystroke	y	n/a
304.1185	0.046	608237	keystroke	e	n/a
305.466	0.094	610932	keystroke	Key.backspace	n/a
305.767	0.091	611534	keystroke	m	n/a
305.896	0.112	611792	keystroke	e	n/a
306.01	0.092	612020	keystroke	n	n/a
306.234	0.069	612468	keystroke	t	n/a
306.372	0.114	612744	keystroke	Key.space	n/a
306.706	0.138	613412	keystroke	s	n/a
306.876	0.114	613752	keystroke	m	n/a
306.991	0.111	613982	keystroke	a	n/a
307.214	0.093	614428	keystroke	r	n/a
307.452	0.14	614904	keystroke	t	n/a
307.622	0.093	615244	keystroke	Key.enter	n/a
307.719	7.18	615438	prompt	n/a	investments aimed basis therapist\n
308.4345	0.094	616869	keystroke	i	n/a
308.6955	0.112	617391	keystroke	n	n/a
308.9555	0.089	617911	keystroke	v	n/a
309.0665	0.115	618133	keystroke	e	n/a
309.2905	0.143	618581	keystroke	s	n/a
309.3625	0.095	618725	keystroke	t	n/a
309.6775	0.138	619355	keystroke	m	n/a
309.8375	0.113	619675	keystroke	e	n/a
309.9045	0.092	619809	keystroke	n	n/a
310.1265	0.0915	620253	keystroke	t	n/a
310.29	0.138	620580	keystroke	s	n/a
310.429	0.111	620858	keystroke	Key.space	n/a
310.711	0.135	621422	keystroke	a	n/a
310.952	0.115	621904	keystroke	i	n/a
311.185	0.091	622370	keystroke	m	n/a
311.298	0.093	622596	keystroke	e	n/a
311.47	0.093	622940	keystroke	d	n/a
311.586	0.091	623172	keystroke	Key.space	n/a
312.0355	0.0935	624071	keystroke	b	n/a
312.1515	0.182	624303	keystroke	a	n/a
312.31	0.0915	624620	keystroke	s	n/a
312.5	0.114	625000	keystroke	i	n/a
312.637	0.1385	625274	keystroke	s	n/a
312.7765	0.091	625553	keystroke	Key.space	n/a
313.41	0.135	626820	keystroke	t	n/a
313.64	0.115	627280	keystroke	h	n/a
313.731	0.069	627462	keystroke	e	n/a
313.892	0.092	627784	keystroke	r	n/a
314.1025	0.186	628205	keystroke	a	n/a
314.1475	0.117	628295	keystroke	p	n/a
314.3205	0.114	628641	keystroke	i	n/a
314.4355	0.116	628871	keystroke	s	n/a
314.574	0.09	629148	keystroke	t	n/a
314.8065	0.0905	629613	keystroke	Key.enter	n/a
314.902	9.9185	629804	prompt	n/a	naughty learning chairs deemed\n
315.742	0.092	631484	keystroke	n	n/a
315.865	0.138	631730	keystroke	a	n/a
315.98	0.091	631960	keystroke	u	n/a
316.143	0.1135	632286	keystroke	g	n/a
316.3195	0.112	632639	keystroke	h	n/a
316.5295	0.137	633059	keystroke	t	n/a
316.7795	0.069	633559	keystroke	u	n/a
316.7815	0.069	633563	keystroke	y	n/a
316.8965	0.116	633793	keystroke	Key.space	n/a
317.6	0.138	635200	keystroke	Key.backspace	n/a
317.827	0.089	635654	keystroke	Key.backspace	n/a
317.994	0.092	635988	keystroke	Key.backspace	n/a
318.2685	0.0465	636537	keystroke	u	n/a
318.3365	0.116	636673	keystroke	y	n/a
318.4965	0.134	636993	keystroke	Key.space	n/a
318.7925	0.091	637585	keystroke	Key.backspace	n/a
318.9685	0.069	637937	keystroke	Key.backspace	n/a
319.1195	0.091	638239	keystroke	Key.backspace	n/a
319.5215	0.141	639043	keystroke	y	n/a
319.6635	0.11	639327	keystroke	Key.space	n/a
319.8645	0.092	639729	keystroke	l	n/a
319.9775	0.156	639955	keystroke	e	n/a
320.192	0.138	640384	keystroke	a	n/a
320.331	0.112	640662	keystroke	r	n/a
320.469	0.135	640938	keystroke	n	n/a
320.626	0.134	641252	keystroke	i	n/a
320.842	0.089	641684	keystroke	n	n/a
321.033	0.184	642066	keystroke	g	n/a
321.218	0.109	642436	keystroke	Key.space	n/a
321.482	0.158	642964	keystroke	c	n/a
321.662	0.071	643324	keystroke	h	n/a
321.777	0.159	643554	keystroke	a	n/a
321.912	0.09	643824	keystroke	i	n/a
322.094	0.133	644188	keystroke	r	n/a
322.383	0.16	644766	keystroke	x	n/a
322.545	0.135	645090	keystroke	Key.space	n/a
323.203	0.092	646406	keystroke	Key.backspace	n/a
323.379	0.095	646758	keystroke	Key.backspace	n/a
323.4975	0.1385	646995	keystroke	s	n/a
323.637	0.067	647274	keystroke	Key.space	n/a
323.774	0.115	647548	keystroke	d	n/a
323.992	0.0915	647984	keystroke	e	n/a
324.1455	0.092	648291	keystroke	e	n/a
324.2145	0.091	648429	keystroke	m	n/a
324.3585	0.047	648717	keystroke	e	n/a
324.4885	0.09	648977	keystroke	d	n/a
324.6825	0.136	649365	keystroke	Key.enter	n/a
324.8235	5.9485	649647	prompt	n/a	bringing term voted rogers\n
325.57	0.117	651140	keystroke	b	n/a
325.766	0.113	651532	keystroke	r	n/a
325.943	0.093	651886	keystroke	i	n/a
326.145	0.1145	652290	keystroke	n	n/a
326.3745	0.091	652749	keystroke	g	n/a
326.5655	0.097	653131	keystroke	i	n/a
326.7475	0.091	653495	keystroke	n	n/a
326.9715	0.092	653943	keystroke	g	n/a
327.0855	0.092	654171	keystroke	Key.space	n/a
327.2295	0.112	654459	keystroke	t	n/a
327.3425	0.11	654685	keystroke	e	n/a
327.5595	0.092	655119	keystroke	r	n/a
327.6535	0.136	655307	keystroke	m	n/a
327.8195	0.114	655639	keystroke	Key.space	n/a
328.2355	0.09	656471	keystroke	v	n/a
328.4885	0.115	656977	keystroke	o	n/a
328.7265	0.09	657453	keystroke	t	n/a
328.8385	0.113	657677	keystroke	e	n/a
329.0325	0.115	658065	keystroke	d	n/a
329.1485	0.111	658297	keystroke	Key.space	n/a
329.5955	0.114	659191	keystroke	r	n/a
329.7335	0.112	659467	keystroke	o	n/a
330.0095	0.093	660019	keystroke	g	n/a
330.1245	0.093	660249	keystroke	e	n/a
330.2865	0.091	660573	keystroke	r	n/a
330.5215	0.115	661043	keystroke	s	n/a
330.6585	0.112	661317	keystroke	Key.enter	n/a
330.7745	7.6525	661549	prompt	n/a	transmit says expedia zambia\n
331.5815	0.117	663163	keystroke	t	n/a
331.7965	0.092	663593	keystroke	r	n/a
331.9255	0.184	663851	keystroke	a	n/a
332.1875	0.202	664375	keystroke	n	n/a
332.5235	0.135	665047	keystroke	s	n/a
332.6805	0.137	665361	keystroke	m	n/a
332.8925	0.113	665785	keystroke	i	n/a
333.1345	0.162	666269	keystroke	t	n/a
333.3195	0.112	666639	keystroke	Key.space	n/a
333.574	0.162	667148	keystroke	s	n/a
333.806	0.184	667612	keystroke	a	n/a
333.898	0.094	667796	keystroke	y	n/a
334.012	0.136	668024	keystroke	s	n/a
334.1235	0.1345	668247	keystroke	Key.space	n/a
334.5935	0.1365	669187	keystroke	e	n/a
334.8935	0.159	669787	keystroke	x	n/a
335.0275	0.141	670055	keystroke	p	n/a
335.1915	0.114	670383	keystroke	e	n/a
335.6305	0.137	671261	keystroke	d	n/a
335.7445	0.113	671489	keystroke	i	n/a
335.9085	0.136	671817	keystroke	a	n/a
335.9985	0.114	671997	keystroke	Key.space	n/a
336.5	0.141	673000	keystroke	x	n/a
336.972	0.114	673944	keystroke	Key.backspace	n/a
337.109	0.136	674218	keystroke	z	n/a
337.36	0.115	674720	keystroke	a	n/a
337.498	0.114	674996	keystroke	m	n/a
337.7485	0.113	675497	keystroke	b	n/a
338.0095	0.137	676019	keystroke	i	n/a
338.2055	0.115	676411	keystroke	a	n/a
338.3775	0.048	676755	keystroke	Key.enter	n/a
338.43	6.0025	676860	prompt	n/a	road allowing upset see\n
339.1045	0.137	678209	keystroke	r	n/a
339.3415	0.112	678683	keystroke	o	n/a
339.4545	0.112	678909	keystroke	a	n/a
339.6225	0.113	679245	keystroke	d	n/a
339.7585	0.092	679517	keystroke	Key.space	n/a
339.8935	0.16	679787	keystroke	a	n/a
340.0285	0.094	680057	keystroke	l	n/a
340.205	0.116	680410	keystroke	l	n/a
340.603	0.136	681206	keystroke	w	n/a
340.928	0.09	681856	keystroke	Key.backspace	n/a
341.37	0.113	682740	keystroke	o	n/a
341.513	0.115	683026	keystroke	w	n/a
341.662	0.094	683324	keystroke	i	n/a
341.912	0.138	683824	keystroke	n	n/a
342.149	0.1125	684298	keystroke	g	n/a
342.2845	0.113	684569	keystroke	Key.space	n/a
342.6515	0.091	685303	keystroke	u	n/a
342.8455	0.114	685691	keystroke	p	n/a
343.0265	0.1815	686053	keystroke	s	n/a
343.343	0.114	686686	keystroke	e	n/a
343.521	0.184	687042	keystroke	t	n/a
343.727	0.091	687454	keystroke	Key.space	n/a
343.84	0.1375	687680	keystroke	s	n/a
344.0865	0.091	688173	keystroke	e	n/a
344.2275	0.114	688455	keystroke	e	n/a
344.3185	0.1125	688637	keystroke	Key.enter	n/a
344.4355	8.0635	688871	prompt	n/a	concepts influenced prostate educated\n
345.1405	0.158	690281	keystroke	c	n/a
345.3575	0.0905	690715	keystroke	o	n/a
345.586	0.1155	691172	keystroke	n	n/a
345.6785	0.069	691357	keystroke	c	n/a
345.874	0.115	691748	keystroke	e	n/a
345.92	0.092	691840	keystroke	p	n/a
346.14	0.0905	692280	keystroke	t	n/a
346.2535	0.1385	692507	keystroke	s	n/a
346.414	0.09	692828	keystroke	Key.space	n/a
346.8405	0.0915	693681	keystroke	i	n/a
347.154	0.092	694308	keystroke	n	n/a
347.5305	0.093	695061	keystroke	f	n/a
347.6535	0.117	695307	keystroke	l	n/a
347.8195	0.115	695639	keystroke	u	n/a
347.9705	0.137	695941	keystroke	e	n/a
348.1295	0.069	696259	keystroke	n	n/a
348.2655	0.114	696531	keystroke	c	n/a
348.4905	0.093	696981	keystroke	e	n/a
348.6735	0.114	697347	keystroke	d	n/a
348.7885	0.111	697577	keystroke	Key.space	n/a
349.0835	0.113	698167	keystroke	p	n/a
349.3735	0.139	698747	keystroke	r	n/a
349.5715	0.133	699143	keystroke	o	n/a
349.7475	0.161	699495	keystroke	s	n/a
349.9615	0.093	699923	keystroke	t	n/a
350.0555	0.134	700111	keystroke	a	n/a
350.1645	0.092	700329	keystroke	t	n/a
350.2795	0.113	700559	keystroke	e	n/a
350.3935	0.0885	700787	keystroke	Key.space	n/a
350.615	0.116	701230	keystroke	e	n/a
350.841	0.135	701682	keystroke	d	n/a
351.0455	0.138	702091	keystroke	u	n/a
351.455	0.158	702910	keystroke	c	n/a
351.769	0.158	703538	keystroke	a	n/a
351.902	0.071	703804	keystroke	t	n/a
352.047	0.114	704094	keystroke	e	n/a
352.247	0.116	704494	keystroke	d	n/a
352.365	0.132	704730	keystroke	Key.enter	n/a
352.501	6.9255	705002	prompt	n/a	wear explore libraries magic\n
353.19	0.1375	706380	keystroke	w	n/a
353.4195	0.159	706839	keystroke	e	n/a
353.6025	0.136	707205	keystroke	a	n/a
353.7675	0.16	707535	keystroke	r	n/a
353.9505	0.1345	707901	keystroke	Key.space	n/a
354.436	0.117	708872	keystroke	e	n/a
354.675	0.16	709350	keystroke	x	n/a
355.163	0.135	710326	keystroke	p	n/a
355.36	0.115	710720	keystroke	l	n/a
355.542	0.093	711084	keystroke	o	n/a
355.636	0.091	711272	keystroke	r	n/a
355.821	0.116	711642	keystroke	e	n/a
355.938	0.113	711876	keystroke	Key.space	n/a
356.181	0.114	712362	keystroke	l	n/a
356.326	0.071	712652	keystroke	i	n/a
356.5975	0.071	713195	keystroke	b	n/a
356.739	0.116	713478	keystroke	r	n/a
356.943	0.133	713886	keystroke	a	n/a
357.123	0.137	714246	keystroke	r	n/a
357.214	0.089	714428	keystroke	i	n/a
357.335	0.115	714670	keystroke	e	n/a
357.536	0.162	715072	keystroke	s	n/a
357.652	0.138	715304	keystroke	Key.space	n/a
358.1945	0.182	716389	keystroke	m	n/a
358.3785	0.179	716757	keystroke	a	n/a
358.5595	0.089	717119	keystroke	g	n/a
358.7545	0.114	717509	keystroke	i	n/a
358.9985	0.157	717997	keystroke	c	n/a
359.3115	0.113	718623	keystroke	Key.enter	n/a
359.4315	14.779	718863	prompt	n/a	retrieved athletic shirt mother\n
360.2115	0.113	720423	keystroke	r	n/a
360.4365	0.116	720873	keystroke	e	n/a
360.8525	0.184	721705	keystroke	t	n/a
360.9445	0.094	721889	keystroke	r	n/a
362.57	0.091	725140	keystroke	i	n/a
362.816	0.115	725632	keystroke	e	n/a
362.97	0.094	725940	keystroke	v	n/a
363.065	0.11	726130	keystroke	e	n/a
363.273	0.116	726546	keystroke	d	n/a
363.412	0.136	726824	keystroke	Key.space	n/a
363.756	0.185	727512	keystroke	s	n/a
364.228	0.114	728456	keystroke	t	n/a
364.437	0.112	728874	keystroke	h	n/a
364.572	0.117	729144	keystroke	e	n/a
364.663	0.16	729326	keystroke	l	n/a
364.969	0.113	729938	keystroke	t	n/a
365.316	0.137	730632	keystroke	i	n/a
365.454	0.156	730908	keystroke	c	n/a
365.632	0.093	731264	keystroke	Key.space	n/a
366.145	0.093	732290	keystroke	Key.backspace	n/a
366.322	0.07	732644	keystroke	Key.backspace	n/a
366.471	0.072	732942	keystroke	Key.backspace	n/a
366.613	0.09	733226	keystroke	Key.backspace	n/a
366.725	0.046	733450	keystroke	Key.backspace	n/a
366.985	0.115	733970	keystroke	Key.backspace	n/a
367.168	0.117	734336	keystroke	Key.backspace	n/a
367.374	0.093	734748	keystroke	Key.backspace	n/a
367.561	0.0705	735122	keystroke	Key.backspace	n/a
367.6765	0.138	735353	keystroke	a	n/a
367.9645	0.117	735929	keystroke	t	n/a
368.1665	0.092	736333	keystroke	h	n/a
368.4215	0.093	736843	keystroke	l	n/a
368.5365	0.139	737073	keystroke	e	n/a
368.7775	0.092	737555	keystroke	t	n/a
368.9605	0.135	737921	keystroke	i	n/a
369.1515	0.16	738303	keystroke	c	n/a
369.3345	0.092	738669	keystroke	Key.space	n/a
369.5005	0.137	739001	keystroke	s	n/a
369.7945	0.139	739589	keystroke	h	n/a
370.0795	0.157	740159	keystroke	o	n/a
370.2875	0.093	740575	keystroke	r	n/a
370.4465	0.116	740893	keystroke	t	n/a
370.6385	0.137	741277	keystroke	Key.space	n/a
371.1775	0.09	742355	keystroke	Key.backspace	n/a
371.3515	0.068	742703	keystroke	Key.backspace	n/a
371.5105	0.089	743021	keystroke	Key.backspace	n/a
371.6875	0.0935	743375	keystroke	Key.backspace	n/a
372.208	0.069	744416	keystroke	i	n/a
372.35	0.112	744700	keystroke	r	n/a
372.623	0.136	745246	keystroke	t	n/a
372.781	0.113	745562	keystroke	Key.space	n/a
372.975	0.1365	745950	keystroke	m	n/a
373.1585	0.112	746317	keystroke	o	n/a
373.4095	0.07	746819	keystroke	t	n/a
373.6225	0.159	747245	keystroke	h	n/a
373.7565	0.116	747513	keystroke	e	n/a
373.9655	0.091	747931	keystroke	r	n/a
374.0945	0.114	748189	keystroke	Key.enter	n/a
374.213	8.021	748426	prompt	n/a	battlefield sharing canadian romania\n
375.158	0.16	750316	keystroke	b	n/a
375.341	0.159	750682	keystroke	a	n/a
375.501	0.089	751002	keystroke	t	n/a
375.662	0.115	751324	keystroke	t	n/a
375.914	0.1825	751828	keystroke	l	n/a
376.1185	0.116	752237	keystroke	e	n/a
376.8015	0.136	753603	keystroke	f	n/a
376.9595	0.093	753919	keystroke	i	n/a
377.0745	0.1175	754149	keystroke	e	n/a
377.193	0.09	754386	keystroke	l	n/a
377.306	0.135	754612	keystroke	d	n/a
377.442	0.115	754884	keystroke	Key.space	n/a
377.691	0.181	755382	keystroke	s	n/a
377.873	0.094	755746	keystroke	h	n/a
377.99	0.136	755980	keystroke	a	n/a
378.216	0.114	756432	keystroke	r	n/a
378.352	0.091	756704	keystroke	i	n/a
378.535	0.116	757070	keystroke	n	n/a
378.74	0.092	757480	keystroke	g	n/a
378.886	0.118	757772	keystroke	Key.space	n/a
379.179	0.095	758358	keystroke	c	n/a
379.419	0.136	758838	keystroke	a	n/a
379.509	0.113	759018	keystroke	n	n/a
379.769	0.1385	759538	keystroke	d	n/a
379.9435	0.16	759887	keystroke	i	n/a
380.3095	0.183	760619	keystroke	a	n/a
380.4935	0.155	760987	keystroke	n	n/a
380.6695	0.1155	761339	keystroke	Key.space	n/a
381.1445	0.138	762289	keystroke	r	n/a
381.3245	0.1155	762649	keystroke	o	n/a
381.5435	0.1395	763087	keystroke	m	n/a
381.705	0.1365	763410	keystroke	a	n/a
381.7955	0.0915	763591	keystroke	n	n/a
381.918	0.1105	763836	keystroke	i	n/a
382.0515	0.07	764103	keystroke	a	n/a
382.1865	0.046	764373	keystroke	Key.enter	n/a
382.237	10.1845	764474	prompt	n/a	qualification protocol hero innovations\n
383.209	0.158	766418	keystroke	q	n/a
383.473	0.092	766946	keystroke	u	n/a
383.617	0.135	767234	keystroke	a	n/a
383.753	0.158	767506	keystroke	l	n/a
383.887	0.069	767774	keystroke	i	n/a
384.128	0.117	768256	keystroke	f	n/a
384.246	0.088	768492	keystroke	i	n/a
384.389	0.157	768778	keystroke	c	n/a
384.7125	0.16	769425	keystroke	a	n/a
384.8265	0.1395	769653	keystroke	t	n/a
385.144	0.159	770288	keystroke	i	n/a
385.304	0.1125	770608	keystroke	o	n/a
385.4965	0.16	770993	keystroke	n	n/a
385.6575	0.135	771315	keystroke	Key.space	n/a
385.8655	0.161	771731	keystroke	p	n/a
386.0995	0.16	772199	keystroke	r	n/a
386.3275	0.159	772655	keystroke	o	n/a
386.77	0.204	773540	keystroke	t	n/a
387.111	0.137	774222	keystroke	o	n/a
387.629	0.162	775258	keystroke	c	n/a
388.044	0.116	776088	keystroke	o	n/a
388.279	0.16	776558	keystroke	l	n/a
388.461	0.113	776922	keystroke	Key.space	n/a
388.748	0.112	777496	keystroke	h	n/a
388.882	0.091	777764	keystroke	e	n/a
389.046	0.115	778092	keystroke	r	n/a
389.136	0.139	778272	keystroke	o	n/a
389.251	0.138	778502	keystroke	Key.space	n/a
389.5175	0.181	779035	keystroke	i	n/a
390.12	0.116	780240	keystroke	n	n/a
390.272	0.134	780544	keystroke	n	n/a
390.487	0.114	780974	keystroke	o	n/a
391.032	0.111	782064	keystroke	v	n/a
391.312	0.204	782624	keystroke	a	n/a
391.425	0.1145	782850	keystroke	t	n/a
391.7335	0.115	783467	keystroke	i	n/a
391.8495	0.115	783699	keystroke	o	n/a
392.0365	0.114	784073	keystroke	n	n/a
392.1725	0.134	784345	keystroke	s	n/a
392.3285	0.091	784657	keystroke	Key.enter	n/a
392.424	7.123	784848	prompt	n/a	subscription conflict making attach\n
393.0735	0.181	786147	keystroke	s	n/a
393.3575	0.114	786715	keystroke	u	n/a
393.6235	0.092	787247	keystroke	b	n/a
393.7165	0.092	787433	keystroke	s	n/a
393.9455	0.069	787891	keystroke	c	n/a
394.1715	0.136	788343	keystroke	r	n/a
394.3375	0.07	788675	keystroke	i	n/a
394.4885	0.114	788977	keystroke	p	n/a
394.7555	0.135	789511	keystroke	t	n/a
394.9515	0.163	789903	keystroke	i	n/a
395.1155	0.113	790231	keystroke	o	n/a
395.3745	0.184	790749	keystroke	n	n/a
395.5595	0.112	791119	keystroke	Key.space	n/a
395.6925	0.135	791385	keystroke	c	n/a
395.8285	0.114	791657	keystroke	o	n/a
396.0465	0.116	792093	keystroke	n	n/a
396.2785	0.113	792557	keystroke	f	n/a
396.3925	0.155	792785	keystroke	l	n/a
396.5705	0.071	793141	keystroke	i	n/a
396.6165	0.139	793233	keystroke	c	n/a
396.7785	0.114	793557	keystroke	t	n/a
396.9265	0.116	793853	keystroke	Key.space	n/a
397.2385	0.116	794477	keystroke	m	n/a
397.3855	0.136	794771	keystroke	a	n/a
397.5225	0.089	795045	keystroke	k	n/a
397.6975	0.115	795395	keystroke	i	n/a
397.8955	0.116	795791	keystroke	n	n/a
398.1055	0.115	796211	keystroke	g	n/a
398.2415	0.117	796483	keystroke	Key.space	n/a
398.5085	0.135	797017	keystroke	a	n/a
398.7915	0.048	797583	keystroke	t	n/a
398.8975	0.112	797795	keystroke	t	n/a
398.9855	0.094	797971	keystroke	a	n/a
399.1895	0.114	798379	keystroke	c	n/a
399.2805	0.091	798561	keystroke	h	n/a
399.4765	0.069	798953	keystroke	Key.enter	n/a
399.5505	11.6805	799101	prompt	n/a	marion conversations clarke arising\n
400.2385	0.1375	800477	keystroke	m	n/a
400.397	0.136	800794	keystroke	a	n/a
400.605	0.115	801210	keystroke	r	n/a
400.7205	0.114	801441	keystroke	i	n/a
400.8365	0.132	801673	keystroke	o	n/a
401.0415	0.1845	802083	keystroke	n	n/a
401.227	0.092	802454	keystroke	Key.space	n/a
401.598	0.18	803196	keystroke	c	n/a
401.753	0.116	803506	keystroke	o	n/a
402.021	0.116	804042	keystroke	b	n/a
402.699	0.113	805398	keystroke	Key.backspace	n/a
402.976	0.094	805952	keystroke	n	n/a
403.234	0.091	806468	keystroke	v	n/a
403.442	0.134	806884	keystroke	e	n/a
403.693	0.0665	807386	keystroke	r	n/a
403.942	0.138	807884	keystroke	s	n/a
404.132	0.135	808264	keystroke	a	n/a
404.223	0.135	808446	keystroke	t	n/a
404.54	0.139	809080	keystroke	i	n/a
404.681	0.111	809362	keystroke	o	n/a
404.857	0.178	809714	keystroke	n	n/a
405.012	0.14	810024	keystroke	s	n/a
405.126	0.115	810252	keystroke	Key.space	n/a
405.532	0.16	811064	keystroke	c	n/a
405.693	0.1135	811386	keystroke	l	n/a
405.9495	0.184	811899	keystroke	a	n/a
406.2015	0.115	812403	keystroke	r	n/a
406.3395	0.071	812679	keystroke	k	n/a
406.4525	0.16	812905	keystroke	e	n/a
406.6135	0.089	813227	keystroke	Key.space	n/a
406.8175	0.159	813635	keystroke	s	n/a
407.1965	0.135	814393	keystroke	Key.backspace	n/a
407.4265	0.18	814853	keystroke	a	n/a
408.593	0.094	817186	keystroke	i	n/a
409.043	0.158	818086	keystroke	r	n/a
410.128	0.1645	820256	keystroke	s	n/a
410.2945	0.067	820589	keystroke	i	n/a
410.5185	0.136	821037	keystroke	n	n/a
410.7825	0.1135	821565	keystroke	g	n/a
411.132	0.098	822264	keystroke	Key.enter	n/a
411.2345	13.537	822469	prompt	n/a	theoretical config contractors explicitly\n
412.1515	0.139	824303	keystroke	t	n/a
412.3665	0.137	824733	keystroke	h	n/a
412.5045	0.157	825009	keystroke	e	n/a
412.7735	0.158	825547	keystroke	o	n/a
414.481	0.116	828962	keystroke	r	n/a
414.689	0.118	829378	keystroke	e	n/a
414.808	0.09	829616	keystroke	t	n/a
414.99	0.179	829980	keystroke	i	n/a
415.17	0.114	830340	keystroke	c	n/a
415.416	0.162	830832	keystroke	a	n/a
415.531	0.182	831062	keystroke	l	n/a
415.689	0.137	831378	keystroke	Key.space	n/a
415.879	0.14	831758	keystroke	c	n/a
416.02	0.111	832040	keystroke	o	n/a
416.2875	0.114	832575	keystroke	n	n/a
416.5805	0.115	833161	keystroke	f	n/a
416.7365	0.092	833473	keystroke	i	n/a
416.9795	0.162	833959	keystroke	g	n/a
417.1635	0.094	834327	keystroke	Key.space	n/a
417.5435	0.16	835087	keystroke	c	n/a
417.7045	0.11	835409	keystroke	o	n/a
417.9325	0.136	835865	keystroke	n	n/a
418.1925	0.098	836385	keystroke	t	n/a
418.3795	0.091	836759	keystroke	r	n/a
418.4245	0.139	836849	keystroke	a	n/a
418.687	0.14	837374	keystroke	c	n/a
418.755	0.096	837510	keystroke	t	n/a
418.984	0.135	837968	keystroke	o	n/a
419.18	0.116	838360	keystroke	r	n/a
419.456	0.137	838912	keystroke	s	n/a
419.594	0.111	839188	keystroke	Key.space	n/a
420.0495	0.114	840099	keystroke	e	n/a
420.342	0.163	840684	keystroke	x	n/a
420.506	0.135	841012	keystroke	p	n/a
420.748	0.1815	841496	keystroke	l	n/a
420.9305	0.134	841861	keystroke	i	n/a
421.1285	0.114	842257	keystroke	c	n/a
421.2445	0.094	842489	keystroke	i	n/a
421.5455	0.138	843091	keystroke	t	n/a
424.212	0.092	848424	keystroke	l	n/a
424.461	0.07	848922	keystroke	y	n/a
424.701	0.069	849402	keystroke	Key.enter	n/a
424.775	9.878	849550	prompt	n/a	vegetarian aspects congressional stone\n
425.6625	0.114	851325	keystroke	v	n/a
425.7995	0.155	851599	keystroke	e	n/a
425.9775	0.093	851955	keystroke	g	n/a
426.0715	0.1125	852143	keystroke	e	n/a
426.2935	0.157	852587	keystroke	r	n/a
426.6165	0.116	853233	keystroke	t	n/a
426.7685	0.1585	853537	keystroke	a	n/a
427.012	0.136	854024	keystroke	r	n/a
427.186	0.14	854372	keystroke	i	n/a
427.363	0.161	854726	keystroke	a	n/a
427.525	0.134	855050	keystroke	n	n/a
427.681	0.115	855362	keystroke	Key.space	n/a
428.112	0.114	856224	keystroke	s	n/a
428.48	0.071	856960	keystroke	Key.backspace	n/a
428.573	0.182	857146	keystroke	a	n/a
428.756	0.115	857512	keystroke	s	n/a
428.825	0.134	857650	keystroke	p	n/a
428.995	0.115	857990	keystroke	e	n/a
429.263	0.162	858526	keystroke	c	n/a
429.4	0.161	858800	keystroke	t	n/a
429.592	0.136	859184	keystroke	s	n/a
429.703	0.112	859406	keystroke	Key.space	n/a
430.194	0.137	860388	keystroke	c	n/a
430.366	0.113	860732	keystroke	o	n/a
430.603	0.138	861206	keystroke	n	n/a
430.815	0.113	861630	keystroke	g	n/a
430.929	0.09	861858	keystroke	r	n/a
431.1	0.116	862200	keystroke	e	n/a
431.346	0.091	862692	keystroke	s	n/a
431.494	0.115	862988	keystroke	s	n/a
431.562	0.16	863124	keystroke	i	n/a
431.6985	0.1595	863397	keystroke	o	n/a
432.101	0.14	864202	keystroke	n	n/a
432.334	0.12	864668	keystroke	a	n/a
432.406	0.1385	864812	keystroke	l	n/a
432.5665	0.1625	865133	keystroke	Key.space	n/a
432.682	0.136	865364	keystroke	s	n/a
432.866	0.071	865732	keystroke	t	n/a
432.889	0.024	865778	keystroke	y	n/a
433.077	0.114	866154	keystroke	o	n/a
433.421	0.09	866842	keystroke	Key.backspace	n/a
433.594	0.092	867188	keystroke	Key.backspace	n/a
434.041	0.114	868082	keystroke	o	n/a
434.273	0.115	868546	keystroke	n	n/a
434.41	0.1125	868820	keystroke	e	n/a
434.5595	0.092	869119	keystroke	Key.enter	n/a
434.6565	9.0125	869313	prompt	n/a	grounds becomes supporting mistakes\n
435.4645	0.116	870929	keystroke	g	n/a
435.6815	0.091	871363	keystroke	r	n/a
435.7735	0.156	871547	keystroke	o	n/a
435.9525	0.089	871905	keystroke	u	n/a
436.1455	0.114	872291	keystroke	n	n/a
436.2605	0.092	872521	keystroke	d	n/a
436.4545	0.114	872909	keystroke	s	n/a
436.5445	0.114	873089	keystroke	Key.space	n/a
436.8405	0.136	873681	keystroke	b	n/a
436.9985	0.1135	873997	keystroke	e	n/a
437.2465	0.118	874493	keystroke	c	n/a
437.3405	0.093	874681	keystroke	o	n/a
437.5195	0.161	875039	keystroke	m	n/a
437.6555	0.139	875311	keystroke	e	n/a
437.9045	0.141	875809	keystroke	s	n/a
438.0465	0.111	876093	keystroke	Key.space	n/a
438.3065	0.139	876613	keystroke	s	n/a
438.5655	0.092	877131	keystroke	u	n/a
438.7715	0.092	877543	keystroke	p	n/a
438.9285	0.07	877857	keystroke	p	n/a
438.9745	0.09	877949	keystroke	o	n/a
439.1765	0.116	878353	keystroke	r	n/a
439.4575	0.16	878915	keystroke	t	n/a
439.6185	0.135	879237	keystroke	i	n/a
439.8675	0.136	879735	keystroke	n	n/a
440.1365	0.092	880273	keystroke	g	n/a
440.2695	0.118	880539	keystroke	Key.space	n/a
440.6765	0.114	881353	keystroke	m	n/a
440.8975	0.114	881795	keystroke	i	n/a
441.0435	0.137	882087	keystroke	s	n/a
441.224	0.091	882448	keystroke	y	n/a
441.246	0.046	882492	keystroke	t	n/a
441.351	0.162	882702	keystroke	a	n/a
441.706	0.095	883412	keystroke	Key.backspace	n/a
441.892	0.091	883784	keystroke	Key.backspace	n/a
442.292	0.114	884584	keystroke	Key.backspace	n/a
442.821	0.093	885642	keystroke	t	n/a
442.959	0.159	885918	keystroke	a	n/a
443.093	0.138	886186	keystroke	k	n/a
443.253	0.09	886506	keystroke	e	n/a
443.44	0.112	886880	keystroke	s	n/a
443.597	0.071	887194	keystroke	Key.enter	n/a
443.672	7.287	887344	prompt	n/a	blog yarn keith locations\n
444.53	0.091	889060	keystroke	b	n/a
444.779	0.16	889558	keystroke	l	n/a
445.002	0.09	890004	keystroke	o	n/a
445.235	0.137	890470	keystroke	g	n/a
445.409	0.115	890818	keystroke	Key.space	n/a
446.17	0.092	892340	keystroke	y	n/a
446.312	0.135	892624	keystroke	a	n/a
446.551	0.113	893102	keystroke	r	n/a
446.686	0.182	893372	keystroke	n	n/a
446.869	0.112	893738	keystroke	Key.space	n/a
447.14	0.181	894280	keystroke	k	n/a
447.369	0.138	894738	keystroke	e	n/a
447.546	0.139	895092	keystroke	i	n/a
447.859	0.162	895718	keystroke	t	n/a
448.118	0.115	896236	keystroke	h	n/a
448.272	0.135	896544	keystroke	e	n/a
448.7555	0.1145	897511	keystroke	Key.backspace	n/a
448.966	0.136	897932	keystroke	Key.space	n/a
449.383	0.1605	898766	keystroke	l	n/a
449.6225	0.136	899245	keystroke	o	n/a
449.7595	0.113	899519	keystroke	c	n/a
449.9765	0.1595	899953	keystroke	a	n/a
450.067	0.092	900134	keystroke	t	n/a
450.309	0.092	900618	keystroke	i	n/a
450.424	0.093	900848	keystroke	o	n/a
450.598	0.113	901196	keystroke	n	n/a
450.712	0.113	901424	keystroke	s	n/a
450.866	0.092	901732	keystroke	Key.enter	n/a
450.962	10.218	901924	prompt	n/a	promise graham dont service\n
451.718	0.114	903436	keystroke	p	n/a
451.9525	0.113	903905	keystroke	r	n/a
452.1125	0.112	904225	keystroke	o	n/a
452.3545	0.092	904709	keystroke	m	n/a
452.547	0.094	905094	keystroke	i	n/a
452.642	0.111	905284	keystroke	s	n/a
452.855	0.09	905710	keystroke	e	n/a
452.968	0.113	905936	keystroke	Key.space	n/a
453.458	0.094	906916	keystroke	g	n/a
453.657	0.093	907314	keystroke	r	n/a
453.885	0.183	907770	keystroke	a	n/a
454.043	0.071	908086	keystroke	h	n/a
454.15	0.1375	908300	keystroke	a	n/a
454.2635	0.16	908527	keystroke	m	n/a
454.4465	0.139	908893	keystroke	Key.space	n/a
454.9095	0.137	909819	keystroke	d	n/a
455.1155	0.114	910231	keystroke	o	n/a
455.3425	0.092	910685	keystroke	n	n/a
455.5615	0.113	911123	keystroke	t	n/a
455.6955	0.116	911391	keystroke	Key.space	n/a
455.7415	0.117	911483	keystroke	s	n/a
455.9615	0.094	911923	keystroke	e	n/a
456.1555	0.138	912311	keystroke	v	n/a
456.1565	0.093	912313	keystroke	r	n/a
456.4025	0.112	912805	keystroke	i	n/a
456.5385	0.094	913077	keystroke	c	n/a
456.7595	0.115	913519	keystroke	e	n/a
457.1535	0.117	914307	keystroke	Key.backspace	n/a
457.3495	0.091	914699	keystroke	Key.backspace	n/a
457.5215	0.116	915043	keystroke	Key.backspace	n/a
458.2795	0.136	916559	keystroke	Key.backspace	n/a
458.9555	0.1155	917911	keystroke	Key.backspace	n/a
459.131	0.137	918262	keystroke	r	n/a
460.2395	0.091	920479	keystroke	v	n/a
460.5995	0.091	921199	keystroke	i	n/a
460.7145	0.092	921429	keystroke	c	n/a
460.9345	0.092	921869	keystroke	e	n/a
461.0865	0.092	922173	keystroke	Key.enter	n/a
461.1845	7.5635	922369	prompt	n/a	magical ferry bahamas boats\n
462.0495	0.116	924099	keystroke	m	n/a
462.2005	0.133	924401	keystroke	a	n/a
462.3565	0.07	924713	keystroke	g	n/a
462.5315	0.114	925063	keystroke	i	n/a
462.6475	0.112	925295	keystroke	c	n/a
462.8825	0.183	925765	keystroke	a	n/a
462.9945	0.163	925989	keystroke	l	n/a
463.1585	0.092	926317	keystroke	Key.space	n/a
463.3845	0.115	926769	keystroke	g	n/a
463.7635	0.114	927527	keystroke	Key.backspace	n/a
463.9525	0.091	927905	keystroke	f	n/a
464.1345	0.111	928269	keystroke	e	n/a
464.3575	0.069	928715	keystroke	r	n/a
464.5155	0.068	929031	keystroke	r	n/a
464.6065	0.115	929213	keystroke	y	n/a
464.7225	0.136	929445	keystroke	Key.space	n/a
465.673	0.093	931346	keystroke	b	n/a
465.795	0.16	931590	keystroke	a	n/a
466.065	0.114	932130	keystroke	h	n/a
466.18	0.089	932360	keystroke	a	n/a
466.358	0.092	932716	keystroke	m	n/a
466.428	0.182	932856	keystroke	a	n/a
466.635	0.114	933270	keystroke	s	n/a
466.779	0.113	933558	keystroke	Key.space	n/a
467.2	0.069	934400	keystroke	b	n/a
467.42	0.093	934840	keystroke	o	n/a
467.489	0.091	934978	keystroke	a	n/a
467.984	0.162	935968	keystroke	t	n/a
468.3615	0.181	936723	keystroke	s	n/a
468.6295	0.117	937259	keystroke	Key.enter	n/a
468.7505	11.735	937501	prompt	n/a	sandra town conceptual magnificent\n
469.6745	0.16	939349	keystroke	a	n/a
470.1325	0.0915	940265	keystroke	Key.backspace	n/a
470.247	0.116	940494	keystroke	s	n/a
470.423	0.162	940846	keystroke	a	n/a
470.514	0.116	941028	keystroke	n	n/a
470.781	0.158	941562	keystroke	d	n/a
471.063	0.137	942126	keystroke	r	n/a
471.337	0.138	942674	keystroke	a	n/a
471.476	0.112	942952	keystroke	Key.space	n/a
472.236	0.159	944472	keystroke	t	n/a
472.5065	0.157	945013	keystroke	o	n/a
472.6865	0.137	945373	keystroke	w	n/a
472.9725	0.161	945945	keystroke	n	n/a
473.365	0.115	946730	keystroke	Key.space	n/a
473.752	0.159	947504	keystroke	c	n/a
473.912	0.136	947824	keystroke	o	n/a
474.165	0.1165	948330	keystroke	n	n/a
474.2825	0.091	948565	keystroke	c	n/a
474.4825	0.091	948965	keystroke	e	n/a
474.5495	0.092	949099	keystroke	p	n/a
474.8225	0.069	949645	keystroke	t	n/a
475.0555	0.093	950111	keystroke	u	n/a
475.2195	0.16	950439	keystroke	a	n/a
475.3335	0.16	950667	keystroke	l	n/a
475.5175	0.134	951035	keystroke	Key.space	n/a
475.899	0.113	951798	keystroke	m	n/a
476.05	0.1385	952100	keystroke	a	n/a
476.163	0.0925	952326	keystroke	n	n/a
477.3335	0.114	954667	keystroke	Key.backspace	n/a
478.143	0.137	956286	keystroke	g	n/a
478.407	0.069	956814	keystroke	n	n/a
478.588	0.092	957176	keystroke	i	n/a
479.014	0.114	958028	keystroke	f	n/a
479.182	0.091	958364	keystroke	i	n/a
479.295	0.092	958590	keystroke	c	n/a
479.493	0.137	958986	keystroke	a	n/a
479.606	0.094	959212	keystroke	t	n/a
479.8495	0.092	959699	keystroke	i	n/a
479.9635	0.114	959927	keystroke	o	n/a
480.1715	0.093	960343	keystroke	n	n/a
480.3945	0.089	960789	keystroke	Key.enter	n/a
480.4895	8.4615	960979	prompt	n/a	amounts marco fires specification\n
481.398	0.139	962796	keystroke	a	n/a
481.578	0.113	963156	keystroke	m	n/a
481.774	0.137	963548	keystroke	o	n/a
481.942	0.092	963884	keystroke	u	n/a
482.134	0.093	964268	keystroke	n	n/a
482.324	0.092	964648	keystroke	t	n/a
482.455	0.161	964910	keystroke	s	n/a
482.524	0.115	965048	keystroke	Key.space	n/a
482.93	0.09	965860	keystroke	m	n/a
483.086	0.136	966172	keystroke	a	n/a
483.429	0.0905	966858	keystroke	r	n/a
483.6895	0.141	967379	keystroke	c	n/a
483.7825	0.1595	967565	keystroke	o	n/a
483.9425	0.137	967885	keystroke	Key.space	n/a
484.3195	0.159	968639	keystroke	f	n/a
484.6485	0.094	969297	keystroke	i	n/a
484.7645	0.093	969529	keystroke	r	n/a
484.9575	0.092	969915	keystroke	e	n/a
485.1545	0.113	970309	keystroke	s	n/a
485.2685	0.0885	970537	keystroke	Key.space	n/a
485.395	0.182	970790	keystroke	s	n/a
485.6	0.115	971200	keystroke	p	n/a
485.737	0.117	971474	keystroke	e	n/a
486.296	0.162	972592	keystroke	c	n/a
487.153	0.115	974306	keystroke	i	n/a
487.315	0.135	974630	keystroke	f	n/a
487.472	0.072	974944	keystroke	i	n/a
487.567	0.1145	975134	keystroke	c	n/a
487.8045	0.138	975609	keystroke	a	n/a
487.9185	0.117	975837	keystroke	t	n/a
488.204	0.137	976408	keystroke	i	n/a
488.342	0.136	976684	keystroke	o	n/a
488.583	0.112	977166	keystroke	n	n/a
488.858	0.0915	977716	keystroke	Key.enter	n/a
488.954	8.0085	977908	prompt	n/a	roads vertical fragrances argued\n
489.6325	0.139	979265	keystroke	r	n/a
489.8545	0.116	979709	keystroke	o	n/a
489.9225	0.183	979845	keystroke	a	n/a
490.1435	0.159	980287	keystroke	d	n/a
490.4065	0.137	980813	keystroke	s	n/a
490.5195	0.092	981039	keystroke	Key.space	n/a
490.7855	0.098	981571	keystroke	v	n/a
490.8845	0.09	981769	keystroke	e	n/a
491.0685	0.094	982137	keystroke	r	n/a
491.1955	0.09	982391	keystroke	t	n/a
491.4055	0.115	982811	keystroke	i	n/a
491.4975	0.091	982995	keystroke	c	n/a
491.696	0.161	983392	keystroke	a	n/a
491.764	0.163	983528	keystroke	l	n/a
491.928	0.136	983856	keystroke	Key.space	n/a
492.6225	0.205	985245	keystroke	g	n/a
492.9995	0.1365	985999	keystroke	Key.backspace	n/a
493.157	0.09	986314	keystroke	f	n/a
493.369	0.069	986738	keystroke	r	n/a
493.561	0.138	987122	keystroke	a	n/a
494.373	0.092	988746	keystroke	g	n/a
494.496	0.114	988992	keystroke	r	n/a
494.717	0.135	989434	keystroke	a	n/a
494.853	0.093	989706	keystroke	n	n/a
495.014	0.136	990028	keystroke	c	n/a
495.262	0.114	990524	keystroke	e	n/a
495.47	0.162	990940	keystroke	s	n/a
495.587	0.092	991174	keystroke	Key.space	n/a
495.844	0.14	991688	keystroke	a	n/a
496.093	0.114	992186	keystroke	r	n/a
496.242	0.094	992484	keystroke	g	n/a
496.381	0.159	992762	keystroke	u	n/a
496.494	0.136	992988	keystroke	e	n/a
496.723	0.092	993446	keystroke	d	n/a
496.845	0.116	993690	keystroke	Key.enter	n/a
496.965	8.187	993930	prompt	n/a	batman namibia deliver basketball\n
497.6695	0.1145	995339	keystroke	b	n/a
497.8075	0.1395	995615	keystroke	a	n/a
497.969	0.068	995938	keystroke	t	n/a
498.207	0.117	996414	keystroke	m	n/a
498.345	0.16	996690	keystroke	a	n/a
498.459	0.091	996918	keystroke	n	n/a
498.591	0.114	997182	keystroke	Key.space	n/a
498.847	0.16	997694	keystroke	m	n/a
499.146	0.203	998292	keystroke	a	n/a
499.743	0.092	999486	keystroke	Key.backspace	n/a
499.923	0.071	999846	keystroke	Key.backspace	n/a
500.485	0.096	1000970	keystroke	n	n/a
500.602	0.137	1001204	keystroke	a	n/a
500.781	0.114	1001562	keystroke	m	n/a
501.039	0.07	1002078	keystroke	b	n/a
501.245	0.114	1002490	keystroke	i	n/a
501.389	0.135	1002778	keystroke	a	n/a
501.545	0.089	1003090	keystroke	Key.space	n/a
502.002	0.1175	1004004	keystroke	d	n/a
502.2145	0.115	1004429	keystroke	e	n/a
502.3495	0.182	1004699	keystroke	l	n/a
502.5065	0.093	1005013	keystroke	i	n/a
502.7455	0.115	1005491	keystroke	v	n/a
502.8365	0.115	1005673	keystroke	e	n/a
503.0585	0.115	1006117	keystroke	r	n/a
503.1495	0.136	1006299	keystroke	Key.space	n/a
503.4595	0.138	1006919	keystroke	b	n/a
503.6195	0.182	1007239	keystroke	a	n/a
503.7775	0.138	1007555	keystroke	s	n/a
503.9175	0.0915	1007835	keystroke	k	n/a
504.031	0.0915	1008062	keystroke	e	n/a
504.155	0.1145	1008310	keystroke	t	n/a
504.428	0.092	1008856	keystroke	b	n/a
504.543	0.1165	1009086	keystroke	a	n/a
504.7185	0.092	1009437	keystroke	l	n/a
504.8675	0.115	1009735	keystroke	l	n/a
505.0595	0.091	1010119	keystroke	Key.enter	n/a
505.155	11.9005	1010310	prompt	n/a	dynamics physics contemporary water\n
505.9655	0.1575	1011931	keystroke	d	n/a
506.183	0.114	1012366	keystroke	y	n/a
506.489	0.093	1012978	keystroke	n	n/a
506.604	0.115	1013208	keystroke	a	n/a
506.695	0.094	1013390	keystroke	m	n/a
506.873	0.09	1013746	keystroke	i	n/a
506.989	0.114	1013978	keystroke	c	n/a
507.206	0.136	1014412	keystroke	s	n/a
507.318	0.138	1014636	keystroke	Key.space	n/a
507.553	0.14	1015106	keystroke	p	n/a
508.1455	0.221	1016291	keystroke	h	n/a
508.408	0.16	1016816	keystroke	s	n/a
508.5685	0.09	1017137	keystroke	y	n/a
508.7365	0.136	1017473	keystroke	i	n/a
508.8265	0.115	1017653	keystroke	c	n/a
509.0455	0.114	1018091	keystroke	s	n/a
509.1815	0.091	1018363	keystroke	Key.space	n/a
510.0635	0.093	1020127	keystroke	Key.backspace	n/a
510.2595	0.07	1020519	keystroke	Key.backspace	n/a
510.4125	0.091	1020825	keystroke	Key.backspace	n/a
510.5885	0.089	1021177	keystroke	Key.backspace	n/a
510.7525	0.115	1021505	keystroke	Key.backspace	n/a
511.0805	0.141	1022161	keystroke	Key.backspace	n/a
511.4955	0.0455	1022991	keystroke	y	n/a
511.608	0.093	1023216	keystroke	y	n/a
511.733	0.111	1023466	keystroke	s	n/a
512.393	0.112	1024786	keystroke	Key.backspace	n/a
512.585	0.114	1025170	keystroke	Key.backspace	n/a
512.721	0.137	1025442	keystroke	s	n/a
512.906	0.14	1025812	keystroke	i	n/a
513.068	0.115	1026136	keystroke	c	n/a
513.284	0.113	1026568	keystroke	s	n/a
513.398	0.0925	1026796	keystroke	Key.space	n/a
513.8635	0.112	1027727	keystroke	c	n/a
513.9975	0.115	1027995	keystroke	o	n/a
514.2175	0.114	1028435	keystroke	n	n/a
514.4455	0.092	1028891	keystroke	t	n/a
514.5685	0.115	1029137	keystroke	e	n/a
514.7495	0.091	1029499	keystroke	m	n/a
514.9385	0.092	1029877	keystroke	p	n/a
515.0565	0.069	1030113	keystroke	o	n/a
515.1595	0.114	1030319	keystroke	r	n/a
515.3715	0.138	1030743	keystroke	a	n/a
515.5425	0.159	1031085	keystroke	r	n/a
515.7025	0.067	1031405	keystroke	y	n/a
515.7925	0.114	1031585	keystroke	Key.space	n/a
516.2075	0.136	1032415	keystroke	w	n/a
516.3675	0.204	1032735	keystroke	a	n/a
516.5025	0.115	1033005	keystroke	t	n/a
516.6395	0.092	1033279	keystroke	e	n/a
516.8265	0.113	1033653	keystroke	r	n/a
516.9165	0.1375	1033833	keystroke	Key.enter	n/a
517.0585	8.835	1034117	prompt	n/a	legislative state on necessarily\n
517.7455	0.115	1035491	keystroke	l	n/a
517.8815	0.136	1035763	keystroke	e	n/a
518.1425	0.113	1036285	keystroke	g	n/a
518.8345	0.202	1037669	keystroke	i	n/a
519.0125	0.159	1038025	keystroke	s	n/a
519.6355	0.161	1039271	keystroke	l	n/a
519.8995	0.159	1039799	keystroke	a	n/a
520.2905	0.113	1040581	keystroke	t	n/a
520.5065	0.137	1041013	keystroke	i	n/a
520.7545	0.161	1041509	keystroke	v	n/a
520.9165	0.112	1041833	keystroke	e	n/a
520.9835	0.159	1041967	keystroke	Key.space	n/a
521.1635	0.137	1042327	keystroke	s	n/a
521.3015	0.067	1042603	keystroke	t	n/a
521.3905	0.163	1042781	keystroke	a	n/a
521.4825	0.118	1042965	keystroke	t	n/a
521.6015	0.1125	1043203	keystroke	e	n/a
521.715	0.111	1043430	keystroke	Key.space	n/a
521.876	0.116	1043752	keystroke	o	n/a
522.243	0.141	1044486	keystroke	n	n/a
522.385	0.134	1044770	keystroke	Key.space	n/a
522.757	0.115	1045514	keystroke	n	n/a
522.895	0.158	1045790	keystroke	e	n/a
523.956	0.137	1047912	keystroke	c	n/a
524.13	0.1605	1048260	keystroke	e	n/a
524.4205	0.092	1048841	keystroke	s	n/a
524.5945	0.117	1049189	keystroke	s	n/a
524.7125	0.132	1049425	keystroke	a	n/a
524.9555	0.114	1049911	keystroke	r	n/a
525.2025	0.114	1050405	keystroke	i	n/a
525.3825	0.112	1050765	keystroke	l	n/a
525.5955	0.07	1051191	keystroke	y	n/a
525.801	0.09	1051602	keystroke	Key.enter	n/a
525.896	10.315	1051792	prompt	n/a	parts demonstration smallest managers\n
526.606	0.138	1053212	keystroke	p	n/a
526.745	0.178	1053490	keystroke	a	n/a
527.136	0.116	1054272	keystroke	r	n/a
527.35	0.091	1054700	keystroke	t	n/a
527.463	0.138	1054926	keystroke	s	n/a
527.576	0.117	1055152	keystroke	Key.space	n/a
527.995	0.137	1055990	keystroke	d	n/a
528.211	0.112	1056422	keystroke	e	n/a
528.3	0.113	1056600	keystroke	m	n/a
528.496	0.069	1056992	keystroke	i	n/a
529.254	0.132	1058508	keystroke	Key.backspace	n/a
529.7445	0.114	1059489	keystroke	o	n/a
530.0405	0.118	1060081	keystroke	n	n/a
530.8645	0.208	1061729	keystroke	s	n/a
531.3235	0.137	1062647	keystroke	t	n/a
531.5585	0.091	1063117	keystroke	r	n/a
531.6705	0.161	1063341	keystroke	a	n/a
531.7855	0.09	1063571	keystroke	t	n/a
532.1105	0.161	1064221	keystroke	i	n/a
532.2935	0.117	1064587	keystroke	o	n/a
532.5055	0.162	1065011	keystroke	n	n/a
532.6685	0.138	1065337	keystroke	Key.space	n/a
532.8475	0.094	1065695	keystroke	s	n/a
533.0765	0.115	1066153	keystroke	m	n/a
533.2525	0.136	1066505	keystroke	a	n/a
533.4125	0.093	1066825	keystroke	l	n/a
533.5675	0.115	1067135	keystroke	l	n/a
533.7055	0.069	1067411	keystroke	e	n/a
533.8865	0.1345	1067773	keystroke	s	n/a
533.997	0.116	1067994	keystroke	t	n/a
534.143	0.116	1068286	keystroke	Key.space	n/a
534.958	0.116	1069916	keystroke	m	n/a
535.096	0.138	1070192	keystroke	a	n/a
535.208	0.049	1070416	keystroke	m	n/a
535.235	0.158	1070470	keystroke	n	n/a
535.508	0.096	1071016	keystroke	g	n/a
535.579	0.1155	1071158	keystroke	e	n/a
535.7885	0.0695	1071577	keystroke	r	n/a
536.0035	0.1155	1072007	keystroke	s	n/a
536.1395	0.07	1072279	keystroke	Key.enter	n/a
536.2135	12.2835	1072427	prompt	n/a	inquiry relay gauge bullet\n
537.142	0.069	1074284	keystroke	i	n/a
537.387	0.092	1074774	keystroke	n	n/a
537.709	0.115	1075418	keystroke	q	n/a
537.936	0.0895	1075872	keystroke	u	n/a
538.1345	0.092	1076269	keystroke	i	n/a
538.3275	0.138	1076655	keystroke	r	n/a
538.4875	0.094	1076975	keystroke	y	n/a
538.6205	0.092	1077241	keystroke	Key.space	n/a
539.2405	0.116	1078481	keystroke	r	n/a
539.4555	0.115	1078911	keystroke	e	n/a
539.5925	0.113	1079185	keystroke	l	n/a
539.7435	0.1585	1079487	keystroke	a	n/a
539.879	0.094	1079758	keystroke	y	n/a
540.039	0.114	1080078	keystroke	Key.space	n/a
540.7405	0.0935	1081481	keystroke	g	n/a
540.9	0.136	1081800	keystroke	u	n/a
541.012	0.162	1082024	keystroke	a	n/a
541.151	0.091	1082302	keystroke	g	n/a
541.28	0.112	1082560	keystroke	e	n/a
541.393	0.114	1082786	keystroke	Key.space	n/a
541.906	0.092	1083812	keystroke	b	n/a
542.169	0.095	1084338	keystroke	u	n/a
542.426	0.069	1084852	keystroke	l	n/a
542.553	0.137	1085106	keystroke	l	n/a
542.721	0.114	1085442	keystroke	e	n/a
544.1355	0.113	1088271	keystroke	t	n/a
546.7935	0.2035	1093587	keystroke	Key.backspace	n/a
547.1	0.0705	1094200	keystroke	Key.backspace	n/a
547.3245	0.159	1094649	keystroke	a	n/a
547.7935	0.07	1095587	keystroke	u	n/a
548.3355	0.16	1096671	keystroke	Key.enter	n/a
548.5005	5.9975	1097001	prompt	n/a	rolling wind luke wanna\n
549.34	0.115	1098680	keystroke	r	n/a
549.53	0.092	1099060	keystroke	o	n/a
549.716	0.1155	1099432	keystroke	l	n/a
549.8545	0.1825	1099709	keystroke	l	n/a
550.129	0.1125	1100258	keystroke	i	n/a
550.4095	0.137	1100819	keystroke	n	n/a
550.6195	0.116	1101239	keystroke	g	n/a
550.7655	0.113	1101531	keystroke	Key.space	n/a
550.9485	0.159	1101897	keystroke	w	n/a
551.1085	0.111	1102217	keystroke	i	n/a
551.2915	0.117	1102583	keystroke	n	n/a
551.4585	0.136	1102917	keystroke	d	n/a
551.5955	0.113	1103191	keystroke	Key.space	n/a
551.7995	0.137	1103599	keystroke	l	n/a
552.0975	0.159	1104195	keystroke	i	n/a
552.5865	0.135	1105173	keystroke	Key.backspace	n/a
552.8155	0.138	1105631	keystroke	u	n/a
553.0365	0.113	1106073	keystroke	k	n/a
553.1725	0.135	1106345	keystroke	e	n/a
553.2845	0.136	1106569	keystroke	Key.space	n/a
553.6025	0.136	1107205	keystroke	w	n/a
553.8255	0.16	1107651	keystroke	a	n/a
554.0075	0.069	1108015	keystroke	n	n/a
554.1485	0.115	1108297	keystroke	n	n/a
554.2645	0.113	1108529	keystroke	a	n/a
554.4275	0.069	1108855	keystroke	Key.enter	n/a
554.501	9.049	1109002	prompt	n/a	davidson cologne secret nicholas\n
555.3125	0.137	1110625	keystroke	d	n/a
555.5285	0.163	1111057	keystroke	a	n/a
555.7695	0.069	1111539	keystroke	v	n/a
555.9585	0.139	1111917	keystroke	i	n/a
556.1345	0.093	1112269	keystroke	d	n/a
556.3205	0.117	1112641	keystroke	s	n/a
556.4125	0.092	1112825	keystroke	o	n/a
556.6525	0.137	1113305	keystroke	n	n/a
556.7905	0.134	1113581	keystroke	Key.space	n/a
557.2665	0.111	1114533	keystroke	c	n/a
557.4335	0.114	1114867	keystroke	o	n/a
557.6535	0.095	1115307	keystroke	l	n/a
558.095	0.112	1116190	keystroke	g	n/a
558.304	0.0935	1116608	keystroke	n	n/a
558.42	0.113	1116840	keystroke	e	n/a
558.594	0.092	1117188	keystroke	Key.space	n/a
558.884	0.142	1117768	keystroke	s	n/a
559.126	0.093	1118252	keystroke	e	n/a
559.31	0.091	1118620	keystroke	c	n/a
559.456	0.094	1118912	keystroke	r	n/a
559.647	0.114	1119294	keystroke	e	n/a
559.803	0.158	1119606	keystroke	t	n/a
560.011	0.113	1120022	keystroke	Key.space	n/a
562.225	0.091	1124450	keystroke	n	n/a
562.4	0.092	1124800	keystroke	i	n/a
562.5435	0.135	1125087	keystroke	c	n/a
562.7085	0.094	1125417	keystroke	h	n/a
562.8935	0.116	1125787	keystroke	o	n/a
563.0755	0.115	1126151	keystroke	l	n/a
563.1675	0.161	1126335	keystroke	a	n/a
563.3025	0.114	1126605	keystroke	s	n/a
563.457	0.0915	1126914	keystroke	Key.enter	n/a
563.5545	9.0775	1127109	prompt	n/a	artwork discrete stated subjective\n
564.16	0.115	1128320	keystroke	a	n/a
564.444	0.139	1128888	keystroke	r	n/a
564.7055	0.093	1129411	keystroke	t	n/a
564.8695	0.134	1129739	keystroke	w	n/a
565.0045	0.114	1130009	keystroke	o	n/a
565.1485	0.163	1130297	keystroke	r	n/a
565.2875	0.115	1130575	keystroke	k	n/a
565.4405	0.117	1130881	keystroke	Key.space	n/a
566.2735	0.134	1132547	keystroke	d	n/a
566.4305	0.073	1132861	keystroke	i	n/a
566.5275	0.111	1133055	keystroke	s	n/a
566.7705	0.093	1133541	keystroke	c	n/a
567.0315	0.114	1134063	keystroke	r	n/a
567.2235	0.116	1134447	keystroke	e	n/a
567.3405	0.09	1134681	keystroke	t	n/a
567.4675	0.0905	1134935	keystroke	e	n/a
567.581	0.045	1135162	keystroke	Key.space	n/a
567.8695	0.138	1135739	keystroke	s	n/a
568.0785	0.092	1136157	keystroke	t	n/a
568.1475	0.16	1136295	keystroke	a	n/a
568.3085	0.09	1136617	keystroke	t	n/a
568.4195	0.094	1136839	keystroke	e	n/a
568.6225	0.092	1137245	keystroke	d	n/a
568.7365	0.092	1137473	keystroke	Key.space	n/a
568.8905	0.139	1137781	keystroke	s	n/a
569.3405	0.0925	1138681	keystroke	u	n/a
569.611	0.117	1139222	keystroke	b	n/a
569.8155	0.115	1139631	keystroke	j	n/a
569.884	0.1155	1139768	keystroke	e	n/a
570.104	0.1135	1140208	keystroke	c	n/a
570.1935	0.093	1140387	keystroke	t	n/a
570.369	0.116	1140738	keystroke	i	n/a
570.5835	0.07	1141167	keystroke	b	n/a
570.6065	0.049	1141213	keystroke	v	n/a
570.7535	0.116	1141507	keystroke	e	n/a
571.2085	0.116	1142417	keystroke	Key.backspace	n/a
571.3935	0.09	1142787	keystroke	Key.backspace	n/a
571.5555	0.093	1143111	keystroke	Key.backspace	n/a
572.2035	0.092	1144407	keystroke	v	n/a
572.3425	0.114	1144685	keystroke	e	n/a
572.5365	0.094	1145073	keystroke	Key.enter	n/a
572.635	7.7075	1145270	prompt	n/a	worldwide worker dryer beginner\n
573.2595	0.137	1146519	keystroke	w	n/a
573.6575	0.09	1147315	keystroke	o	n/a
573.7915	0.114	1147583	keystroke	r	n/a
574.0035	0.092	1148007	keystroke	l	n/a
574.0975	0.113	1148195	keystroke	d	n/a
574.6965	0.1385	1149393	keystroke	w	n/a
574.857	0.159	1149714	keystroke	i	n/a
575.127	0.134	1150254	keystroke	d	n/a
575.761	0.134	1151522	keystroke	e	n/a
575.9175	0.115	1151835	keystroke	Key.space	n/a
576.062	0.1115	1152124	keystroke	w	n/a
576.194	0.1175	1152388	keystroke	o	n/a
576.3525	0.1175	1152705	keystroke	r	n/a
576.444	0.1155	1152888	keystroke	k	n/a
576.5805	0.0935	1153161	keystroke	e	n/a
576.7605	0.09	1153521	keystroke	r	n/a
576.8805	0.1165	1153761	keystroke	Key.space	n/a
577.4295	0.138	1154859	keystroke	d	n/a
577.6705	0.092	1155341	keystroke	r	n/a
577.8855	0.117	1155771	keystroke	y	n/a
578.0255	0.09	1156051	keystroke	e	n/a
578.208	0.091	1156416	keystroke	r	n/a
578.321	0.114	1156642	keystroke	Key.space	n/a
578.721	0.092	1157442	keystroke	b	n/a
578.92	0.202	1157840	keystroke	e	n/a
579.3055	0.091	1158611	keystroke	g	n/a
579.4875	0.114	1158975	keystroke	i	n/a
579.6755	0.231	1159351	keystroke	n	n/a
579.8605	0.115	1159721	keystroke	e	n/a
580.0895	0.091	1160179	keystroke	r	n/a
580.2505	0.091	1160501	keystroke	Key.enter	n/a
580.345	6.977	1160690	prompt	n/a	holds tool bracelets formation\n
581.4315	0.07	1162863	keystroke	h	n/a
581.6075	0.1115	1163215	keystroke	o	n/a
581.815	0.115	1163630	keystroke	l	n/a
581.931	0.137	1163862	keystroke	d	n/a
582.149	0.2085	1164298	keystroke	s	n/a
582.3585	0.135	1164717	keystroke	Key.space	n/a
582.9025	0.115	1165805	keystroke	t	n/a
583.1815	0.09	1166363	keystroke	o	n/a
583.3405	0.115	1166681	keystroke	o	n/a
583.5395	0.138	1167079	keystroke	l	n/a
583.6785	0.1145	1167357	keystroke	Key.space	n/a
583.964	0.093	1167928	keystroke	b	n/a
584.146	0.113	1168292	keystroke	r	n/a
584.3765	0.1375	1168753	keystroke	a	n/a
584.609	0.1165	1169218	keystroke	c	n/a
584.7475	0.1125	1169495	keystroke	l	n/a
584.882	0.114	1169764	keystroke	e	n/a
585.039	0.137	1170078	keystroke	t	n/a
585.205	0.137	1170410	keystroke	s	n/a
585.343	0.091	1170686	keystroke	Key.space	n/a
585.664	0.114	1171328	keystroke	f	n/a
585.8	0.069	1171600	keystroke	o	n/a
585.892	0.1155	1171784	keystroke	r	n/a
586.0665	0.1345	1172133	keystroke	m	n/a
586.202	0.134	1172404	keystroke	a	n/a
586.384	0.094	1172768	keystroke	t	n/a
586.61	0.138	1173220	keystroke	i	n/a
586.77	0.089	1173540	keystroke	o	n/a
586.971	0.093	1173942	keystroke	n	n/a
587.227	0.094	1174454	keystroke	Key.enter	n/a
587.3245	7.648	1174649	prompt	n/a	mounting input andale camera\n
587.9995	0.159	1175999	keystroke	m	n/a
588.2165	0.162	1176433	keystroke	o	n/a
588.3795	0.112	1176759	keystroke	u	n/a
588.6075	0.093	1177215	keystroke	n	n/a
588.8265	0.092	1177653	keystroke	t	n/a
588.9845	0.136	1177969	keystroke	i	n/a
589.2025	0.114	1178405	keystroke	n	n/a
589.3975	0.093	1178795	keystroke	g	n/a
589.5435	0.092	1179087	keystroke	Key.space	n/a
589.8455	0.114	1179691	keystroke	i	n/a
590.0825	0.092	1180165	keystroke	n	n/a
590.278	0.114	1180556	keystroke	p	n/a
590.688	0.091	1181376	keystroke	u	n/a
590.936	0.092	1181872	keystroke	t	n/a
591.069	0.091	1182138	keystroke	Key.space	n/a
591.689	0.183	1183378	keystroke	a	n/a
591.942	0.114	1183884	keystroke	n	n/a
592.158	0.1145	1184316	keystroke	d	n/a
592.3515	0.161	1184703	keystroke	a	n/a
592.4405	0.095	1184881	keystroke	l	n/a
592.577	0.117	1185154	keystroke	e	n/a
592.695	0.091	1185390	keystroke	Key.space	n/a
593.048	0.162	1186096	keystroke	a	n/a
593.554	0.118	1187108	keystroke	Key.backspace	n/a
593.673	0.069	1187346	keystroke	c	n/a
593.861	0.158	1187722	keystroke	a	n/a
593.95	0.092	1187900	keystroke	m	n/a
594.104	0.114	1188208	keystroke	e	n/a
594.31	0.114	1188620	keystroke	r	n/a
594.5925	0.139	1189185	keystroke	a	n/a
594.8325	0.138	1189665	keystroke	Key.enter	n/a
594.975	8.413	1189950	prompt	n/a	april underwear movies likewise\n
595.821	0.159	1191642	keystroke	a	n/a
596.109	0.092	1192218	keystroke	p	n/a
596.285	0.136	1192570	keystroke	r	n/a
596.497	0.114	1192994	keystroke	i	n/a
596.693	0.136	1193386	keystroke	l	n/a
596.852	0.111	1193704	keystroke	Key.space	n/a
597.442	0.091	1194884	keystroke	u	n/a
597.6555	0.116	1195311	keystroke	n	n/a
597.7485	0.09	1195497	keystroke	d	n/a
597.9565	0.092	1195913	keystroke	e	n/a
598.1615	0.117	1196323	keystroke	r	n/a
598.4115	0.138	1196823	keystroke	w	n/a
598.8895	0.157	1197779	keystroke	e	n/a
599.1085	0.114	1198217	keystroke	a	n/a
599.2775	0.1795	1198555	keystroke	r	n/a
599.458	0.135	1198916	keystroke	Key.space	n/a
599.744	0.136	1199488	keystroke	m	n/a
599.991	0.116	1199982	keystroke	o	n/a
600.2805	0.023	1200561	keystroke	b	n/a
600.3255	0.114	1200651	keystroke	v	n/a
600.5865	0.115	1201173	keystroke	i	n/a
600.7025	0.135	1201405	keystroke	e	n/a
600.9605	0.137	1201921	keystroke	s	n/a
601.0505	0.137	1202101	keystroke	Key.space	n/a
601.3725	0.183	1202745	keystroke	l	n/a
601.5315	0.092	1203063	keystroke	i	n/a
601.7515	0.114	1203503	keystroke	k	n/a
601.8665	0.157	1203733	keystroke	e	n/a
602.303	0.157	1204606	keystroke	w	n/a
602.827	0.068	1205654	keystroke	i	n/a
602.927	0.133	1205854	keystroke	s	n/a
603.147	0.091	1206294	keystroke	e	n/a
603.269	0.117	1206538	keystroke	Key.enter	n/a
603.3915	6.443	1206783	prompt	n/a	richard token prices minutes\n
604.209	0.16	1208418	keystroke	r	n/a
604.469	0.0695	1208938	keystroke	i	n/a
604.595	0.1375	1209190	keystroke	c	n/a
604.762	0.0955	1209524	keystroke	h	n/a
604.8795	0.139	1209759	keystroke	a	n/a
605.0685	0.16	1210137	keystroke	r	n/a
605.3065	0.114	1210613	keystroke	d	n/a
605.4425	0.115	1210885	keystroke	Key.space	n/a
605.8095	0.088	1211619	keystroke	t	n/a
606.0555	0.115	1212111	keystroke	o	n/a
606.257	0.091	1212514	keystroke	k	n/a
606.384	0.115	1212768	keystroke	e	n/a
606.52	0.16	1213040	keystroke	n	n/a
606.6555	0.1365	1213311	keystroke	Key.space	n/a
606.978	0.1365	1213956	keystroke	p	n/a
607.1735	0.0915	1214347	keystroke	r	n/a
607.326	0.1145	1214652	keystroke	i	n/a
607.48	0.115	1214960	keystroke	c	n/a
607.716	0.092	1215432	keystroke	e	n/a
607.923	0.135	1215846	keystroke	s	n/a
608.012	0.137	1216024	keystroke	Key.space	n/a
608.359	0.112	1216718	keystroke	m	n/a
608.5865	0.094	1217173	keystroke	i	n/a
608.8105	0.089	1217621	keystroke	n	n/a
609.0065	0.092	1218013	keystroke	u	n/a
609.2445	0.093	1218489	keystroke	t	n/a
609.3815	0.117	1218763	keystroke	e	n/a
609.5935	0.1155	1219187	keystroke	s	n/a
609.761	0.072	1219522	keystroke	Key.enter	n/a
609.837	8.599	1219674	prompt	n/a	terry upgrading prozac expects\n
610.625	0.092	1221250	keystroke	t	n/a
610.749	0.117	1221498	keystroke	e	n/a
611.101	0.113	1222202	keystroke	r	n/a
611.336	0.137	1222672	keystroke	r	n/a
611.555	0.089	1223110	keystroke	y	n/a
611.693	0.094	1223386	keystroke	Key.space	n/a
612.159	0.09	1224318	keystroke	u	n/a
612.339	0.092	1224678	keystroke	p	n/a
612.608	0.093	1225216	keystroke	g	n/a
612.676	0.117	1225352	keystroke	r	n/a
612.907	0.158	1225814	keystroke	a	n/a
613.0865	0.1145	1226173	keystroke	d	n/a
613.177	0.116	1226354	keystroke	i	n/a
613.338	0.16	1226676	keystroke	n	n/a
613.563	0.1145	1227126	keystroke	g	n/a
613.728	0.092	1227456	keystroke	Key.space	n/a
614.1855	0.159	1228371	keystroke	p	n/a
614.3785	0.112	1228757	keystroke	r	n/a
614.5385	0.138	1229077	keystroke	o	n/a
614.9725	0.113	1229945	keystroke	x	n/a
615.3595	0.113	1230719	keystroke	Key.backspace	n/a
615.4735	0.112	1230947	keystroke	z	n/a
615.6505	0.1625	1231301	keystroke	a	n/a
616.422	0.1365	1232844	keystroke	c	n/a
616.5595	0.089	1233119	keystroke	Key.space	n/a
616.7165	0.113	1233433	keystroke	e	n/a
616.9795	0.1165	1233959	keystroke	x	n/a
617.0475	0.0935	1234095	keystroke	p	n/a
617.223	0.115	1234446	keystroke	e	n/a
617.8735	0.1795	1235747	keystroke	c	n/a
618.054	0.089	1236108	keystroke	t	n/a
618.184	0.115	1236368	keystroke	s	n/a
618.321	0.1135	1236642	keystroke	Key.enter	n/a
618.4385	8.1325	1236877	prompt	n/a	ieee invalid disks defined\n
619.296	0.066	1238592	keystroke	i	n/a
619.4995	0.1375	1238999	keystroke	e	n/a
619.719	0.137	1239438	keystroke	e	n/a
619.959	0.162	1239918	keystroke	e	n/a
620.4295	0.159	1240859	keystroke	Key.space	n/a
620.6545	0.09	1241309	keystroke	i	n/a
620.8985	0.09	1241797	keystroke	n	n/a
621.1515	0.0935	1242303	keystroke	v	n/a
621.285	0.162	1242570	keystroke	a	n/a
621.4	0.162	1242800	keystroke	l	n/a
621.595	0.114	1243190	keystroke	i	n/a
621.77	0.094	1243540	keystroke	f	n/a
622.3805	0.112	1244761	keystroke	Key.backspace	n/a
622.5825	0.2465	1245165	keystroke	d	n/a
623.5935	0.114	1247187	keystroke	Key.space	n/a
623.8965	0.136	1247793	keystroke	d	n/a
624.0665	0.093	1248133	keystroke	i	n/a
624.1805	0.135	1248361	keystroke	s	n/a
624.3385	0.09	1248677	keystroke	k	n/a
624.4615	0.114	1248923	keystroke	s	n/a
624.5765	0.089	1249153	keystroke	Key.space	n/a
625.3035	0.114	1250607	keystroke	d	n/a
625.5585	0.115	1251117	keystroke	e	n/a
625.8085	0.09	1251617	keystroke	f	n/a
625.9555	0.116	1251911	keystroke	i	n/a
626.1245	0.116	1252249	keystroke	n	n/a
626.1955	0.089	1252391	keystroke	e	n/a
626.3865	0.091	1252773	keystroke	s	n/a
626.4995	0.07	1252999	keystroke	Key.enter	n/a
626.574	8.2215	1253148	prompt	n/a	karl calculations keep delhi\n
627.9385	0.0935	1255877	keystroke	k	n/a
628.033	0.158	1256066	keystroke	a	n/a
628.312	0.138	1256624	keystroke	r	n/a
628.487	0.1605	1256974	keystroke	l	n/a
628.6485	0.091	1257297	keystroke	Key.space	n/a
629.0705	0.136	1258141	keystroke	c	n/a
629.2945	0.159	1258589	keystroke	a	n/a
629.3835	0.117	1258767	keystroke	l	n/a
630.2875	0.135	1260575	keystroke	c	n/a
630.4445	0.09	1260889	keystroke	u	n/a
630.6275	0.113	1261255	keystroke	l	n/a
630.7645	0.135	1261529	keystroke	a	n/a
630.9495	0.118	1261899	keystroke	t	n/a
631.2785	0.158	1262557	keystroke	i	n/a
631.4375	0.1125	1262875	keystroke	o	n/a
631.6095	0.135	1263219	keystroke	n	n/a
631.7665	0.139	1263533	keystroke	s	n/a
631.8595	0.138	1263719	keystroke	Key.space	n/a
632.122	0.182	1264244	keystroke	k	n/a
632.333	0.092	1264666	keystroke	e	n/a
632.502	0.0895	1265004	keystroke	e	n/a
632.6145	0.158	1265229	keystroke	l	n/a
632.7955	0.138	1265591	keystroke	Key.space	n/a
633.4635	0.135	1266927	keystroke	d	n/a
633.6915	0.138	1267383	keystroke	e	n/a
633.8505	0.115	1267701	keystroke	l	n/a
634.2065	0.159	1268413	keystroke	h	n/a
634.4535	0.118	1268907	keystroke	i	n/a
634.7005	0.093	1269401	keystroke	Key.enter	n/a
634.798	5.2305	1269596	prompt	n/a	disc losing shopper rent\n
635.6215	0.182	1271243	keystroke	d	n/a
635.8275	0.089	1271655	keystroke	i	n/a
635.9385	0.1195	1271877	keystroke	s	n/a
636.161	0.137	1272322	keystroke	c	n/a
636.299	0.137	1272598	keystroke	Key.space	n/a
636.767	0.117	1273534	keystroke	l	n/a
636.974	0.071	1273948	keystroke	o	n/a
637.067	0.136	1274134	keystroke	s	n/a
637.204	0.069	1274408	keystroke	i	n/a
637.406	0.114	1274812	keystroke	n	n/a
637.592	0.091	1275184	keystroke	g	n/a
637.723	0.116	1275446	keystroke	Key.space	n/a
637.793	0.136	1275586	keystroke	s	n/a
637.96	0.119	1275920	keystroke	h	n/a
638.179	0.113	1276358	keystroke	o	n/a
638.381	0.091	1276762	keystroke	p	n/a
638.53	0.091	1277060	keystroke	p	n/a
638.622	0.087	1277244	keystroke	e	n/a
638.814	0.069	1277628	keystroke	r	n/a
638.905	0.114	1277810	keystroke	Key.space	n/a
639.1345	0.0905	1278269	keystroke	r	n/a
639.331	0.091	1278662	keystroke	e	n/a
639.445	0.113	1278890	keystroke	n	n/a
639.692	0.047	1279384	keystroke	t	n/a
639.957	0.07	1279914	keystroke	Key.enter	n/a
640.032	7.7625	1280064	prompt	n/a	generates topic emotions libraries\n
641.1865	0.115	1282373	keystroke	g	n/a
641.3645	0.138	1282729	keystroke	e	n/a
641.4785	0.07	1282957	keystroke	n	n/a
641.5825	0.115	1283165	keystroke	e	n/a
641.8075	0.092	1283615	keystroke	r	n/a
642.0095	0.1845	1284019	keystroke	a	n/a
642.1475	0.0695	1284295	keystroke	t	n/a
642.2785	0.138	1284557	keystroke	e	n/a
642.5075	0.136	1285015	keystroke	s	n/a
642.6675	0.069	1285335	keystroke	Key.space	n/a
643.341	0.07	1286682	keystroke	t	n/a
643.678	0.114	1287356	keystroke	o	n/a
643.827	0.137	1287654	keystroke	p	n/a
