onset	duration	sample	value	key	prompt_text
12.024	10.3105	24048	prompt	n/a	the quick brown fox jumps over a lazy dog\n
13.9185	0.027	27837	keystroke_t	t	n/a
13.9605	0.06	27921	keystroke_h	h	n/a
14.0815	0.149	28163	keystroke_e	e	n/a
14.2005	0.09	28401	keystroke_Key.space	Key.space	n/a
14.606	0.12	29212	keystroke_q	q	n/a
14.696	0.135	29392	keystroke_u	u	n/a
14.771	0.135	29542	keystroke_i	i	n/a
14.996	0.1045	29992	keystroke_c	c	n/a
15.1165	0.119	30233	keystroke_k	k	n/a
15.2805	0.12	30561	keystroke_Key.space	Key.space	n/a
15.5205	0.09	31041	keystroke_b	b	n/a
15.6405	0.1205	31281	keystroke_r	r	n/a
15.776	0.09	31552	keystroke_o	o	n/a
15.866	0.12	31732	keystroke_w	w	n/a
16.001	0.1205	32002	keystroke_n	n	n/a
16.1515	0.1195	32303	keystroke_Key.space	Key.space	n/a
16.3315	0.119	32663	keystroke_f	f	n/a
16.4355	0.09	32871	keystroke_o	o	n/a
16.6155	0.09	33231	keystroke_x	x	n/a
16.8405	0.075	33681	keystroke_Key.space	Key.space	n/a
17.4865	0.134	34973	keystroke_j	j	n/a
17.5905	0.105	35181	keystroke_u	u	n/a
17.8455	0.075	35691	keystroke_m	m	n/a
18.131	0.045	36262	keystroke_p	p	n/a
18.3565	0.195	36713	keystroke_s	s	n/a
18.5655	0.06	37131	keystroke_Key.space	Key.space	n/a
18.6565	0.074	37313	keystroke_o	o	n/a
18.8515	0.105	37703	keystroke_v	v	n/a
18.9865	0.119	37973	keystroke_e	e	n/a
19.0905	0.105	38181	keystroke_r	r	n/a
19.1505	0.135	38301	keystroke_Key.space	Key.space	n/a
19.3015	0.1795	38603	keystroke_a	a	n/a
19.451	0.105	38902	keystroke_Key.space	Key.space	n/a
19.586	0.12	39172	keystroke_l	l	n/a
19.886	0.105	39772	keystroke_a	a	n/a
20.246	0.12	40492	keystroke_z	z	n/a
20.4715	0.075	40943	keystroke_y	y	n/a
20.6215	0.12	41243	keystroke_Key.space	Key.space	n/a
20.9655	0.1055	41931	keystroke_d	d	n/a
21.0565	0.0745	42113	keystroke_o	o	n/a
21.1755	0.076	42351	keystroke_g	g	n/a
22.271	0.06	44542	keystroke_Key.enter	Key.enter	n/a
22.3405	11.873	44681	prompt	n/a	satisfactory after norton spiritual\n
23.3665	0.1345	46733	keystroke_s	s	n/a
24.4615	0.1345	48923	keystroke_a	a	n/a
24.956	0.105	49912	keystroke_t	t	n/a
25.076	0.105	50152	keystroke_i	i	n/a
25.226	0.12	50452	keystroke_s	s	n/a
25.961	0.105	51922	keystroke_f	f	n/a
26.111	0.09	52222	keystroke_a	a	n/a
26.351	0.09	52702	keystroke_c	c	n/a
26.591	0.09	53182	keystroke_t	t	n/a
26.696	0.105	53392	keystroke_o	o	n/a
26.891	0.09	53782	keystroke_r	r	n/a
27.011	0.105	54022	keystroke_y	y	n/a
27.326	0.12	54652	keystroke_Key.space	Key.space	n/a
27.701	0.165	55402	keystroke_a	a	n/a
27.851	0.09	55702	keystroke_f	f	n/a
28.061	0.105	56122	keystroke_t	t	n/a
28.226	0.105	56452	keystroke_e	e	n/a
28.301	0.165	56602	keystroke_r	r	n/a
28.451	0.09	56902	keystroke_Key.space	Key.space	n/a
28.796	0.165	57592	keystroke_n	n	n/a
28.946	0.09	57892	keystroke_o	o	n/a
29.111	0.105	58222	keystroke_r	r	n/a
29.352	0.119	58704	keystroke_t	t	n/a
29.486	0.09	58972	keystroke_o	o	n/a
29.696	0.105	59392	keystroke_n	n	n/a
29.861	0.12	59722	keystroke_Key.space	Key.space	n/a
31.886	0.12	63772	keystroke_s	s	n/a
32.036	0.075	64072	keystroke_p	p	n/a
32.681	0.12	65362	keystroke_r	r	n/a
32.906	0.105	65812	keystroke_i	i	n/a
33.236	0.075	66472	keystroke_t	t	n/a
33.296	0.075	66592	keystroke_u	u	n/a
33.431	0.15	66862	keystroke_a	a	n/a
33.521	0.12	67042	keystroke_l	l	n/a
34.121	0.09	68242	keystroke_Key.enter	Key.enter	n/a
34.2185	12.325	68437	prompt	n/a	shape pattern fairfield harmony\n
35.157	0.089	70314	keystroke_s	s	n/a
35.261	0.06	70522	keystroke_h	h	n/a
35.366	0.12	70732	keystroke_a	a	n/a
35.576	0.075	71152	keystroke_p	p	n/a
35.711	0.135	71422	keystroke_e	e	n/a
35.861	0.12	71722	keystroke_Key.space	Key.space	n/a
36.161	0.075	72322	keystroke_p	p	n/a
36.296	0.12	72592	keystroke_a	a	n/a
36.506	0.06	73012	keystroke_t	t	n/a
36.657	0.059	73314	keystroke_t	t	n/a
36.776	0.12	73552	keystroke_e	e	n/a
36.851	0.15	73702	keystroke_r	r	n/a
37.031	0.075	74062	keystroke_n	n	n/a
37.166	0.105	74332	keystroke_Key.space	Key.space	n/a
37.526	0.09	75052	keystroke_f	f	n/a
37.871	0.136	75742	keystroke_a	a	n/a
38.052	0.104	76104	keystroke_i	i	n/a
38.231	0.105	76462	keystroke_r	r	n/a
38.786	0.105	77572	keystroke_f	f	n/a
38.906	0.12	77812	keystroke_i	i	n/a
39.086	0.091	78172	keystroke_e	e	n/a
39.416	0.105	78832	keystroke_l	l	n/a
39.536	0.09	79072	keystroke_d	d	n/a
39.791	0.105	79582	keystroke_Key.space	Key.space	n/a
40.107	0.059	80214	keystroke_h	h	n/a
45.2545	0.102	90509	keystroke_a	a	n/a
45.2965	0.105	90593	keystroke_r	r	n/a
45.4615	0.12	90923	keystroke_m	m	n/a
45.6565	0.09	91313	keystroke_o	o	n/a
45.8515	0.12	91703	keystroke_n	n	n/a
46.1215	0.045	92243	keystroke_y	y	n/a
46.482	0.06	92964	keystroke_Key.enter	Key.enter	n/a
46.5475	6.716	93095	prompt	n/a	echo continues translated kenny\n
47.562	0.09	95124	keystroke_e	e	n/a
47.802	0.12	95604	keystroke_c	c	n/a
47.937	0.09	95874	keystroke_h	h	n/a
48.057	0.105	96114	keystroke_o	o	n/a
48.281	0.076	96562	keystroke_Key.space	Key.space	n/a
48.536	0.105	97072	keystroke_c	c	n/a
48.656	0.195	97312	keystroke_o	o	n/a
48.746	0.12	97492	keystroke_n	n	n/a
48.971	0.09	97942	keystroke_t	t	n/a
49.046	0.075	98092	keystroke_i	i	n/a
49.226	0.09	98452	keystroke_n	n	n/a
49.451	0.09	98902	keystroke_u	u	n/a
49.586	0.15	99172	keystroke_e	e	n/a
49.676	0.195	99352	keystroke_s	s	n/a
49.886	0.105	99772	keystroke_Key.space	Key.space	n/a
50.516	0.075	101032	keystroke_t	t	n/a
50.771	0.09	101542	keystroke_r	r	n/a
50.9365	0.1045	101873	keystroke_a	a	n/a
51.026	0.076	102052	keystroke_n	n	n/a
51.1465	0.1195	102293	keystroke_s	s	n/a
51.311	0.1205	102622	keystroke_l	l	n/a
51.4165	0.1795	102833	keystroke_a	a	n/a
51.581	0.1355	103162	keystroke_t	t	n/a
51.686	0.106	103372	keystroke_e	e	n/a
51.881	0.1655	103762	keystroke_d	d	n/a
52.047	0.1045	104094	keystroke_Key.space	Key.space	n/a
52.1965	0.1345	104393	keystroke_k	k	n/a
52.301	0.105	104602	keystroke_e	e	n/a
52.5415	0.075	105083	keystroke_n	n	n/a
52.6915	0.075	105383	keystroke_n	n	n/a
52.9165	0.075	105833	keystroke_y	y	n/a
53.1865	0.075	106373	keystroke_Key.enter	Key.enter	n/a
53.2685	8.561	106537	prompt	n/a	aids complications to've marker\n
54.1315	0.12	108263	keystroke_a	a	n/a
54.2815	0.09	108563	keystroke_i	i	n/a
54.4165	0.1495	108833	keystroke_d	d	n/a
54.582	0.09	109164	keystroke_s	s	n/a
54.791	0.075	109582	keystroke_Key.space	Key.space	n/a
55.032	0.089	110064	keystroke_c	c	n/a
55.106	0.075	110212	keystroke_o	o	n/a
55.316	0.076	110632	keystroke_m	m	n/a
55.586	0.091	111172	keystroke_p	p	n/a
55.826	0.136	111652	keystroke_l	l	n/a
55.947	0.105	111894	keystroke_i	i	n/a
56.097	0.12	112194	keystroke_c	c	n/a
56.261	0.12	112522	keystroke_a	a	n/a
56.501	0.121	113002	keystroke_t	t	n/a
56.772	0.134	113544	keystroke_i	i	n/a
56.877	0.15	113754	keystroke_o	o	n/a
56.982	0.15	113964	keystroke_n	n	n/a
57.236	0.06	114472	keystroke_s	s	n/a
58.572	0.105	117144	keystroke_Key.space	Key.space	n/a
58.962	0.09	117924	keystroke_t	t	n/a
59.053	0.104	118106	keystroke_o	o	n/a
59.697	0.074	119394	keystroke_'	'	n/a
60.057	0.135	120114	keystroke_v	v	n/a
60.506	0.15	121012	keystroke_e	e	n/a
60.701	0.12	121402	keystroke_Key.space	Key.space	n/a
60.852	0.089	121704	keystroke_m	m	n/a
60.957	0.18	121914	keystroke_a	a	n/a
61.091	0.091	122182	keystroke_r	r	n/a
61.227	0.105	122454	keystroke_k	k	n/a
61.316	0.18	122632	keystroke_e	e	n/a
61.436	0.135	122872	keystroke_r	r	n/a
61.751	0.075	123502	keystroke_Key.enter	Key.enter	n/a
61.835	8.4235	123670	prompt	n/a	elections eden resistant intend\n
62.667	0.12	125334	keystroke_e	e	n/a
62.816	0.106	125632	keystroke_l	l	n/a
62.937	0.075	125874	keystroke_e	e	n/a
63.177	0.06	126354	keystroke_c	c	n/a
63.402	0.135	126804	keystroke_t	t	n/a
63.521	0.136	127042	keystroke_i	i	n/a
63.597	0.18	127194	keystroke_o	o	n/a
63.762	0.09	127524	keystroke_n	n	n/a
63.837	0.18	127674	keystroke_s	s	n/a
64.031	0.12	128062	keystroke_Key.space	Key.space	n/a
64.422	0.075	128844	keystroke_e	e	n/a
64.616	0.091	129232	keystroke_d	d	n/a
64.827	0.075	129654	keystroke_e	e	n/a
64.932	0.135	129864	keystroke_n	n	n/a
65.127	0.104	130254	keystroke_Key.space	Key.space	n/a
65.352	0.12	130704	keystroke_r	r	n/a
65.411	0.136	130822	keystroke_e	e	n/a
65.607	0.12	131214	keystroke_s	s	n/a
65.742	0.105	131484	keystroke_i	i	n/a
65.847	0.165	131694	keystroke_s	s	n/a
65.997	0.104	131994	keystroke_t	t	n/a
66.161	0.151	132322	keystroke_a	a	n/a
66.282	0.09	132564	keystroke_n	n	n/a
66.522	0.06	133044	keystroke_t	t	n/a
67.902	0.075	135804	keystroke_Key.space	Key.space	n/a
68.052	0.15	136104	keystroke_i	i	n/a
68.127	0.12	136254	keystroke_n	n	n/a
68.292	0.105	136584	keystroke_t	t	n/a
68.487	0.105	136974	keystroke_e	e	n/a
68.622	0.15	137244	keystroke_n	n	n/a
69.207	0.075	138414	keystroke_d	d	n/a
70.167	0.09	140334	keystroke_Key.enter	Key.enter	n/a
70.2655	9.758	140531	prompt	n/a	groove healthcare slim hour\n
71.0815	0.09	142163	keystroke_g	g	n/a
71.3065	0.1205	142613	keystroke_r	r	n/a
71.3815	0.0905	142763	keystroke_o	o	n/a
71.622	0.03	143244	keystroke_v	v	n/a
72.2515	0.105	144503	keystroke_Key.backspace	Key.backspace	n/a
72.5815	0.09	145163	keystroke_o	o	n/a
72.8515	0.12	145703	keystroke_v	v	n/a
73.1365	0.165	146273	keystroke_e	e	n/a
73.3315	0.12	146663	keystroke_Key.space	Key.space	n/a
73.5115	0.105	147023	keystroke_h	h	n/a
73.6315	0.105	147263	keystroke_e	e	n/a
73.8265	0.135	147653	keystroke_a	a	n/a
74.0215	0.075	148043	keystroke_l	l	n/a
75.1015	0.09	150203	keystroke_t	t	n/a
75.2215	0.075	150443	keystroke_h	h	n/a
75.6415	0.09	151283	keystroke_c	c	n/a
75.8365	0.135	151673	keystroke_a	a	n/a
76.0015	0.135	152003	keystroke_r	r	n/a
76.0615	0.18	152123	keystroke_e	e	n/a
77.801	0.12	155602	keystroke_Key.space	Key.space	n/a
78.206	0.106	156412	keystroke_s	s	n/a
78.341	0.1355	156682	keystroke_l	l	n/a
78.402	0.1195	156804	keystroke_i	i	n/a
78.6565	0.12	157313	keystroke_m	m	n/a
78.9115	0.12	157823	keystroke_Key.space	Key.space	n/a
79.1515	0.12	158303	keystroke_h	h	n/a
79.2565	0.165	158513	keystroke_o	o	n/a
79.3775	0.104	158755	keystroke_u	u	n/a
79.4825	0.089	158965	keystroke_r	r	n/a
79.9465	0.075	159893	keystroke_Key.enter	Key.enter	n/a
80.029	8.89	160058	prompt	n/a	niagara do requirements amenities\n
81.462	0.06	162924	keystroke_n	n	n/a
81.657	0.105	163314	keystroke_i	i	n/a
81.822	0.119	163644	keystroke_a	a	n/a
82.092	0.105	164184	keystroke_g	g	n/a
82.601	0.165	165202	keystroke_a	a	n/a
82.811	0.15	165622	keystroke_r	r	n/a
82.931	0.135	165862	keystroke_a	a	n/a
83.171	0.09	166342	keystroke_Key.space	Key.space	n/a
83.411	0.075	166822	keystroke_d	d	n/a
83.501	0.105	167002	keystroke_o	o	n/a
83.621	0.105	167242	keystroke_Key.space	Key.space	n/a
83.876	0.151	167752	keystroke_r	r	n/a
83.996	0.106	167992	keystroke_e	e	n/a
84.206	0.105	168412	keystroke_q	q	n/a
84.326	0.151	168652	keystroke_u	u	n/a
84.462	0.105	168924	keystroke_i	i	n/a
84.687	0.165	169374	keystroke_r	r	n/a
84.792	0.135	169584	keystroke_e	e	n/a
84.957	0.12	169914	keystroke_m	m	n/a
85.092	0.12	170184	keystroke_e	e	n/a
85.182	0.135	170364	keystroke_n	n	n/a
85.347	0.09	170694	keystroke_t	t	n/a
85.527	0.18	171054	keystroke_s	s	n/a
85.722	0.105	171444	keystroke_Key.space	Key.space	n/a
85.902	0.15	171804	keystroke_a	a	n/a
86.112	0.105	172224	keystroke_m	m	n/a
86.262	0.15	172524	keystroke_e	e	n/a
86.382	0.105	172764	keystroke_n	n	n/a
87.717	0.075	175434	keystroke_i	i	n/a
88.017	0.06	176034	keystroke_t	t	n/a
88.197	0.105	176394	keystroke_i	i	n/a
88.347	0.18	176694	keystroke_e	e	n/a
88.497	0.135	176994	keystroke_s	s	n/a
88.857	0.06	177714	keystroke_Key.enter	Key.enter	n/a
88.923	9.161	177846	prompt	n/a	proud expressions flush bachelor\n
89.802	0.09	179604	keystroke_p	p	n/a
89.982	0.06	179964	keystroke_r	r	n/a
90.087	0.165	180174	keystroke_o	o	n/a
90.192	0.12	180384	keystroke_u	u	n/a
90.342	0.165	180684	keystroke_d	d	n/a
90.492	0.12	180984	keystroke_Key.space	Key.space	n/a
90.687	0.09	181374	keystroke_e	e	n/a
90.912	0.12	181824	keystroke_x	x	n/a
91.197	0.075	182394	keystroke_p	p	n/a
91.407	0.075	182814	keystroke_r	r	n/a
91.437	0.195	182874	keystroke_e	e	n/a
91.587	0.135	183174	keystroke_s	s	n/a
91.812	0.105	183624	keystroke_s	s	n/a
92.007	0.15	184014	keystroke_i	i	n/a
92.052	0.21	184104	keystroke_o	o	n/a
92.232	0.12	184464	keystroke_n	n	n/a
92.412	0.15	184824	keystroke_s	s	n/a
92.637	0.105	185274	keystroke_Key.space	Key.space	n/a
93.207	0.135	186414	keystroke_f	f	n/a
93.327	0.09	186654	keystroke_l	l	n/a
93.507	0.12	187014	keystroke_i	i	n/a
94.272	0.075	188544	keystroke_Key.backspace	Key.backspace	n/a
94.512	0.09	189024	keystroke_u	u	n/a
95.112	0.12	190224	keystroke_s	s	n/a
95.262	0.075	190524	keystroke_h	h	n/a
95.667	0.12	191334	keystroke_Key.space	Key.space	n/a
95.847	0.09	191694	keystroke_b	b	n/a
95.967	0.09	191934	keystroke_a	a	n/a
96.192	0.105	192384	keystroke_c	c	n/a
96.342	0.105	192684	keystroke_h	h	n/a
97.137	0.075	194274	keystroke_e	e	n/a
97.302	0.075	194604	keystroke_l	l	n/a
97.497	0.09	194994	keystroke_o	o	n/a
97.572	0.09	195144	keystroke_r	r	n/a
98.007	0.0745	196014	keystroke_Key.enter	Key.enter	n/a
98.0885	7.135	196177	prompt	n/a	noticed banks mixing latex\n
99.0715	0.075	198143	keystroke_n	n	n/a
99.2965	0.105	198593	keystroke_o	o	n/a
99.5965	0.075	199193	keystroke_t	t	n/a
99.6865	0.105	199373	keystroke_i	i	n/a
99.8665	0.105	199733	keystroke_c	c	n/a
100.0615	0.09	200123	keystroke_e	e	n/a
100.2715	0.12	200543	keystroke_d	d	n/a
100.4215	0.075	200843	keystroke_Key.space	Key.space	n/a
100.6315	0.075	201263	keystroke_b	b	n/a
100.7215	0.135	201443	keystroke_a	a	n/a
100.8715	0.09	201743	keystroke_n	n	n/a
101.0965	0.105	202193	keystroke_k	k	n/a
101.8915	0.12	203783	keystroke_s	s	n/a
102.2065	0.12	204413	keystroke_Key.space	Key.space	n/a
102.612	0.09	205224	keystroke_m	m	n/a
102.852	0.09	205704	keystroke_i	i	n/a
102.972	0.105	205944	keystroke_x	x	n/a
103.122	0.165	206244	keystroke_i	i	n/a
103.227	0.134	206454	keystroke_n	n	n/a
103.347	0.104	206694	keystroke_g	g	n/a
103.526	0.12	207052	keystroke_Key.space	Key.space	n/a
103.767	0.09	207534	keystroke_l	l	n/a
104.067	0.134	208134	keystroke_a	a	n/a
104.322	0.1045	208644	keystroke_t	t	n/a
104.4565	0.105	208913	keystroke_e	e	n/a
104.6815	0.21	209363	keystroke_x	x	n/a
105.1315	0.09	210263	keystroke_Key.enter	Key.enter	n/a
105.229	9.115	210458	prompt	n/a	chances fitting makeup staff\n
106.2415	0.135	212483	keystroke_c	c	n/a
107.0365	0.075	214073	keystroke_h	h	n/a
107.2465	0.105	214493	keystroke_a	a	n/a
107.3665	0.105	214733	keystroke_n	n	n/a
107.6365	0.12	215273	keystroke_c	c	n/a
107.8165	0.135	215633	keystroke_e	e	n/a
107.9815	0.15	215963	keystroke_s	s	n/a
109.932	0.105	219864	keystroke_Key.space	Key.space	n/a
110.697	0.105	221394	keystroke_f	f	n/a
110.802	0.09	221604	keystroke_i	i	n/a
110.952	0.09	221904	keystroke_t	t	n/a
111.102	0.09	222204	keystroke_t	t	n/a
111.267	0.195	222534	keystroke_i	i	n/a
111.387	0.135	222774	keystroke_n	n	n/a
111.492	0.105	222984	keystroke_g	g	n/a
111.687	0.09	223374	keystroke_Key.space	Key.space	n/a
111.837	0.105	223674	keystroke_m	m	n/a
111.942	0.12	223884	keystroke_a	a	n/a
112.347	0.12	224694	keystroke_k	k	n/a
112.512	0.1205	225024	keystroke_e	e	n/a
112.811	0.1365	225622	keystroke_u	u	n/a
112.9025	0.1045	225805	keystroke_p	p	n/a
113.1115	0.105	226223	keystroke_Key.space	Key.space	n/a
113.3825	0.104	226765	keystroke_s	s	n/a
113.5775	0.06	227155	keystroke_t	t	n/a
113.7575	0.09	227515	keystroke_a	a	n/a
113.9975	0.03	227995	keystroke_f	f	n/a
114.1175	0.09	228235	keystroke_f	f	n/a
114.2675	0.074	228535	keystroke_Key.enter	Key.enter	n/a
114.348	9.7465	228696	prompt	n/a	potentially alberta tribe hydraulic\n
115.242	0.12	230484	keystroke_p	p	n/a
115.332	0.12	230664	keystroke_o	o	n/a
115.482	0.075	230964	keystroke_t	t	n/a
115.617	0.135	231234	keystroke_e	e	n/a
115.737	0.075	231474	keystroke_n	n	n/a
115.917	0.09	231834	keystroke_t	t	n/a
116.022	0.105	232044	keystroke_i	i	n/a
116.172	0.12	232344	keystroke_a	a	n/a
116.322	0.075	232644	keystroke_l	l	n/a
116.472	0.075	232944	keystroke_l	l	n/a
116.667	0.105	233334	keystroke_y	y	n/a
116.787	0.135	233574	keystroke_Key.space	Key.space	n/a
117.162	0.135	234324	keystroke_a	a	n/a
117.312	0.06	234624	keystroke_l	l	n/a
117.927	0.075	235854	keystroke_b	b	n/a
118.032	0.18	236064	keystroke_e	e	n/a
118.122	0.165	236244	keystroke_r	r	n/a
118.422	0.09	236844	keystroke_t	t	n/a
118.617	0.18	237234	keystroke_a	a	n/a
118.782	0.105	237564	keystroke_Key.space	Key.space	n/a
118.992	0.075	237984	keystroke_t	t	n/a
119.157	0.105	238314	keystroke_r	r	n/a
119.277	0.075	238554	keystroke_i	i	n/a
119.532	0.06	239064	keystroke_v	v	n/a
120.162	0.09	240324	keystroke_Key.backspace	Key.backspace	n/a
120.732	0.075	241464	keystroke_b	b	n/a
121.047	0.075	242094	keystroke_e	e	n/a
121.332	0.105	242664	keystroke_Key.space	Key.space	n/a
121.782	0.09	243564	keystroke_h	h	n/a
122.022	0.09	244044	keystroke_y	y	n/a
122.352	0.12	244704	keystroke_d	d	n/a
122.622	0.105	245244	keystroke_r	r	n/a
122.877	0.105	245754	keystroke_a	a	n/a
122.997	0.06	245994	keystroke_u	u	n/a
123.177	0.135	246354	keystroke_l	l	n/a
123.267	0.15	246534	keystroke_i	i	n/a
123.402	0.105	246804	keystroke_c	c	n/a
124.017	0.075	248034	keystroke_Key.enter	Key.enter	n/a
124.1	5.334	248200	prompt	n/a	eagle horrible shadow picked\n
124.977	0.09	249954	keystroke_e	e	n/a
125.187	0.075	250374	keystroke_a	a	n/a
125.397	0.075	250794	keystroke_g	g	n/a
125.517	0.105	251034	keystroke_l	l	n/a
125.607	0.105	251214	keystroke_e	e	n/a
125.847	0.09	251694	keystroke_Key.space	Key.space	n/a
126.042	0.105	252084	keystroke_h	h	n/a
126.132	0.105	252264	keystroke_o	o	n/a
126.282	0.06	252564	keystroke_r	r	n/a
126.402	0.12	252804	keystroke_r	r	n/a
126.537	0.075	253074	keystroke_i	i	n/a
126.687	0.105	253374	keystroke_b	b	n/a
126.942	0.135	253884	keystroke_l	l	n/a
127.062	0.15	254124	keystroke_e	e	n/a
127.197	0.09	254394	keystroke_Key.space	Key.space	n/a
127.407	0.12	254814	keystroke_s	s	n/a
127.512	0.075	255024	keystroke_h	h	n/a
127.632	0.09	255264	keystroke_a	a	n/a
127.887	0.105	255774	keystroke_d	d	n/a
127.977	0.105	255954	keystroke_o	o	n/a
128.097	0.12	256194	keystroke_w	w	n/a
128.292	0.09	256584	keystroke_Key.space	Key.space	n/a
128.457	0.075	256914	keystroke_p	p	n/a
128.592	0.09	257184	keystroke_i	i	n/a
128.712	0.105	257424	keystroke_c	c	n/a
128.877	0.105	257754	keystroke_k	k	n/a
128.967	0.09	257934	keystroke_e	e	n/a
129.162	0.075	258324	keystroke_d	d	n/a
129.387	0.045	258774	keystroke_Key.enter	Key.enter	n/a
129.441	7.6125	258882	prompt	n/a	relay lycos groove expressed\n
130.393	0.134	260786	keystroke_r	r	n/a
130.452	0.165	260904	keystroke_e	e	n/a
130.602	0.12	261204	keystroke_l	l	n/a
130.752	0.15	261504	keystroke_a	a	n/a
130.917	0.105	261834	keystroke_y	y	n/a
131.067	0.12	262134	keystroke_Key.space	Key.space	n/a
131.322	0.075	262644	keystroke_l	l	n/a
131.517	0.105	263034	keystroke_y	y	n/a
131.937	0.105	263874	keystroke_c	c	n/a
132.042	0.105	264084	keystroke_o	o	n/a
132.222	0.135	264444	keystroke_s	s	n/a
132.477	0.09	264954	keystroke_Key.space	Key.space	n/a
132.717	0.06	265434	keystroke_g	g	n/a
133.077	0.135	266154	keystroke_r	r	n/a
133.932	0.06	267864	keystroke_o	o	n/a
134.112	0.06	268224	keystroke_o	o	n/a
134.5015	0.075	269003	keystroke_v	v	n/a
134.8465	0.105	269693	keystroke_e	e	n/a
135.162	0.105	270324	keystroke_Key.space	Key.space	n/a
135.357	0.09	270714	keystroke_e	e	n/a
135.567	0.12	271134	keystroke_x	x	n/a
135.852	0.09	271704	keystroke_p	p	n/a
136.077	0.105	272154	keystroke_r	r	n/a
136.122	0.165	272244	keystroke_e	e	n/a
136.212	0.135	272424	keystroke_s	s	n/a
136.422	0.195	272844	keystroke_s	s	n/a
136.587	0.09	273174	keystroke_e	e	n/a
136.767	0.075	273534	keystroke_d	d	n/a
136.992	0.06	273984	keystroke_Key.enter	Key.enter	n/a
137.058	8.396	274116	prompt	n/a	evans wrapping was casinos\n
137.757	0.09	275514	keystroke_e	e	n/a
138.012	0.09	276024	keystroke_v	v	n/a
138.237	0.12	276474	keystroke_a	a	n/a
138.387	0.0745	276774	keystroke_n	n	n/a
138.7925	0.104	277585	keystroke_s	s	n/a
138.9715	0.105	277943	keystroke_Key.space	Key.space	n/a
139.3925	0.119	278785	keystroke_w	w	n/a
139.9765	0.106	279953	keystroke_r	r	n/a
140.2015	0.121	280403	keystroke_a	a	n/a
140.7265	0.045	281453	keystroke_p	p	n/a
140.8765	0.06	281753	keystroke_p	p	n/a
141.0415	0.195	282083	keystroke_i	i	n/a
141.1915	0.12	282383	keystroke_n	n	n/a
141.4465	0.09	282893	keystroke_g	g	n/a
141.6865	0.075	283373	keystroke_Key.space	Key.space	n/a
141.9275	0.045	283855	keystroke_w	w	n/a
142.3015	0.1805	284603	keystroke_a	a	n/a
142.752	0.105	285504	keystroke_Key.space	Key.space	n/a
143.127	0.09	286254	keystroke_Key.backspace	Key.backspace	n/a
143.292	0.135	286584	keystroke_s	s	n/a
143.802	0.105	287604	keystroke_Key.space	Key.space	n/a
144.192	0.12	288384	keystroke_c	c	n/a
144.418	0.0745	288836	keystroke_a	a	n/a
144.5975	0.12	289195	keystroke_s	s	n/a
144.7325	0.075	289465	keystroke_i	i	n/a
144.8975	0.135	289795	keystroke_n	n	n/a
144.9875	0.1195	289975	keystroke_o	o	n/a
145.108	0.089	290216	keystroke_s	s	n/a
145.362	0.09	290724	keystroke_Key.enter	Key.enter	n/a
145.46	6.369	290920	prompt	n/a	moreover enquiries lane rows\n
146.307	0.09	292614	keystroke_m	m	n/a
146.472	0.12	292944	keystroke_o	o	n/a
146.637	0.135	293274	keystroke_r	r	n/a
146.727	0.12	293454	keystroke_e	e	n/a
146.892	0.09	293784	keystroke_o	o	n/a
147.117	0.105	294234	keystroke_v	v	n/a
147.297	0.12	294594	keystroke_e	e	n/a
147.402	0.15	294804	keystroke_r	r	n/a
147.507	0.105	295014	keystroke_Key.space	Key.space	n/a
148.107	0.12	296214	keystroke_e	e	n/a
148.242	0.075	296484	keystroke_n	n	n/a
148.587	0.135	297174	keystroke_q	q	n/a
148.677	0.12	297354	keystroke_u	u	n/a
148.827	0.105	297654	keystroke_i	i	n/a
149.127	0.12	298254	keystroke_r	r	n/a
149.427	0.135	298854	keystroke_i	i	n/a
149.532	0.15	299064	keystroke_e	e	n/a
149.652	0.105	299304	keystroke_s	s	n/a
150.027	0.12	300054	keystroke_Key.space	Key.space	n/a
150.252	0.075	300504	keystroke_l	l	n/a
150.342	0.135	300684	keystroke_a	a	n/a
150.537	0.09	301074	keystroke_n	n	n/a
150.657	0.15	301314	keystroke_e	e	n/a
150.822	0.075	301644	keystroke_Key.space	Key.space	n/a
151.032	0.105	302064	keystroke_r	r	n/a
151.182	0.12	302364	keystroke_o	o	n/a
151.317	0.075	302634	keystroke_w	w	n/a
151.542	0.09	303084	keystroke_s	s	n/a
151.752	0.075	303504	keystroke_Key.enter	Key.enter	n/a
151.836	12.518	303672	prompt	n/a	infection cardiff discovered merry\n
153.087	0.195	306174	keystroke_i	i	n/a
153.222	0.075	306444	keystroke_n	n	n/a
153.327	0.09	306654	keystroke_f	f	n/a
153.492	0.075	306984	keystroke_e	e	n/a
153.702	0.075	307404	keystroke_c	c	n/a
153.942	0.09	307884	keystroke_t	t	n/a
154.092	0.15	308184	keystroke_i	i	n/a
154.168	0.149	308336	keystroke_o	o	n/a
154.287	0.12	308574	keystroke_n	n	n/a
154.512	0.105	309024	keystroke_Key.space	Key.space	n/a
154.842	0.09	309684	keystroke_c	c	n/a
155.112	0.105	310224	keystroke_a	a	n/a
155.517	0.075	311034	keystroke_r	r	n/a
155.727	0.09	311454	keystroke_f	f	n/a
155.802	0.09	311604	keystroke_i	i	n/a
156.312	0.045	312624	keystroke_g	g	n/a
157.377	0.075	314754	keystroke_Key.backspace	Key.backspace	n/a
157.632	0.105	315264	keystroke_Key.backspace	Key.backspace	n/a
158.382	0.075	316764	keystroke_Key.backspace	Key.backspace	n/a
158.758	0.089	317516	keystroke_d	d	n/a
158.892	0.09	317784	keystroke_i	i	n/a
159.282	0.0755	318564	keystroke_f	f	n/a
159.4635	0.089	318927	keystroke_f	f	n/a
160.0325	0.12	320065	keystroke_Key.space	Key.space	n/a
160.2575	0.165	320515	keystroke_d	d	n/a
160.5425	0.12	321085	keystroke_i	i	n/a
160.9935	0.134	321987	keystroke_s	s	n/a
161.5935	0.074	323187	keystroke_c	c	n/a
161.9385	0.075	323877	keystroke_o	o	n/a
162.2525	0.09	324505	keystroke_v	v	n/a
162.4475	0.091	324895	keystroke_e	e	n/a
162.5535	0.18	325107	keystroke_r	r	n/a
162.6425	0.15	325285	keystroke_e	e	n/a
162.9125	0.135	325825	keystroke_d	d	n/a
163.0775	0.075	326155	keystroke_Key.space	Key.space	n/a
163.377	0.12	326754	keystroke_m	m	n/a
163.527	0.15	327054	keystroke_e	e	n/a
163.647	0.075	327294	keystroke_r	r	n/a
163.797	0.091	327594	keystroke_r	r	n/a
163.947	0.091	327894	keystroke_y	y	n/a
164.262	0.09	328524	keystroke_Key.enter	Key.enter	n/a
164.3595	10.4805	328719	prompt	n/a	lancaster airplane finance lauren\n
165.0275	0.09	330055	keystroke_l	l	n/a
165.2225	0.12	330445	keystroke_a	a	n/a
165.3425	0.105	330685	keystroke_n	n	n/a
166.1525	0.105	332305	keystroke_c	c	n/a
166.3475	0.0755	332695	keystroke_a	a	n/a
166.543	0.134	333086	keystroke_s	s	n/a
166.723	0.09	333446	keystroke_t	t	n/a
166.873	0.135	333746	keystroke_e	e	n/a
166.962	0.195	333924	keystroke_r	r	n/a
167.532	0.106	335064	keystroke_Key.space	Key.space	n/a
170.6865	0.101	341373	keystroke_a	a	n/a
170.7575	0.12	341515	keystroke_i	i	n/a
170.9375	0.105	341875	keystroke_r	r	n/a
171.0575	0.06	342115	keystroke_p	p	n/a
171.2375	0.105	342475	keystroke_l	l	n/a
171.3575	0.12	342715	keystroke_a	a	n/a
171.5375	0.105	343075	keystroke_n	n	n/a
171.7175	0.105	343435	keystroke_e	e	n/a
171.9875	0.105	343975	keystroke_Key.space	Key.space	n/a
172.2575	0.135	344515	keystroke_f	f	n/a
172.3325	0.075	344665	keystroke_i	i	n/a
172.543	0.09	345086	keystroke_n	n	n/a
172.633	0.105	345266	keystroke_a	a	n/a
172.753	0.105	345506	keystroke_n	n	n/a
172.888	0.09	345776	keystroke_c	c	n/a
173.098	0.15	346196	keystroke_e	e	n/a
173.248	0.119	346496	keystroke_Key.space	Key.space	n/a
173.458	0.119	346916	keystroke_l	l	n/a
173.908	0.135	347816	keystroke_a	a	n/a
174.058	0.119	348116	keystroke_u	u	n/a
174.193	0.135	348386	keystroke_r	r	n/a
174.313	0.12	348626	keystroke_e	e	n/a
174.418	0.089	348836	keystroke_n	n	n/a
174.762	0.075	349524	keystroke_Key.enter	Key.enter	n/a
174.8465	10.223	349693	prompt	n/a	college resolved indianapolis batch\n
175.677	0.135	351354	keystroke_c	c	n/a
175.797	0.06	351594	keystroke_o	o	n/a
175.962	0.105	351924	keystroke_l	l	n/a
176.367	0.09	352734	keystroke_l	l	n/a
176.637	0.106	353274	keystroke_e	e	n/a
176.862	0.15	353724	keystroke_g	g	n/a
176.968	0.149	353936	keystroke_e	e	n/a
177.417	0.105	354834	keystroke_Key.space	Key.space	n/a
177.642	0.09	355284	keystroke_r	r	n/a
177.687	0.135	355374	keystroke_e	e	n/a
177.943	0.134	355886	keystroke_s	s	n/a
178.047	0.075	356094	keystroke_o	o	n/a
178.242	0.15	356484	keystroke_l	l	n/a
178.588	0.119	357176	keystroke_v	v	n/a
178.7525	0.1045	357505	keystroke_e	e	n/a
178.962	0.075	357924	keystroke_d	d	n/a
179.7575	0.1195	359515	keystroke_Key.space	Key.space	n/a
179.967	0.076	359934	keystroke_i	i	n/a
180.177	0.105	360354	keystroke_n	n	n/a
180.927	0.09	361854	keystroke_d	d	n/a
181.047	0.12	362094	keystroke_i	i	n/a
181.197	0.165	362394	keystroke_a	a	n/a
181.828	0.1195	363656	keystroke_n	n	n/a
181.9775	0.136	363955	keystroke_a	a	n/a
182.2635	0.18	364527	keystroke_p	p	n/a
182.3975	0.09	364795	keystroke_o	o	n/a
182.5935	0.164	365187	keystroke_l	l	n/a
182.6825	0.135	365365	keystroke_i	i	n/a
182.8325	0.195	365665	keystroke_s	s	n/a
183.0725	0.105	366145	keystroke_Key.space	Key.space	n/a
183.7025	0.061	367405	keystroke_b	b	n/a
184.1375	0.12	368275	keystroke_a	a	n/a
184.3635	0.074	368727	keystroke_t	t	n/a
184.6035	0.104	369207	keystroke_c	c	n/a
184.7225	0.075	369445	keystroke_h	h	n/a
184.9785	0.089	369957	keystroke_Key.enter	Key.enter	n/a
185.075	7.15	370150	prompt	n/a	located data spencer learning\n
186.1475	0.075	372295	keystroke_l	l	n/a
186.3275	0.091	372655	keystroke_o	o	n/a
186.4635	0.119	372927	keystroke_c	c	n/a
186.6435	0.12	373287	keystroke_a	a	n/a
186.8685	0.134	373737	keystroke_t	t	n/a
186.9575	0.12	373915	keystroke_e	e	n/a
187.1535	0.12	374307	keystroke_d	d	n/a
187.2875	0.12	374575	keystroke_Key.space	Key.space	n/a
187.4975	0.091	374995	keystroke_d	d	n/a
187.6935	0.149	375387	keystroke_a	a	n/a
188.2775	0.091	376555	keystroke_t	t	n/a
188.4135	0.164	376827	keystroke_a	a	n/a
188.8175	0.105	377635	keystroke_Key.space	Key.space	n/a
189.0575	0.18	378115	keystroke_s	s	n/a
189.2825	0.075	378565	keystroke_p	p	n/a
189.4485	0.104	378897	keystroke_e	e	n/a
189.5375	0.105	379075	keystroke_n	n	n/a
189.8675	0.105	379735	keystroke_c	c	n/a
190.1075	0.15	380215	keystroke_e	e	n/a
190.1975	0.12	380395	keystroke_r	r	n/a
191.0225	0.12	382045	keystroke_Key.space	Key.space	n/a
191.1725	0.12	382345	keystroke_l	l	n/a
191.3075	0.075	382615	keystroke_e	e	n/a
191.4425	0.15	382885	keystroke_a	a	n/a
191.5325	0.12	383065	keystroke_r	r	n/a
191.6675	0.09	383335	keystroke_n	n	n/a
191.7275	0.195	383455	keystroke_i	i	n/a
191.8325	0.12	383665	keystroke_n	n	n/a
191.9075	0.075	383815	keystroke_g	g	n/a
192.1325	0.09	384265	keystroke_Key.enter	Key.enter	n/a
192.2295	12.025	384459	prompt	n/a	mercedes vienna housewives valuable\n
193.0935	0.089	386187	keystroke_m	m	n/a
193.2575	0.181	386515	keystroke_e	e	n/a
193.3775	0.105	386755	keystroke_r	r	n/a
193.7375	0.09	387475	keystroke_c	c	n/a
193.9925	0.105	387985	keystroke_e	e	n/a
194.2475	0.045	388495	keystroke_d	d	n/a
194.3975	0.165	388795	keystroke_e	e	n/a
194.5475	0.135	389095	keystroke_s	s	n/a
194.7875	0.12	389575	keystroke_Key.space	Key.space	n/a
195.5225	0.12	391045	keystroke_v	v	n/a
195.7325	0.105	391465	keystroke_i	i	n/a
196.2725	0.105	392545	keystroke_e	e	n/a
196.498	0.075	392996	keystroke_n	n	n/a
196.648	0.09	393296	keystroke_n	n	n/a
196.798	0.105	393596	keystroke_a	a	n/a
197.113	0.105	394226	keystroke_Key.space	Key.space	n/a
197.278	0.12	394556	keystroke_h	h	n/a
197.383	0.18	394766	keystroke_o	o	n/a
197.503	0.12	395006	keystroke_u	u	n/a
197.623	0.105	395246	keystroke_s	s	n/a
197.698	0.135	395396	keystroke_e	e	n/a
198.073	0.12	396146	keystroke_v	v	n/a
198.568	0.075	397136	keystroke_i	i	n/a
198.988	0.075	397976	keystroke_Key.backspace	Key.backspace	n/a
199.198	0.06	398396	keystroke_Key.backspace	Key.backspace	n/a
199.453	0.105	398906	keystroke_w	w	n/a
199.618	0.09	399236	keystroke_i	i	n/a
199.783	0.105	399566	keystroke_v	v	n/a
200.023	0.195	400046	keystroke_e	e	n/a
200.173	0.105	400346	keystroke_s	s	n/a
200.548	0.09	401096	keystroke_Key.space	Key.space	n/a
201.118	0.105	402236	keystroke_v	v	n/a
201.388	0.12	402776	keystroke_a	a	n/a
201.718	0.121	403436	keystroke_l	l	n/a
203.308	0.105	406616	keystroke_u	u	n/a
203.518	0.135	407036	keystroke_a	a	n/a
203.683	0.09	407366	keystroke_b	b	n/a
203.848	0.135	407696	keystroke_l	l	n/a
203.968	0.09	407936	keystroke_e	e	n/a
204.163	0.09	408326	keystroke_Key.enter	Key.enter	n/a
204.2595	8.7705	408519	prompt	n/a	visited execute indiana netscape\n
205.0335	0.149	410067	keystroke_v	v	n/a
205.1985	0.09	410397	keystroke_i	i	n/a
205.3035	0.135	410607	keystroke_s	s	n/a
206.0985	0.09	412197	keystroke_i	i	n/a
206.3985	0.119	412797	keystroke_t	t	n/a
206.4725	0.136	412945	keystroke_e	e	n/a
206.6985	0.135	413397	keystroke_d	d	n/a
206.8625	0.12	413725	keystroke_Key.space	Key.space	n/a
207.1025	0.09	414205	keystroke_e	e	n/a
207.3135	0.135	414627	keystroke_x	x	n/a
207.6735	0.12	415347	keystroke_e	e	n/a
208.2585	0.12	416517	keystroke_c	c	n/a
208.4385	0.09	416877	keystroke_u	u	n/a
208.5735	0.12	417147	keystroke_t	t	n/a
208.6335	0.15	417267	keystroke_e	e	n/a
208.9175	0.105	417835	keystroke_Key.space	Key.space	n/a
209.1135	0.135	418227	keystroke_i	i	n/a
209.2785	0.15	418557	keystroke_n	n	n/a
209.4735	0.119	418947	keystroke_d	d	n/a
209.6085	0.09	419217	keystroke_i	i	n/a
209.9235	0.135	419847	keystroke_a	a	n/a
210.1035	0.12	420207	keystroke_n	n	n/a
210.2085	0.105	420417	keystroke_a	a	n/a
210.3875	0.165	420775	keystroke_Key.space	Key.space	n/a
210.6735	0.105	421347	keystroke_n	n	n/a
210.8085	0.134	421617	keystroke_e	e	n/a
210.9585	0.135	421917	keystroke_t	t	n/a
211.1835	0.135	422367	keystroke_s	s	n/a
211.4685	0.09	422937	keystroke_c	c	n/a
211.6185	0.089	423237	keystroke_a	a	n/a
211.8735	0.09	423747	keystroke_p	p	n/a
211.9475	0.075	423895	keystroke_e	e	n/a
212.9535	0.074	425907	keystroke_Key.enter	Key.enter	n/a
213.0355	7.046	426071	prompt	n/a	handling slight bearing taxi\n
214.1385	0.105	428277	keystroke_h	h	n/a
214.2285	0.1495	428457	keystroke_a	a	n/a
214.393	0.09	428786	keystroke_n	n	n/a
214.528	0.105	429056	keystroke_d	d	n/a
214.648	0.18	429296	keystroke_i	i	n/a
214.753	0.105	429506	keystroke_n	n	n/a
215.128	0.075	430256	keystroke_Key.backspace	Key.backspace	n/a
215.488	0.075	430976	keystroke_Key.backspace	Key.backspace	n/a
215.743	0.135	431486	keystroke_l	l	n/a
215.998	0.21	431996	keystroke_i	i	n/a
216.118	0.135	432236	keystroke_n	n	n/a
216.298	0.105	432596	keystroke_g	g	n/a
216.7335	0.09	433467	keystroke_Key.space	Key.space	n/a
216.9885	0.105	433977	keystroke_s	s	n/a
217.1085	0.075	434217	keystroke_l	l	n/a
217.1385	0.135	434277	keystroke_i	i	n/a
217.2885	0.06	434577	keystroke_g	g	n/a
217.3785	0.105	434757	keystroke_h	h	n/a
217.5285	0.09	435057	keystroke_t	t	n/a
217.6785	0.105	435357	keystroke_Key.space	Key.space	n/a
217.8885	0.09	435777	keystroke_b	b	n/a
217.9935	0.075	435987	keystroke_e	e	n/a
218.1435	0.15	436287	keystroke_a	a	n/a
218.2185	0.135	436437	keystroke_r	r	n/a
218.3685	0.15	436737	keystroke_i	i	n/a
218.4285	0.135	436857	keystroke_n	n	n/a
218.5785	0.09	437157	keystroke_g	g	n/a
218.7135	0.104	437427	keystroke_Key.space	Key.space	n/a
219.1485	0.075	438297	keystroke_t	t	n/a
219.3735	0.09	438747	keystroke_a	a	n/a
219.6435	0.12	439287	keystroke_x	x	n/a
219.7785	0.075	439557	keystroke_i	i	n/a
219.9885	0.09	439977	keystroke_Key.enter	Key.enter	n/a
220.0855	10.195	440171	prompt	n/a	cholesterol butter phones virtual\n
221.0235	0.12	442047	keystroke_c	c	n/a
221.1585	0.105	442317	keystroke_h	h	n/a
221.3085	0.105	442617	keystroke_o	o	n/a
221.5335	0.135	443067	keystroke_l	l	n/a
221.6535	0.105	443307	keystroke_e	e	n/a
221.9835	0.165	443967	keystroke_s	s	n/a
222.2385	0.105	444477	keystroke_t	t	n/a
224.971	0.057	449942	keystroke_e	e	n/a
225.148	0.09	450296	keystroke_r	r	n/a
225.508	0.075	451016	keystroke_o	o	n/a
225.688	0.105	451376	keystroke_l	l	n/a
225.883	0.12	451766	keystroke_Key.space	Key.space	n/a
226.048	0.1055	452096	keystroke_b	b	n/a
226.6185	0.135	453237	keystroke_u	u	n/a
226.8135	0.045	453627	keystroke_t	t	n/a
226.9335	0.09	453867	keystroke_t	t	n/a
227.1135	0.12	454227	keystroke_e	e	n/a
227.2035	0.165	454407	keystroke_r	r	n/a
227.3385	0.105	454677	keystroke_Key.space	Key.space	n/a
227.5935	0.1045	455187	keystroke_p	p	n/a
227.743	0.151	455486	keystroke_h	h	n/a
227.848	0.15	455696	keystroke_o	o	n/a
228.058	0.135	456116	keystroke_n	n	n/a
228.179	0.194	456358	keystroke_e	e	n/a
228.329	0.15	456658	keystroke_s	s	n/a
228.613	0.105	457226	keystroke_Key.space	Key.space	n/a
228.958	0.09	457916	keystroke_v	v	n/a
229.108	0.12	458216	keystroke_i	i	n/a
229.229	0.089	458458	keystroke_r	r	n/a
229.438	0.105	458876	keystroke_t	t	n/a
229.528	0.09	459056	keystroke_u	u	n/a
229.648	0.135	459296	keystroke_a	a	n/a
229.739	0.089	459478	keystroke_l	l	n/a
230.204	0.074	460408	keystroke_Key.enter	Key.enter	n/a
230.2845	8.6665	460569	prompt	n/a	stainless process toxic hosting\n
231.148	0.15	462296	keystroke_s	s	n/a
231.373	0.09	462746	keystroke_t	t	n/a
231.568	0.15	463136	keystroke_a	a	n/a
232.184	0.149	464368	keystroke_i	i	n/a
232.258	0.105	464516	keystroke_n	n	n/a
232.4535	0.12	464907	keystroke_l	l	n/a
232.5745	0.179	465149	keystroke_e	e	n/a
232.6785	0.12	465357	keystroke_s	s	n/a
232.8735	0.15	465747	keystroke_s	s	n/a
233.0985	0.12	466197	keystroke_Key.space	Key.space	n/a
233.3085	0.09	466617	keystroke_p	p	n/a
233.4735	0.09	466947	keystroke_r	r	n/a
233.5785	0.105	467157	keystroke_o	o	n/a
233.7285	0.105	467457	keystroke_c	c	n/a
233.9235	0.15	467847	keystroke_e	e	n/a
234.0135	0.12	468027	keystroke_s	s	n/a
234.2235	0.135	468447	keystroke_s	s	n/a
234.3885	0.1195	468777	keystroke_Key.space	Key.space	n/a
234.809	0.119	469618	keystroke_t	t	n/a
235.543	0.09	471086	keystroke_o	o	n/a
236.143	0.135	472286	keystroke_x	x	n/a
236.323	0.09	472646	keystroke_i	i	n/a
236.743	0.075	473486	keystroke_c	c	n/a
237.493	0.09	474986	keystroke_Key.space	Key.space	n/a
237.764	0.105	475528	keystroke_h	h	n/a
237.838	0.121	475676	keystroke_o	o	n/a
238.003	0.151	476006	keystroke_s	s	n/a
238.274	0.105	476548	keystroke_t	t	n/a
238.438	0.18	476876	keystroke_i	i	n/a
238.528	0.15	477056	keystroke_n	n	n/a
238.634	0.09	477268	keystroke_g	g	n/a
238.8885	0.06	477777	keystroke_Key.enter	Key.enter	n/a
238.955	9.027	477910	prompt	n/a	again questionnaire kenneth except\n
239.8035	0.09	479607	keystroke_a	a	n/a
239.9985	0.09	479997	keystroke_g	g	n/a
240.1785	0.135	480357	keystroke_a	a	n/a
240.2685	0.165	480537	keystroke_i	i	n/a
240.3585	0.12	480717	keystroke_n	n	n/a
240.4635	0.12	480927	keystroke_Key.space	Key.space	n/a
240.8535	0.12	481707	keystroke_q	q	n/a
240.9885	0.09	481977	keystroke_u	u	n/a
241.0935	0.15	482187	keystroke_e	e	n/a
241.1985	0.21	482397	keystroke_s	s	n/a
241.3335	0.12	482667	keystroke_t	t	n/a
241.4235	0.15	482847	keystroke_i	i	n/a
241.5135	0.195	483027	keystroke_o	o	n/a
241.6935	0.12	483387	keystroke_n	n	n/a
242.2335	0.09	484467	keystroke_n	n	n/a
242.6385	0.12	485277	keystroke_a	a	n/a
242.7595	0.119	485519	keystroke_i	i	n/a
242.8935	0.15	485787	keystroke_r	r	n/a
242.9685	0.165	485937	keystroke_e	e	n/a
243.2085	0.105	486417	keystroke_Key.space	Key.space	n/a
244.349	0.119	488698	keystroke_k	k	n/a
244.499	0.104	488998	keystroke_e	e	n/a
244.664	0.089	489328	keystroke_n	n	n/a
244.829	0.119	489658	keystroke_n	n	n/a
245.458	0.105	490916	keystroke_e	e	n/a
245.698	0.076	491396	keystroke_t	t	n/a
245.774	0.09	491548	keystroke_h	h	n/a
245.923	0.12	491846	keystroke_Key.space	Key.space	n/a
246.119	0.074	492238	keystroke_e	e	n/a
246.313	0.106	492626	keystroke_x	x	n/a
246.524	0.089	493048	keystroke_c	c	n/a
246.718	0.135	493436	keystroke_e	e	n/a
246.868	0.091	493736	keystroke_p	p	n/a
246.974	0.074	493948	keystroke_t	t	n/a
247.903	0.076	495806	keystroke_Key.enter	Key.enter	n/a
247.9895	10.1015	495979	prompt	n/a	cleaners absorption strategies response\n
249.074	0.135	498148	keystroke_c	c	n/a
249.224	0.12	498448	keystroke_l	l	n/a
249.329	0.135	498658	keystroke_e	e	n/a
249.449	0.135	498898	keystroke_a	a	n/a
249.569	0.0895	499138	keystroke_n	n	n/a
249.703	0.18	499406	keystroke_e	e	n/a
249.793	0.18	499586	keystroke_r	r	n/a
249.944	0.149	499888	keystroke_s	s	n/a
250.153	0.12	500306	keystroke_Key.space	Key.space	n/a
250.709	0.135	501418	keystroke_a	a	n/a
250.859	0.09	501718	keystroke_b	b	n/a
250.994	0.119	501988	keystroke_s	s	n/a
251.143	0.105	502286	keystroke_o	o	n/a
251.339	0.165	502678	keystroke_r	r	n/a
251.654	0.105	503308	keystroke_p	p	n/a
251.939	0.09	503878	keystroke_t	t	n/a
252.014	0.179	504028	keystroke_i	i	n/a
252.104	0.18	504208	keystroke_o	o	n/a
252.254	0.105	504508	keystroke_n	n	n/a
252.464	0.104	504928	keystroke_Key.space	Key.space	n/a
252.674	0.135	505348	keystroke_s	s	n/a
252.854	0.09	505708	keystroke_t	t	n/a
253.048	0.136	506096	keystroke_r	r	n/a
253.199	0.12	506398	keystroke_a	a	n/a
253.619	0.045	507238	keystroke_g	g	n/a
254.009	0.135	508018	keystroke_Key.backspace	Key.backspace	n/a
254.6685	0.105	509337	keystroke_t	t	n/a
254.8485	0.135	509697	keystroke_e	e	n/a
255.1185	0.105	510237	keystroke_g	g	n/a
255.3885	0.12	510777	keystroke_i	i	n/a
255.5385	0.12	511077	keystroke_e	e	n/a
255.5985	0.15	511197	keystroke_s	s	n/a
256.0935	0.12	512187	keystroke_Key.space	Key.space	n/a
256.4235	0.15	512847	keystroke_r	r	n/a
256.4985	0.12	512997	keystroke_e	e	n/a
256.6485	0.165	513297	keystroke_s	s	n/a
256.8435	0.09	513687	keystroke_p	p	n/a
257.0385	0.18	514077	keystroke_o	o	n/a
257.1735	0.12	514347	keystroke_n	n	n/a
257.5935	0.15	515187	keystroke_s	s	n/a
257.6835	0.12	515367	keystroke_e	e	n/a
258.0135	0.075	516027	keystroke_Key.enter	Key.enter	n/a
258.0945	7.0455	516189	prompt	n/a	transaction strange projector couples\n
258.929	0.105	517858	keystroke_t	t	n/a
259.123	0.121	518246	keystroke_r	r	n/a
259.229	0.15	518458	keystroke_a	a	n/a
259.379	0.089	518758	keystroke_n	n	n/a
259.484	0.089	518968	keystroke_s	s	n/a
259.724	0.09	519448	keystroke_a	a	n/a
259.934	0.105	519868	keystroke_c	c	n/a
260.144	0.12	520288	keystroke_t	t	n/a
260.234	0.179	520468	keystroke_i	i	n/a
260.324	0.165	520648	keystroke_o	o	n/a
260.4285	0.1505	520857	keystroke_n	n	n/a
260.549	0.105	521098	keystroke_Key.space	Key.space	n/a
260.684	0.2095	521368	keystroke_s	s	n/a
260.8635	0.0905	521727	keystroke_t	t	n/a
261.1185	0.105	522237	keystroke_r	r	n/a
261.2685	0.135	522537	keystroke_a	a	n/a
261.3885	0.12	522777	keystroke_n	n	n/a
261.5535	0.09	523107	keystroke_g	g	n/a
261.7035	0.18	523407	keystroke_e	e	n/a
261.8685	0.105	523737	keystroke_Key.space	Key.space	n/a
262.0335	0.135	524067	keystroke_p	p	n/a
262.2885	0.12	524577	keystroke_r	r	n/a
262.4235	0.0745	524847	keystroke_o	o	n/a
262.604	0.135	525208	keystroke_j	j	n/a
262.754	0.089	525508	keystroke_e	e	n/a
262.993	0.045	525986	keystroke_c	c	n/a
263.188	0.075	526376	keystroke_t	t	n/a
263.294	0.119	526588	keystroke_o	o	n/a
263.459	0.105	526918	keystroke_r	r	n/a
263.578	0.106	527156	keystroke_Key.space	Key.space	n/a
263.819	0.134	527638	keystroke_c	c	n/a
263.939	0.074	527878	keystroke_o	o	n/a
263.983	0.135	527966	keystroke_u	u	n/a
264.134	0.09	528268	keystroke_p	p	n/a
264.329	0.1645	528658	keystroke_l	l	n/a
264.463	0.1205	528926	keystroke_e	e	n/a
264.5845	0.134	529169	keystroke_s	s	n/a
265.0635	0.075	530127	keystroke_Key.enter	Key.enter	n/a
265.144	10.8415	530288	prompt	n/a	temporarily degree following lions\n
265.3785	0.03	530757	keystroke_i	i	n/a
266.2035	0.075	532407	keystroke_Key.backspace	Key.backspace	n/a
266.5935	0.09	533187	keystroke_t	t	n/a
266.7585	0.12	533517	keystroke_e	e	n/a
266.8485	0.105	533697	keystroke_m	m	n/a
267.1035	0.165	534207	keystroke_p	p	n/a
267.2085	0.12	534417	keystroke_o	o	n/a
267.3885	0.195	534777	keystroke_r	r	n/a
269.4435	0.18	538887	keystroke_a	a	n/a
270.3585	0.12	540717	keystroke_r	r	n/a
270.5985	0.105	541197	keystroke_i	i	n/a
270.8535	0.09	541707	keystroke_l	l	n/a
271.0485	0.12	542097	keystroke_y	y	n/a
271.2735	0.12	542547	keystroke_Key.space	Key.space	n/a
271.4235	0.09	542847	keystroke_d	d	n/a
271.6185	0.075	543237	keystroke_e	e	n/a
271.8285	0.045	543657	keystroke_g	g	n/a
272.0385	0.12	544077	keystroke_r	r	n/a
272.0985	0.12	544197	keystroke_e	e	n/a
272.2935	0.135	544587	keystroke_e	e	n/a
272.5035	0.105	545007	keystroke_Key.space	Key.space	n/a
273.1485	0.18	546297	keystroke_f	f	n/a
273.2985	0.09	546597	keystroke_o	o	n/a
273.5085	0.075	547017	keystroke_l	l	n/a
273.6435	0.06	547287	keystroke_l	l	n/a
273.8085	0.12	547617	keystroke_o	o	n/a
274.4685	0.12	548937	keystroke_w	w	n/a
274.6635	0.15	549327	keystroke_i	i	n/a
274.7535	0.12	549507	keystroke_n	n	n/a
274.8885	0.105	549777	keystroke_g	g	n/a
275.0385	0.12	550077	keystroke_Key.space	Key.space	n/a
275.2185	0.135	550437	keystroke_l	l	n/a
275.3385	0.18	550677	keystroke_i	i	n/a
275.4735	0.18	550947	keystroke_o	o	n/a
275.5935	0.15	551187	keystroke_n	n	n/a
275.7585	0.105	551517	keystroke_s	s	n/a
275.9085	0.075	551817	keystroke_Key.enter	Key.enter	n/a
275.9915	4.5095	551983	prompt	n/a	but officers done year\n
277.0335	0.15	554067	keystroke_b	b	n/a
277.1235	0.15	554247	keystroke_u	u	n/a
277.2585	0.105	554517	keystroke_t	t	n/a
277.3935	0.12	554787	keystroke_Key.space	Key.space	n/a
277.5735	0.075	555147	keystroke_o	o	n/a
277.6785	0.075	555357	keystroke_f	f	n/a
277.8285	0.09	555657	keystroke_f	f	n/a
277.9635	0.12	555927	keystroke_i	i	n/a
278.1135	0.09	556227	keystroke_c	c	n/a
278.3235	0.165	556647	keystroke_e	e	n/a
278.4285	0.135	556857	keystroke_r	r	n/a
278.5485	0.165	557097	keystroke_s	s	n/a
278.7285	0.12	557457	keystroke_Key.space	Key.space	n/a
278.9985	0.09	557997	keystroke_d	d	n/a
279.1035	0.165	558207	keystroke_o	o	n/a
279.2385	0.135	558477	keystroke_n	n	n/a
279.3885	0.15	558777	keystroke_e	e	n/a
279.5235	0.12	559047	keystroke_Key.space	Key.space	n/a
279.7185	0.105	559437	keystroke_y	y	n/a
279.7785	0.105	559557	keystroke_e	e	n/a
279.9285	0.15	559857	keystroke_a	a	n/a
280.0185	0.105	560037	keystroke_r	r	n/a
280.4235	0.075	560847	keystroke_Key.enter	Key.enter	n/a
280.5055	7.885	561011	prompt	n/a	registration bathroom omega creating\n
281.3835	0.15	562767	keystroke_r	r	n/a
281.4585	0.135	562917	keystroke_e	e	n/a
281.6535	0.136	563307	keystroke_g	g	n/a
281.7735	0.12	563547	keystroke_i	i	n/a
281.8785	0.18	563757	keystroke_s	s	n/a
282.0135	0.075	564027	keystroke_t	t	n/a
282.1935	0.135	564387	keystroke_r	r	n/a
282.3135	0.18	564627	keystroke_a	a	n/a
282.5085	0.105	565017	keystroke_t	t	n/a
282.5985	0.12	565197	keystroke_i	i	n/a
282.6585	0.18	565317	keystroke_o	o	n/a
282.8085	0.105	565617	keystroke_n	n	n/a
282.9585	0.135	565917	keystroke_Key.space	Key.space	n/a
283.1085	0.105	566217	keystroke_b	b	n/a
283.1985	0.15	566397	keystroke_a	a	n/a
283.4085	0.09	566817	keystroke_t	t	n/a
283.5145	0.074	567029	keystroke_h	h	n/a
283.7235	0.105	567447	keystroke_r	r	n/a
283.8435	0.06	567687	keystroke_o	o	n/a
284.1135	0.015	568227	keystroke_o	o	n/a
284.2635	0.075	568527	keystroke_m	m	n/a
285.268	0.105	570536	keystroke_Key.space	Key.space	n/a
285.839	0.089	571678	keystroke_o	o	n/a
286.063	0.105	572126	keystroke_m	m	n/a
286.138	0.12	572276	keystroke_e	e	n/a
286.318	0.0905	572636	keystroke_g	g	n/a
286.5285	0.12	573057	keystroke_a	a	n/a
286.6785	0.09	573357	keystroke_Key.space	Key.space	n/a
286.8735	0.105	573747	keystroke_c	c	n/a
287.0835	0.15	574167	keystroke_r	r	n/a
287.1735	0.15	574347	keystroke_e	e	n/a
287.2795	0.134	574559	keystroke_a	a	n/a
287.4885	0.09	574977	keystroke_t	t	n/a
287.6235	0.15	575247	keystroke_i	i	n/a
287.6835	0.15	575367	keystroke_n	n	n/a
287.8185	0.075	575637	keystroke_g	g	n/a
288.3135	0.075	576627	keystroke_Key.enter	Key.enter	n/a
288.3965	6.0095	576793	prompt	n/a	taylor spec signal nepal\n
289.4235	0.105	578847	keystroke_t	t	n/a
289.6635	0.15	579327	keystroke_a	a	n/a
290.1135	0.075	580227	keystroke_y	y	n/a
290.3235	0.1055	580647	keystroke_l	l	n/a
290.5185	0.09	581037	keystroke_o	o	n/a
290.6835	0.12	581367	keystroke_r	r	n/a
291.0435	0.105	582087	keystroke_Key.space	Key.space	n/a
291.2835	0.09	582567	keystroke_s	s	n/a
291.4185	0.105	582837	keystroke_p	p	n/a
291.5685	0.075	583137	keystroke_e	e	n/a
291.7935	0.09	583587	keystroke_c	c	n/a
291.9885	0.075	583977	keystroke_Key.space	Key.space	n/a
292.1085	0.135	584217	keystroke_s	s	n/a
292.2285	0.105	584457	keystroke_i	i	n/a
292.4085	0.0905	584817	keystroke_g	g	n/a
292.514	0.09	585028	keystroke_n	n	n/a
292.649	0.12	585298	keystroke_a	a	n/a
292.754	0.089	585508	keystroke_l	l	n/a
292.979	0.135	585958	keystroke_Key.space	Key.space	n/a
293.414	0.12	586828	keystroke_n	n	n/a
293.564	0.09	587128	keystroke_e	e	n/a
293.819	0.09	587638	keystroke_p	p	n/a
293.954	0.135	587908	keystroke_a	a	n/a
294.044	0.105	588088	keystroke_l	l	n/a
294.314	0.09	588628	keystroke_Key.enter	Key.enter	n/a
294.41	7.48	588820	prompt	n/a	bios mats agencies it'll\n
295.4235	0.06	590847	keystroke_b	b	n/a
295.5885	0.09	591177	keystroke_i	i	n/a
295.9935	0.06	591987	keystroke_o	o	n/a
296.0535	0.09	592107	keystroke_s	s	n/a
296.8185	0.105	593637	keystroke_Key.space	Key.space	n/a
296.9985	0.12	593997	keystroke_m	m	n/a
297.1335	0.12	594267	keystroke_a	a	n/a
297.3435	0.075	594687	keystroke_t	t	n/a
297.4785	0.135	594957	keystroke_s	s	n/a
297.8085	0.12	595617	keystroke_Key.space	Key.space	n/a
298.4085	0.12	596817	keystroke_a	a	n/a
298.6935	0.165	597387	keystroke_g	g	n/a
299.0985	0.12	598197	keystroke_e	e	n/a
299.2035	0.09	598407	keystroke_n	n	n/a
300.4335	0.105	600867	keystroke_c	c	n/a
300.6285	0.09	601257	keystroke_i	i	n/a
300.7035	0.165	601407	keystroke_e	e	n/a
300.7935	0.135	601587	keystroke_s	s	n/a
301.2435	0.135	602487	keystroke_Key.space	Key.space	n/a
301.4685	0.12	602937	keystroke_i	i	n/a
301.6035	0.09	603207	keystroke_t	t	n/a
301.7985	0.09	603597	keystroke_Key.enter	Key.enter	n/a
301.8945	10.601	603789	prompt	n/a	camping honor strips screenshots\n
304.7865	0.027	609573	keystroke_c	c	n/a
304.9335	0.15	609867	keystroke_a	a	n/a
305.0985	0.075	610197	keystroke_m	m	n/a
305.5185	0.075	611037	keystroke_p	p	n/a
306.1035	0.21	612207	keystroke_i	i	n/a
306.2085	0.135	612417	keystroke_n	n	n/a
306.3585	0.105	612717	keystroke_g	g	n/a
306.5685	0.135	613137	keystroke_Key.space	Key.space	n/a
307.0035	0.135	614007	keystroke_h	h	n/a
307.1085	0.18	614217	keystroke_o	o	n/a
307.2735	0.15	614547	keystroke_n	n	n/a
307.3935	0.12	614787	keystroke_o	o	n/a
307.5285	0.12	615057	keystroke_r	r	n/a
307.8735	0.105	615747	keystroke_Key.space	Key.space	n/a
308.0985	0.18	616197	keystroke_s	s	n/a
308.2935	0.105	616587	keystroke_t	t	n/a
308.5035	0.105	617007	keystroke_r	r	n/a
308.6685	0.135	617337	keystroke_i	i	n/a
308.7735	0.15	617547	keystroke_p	p	n/a
308.9085	0.105	617817	keystroke_s	s	n/a
309.1785	0.12	618357	keystroke_Key.space	Key.space	n/a
309.4335	0.105	618867	keystroke_s	s	n/a
309.6585	0.075	619317	keystroke_c	c	n/a
309.8685	0.135	619737	keystroke_r	r	n/a
309.9585	0.12	619917	keystroke_e	e	n/a
310.1545	0.149	620309	keystroke_e	e	n/a
310.7835	0.09	621567	keystroke_n	n	n/a
311.069	0.12	622138	keystroke_s	s	n/a
311.219	0.135	622438	keystroke_h	h	n/a
311.354	0.135	622708	keystroke_o	o	n/a
311.474	0.105	622948	keystroke_t	t	n/a
312.044	0.09	624088	keystroke_s	s	n/a
312.419	0.075	624838	keystroke_Key.enter	Key.enter	n/a
312.5	8.6055	625000	prompt	n/a	protein transfer magazine attended\n
313.244	0.045	626488	keystroke_p	p	n/a
313.364	0.12	626728	keystroke_r	r	n/a
313.439	0.135	626878	keystroke_o	o	n/a
313.619	0.09	627238	keystroke_t	t	n/a
313.844	0.135	627688	keystroke_e	e	n/a
314.024	0.09	628048	keystroke_i	i	n/a
314.249	0.075	628498	keystroke_n	n	n/a
314.474	0.105	628948	keystroke_Key.space	Key.space	n/a
314.714	0.075	629428	keystroke_t	t	n/a
314.894	0.09	629788	keystroke_r	r	n/a
314.999	0.12	629998	keystroke_a	a	n/a
315.134	0.09	630268	keystroke_n	n	n/a
315.239	0.105	630478	keystroke_s	s	n/a
316.769	0.105	633538	keystroke_f	f	n/a
316.964	0.135	633928	keystroke_e	e	n/a
317.039	0.165	634078	keystroke_r	r	n/a
317.234	0.12	634468	keystroke_Key.space	Key.space	n/a
317.399	0.12	634798	keystroke_m	m	n/a
317.489	0.105	634978	keystroke_a	a	n/a
317.714	0.09	635428	keystroke_g	g	n/a
317.879	0.12	635758	keystroke_a	a	n/a
318.314	0.15	636628	keystroke_z	z	n/a
318.479	0.18	636958	keystroke_i	i	n/a
318.629	0.12	637258	keystroke_n	n	n/a
318.734	0.09	637468	keystroke_e	e	n/a
319.439	0.12	638878	keystroke_Key.space	Key.space	n/a
319.619	0.12	639238	keystroke_a	a	n/a
319.814	0.075	639628	keystroke_t	t	n/a
319.979	0.09	639958	keystroke_t	t	n/a
320.174	0.075	640348	keystroke_e	e	n/a
320.279	0.105	640558	keystroke_n	n	n/a
320.385	0.074	640770	keystroke_d	d	n/a
320.549	0.09	641098	keystroke_e	e	n/a
320.729	0.09	641458	keystroke_d	d	n/a
321.014	0.09	642028	keystroke_Key.enter	Key.enter	n/a
321.1095	9.3715	642219	prompt	n/a	death diagram builds modular\n
322.184	0.06	644368	keystroke_d	d	n/a
322.364	0.12	644728	keystroke_e	e	n/a
322.499	0.135	644998	keystroke_a	a	n/a
322.664	0.105	645328	keystroke_t	t	n/a
322.799	0.12	645598	keystroke_h	h	n/a
322.904	0.12	645808	keystroke_Key.space	Key.space	n/a
323.294	0.12	646588	keystroke_d	d	n/a
323.384	0.105	646768	keystroke_i	i	n/a
323.534	0.12	647068	keystroke_a	a	n/a
323.954	0.075	647908	keystroke_g	g	n/a
324.179	0.075	648358	keystroke_r	r	n/a
324.284	0.15	648568	keystroke_a	a	n/a
324.479	0.12	648958	keystroke_m	m	n/a
324.944	0.105	649888	keystroke_Key.space	Key.space	n/a
325.994	0.15	651988	keystroke_b	b	n/a
326.084	0.225	652168	keystroke_u	u	n/a
326.204	0.195	652408	keystroke_i	i	n/a
326.519	0.195	653038	keystroke_l	l	n/a
326.969	0.105	653938	keystroke_d	d	n/a
327.104	0.15	654208	keystroke_s	s	n/a
327.524	0.105	655048	keystroke_Key.space	Key.space	n/a
327.689	0.12	655378	keystroke_m	m	n/a
328.349	0.105	656698	keystroke_o	o	n/a
329.009	0.105	658018	keystroke_d	d	n/a
329.144	0.09	658288	keystroke_u	u	n/a
329.339	0.135	658678	keystroke_l	l	n/a
329.415	0.164	658830	keystroke_a	a	n/a
329.534	0.135	659068	keystroke_r	r	n/a
330.404	0.0745	660808	keystroke_Key.enter	Key.enter	n/a
330.488	8.093	660976	prompt	n/a	arabia older logged benchmark\n
331.214	0.1495	662428	keystroke_a	a	n/a
331.4685	0.12	662937	keystroke_r	r	n/a
331.6485	0.165	663297	keystroke_a	a	n/a
332.2035	0.075	664407	keystroke_b	b	n/a
332.5485	0.075	665097	keystroke_i	i	n/a
332.8635	0.165	665727	keystroke_a	a	n/a
333.0885	0.105	666177	keystroke_Key.space	Key.space	n/a
333.4035	0.06	666807	keystroke_o	o	n/a
333.5685	0.15	667137	keystroke_l	l	n/a
333.7035	0.09	667407	keystroke_d	d	n/a
333.9435	0.12	667887	keystroke_e	e	n/a
334.0335	0.12	668067	keystroke_r	r	n/a
334.7385	0.12	669477	keystroke_Key.space	Key.space	n/a
334.9035	0.06	669807	keystroke_l	l	n/a
335.0835	0.105	670167	keystroke_o	o	n/a
335.1735	0.06	670347	keystroke_g	g	n/a
335.3235	0.105	670647	keystroke_g	g	n/a
335.4735	0.105	670947	keystroke_e	e	n/a
335.6685	0.135	671337	keystroke_d	d	n/a
335.8185	0.105	671637	keystroke_Key.space	Key.space	n/a
336.1485	0.09	672297	keystroke_b	b	n/a
336.4485	0.105	672897	keystroke_e	e	n/a
336.5685	0.09	673137	keystroke_n	n	n/a
336.7335	0.09	673467	keystroke_c	c	n/a
336.8385	0.09	673677	keystroke_h	h	n/a
337.0785	0.165	674157	keystroke_m	m	n/a
337.3335	0.09	674667	keystroke_a	a	n/a
337.3485	0.135	674697	keystroke_r	r	n/a
338.0235	0.075	676047	keystroke_k	k	n/a
338.4735	0.105	676947	keystroke_Key.enter	Key.enter	n/a
338.5865	9.7895	677173	prompt	n/a	bali candy conceptual biography\n
340.0795	0.059	680159	keystroke_b	b	n/a
340.5745	0.119	681149	keystroke_a	a	n/a
340.8735	0.09	681747	keystroke_l	l	n/a
341.0835	0.15	682167	keystroke_i	i	n/a
341.5485	0.105	683097	keystroke_Key.space	Key.space	n/a
341.7745	0.075	683549	keystroke_c	c	n/a
342.0135	0.15	684027	keystroke_a	a	n/a
342.1785	0.09	684357	keystroke_n	n	n/a
342.3445	0.105	684689	keystroke_d	d	n/a
342.5095	0.09	685019	keystroke_y	y	n/a
343.6635	0.12	687327	keystroke_Key.space	Key.space	n/a
343.9635	0.09	687927	keystroke_c	c	n/a
344.0395	0.164	688079	keystroke_o	o	n/a
344.1435	0.106	688287	keystroke_n	n	n/a
344.3985	0.091	688797	keystroke_c	c	n/a
344.6245	0.12	689249	keystroke_e	e	n/a
344.7295	0.075	689459	keystroke_p	p	n/a
344.9395	0.105	689879	keystroke_t	t	n/a
345.0745	0.089	690149	keystroke_u	u	n/a
345.2095	0.164	690419	keystroke_a	a	n/a
345.3295	0.12	690659	keystroke_l	l	n/a
345.6435	0.106	691287	keystroke_Key.space	Key.space	n/a
345.8545	0.075	691709	keystroke_b	b	n/a
346.0345	0.18	692069	keystroke_i	i	n/a
346.1995	0.12	692399	keystroke_o	o	n/a
346.4385	0.075	692877	keystroke_g	g	n/a
346.6485	0.12	693297	keystroke_r	r	n/a
346.7535	0.151	693507	keystroke_a	a	n/a
347.0235	0.091	694047	keystroke_p	p	n/a
347.2785	0.09	694557	keystroke_h	h	n/a
347.6385	0.105	695277	keystroke_y	y	n/a
348.2835	0.09	696567	keystroke_Key.enter	Key.enter	n/a
348.3815	12.4315	696763	prompt	n/a	titles notification attended external\n
349.214	0.12	698428	keystroke_t	t	n/a
349.379	0.15	698758	keystroke_i	i	n/a
349.544	0.105	699088	keystroke_t	t	n/a
349.694	0.135	699388	keystroke_l	l	n/a
349.784	0.195	699568	keystroke_e	e	n/a
349.904	0.165	699808	keystroke_s	s	n/a
350.204	0.105	700408	keystroke_Key.space	Key.space	n/a
350.369	0.1645	700738	keystroke_n	n	n/a
350.4745	0.134	700949	keystroke_o	o	n/a
350.7595	0.074	701519	keystroke_t	t	n/a
350.8645	0.12	701729	keystroke_i	i	n/a
351.0295	0.12	702059	keystroke_f	f	n/a
351.1635	0.135	702327	keystroke_i	i	n/a
351.3135	0.09	702627	keystroke_c	c	n/a
351.4795	0.12	702959	keystroke_a	a	n/a
351.7045	0.105	703409	keystroke_t	t	n/a
351.7945	0.15	703589	keystroke_i	i	n/a
351.8695	0.194	703739	keystroke_o	o	n/a
352.0045	0.135	704009	keystroke_n	n	n/a
352.1695	0.104	704339	keystroke_Key.space	Key.space	n/a
352.3345	0.1345	704669	keystroke_a	a	n/a
352.499	0.09	704998	keystroke_t	t	n/a
352.679	0.075	705358	keystroke_t	t	n/a
352.784	0.135	705568	keystroke_e	e	n/a
352.934	0.12	705868	keystroke_n	n	n/a
353.069	0.075	706138	keystroke_d	d	n/a
353.234	0.06	706468	keystroke_e	e	n/a
353.414	0.045	706828	keystroke_d	d	n/a
357.2875	0.057	714575	keystroke_Key.space	Key.space	n/a
357.3595	0.105	714719	keystroke_e	e	n/a
358.1545	0.135	716309	keystroke_x	x	n/a
358.7095	0.105	717419	keystroke_t	t	n/a
359.5795	0.15	719159	keystroke_e	e	n/a
359.6845	0.165	719369	keystroke_r	r	n/a
359.8645	0.09	719729	keystroke_n	n	n/a
359.9845	0.135	719969	keystroke_a	a	n/a
360.1345	0.105	720269	keystroke_l	l	n/a
360.7345	0.075	721469	keystroke_Key.enter	Key.enter	n/a
360.8165	8.35	721633	prompt	n/a	toronto endorsed insured train\n
361.6195	0.135	723239	keystroke_t	t	n/a
362.0095	0.105	724019	keystroke_o	o	n/a
362.3995	0.135	724799	keystroke_r	r	n/a
362.5195	0.18	725039	keystroke_o	o	n/a
362.6245	0.106	725249	keystroke_n	n	n/a
362.7895	0.075	725579	keystroke_t	t	n/a
362.8945	0.12	725789	keystroke_o	o	n/a
363.0895	0.135	726179	keystroke_Key.space	Key.space	n/a
363.3295	0.09	726659	keystroke_e	e	n/a
363.7345	0.12	727469	keystroke_n	n	n/a
363.9295	0.09	727859	keystroke_f	f	n/a
364.9945	0.09	729989	keystroke_Key.backspace	Key.backspace	n/a
365.1895	0.105	730379	keystroke_d	d	n/a
365.5195	0.105	731039	keystroke_o	o	n/a
365.7145	0.09	731429	keystroke_r	r	n/a
365.9095	0.225	731819	keystroke_s	s	n/a
366.0595	0.12	732119	keystroke_e	e	n/a
366.2545	0.135	732509	keystroke_d	d	n/a
366.4195	0.12	732839	keystroke_Key.space	Key.space	n/a
366.7645	0.075	733529	keystroke_i	i	n/a
367.0945	0.105	734189	keystroke_n	n	n/a
367.2595	0.105	734519	keystroke_s	s	n/a
367.3795	0.135	734759	keystroke_u	u	n/a
367.5295	0.135	735059	keystroke_r	r	n/a
367.6045	0.12	735209	keystroke_e	e	n/a
367.8295	0.135	735659	keystroke_d	d	n/a
367.9795	0.09	735959	keystroke_Key.space	Key.space	n/a
368.1745	0.09	736349	keystroke_t	t	n/a
368.3245	0.12	736649	keystroke_r	r	n/a
368.4745	0.15	736949	keystroke_a	a	n/a
368.5795	0.15	737159	keystroke_i	i	n/a
368.6695	0.135	737339	keystroke_n	n	n/a
369.0745	0.09	738149	keystroke_Key.enter	Key.enter	n/a
369.171	14.3655	738342	prompt	n/a	turned grams nightlife constitution\n
370.0195	0.075	740039	keystroke_t	t	n/a
370.2295	0.045	740459	keystroke_r	r	n/a
370.7545	0.075	741509	keystroke_Key.backspace	Key.backspace	n/a
371.2045	0.075	742409	keystroke_r	r	n/a
371.6695	0.075	743339	keystroke_Key.backspace	Key.backspace	n/a
371.9245	0.105	743849	keystroke_u	u	n/a
372.1045	0.105	744209	keystroke_r	r	n/a
372.4195	0.09	744839	keystroke_n	n	n/a
372.6745	0.105	745349	keystroke_e	e	n/a
372.9145	0.075	745829	keystroke_d	d	n/a
373.2445	0.135	746489	keystroke_Key.space	Key.space	n/a
373.6645	0.09	747329	keystroke_g	g	n/a
373.8745	0.12	747749	keystroke_r	r	n/a
373.9645	0.15	747929	keystroke_a	a	n/a
374.1295	0.135	748259	keystroke_m	m	n/a
374.2495	0.135	748499	keystroke_s	s	n/a
374.4595	0.12	748919	keystroke_Key.space	Key.space	n/a
374.7745	0.15	749549	keystroke_n	n	n/a
374.8795	0.15	749759	keystroke_i	i	n/a
374.9995	0.12	749999	keystroke_g	g	n/a
375.1495	0.12	750299	keystroke_h	h	n/a
376.47	0.09	752940	keystroke_t	t	n/a
376.725	0.195	753450	keystroke_l	l	n/a
376.845	0.15	753690	keystroke_i	i	n/a
377.13	0.135	754260	keystroke_f	f	n/a
377.37	0.12	754740	keystroke_e	e	n/a
377.7	0.119	755400	keystroke_Key.space	Key.space	n/a
378	0.21	756000	keystroke_o	o	n/a
378.12	0.15	756240	keystroke_n	n	n/a
378.764	0.105	757528	keystroke_Key.backspace	Key.backspace	n/a
378.959	0.105	757918	keystroke_Key.backspace	Key.backspace	n/a
379.47	0.119	758940	keystroke_c	c	n/a
379.695	0.179	759390	keystroke_o	o	n/a
379.784	0.121	759568	keystroke_n	n	n/a
379.964	0.12	759928	keystroke_s	s	n/a
380.399	0.106	760798	keystroke_t	t	n/a
380.5195	0.12	761039	keystroke_i	i	n/a
380.6695	0.09	761339	keystroke_t	t	n/a
380.8045	0.12	761609	keystroke_u	u	n/a
381.1495	0.105	762299	keystroke_t	t	n/a
381.2395	0.15	762479	keystroke_i	i	n/a
381.3145	0.18	762629	keystroke_o	o	n/a
381.4645	0.105	762929	keystroke_n	n	n/a
383.4595	0.075	766919	keystroke_Key.enter	Key.enter	n/a
383.5415	12.6255	767083	prompt	n/a	combination northern plymouth peter\n
384.645	0.105	769290	keystroke_c	c	n/a
384.734	0.09	769468	keystroke_o	o	n/a
384.93	0.09	769860	keystroke_m	m	n/a
385.185	0.075	770370	keystroke_b	b	n/a
385.365	0.105	770730	keystroke_i	i	n/a
385.665	0.105	771330	keystroke_n	n	n/a
385.92	0.135	771840	keystroke_a	a	n/a
386.189	0.09	772378	keystroke_t	t	n/a
386.249	0.15	772498	keystroke_i	i	n/a
386.339	0.166	772678	keystroke_o	o	n/a
386.445	0.12	772890	keystroke_n	n	n/a
386.654	0.105	773308	keystroke_Key.space	Key.space	n/a
386.82	0.09	773640	keystroke_n	n	n/a
387.015	0.105	774030	keystroke_o	o	n/a
387.195	0.075	774390	keystroke_r	r	n/a
387.39	0.105	774780	keystroke_t	t	n/a
387.495	0.104	774990	keystroke_h	h	n/a
387.72	0.135	775440	keystroke_e	e	n/a
387.809	0.121	775618	keystroke_r	r	n/a
387.975	0.089	775950	keystroke_n	n	n/a
388.199	0.09	776398	keystroke_Key.space	Key.space	n/a
388.53	0.09	777060	keystroke_p	p	n/a
388.755	0.105	777510	keystroke_l	l	n/a
389.01	0.135	778020	keystroke_y	y	n/a
389.52	0.09	779040	keystroke_m	m	n/a
389.715	0.18	779430	keystroke_o	o	n/a
389.82	0.12	779640	keystroke_u	u	n/a
389.955	0.09	779910	keystroke_t	t	n/a
390.046	0.059	780092	keystroke_h	h	n/a
390.705	0.105	781410	keystroke_Key.space	Key.space	n/a
391.095	0.12	782190	keystroke_p	p	n/a
391.245	0.165	782490	keystroke_e	e	n/a
391.44	0.12	782880	keystroke_t	t	n/a
391.575	0.135	783150	keystroke_e	e	n/a
391.665	0.12	783330	keystroke_r	r	n/a
396.153	0.012	792306	keystroke_Key.enter	Key.enter	n/a
396.171	9.2805	792342	prompt	n/a	fatal extensive arnold shut\n
396.93	0.075	793860	keystroke_f	f	n/a
397.095	0.15	794190	keystroke_a	a	n/a
397.275	0.09	794550	keystroke_t	t	n/a
397.395	0.15	794790	keystroke_a	a	n/a
397.515	0.105	795030	keystroke_l	l	n/a
397.665	0.135	795330	keystroke_Key.space	Key.space	n/a
397.86	0.105	795720	keystroke_e	e	n/a
398.055	0.12	796110	keystroke_x	x	n/a
398.295	0.15	796590	keystroke_t	t	n/a
398.46	0.15	796920	keystroke_e	e	n/a
398.7	0.09	797400	keystroke_n	n	n/a
398.97	0.105	797940	keystroke_s	s	n/a
399.09	0.105	798180	keystroke_i	i	n/a
399.225	0.105	798450	keystroke_v	v	n/a
399.51	0.105	799020	keystroke_e	e	n/a
399.84	0.12	799680	keystroke_Key.space	Key.space	n/a
400.485	0.165	800970	keystroke_a	a	n/a
400.605	0.12	801210	keystroke_r	r	n/a
400.845	0.075	801690	keystroke_m	m	n/a
401.4	0.105	802800	keystroke_Key.backspace	Key.backspace	n/a
401.715	0.165	803430	keystroke_n	n	n/a
401.82	0.105	803640	keystroke_o	o	n/a
402.03	0.09	804060	keystroke_l	l	n/a
402.195	0.09	804390	keystroke_d	d	n/a
403.35	0.105	806700	keystroke_Key.space	Key.space	n/a
403.5	0.165	807000	keystroke_s	s	n/a
403.605	0.09	807210	keystroke_h	h	n/a
404.07	0.09	808140	keystroke_u	u	n/a
404.235	0.09	808470	keystroke_t	t	n/a
405.3595	0.0905	810719	keystroke_Key.enter	Key.enter	n/a
405.4565	8.6355	810913	prompt	n/a	little accounting when's brings\n
406.2	0.1805	812400	keystroke_l	l	n/a
406.32	0.1945	812640	keystroke_i	i	n/a
406.6795	0.061	813359	keystroke_t	t	n/a
406.8145	0.12	813629	keystroke_t	t	n/a
406.9945	0.12	813989	keystroke_l	l	n/a
407.0995	0.105	814199	keystroke_e	e	n/a
407.4145	0.12	814829	keystroke_Key.space	Key.space	n/a
407.6845	0.105	815369	keystroke_a	a	n/a
407.9245	0.06	815849	keystroke_c	c	n/a
408.1045	0.09	816209	keystroke_c	c	n/a
408.2245	0.135	816449	keystroke_o	o	n/a
408.2995	0.12	816599	keystroke_u	u	n/a
408.5245	0.12	817049	keystroke_n	n	n/a
408.7795	0.09	817559	keystroke_t	t	n/a
408.9295	0.15	817859	keystroke_i	i	n/a
409.0045	0.105	818009	keystroke_n	n	n/a
409.2445	0.09	818489	keystroke_g	g	n/a
411.09	0.105	822180	keystroke_Key.space	Key.space	n/a
411.3	0.135	822600	keystroke_w	w	n/a
411.42	0.09	822840	keystroke_h	h	n/a
411.54	0.105	823080	keystroke_e	e	n/a
411.66	0.12	823320	keystroke_n	n	n/a
412.41	0.09	824820	keystroke_'	'	n/a
412.515	0.165	825030	keystroke_s	s	n/a
412.665	0.105	825330	keystroke_Key.space	Key.space	n/a
412.995	0.075	825990	keystroke_b	b	n/a
413.16	0.105	826320	keystroke_r	r	n/a
413.279	0.196	826558	keystroke_i	i	n/a
413.37	0.12	826740	keystroke_n	n	n/a
413.459	0.091	826918	keystroke_g	g	n/a
413.58	0.135	827160	keystroke_s	s	n/a
414.015	0.075	828030	keystroke_Key.enter	Key.enter	n/a
414.096	10.8715	828192	prompt	n/a	alumni picked televisions highly\n
414.885	0.135	829770	keystroke_a	a	n/a
415.065	0.09	830130	keystroke_l	l	n/a
415.246	0.104	830492	keystroke_u	u	n/a
415.5295	0.136	831059	keystroke_m	m	n/a
416.1305	0.134	832261	keystroke_n	n	n/a
416.2055	0.104	832411	keystroke_i	i	n/a
416.7895	0.105	833579	keystroke_Key.space	Key.space	n/a
416.9855	0.135	833971	keystroke_p	p	n/a
417.1045	0.105	834209	keystroke_i	i	n/a
417.2395	0.09	834479	keystroke_c	c	n/a
417.3605	0.119	834721	keystroke_k	k	n/a
417.4805	0.075	834961	keystroke_e	e	n/a
417.6745	0.121	835349	keystroke_d	d	n/a
417.7795	0.105	835559	keystroke_Key.space	Key.space	n/a
417.9745	0.15	835949	keystroke_t	t	n/a
418.1095	0.105	836219	keystroke_e	e	n/a
418.2755	0.119	836551	keystroke_l	l	n/a
418.4255	0.119	836851	keystroke_e	e	n/a
419.0705	0.105	838141	keystroke_v	v	n/a
419.1905	0.075	838381	keystroke_i	i	n/a
419.3255	0.12	838651	keystroke_s	s	n/a
419.4155	0.165	838831	keystroke_i	i	n/a
419.5045	0.181	839009	keystroke_o	o	n/a
419.6405	0.12	839281	keystroke_n	n	n/a
420.0005	0.104	840001	keystroke_s	s	n/a
420.2705	0.104	840541	keystroke_Key.space	Key.space	n/a
420.5855	0.194	841171	keystroke_h	h	n/a
420.7655	0.135	841531	keystroke_u	u	n/a
420.9305	0.105	841861	keystroke_g	g	n/a
421.0505	0.074	842101	keystroke_h	h	n/a
421.2305	0.104	842461	keystroke_l	l	n/a
421.7695	0.09	843539	keystroke_Key.backspace	Key.backspace	n/a
421.9795	0.075	843959	keystroke_Key.backspace	Key.backspace	n/a
422.1755	0.105	844351	keystroke_Key.backspace	Key.backspace	n/a
422.6245	0.076	845249	keystroke_Key.backspace	Key.backspace	n/a
423.4055	0.09	846811	keystroke_i	i	n/a
423.6595	0.106	847319	keystroke_g	g	n/a
423.7655	0.075	847531	keystroke_h	h	n/a
423.9155	0.105	847831	keystroke_l	l	n/a
424.1555	0.105	848311	keystroke_y	y	n/a
424.8905	0.075	849781	keystroke_Key.enter	Key.enter	n/a
424.9835	9.7485	849967	prompt	n/a	helped violence receptor reflected\n
425.7755	0.12	851551	keystroke_h	h	n/a
425.8355	0.075	851671	keystroke_i	i	n/a
426.2695	0.045	852539	keystroke_Key.backspace	Key.backspace	n/a
426.7355	0.075	853471	keystroke_e	e	n/a
426.9755	0.104	853951	keystroke_l	l	n/a
427.2605	0.12	854521	keystroke_p	p	n/a
427.8455	0.09	855691	keystroke_e	e	n/a
428.0405	0.135	856081	keystroke_d	d	n/a
428.2655	0.135	856531	keystroke_Key.space	Key.space	n/a
429.0905	0.105	858181	keystroke_v	v	n/a
429.2105	0.165	858421	keystroke_i	i	n/a
429.3155	0.105	858631	keystroke_o	o	n/a
429.5255	0.105	859051	keystroke_l	l	n/a
429.7055	0.09	859411	keystroke_e	e	n/a
429.8255	0.12	859651	keystroke_n	n	n/a
429.9305	0.135	859861	keystroke_c	c	n/a
430.1705	0.15	860341	keystroke_e	e	n/a
430.2755	0.15	860551	keystroke_Key.space	Key.space	n/a
430.7255	0.135	861451	keystroke_r	r	n/a
430.8305	0.105	861661	keystroke_e	e	n/a
431.0705	0.09	862141	keystroke_c	c	n/a
431.2955	0.105	862591	keystroke_e	e	n/a
431.4305	0.09	862861	keystroke_p	p	n/a
431.5955	0.09	863191	keystroke_t	t	n/a
431.7305	0.12	863461	keystroke_o	o	n/a
431.8655	0.105	863731	keystroke_r	r	n/a
432.2105	0.12	864421	keystroke_Key.space	Key.space	n/a
432.7205	0.165	865441	keystroke_r	r	n/a
432.8555	0.12	865711	keystroke_e	e	n/a
433.2605	0.09	866521	keystroke_f	f	n/a
433.5905	0.075	867181	keystroke_l	l	n/a
433.7255	0.105	867451	keystroke_e	e	n/a
433.9655	0.075	867931	keystroke_c	c	n/a
434.1605	0.12	868321	keystroke_t	t	n/a
434.2355	0.12	868471	keystroke_e	e	n/a
434.43	0.09	868860	keystroke_d	d	n/a
434.64	0.09	869280	keystroke_Key.enter	Key.enter	n/a
434.737	14.8305	869474	prompt	n/a	technology michigan technique begun\n
435.825	0.135	871650	keystroke_t	t	n/a
435.945	0.105	871890	keystroke_e	e	n/a
436.215	0.075	872430	keystroke_c	c	n/a
436.335	0.0895	872670	keystroke_h	h	n/a
436.8605	0.135	873721	keystroke_n	n	n/a
436.9495	0.091	873899	keystroke_o	o	n/a
437.1455	0.09	874291	keystroke_l	l	n/a
437.2955	0.12	874591	keystroke_o	o	n/a
437.4305	0.105	874861	keystroke_g	g	n/a
437.5655	0.12	875131	keystroke_y	y	n/a
437.7745	0.105	875549	keystroke_Key.space	Key.space	n/a
438.0595	0.091	876119	keystroke_m	m	n/a
438.735	0.075	877470	keystroke_i	i	n/a
438.96	0.105	877920	keystroke_c	c	n/a
439.095	0.135	878190	keystroke_h	h	n/a
439.185	0.135	878370	keystroke_i	i	n/a
439.59	0.075	879180	keystroke_g	g	n/a
439.89	0.12	879780	keystroke_a	a	n/a
440.07	0.09	880140	keystroke_n	n	n/a
440.37	0.09	880740	keystroke_Key.space	Key.space	n/a
440.596	0.149	881192	keystroke_t	t	n/a
440.73	0.135	881460	keystroke_e	e	n/a
441.45	0.135	882900	keystroke_c	c	n/a
441.705	0.09	883410	keystroke_h	h	n/a
443.205	0.15	886410	keystroke_n	n	n/a
443.31	0.135	886620	keystroke_i	i	n/a
443.55	0.09	887100	keystroke_q	q	n/a
443.67	0.105	887340	keystroke_u	u	n/a
443.76	0.105	887520	keystroke_e	e	n/a
447.6185	0.027	895237	keystroke_Key.space	Key.space	n/a
447.9005	0.09	895801	keystroke_b	b	n/a
448.1255	0.09	896251	keystroke_e	e	n/a
448.5155	0.09	897031	keystroke_g	g	n/a
448.9955	0.09	897991	keystroke_u	u	n/a
449.2355	0.075	898471	keystroke_n	n	n/a
449.4755	0.09	898951	keystroke_Key.enter	Key.enter	n/a
449.575	10.8975	899150	prompt	n/a	poet nutrition grip formal\n
450.5105	0.075	901021	keystroke_p	p	n/a
450.8105	0.12	901621	keystroke_o	o	n/a
450.9605	0.18	901921	keystroke_e	e	n/a
451.1255	0.12	902251	keystroke_t	t	n/a
451.4255	0.12	902851	keystroke_Key.space	Key.space	n/a
451.7855	0.09	903571	keystroke_n	n	n/a
452.0105	0.12	904021	keystroke_u	u	n/a
453.7205	0.075	907441	keystroke_t	t	n/a
454.0205	0.105	908041	keystroke_r	r	n/a
454.1855	0.12	908371	keystroke_u	u	n/a
454.8755	0.09	909751	keystroke_Key.backspace	Key.backspace	n/a
455.1605	0.12	910321	keystroke_i	i	n/a
455.9705	0.105	911941	keystroke_t	t	n/a
456.0455	0.18	912091	keystroke_i	i	n/a
456.1505	0.21	912301	keystroke_o	o	n/a
456.3005	0.12	912601	keystroke_n	n	n/a
456.9605	0.105	913921	keystroke_Key.space	Key.space	n/a
457.5305	0.15	915061	keystroke_g	g	n/a
457.9805	0.09	915961	keystroke_r	r	n/a
458.7455	0.15	917491	keystroke_i	i	n/a
458.8355	0.12	917671	keystroke_p	p	n/a
459.0305	0.12	918061	keystroke_Key.space	Key.space	n/a
459.4205	0.105	918841	keystroke_f	f	n/a
459.5405	0.12	919081	keystroke_o	o	n/a
459.6455	0.135	919291	keystroke_r	r	n/a
459.8105	0.12	919621	keystroke_m	m	n/a
459.9455	0.12	919891	keystroke_a	a	n/a
460.0505	0.105	920101	keystroke_l	l	n/a
460.3955	0.075	920791	keystroke_Key.enter	Key.enter	n/a
460.478	14.5145	920956	prompt	n/a	commodities consultants retailers variables\n
461.4605	0.105	922921	keystroke_c	c	n/a
461.7905	0.105	923581	keystroke_o	o	n/a
462.0305	0.075	924061	keystroke_m	m	n/a
462.1805	0.105	924361	keystroke_m	m	n/a
462.3755	0.105	924751	keystroke_o	o	n/a
462.7805	0.12	925561	keystroke_d	d	n/a
462.9155	0.09	925831	keystroke_i	i	n/a
463.0805	0.09	926161	keystroke_t	t	n/a
463.1855	0.105	926371	keystroke_i	i	n/a
463.8455	0.195	927691	keystroke_e	e	n/a
463.9805	0.15	927961	keystroke_s	s	n/a
464.2955	0.1045	928591	keystroke_Key.space	Key.space	n/a
464.625	0.09	929250	keystroke_c	c	n/a
464.73	0.18	929460	keystroke_o	o	n/a
464.85	0.105	929700	keystroke_n	n	n/a
465.72	0.15	931440	keystroke_s	s	n/a
466.036	0.119	932072	keystroke_u	u	n/a
466.335	0.12	932670	keystroke_l	l	n/a
466.561	0.104	933122	keystroke_t	t	n/a
467.025	0.15	934050	keystroke_a	a	n/a
467.161	0.089	934322	keystroke_n	n	n/a
467.325	0.105	934650	keystroke_t	t	n/a
467.505	0.136	935010	keystroke_s	s	n/a
467.775	0.105	935550	keystroke_Key.space	Key.space	n/a
468.03	0.136	936060	keystroke_r	r	n/a
468.151	0.134	936302	keystroke_e	e	n/a
469.141	0.104	938282	keystroke_t	t	n/a
469.65	0.166	939300	keystroke_a	a	n/a
470.37	0.1205	940740	keystroke_i	i	n/a
470.6105	0.105	941221	keystroke_l	l	n/a
470.7605	0.15	941521	keystroke_e	e	n/a
470.8355	0.165	941671	keystroke_r	r	n/a
470.9855	0.18	941971	keystroke_s	s	n/a
471.1805	0.105	942361	keystroke_Key.space	Key.space	n/a
471.93	0.105	943860	keystroke_v	v	n/a
472.276	0.149	944552	keystroke_a	a	n/a
472.545	0.12	945090	keystroke_r	r	n/a
473.4	0.12	946800	keystroke_i	i	n/a
473.685	0.15	947370	keystroke_a	a	n/a
473.866	0.179	947732	keystroke_b	b	n/a
474	0.166	948000	keystroke_l	l	n/a
474.12	0.105	948240	keystroke_e	e	n/a
474.195	0.135	948390	keystroke_s	s	n/a
474.9005	0.09	949801	keystroke_Key.enter	Key.enter	n/a
474.998	7.8245	949996	prompt	n/a	confidential bull grass encouraging\n
475.7255	0.105	951451	keystroke_c	c	n/a
475.8155	0.225	951631	keystroke_o	o	n/a
475.9655	0.09	951931	keystroke_n	n	n/a
476.1005	0.105	952201	keystroke_f	f	n/a
476.1755	0.135	952351	keystroke_i	i	n/a
476.6705	0.105	953341	keystroke_d	d	n/a
476.8955	0.15	953791	keystroke_e	e	n/a
477.0155	0.105	954031	keystroke_n	n	n/a
477.5105	0.09	955021	keystroke_t	t	n/a
477.5855	0.12	955171	keystroke_i	i	n/a
477.7355	0.12	955471	keystroke_a	a	n/a
477.8405	0.075	955681	keystroke_l	l	n/a
478.1255	0.105	956251	keystroke_Key.space	Key.space	n/a
478.3655	0.06	956731	keystroke_b	b	n/a
478.5755	0.105	957151	keystroke_u	u	n/a
478.8605	0.075	957721	keystroke_l	l	n/a
479.0255	0.09	958051	keystroke_l	l	n/a
479.2505	0.105	958501	keystroke_Key.space	Key.space	n/a
479.5055	0.06	959011	keystroke_g	g	n/a
479.6855	0.135	959371	keystroke_r	r	n/a
479.7905	0.15	959581	keystroke_a	a	n/a
480.0005	0.09	960001	keystroke_s	s	n/a
480.1805	0.105	960361	keystroke_s	s	n/a
480.3755	0.12	960751	keystroke_Key.space	Key.space	n/a
480.6155	0.09	961231	keystroke_e	e	n/a
480.7505	0.09	961501	keystroke_n	n	n/a
481.0505	0.105	962101	keystroke_c	c	n/a
481.1555	0.18	962311	keystroke_o	o	n/a
481.2755	0.135	962551	keystroke_u	u	n/a
481.4255	0.12	962851	keystroke_r	r	n/a
481.6205	0.12	963241	keystroke_a	a	n/a
481.8605	0.105	963721	keystroke_g	g	n/a
482.0555	0.15	964111	keystroke_i	i	n/a
482.1455	0.12	964291	keystroke_n	n	n/a
482.2505	0.09	964501	keystroke_g	g	n/a
482.7455	0.075	965491	keystroke_Key.enter	Key.enter	n/a
482.8285	9.8045	965657	prompt	n/a	equally annotated elegant ending\n
483.9455	0.12	967891	keystroke_e	e	n/a
484.4405	0.165	968881	keystroke_q	q	n/a
484.6205	0.105	969241	keystroke_u	u	n/a
485.0555	0.135	970111	keystroke_a	a	n/a
485.2505	0.075	970501	keystroke_l	l	n/a
485.4005	0.12	970801	keystroke_l	l	n/a
485.6405	0.105	971281	keystroke_y	y	n/a
485.8655	0.105	971731	keystroke_Key.space	Key.space	n/a
486.1355	0.135	972271	keystroke_a	a	n/a
486.3005	0.075	972601	keystroke_n	n	n/a
486.4805	0.15	972961	keystroke_n	n	n/a
486.6005	0.195	973201	keystroke_o	o	n/a
486.7655	0.15	973531	keystroke_t	t	n/a
486.8705	0.09	973741	keystroke_e	e	n/a
487.4555	0.105	974911	keystroke_Key.backspace	Key.backspace	n/a
487.936	0.135	975872	keystroke_Key.backspace	Key.backspace	n/a
489.001	0.09	978002	keystroke_t	t	n/a
489.181	0.135	978362	keystroke_a	a	n/a
489.331	0.15	978662	keystroke_t	t	n/a
489.421	0.105	978842	keystroke_e	e	n/a
489.631	0.135	979262	keystroke_d	d	n/a
489.781	0.105	979562	keystroke_Key.space	Key.space	n/a
490.201	0.075	980402	keystroke_e	e	n/a
490.321	0.135	980642	keystroke_l	l	n/a
490.441	0.09	980882	keystroke_e	e	n/a
490.636	0.075	981272	keystroke_g	g	n/a
490.801	0.135	981602	keystroke_a	a	n/a
490.906	0.105	981812	keystroke_n	n	n/a
491.131	0.09	982262	keystroke_t	t	n/a
491.371	0.12	982742	keystroke_Key.space	Key.space	n/a
491.566	0.105	983132	keystroke_e	e	n/a
491.686	0.105	983372	keystroke_n	n	n/a
491.806	0.105	983612	keystroke_d	d	n/a
491.986	0.195	983972	keystroke_i	i	n/a
492.091	0.135	984182	keystroke_n	n	n/a
492.211	0.075	984422	keystroke_g	g	n/a
492.541	0.089	985082	keystroke_Key.enter	Key.enter	n/a
492.638	6.1145	985276	prompt	n/a	narrow library lanes sessions\n
493.351	0.15	986702	keystroke_n	n	n/a
493.546	0.135	987092	keystroke_a	a	n/a
493.741	0.06	987482	keystroke_r	r	n/a
493.906	0.12	987812	keystroke_r	r	n/a
494.041	0.09	988082	keystroke_o	o	n/a
494.221	0.105	988442	keystroke_w	w	n/a
494.49	0.12	988980	keystroke_Key.space	Key.space	n/a
494.82	0.1355	989640	keystroke_l	l	n/a
494.925	0.105	989850	keystroke_i	i	n/a
495.15	0.12	990300	keystroke_b	b	n/a
495.285	0.0905	990570	keystroke_r	r	n/a
495.39	0.165	990780	keystroke_a	a	n/a
495.511	0.104	991022	keystroke_r	r	n/a
495.63	0.105	991260	keystroke_y	y	n/a
495.81	0.105	991620	keystroke_Key.space	Key.space	n/a
496.155	0.09	992310	keystroke_l	l	n/a
496.4255	0.12	992851	keystroke_a	a	n/a
496.6205	0.105	993241	keystroke_n	n	n/a
496.7255	0.135	993451	keystroke_e	e	n/a
496.8005	0.15	993601	keystroke_s	s	n/a
497.0555	0.12	994111	keystroke_Key.space	Key.space	n/a
497.5205	0.135	995041	keystroke_s	s	n/a
497.6855	0.12	995371	keystroke_e	e	n/a
497.8505	0.09	995701	keystroke_s	s	n/a
498.0305	0.09	996061	keystroke_s	s	n/a
498.1355	0.165	996271	keystroke_i	i	n/a
498.2105	0.165	996421	keystroke_o	o	n/a
498.3155	0.135	996631	keystroke_n	n	n/a
498.4205	0.12	996841	keystroke_s	s	n/a
498.6755	0.075	997351	keystroke_Key.enter	Key.enter	n/a
498.758	12.685	997516	prompt	n/a	textiles grades thus invention\n
499.7855	0.105	999571	keystroke_t	t	n/a
499.9205	0.135	999841	keystroke_e	e	n/a
500.4005	0.135	1000801	keystroke_x	x	n/a
500.8505	0.135	1001701	keystroke_t	t	n/a
501.4055	0.105	1002811	keystroke_i	i	n/a
501.6155	0.15	1003231	keystroke_l	l	n/a
501.7355	0.18	1003471	keystroke_e	e	n/a
501.8405	0.165	1003681	keystroke_s	s	n/a
502.4555	0.105	1004911	keystroke_Key.space	Key.space	n/a
502.6655	0.075	1005331	keystroke_g	g	n/a
502.8905	0.15	1005781	keystroke_r	r	n/a
503.0705	0.12	1006141	keystroke_a	a	n/a
503.2955	0.075	1006591	keystroke_d	d	n/a
503.4755	0.165	1006951	keystroke_e	e	n/a
503.5655	0.18	1007131	keystroke_s	s	n/a
503.7155	0.135	1007431	keystroke_Key.space	Key.space	n/a
503.9855	0.09	1007971	keystroke_t	t	n/a
504.1055	0.06	1008211	keystroke_h	h	n/a
504.3155	0.075	1008631	keystroke_u	u	n/a
504.511	0.075	1009022	keystroke_s	s	n/a
504.796	0.12	1009592	keystroke_Key.space	Key.space	n/a
505.156	0.15	1010312	keystroke_i	i	n/a
505.336	0.12	1010672	keystroke_n	n	n/a
505.531	0.105	1011062	keystroke_c	c	n/a
505.741	0.12	1011482	keystroke_e	e	n/a
505.816	0.105	1011632	keystroke_n	n	n/a
506.011	0.09	1012022	keystroke_t	t	n/a
506.116	0.15	1012232	keystroke_i	i	n/a
506.221	0.18	1012442	keystroke_o	o	n/a
506.656	0.075	1013312	keystroke_Key.backspace	Key.backspace	n/a
506.851	0.09	1013702	keystroke_Key.backspace	Key.backspace	n/a
507.061	0.09	1014122	keystroke_Key.backspace	Key.backspace	n/a
507.271	0.09	1014542	keystroke_Key.backspace	Key.backspace	n/a
507.571	0.075	1015142	keystroke_Key.backspace	Key.backspace	n/a
507.946	0.075	1015892	keystroke_Key.backspace	Key.backspace	n/a
508.591	0.12	1017182	keystroke_v	v	n/a
508.861	0.165	1017722	keystroke_e	e	n/a
508.981	0.105	1017962	keystroke_n	n	n/a
509.341	0.09	1018682	keystroke_t	t	n/a
509.491	0.15	1018982	keystroke_i	i	n/a
509.566	0.21	1019132	keystroke_o	o	n/a
509.716	0.12	1019432	keystroke_n	n	n/a
511.366	0.075	1022732	keystroke_Key.enter	Key.enter	n/a
511.4485	6.519	1022897	prompt	n/a	reached aerospace stars accounts\n
512.1605	0.165	1024321	keystroke_r	r	n/a
512.2355	0.1505	1024471	keystroke_e	e	n/a
512.401	0.105	1024802	keystroke_a	a	n/a
512.626	0.12	1025252	keystroke_c	c	n/a
512.761	0.06	1025522	keystroke_h	h	n/a
512.8655	0.09	1025731	keystroke_e	e	n/a
513.0455	0.165	1026091	keystroke_d	d	n/a
513.1955	0.105	1026391	keystroke_Key.space	Key.space	n/a
513.5705	0.105	1027141	keystroke_a	a	n/a
513.7655	0.135	1027531	keystroke_e	e	n/a
513.9755	0.1205	1027951	keystroke_r	r	n/a
514.1405	0.105	1028281	keystroke_o	o	n/a
514.3055	0.12	1028611	keystroke_s	s	n/a
514.4405	0.12	1028881	keystroke_p	p	n/a
514.546	0.0895	1029092	keystroke_a	a	n/a
514.7255	0.135	1029451	keystroke_c	c	n/a
514.9505	0.165	1029901	keystroke_e	e	n/a
515.1005	0.12	1030201	keystroke_Key.space	Key.space	n/a
515.3555	0.105	1030711	keystroke_s	s	n/a
515.5655	0.06	1031131	keystroke_t	t	n/a
515.7305	0.15	1031461	keystroke_a	a	n/a
515.8055	0.15	1031611	keystroke_r	r	n/a
516.0155	0.135	1032031	keystroke_s	s	n/a
516.2855	0.075	1032571	keystroke_Key.space	Key.space	n/a
516.4215	0.1045	1032843	keystroke_a	a	n/a
516.6605	0.075	1033321	keystroke_c	c	n/a
516.8555	0.075	1033711	keystroke_c	c	n/a
517.0055	0.165	1034011	keystroke_o	o	n/a
517.0805	0.12	1034161	keystroke_u	u	n/a
517.2905	0.135	1034581	keystroke_n	n	n/a
517.4405	0.075	1034881	keystroke_t	t	n/a
517.5905	0.12	1035181	keystroke_s	s	n/a
517.8905	0.075	1035781	keystroke_Key.enter	Key.enter	n/a
517.972	9.2815	1035944	prompt	n/a	walker anywhere experienced workshop\n
518.8205	0.105	1037641	keystroke_w	w	n/a
519.0305	0.12	1038061	keystroke_a	a	n/a
519.121	0.1045	1038242	keystroke_l	l	n/a
519.3605	0.09	1038721	keystroke_t	t	n/a
519.7955	0.09	1039591	keystroke_Key.backspace	Key.backspace	n/a
520.1105	0.09	1040221	keystroke_k	k	n/a
520.5155	0.12	1041031	keystroke_e	e	n/a
520.6055	0.12	1041211	keystroke_r	r	n/a
521.0555	0.12	1042111	keystroke_Key.space	Key.space	n/a
521.2655	0.135	1042531	keystroke_a	a	n/a
521.3705	0.06	1042741	keystroke_n	n	n/a
521.5805	0.06	1043161	keystroke_y	y	n/a
521.8505	0.12	1043701	keystroke_w	w	n/a
522.0305	0.105	1044061	keystroke_h	h	n/a
522.1505	0.105	1044301	keystroke_e	e	n/a
522.2255	0.18	1044451	keystroke_r	r	n/a
522.3455	0.105	1044691	keystroke_e	e	n/a
522.7355	0.105	1045471	keystroke_Key.space	Key.space	n/a
522.9905	0.09	1045981	keystroke_e	e	n/a
523.2755	0.09	1046551	keystroke_x	x	n/a
523.6355	0.12	1047271	keystroke_p	p	n/a
523.8005	0.12	1047601	keystroke_e	e	n/a
524.1005	0.09	1048201	keystroke_r	r	n/a
524.1915	0.119	1048383	keystroke_i	i	n/a
524.2805	0.12	1048561	keystroke_e	e	n/a
524.4605	0.12	1048921	keystroke_n	n	n/a
524.6555	0.075	1049311	keystroke_c	c	n/a
524.8055	0.09	1049611	keystroke_e	e	n/a
525.0165	0.104	1050033	keystroke_d	d	n/a
525.1655	0.12	1050331	keystroke_Key.space	Key.space	n/a
525.4805	0.09	1050961	keystroke_w	w	n/a
525.5555	0.135	1051111	keystroke_o	o	n/a
525.7055	0.135	1051411	keystroke_r	r	n/a
525.8705	0.09	1051741	keystroke_k	k	n/a
526.0205	0.12	1052041	keystroke_s	s	n/a
526.3065	0.119	1052613	keystroke_h	h	n/a
526.6655	0.135	1053331	keystroke_o	o	n/a
526.7705	0.105	1053541	keystroke_p	p	n/a
527.1605	0.09	1054321	keystroke_Key.enter	Key.enter	n/a
527.2645	7.128	1054529	prompt	n/a	anime medal chris province\n
528.001	0.285	1056002	keystroke_a	a	n/a
528.4205	0.106	1056841	keystroke_n	n	n/a
528.4965	0.104	1056993	keystroke_i	i	n/a
528.7205	0.106	1057441	keystroke_m	m	n/a
528.8405	0.121	1057681	keystroke_e	e	n/a
529.2905	0.12	1058581	keystroke_Key.space	Key.space	n/a
529.5005	0.121	1059001	keystroke_m	m	n/a
529.6365	0.074	1059273	keystroke_e	e	n/a
529.7865	0.089	1059573	keystroke_d	d	n/a
529.9505	0.15	1059901	keystroke_a	a	n/a
530.0705	0.06	1060141	keystroke_l	l	n/a
530.2205	0.12	1060441	keystroke_Key.space	Key.space	n/a
530.5665	0.104	1061133	keystroke_c	c	n/a
530.7155	0.106	1061431	keystroke_h	h	n/a
530.9255	0.105	1061851	keystroke_r	r	n/a
531.0455	0.105	1062091	keystroke_i	i	n/a
531.1365	0.104	1062273	keystroke_s	s	n/a
531.3915	0.089	1062783	keystroke_Key.space	Key.space	n/a
531.6155	0.106	1063231	keystroke_p	p	n/a
531.7805	0.106	1063561	keystroke_r	r	n/a
531.8555	0.121	1063711	keystroke_o	o	n/a
532.5905	0.09	1065181	keystroke_v	v	n/a
532.7705	0.135	1065541	keystroke_i	i	n/a
532.8455	0.165	1065691	keystroke_n	n	n/a
532.9955	0.09	1065991	keystroke_c	c	n/a
533.2355	0.075	1066471	keystroke_e	e	n/a
534.3005	0.09	1068601	keystroke_Key.enter	Key.enter	n/a
534.3985	7.3595	1068797	prompt	n/a	packed teenage program merit\n
535.141	0.12	1070282	keystroke_p	p	n/a
535.291	0.105	1070582	keystroke_a	a	n/a
535.531	0.075	1071062	keystroke_c	c	n/a
535.621	0.12	1071242	keystroke_k	k	n/a
535.742	0.074	1071484	keystroke_e	e	n/a
535.936	0.12	1071872	keystroke_d	d	n/a
536.086	0.105	1072172	keystroke_Key.space	Key.space	n/a
536.401	0.135	1072802	keystroke_t	t	n/a
536.521	0.09	1073042	keystroke_e	e	n/a
536.686	0.12	1073372	keystroke_e	e	n/a
537.046	0.135	1074092	keystroke_n	n	n/a
537.166	0.075	1074332	keystroke_a	a	n/a
537.376	0.105	1074752	keystroke_g	g	n/a
537.436	0.12	1074872	keystroke_e	e	n/a
538.246	0.105	1076492	keystroke_Key.space	Key.space	n/a
538.456	0.09	1076912	keystroke_p	p	n/a
538.591	0.09	1077182	keystroke_r	r	n/a
538.696	0.09	1077392	keystroke_o	o	n/a
538.891	0.075	1077782	keystroke_g	g	n/a
539.116	0.09	1078232	keystroke_r	r	n/a
539.266	0.15	1078532	keystroke_a	a	n/a
539.431	0.075	1078862	keystroke_m	m	n/a
539.911	0.075	1079822	keystroke_Key.space	Key.space	n/a
540.136	0.135	1080272	keystroke_m	m	n/a
540.301	0.12	1080602	keystroke_e	e	n/a
540.961	0.09	1081922	keystroke_r	r	n/a
541.066	0.12	1082132	keystroke_i	i	n/a
541.201	0.075	1082402	keystroke_t	t	n/a
541.666	0.09	1083332	keystroke_Key.enter	Key.enter	n/a
541.766	7.5375	1083532	prompt	n/a	newspaper episode real trek\n
542.776	0.12	1085552	keystroke_n	n	n/a
543.016	0.18	1086032	keystroke_e	e	n/a
543.121	0.165	1086242	keystroke_w	w	n/a
543.691	0.105	1087382	keystroke_s	s	n/a
544.006	0.105	1088012	keystroke_p	p	n/a
544.126	0.12	1088252	keystroke_a	a	n/a
544.486	0.12	1088972	keystroke_p	p	n/a
544.816	0.12	1089632	keystroke_e	e	n/a
544.906	0.135	1089812	keystroke_r	r	n/a
545.101	0.12	1090202	keystroke_Key.space	Key.space	n/a
545.866	0.075	1091732	keystroke_e	e	n/a
546.091	0.105	1092182	keystroke_p	p	n/a
546.346	0.12	1092692	keystroke_i	i	n/a
546.571	0.105	1093142	keystroke_s	s	n/a
546.691	0.09	1093382	keystroke_o	o	n/a
546.766	0.075	1093532	keystroke_d	d	n/a
546.961	0.105	1093922	keystroke_e	e	n/a
547.171	0.09	1094342	keystroke_Key.space	Key.space	n/a
547.336	0.135	1094672	keystroke_r	r	n/a
547.426	0.12	1094852	keystroke_e	e	n/a
547.531	0.12	1095062	keystroke_a	a	n/a
547.666	0.135	1095332	keystroke_l	l	n/a
547.831	0.12	1095662	keystroke_Key.space	Key.space	n/a
548.041	0.075	1096082	keystroke_t	t	n/a
548.221	0.12	1096442	keystroke_r	r	n/a
548.342	0.089	1096684	keystroke_e	e	n/a
548.986	0.075	1097972	keystroke_k	k	n/a
549.226	0.075	1098452	keystroke_Key.enter	Key.enter	n/a
549.309	11.995	1098618	prompt	n/a	murray dictionary grows were\n
550.051	0.09	1100102	keystroke_m	m	n/a
550.291	0.09	1100582	keystroke_u	u	n/a
550.606	0.075	1101212	keystroke_r	r	n/a
550.741	0.12	1101482	keystroke_r	r	n/a
550.936	0.15	1101872	keystroke_a	a	n/a
551.071	0.105	1102142	keystroke_y	y	n/a
551.431	0.105	1102862	keystroke_Key.space	Key.space	n/a
551.626	0.09	1103252	keystroke_d	d	n/a
551.761	0.09	1103522	keystroke_i	i	n/a
551.866	0.075	1103732	keystroke_c	c	n/a
552.076	0.09	1104152	keystroke_t	t	n/a
552.121	0.135	1104242	keystroke_i	i	n/a
552.196	0.195	1104392	keystroke_o	o	n/a
552.316	0.135	1104632	keystroke_n	n	n/a
552.481	0.15	1104962	keystroke_a	a	n/a
552.676	0.06	1105352	keystroke_y	y	n/a
554.356	0.105	1108712	keystroke_Key.backspace	Key.backspace	n/a
554.701	0.12	1109402	keystroke_Key.backspace	Key.backspace	n/a
555.706	0.135	1111412	keystroke_a	a	n/a
555.901	0.12	1111802	keystroke_r	r	n/a
556.036	0.0755	1112072	keystroke_y	y	n/a
558.5895	0.027	1117179	keystroke_Key.space	Key.space	n/a
558.8565	0.06	1117713	keystroke_g	g	n/a
559.0365	0.12	1118073	keystroke_r	r	n/a
559.1865	0.12	1118373	keystroke_o	o	n/a
559.3215	0.105	1118643	keystroke_w	w	n/a
559.5915	0.105	1119183	keystroke_s	s	n/a
560.1165	0.12	1120233	keystroke_Key.space	Key.space	n/a
560.521	0.135	1121042	keystroke_w	w	n/a
560.686	0.12	1121372	keystroke_e	e	n/a
560.776	0.15	1121552	keystroke_r	r	n/a
560.866	0.12	1121732	keystroke_e	e	n/a
561.241	0.06	1122482	keystroke_Key.enter	Key.enter	n/a
561.3195	9.8545	1122639	prompt	n/a	handled remaining food negotiation\n
562.037	0.089	1124074	keystroke_h	h	n/a
562.276	0.12	1124552	keystroke_a	a	n/a
562.6815	0.105	1125363	keystroke_n	n	n/a
562.9515	0.105	1125903	keystroke_d	d	n/a
563.1765	0.09	1126353	keystroke_l	l	n/a
563.2815	0.12	1126563	keystroke_e	e	n/a
563.5365	0.105	1127073	keystroke_d	d	n/a
564.0465	0.09	1128093	keystroke_Key.space	Key.space	n/a
564.3015	0.135	1128603	keystroke_r	r	n/a
564.3615	0.1205	1128723	keystroke_e	e	n/a
564.752	0.09	1129504	keystroke_m	m	n/a
565.427	0.104	1130854	keystroke_a	a	n/a
565.667	0.135	1131334	keystroke_i	i	n/a
565.772	0.135	1131544	keystroke_n	n	n/a
565.892	0.15	1131784	keystroke_i	i	n/a
566.012	0.09	1132024	keystroke_n	n	n/a
566.102	0.074	1132204	keystroke_g	g	n/a
566.3265	0.0895	1132653	keystroke_Key.space	Key.space	n/a
566.522	0.09	1133044	keystroke_f	f	n/a
566.612	0.075	1133224	keystroke_o	o	n/a
566.777	0.12	1133554	keystroke_o	o	n/a
566.927	0.15	1133854	keystroke_d	d	n/a
567.107	0.104	1134214	keystroke_Key.space	Key.space	n/a
567.317	0.105	1134634	keystroke_n	n	n/a
567.497	0.135	1134994	keystroke_e	e	n/a
568.787	0.119	1137574	keystroke_g	g	n/a
569.027	0.105	1138054	keystroke_o	o	n/a
569.912	0.105	1139824	keystroke_t	t	n/a
570.047	0.105	1140094	keystroke_i	i	n/a
570.257	0.135	1140514	keystroke_a	a	n/a
570.512	0.09	1141024	keystroke_t	t	n/a
570.587	0.15	1141174	keystroke_i	i	n/a
570.676	0.166	1141352	keystroke_o	o	n/a
570.797	0.105	1141594	keystroke_n	n	n/a
571.097	0.075	1142194	keystroke_Key.enter	Key.enter	n/a
571.1785	13.571	1142357	prompt	n/a	resolution efficiency honest instructional\n
573.86	0.087	1147720	keystroke_r	r	n/a
573.872	0.18	1147744	keystroke_e	e	n/a
574.172	0.165	1148344	keystroke_s	s	n/a
574.352	0.075	1148704	keystroke_o	o	n/a
575.657	0.09	1151314	keystroke_l	l	n/a
575.867	0.09	1151734	keystroke_u	u	n/a
576.257	0.09	1152514	keystroke_t	t	n/a
576.377	0.165	1152754	keystroke_i	i	n/a
576.452	0.195	1152904	keystroke_o	o	n/a
576.587	0.104	1153174	keystroke_n	n	n/a
576.737	0.135	1153474	keystroke_Key.space	Key.space	n/a
577.262	0.105	1154524	keystroke_e	e	n/a
577.487	0.075	1154974	keystroke_f	f	n/a
577.682	0.09	1155364	keystroke_f	f	n/a
578.657	0.105	1157314	keystroke_i	i	n/a
578.897	0.105	1157794	keystroke_c	c	n/a
579.077	0.105	1158154	keystroke_i	i	n/a
579.362	0.12	1158724	keystroke_e	e	n/a
579.512	0.105	1159024	keystroke_n	n	n/a
579.707	0.075	1159414	keystroke_c	c	n/a
579.797	0.105	1159594	keystroke_y	y	n/a
580.487	0.135	1160974	keystroke_Key.space	Key.space	n/a
580.667	0.135	1161334	keystroke_h	h	n/a
580.772	0.12	1161544	keystroke_o	o	n/a
580.997	0.12	1161994	keystroke_n	n	n/a
581.102	0.135	1162204	keystroke_e	e	n/a
581.207	0.255	1162414	keystroke_s	s	n/a
581.372	0.12	1162744	keystroke_t	t	n/a
581.492	0.12	1162984	keystroke_Key.space	Key.space	n/a
581.732	0.18	1163464	keystroke_i	i	n/a
581.822	0.135	1163644	keystroke_n	n	n/a
582.017	0.195	1164034	keystroke_s	s	n/a
582.512	0.09	1165024	keystroke_t	t	n/a
582.707	0.105	1165414	keystroke_r	r	n/a
583.022	0.105	1166044	keystroke_u	u	n/a
583.157	0.1195	1166314	keystroke_c	c	n/a
583.4415	0.09	1166883	keystroke_t	t	n/a
583.5465	0.195	1167093	keystroke_i	i	n/a
583.6515	0.195	1167303	keystroke_o	o	n/a
583.8165	0.09	1167633	keystroke_n	n	n/a
583.8915	0.105	1167783	keystroke_a	a	n/a
584.0265	0.12	1168053	keystroke_l	l	n/a
584.6565	0.0905	1169313	keystroke_Key.enter	Key.enter	n/a
584.7535	9.04	1169507	prompt	n/a	solution communicate weights catalyst\n
585.4515	0.15	1170903	keystroke_s	s	n/a
585.5715	0.06	1171143	keystroke_o	o	n/a
585.7515	0.075	1171503	keystroke_l	l	n/a
585.8865	0.12	1171773	keystroke_u	u	n/a
586.0665	0.15	1172133	keystroke_t	t	n/a
586.2315	0.1805	1172463	keystroke_i	i	n/a
586.2765	0.2405	1172553	keystroke_o	o	n/a
586.442	0.105	1172884	keystroke_n	n	n/a
586.607	0.12	1173214	keystroke_Key.space	Key.space	n/a
586.862	0.105	1173724	keystroke_c	c	n/a
586.952	0.105	1173904	keystroke_o	o	n/a
587.147	0.075	1174294	keystroke_m	m	n/a
587.312	0.06	1174624	keystroke_m	m	n/a
587.522	0.09	1175044	keystroke_u	u	n/a
587.762	0.15	1175524	keystroke_n	n	n/a
587.852	0.12	1175704	keystroke_i	i	n/a
588.047	0.105	1176094	keystroke_c	c	n/a
588.272	0.06	1176544	keystroke_a	a	n/a
588.452	0.15	1176904	keystroke_t	t	n/a
588.557	0.134	1177114	keystroke_e	e	n/a
588.752	0.104	1177504	keystroke_Key.space	Key.space	n/a
588.961	0.061	1177922	keystroke_w	w	n/a
589.111	0.136	1178222	keystroke_e	e	n/a
589.2165	0.0905	1178433	keystroke_i	i	n/a
589.397	0.089	1178794	keystroke_g	g	n/a
589.532	0.074	1179064	keystroke_h	h	n/a
589.757	0.104	1179514	keystroke_s	s	n/a
590.161	0.12	1180322	keystroke_Key.space	Key.space	n/a
590.402	0.1195	1180804	keystroke_c	c	n/a
590.6275	0.134	1181255	keystroke_a	a	n/a
590.9115	0.135	1181823	keystroke_t	t	n/a
591.2865	0.135	1182573	keystroke_a	a	n/a
591.4665	0.12	1182933	keystroke_l	l	n/a
591.6615	0.135	1183323	keystroke_y	y	n/a
591.9465	0.18	1183893	keystroke_s	s	n/a
592.1125	0.059	1184225	keystroke_t	t	n/a
593.717	0.075	1187434	keystroke_Key.enter	Key.enter	n/a
593.8	14.2295	1187600	prompt	n/a	measurements performed drainage client\n
594.5415	0.12	1189083	keystroke_m	m	n/a
594.7365	0.12	1189473	keystroke_e	e	n/a
594.9765	0.135	1189953	keystroke_a	a	n/a
595.2325	0.135	1190465	keystroke_s	s	n/a
595.3815	0.135	1190763	keystroke_u	u	n/a
595.4865	0.15	1190973	keystroke_r	r	n/a
595.5915	0.135	1191183	keystroke_e	e	n/a
595.8165	0.091	1191633	keystroke_m	m	n/a
595.9215	0.135	1191843	keystroke_e	e	n/a
596.0265	0.12	1192053	keystroke_n	n	n/a
596.1765	0.075	1192353	keystroke_t	t	n/a
596.3275	0.164	1192655	keystroke_s	s	n/a
596.5215	0.1195	1193043	keystroke_Key.space	Key.space	n/a
596.671	0.1055	1193342	keystroke_p	p	n/a
596.822	0.1645	1193644	keystroke_e	e	n/a
596.9275	0.119	1193855	keystroke_r	r	n/a
597.1665	0.091	1194333	keystroke_f	f	n/a
597.3165	0.1045	1194633	keystroke_o	o	n/a
597.451	0.121	1194902	keystroke_r	r	n/a
597.617	0.104	1195234	keystroke_m	m	n/a
597.752	0.089	1195504	keystroke_e	e	n/a
597.961	0.075	1195922	keystroke_d	d	n/a
598.336	0.105	1196672	keystroke_Key.space	Key.space	n/a
598.652	0.089	1197304	keystroke_d	d	n/a
598.861	0.12	1197722	keystroke_r	r	n/a
599.116	0.12	1198232	keystroke_a	a	n/a
599.266	0.09	1198532	keystroke_n	n	n/a
599.537	0.105	1199074	keystroke_g	g	n/a
599.762	0.09	1199524	keystroke_a	a	n/a
599.8975	0.1035	1199795	keystroke_g	g	n/a
599.9575	0.105	1199915	keystroke_e	e	n/a
601.022	0.09	1202044	keystroke_Key.backspace	Key.backspace	n/a
601.216	0.09	1202432	keystroke_Key.backspace	Key.backspace	n/a
601.426	0.105	1202852	keystroke_Key.backspace	Key.backspace	n/a
601.726	0.106	1203452	keystroke_Key.backspace	Key.backspace	n/a
602.641	0.09	1205282	keystroke_Key.backspace	Key.backspace	n/a
602.972	0.105	1205944	keystroke_i	i	n/a
603.391	0.121	1206782	keystroke_n	n	n/a
603.902	0.134	1207804	keystroke_a	a	n/a
604.172	0.15	1208344	keystroke_g	g	n/a
604.277	0.12	1208554	keystroke_e	e	n/a
605.027	0.059	1210054	keystroke_Key.space	Key.space	n/a
605.927	0.09	1211854	keystroke_c	c	n/a
606.542	0.105	1213084	keystroke_l	l	n/a
606.826	0.106	1213652	keystroke_i	i	n/a
607.022	0.119	1214044	keystroke_e	e	n/a
607.172	0.12	1214344	keystroke_n	n	n/a
607.352	0.104	1214704	keystroke_t	t	n/a
607.937	0.09	1215874	keystroke_Key.enter	Key.enter	n/a
608.0345	7.974	1216069	prompt	n/a	inbox sean thought convert\n
609.047	0.21	1218094	keystroke_i	i	n/a
609.182	0.12	1218364	keystroke_n	n	n/a
609.527	0.15	1219054	keystroke_b	b	n/a
609.647	0.105	1219294	keystroke_o	o	n/a
609.722	0.09	1219444	keystroke_x	x	n/a
610.441	0.136	1220882	keystroke_Key.space	Key.space	n/a
610.727	0.165	1221454	keystroke_s	s	n/a
610.877	0.12	1221754	keystroke_e	e	n/a
611.012	0.135	1222024	keystroke_a	a	n/a
611.132	0.075	1222264	keystroke_n	n	n/a
611.341	0.106	1222682	keystroke_Key.space	Key.space	n/a
611.597	0.09	1223194	keystroke_t	t	n/a
611.657	0.12	1223314	keystroke_h	h	n/a
611.792	0.165	1223584	keystroke_o	o	n/a
611.882	0.135	1223764	keystroke_u	u	n/a
612.4675	0.075	1224935	keystroke_g	g	n/a
612.5725	0.09	1225145	keystroke_h	h	n/a
612.6775	0.09	1225355	keystroke_t	t	n/a
613.5025	0.09	1227005	keystroke_Key.space	Key.space	n/a
613.7275	0.09	1227455	keystroke_c	c	n/a
613.8475	0.15	1227695	keystroke_o	o	n/a
614.672	0.12	1229344	keystroke_n	n	n/a
615.182	0.09	1230364	keystroke_v	v	n/a
615.407	0.195	1230814	keystroke_e	e	n/a
615.542	0.105	1231084	keystroke_r	r	n/a
615.737	0.09	1231474	keystroke_t	t	n/a
615.947	0.06	1231894	keystroke_Key.enter	Key.enter	n/a
616.0145	7.9745	1232029	prompt	n/a	metropolitan mechanical rides call\n
616.892	0.15	1233784	keystroke_m	m	n/a
617.057	0.12	1234114	keystroke_e	e	n/a
617.267	0.06	1234534	keystroke_t	t	n/a
617.447	0.12	1234894	keystroke_r	r	n/a
617.612	0.135	1235224	keystroke_o	o	n/a
617.807	0.15	1235614	keystroke_p	p	n/a
617.927	0.12	1235854	keystroke_o	o	n/a
618.152	0.135	1236304	keystroke_l	l	n/a
618.242	0.135	1236484	keystroke_i	i	n/a
618.392	0.0745	1236784	keystroke_t	t	n/a
618.6625	0.015	1237325	keystroke_a	a	n/a
618.6915	0.06	1237383	keystroke_n	n	n/a
618.8415	0.105	1237683	keystroke_Key.space	Key.space	n/a
619.0225	0.134	1238045	keystroke_m	m	n/a
619.1725	0.089	1238345	keystroke_e	e	n/a
619.7865	0.105	1239573	keystroke_c	c	n/a
619.9825	0.09	1239965	keystroke_h	h	n/a
620.2225	0.164	1240445	keystroke_a	a	n/a
620.7475	0.15	1241495	keystroke_n	n	n/a
620.8525	0.15	1241705	keystroke_i	i	n/a
621.0475	0.12	1242095	keystroke_c	c	n/a
621.2575	0.105	1242515	keystroke_a	a	n/a
621.3175	0.105	1242635	keystroke_l	l	n/a
621.4825	0.074	1242965	keystroke_Key.space	Key.space	n/a
621.8425	0.119	1243685	keystroke_r	r	n/a
621.9775	0.12	1243955	keystroke_i	i	n/a
622.1275	0.09	1244255	keystroke_d	d	n/a
622.352	0.15	1244704	keystroke_e	e	n/a
622.442	0.195	1244884	keystroke_s	s	n/a
622.622	0.105	1245244	keystroke_Key.space	Key.space	n/a
622.862	0.09	1245724	keystroke_c	c	n/a
623.027	0.12	1246054	keystroke_a	a	n/a
623.162	0.06	1246324	keystroke_l	l	n/a
623.327	0.09	1246654	keystroke_l	l	n/a
623.897	0.09	1247794	keystroke_Key.enter	Key.enter	n/a
623.9925	10.4215	1247985	prompt	n/a	seasons lots quoted regression\n
624.812	0.135	1249624	keystroke_s	s	n/a
625.052	0.015	1250104	keystroke_e	e	n/a
625.172	0.135	1250344	keystroke_a	a	n/a
625.802	0.105	1251604	keystroke_s	s	n/a
626.027	0.166	1252054	keystroke_o	o	n/a
626.117	0.135	1252234	keystroke_n	n	n/a
626.357	0.105	1252714	keystroke_s	s	n/a
627.272	0.12	1254544	keystroke_Key.space	Key.space	n/a
627.467	0.075	1254934	keystroke_l	l	n/a
627.662	0.105	1255324	keystroke_o	o	n/a
627.768	0.089	1255536	keystroke_t	t	n/a
627.947	0.181	1255894	keystroke_s	s	n/a
628.112	0.105	1256224	keystroke_Key.space	Key.space	n/a
629.117	0.15	1258234	keystroke_q	q	n/a
629.402	0.105	1258804	keystroke_u	u	n/a
629.807	0.12	1259614	keystroke_o	o	n/a
630.003	0.134	1260006	keystroke_t	t	n/a
630.107	0.106	1260214	keystroke_e	e	n/a
630.318	0.074	1260636	keystroke_d	d	n/a
631.067	0.1345	1262134	keystroke_Key.space	Key.space	n/a
631.517	0.15	1263034	keystroke_r	r	n/a
631.622	0.105	1263244	keystroke_e	e	n/a
631.803	0.089	1263606	keystroke_g	g	n/a
632.042	0.105	1264084	keystroke_r	r	n/a
632.087	0.1795	1264174	keystroke_e	e	n/a
632.193	0.1185	1264386	keystroke_s	s	n/a
632.402	0.105	1264804	keystroke_s	s	n/a
632.5215	0.1205	1265043	keystroke_i	i	n/a
632.612	0.18	1265224	keystroke_o	o	n/a
632.732	0.135	1265464	keystroke_n	n	n/a
632.822	0.09	1265644	keystroke_s	s	n/a
633.4965	0.09	1266993	keystroke_Key.backspace	Key.backspace	n/a
634.322	0.09	1268644	keystroke_Key.enter	Key.enter	n/a
634.419	8.545	1268838	prompt	n/a	sessions completing settled trembl\n
635.102	0.18	1270204	keystroke_s	s	n/a
635.252	0.15	1270504	keystroke_e	e	n/a
635.387	0.09	1270774	keystroke_s	s	n/a
635.582	0.09	1271164	keystroke_s	s	n/a
635.702	0.135	1271404	keystroke_i	i	n/a
635.777	0.195	1271554	keystroke_o	o	n/a
635.927	0.105	1271854	keystroke_n	n	n/a
636.497	0.105	1272994	keystroke_s	s	n/a
636.902	0.12	1273804	keystroke_Key.space	Key.space	n/a
637.397	0.09	1274794	keystroke_c	c	n/a
637.488	0.104	1274976	keystroke_o	o	n/a
637.697	0.075	1275394	keystroke_m	m	n/a
637.877	0.075	1275754	keystroke_p	p	n/a
638.072	0.12	1276144	keystroke_l	l	n/a
638.177	0.135	1276354	keystroke_e	e	n/a
638.357	0.135	1276714	keystroke_t	t	n/a
638.477	0.18	1276954	keystroke_i	i	n/a
638.567	0.136	1277134	keystroke_n	n	n/a
638.687	0.12	1277374	keystroke_g	g	n/a
638.882	0.105	1277764	keystroke_Key.space	Key.space	n/a
639.242	0.105	1278484	keystroke_s	s	n/a
639.422	0.136	1278844	keystroke_e	e	n/a
639.617	0.06	1279234	keystroke_t	t	n/a
639.767	0.105	1279534	keystroke_t	t	n/a
639.917	0.12	1279834	keystroke_l	l	n/a
640.052	0.105	1280104	keystroke_e	e	n/a
640.277	0.09	1280554	keystroke_d	d	n/a
640.532	0.075	1281064	keystroke_Key.space	Key.space	n/a
640.7865	0.06	1281573	keystroke_t	t	n/a
640.9675	0.104	1281935	keystroke_r	r	n/a
641.5965	0.09	1283193	keystroke_e	e	n/a
641.8065	0.09	1283613	keystroke_m	m	n/a
642.1665	0.075	1284333	keystroke_b	b	n/a
642.3315	0.09	1284663	keystroke_l	l	n/a
642.8715	0.09	1285743	keystroke_Key.enter	Key.enter	n/a
642.969	7.6145	1285938	prompt	n/a	causes sage it's innovation\n
644.0115	0.105	1288023	keystroke_c	c	n/a
644.2515	0.076	1288503	keystroke_a	a	n/a
644.3415	0.106	1288683	keystroke_u	u	n/a
644.4775	0.1495	1288955	keystroke_s	s	n/a
644.582	0.1805	1289164	keystroke_e	e	n/a
644.732	0.135	1289464	keystroke_s	s	n/a
645.1225	0.12	1290245	keystroke_Key.space	Key.space	n/a
645.4375	0.1045	1290875	keystroke_s	s	n/a
645.6625	0.09	1291325	keystroke_a	a	n/a
645.8275	0.12	1291655	keystroke_g	g	n/a
645.9325	0.15	1291865	keystroke_e	e	n/a
646.0975	0.12	1292195	keystroke_Key.space	Key.space	n/a
646.2925	0.12	1292585	keystroke_i	i	n/a
646.4275	0.06	1292855	keystroke_t	t	n/a
646.8025	0.105	1293605	keystroke_'	'	n/a
647.1625	0.105	1294325	keystroke_s	s	n/a
647.4015	0.105	1294803	keystroke_Key.space	Key.space	n/a
648.1375	0.09	1296275	keystroke_i	i	n/a
648.3625	0.06	1296725	keystroke_n	n	n/a
648.5275	0.134	1297055	keystroke_n	n	n/a
648.6165	0.15	1297233	keystroke_o	o	n/a
649.3365	0.091	1298673	keystroke_v	v	n/a
649.5315	0.15	1299063	keystroke_a	a	n/a
649.8315	0.075	1299663	keystroke_t	t	n/a
649.8765	0.165	1299753	keystroke_i	i	n/a
