onset	duration	sample	value	key	prompt_text
2.2695	15.4945	4539	prompt	n/a	the quick brown fox jumps over a lazy dog\n
7.2635	0.028	14527	keystroke_t	t	n/a
7.2645	0.072	14529	keystroke_h	h	n/a
7.4115	0.105	14823	keystroke_e	e	n/a
7.5015	0.105	15003	keystroke_Key.space	Key.space	n/a
7.6365	0.15	15273	keystroke_q	q	n/a
7.8165	0.105	15633	keystroke_u	u	n/a
7.9065	0.12	15813	keystroke_i	i	n/a
8.0565	0.12	16113	keystroke_c	c	n/a
8.2065	0.135	16413	keystroke_k	k	n/a
8.3265	0.105	16653	keystroke_Key.space	Key.space	n/a
8.5665	0.09	17133	keystroke_b	b	n/a
8.6865	0.12	17373	keystroke_r	r	n/a
8.8215	0.09	17643	keystroke_o	o	n/a
8.8965	0.12	17793	keystroke_w	w	n/a
9.0325	0.074	18065	keystroke_n	n	n/a
9.1075	0.104	18215	keystroke_Key.space	Key.space	n/a
9.2265	0.075	18453	keystroke_f	f	n/a
9.3165	0.105	18633	keystroke_o	o	n/a
9.4665	0.09	18933	keystroke_x	x	n/a
9.6165	0.12	19233	keystroke_Key.space	Key.space	n/a
9.8115	0.09	19623	keystroke_j	j	n/a
9.9615	0.09	19923	keystroke_u	u	n/a
10.4415	0.09	20883	keystroke_n	n	n/a
10.8915	0.06	21783	keystroke_Key.backspace	Key.backspace	n/a
11.3715	0.09	22743	keystroke_m	m	n/a
11.5365	0.09	23073	keystroke_p	p	n/a
11.6565	0.15	23313	keystroke_s	s	n/a
11.7765	0.12	23553	keystroke_Key.space	Key.space	n/a
12.242	0.1195	24484	keystroke_o	o	n/a
12.3765	0.135	24753	keystroke_v	v	n/a
12.4965	0.135	24993	keystroke_e	e	n/a
12.587	0.12	25174	keystroke_r	r	n/a
12.7365	0.105	25473	keystroke_Key.space	Key.space	n/a
12.872	0.09	25744	keystroke_a	a	n/a
12.992	0.105	25984	keystroke_l	l	n/a
13.112	0.045	26224	keystroke_a	a	n/a
13.4265	0.12	26853	keystroke_z	z	n/a
13.7865	0.06	27573	keystroke_Key.backspace	Key.backspace	n/a
13.9215	0.09	27843	keystroke_Key.backspace	Key.backspace	n/a
14.0715	0.075	28143	keystroke_Key.backspace	Key.backspace	n/a
14.2815	0.075	28563	keystroke_Key.space	Key.space	n/a
14.717	0.06	29434	keystroke_k	k	n/a
15.092	0.075	30184	keystroke_a	a	n/a
15.3015	0.075	30603	keystroke_z	z	n/a
15.6315	0.045	31263	keystroke_Key.backspace	Key.backspace	n/a
15.8265	0.03	31653	keystroke_Key.backspace	Key.backspace	n/a
15.9015	0.075	31803	keystroke_Key.backspace	Key.backspace	n/a
16.382	0.09	32764	keystroke_l	l	n/a
16.487	0.06	32974	keystroke_a	a	n/a
16.652	0.105	33304	keystroke_z	z	n/a
16.817	0.135	33634	keystroke_y	y	n/a
16.937	0.09	33874	keystroke_Key.space	Key.space	n/a
17.072	0.09	34144	keystroke_d	d	n/a
17.162	0.09	34324	keystroke_o	o	n/a
17.297	0.12	34594	keystroke_g	g	n/a
17.657	0.105	35314	keystroke_Key.enter	Key.enter	n/a
17.7685	6.2945	35537	prompt	n/a	joins titled monday ranking\n
18.797	0.135	37594	keystroke_j	j	n/a
18.947	0.18	37894	keystroke_o	o	n/a
19.082	0.075	38164	keystroke_i	i	n/a
19.276	0.09	38552	keystroke_n	n	n/a
19.381	0.12	38762	keystroke_s	s	n/a
19.546	0.09	39092	keystroke_Key.space	Key.space	n/a
19.846	0.06	39692	keystroke_t	t	n/a
19.951	0.105	39902	keystroke_i	i	n/a
20.026	0.075	40052	keystroke_t	t	n/a
20.206	0.09	40412	keystroke_l	l	n/a
20.281	0.075	40562	keystroke_e	e	n/a
20.506	0.105	41012	keystroke_s	s	n/a
21.106	0.06	42212	keystroke_Key.backspace	Key.backspace	n/a
21.151	0.1205	42302	keystroke_d	d	n/a
21.3165	0.09	42633	keystroke_Key.space	Key.space	n/a
21.4515	0.12	42903	keystroke_m	m	n/a
21.6315	0.15	43263	keystroke_o	o	n/a
21.7215	0.135	43443	keystroke_n	n	n/a
21.9915	0.075	43983	keystroke_d	d	n/a
22.1565	0.09	44313	keystroke_a	a	n/a
22.3515	0.12	44703	keystroke_y	y	n/a
22.4565	0.105	44913	keystroke_Key.space	Key.space	n/a
22.8465	0.075	45693	keystroke_r	r	n/a
23.0415	0.12	46083	keystroke_a	a	n/a
23.1015	0.1055	46203	keystroke_n	n	n/a
23.267	0.075	46534	keystroke_k	k	n/a
23.477	0.075	46954	keystroke_i	i	n/a
23.492	0.12	46984	keystroke_n	n	n/a
23.642	0.075	47284	keystroke_g	g	n/a
23.971	0.091	47942	keystroke_Key.enter	Key.enter	n/a
24.068	10.1355	48136	prompt	n/a	amplifier housewives biol substances\n
24.797	0.1195	49594	keystroke_a	a	n/a
25.0215	0.09	50043	keystroke_m	m	n/a
25.2165	0.075	50433	keystroke_p	p	n/a
25.5915	0.0895	51183	keystroke_l	l	n/a
25.801	0.075	51602	keystroke_i	i	n/a
26.102	0.089	52204	keystroke_f	f	n/a
26.237	0.074	52474	keystroke_i	i	n/a
26.401	0.075	52802	keystroke_r	r	n/a
26.837	0.03	53674	keystroke_Key.backspace	Key.backspace	n/a
26.882	0.059	53764	keystroke_e	e	n/a
27.031	0.105	54062	keystroke_r	r	n/a
27.137	0.089	54274	keystroke_Key.space	Key.space	n/a
27.301	0.075	54602	keystroke_h	h	n/a
27.482	0.105	54964	keystroke_o	o	n/a
27.527	0.09	55054	keystroke_u	u	n/a
27.677	0.134	55354	keystroke_s	s	n/a
27.782	0.104	55564	keystroke_e	e	n/a
28.082	0.1045	56164	keystroke_w	w	n/a
28.1875	0.089	56375	keystroke_i	i	n/a
28.5315	0.09	57063	keystroke_v	v	n/a
28.6965	0.075	57393	keystroke_e	e	n/a
28.9965	0.06	57993	keystroke_Key.space	Key.space	n/a
29.476	0.06	58952	keystroke_Key.backspace	Key.backspace	n/a
29.551	0.09	59102	keystroke_s	s	n/a
29.686	0.09	59372	keystroke_Key.space	Key.space	n/a
29.867	0.12	59734	keystroke_b	b	n/a
30.077	0.104	60154	keystroke_i	i	n/a
30.301	0.075	60602	keystroke_o	o	n/a
30.481	0.12	60962	keystroke_l	l	n/a
30.632	0.074	61264	keystroke_Key.space	Key.space	n/a
30.752	0.134	61504	keystroke_s	s	n/a
30.871	0.075	61742	keystroke_u	u	n/a
31.051	0.075	62102	keystroke_b	b	n/a
31.2315	0.09	62463	keystroke_s	s	n/a
31.4415	0.06	62883	keystroke_t	t	n/a
31.6065	0.09	63213	keystroke_a	a	n/a
32.0415	0.075	64083	keystroke_n	n	n/a
32.1615	0.12	64323	keystroke_t	t	n/a
32.5965	0.075	65193	keystroke_Key.backspace	Key.backspace	n/a
32.6565	0.12	65313	keystroke_c	c	n/a
32.7915	0.105	65583	keystroke_e	e	n/a
33.0315	0.12	66063	keystroke_s	s	n/a
34.111	0.09	68222	keystroke_Key.enter	Key.enter	n/a
34.2065	6.4915	68413	prompt	n/a	ours workforce suggests discrimination\n
35.011	0.135	70022	keystroke_o	o	n/a
35.086	0.09	70172	keystroke_u	u	n/a
35.266	0.106	70532	keystroke_r	r	n/a
35.521	0.105	71042	keystroke_s	s	n/a
35.671	0.105	71342	keystroke_Key.space	Key.space	n/a
35.821	0.105	71642	keystroke_w	w	n/a
35.911	0.075	71822	keystroke_o	o	n/a
35.987	0.089	71974	keystroke_r	r	n/a
36.136	0.09	72272	keystroke_k	k	n/a
36.362	0.089	72724	keystroke_f	f	n/a
36.496	0.075	72992	keystroke_o	o	n/a
36.557	0.104	73114	keystroke_r	r	n/a
36.796	0.105	73592	keystroke_c	c	n/a
36.961	0.09	73922	keystroke_e	e	n/a
37.081	0.09	74162	keystroke_Key.space	Key.space	n/a
37.2165	0.12	74433	keystroke_s	s	n/a
37.3215	0.075	74643	keystroke_u	u	n/a
37.4565	0.06	74913	keystroke_g	g	n/a
37.5765	0.09	75153	keystroke_g	g	n/a
37.6965	0.105	75393	keystroke_e	e	n/a
37.8765	0.105	75753	keystroke_s	s	n/a
38.0565	0.06	76113	keystroke_t	t	n/a
38.206	0.105	76412	keystroke_s	s	n/a
38.326	0.105	76652	keystroke_Key.space	Key.space	n/a
38.522	0.09	77044	keystroke_d	d	n/a
38.641	0.09	77282	keystroke_i	i	n/a
38.747	0.059	77494	keystroke_s	s	n/a
38.866	0.106	77732	keystroke_c	c	n/a
39.091	0.09	78182	keystroke_r	r	n/a
39.182	0.0895	78364	keystroke_i	i	n/a
39.4065	0.105	78813	keystroke_m	m	n/a
39.5865	0.075	79173	keystroke_i	i	n/a
39.7065	0.12	79413	keystroke_n	n	n/a
39.8715	0.12	79743	keystroke_a	a	n/a
40.0965	0.075	80193	keystroke_t	t	n/a
40.1715	0.105	80343	keystroke_i	i	n/a
40.2315	0.135	80463	keystroke_o	o	n/a
40.3365	0.105	80673	keystroke_n	n	n/a
40.6365	0.06	81273	keystroke_Key.enter	Key.enter	n/a
40.7025	8.0805	81405	prompt	n/a	whats amanda circumstances latex\n
41.2965	0.06	82593	keystroke_w	w	n/a
41.4465	0.075	82893	keystroke_a	a	n/a
41.8215	0.075	83643	keystroke_Key.backspace	Key.backspace	n/a
42.0465	0.09	84093	keystroke_h	h	n/a
42.1065	0.075	84213	keystroke_a	a	n/a
42.3165	0.075	84633	keystroke_t	t	n/a
42.4965	0.09	84993	keystroke_s	s	n/a
42.6015	0.075	85203	keystroke_Key.space	Key.space	n/a
42.6915	0.075	85383	keystroke_a	a	n/a
42.7815	0.075	85563	keystroke_m	m	n/a
42.8715	0.09	85743	keystroke_a	a	n/a
42.9765	0.075	85953	keystroke_n	n	n/a
43.3065	0.0895	86613	keystroke_d	d	n/a
43.516	0.075	87032	keystroke_a	a	n/a
44.326	0.12	88652	keystroke_Key.space	Key.space	n/a
44.986	0.135	89972	keystroke_c	c	n/a
45.106	0.09	90212	keystroke_i	i	n/a
45.211	0.0755	90422	keystroke_r	r	n/a
45.4365	0.105	90873	keystroke_c	c	n/a
45.6015	0.06	91203	keystroke_u	u	n/a
45.8265	0.075	91653	keystroke_m	m	n/a
46.0365	0.1055	92073	keystroke_s	s	n/a
46.217	0.09	92434	keystroke_t	t	n/a
46.412	0.06	92824	keystroke_a	a	n/a
46.502	0.075	93004	keystroke_n	n	n/a
46.592	0.105	93184	keystroke_c	c	n/a
46.712	0.09	93424	keystroke_e	e	n/a
46.922	0.09	93844	keystroke_s	s	n/a
46.997	0.12	93994	keystroke_Key.space	Key.space	n/a
47.132	0.075	94264	keystroke_l	l	n/a
47.162	0.075	94324	keystroke_a	a	n/a
47.522	0.06	95044	keystroke_t	t	n/a
47.702	0.06	95404	keystroke_e	e	n/a
48.242	0.09	96484	keystroke_x	x	n/a
48.647	0.135	97294	keystroke_Key.enter	Key.enter	n/a
48.7875	6.881	97575	prompt	n/a	fresh symbol properties monroe\n
50.1315	0.1045	100263	keystroke_f	f	n/a
50.342	0.059	100684	keystroke_r	r	n/a
50.537	0.06	101074	keystroke_e	e	n/a
50.732	0.104	101464	keystroke_s	s	n/a
50.852	0.09	101704	keystroke_h	h	n/a
51.001	0.105	102002	keystroke_Key.space	Key.space	n/a
51.2865	0.135	102573	keystroke_s	s	n/a
51.4365	0.075	102873	keystroke_y	y	n/a
51.8565	0.105	103713	keystroke_m	m	n/a
52.081	0.091	104162	keystroke_b	b	n/a
52.246	0.105	104492	keystroke_o	o	n/a
52.456	0.12	104912	keystroke_l	l	n/a
52.561	0.105	105122	keystroke_Key.space	Key.space	n/a
52.727	0.104	105454	keystroke_p	p	n/a
52.846	0.105	105692	keystroke_r	r	n/a
52.936	0.091	105872	keystroke_o	o	n/a
53.252	0.074	106504	keystroke_p	p	n/a
53.357	0.119	106714	keystroke_e	e	n/a
53.431	0.09	106862	keystroke_r	r	n/a
53.686	0.075	107372	keystroke_t	t	n/a
53.791	0.09	107582	keystroke_i	i	n/a
53.911	0.091	107822	keystroke_e	e	n/a
54.121	0.105	108242	keystroke_s	s	n/a
54.241	0.105	108482	keystroke_Key.space	Key.space	n/a
54.511	0.09	109022	keystroke_m	m	n/a
54.661	0.105	109322	keystroke_o	o	n/a
54.721	0.105	109442	keystroke_n	n	n/a
54.916	0.075	109832	keystroke_r	r	n/a
55.066	0.075	110132	keystroke_o	o	n/a
55.1865	0.09	110373	keystroke_e	e	n/a
55.5765	0.0895	111153	keystroke_Key.enter	Key.enter	n/a
55.672	7.421	111344	prompt	n/a	asked negotiations regularly compared\n
56.431	0.075	112862	keystroke_a	a	n/a
56.611	0.075	113222	keystroke_s	s	n/a
56.716	0.06	113432	keystroke_k	k	n/a
56.791	0.075	113582	keystroke_e	e	n/a
56.941	0.105	113882	keystroke_d	d	n/a
57.061	0.12	114122	keystroke_Key.space	Key.space	n/a
57.1965	0.0595	114393	keystroke_n	n	n/a
57.331	0.045	114662	keystroke_e	e	n/a
57.631	0.106	115262	keystroke_g	g	n/a
57.766	0.06	115532	keystroke_o	o	n/a
58.156	0.105	116312	keystroke_t	t	n/a
58.501	0.075	117002	keystroke_i	i	n/a
58.606	0.12	117212	keystroke_a	a	n/a
59.041	0.105	118082	keystroke_t	t	n/a
59.161	0.15	118322	keystroke_i	i	n/a
59.266	0.12	118532	keystroke_o	o	n/a
59.326	0.12	118652	keystroke_n	n	n/a
59.476	0.12	118952	keystroke_s	s	n/a
59.866	0.0905	119732	keystroke_Key.space	Key.space	n/a
59.9865	0.075	119973	keystroke_r	r	n/a
60.1365	0.105	120273	keystroke_e	e	n/a
60.3465	0.105	120693	keystroke_g	g	n/a
60.4515	0.06	120903	keystroke_u	u	n/a
60.6615	0.075	121323	keystroke_l	l	n/a
60.7215	0.075	121443	keystroke_a	a	n/a
60.9165	0.165	121833	keystroke_r	r	n/a
61.2765	0.0895	122553	keystroke_l	l	n/a
61.411	0.135	122822	keystroke_y	y	n/a
61.561	0.09	123122	keystroke_Key.space	Key.space	n/a
61.801	0.15	123602	keystroke_c	c	n/a
61.936	0.105	123872	keystroke_o	o	n/a
61.996	0.105	123992	keystroke_m	m	n/a
62.2065	0.0895	124413	keystroke_p	p	n/a
62.281	0.075	124562	keystroke_a	a	n/a
62.4765	0.075	124953	keystroke_r	r	n/a
62.6265	0.105	125253	keystroke_e	e	n/a
62.8065	0.12	125613	keystroke_d	d	n/a
62.9715	0.12	125943	keystroke_Key.enter	Key.enter	n/a
63.0975	4.8855	126195	prompt	n/a	doll breaks diamonds teaching\n
63.676	0.135	127352	keystroke_d	d	n/a
63.796	0.09	127592	keystroke_o	o	n/a
64.021	0.03	128042	keystroke_l	l	n/a
64.141	0.09	128282	keystroke_l	l	n/a
64.216	0.105	128432	keystroke_Key.space	Key.space	n/a
64.381	0.09	128762	keystroke_b	b	n/a
64.441	0.09	128882	keystroke_r	r	n/a
64.606	0.09	129212	keystroke_e	e	n/a
64.771	0.105	129542	keystroke_a	a	n/a
64.906	0.075	129812	keystroke_k	k	n/a
65.101	0.0905	130202	keystroke_s	s	n/a
65.2065	0.06	130413	keystroke_Key.space	Key.space	n/a
65.4315	0.105	130863	keystroke_d	d	n/a
65.5515	0.075	131103	keystroke_i	i	n/a
65.6865	0.12	131373	keystroke_a	a	n/a
65.7915	0.075	131583	keystroke_m	m	n/a
65.9715	0.135	131943	keystroke_o	o	n/a
66.0765	0.105	132153	keystroke_n	n	n/a
66.1965	0.09	132393	keystroke_d	d	n/a
66.3615	0.105	132723	keystroke_s	s	n/a
66.4815	0.105	132963	keystroke_Key.space	Key.space	n/a
66.6615	0.06	133323	keystroke_t	t	n/a
66.8565	0.09	133713	keystroke_e	e	n/a
67.0215	0.075	134043	keystroke_a	a	n/a
67.2315	0.075	134463	keystroke_c	c	n/a
67.321	0.06	134642	keystroke_h	h	n/a
67.486	0.12	134972	keystroke_i	i	n/a
67.561	0.105	135122	keystroke_n	n	n/a
67.651	0.075	135302	keystroke_g	g	n/a
67.891	0.09	135782	keystroke_Key.enter	Key.enter	n/a
67.9855	7.167	135971	prompt	n/a	builds reprints gateway object\n
68.8665	0.135	137733	keystroke_b	b	n/a
69.0165	0.165	138033	keystroke_u	u	n/a
69.1665	0.135	138333	keystroke_i	i	n/a
69.4215	0.12	138843	keystroke_l	l	n/a
69.5265	0.105	139053	keystroke_d	d	n/a
69.7215	0.135	139443	keystroke_s	s	n/a
70.0365	0.12	140073	keystroke_Key.space	Key.space	n/a
70.3065	0.045	140613	keystroke_p	p	n/a
70.636	0.12	141272	keystroke_Key.backspace	Key.backspace	n/a
70.816	0.09	141632	keystroke_r	r	n/a
70.996	0.09	141992	keystroke_e	e	n/a
71.161	0.09	142322	keystroke_p	p	n/a
71.311	0.12	142622	keystroke_r	r	n/a
71.476	0.15	142952	keystroke_i	i	n/a
71.566	0.12	143132	keystroke_n	n	n/a
71.656	0.105	143312	keystroke_t	t	n/a
71.896	0.1055	143792	keystroke_s	s	n/a
72.0315	0.075	144063	keystroke_Key.space	Key.space	n/a
72.2265	0.12	144453	keystroke_g	g	n/a
72.4515	0.075	144903	keystroke_a	a	n/a
72.721	0.076	145442	keystroke_t	t	n/a
72.826	0.15	145652	keystroke_e	e	n/a
73.111	0.105	146222	keystroke_w	w	n/a
73.276	0.1205	146552	keystroke_a	a	n/a
73.4265	0.09	146853	keystroke_y	y	n/a
73.5915	0.12	147183	keystroke_Key.space	Key.space	n/a
73.8615	0.09	147723	keystroke_o	o	n/a
74.0265	0.105	148053	keystroke_b	b	n/a
74.3415	0.09	148683	keystroke_j	j	n/a
74.4915	0.06	148983	keystroke_e	e	n/a
74.6715	0.09	149343	keystroke_c	c	n/a
74.9115	0.045	149823	keystroke_t	t	n/a
75.1065	0.045	150213	keystroke_Key.enter	Key.enter	n/a
75.155	9.028	150310	prompt	n/a	nutritional cattle lion knitting\n
75.8115	0.075	151623	keystroke_n	n	n/a
75.9915	0.0895	151983	keystroke_i	i	n/a
76.396	0.06	152792	keystroke_Key.backspace	Key.backspace	n/a
76.606	0.075	153212	keystroke_u	u	n/a
76.786	0.09	153572	keystroke_t	t	n/a
76.981	0.09	153962	keystroke_r	r	n/a
77.086	0.075	154172	keystroke_i	i	n/a
77.776	0.09	155552	keystroke_c	c	n/a
78.181	0.06	156362	keystroke_Key.backspace	Key.backspace	n/a
78.256	0.12	156512	keystroke_t	t	n/a
78.466	0.15	156932	keystroke_i	i	n/a
78.601	0.15	157202	keystroke_o	o	n/a
78.691	0.1205	157382	keystroke_n	n	n/a
78.8265	0.12	157653	keystroke_a	a	n/a
78.9765	0.045	157953	keystroke_l	l	n/a
79.1415	0.09	158283	keystroke_Key.space	Key.space	n/a
79.546	0.075	159092	keystroke_c	c	n/a
79.651	0.12	159302	keystroke_a	a	n/a
79.936	0.015	159872	keystroke_t	t	n/a
79.981	0.09	159962	keystroke_t	t	n/a
80.6415	0.045	161283	keystroke_l	l	n/a
81.1215	0.03	162243	keystroke_Key.space	Key.space	n/a
81.181	0.1205	162362	keystroke_e	e	n/a
81.466	0.03	162932	keystroke_Key.backspace	Key.backspace	n/a
81.571	0.075	163142	keystroke_Key.backspace	Key.backspace	n/a
81.647	0.104	163294	keystroke_e	e	n/a
81.736	0.105	163472	keystroke_Key.space	Key.space	n/a
81.916	0.09	163832	keystroke_l	l	n/a
82.081	0.15	164162	keystroke_i	i	n/a
82.246	0.165	164492	keystroke_o	o	n/a
82.291	0.165	164582	keystroke_n	n	n/a
82.486	0.075	164972	keystroke_Key.space	Key.space	n/a
82.966	0.135	165932	keystroke_k	k	n/a
83.041	0.09	166082	keystroke_n	n	n/a
83.206	0.075	166412	keystroke_i	i	n/a
83.326	0.06	166652	keystroke_t	t	n/a
83.446	0.105	166892	keystroke_t	t	n/a
83.506	0.1355	167012	keystroke_i	i	n/a
83.566	0.135	167132	keystroke_n	n	n/a
83.702	0.089	167404	keystroke_g	g	n/a
84.106	0.075	168212	keystroke_Key.enter	Key.enter	n/a
84.1855	7.6775	168371	prompt	n/a	honolulu partnership competition christianity\n
85.1415	0.0745	170283	keystroke_h	h	n/a
85.2905	0.135	170581	keystroke_o	o	n/a
85.4115	0.105	170823	keystroke_n	n	n/a
85.5465	0.105	171093	keystroke_o	o	n/a
85.831	0.0755	171662	keystroke_l	l	n/a
86.1015	0.06	172203	keystroke_u	u	n/a
86.251	0.12	172502	keystroke_l	l	n/a
86.446	0.09	172892	keystroke_u	u	n/a
86.626	0.0755	173252	keystroke_Key.space	Key.space	n/a
86.7465	0.06	173493	keystroke_p	p	n/a
86.8365	0.105	173673	keystroke_a	a	n/a
87.032	0.089	174064	keystroke_r	r	n/a
87.2115	0.12	174423	keystroke_t	t	n/a
87.3915	0.075	174783	keystroke_n	n	n/a
87.4815	0.105	174963	keystroke_e	e	n/a
87.5415	0.105	175083	keystroke_r	r	n/a
87.8565	0.12	175713	keystroke_s	s	n/a
87.9465	0.12	175893	keystroke_h	h	n/a
88.0515	0.105	176103	keystroke_i	i	n/a
88.2615	0.105	176523	keystroke_p	p	n/a
88.4265	0.075	176853	keystroke_Key.space	Key.space	n/a
88.6065	0.09	177213	keystroke_c	c	n/a
88.6965	0.135	177393	keystroke_o	o	n/a
88.8015	0.09	177603	keystroke_m	m	n/a
88.9965	0.075	177993	keystroke_p	p	n/a
89.0865	0.09	178173	keystroke_e	e	n/a
89.2815	0.1045	178563	keystroke_t	t	n/a
89.371	0.09	178742	keystroke_i	i	n/a
89.521	0.12	179042	keystroke_t	t	n/a
89.581	0.18	179162	keystroke_i	i	n/a
89.686	0.135	179372	keystroke_o	o	n/a
89.731	0.12	179462	keystroke_n	n	n/a
89.9715	0.105	179943	keystroke_Key.space	Key.space	n/a
90.107	0.1195	180214	keystroke_c	c	n/a
90.2715	0.075	180543	keystroke_h	h	n/a
90.3615	0.09	180723	keystroke_r	r	n/a
90.4665	0.09	180933	keystroke_i	i	n/a
90.5715	0.09	181143	keystroke_s	s	n/a
90.7365	0.165	181473	keystroke_t	t	n/a
90.8865	0.03	181773	keystroke_i	i	n/a
90.962	0.1045	181924	keystroke_a	a	n/a
91.0815	0.075	182163	keystroke_n	n	n/a
91.231	0.105	182462	keystroke_i	i	n/a
91.366	0.075	182732	keystroke_t	t	n/a
91.486	0.075	182972	keystroke_y	y	n/a
91.786	0.0755	183572	keystroke_Key.enter	Key.enter	n/a
91.8655	5.4425	183731	prompt	n/a	section rick earlier onion\n
92.656	0.09	185312	keystroke_s	s	n/a
92.806	0.075	185612	keystroke_e	e	n/a
93.016	0.075	186032	keystroke_c	c	n/a
93.226	0.075	186452	keystroke_t	t	n/a
93.331	0.105	186662	keystroke_i	i	n/a
93.391	0.165	186782	keystroke_o	o	n/a
93.481	0.12	186962	keystroke_n	n	n/a
93.616	0.075	187232	keystroke_Key.space	Key.space	n/a
93.706	0.0755	187412	keystroke_r	r	n/a
93.8565	0.09	187713	keystroke_i	i	n/a
93.9615	0.12	187923	keystroke_c	c	n/a
94.1115	0.12	188223	keystroke_k	k	n/a
94.2465	0.09	188493	keystroke_Key.space	Key.space	n/a
94.8165	0.06	189633	keystroke_e	e	n/a
94.9515	0.075	189903	keystroke_a	a	n/a
95.1165	0.0895	190233	keystroke_r	r	n/a
95.251	0.12	190502	keystroke_l	l	n/a
95.341	0.06	190682	keystroke_i	i	n/a
95.431	0.195	190862	keystroke_e	e	n/a
95.641	0.09	191282	keystroke_r	r	n/a
96.226	0.09	192452	keystroke_Key.space	Key.space	n/a
96.376	0.15	192752	keystroke_o	o	n/a
96.541	0.075	193082	keystroke_n	n	n/a
96.691	0.15	193382	keystroke_i	i	n/a
96.811	0.165	193622	keystroke_o	o	n/a
96.901	0.135	193802	keystroke_n	n	n/a
97.231	0.075	194462	keystroke_Key.enter	Key.enter	n/a
97.312	6.236	194624	prompt	n/a	estimates flexible ability hear\n
98.1015	0.105	196203	keystroke_s	s	n/a
98.4615	0.075	196923	keystroke_Key.backspace	Key.backspace	n/a
98.5215	0.075	197043	keystroke_e	e	n/a
98.6715	0.135	197343	keystroke_s	s	n/a
98.9115	0.105	197823	keystroke_t	t	n/a
98.9865	0.075	197973	keystroke_i	i	n/a
99.2115	0.06	198423	keystroke_m	m	n/a
99.2865	0.105	198573	keystroke_a	a	n/a
99.5265	0.105	199053	keystroke_t	t	n/a
99.6765	0.09	199353	keystroke_e	e	n/a
99.8565	0.12	199713	keystroke_s	s	n/a
99.9615	0.09	199923	keystroke_Key.space	Key.space	n/a
100.0965	0.105	200193	keystroke_f	f	n/a
100.2615	0.075	200523	keystroke_l	l	n/a
100.3515	0.105	200703	keystroke_e	e	n/a
100.636	0.12	201272	keystroke_x	x	n/a
100.831	0.06	201662	keystroke_i	i	n/a
101.011	0.09	202022	keystroke_b	b	n/a
101.1765	0.09	202353	keystroke_l	l	n/a
101.2365	0.09	202473	keystroke_e	e	n/a
101.3715	0.09	202743	keystroke_Key.space	Key.space	n/a
101.4765	0.12	202953	keystroke_a	a	n/a
101.6415	0.075	203283	keystroke_b	b	n/a
101.7765	0.09	203553	keystroke_i	i	n/a
101.971	0.12	203942	keystroke_l	l	n/a
102.121	0.075	204242	keystroke_i	i	n/a
102.226	0.135	204452	keystroke_t	t	n/a
102.391	0.09	204782	keystroke_y	y	n/a
102.466	0.09	204932	keystroke_Key.space	Key.space	n/a
102.646	0.09	205292	keystroke_h	h	n/a
102.751	0.03	205502	keystroke_e	e	n/a
103.0065	0.09	206013	keystroke_a	a	n/a
103.2165	0.1045	206433	keystroke_r	r	n/a
103.441	0.105	206882	keystroke_Key.enter	Key.enter	n/a
103.551	5.892	207102	prompt	n/a	mali quilt forest soldiers\n
104.296	0.105	208592	keystroke_m	m	n/a
104.416	0.09	208832	keystroke_a	a	n/a
104.551	0.105	209102	keystroke_l	l	n/a
104.791	0.12	209582	keystroke_i	i	n/a
104.896	0.105	209792	keystroke_Key.space	Key.space	n/a
105.166	0.135	210332	keystroke_q	q	n/a
105.286	0.165	210572	keystroke_u	u	n/a
105.391	0.12	210782	keystroke_i	i	n/a
105.661	0.075	211322	keystroke_l	l	n/a
105.766	0.135	211532	keystroke_t	t	n/a
106.081	0.09	212162	keystroke_Key.space	Key.space	n/a
106.426	0.09	212852	keystroke_f	f	n/a
106.531	0.09	213062	keystroke_o	o	n/a
106.636	0.06	213272	keystroke_r	r	n/a
106.786	0.06	213572	keystroke_e	e	n/a
107.146	0.105	214292	keystroke_s	s	n/a
107.326	0.12	214652	keystroke_t	t	n/a
107.476	0.105	214952	keystroke_Key.space	Key.space	n/a
107.671	0.09	215342	keystroke_s	s	n/a
107.926	0.12	215852	keystroke_o	o	n/a
108.196	0.075	216392	keystroke_l	l	n/a
108.496	0.075	216992	keystroke_d	d	n/a
108.646	0.075	217292	keystroke_i	i	n/a
108.751	0.1505	217502	keystroke_e	e	n/a
108.8415	0.105	217683	keystroke_r	r	n/a
109.1415	0.12	218283	keystroke_s	s	n/a
109.3665	0.075	218733	keystroke_Key.enter	Key.enter	n/a
109.4455	5.0375	218891	prompt	n/a	easily pumps late judges\n
110.0115	0.105	220023	keystroke_e	e	n/a
110.2065	0.075	220413	keystroke_a	a	n/a
110.3865	0.105	220773	keystroke_s	s	n/a
110.4765	0.06	220953	keystroke_i	i	n/a
110.6265	0.105	221253	keystroke_l	l	n/a
110.7465	0.135	221493	keystroke_y	y	n/a
110.8665	0.105	221733	keystroke_Key.space	Key.space	n/a
111.212	0.149	222424	keystroke_p	p	n/a
111.407	0.074	222814	keystroke_u	u	n/a
111.646	0.105	223292	keystroke_m	m	n/a
111.811	0.09	223622	keystroke_p	p	n/a
111.976	0.15	223952	keystroke_s	s	n/a
112.186	0.0905	224372	keystroke_Key.space	Key.space	n/a
112.5765	0.075	225153	keystroke_l	l	n/a
112.6815	0.09	225363	keystroke_a	a	n/a
112.9365	0.105	225873	keystroke_t	t	n/a
113.0715	0.12	226143	keystroke_e	e	n/a
113.2065	0.09	226413	keystroke_Key.space	Key.space	n/a
113.3715	0.09	226743	keystroke_j	j	n/a
113.5515	0.09	227103	keystroke_u	u	n/a
113.6565	0.09	227313	keystroke_d	d	n/a
113.8665	0.075	227733	keystroke_g	g	n/a
114.0015	0.105	228003	keystroke_e	e	n/a
114.2115	0.1495	228423	keystroke_s	s	n/a
114.376	0.105	228752	keystroke_Key.enter	Key.enter	n/a
114.4855	6.657	228971	prompt	n/a	labs indians intend zoloft\n
115.1565	0.1045	230313	keystroke_l	l	n/a
115.321	0.09	230642	keystroke_a	a	n/a
115.426	0.075	230852	keystroke_b	b	n/a
115.531	0.075	231062	keystroke_s	s	n/a
115.636	0.075	231272	keystroke_Key.space	Key.space	n/a
115.816	0.105	231632	keystroke_i	i	n/a
115.861	0.135	231722	keystroke_n	n	n/a
115.981	0.075	231962	keystroke_d	d	n/a
116.101	0.09	232202	keystroke_i	i	n/a
116.176	0.105	232352	keystroke_a	a	n/a
116.371	0.09	232742	keystroke_n	n	n/a
116.491	0.09	232982	keystroke_s	s	n/a
116.626	0.06	233252	keystroke_Key.space	Key.space	n/a
116.821	0.12	233642	keystroke_i	i	n/a
116.881	0.1355	233762	keystroke_n	n	n/a
117.1815	0.075	234363	keystroke_e	e	n/a
117.4965	0.06	234993	keystroke_Key.backspace	Key.backspace	n/a
117.5415	0.075	235083	keystroke_t	t	n/a
117.7515	0.09	235503	keystroke_e	e	n/a
117.8865	0.09	235773	keystroke_n	n	n/a
117.9915	0.105	235983	keystroke_d	d	n/a
118.1115	0.09	236223	keystroke_Key.space	Key.space	n/a
118.2765	0.15	236553	keystroke_s	s	n/a
118.381	0.0905	236762	keystroke_o	o	n/a
118.9215	0.06	237843	keystroke_Key.backspace	Key.backspace	n/a
119.0415	0.06	238083	keystroke_Key.backspace	Key.backspace	n/a
119.2665	0.105	238533	keystroke_z	z	n/a
119.4015	0.075	238803	keystroke_o	o	n/a
119.5665	0.075	239133	keystroke_l	l	n/a
119.7615	0.075	239523	keystroke_o	o	n/a
119.9565	0.105	239913	keystroke_f	f	n/a
120.2115	0.09	240423	keystroke_t	t	n/a
120.4815	0.09	240963	keystroke_Key.space	Key.space	n/a
121.0665	0.075	242133	keystroke_Key.enter	Key.enter	n/a
121.146	6.372	242292	prompt	n/a	usda framework estimate booth\n
122.1015	0.075	244203	keystroke_u	u	n/a
122.2065	0.09	244413	keystroke_s	s	n/a
122.5965	0.105	245193	keystroke_d	d	n/a
122.7615	0.12	245523	keystroke_a	a	n/a
122.8965	0.09	245793	keystroke_Key.space	Key.space	n/a
123.391	0.135	246782	keystroke_f	f	n/a
123.646	0.09	247292	keystroke_r	r	n/a
123.856	0.105	247712	keystroke_a	a	n/a
123.946	0.09	247892	keystroke_m	m	n/a
124.066	0.105	248132	keystroke_e	e	n/a
124.291	0.09	248582	keystroke_w	w	n/a
124.396	0.105	248792	keystroke_o	o	n/a
124.486	0.12	248972	keystroke_r	r	n/a
124.621	0.135	249242	keystroke_k	k	n/a
124.757	0.119	249514	keystroke_Key.space	Key.space	n/a
124.861	0.09	249722	keystroke_e	e	n/a
125.071	0.075	250142	keystroke_s	s	n/a
125.296	0.12	250592	keystroke_t	t	n/a
125.386	0.06	250772	keystroke_i	i	n/a
125.566	0.105	251132	keystroke_m	m	n/a
125.672	0.074	251344	keystroke_a	a	n/a
125.956	0.09	251912	keystroke_t	t	n/a
126.091	0.12	252182	keystroke_e	e	n/a
126.196	0.105	252392	keystroke_Key.space	Key.space	n/a
126.361	0.075	252722	keystroke_b	b	n/a
126.6615	0.075	253323	keystroke_o	o	n/a
126.7965	0.105	253593	keystroke_o	o	n/a
126.9165	0.12	253833	keystroke_t	t	n/a
127.0515	0.075	254103	keystroke_h	h	n/a
127.426	0.09	254852	keystroke_Key.enter	Key.enter	n/a
127.5215	8.966	255043	prompt	n/a	allocated theatre vessels modelling\n
128.236	0.09	256472	keystroke_a	a	n/a
128.341	0.06	256682	keystroke_l	l	n/a
128.491	0.045	256982	keystroke_l	l	n/a
128.671	0.075	257342	keystroke_o	o	n/a
128.821	0.09	257642	keystroke_c	c	n/a
129.226	0.1355	258452	keystroke_a	a	n/a
129.4815	0.105	258963	keystroke_t	t	n/a
129.6465	0.09	259293	keystroke_e	e	n/a
129.8565	0.135	259713	keystroke_d	d	n/a
130.0365	0.09	260073	keystroke_Key.space	Key.space	n/a
130.3215	0.12	260643	keystroke_t	t	n/a
130.4715	0.075	260943	keystroke_h	h	n/a
130.6065	0.075	261213	keystroke_e	e	n/a
130.7565	0.075	261513	keystroke_a	a	n/a
130.9365	0.075	261873	keystroke_t	t	n/a
131.0865	0.105	262173	keystroke_e	e	n/a
131.1615	0.09	262323	keystroke_r	r	n/a
131.461	0.105	262922	keystroke_Key.space	Key.space	n/a
132.241	0.045	264482	keystroke_Key.backspace	Key.backspace	n/a
132.361	0.045	264722	keystroke_Key.backspace	Key.backspace	n/a
132.481	0.09	264962	keystroke_Key.backspace	Key.backspace	n/a
132.646	0.105	265292	keystroke_r	r	n/a
132.856	0.06	265712	keystroke_e	e	n/a
132.961	0.12	265922	keystroke_Key.space	Key.space	n/a
133.351	0.075	266702	keystroke_v	v	n/a
133.516	0.105	267032	keystroke_e	e	n/a
133.771	0.06	267542	keystroke_s	s	n/a
133.891	0.105	267782	keystroke_s	s	n/a
134.026	0.12	268052	keystroke_e	e	n/a
134.191	0.09	268382	keystroke_l	l	n/a
134.416	0.135	268832	keystroke_s	s	n/a
134.776	0.09	269552	keystroke_Key.space	Key.space	n/a
134.956	0.09	269912	keystroke_m	m	n/a
135.166	0.0905	270332	keystroke_o	o	n/a
135.2415	0.09	270483	keystroke_d	d	n/a
135.4365	0.09	270873	keystroke_e	e	n/a
135.5115	0.03	271023	keystroke_l	l	n/a
135.6315	0.075	271263	keystroke_l	l	n/a
135.8115	0.135	271623	keystroke_i	i	n/a
135.8865	0.12	271773	keystroke_n	n	n/a
135.9915	0.1345	271983	keystroke_g	g	n/a
136.396	0.09	272792	keystroke_Key.enter	Key.enter	n/a
136.4915	7.6465	272983	prompt	n/a	exempt ears imposed england\n
137.162	0.074	274324	keystroke_e	e	n/a
137.356	0.09	274712	keystroke_x	x	n/a
137.611	0.135	275222	keystroke_e	e	n/a
137.761	0.09	275522	keystroke_p	p	n/a
138.271	0.0905	276542	keystroke_m	m	n/a
138.766	0.06	277532	keystroke_Key.backspace	Key.backspace	n/a
138.886	0.075	277772	keystroke_Key.backspace	Key.backspace	n/a
139.066	0.09	278132	keystroke_m	m	n/a
139.216	0.09	278432	keystroke_p	p	n/a
139.321	0.105	278642	keystroke_t	t	n/a
139.456	0.09	278912	keystroke_Key.space	Key.space	n/a
139.726	0.075	279452	keystroke_e	e	n/a
139.876	0.105	279752	keystroke_a	a	n/a
140.101	0.075	280202	keystroke_r	r	n/a
140.3565	0.12	280713	keystroke_s	s	n/a
140.4615	0.12	280923	keystroke_Key.space	Key.space	n/a
140.6115	0.135	281223	keystroke_i	i	n/a
140.7015	0.105	281403	keystroke_m	m	n/a
140.9265	0.12	281853	keystroke_p	p	n/a
141.0315	0.105	282063	keystroke_o	o	n/a
141.1515	0.1045	282303	keystroke_s	s	n/a
141.346	0.09	282692	keystroke_t	t	n/a
141.5115	0.075	283023	keystroke_e	e	n/a
141.9615	0.0445	283923	keystroke_Key.backspace	Key.backspace	n/a
142.0965	0.0595	284193	keystroke_Key.backspace	Key.backspace	n/a
142.126	0.075	284252	keystroke_e	e	n/a
142.291	0.105	284582	keystroke_d	d	n/a
142.366	0.09	284732	keystroke_Key.space	Key.space	n/a
142.621	0.075	285242	keystroke_e	e	n/a
142.801	0.0745	285602	keystroke_n	n	n/a
142.9365	0.09	285873	keystroke_g	g	n/a
143.0555	0.076	286111	keystroke_l	l	n/a
143.1615	0.09	286323	keystroke_a	a	n/a
143.596	0.06	287192	keystroke_n	n	n/a
143.716	0.105	287432	keystroke_d	d	n/a
144.031	0.105	288062	keystroke_Key.enter	Key.enter	n/a
144.14	6.343	288280	prompt	n/a	ieee inquiry bound forestry\n
145.0515	0.06	290103	keystroke_i	i	n/a
145.2015	0.09	290403	keystroke_e	e	n/a
145.4565	0.075	290913	keystroke_e	e	n/a
145.6515	0.105	291303	keystroke_e	e	n/a
145.9515	0.105	291903	keystroke_Key.space	Key.space	n/a
146.0865	0.12	292173	keystroke_i	i	n/a
146.1615	0.09	292323	keystroke_n	n	n/a
146.4615	0.12	292923	keystroke_q	q	n/a
146.5965	0.135	293193	keystroke_u	u	n/a
146.7165	0.165	293433	keystroke_i	i	n/a
146.9265	0.105	293853	keystroke_r	r	n/a
147.2415	0.12	294483	keystroke_y	y	n/a
147.3915	0.09	294783	keystroke_Key.space	Key.space	n/a
147.7215	0.105	295443	keystroke_b	b	n/a
147.8715	0.135	295743	keystroke_o	o	n/a
147.9915	0.045	295983	keystroke_u	u	n/a
148.2165	0.075	296433	keystroke_n	n	n/a
148.3365	0.12	296673	keystroke_d	d	n/a
148.4715	0.075	296943	keystroke_Key.space	Key.space	n/a
148.891	0.105	297782	keystroke_f	f	n/a
148.981	0.105	297962	keystroke_o	o	n/a
149.101	0.075	298202	keystroke_r	r	n/a
149.326	0.105	298652	keystroke_e	e	n/a
149.551	0.105	299102	keystroke_s	s	n/a
149.821	0.075	299642	keystroke_t	t	n/a
149.986	0.121	299972	keystroke_r	r	n/a
150.092	0.119	300184	keystroke_y	y	n/a
150.436	0.045	300872	keystroke_Key.enter	Key.enter	n/a
150.4875	4.5705	300975	prompt	n/a	sale keno moved para\n
151.096	0.09	302192	keystroke_s	s	n/a
151.276	0.105	302552	keystroke_a	a	n/a
151.411	0.075	302822	keystroke_l	l	n/a
151.487	0.089	302974	keystroke_e	e	n/a
151.606	0.105	303212	keystroke_Key.space	Key.space	n/a
151.816	0.06	303632	keystroke_j	j	n/a
151.906	0.06	303812	keystroke_e	e	n/a
152.176	0.075	304352	keystroke_Key.backspace	Key.backspace	n/a
152.296	0.075	304592	keystroke_Key.backspace	Key.backspace	n/a
152.5065	0.075	305013	keystroke_k	k	n/a
152.6265	0.105	305253	keystroke_e	e	n/a
152.8665	0.06	305733	keystroke_n	n	n/a
153.0315	0.075	306063	keystroke_o	o	n/a
153.3015	0.1045	306603	keystroke_Key.space	Key.space	n/a
153.451	0.105	306902	keystroke_m	m	n/a
153.571	0.09	307142	keystroke_o	o	n/a
153.706	0.181	307412	keystroke_v	v	n/a
153.872	0.12	307744	keystroke_e	e	n/a
154.097	0.105	308194	keystroke_d	d	n/a
154.187	0.089	308374	keystroke_Key.space	Key.space	n/a
154.397	0.09	308794	keystroke_p	p	n/a
154.472	0.0895	308944	keystroke_a	a	n/a
154.652	0.075	309304	keystroke_r	r	n/a
154.802	0.105	309604	keystroke_a	a	n/a
154.967	0.0895	309934	keystroke_Key.enter	Key.enter	n/a
155.0655	8.722	310131	prompt	n/a	operating medicines activity pressed\n
155.6715	0.09	311343	keystroke_o	o	n/a
156.091	0.09	312182	keystroke_p	p	n/a
156.211	0.105	312422	keystroke_a	a	n/a
156.886	0.06	313772	keystroke_Key.backspace	Key.backspace	n/a
156.961	0.105	313922	keystroke_r	r	n/a
157.321	0.075	314642	keystroke_Key.backspace	Key.backspace	n/a
157.336	0.165	314672	keystroke_e	e	n/a
157.456	0.12	314912	keystroke_r	r	n/a
157.756	0.091	315512	keystroke_a	a	n/a
157.967	0.105	315934	keystroke_t	t	n/a
158.057	0.119	316114	keystroke_i	i	n/a
158.131	0.106	316262	keystroke_n	n	n/a
158.222	0.104	316444	keystroke_g	g	n/a
158.311	0.105	316622	keystroke_Key.space	Key.space	n/a
158.476	0.075	316952	keystroke_m	m	n/a
158.566	0.09	317132	keystroke_e	e	n/a
158.776	0.09	317552	keystroke_d	d	n/a
158.881	0.06	317762	keystroke_i	i	n/a
159.062	0.12	318124	keystroke_c	c	n/a
159.166	0.1805	318332	keystroke_i	i	n/a
159.2715	0.12	318543	keystroke_n	n	n/a
159.7065	0.075	319413	keystroke_e	e	n/a
159.9315	0.135	319863	keystroke_s	s	n/a
160.1415	0.09	320283	keystroke_Key.space	Key.space	n/a
160.3815	0.09	320763	keystroke_a	a	n/a
160.5765	0.075	321153	keystroke_c	c	n/a
160.7865	0.075	321573	keystroke_t	t	n/a
160.8765	0.075	321753	keystroke_i	i	n/a
160.9965	0.105	321993	keystroke_v	v	n/a
161.1165	0.075	322233	keystroke_i	i	n/a
161.4015	0.1345	322803	keystroke_t	t	n/a
161.551	0.12	323102	keystroke_y	y	n/a
161.656	0.12	323312	keystroke_Key.space	Key.space	n/a
161.881	0.1055	323762	keystroke_p	p	n/a
161.9715	0.12	323943	keystroke_r	r	n/a
162.1365	0.165	324273	keystroke_e	e	n/a
162.4365	0.045	324873	keystroke_s	s	n/a
162.6765	0.06	325353	keystroke_d	d	n/a
163.2015	0.075	326403	keystroke_Key.backspace	Key.backspace	n/a
163.2615	0.165	326523	keystroke_s	s	n/a
163.4115	0.105	326823	keystroke_e	e	n/a
163.5765	0.12	327153	keystroke_d	d	n/a
163.7115	0.075	327423	keystroke_Key.enter	Key.enter	n/a
163.791	8.577	327582	prompt	n/a	patients grow messages jerusalem\n
164.4915	0.105	328983	keystroke_p	p	n/a
164.5965	0.15	329193	keystroke_a	a	n/a
164.9565	0.105	329913	keystroke_t	t	n/a
165.0465	0.09	330093	keystroke_i	i	n/a
165.1215	0.0895	330243	keystroke_o	o	n/a
165.391	0.075	330782	keystroke_e	e	n/a
165.646	0.06	331292	keystroke_Key.backspace	Key.backspace	n/a
165.766	0.09	331532	keystroke_Key.backspace	Key.backspace	n/a
165.886	0.105	331772	keystroke_e	e	n/a
166.051	0.105	332102	keystroke_n	n	n/a
166.306	0.09	332612	keystroke_t	t	n/a
166.696	0.105	333392	keystroke_s	s	n/a
166.846	0.12	333692	keystroke_Key.space	Key.space	n/a
167.011	0.105	334022	keystroke_g	g	n/a
167.206	0.12	334412	keystroke_r	r	n/a
167.356	0.075	334712	keystroke_o	o	n/a
167.432	0.104	334864	keystroke_w	w	n/a
167.761	0.09	335522	keystroke_Key.space	Key.space	n/a
168.5565	0.135	337113	keystroke_m	m	n/a
168.7215	0.12	337443	keystroke_e	e	n/a
168.9465	0.045	337893	keystroke_s	s	n/a
169.0815	0.06	338163	keystroke_s	s	n/a
169.2615	0.1345	338523	keystroke_a	a	n/a
169.456	0.09	338912	keystroke_g	g	n/a
169.561	0.105	339122	keystroke_e	e	n/a
169.816	0.15	339632	keystroke_s	s	n/a
170.2515	0.12	340503	keystroke_Key.space	Key.space	n/a
170.6865	0.105	341373	keystroke_j	j	n/a
170.7615	0.09	341523	keystroke_e	e	n/a
170.9265	0.12	341853	keystroke_r	r	n/a
171.0615	0.09	342123	keystroke_u	u	n/a
171.3015	0.06	342603	keystroke_s	s	n/a
171.4365	0.105	342873	keystroke_a	a	n/a
171.5265	0.09	343053	keystroke_l	l	n/a
171.6315	0.12	343263	keystroke_e	e	n/a
171.8415	0.105	343683	keystroke_m	m	n/a
172.2765	0.09	344553	keystroke_Key.enter	Key.enter	n/a
172.37	7.4525	344740	prompt	n/a	caps avatar friends gateway\n
173.2665	0.105	346533	keystroke_c	c	n/a
173.3865	0.12	346773	keystroke_a	a	n/a
173.5065	0.09	347013	keystroke_p	p	n/a
174.3015	0.09	348603	keystroke_s	s	n/a
174.4215	0.105	348843	keystroke_Key.space	Key.space	n/a
174.6015	0.075	349203	keystroke_a	a	n/a
174.7815	0.12	349563	keystroke_v	v	n/a
175.1565	0.105	350313	keystroke_a	a	n/a
175.4115	0.09	350823	keystroke_t	t	n/a
175.6215	0.1495	351243	keystroke_a	a	n/a
175.876	0.105	351752	keystroke_r	r	n/a
176.086	0.09	352172	keystroke_Key.space	Key.space	n/a
176.371	0.06	352742	keystroke_f	f	n/a
176.521	0.09	353042	keystroke_r	r	n/a
176.626	0.075	353252	keystroke_i	i	n/a
176.716	0.09	353432	keystroke_e	e	n/a
176.851	0.1055	353702	keystroke_n	n	n/a
176.9415	0.09	353883	keystroke_d	d	n/a
177.1365	0.12	354273	keystroke_s	s	n/a
177.3155	0.09	354631	keystroke_Key.space	Key.space	n/a
177.4515	0.09	354903	keystroke_f	f	n/a
177.9465	0.0745	355893	keystroke_Key.backspace	Key.backspace	n/a
177.9615	0.105	355923	keystroke_g	g	n/a
178.1255	0.196	356251	keystroke_a	a	n/a
178.3665	0.014	356733	keystroke_m	m	n/a
178.666	0.075	357332	keystroke_Key.backspace	Key.backspace	n/a
178.726	0.09	357452	keystroke_t	t	n/a
178.861	0.105	357722	keystroke_e	e	n/a
179.131	0.075	358262	keystroke_w	w	n/a
179.281	0.135	358562	keystroke_a	a	n/a
179.431	0.09	358862	keystroke_y	y	n/a
179.731	0.09	359462	keystroke_Key.enter	Key.enter	n/a
179.8255	7.2125	359651	prompt	n/a	productions ballot nutten qualified\n
180.481	0.105	360962	keystroke_p	p	n/a
180.556	0.105	361112	keystroke_r	r	n/a
180.8865	0.015	361773	keystroke_o	o	n/a
180.9165	0.135	361833	keystroke_d	d	n/a
181.2315	0.075	362463	keystroke_u	u	n/a
181.4415	0.105	362883	keystroke_c	c	n/a
181.7115	0.105	363423	keystroke_t	t	n/a
182.0415	0.15	364083	keystroke_i	i	n/a
182.1615	0.135	364323	keystroke_o	o	n/a
182.2665	0.105	364533	keystroke_n	n	n/a
182.4015	0.135	364803	keystroke_s	s	n/a
182.5365	0.105	365073	keystroke_Key.space	Key.space	n/a
182.6715	0.075	365343	keystroke_b	b	n/a
182.7615	0.135	365523	keystroke_a	a	n/a
183.0465	0.09	366093	keystroke_l	l	n/a
183.2115	0.075	366423	keystroke_l	l	n/a
183.3765	0.0895	366753	keystroke_o	o	n/a
183.481	0.12	366962	keystroke_t	t	n/a
183.616	0.09	367232	keystroke_Key.space	Key.space	n/a
183.946	0.105	367892	keystroke_n	n	n/a
184.081	0.075	368162	keystroke_u	u	n/a
184.171	0.075	368342	keystroke_t	t	n/a
184.306	0.09	368612	keystroke_t	t	n/a
184.486	0.09	368972	keystroke_e	e	n/a
184.591	0.105	369182	keystroke_n	n	n/a
184.711	0.075	369422	keystroke_Key.space	Key.space	n/a
184.966	0.12	369932	keystroke_q	q	n/a
185.071	0.075	370142	keystroke_u	u	n/a
185.2515	0.15	370503	keystroke_a	a	n/a
185.4465	0.075	370893	keystroke_l	l	n/a
185.6265	0.075	371253	keystroke_i	i	n/a
186.1365	0.105	372273	keystroke_f	f	n/a
186.2865	0.06	372573	keystroke_i	i	n/a
186.4515	0.105	372903	keystroke_e	e	n/a
186.661	0.105	373322	keystroke_d	d	n/a
186.976	0.06	373952	keystroke_Key.enter	Key.enter	n/a
187.0415	6.926	374083	prompt	n/a	announcement craps predict pavilion\n
187.7415	0.105	375483	keystroke_a	a	n/a
187.8915	0.03	375783	keystroke_n	n	n/a
188.0115	0.075	376023	keystroke_n	n	n/a
188.2515	0.09	376503	keystroke_o	o	n/a
188.2965	0.06	376593	keystroke_u	u	n/a
188.5065	0.075	377013	keystroke_n	n	n/a
188.6115	0.135	377223	keystroke_c	c	n/a
188.7615	0.09	377523	keystroke_e	e	n/a
189.0315	0.045	378063	keystroke_m	m	n/a
189.1515	0.1195	378303	keystroke_e	e	n/a
189.286	0.06	378572	keystroke_n	n	n/a
189.391	0.105	378782	keystroke_t	t	n/a
189.541	0.09	379082	keystroke_Key.space	Key.space	n/a
189.676	0.075	379352	keystroke_c	c	n/a
189.856	0.06	379712	keystroke_r	r	n/a
190.021	0.105	380042	keystroke_a	a	n/a
190.111	0.09	380222	keystroke_p	p	n/a
190.231	0.105	380462	keystroke_s	s	n/a
190.321	0.075	380642	keystroke_Key.space	Key.space	n/a
190.471	0.1055	380942	keystroke_p	p	n/a
190.591	0.09	381182	keystroke_r	r	n/a
190.786	0.09	381572	keystroke_e	e	n/a
191.056	0.105	382112	keystroke_d	d	n/a
191.2065	0.075	382413	keystroke_i	i	n/a
191.326	0.075	382652	keystroke_c	c	n/a
191.566	0.09	383132	keystroke_t	t	n/a
191.686	0.12	383372	keystroke_Key.space	Key.space	n/a
191.851	0.09	383702	keystroke_p	p	n/a
191.957	0.089	383914	keystroke_a	a	n/a
192.361	0.135	384722	keystroke_v	v	n/a
192.496	0.06	384992	keystroke_i	i	n/a
193.066	0.09	386132	keystroke_l	l	n/a
193.216	0.075	386432	keystroke_i	i	n/a
193.411	0.06	386822	keystroke_o	o	n/a
193.6065	0.12	387213	keystroke_n	n	n/a
193.8915	0.0745	387783	keystroke_Key.enter	Key.enter	n/a
193.972	7.3305	387944	prompt	n/a	continuing gimme accompanying eliminate\n
194.6265	0.119	389253	keystroke_c	c	n/a
194.7315	0.075	389463	keystroke_o	o	n/a
194.8805	0.09	389761	keystroke_n	n	n/a
195.0315	0.104	390063	keystroke_t	t	n/a
195.181	0.1045	390362	keystroke_i	i	n/a
195.301	0.0895	390602	keystroke_n	n	n/a
195.4805	0.09	390961	keystroke_u	u	n/a
195.7205	0.09	391441	keystroke_i	i	n/a
195.8405	0.105	391681	keystroke_n	n	n/a
195.9605	0.136	391921	keystroke_g	g	n/a
196.1255	0.09	392251	keystroke_Key.space	Key.space	n/a
196.2455	0.135	392491	keystroke_g	g	n/a
196.4105	0.045	392821	keystroke_i	i	n/a
196.606	0.075	393212	keystroke_m	m	n/a
196.756	0.075	393512	keystroke_m	m	n/a
196.8465	0.045	393693	keystroke_e	e	n/a
196.9065	0.0895	393813	keystroke_Key.space	Key.space	n/a
197.026	0.09	394052	keystroke_a	a	n/a
197.2065	0.06	394413	keystroke_c	c	n/a
197.3565	0.0595	394713	keystroke_c	c	n/a
197.476	0.06	394952	keystroke_o	o	n/a
197.626	0.09	395252	keystroke_m	m	n/a
197.821	0.075	395642	keystroke_p	p	n/a
197.926	0.12	395852	keystroke_a	a	n/a
198.136	0.105	396272	keystroke_n	n	n/a
198.406	0.0605	396812	keystroke_y	y	n/a
198.6455	0.091	397291	keystroke_i	i	n/a
198.6905	0.121	397381	keystroke_n	n	n/a
199.081	0.15	398162	keystroke_g	g	n/a
199.291	0.06	398582	keystroke_Key.space	Key.space	n/a
199.366	0.105	398732	keystroke_e	e	n/a
199.486	0.075	398972	keystroke_l	l	n/a
199.771	0.075	399542	keystroke_i	i	n/a
199.921	0.105	399842	keystroke_m	m	n/a
200.101	0.0895	400202	keystroke_i	i	n/a
200.1755	0.105	400351	keystroke_n	n	n/a
200.4605	0.09	400921	keystroke_a	a	n/a
200.6865	0.104	401373	keystroke_t	t	n/a
200.8205	0.105	401641	keystroke_e	e	n/a
201.211	0.09	402422	keystroke_Key.enter	Key.enter	n/a
201.3075	5.17	402615	prompt	n/a	huntington enormous aruba magic\n
202.2005	0.105	404401	keystroke_h	h	n/a
202.4105	0.075	404821	keystroke_u	u	n/a
202.5305	0.136	405061	keystroke_n	n	n/a
202.7255	0.105	405451	keystroke_t	t	n/a
202.8765	0.06	405753	keystroke_i	i	n/a
203.0105	0.075	406021	keystroke_n	n	n/a
203.1165	0.089	406233	keystroke_g	g	n/a
203.6715	0.12	407343	keystroke_t	t	n/a
203.8215	0.135	407643	keystroke_o	o	n/a
203.9265	0.135	407853	keystroke_n	n	n/a
204.0915	0.09	408183	keystroke_Key.space	Key.space	n/a
204.196	0.075	408392	keystroke_e	e	n/a
204.316	0.06	408632	keystroke_n	n	n/a
204.706	0.075	409412	keystroke_o	o	n/a
204.901	0.12	409802	keystroke_r	r	n/a
205.3965	0.105	410793	keystroke_m	m	n/a
205.636	0.135	411272	keystroke_o	o	n/a
205.726	0.09	411452	keystroke_u	u	n/a
206.0865	0.074	412173	keystroke_s	s	n/a
206.4005	0.075	412801	keystroke_Key.enter	Key.enter	n/a
206.4815	8.126	412963	prompt	n/a	we'd colleges contributor latina\n
208.6385	0.102	417277	keystroke_w	w	n/a
208.6955	0.135	417391	keystroke_e	e	n/a
209.0855	0.076	418171	keystroke_'	'	n/a
209.1755	0.12	418351	keystroke_d	d	n/a
209.3105	0.09	418621	keystroke_Key.space	Key.space	n/a
209.701	0.165	419402	keystroke_c	c	n/a
209.821	0.06	419642	keystroke_o	o	n/a
210.001	0.045	420002	keystroke_l	l	n/a
210.151	0.075	420302	keystroke_l	l	n/a
210.181	0.075	420362	keystroke_e	e	n/a
210.346	0.135	420692	keystroke_g	g	n/a
210.511	0.12	421022	keystroke_e	e	n/a
210.826	0.12	421652	keystroke_s	s	n/a
211.306	0.135	422612	keystroke_Key.space	Key.space	n/a
211.636	0.105	423272	keystroke_c	c	n/a
211.756	0.135	423512	keystroke_o	o	n/a
211.831	0.12	423662	keystroke_n	n	n/a
211.996	0.075	423992	keystroke_t	t	n/a
212.176	0.105	424352	keystroke_r	r	n/a
212.311	0.09	424622	keystroke_i	i	n/a
212.701	0.075	425402	keystroke_b	b	n/a
212.836	0.09	425672	keystroke_u	u	n/a
212.956	0.12	425912	keystroke_t	t	n/a
213.211	0.1045	426422	keystroke_o	o	n/a
213.3455	0.09	426691	keystroke_r	r	n/a
213.466	0.09	426932	keystroke_Key.space	Key.space	n/a
213.661	0.1055	427322	keystroke_l	l	n/a
213.7515	0.09	427503	keystroke_a	a	n/a
213.9615	0.075	427923	keystroke_t	t	n/a
214.0365	0.15	428073	keystroke_i	i	n/a
214.1565	0.12	428313	keystroke_n	n	n/a
214.2915	0.12	428583	keystroke_a	a	n/a
214.5315	0.075	429063	keystroke_Key.enter	Key.enter	n/a
214.6105	5.367	429221	prompt	n/a	mystery endif told least\n
215.341	0.075	430682	keystroke_m	m	n/a
215.536	0.09	431072	keystroke_y	y	n/a
215.627	0.104	431254	keystroke_s	s	n/a
215.806	0.09	431612	keystroke_t	t	n/a
215.926	0.105	431852	keystroke_e	e	n/a
216.166	0.045	432332	keystroke_r	r	n/a
216.271	0.12	432542	keystroke_y	y	n/a
216.4955	0.06	432991	keystroke_Key.space	Key.space	n/a
216.5865	0.1195	433173	keystroke_e	e	n/a
216.721	0.09	433442	keystroke_n	n	n/a
217.051	0.09	434102	keystroke_d	d	n/a
217.216	0.09	434432	keystroke_i	i	n/a
217.381	0.09	434762	keystroke_g	g	n/a
217.9515	0.075	435903	keystroke_Key.backspace	Key.backspace	n/a
217.9965	0.1195	435993	keystroke_f	f	n/a
218.161	0.105	436322	keystroke_Key.space	Key.space	n/a
218.386	0.105	436772	keystroke_t	t	n/a
218.461	0.075	436922	keystroke_o	o	n/a
218.641	0.105	437282	keystroke_l	l	n/a
218.716	0.105	437432	keystroke_d	d	n/a
218.881	0.075	437762	keystroke_Key.space	Key.space	n/a
219.076	0.105	438152	keystroke_l	l	n/a
219.166	0.075	438332	keystroke_e	e	n/a
219.301	0.075	438602	keystroke_a	a	n/a
219.481	0.12	438962	keystroke_s	s	n/a
219.676	0.09	439352	keystroke_t	t	n/a
219.841	0.135	439682	keystroke_Key.enter	Key.enter	n/a
219.982	7.346	439964	prompt	n/a	weed rugby edwards warming\n
220.636	0.09	441272	keystroke_w	w	n/a
220.786	0.075	441572	keystroke_e	e	n/a
220.936	0.06	441872	keystroke_e	e	n/a
221.101	0.09	442202	keystroke_d	d	n/a
221.206	0.06	442412	keystroke_Key.space	Key.space	n/a
221.386	0.075	442772	keystroke_f	f	n/a
221.7455	0.075	443491	keystroke_Key.backspace	Key.backspace	n/a
221.7905	0.1205	443581	keystroke_r	r	n/a
222.091	0.09	444182	keystroke_u	u	n/a
222.706	0.075	445412	keystroke_g	g	n/a
222.841	0.09	445682	keystroke_b	b	n/a
222.991	0.09	445982	keystroke_y	y	n/a
223.231	0.0895	446462	keystroke_Key.space	Key.space	n/a
223.4705	0.0905	446941	keystroke_e	e	n/a
223.681	0.09	447362	keystroke_d	d	n/a
224.251	0.075	448502	keystroke_w	w	n/a
224.401	0.105	448802	keystroke_a	a	n/a
224.5805	0.076	449161	keystroke_r	r	n/a
224.7465	0.1045	449493	keystroke_d	d	n/a
224.896	0.1205	449792	keystroke_s	s	n/a
225.0615	0.12	450123	keystroke_Key.space	Key.space	n/a
225.1965	0.12	450393	keystroke_a	a	n/a
225.541	0.075	451082	keystroke_Key.backspace	Key.backspace	n/a
225.586	0.09	451172	keystroke_w	w	n/a
225.7515	0.12	451503	keystroke_a	a	n/a
225.9765	0.105	451953	keystroke_r	r	n/a
226.0965	0.075	452193	keystroke_m	m	n/a
226.5615	0.105	453123	keystroke_i	i	n/a
226.6515	0.105	453303	keystroke_n	n	n/a
226.8015	0.12	453603	keystroke_g	g	n/a
227.2215	0.105	454443	keystroke_Key.enter	Key.enter	n/a
227.3305	10.587	454661	prompt	n/a	fraud accountability marketing username\n
227.9265	0.1345	455853	keystroke_f	f	n/a
228.166	0.09	456332	keystroke_r	r	n/a
228.361	0.105	456722	keystroke_a	a	n/a
228.481	0.075	456962	keystroke_u	u	n/a
228.661	0.105	457322	keystroke_d	d	n/a
228.811	0.09	457622	keystroke_Key.space	Key.space	n/a
228.961	0.105	457922	keystroke_a	a	n/a
229.201	0.03	458402	keystroke_c	c	n/a
229.336	0.09	458672	keystroke_c	c	n/a
229.456	0.12	458912	keystroke_o	o	n/a
229.516	0.045	459032	keystroke_u	u	n/a
229.696	0.09	459392	keystroke_n	n	n/a
229.801	0.105	459602	keystroke_t	t	n/a
230.011	0.105	460022	keystroke_a	a	n/a
230.147	0.089	460294	keystroke_b	b	n/a
230.311	0.075	460622	keystroke_i	i	n/a
230.491	0.15	460982	keystroke_l	l	n/a
230.596	0.135	461192	keystroke_i	i	n/a
230.791	0.135	461582	keystroke_t	t	n/a
230.927	0.134	461854	keystroke_y	y	n/a
231.076	0.1055	462152	keystroke_Key.space	Key.space	n/a
231.826	0.12	463652	keystroke_m	m	n/a
231.931	0.06	463862	keystroke_Key.caps_lock	Key.caps_lock	n/a
232.186	0.045	464372	keystroke_a	a	n/a
232.201	0.15	464402	keystroke_r	r	n/a
232.711	0.045	465422	keystroke_Key.backspace	Key.backspace	n/a
232.831	0.09	465662	keystroke_Key.backspace	Key.backspace	n/a
232.996	0.135	465992	keystroke_Key.caps_lock	Key.caps_lock	n/a
233.371	0.045	466742	keystroke_a	a	n/a
234.061	0.075	468122	keystroke_r	r	n/a
234.271	0.12	468542	keystroke_k	k	n/a
234.406	0.09	468812	keystroke_e	e	n/a
234.541	0.105	469082	keystroke_t	t	n/a
234.661	0.165	469322	keystroke_i	i	n/a
234.781	0.135	469562	keystroke_n	n	n/a
234.901	0.12	469802	keystroke_g	g	n/a
235.2455	0.106	470491	keystroke_Key.space	Key.space	n/a
235.3955	0.105	470791	keystroke_u	u	n/a
235.5015	0.119	471003	keystroke_d	d	n/a
235.6805	0.136	471361	keystroke_e	e	n/a
235.7865	0.12	471573	keystroke_r	r	n/a
236.2205	0.03	472441	keystroke_Key.backspace	Key.backspace	n/a
236.3555	0.045	472711	keystroke_Key.backspace	Key.backspace	n/a
236.4755	0.09	472951	keystroke_Key.backspace	Key.backspace	n/a
236.5515	0.105	473103	keystroke_s	s	n/a
236.8065	0.09	473613	keystroke_e	e	n/a
236.8655	0.0905	473731	keystroke_r	r	n/a
237.016	0.075	474032	keystroke_n	n	n/a
237.2105	0.075	474421	keystroke_a	a	n/a
237.3455	0.09	474691	keystroke_m	m	n/a
237.4655	0.12	474931	keystroke_e	e	n/a
237.8105	0.105	475621	keystroke_Key.enter	Key.enter	n/a
237.92	7.2125	475840	prompt	n/a	necessity concentrations supplies march\n
238.546	0.12	477092	keystroke_n	n	n/a
238.621	0.09	477242	keystroke_e	e	n/a
238.861	0.12	477722	keystroke_c	c	n/a
239.401	0.06	478802	keystroke_e	e	n/a
239.581	0.045	479162	keystroke_s	s	n/a
239.701	0.105	479402	keystroke_s	s	n/a
239.821	0.09	479642	keystroke_i	i	n/a
239.986	0.135	479972	keystroke_t	t	n/a
240.196	0.105	480392	keystroke_y	y	n/a
240.331	0.105	480662	keystroke_Key.space	Key.space	n/a
240.466	0.165	480932	keystroke_c	c	n/a
240.601	0.12	481202	keystroke_o	o	n/a
240.676	0.09	481352	keystroke_n	n	n/a
240.766	0.165	481532	keystroke_c	c	n/a
240.961	0.15	481922	keystroke_e	e	n/a
241.111	0.03	482222	keystroke_n	n	n/a
241.186	0.09	482372	keystroke_t	t	n/a
241.381	0.06	482762	keystroke_r	r	n/a
241.546	0.105	483092	keystroke_a	a	n/a
241.756	0.075	483512	keystroke_t	t	n/a
241.816	0.165	483632	keystroke_i	i	n/a
241.906	0.135	483812	keystroke_o	o	n/a
241.951	0.165	483902	keystroke_n	n	n/a
242.101	0.105	484202	keystroke_s	s	n/a
242.236	0.12	484472	keystroke_Key.space	Key.space	n/a
242.476	0.105	484952	keystroke_s	s	n/a
242.656	0.09	485312	keystroke_u	u	n/a
242.821	0.06	485642	keystroke_p	p	n/a
242.956	0.075	485912	keystroke_p	p	n/a
243.181	0.105	486362	keystroke_l	l	n/a
243.391	0.105	486782	keystroke_i	i	n/a
243.511	0.09	487022	keystroke_e	e	n/a
243.691	0.105	487382	keystroke_s	s	n/a
243.826	0.1045	487652	keystroke_Key.space	Key.space	n/a
244.2155	0.12	488431	keystroke_m	m	n/a
244.3205	0.06	488641	keystroke_a	a	n/a
244.4705	0.09	488941	keystroke_r	r	n/a
244.6955	0.06	489391	keystroke_c	c	n/a
244.8005	0.06	489601	keystroke_h	h	n/a
245.0405	0.09	490081	keystroke_Key.enter	Key.enter	n/a
245.1355	8.1115	490271	prompt	n/a	friendship adaptor strengthening hygiene\n
245.7455	0.12	491491	keystroke_f	f	n/a
245.9105	0.1205	491821	keystroke_r	r	n/a
246.091	0.075	492182	keystroke_i	i	n/a
246.226	0.075	492452	keystroke_e	e	n/a
246.316	0.06	492632	keystroke_n	n	n/a
246.421	0.105	492842	keystroke_d	d	n/a
246.601	0.15	493202	keystroke_s	s	n/a
246.766	0.105	493532	keystroke_h	h	n/a
246.931	0.105	493862	keystroke_i	i	n/a
247.186	0.075	494372	keystroke_p	p	n/a
247.321	0.1055	494642	keystroke_Key.space	Key.space	n/a
247.456	0.075	494912	keystroke_a	a	n/a
247.621	0.105	495242	keystroke_d	d	n/a
247.786	0.135	495572	keystroke_a	a	n/a
248.056	0.09	496112	keystroke_p	p	n/a
248.296	0.09	496592	keystroke_t	t	n/a
248.506	0.105	497012	keystroke_o	o	n/a
248.611	0.1055	497222	keystroke_r	r	n/a
248.7465	0.075	497493	keystroke_Key.space	Key.space	n/a
248.926	0.105	497852	keystroke_s	s	n/a
249.136	0.09	498272	keystroke_t	t	n/a
249.316	0.075	498632	keystroke_r	r	n/a
249.481	0.105	498962	keystroke_e	e	n/a
249.646	0.105	499292	keystroke_n	n	n/a
249.961	0.12	499922	keystroke_g	g	n/a
250.381	0.09	500762	keystroke_t	t	n/a
250.531	0.09	501062	keystroke_h	h	n/a
250.711	0.12	501422	keystroke_e	e	n/a
250.936	0.075	501872	keystroke_n	n	n/a
251.086	0.1345	502172	keystroke_i	i	n/a
251.1765	0.134	502353	keystroke_n	n	n/a
251.3255	0.105	502651	keystroke_g	g	n/a
251.4455	0.075	502891	keystroke_Key.space	Key.space	n/a
251.6855	0.09	503371	keystroke_h	h	n/a
251.8955	0.09	503791	keystroke_y	y	n/a
252.4355	0.12	504871	keystroke_g	g	n/a
252.5715	0.074	505143	keystroke_i	i	n/a
252.7055	0.09	505411	keystroke_e	e	n/a
252.8115	0.089	505623	keystroke_n	n	n/a
252.9155	0.105	505831	keystroke_e	e	n/a
253.1705	0.075	506341	keystroke_Key.enter	Key.enter	n/a
253.25	5.6975	506500	prompt	n/a	determining miss access anybody\n
253.9355	0.075	507871	keystroke_d	d	n/a
254.1455	0.15	508291	keystroke_e	e	n/a
254.4605	0.06	508921	keystroke_t	t	n/a
254.5955	0.105	509191	keystroke_e	e	n/a
254.6705	0.105	509341	keystroke_r	r	n/a
254.7905	0.09	509581	keystroke_m	m	n/a
255.0155	0.105	510031	keystroke_i	i	n/a
255.1055	0.09	510211	keystroke_n	n	n/a
255.2555	0.105	510511	keystroke_i	i	n/a
255.3305	0.09	510661	keystroke_n	n	n/a
255.4355	0.105	510871	keystroke_g	g	n/a
255.6005	0.045	511201	keystroke_Key.space	Key.space	n/a
255.8555	0.105	511711	keystroke_m	m	n/a
256.0055	0.075	512011	keystroke_i	i	n/a
256.0955	0.075	512191	keystroke_s	s	n/a
256.2605	0.075	512521	keystroke_s	s	n/a
256.3955	0.09	512791	keystroke_Key.space	Key.space	n/a
256.5005	0.075	513001	keystroke_a	a	n/a
256.7705	0.045	513541	keystroke_c	c	n/a
256.9205	0.09	513841	keystroke_c	c	n/a
257.0705	0.09	514141	keystroke_e	e	n/a
257.2655	0.06	514531	keystroke_s	s	n/a
257.386	0.09	514772	keystroke_s	s	n/a
257.521	0.105	515042	keystroke_Key.space	Key.space	n/a
257.596	0.09	515192	keystroke_a	a	n/a
257.701	0.075	515402	keystroke_n	n	n/a
257.881	0.06	515762	keystroke_y	y	n/a
258.061	0.135	516122	keystroke_b	b	n/a
258.331	0.105	516662	keystroke_o	o	n/a
258.421	0.15	516842	keystroke_d	d	n/a
258.586	0.09	517172	keystroke_y	y	n/a
258.871	0.075	517742	keystroke_Key.enter	Key.enter	n/a
258.9505	6.5365	517901	prompt	n/a	supported till cloud obviously\n
259.516	0.105	519032	keystroke_s	s	n/a
259.696	0.09	519392	keystroke_u	u	n/a
259.861	0.045	519722	keystroke_p	p	n/a
260.011	0.135	520022	keystroke_p	p	n/a
260.116	0.105	520232	keystroke_o	o	n/a
260.221	0.105	520442	keystroke_r	r	n/a
260.281	0.15	520562	keystroke_t	t	n/a
260.551	0.09	521102	keystroke_e	e	n/a
260.746	0.09	521492	keystroke_d	d	n/a
260.821	0.105	521642	keystroke_Key.space	Key.space	n/a
261.046	0.105	522092	keystroke_t	t	n/a
261.121	0.06	522242	keystroke_i	i	n/a
261.301	0.045	522602	keystroke_l	l	n/a
261.451	0.09	522902	keystroke_l	l	n/a
261.511	0.105	523022	keystroke_Key.space	Key.space	n/a
261.631	0.135	523262	keystroke_c	c	n/a
261.856	0.105	523712	keystroke_l	l	n/a
262.111	0.12	524222	keystroke_o	o	n/a
262.201	0.075	524402	keystroke_u	u	n/a
262.321	0.075	524642	keystroke_d	d	n/a
262.411	0.105	524822	keystroke_Key.space	Key.space	n/a
262.546	0.135	525092	keystroke_o	o	n/a
262.8755	0.15	525751	keystroke_b	b	n/a
263.461	0.12	526922	keystroke_f	f	n/a
263.626	0.12	527252	keystroke_v	v	n/a
263.926	0.075	527852	keystroke_Key.backspace	Key.backspace	n/a
264.091	0.075	528182	keystroke_Key.backspace	Key.backspace	n/a
264.121	0.12	528242	keystroke_v	v	n/a
264.361	0.075	528722	keystroke_i	i	n/a
264.601	0.105	529202	keystroke_o	o	n/a
264.691	0.06	529382	keystroke_u	u	n/a
264.751	0.12	529502	keystroke_s	s	n/a
264.976	0.09	529952	keystroke_l	l	n/a
265.081	0.12	530162	keystroke_y	y	n/a
265.231	0.06	530462	keystroke_Key.space	Key.space	n/a
265.366	0.12	530732	keystroke_Key.enter	Key.enter	n/a
265.4915	6.686	530983	prompt	n/a	contributions types encoding claimed\n
266.0265	0.164	532053	keystroke_c	c	n/a
266.1465	0.135	532293	keystroke_o	o	n/a
266.2505	0.105	532501	keystroke_n	n	n/a
266.4315	0.105	532863	keystroke_t	t	n/a
266.7165	0.09	533433	keystroke_r	r	n/a
266.8665	0.0595	533733	keystroke_i	i	n/a
267.1665	0.09	534333	keystroke_b	b	n/a
267.3155	0.105	534631	keystroke_u	u	n/a
267.4815	0.104	534963	keystroke_t	t	n/a
267.6015	0.194	535203	keystroke_i	i	n/a
267.7215	0.195	535443	keystroke_o	o	n/a
267.7965	0.135	535593	keystroke_n	n	n/a
267.9455	0.136	535891	keystroke_s	s	n/a
268.0665	0.104	536133	keystroke_Key.space	Key.space	n/a
268.2015	0.1195	536403	keystroke_t	t	n/a
268.322	0.059	536644	keystroke_y	y	n/a
268.486	0.12	536972	keystroke_p	p	n/a
268.546	0.09	537092	keystroke_e	e	n/a
268.741	0.09	537482	keystroke_s	s	n/a
268.846	0.09	537692	keystroke_Key.space	Key.space	n/a
269.086	0.09	538172	keystroke_e	e	n/a
269.206	0.09	538412	keystroke_n	n	n/a
269.326	0.15	538652	keystroke_c	c	n/a
269.461	0.09	538922	keystroke_o	o	n/a
269.7155	0.075	539431	keystroke_d	d	n/a
269.8505	0.165	539701	keystroke_i	i	n/a
269.9855	0.12	539971	keystroke_n	n	n/a
270.0915	0.075	540183	keystroke_g	g	n/a
270.196	0.075	540392	keystroke_Key.space	Key.space	n/a
270.916	0.09	541832	keystroke_c	c	n/a
271.051	0.06	542102	keystroke_l	l	n/a
271.141	0.12	542282	keystroke_a	a	n/a
271.291	0.12	542582	keystroke_i	i	n/a
271.606	0.075	543212	keystroke_m	m	n/a
271.726	0.075	543452	keystroke_e	e	n/a
271.921	0.075	543842	keystroke_d	d	n/a
272.071	0.105	544142	keystroke_Key.enter	Key.enter	n/a
272.18	6.972	544360	prompt	n/a	partial focusing doors registration\n
272.9255	0.105	545851	keystroke_p	p	n/a
273.0005	0.12	546001	keystroke_a	a	n/a
273.1505	0.105	546301	keystroke_r	r	n/a
273.3605	0.09	546721	keystroke_t	t	n/a
273.4955	0.075	546991	keystroke_i	i	n/a
273.6455	0.09	547291	keystroke_a	a	n/a
273.8855	0.075	547771	keystroke_l	l	n/a
273.9905	0.09	547981	keystroke_Key.space	Key.space	n/a
274.2305	0.105	548461	keystroke_f	f	n/a
274.3505	0.075	548701	keystroke_o	o	n/a
274.7255	0.06	549451	keystroke_u	u	n/a
275.0855	0.06	550171	keystroke_Key.backspace	Key.backspace	n/a
275.1605	0.12	550321	keystroke_c	c	n/a
275.3255	0.09	550651	keystroke_u	u	n/a
275.4305	0.135	550861	keystroke_s	s	n/a
275.6405	0.15	551281	keystroke_i	i	n/a
275.7755	0.09	551551	keystroke_n	n	n/a
275.8665	0.104	551733	keystroke_g	g	n/a
275.9855	0.09	551971	keystroke_Key.space	Key.space	n/a
276.1805	0.06	552361	keystroke_d	d	n/a
276.2555	0.06	552511	keystroke_o	o	n/a
276.4055	0.1055	552811	keystroke_o	o	n/a
276.496	0.105	552992	keystroke_r	r	n/a
276.721	0.135	553442	keystroke_s	s	n/a
276.871	0.105	553742	keystroke_Key.space	Key.space	n/a
277.2005	0.09	554401	keystroke_r	r	n/a
277.3655	0.09	554731	keystroke_e	e	n/a
277.5905	0.06	555181	keystroke_g	g	n/a
277.7255	0.06	555451	keystroke_i	i	n/a
277.8005	0.09	555601	keystroke_s	s	n/a
277.9805	0.09	555961	keystroke_t	t	n/a
278.1455	0.075	556291	keystroke_r	r	n/a
278.3105	0.09	556621	keystroke_a	a	n/a
278.5205	0.09	557041	keystroke_t	t	n/a
278.6255	0.15	557251	keystroke_i	i	n/a
278.7005	0.12	557401	keystroke_o	o	n/a
278.7605	0.12	557521	keystroke_n	n	n/a
279.1205	0.03	558241	keystroke_Key.enter	Key.enter	n/a
279.156	6.4465	558312	prompt	n/a	ordinary passenger east governance\n
279.8555	0.105	559711	keystroke_o	o	n/a
279.9755	0.09	559951	keystroke_r	r	n/a
280.2455	0.12	560491	keystroke_d	d	n/a
280.3805	0.06	560761	keystroke_i	i	n/a
280.606	0.075	561212	keystroke_n	n	n/a
280.696	0.09	561392	keystroke_a	a	n/a
280.906	0.12	561812	keystroke_r	r	n/a
281.101	0.0895	562202	keystroke_y	y	n/a
281.2055	0.075	562411	keystroke_Key.space	Key.space	n/a
281.4155	0.09	562831	keystroke_p	p	n/a
281.4605	0.09	562921	keystroke_a	a	n/a
281.6705	0.045	563341	keystroke_s	s	n/a
281.7905	0.075	563581	keystroke_s	s	n/a
281.956	0.09	563912	keystroke_e	e	n/a
282.226	0.075	564452	keystroke_n	n	n/a
282.391	0.12	564782	keystroke_g	g	n/a
282.556	0.12	565112	keystroke_e	e	n/a
282.661	0.06	565322	keystroke_r	r	n/a
282.856	0.09	565712	keystroke_Key.space	Key.space	n/a
283.096	0.09	566192	keystroke_e	e	n/a
283.276	0.075	566552	keystroke_a	a	n/a
283.471	0.09	566942	keystroke_s	s	n/a
283.6955	0.09	567391	keystroke_t	t	n/a
283.8305	0.105	567661	keystroke_Key.space	Key.space	n/a
284.0705	0.06	568141	keystroke_g	g	n/a
284.1315	0.134	568263	keystroke_o	o	n/a
284.3705	0.091	568741	keystroke_v	v	n/a
284.5205	0.1355	569041	keystroke_e	e	n/a
284.5955	0.1205	569191	keystroke_r	r	n/a
284.731	0.09	569462	keystroke_n	n	n/a
284.851	0.105	569702	keystroke_a	a	n/a
284.956	0.075	569912	keystroke_n	n	n/a
285.166	0.1045	570332	keystroke_c	c	n/a
285.3305	0.105	570661	keystroke_e	e	n/a
285.5105	0.09	571021	keystroke_Key.enter	Key.enter	n/a
285.605	8.4575	571210	prompt	n/a	miami cage resources academic\n
286.201	0.105	572402	keystroke_m	m	n/a
286.5005	0.0605	573001	keystroke_i	i	n/a
286.591	0.09	573182	keystroke_a	a	n/a
286.831	0.075	573662	keystroke_m	m	n/a
287.056	0.06	574112	keystroke_i	i	n/a
287.251	0.06	574502	keystroke_Key.space	Key.space	n/a
287.521	0.12	575042	keystroke_c	c	n/a
287.821	0.105	575642	keystroke_g	g	n/a
288.046	0.09	576092	keystroke_a	a	n/a
288.511	0.075	577022	keystroke_Key.backspace	Key.backspace	n/a
288.556	0.075	577112	keystroke_a	a	n/a
288.661	0.0745	577322	keystroke_Key.backspace	Key.backspace	n/a
288.8105	0.075	577621	keystroke_Key.backspace	Key.backspace	n/a
289.1255	0.091	578251	keystroke_a	a	n/a
289.321	0.15	578642	keystroke_g	g	n/a
289.531	0.105	579062	keystroke_e	e	n/a
289.651	0.105	579302	keystroke_Key.space	Key.space	n/a
289.876	0.09	579752	keystroke_r	r	n/a
290.1455	0.106	580291	keystroke_e	e	n/a
290.371	0.09	580742	keystroke_s	s	n/a
290.491	0.21	580982	keystroke_o	o	n/a
290.686	0.09	581372	keystroke_u	u	n/a
290.851	0.03	581702	keystroke_r	r	n/a
291.2105	0.165	582421	keystroke_s	s	n/a
291.6005	0.09	583201	keystroke_Key.backspace	Key.backspace	n/a
291.6755	0.165	583351	keystroke_c	c	n/a
291.8255	0.075	583651	keystroke_e	e	n/a
292.0355	0.015	584071	keystroke_s	s	n/a
292.0805	0.06	584161	keystroke_Key.space	Key.space	n/a
292.5905	0.09	585181	keystroke_a	a	n/a
292.8455	0.105	585691	keystroke_c	c	n/a
293.0255	0.075	586051	keystroke_a	a	n/a
293.1755	0.09	586351	keystroke_d	d	n/a
293.3705	0.075	586741	keystroke_e	e	n/a
293.4605	0.105	586921	keystroke_m	m	n/a
293.6405	0.06	587281	keystroke_i	i	n/a
293.7155	0.105	587431	keystroke_c	c	n/a
293.9705	0.09	587941	keystroke_Key.enter	Key.enter	n/a
294.065	9.477	588130	prompt	n/a	coordinate signatures governor lecture\n
294.66	0.136	589320	keystroke_c	c	n/a
294.796	0.014	589592	keystroke_o	o	n/a
294.931	0.044	589862	keystroke_o	o	n/a
295.021	0.105	590042	keystroke_r	r	n/a
295.3205	0.105	590641	keystroke_d	d	n/a
295.4555	0.1055	590911	keystroke_i	i	n/a
295.651	0.105	591302	keystroke_n	n	n/a
295.756	0.105	591512	keystroke_a	a	n/a
296.371	0.105	592742	keystroke_5	5	n/a
296.671	0.105	593342	keystroke_3	3	n/a
297.016	0.06	594032	keystroke_Key.backspace	Key.backspace	n/a
297.166	0.075	594332	keystroke_Key.backspace	Key.backspace	n/a
297.5255	0.105	595051	keystroke_t	t	n/a
297.6905	0.135	595381	keystroke_e	e	n/a
297.8405	0.12	595681	keystroke_Key.space	Key.space	n/a
298.516	0.12	597032	keystroke_s	s	n/a
298.681	0.09	597362	keystroke_i	i	n/a
298.831	0.1045	597662	keystroke_g	g	n/a
298.995	0.0905	597990	keystroke_n	n	n/a
299.115	0.0765	598230	keystroke_a	a	n/a
299.3415	0.075	598683	keystroke_t	t	n/a
299.4305	0.121	598861	keystroke_u	u	n/a
299.5515	0.0595	599103	keystroke_r	r	n/a
299.731	0.075	599462	keystroke_e	e	n/a
299.956	0.135	599912	keystroke_s	s	n/a
300.151	0.075	600302	keystroke_Key.space	Key.space	n/a
300.5555	0.151	601111	keystroke_f	f	n/a
301.0965	0.0745	602193	keystroke_Key.backspace	Key.backspace	n/a
301.1555	0.1205	602311	keystroke_g	g	n/a
301.351	0.105	602702	keystroke_o	o	n/a
301.471	0.21	602942	keystroke_v	v	n/a
301.606	0.135	603212	keystroke_e	e	n/a
301.696	0.12	603392	keystroke_r	r	n/a
301.816	0.105	603632	keystroke_n	n	n/a
301.981	0.09	603962	keystroke_o	o	n/a
302.086	0.09	604172	keystroke_r	r	n/a
302.206	0.09	604412	keystroke_Key.space	Key.space	n/a
302.416	0.09	604832	keystroke_l	l	n/a
302.476	0.06	604952	keystroke_e	e	n/a
302.656	0.09	605312	keystroke_c	c	n/a
302.866	0.075	605732	keystroke_t	t	n/a
303.031	0.075	606062	keystroke_u	u	n/a
303.091	0.0895	606182	keystroke_r	r	n/a
303.2855	0.09	606571	keystroke_e	e	n/a
303.4655	0.075	606931	keystroke_Key.enter	Key.enter	n/a
303.5445	6.733	607089	prompt	n/a	spirits sight scoop brass\n
304.291	0.105	608582	keystroke_s	s	n/a
304.606	0.105	609212	keystroke_p	p	n/a
304.801	0.09	609602	keystroke_i	i	n/a
304.996	0.15	609992	keystroke_r	r	n/a
305.161	0.12	610322	keystroke_i	i	n/a
305.311	0.105	610622	keystroke_t	t	n/a
305.581	0.09	611162	keystroke_s	s	n/a
305.761	0.12	611522	keystroke_Key.space	Key.space	n/a
306.241	0.12	612482	keystroke_s	s	n/a
306.436	0.09	612872	keystroke_i	i	n/a
306.541	0.105	613082	keystroke_g	g	n/a
306.661	0.135	613322	keystroke_n	n	n/a
307.321	0.075	614642	keystroke_Key.backspace	Key.backspace	n/a
307.576	0.075	615152	keystroke_h	h	n/a
307.636	0.105	615272	keystroke_t	t	n/a
307.816	0.105	615632	keystroke_Key.space	Key.space	n/a
308.1005	0.091	616201	keystroke_s	s	n/a
308.3105	0.09	616621	keystroke_c	c	n/a
308.4155	0.045	616831	keystroke_o	o	n/a
308.5505	0.075	617101	keystroke_o	o	n/a
308.7455	0.105	617491	keystroke_p	p	n/a
308.8355	0.09	617671	keystroke_Key.space	Key.space	n/a
309.1205	0.105	618241	keystroke_b	b	n/a
309.2105	0.075	618421	keystroke_r	r	n/a
309.3905	0.075	618781	keystroke_a	a	n/a
309.7055	0.06	619411	keystroke_s	s	n/a
309.8405	0.09	619681	keystroke_s	s	n/a
310.1855	0.09	620371	keystroke_Key.enter	Key.enter	n/a
310.2795	7.243	620559	prompt	n/a	porcelain glow jungle powder\n
310.951	0.075	621902	keystroke_p	p	n/a
311.101	0.12	622202	keystroke_r	r	n/a
311.521	0.045	623042	keystroke_Key.backspace	Key.backspace	n/a
311.716	0.06	623432	keystroke_o	o	n/a
311.806	0.0745	623612	keystroke_r	r	n/a
312.0755	0.105	624151	keystroke_c	c	n/a
312.2705	0.09	624541	keystroke_e	e	n/a
312.3905	0.075	624781	keystroke_l	l	n/a
312.5405	0.09	625081	keystroke_a	a	n/a
312.6455	0.09	625291	keystroke_i	i	n/a
312.7365	0.059	625473	keystroke_n	n	n/a
313.1705	0.0905	626341	keystroke_Key.space	Key.space	n/a
313.456	0.105	626912	keystroke_g	g	n/a
313.846	0.06	627692	keystroke_l	l	n/a
314.026	0.045	628052	keystroke_o	o	n/a
314.116	0.105	628232	keystroke_w	w	n/a
314.221	0.075	628442	keystroke_Key.space	Key.space	n/a
314.7155	0.105	629431	keystroke_j	j	n/a
314.9105	0.06	629821	keystroke_u	u	n/a
315.271	0.075	630542	keystroke_n	n	n/a
315.406	0.135	630812	keystroke_g	g	n/a
315.556	0.06	631112	keystroke_l	l	n/a
315.676	0.135	631352	keystroke_e	e	n/a
315.856	0.09	631712	keystroke_Key.space	Key.space	n/a
316.2915	0.15	632583	keystroke_p	p	n/a
316.3965	0.12	632793	keystroke_o	o	n/a
316.5315	0.135	633063	keystroke_w	w	n/a
316.8015	0.09	633603	keystroke_d	d	n/a
317.0265	0.135	634053	keystroke_e	e	n/a
317.1165	0.105	634233	keystroke_r	r	n/a
317.416	0.105	634832	keystroke_Key.enter	Key.enter	n/a
317.525	7.2725	635050	prompt	n/a	specifications societies forward arrival\n
318.2115	0.105	636423	keystroke_s	s	n/a
318.3765	0.09	636753	keystroke_p	p	n/a
318.4515	0.09	636903	keystroke_e	e	n/a
318.7065	0.075	637413	keystroke_c	c	n/a
318.8265	0.09	637653	keystroke_i	i	n/a
319.0365	0.105	638073	keystroke_f	f	n/a
319.1565	0.075	638313	keystroke_i	i	n/a
319.3065	0.105	638613	keystroke_c	c	n/a
319.4865	0.09	638973	keystroke_a	a	n/a
319.7115	0.09	639423	keystroke_t	t	n/a
319.8165	0.134	639633	keystroke_i	i	n/a
319.9065	0.105	639813	keystroke_o	o	n/a
319.9365	0.1345	639873	keystroke_n	n	n/a
320.056	0.105	640112	keystroke_s	s	n/a
320.191	0.105	640382	keystroke_Key.space	Key.space	n/a
320.341	0.105	640682	keystroke_c	c	n/a
320.686	0.06	641372	keystroke_Key.backspace	Key.backspace	n/a
320.731	0.12	641462	keystroke_s	s	n/a
320.911	0.09	641822	keystroke_o	o	n/a
321.046	0.09	642092	keystroke_c	c	n/a
321.271	0.06	642542	keystroke_i	i	n/a
321.406	0.135	642812	keystroke_e	e	n/a
321.631	0.09	643262	keystroke_t	t	n/a
321.811	0.075	643622	keystroke_i	i	n/a
321.901	0.09	643802	keystroke_e	e	n/a
322.096	0.075	644192	keystroke_s	s	n/a
322.201	0.075	644402	keystroke_Key.space	Key.space	n/a
322.291	0.09	644582	keystroke_f	f	n/a
322.411	0.09	644822	keystroke_o	o	n/a
322.516	0.09	645032	keystroke_r	r	n/a
322.711	0.06	645422	keystroke_w	w	n/a
322.846	0.075	645692	keystroke_a	a	n/a
322.996	0.09	645992	keystroke_r	r	n/a
323.1755	0.09	646351	keystroke_d	d	n/a
323.2805	0.12	646561	keystroke_Key.space	Key.space	n/a
323.3705	0.09	646741	keystroke_a	a	n/a
323.5505	0.045	647101	keystroke_r	r	n/a
323.6705	0.06	647341	keystroke_r	r	n/a
323.7605	0.075	647521	keystroke_i	i	n/a
323.8655	0.075	647731	keystroke_v	v	n/a
324.0905	0.105	648181	keystroke_a	a	n/a
324.4205	0.0905	648841	keystroke_l	l	n/a
324.721	0.075	649442	keystroke_Key.enter	Key.enter	n/a
324.8	6.118	649600	prompt	n/a	judy course renewable andy\n
325.621	0.09	651242	keystroke_j	j	n/a
325.846	0.12	651692	keystroke_u	u	n/a
325.981	0.12	651962	keystroke_d	d	n/a
326.131	0.135	652262	keystroke_y	y	n/a
326.266	0.105	652532	keystroke_Key.space	Key.space	n/a
326.521	0.135	653042	keystroke_c	c	n/a
326.641	0.105	653282	keystroke_o	o	n/a
326.686	0.09	653372	keystroke_u	u	n/a
326.791	0.105	653582	keystroke_r	r	n/a
327.016	0.135	654032	keystroke_s	s	n/a
327.121	0.09	654242	keystroke_e	e	n/a
327.331	0.075	654662	keystroke_Key.space	Key.space	n/a
327.691	0.06	655382	keystroke_r	r	n/a
327.871	0.075	655742	keystroke_e	e	n/a
328.051	0.06	656102	keystroke_e	e	n/a
328.126	0.06	656252	keystroke_n	n	n/a
328.381	0.045	656762	keystroke_Key.backspace	Key.backspace	n/a
328.501	0.06	657002	keystroke_Key.backspace	Key.backspace	n/a
328.726	0.06	657452	keystroke_n	n	n/a
328.801	0.09	657602	keystroke_e	e	n/a
328.921	0.105	657842	keystroke_w	w	n/a
329.386	0.105	658772	keystroke_a	a	n/a
329.476	0.09	658952	keystroke_b	b	n/a
329.641	0.12	659282	keystroke_l	l	n/a
329.746	0.06	659492	keystroke_e	e	n/a
329.836	0.09	659672	keystroke_Key.space	Key.space	n/a
330.136	0.12	660272	keystroke_a	a	n/a
330.241	0.09	660482	keystroke_n	n	n/a
330.331	0.1645	660662	keystroke_d	d	n/a
330.5105	0.075	661021	keystroke_y	y	n/a
330.8105	0.105	661621	keystroke_Key.enter	Key.enter	n/a
330.9225	9.2655	661845	prompt	n/a	service nominations article observation\n
331.636	0.105	663272	keystroke_s	s	n/a
331.786	0.09	663572	keystroke_e	e	n/a
331.966	0.09	663932	keystroke_r	r	n/a
332.191	0.06	664382	keystroke_v	v	n/a
332.341	0.06	664682	keystroke_i	i	n/a
332.536	0.12	665072	keystroke_c	c	n/a
332.701	0.105	665402	keystroke_e	e	n/a
332.836	0.105	665672	keystroke_Key.space	Key.space	n/a
332.986	0.105	665972	keystroke_n	n	n/a
333.3005	0.03	666601	keystroke_m	m	n/a
333.4505	0.06	666901	keystroke_o	o	n/a
333.6915	0.045	667383	keystroke_Key.backspace	Key.backspace	n/a
333.8115	0.075	667623	keystroke_Key.backspace	Key.backspace	n/a
334.0365	0.12	668073	keystroke_o	o	n/a
334.1715	0.06	668343	keystroke_m	m	n/a
334.3365	0.105	668673	keystroke_i	i	n/a
334.4265	0.0745	668853	keystroke_n	n	n/a
334.7415	0.03	669483	keystroke_a	a	n/a
334.936	0.075	669872	keystroke_t	t	n/a
335.026	0.1505	670052	keystroke_i	i	n/a
335.1015	0.12	670203	keystroke_o	o	n/a
335.1615	0.09	670323	keystroke_n	n	n/a
335.2965	0.135	670593	keystroke_s	s	n/a
335.6715	0.089	671343	keystroke_Key.space	Key.space	n/a
335.8215	0.12	671643	keystroke_a	a	n/a
336.0015	0.09	672003	keystroke_r	r	n/a
336.2415	0.105	672483	keystroke_t	t	n/a
336.3915	0.059	672783	keystroke_i	i	n/a
336.6615	0.045	673323	keystroke_e	e	n/a
337.0205	0.06	674041	keystroke_Key.backspace	Key.backspace	n/a
337.0655	0.1205	674131	keystroke_c	c	n/a
337.261	0.09	674522	keystroke_l	l	n/a
337.366	0.105	674732	keystroke_e	e	n/a
337.561	0.09	675122	keystroke_Key.space	Key.space	n/a
338.041	0.09	676082	keystroke_o	o	n/a
338.251	0.075	676502	keystroke_b	b	n/a
338.476	0.15	676952	keystroke_s	s	n/a
338.656	0.09	677312	keystroke_e	e	n/a
338.821	0.09	677642	keystroke_r	r	n/a
339.031	0.075	678062	keystroke_v	v	n/a
339.271	0.1045	678542	keystroke_a	a	n/a
339.5265	0.059	679053	keystroke_t	t	n/a
339.6455	0.18	679291	keystroke_i	i	n/a
339.7355	0.136	679471	keystroke_o	o	n/a
339.7955	0.12	679591	keystroke_n	n	n/a
340.1105	0.076	680221	keystroke_Key.enter	Key.enter	n/a
340.1965	8.241	680393	prompt	n/a	conventional mauritius sept combo\n
340.7555	0.15	681511	keystroke_c	c	n/a
340.8905	0.091	681781	keystroke_o	o	n/a
340.9505	0.09	681901	keystroke_n	n	n/a
341.1305	0.12	682261	keystroke_v	v	n/a
341.2655	0.12	682531	keystroke_e	e	n/a
341.3705	0.06	682741	keystroke_n	n	n/a
341.4905	0.12	682981	keystroke_t	t	n/a
341.5815	0.149	683163	keystroke_i	i	n/a
341.6855	0.12	683371	keystroke_o	o	n/a
341.7155	0.12	683431	keystroke_n	n	n/a
341.8955	0.09	683791	keystroke_a	a	n/a
342.0155	0.105	684031	keystroke_l	l	n/a
342.1055	0.09	684211	keystroke_Key.space	Key.space	n/a
342.2705	0.105	684541	keystroke_m	m	n/a
342.3905	0.12	684781	keystroke_a	a	n/a
342.6305	0.06	685261	keystroke_u	u	n/a
342.8705	0.105	685741	keystroke_t	t	n/a
343.3955	0.06	686791	keystroke_Key.backspace	Key.backspace	n/a
343.4855	0.105	686971	keystroke_r	r	n/a
343.6655	0.09	687331	keystroke_i	i	n/a
343.9505	0.015	687901	keystroke_t	t	n/a
343.9805	0.075	687961	keystroke_i	i	n/a
344.5355	0.06	689071	keystroke_u	u	n/a
344.6705	0.09	689341	keystroke_s	s	n/a
344.8055	0.075	689611	keystroke_Key.space	Key.space	n/a
345.1205	0.09	690241	keystroke_a	a	n/a
345.4505	0.09	690901	keystroke_Key.backspace	Key.backspace	n/a
345.4805	0.165	690961	keystroke_s	s	n/a
345.6155	0.105	691231	keystroke_e	e	n/a
345.8855	0.0905	691771	keystroke_p	p	n/a
346.006	0.105	692012	keystroke_t	t	n/a
346.126	0.105	692252	keystroke_Key.space	Key.space	n/a
346.276	0.105	692552	keystroke_c	c	n/a
346.351	0.075	692702	keystroke_o	o	n/a
346.471	0.12	692942	keystroke_m	m	n/a
346.711	0.045	693422	keystroke_p	p	n/a
346.936	0.015	693872	keystroke_b	b	n/a
347.161	0.045	694322	keystroke_Key.backspace	Key.backspace	n/a
347.296	0.09	694592	keystroke_Key.backspace	Key.backspace	n/a
347.356	0.135	694712	keystroke_b	b	n/a
347.821	0.06	695642	keystroke_o	o	n/a
348.316	0.12	696632	keystroke_Key.enter	Key.enter	n/a
348.44	8.2325	696880	prompt	n/a	depend cult vatican essentially\n
349.681	0.0605	699362	keystroke_d	d	n/a
349.8465	0.075	699693	keystroke_e	e	n/a
349.9515	0.1045	699903	keystroke_p	p	n/a
350.026	0.09	700052	keystroke_e	e	n/a
350.1915	0.09	700383	keystroke_n	n	n/a
350.3115	0.105	700623	keystroke_d	d	n/a
350.491	0.075	700982	keystroke_Key.space	Key.space	n/a
350.596	0.135	701192	keystroke_c	c	n/a
350.731	0.075	701462	keystroke_u	u	n/a
350.926	0.105	701852	keystroke_l	l	n/a
351.046	0.12	702092	keystroke_t	t	n/a
351.2105	0.075	702421	keystroke_Key.space	Key.space	n/a
351.421	0.0745	702842	keystroke_c	c	n/a
351.7655	0.03	703531	keystroke_Key.backspace	Key.backspace	n/a
351.7805	0.075	703561	keystroke_v	v	n/a
352.0515	0.119	704103	keystroke_a	a	n/a
352.5005	0.075	705001	keystroke_t	t	n/a
352.6055	0.075	705211	keystroke_i	i	n/a
352.7255	0.06	705451	keystroke_c	c	n/a
352.8905	0.105	705781	keystroke_a	a	n/a
352.9805	0.105	705961	keystroke_n	n	n/a
353.1455	0.12	706291	keystroke_Key.space	Key.space	n/a
353.3705	0.105	706741	keystroke_a	a	n/a
353.7305	0.045	707461	keystroke_Key.backspace	Key.backspace	n/a
353.7905	0.06	707581	keystroke_e	e	n/a
354.0155	0.06	708031	keystroke_d	d	n/a
354.1505	0.075	708301	keystroke_d	d	n/a
354.436	0.045	708872	keystroke_Key.backspace	Key.backspace	n/a
354.556	0.075	709112	keystroke_Key.backspace	Key.backspace	n/a
354.646	0.06	709292	keystroke_s	s	n/a
354.781	0.09	709562	keystroke_s	s	n/a
354.961	0.075	709922	keystroke_e	e	n/a
355.066	0.06	710132	keystroke_n	n	n/a
355.216	0.06	710432	keystroke_t	t	n/a
355.306	0.105	710612	keystroke_i	i	n/a
355.621	0.105	711242	keystroke_a	a	n/a
355.711	0.075	711422	keystroke_l	l	n/a
355.906	0.075	711812	keystroke_l	l	n/a
356.281	0.12	712562	keystroke_y	y	n/a
356.581	0.0895	713162	keystroke_Key.enter	Key.enter	n/a
356.676	7.4815	713352	prompt	n/a	egyptian participation deeply worst\n
357.316	0.105	714632	keystroke_e	e	n/a
357.601	0.105	715202	keystroke_g	g	n/a
357.751	0.09	715502	keystroke_y	y	n/a
357.991	0.105	715982	keystroke_p	p	n/a
358.111	0.1055	716222	keystroke_t	t	n/a
358.2915	0.135	716583	keystroke_i	i	n/a
358.7265	0.12	717453	keystroke_a	a	n/a
358.8605	0.0455	717721	keystroke_n	n	n/a
358.981	0.06	717962	keystroke_Key.space	Key.space	n/a
359.4015	0.135	718803	keystroke_p	p	n/a
359.5365	0.149	719073	keystroke_a	a	n/a
359.9255	0.1205	719851	keystroke_r	r	n/a
360.286	0.12	720572	keystroke_t	t	n/a
360.391	0.09	720782	keystroke_i	i	n/a
360.721	0.12	721442	keystroke_c	c	n/a
360.856	0.075	721712	keystroke_i	i	n/a
361.1405	0.0755	722281	keystroke_p	p	n/a
361.216	0.105	722432	keystroke_a	a	n/a
361.456	0.09	722912	keystroke_t	t	n/a
361.531	0.165	723062	keystroke_i	i	n/a
361.636	0.105	723272	keystroke_o	o	n/a
361.666	0.135	723332	keystroke_n	n	n/a
361.771	0.12	723542	keystroke_Key.space	Key.space	n/a
361.846	0.12	723692	keystroke_d	d	n/a
362.056	0.06	724112	keystroke_e	e	n/a
362.176	0.09	724352	keystroke_e	e	n/a
362.281	0.105	724562	keystroke_p	p	n/a
362.476	0.12	724952	keystroke_y	y	n/a
362.641	0.12	725282	keystroke_Key.space	Key.space	n/a
362.821	0.15	725642	keystroke_w	w	n/a
362.926	0.12	725852	keystroke_o	o	n/a
363.031	0.09	726062	keystroke_r	r	n/a
363.2255	0.105	726451	keystroke_s	s	n/a
363.3005	0.091	726601	keystroke_e	e	n/a
363.8405	0.075	727681	keystroke_Key.backspace	Key.backspace	n/a
363.8705	0.09	727741	keystroke_t	t	n/a
364.0655	0.09	728131	keystroke_Key.enter	Key.enter	n/a
364.16	6.3125	728320	prompt	n/a	numbers centers reduces sugar\n
364.9505	0.09	729901	keystroke_n	n	n/a
365.0855	0.075	730171	keystroke_u	u	n/a
365.3105	0.06	730621	keystroke_m	m	n/a
365.4905	0.075	730981	keystroke_b	b	n/a
365.6405	0.09	731281	keystroke_e	e	n/a
365.7005	0.09	731401	keystroke_r	r	n/a
365.8955	0.09	731791	keystroke_s	s	n/a
366.0605	0.09	732121	keystroke_Key.space	Key.space	n/a
366.1655	0.105	732331	keystroke_s	s	n/a
366.481	0.075	732962	keystroke_Key.backspace	Key.backspace	n/a
366.511	0.15	733022	keystroke_c	c	n/a
366.691	0.09	733382	keystroke_e	e	n/a
366.811	0.09	733622	keystroke_n	n	n/a
366.946	0.075	733892	keystroke_t	t	n/a
367.141	0.1045	734282	keystroke_e	e	n/a
367.171	0.1205	734342	keystroke_r	r	n/a
367.6805	0.1205	735361	keystroke_s	s	n/a
367.816	0.09	735632	keystroke_Key.space	Key.space	n/a
368.176	0.09	736352	keystroke_r	r	n/a
368.356	0.06	736712	keystroke_e	e	n/a
368.536	0.045	737072	keystroke_d	d	n/a
368.611	0.075	737222	keystroke_u	u	n/a
368.731	0.105	737462	keystroke_c	c	n/a
368.896	0.09	737792	keystroke_e	e	n/a
369.106	0.0745	738212	keystroke_s	s	n/a
369.4205	0.105	738841	keystroke_Key.space	Key.space	n/a
369.5405	0.105	739081	keystroke_s	s	n/a
369.6915	0.089	739383	keystroke_u	u	n/a
369.7955	0.075	739591	keystroke_g	g	n/a
369.9755	0.12	739951	keystroke_a	a	n/a
370.1855	0.105	740371	keystroke_r	r	n/a
370.3655	0.105	740731	keystroke_Key.enter	Key.enter	n/a
370.4745	4.3625	740949	prompt	n/a	i'll boat token mounted\n
371.2215	0.089	742443	keystroke_i	i	n/a
371.4765	0.089	742953	keystroke_'	'	n/a
371.6715	0.059	743343	keystroke_l	l	n/a
371.8065	0.09	743613	keystroke_l	l	n/a
371.9105	0.075	743821	keystroke_Key.space	Key.space	n/a
372.1515	0.09	744303	keystroke_b	b	n/a
372.3755	0.091	744751	keystroke_o	o	n/a
372.5105	0.106	745021	keystroke_a	a	n/a
372.7505	0.091	745501	keystroke_t	t	n/a
372.8255	0.09	745651	keystroke_Key.space	Key.space	n/a
372.9165	0.105	745833	keystroke_t	t	n/a
372.9765	0.105	745953	keystroke_o	o	n/a
373.1565	0.105	746313	keystroke_k	k	n/a
373.2905	0.09	746581	keystroke_e	e	n/a
373.4415	0.0895	746883	keystroke_n	n	n/a
373.546	0.105	747092	keystroke_Key.space	Key.space	n/a
373.726	0.09	747452	keystroke_m	m	n/a
373.876	0.135	747752	keystroke_o	o	n/a
373.966	0.06	747932	keystroke_u	u	n/a
374.161	0.075	748322	keystroke_n	n	n/a
374.236	0.105	748472	keystroke_t	t	n/a
374.416	0.09	748832	keystroke_e	e	n/a
374.641	0.09	749282	keystroke_d	d	n/a
374.761	0.075	749522	keystroke_Key.enter	Key.enter	n/a
374.841	6.896	749682	prompt	n/a	duty shower inspiration seemed\n
375.3905	0.12	750781	keystroke_d	d	n/a
375.5555	0.105	751111	keystroke_u	u	n/a
375.7955	0.106	751591	keystroke_t	t	n/a
375.9305	0.09	751861	keystroke_y	y	n/a
376.0355	0.0755	752071	keystroke_Key.space	Key.space	n/a
376.921	0.105	753842	keystroke_s	s	n/a
377.041	0.06	754082	keystroke_h	h	n/a
377.086	0.165	754172	keystroke_o	o	n/a
377.206	0.1345	754412	keystroke_w	w	n/a
377.3555	0.09	754711	keystroke_e	e	n/a
377.5955	0.075	755191	keystroke_r	r	n/a
377.7005	0.09	755401	keystroke_Key.space	Key.space	n/a
378.0605	0.0455	756121	keystroke_s	s	n/a
378.4955	0.045	756991	keystroke_Key.backspace	Key.backspace	n/a
378.7355	0.09	757471	keystroke_i	i	n/a
378.7955	0.075	757591	keystroke_n	n	n/a
378.9005	0.105	757801	keystroke_s	s	n/a
379.0355	0.075	758071	keystroke_p	p	n/a
379.201	0.075	758402	keystroke_i	i	n/a
379.351	0.09	758702	keystroke_r	r	n/a
379.5305	0.105	759061	keystroke_a	a	n/a
379.7555	0.09	759511	keystroke_t	t	n/a
379.8305	0.165	759661	keystroke_i	i	n/a
379.9055	0.165	759811	keystroke_o	o	n/a
379.9805	0.12	759961	keystroke_n	n	n/a
380.2955	0.105	760591	keystroke_Key.space	Key.space	n/a
380.4155	0.135	760831	keystroke_s	s	n/a
380.5205	0.09	761041	keystroke_e	e	n/a
380.7005	0.075	761401	keystroke_e	e	n/a
380.8205	0.075	761641	keystroke_m	m	n/a
380.9255	0.075	761851	keystroke_e	e	n/a
381.1805	0.075	762361	keystroke_d	d	n/a
381.631	0.105	763262	keystroke_Key.enter	Key.enter	n/a
381.7395	6.898	763479	prompt	n/a	november draw travis scholar\n
382.441	0.06	764882	keystroke_n	n	n/a
382.576	0.09	765152	keystroke_o	o	n/a
382.681	0.15	765362	keystroke_v	v	n/a
382.846	0.1195	765692	keystroke_e	e	n/a
382.9505	0.09	765901	keystroke_m	m	n/a
383.1755	0.075	766351	keystroke_b	b	n/a
383.2655	0.105	766531	keystroke_e	e	n/a
383.3555	0.105	766711	keystroke_r	r	n/a
383.4905	0.09	766981	keystroke_Key.space	Key.space	n/a
383.6855	0.03	767371	keystroke_s	s	n/a
384.1055	0.06	768211	keystroke_Key.backspace	Key.backspace	n/a
384.1955	0.09	768391	keystroke_d	d	n/a
384.421	0.075	768842	keystroke_r	r	n/a
384.616	0.15	769232	keystroke_a	a	n/a
384.736	0.12	769472	keystroke_w	w	n/a
384.886	0.105	769772	keystroke_Key.space	Key.space	n/a
385.141	0.015	770282	keystroke_t	t	n/a
385.2615	0.09	770523	keystroke_r	r	n/a
385.4565	0.089	770913	keystroke_a	a	n/a
385.6965	0.089	771393	keystroke_v	v	n/a
385.8605	0.06	771721	keystroke_i	i	n/a
386.1605	0.09	772321	keystroke_s	s	n/a
386.3115	0.089	772623	keystroke_Key.space	Key.space	n/a
386.5065	0.09	773013	keystroke_s	s	n/a
386.6105	0.09	773221	keystroke_h	h	n/a
386.7755	0.136	773551	keystroke_c	c	n/a
386.9265	0.09	773853	keystroke_o	o	n/a
387.766	0.06	775532	keystroke_l	l	n/a
387.976	0.12	775952	keystroke_a	a	n/a
388.186	0.105	776372	keystroke_r	r	n/a
388.576	0.06	777152	keystroke_Key.enter	Key.enter	n/a
388.6405	7.062	777281	prompt	n/a	quest fujitsu bulletin island\n
389.7905	0.135	779581	keystroke_q	q	n/a
389.9405	0.075	779881	keystroke_u	u	n/a
390.0005	0.105	780001	keystroke_e	e	n/a
390.1805	0.09	780361	keystroke_s	s	n/a
390.4055	0.075	780811	keystroke_t	t	n/a
390.5105	0.09	781021	keystroke_Key.space	Key.space	n/a
390.7805	0.105	781561	keystroke_f	f	n/a
390.9305	0.0905	781861	keystroke_u	u	n/a
391.306	0.075	782612	keystroke_j	j	n/a
391.546	0.075	783092	keystroke_i	i	n/a
391.996	0.105	783992	keystroke_t	t	n/a
392.491	0.12	784982	keystroke_s	s	n/a
392.866	0.06	785732	keystroke_u	u	n/a
393.1955	0.105	786391	keystroke_Key.space	Key.space	n/a
393.6305	0.0905	787261	keystroke_b	b	n/a
393.766	0.09	787532	keystroke_u	u	n/a
393.991	0.045	787982	keystroke_l	l	n/a
394.096	0.12	788192	keystroke_l	l	n/a
394.171	0.105	788342	keystroke_e	e	n/a
394.396	0.105	788792	keystroke_t	t	n/a
394.486	0.12	788972	keystroke_i	i	n/a
394.591	0.105	789182	keystroke_n	n	n/a
394.711	0.09	789422	keystroke_Key.space	Key.space	n/a
394.861	0.09	789722	keystroke_i	i	n/a
394.936	0.09	789872	keystroke_s	s	n/a
395.101	0.06	790202	keystroke_l	l	n/a
395.146	0.0745	790292	keystroke_a	a	n/a
395.2505	0.09	790501	keystroke_n	n	n/a
395.3255	0.09	790651	keystroke_d	d	n/a
395.6105	0.09	791221	keystroke_Key.enter	Key.enter	n/a
395.706	10.646	791412	prompt	n/a	nodes warning introducing innovative\n
396.421	0.105	792842	keystroke_n	n	n/a
396.586	0.105	793172	keystroke_o	o	n/a
396.706	0.075	793412	keystroke_d	d	n/a
396.886	0.075	793772	keystroke_e	e	n/a
397.126	0.09	794252	keystroke_s	s	n/a
397.351	0.105	794702	keystroke_Key.space	Key.space	n/a
398.416	0.09	796832	keystroke_w	w	n/a
398.911	0.075	797822	keystroke_a	a	n/a
399.091	0.105	798182	keystroke_r	r	n/a
399.361	0.06	798722	keystroke_n	n	n/a
399.511	0.12	799022	keystroke_i	i	n/a
399.571	0.105	799142	keystroke_n	n	n/a
399.736	0.09	799472	keystroke_g	g	n/a
399.856	0.09	799712	keystroke_Key.space	Key.space	n/a
400.051	0.12	800102	keystroke_i	i	n/a
400.141	0.12	800282	keystroke_n	n	n/a
400.906	0.075	801812	keystroke_t	t	n/a
401.086	0.075	802172	keystroke_r	r	n/a
401.1755	0.061	802351	keystroke_o	o	n/a
401.4165	0.105	802833	keystroke_d	d	n/a
401.6705	0.076	803341	keystroke_c	c	n/a
402.016	0.06	804032	keystroke_Key.backspace	Key.backspace	n/a
402.241	0.075	804482	keystroke_u	u	n/a
402.331	0.09	804662	keystroke_c	c	n/a
402.526	0.135	805052	keystroke_i	i	n/a
402.586	0.12	805172	keystroke_n	n	n/a
402.976	0.105	805952	keystroke_g	g	n/a
403.186	0.0895	806372	keystroke_Key.space	Key.space	n/a
404.3865	0.045	808773	keystroke_i	i	n/a
404.581	0.03	809162	keystroke_n	n	n/a
404.701	0.075	809402	keystroke_n	n	n/a
404.881	0.06	809762	keystroke_o	o	n/a
404.971	0.12	809942	keystroke_v	v	n/a
405.1955	0.09	810391	keystroke_a	a	n/a
405.4205	0.09	810841	keystroke_t	t	n/a
405.5555	0.075	811111	keystroke_i	i	n/a
405.7505	0.061	811501	keystroke_v	v	n/a
405.9605	0.135	811921	keystroke_e	e	n/a
406.2755	0.075	812551	keystroke_Key.enter	Key.enter	n/a
406.357	7.3755	812714	prompt	n/a	boundary overnight librarian footage\n
406.9955	0.09	813991	keystroke_b	b	n/a
407.1605	0.1355	814321	keystroke_o	o	n/a
407.2805	0.0455	814561	keystroke_u	u	n/a
407.536	0.075	815072	keystroke_n	n	n/a
407.566	0.105	815132	keystroke_d	d	n/a
407.776	0.105	815552	keystroke_a	a	n/a
407.986	0.105	815972	keystroke_r	r	n/a
408.121	0.12	816242	keystroke_y	y	n/a
408.271	0.06	816542	keystroke_Key.space	Key.space	n/a
408.466	0.09	816932	keystroke_o	o	n/a
408.586	0.06	817172	keystroke_v	v	n/a
408.766	0.135	817532	keystroke_e	e	n/a
408.841	0.12	817682	keystroke_r	r	n/a
408.976	0.09	817952	keystroke_n	n	n/a
409.111	0.0895	818222	keystroke_i	i	n/a
409.3515	0.089	818703	keystroke_g	g	n/a
409.4555	0.06	818911	keystroke_h	h	n/a
409.5455	0.12	819091	keystroke_t	t	n/a
409.6505	0.09	819301	keystroke_Key.space	Key.space	n/a
409.8305	0.105	819661	keystroke_l	l	n/a
410.041	0.075	820082	keystroke_i	i	n/a
410.236	0.09	820472	keystroke_b	b	n/a
410.311	0.075	820622	keystroke_r	r	n/a
410.581	0.03	821162	keystroke_a	a	n/a
411.0005	0.09	822001	keystroke_r	r	n/a
411.1205	0.06	822241	keystroke_i	i	n/a
411.2855	0.09	822571	keystroke_a	a	n/a
411.391	0.09	822782	keystroke_n	n	n/a
411.481	0.105	822962	keystroke_Key.space	Key.space	n/a
411.631	0.105	823262	keystroke_f	f	n/a
411.781	0.06	823562	keystroke_o	o	n/a
411.931	0.105	823862	keystroke_o	o	n/a
412.051	0.105	824102	keystroke_g	g	n/a
412.531	0.045	825062	keystroke_Key.backspace	Key.backspace	n/a
412.576	0.09	825152	keystroke_t	t	n/a
412.8155	0.09	825631	keystroke_a	a	n/a
413.0555	0.09	826111	keystroke_g	g	n/a
413.2355	0.12	826471	keystroke_e	e	n/a
413.6255	0.105	827251	keystroke_Key.enter	Key.enter	n/a
413.738	5.184	827476	prompt	n/a	fares entire christine burning\n
414.3605	0.105	828721	keystroke_f	f	n/a
414.556	0.105	829112	keystroke_a	a	n/a
414.751	0.075	829502	keystroke_r	r	n/a
414.916	0.089	829832	keystroke_e	e	n/a
415.081	0.12	830162	keystroke_s	s	n/a
415.215	0.105	830430	keystroke_Key.space	Key.space	n/a
415.335	0.106	830670	keystroke_e	e	n/a
415.456	0.09	830912	keystroke_n	n	n/a
415.576	0.1195	831152	keystroke_t	t	n/a
415.7105	0.075	831421	keystroke_i	i	n/a
415.8155	0.09	831631	keystroke_r	r	n/a
416.0105	0.09	832021	keystroke_e	e	n/a
416.1605	0.105	832321	keystroke_Key.space	Key.space	n/a
416.4005	0.12	832801	keystroke_c	c	n/a
416.5355	0.075	833071	keystroke_h	h	n/a
416.6255	0.09	833251	keystroke_r	r	n/a
416.7455	0.075	833491	keystroke_i	i	n/a
416.8355	0.09	833671	keystroke_s	s	n/a
417.0305	0.075	834061	keystroke_t	t	n/a
417.1065	0.1345	834213	keystroke_i	i	n/a
417.1655	0.1045	834331	keystroke_n	n	n/a
417.376	0.104	834752	keystroke_e	e	n/a
417.57	0.06	835140	keystroke_Key.space	Key.space	n/a
417.736	0.044	835472	keystroke_b	b	n/a
417.826	0.105	835652	keystroke_u	u	n/a
417.945	0.09	835890	keystroke_r	r	n/a
418.125	0.0905	836250	keystroke_n	n	n/a
418.2455	0.15	836491	keystroke_i	i	n/a
418.3355	0.105	836671	keystroke_n	n	n/a
418.4555	0.09	836911	keystroke_g	g	n/a
418.8455	0.075	837691	keystroke_Key.enter	Key.enter	n/a
418.925	7.452	837850	prompt	n/a	measuring leasing winners nickname\n
419.6855	0.0755	839371	keystroke_m	m	n/a
419.776	0.06	839552	keystroke_e	e	n/a
419.941	0.06	839882	keystroke_a	a	n/a
420.106	0.09	840212	keystroke_s	s	n/a
420.211	0.03	840422	keystroke_u	u	n/a
420.346	0.165	840692	keystroke_r	r	n/a
420.601	0.105	841202	keystroke_i	i	n/a
420.661	0.105	841322	keystroke_n	n	n/a
420.751	0.075	841502	keystroke_g	g	n/a
420.841	0.06	841682	keystroke_Key.space	Key.space	n/a
420.991	0.09	841982	keystroke_l	l	n/a
421.036	0.075	842072	keystroke_e	e	n/a
421.216	0.045	842432	keystroke_a	a	n/a
421.381	0.09	842762	keystroke_s	s	n/a
421.486	0.105	842972	keystroke_i	i	n/a
421.53	0.091	843060	keystroke_n	n	n/a
421.651	0.09	843302	keystroke_g	g	n/a
421.756	0.09	843512	keystroke_Key.space	Key.space	n/a
421.891	0.1045	843782	keystroke_w	w	n/a
422.0105	0.06	844021	keystroke_i	i	n/a
422.1605	0.06	844321	keystroke_n	n	n/a
422.295	0.12	844590	keystroke_n	n	n/a
422.401	0.029	844802	keystroke_d	d	n/a
422.401	0.194	844802	keystroke_e	e	n/a
422.55	0.091	845100	keystroke_r	r	n/a
422.746	0.119	845492	keystroke_s	s	n/a
422.85	0.09	845700	keystroke_Key.space	Key.space	n/a
422.926	0.104	845852	keystroke_n	n	n/a
423.5855	0.06	847171	keystroke_Key.backspace	Key.backspace	n/a
423.7355	0.06	847471	keystroke_Key.backspace	Key.backspace	n/a
423.8855	0.045	847771	keystroke_Key.backspace	Key.backspace	n/a
424.0205	0.075	848041	keystroke_Key.backspace	Key.backspace	n/a
424.1855	0.075	848371	keystroke_Key.backspace	Key.backspace	n/a
424.2605	0.09	848521	keystroke_r	r	n/a
424.53	0.105	849060	keystroke_s	s	n/a
424.65	0.135	849300	keystroke_Key.space	Key.space	n/a
424.77	0.09	849540	keystroke_n	n	n/a
424.891	0.104	849782	keystroke_i	i	n/a
425.055	0.106	850110	keystroke_c	c	n/a
425.19	0.045	850380	keystroke_k	k	n/a
425.61	0.045	851220	keystroke_n	n	n/a
425.715	0.09	851430	keystroke_a	a	n/a
425.821	0.074	851642	keystroke_m	m	n/a
425.91	0.09	851820	keystroke_e	e	n/a
426.255	0.12	852510	keystroke_Key.enter	Key.enter	n/a
426.389	7.458	852778	prompt	n/a	gotten safer visitor welding\n
427.0955	0.1205	854191	keystroke_g	g	n/a
427.305	0.09	854610	keystroke_o	o	n/a
427.62	0.075	855240	keystroke_n	n	n/a
427.7555	0.0755	855511	keystroke_n	n	n/a
428.0405	0.0455	856081	keystroke_Key.backspace	Key.backspace	n/a
428.161	0.09	856322	keystroke_Key.backspace	Key.backspace	n/a
428.266	0.045	856532	keystroke_t	t	n/a
428.3855	0.06	856771	keystroke_t	t	n/a
428.5655	0.105	857131	keystroke_e	e	n/a
428.656	0.0895	857312	keystroke_n	n	n/a
428.7755	0.075	857551	keystroke_Key.space	Key.space	n/a
428.8805	0.09	857761	keystroke_s	s	n/a
429.0305	0.09	858061	keystroke_a	a	n/a
429.2705	0.105	858541	keystroke_f	f	n/a
429.93	0.136	859860	keystroke_e	e	n/a
430.006	0.12	860012	keystroke_r	r	n/a
430.695	0.105	861390	keystroke_Key.space	Key.space	n/a
430.965	0.135	861930	keystroke_v	v	n/a
431.086	0.074	862172	keystroke_i	i	n/a
431.175	0.121	862350	keystroke_s	s	n/a
431.31	0.075	862620	keystroke_i	i	n/a
431.445	0.06	862890	keystroke_t	t	n/a
431.6405	0.09	863281	keystroke_o	o	n/a
431.7605	0.0745	863521	keystroke_r	r	n/a
431.8955	0.075	863791	keystroke_Key.space	Key.space	n/a
432.1805	0.105	864361	keystroke_w	w	n/a
432.3005	0.12	864601	keystroke_i	i	n/a
432.6605	0.06	865321	keystroke_Key.backspace	Key.backspace	n/a
432.7355	0.105	865471	keystroke_e	e	n/a
432.9455	0.06	865891	keystroke_l	l	n/a
433.0805	0.09	866161	keystroke_d	d	n/a
433.2155	0.12	866431	keystroke_i	i	n/a
433.2905	0.1055	866581	keystroke_n	n	n/a
433.381	0.09	866762	keystroke_g	g	n/a
433.756	0.09	867512	keystroke_Key.enter	Key.enter	n/a
433.8495	6.9725	867699	prompt	n/a	admin bhutan breathing elizabeth\n
434.476	0.105	868952	keystroke_a	a	n/a
434.641	0.12	869282	keystroke_d	d	n/a
434.851	0.075	869702	keystroke_m	m	n/a
435.031	0.105	870062	keystroke_i	i	n/a
435.106	0.0895	870212	keystroke_n	n	n/a
435.3005	0.075	870601	keystroke_Key.space	Key.space	n/a
435.7355	0.09	871471	keystroke_b	b	n/a
436.036	0.09	872072	keystroke_h	h	n/a
436.456	0.09	872912	keystroke_u	u	n/a
436.681	0.09	873362	keystroke_t	t	n/a
436.906	0.09	873812	keystroke_a	a	n/a
437.041	0.09	874082	keystroke_n	n	n/a
437.146	0.105	874292	keystroke_Key.space	Key.space	n/a
437.476	0.09	874952	keystroke_b	b	n/a
437.566	0.075	875132	keystroke_r	r	n/a
437.731	0.06	875462	keystroke_e	e	n/a
437.851	0.075	875702	keystroke_a	a	n/a
438.061	0.105	876122	keystroke_t	t	n/a
438.136	0.06	876272	keystroke_h	h	n/a
438.271	0.135	876542	keystroke_i	i	n/a
438.346	0.135	876692	keystroke_n	n	n/a
438.451	0.09	876902	keystroke_g	g	n/a
438.526	0.09	877052	keystroke_Key.space	Key.space	n/a
438.691	0.09	877382	keystroke_e	e	n/a
438.766	0.075	877532	keystroke_l	l	n/a
438.931	0.075	877862	keystroke_i	i	n/a
439.231	0.09	878462	keystroke_z	z	n/a
439.711	0.164	879422	keystroke_a	a	n/a
439.936	0.045	879872	keystroke_b	b	n/a
440.011	0.105	880022	keystroke_e	e	n/a
440.235	0.106	880470	keystroke_t	t	n/a
440.341	0.09	880682	keystroke_h	h	n/a
440.716	0.104	881432	keystroke_Key.enter	Key.enter	n/a
440.8245	5.4425	881649	prompt	n/a	i'll summit delayed really\n
441.8705	0.09	883741	keystroke_i	i	n/a
442.0355	0.105	884071	keystroke_'	'	n/a
442.2455	0.06	884491	keystroke_l	l	n/a
442.3955	0.105	884791	keystroke_l	l	n/a
442.4705	0.09	884941	keystroke_Key.space	Key.space	n/a
442.6205	0.12	885241	keystroke_s	s	n/a
442.9655	0.06	885931	keystroke_u	u	n/a
443.206	0.044	886412	keystroke_m	m	n/a
443.326	0.089	886652	keystroke_m	m	n/a
443.535	0.075	887070	keystroke_i	i	n/a
443.64	0.121	887280	keystroke_t	t	n/a
443.79	0.075	887580	keystroke_Key.space	Key.space	n/a
443.925	0.105	887850	keystroke_d	d	n/a
444.1055	0.09	888211	keystroke_e	e	n/a
444.2255	0.06	888451	keystroke_l	l	n/a
444.3155	0.105	888631	keystroke_a	a	n/a
444.4955	0.105	888991	keystroke_y	y	n/a
444.5855	0.075	889171	keystroke_e	e	n/a
444.7655	0.105	889531	keystroke_d	d	n/a
444.8555	0.075	889711	keystroke_Key.space	Key.space	n/a
445.0355	0.03	890071	keystroke_r	r	n/a
445.1855	0.09	890371	keystroke_e	e	n/a
445.4105	0.12	890821	keystroke_a	a	n/a
445.5455	0.03	891091	keystroke_l	l	n/a
445.665	0.105	891330	keystroke_l	l	n/a
445.905	0.135	891810	keystroke_y	y	n/a
446.1455	0.1195	892291	keystroke_Key.enter	Key.enter	n/a
446.2695	8.1125	892539	prompt	n/a	incentive bits alto refrigerator\n
446.8955	0.135	893791	keystroke_i	i	n/a
447.0005	0.105	894001	keystroke_n	n	n/a
447.1205	0.1655	894241	keystroke_c	c	n/a
447.271	0.105	894542	keystroke_e	e	n/a
447.391	0.09	894782	keystroke_n	n	n/a
447.556	0.09	895112	keystroke_t	t	n/a
447.661	0.09	895322	keystroke_i	i	n/a
447.886	0.105	895772	keystroke_v	v	n/a
448.081	0.105	896162	keystroke_e	e	n/a
448.171	0.12	896342	keystroke_Key.space	Key.space	n/a
448.276	0.12	896552	keystroke_b	b	n/a
448.366	0.09	896732	keystroke_i	i	n/a
448.441	0.09	896882	keystroke_t	t	n/a
448.681	0.09	897362	keystroke_s	s	n/a
448.786	0.09	897572	keystroke_Key.space	Key.space	n/a
448.9205	0.06	897841	keystroke_a	a	n/a
449.0105	0.06	898021	keystroke_l	l	n/a
449.1305	0.0605	898261	keystroke_s	s	n/a
449.461	0.045	898922	keystroke_Key.backspace	Key.backspace	n/a
449.536	0.105	899072	keystroke_t	t	n/a
449.701	0.105	899402	keystroke_o	o	n/a
449.791	0.12	899582	keystroke_Key.space	Key.space	n/a
449.941	0.105	899882	keystroke_r	r	n/a
450.136	0.075	900272	keystroke_e	e	n/a
450.346	0.09	900692	keystroke_g	g	n/a
450.676	0.105	901352	keystroke_r	r	n/a
450.901	0.0745	901802	keystroke_i	i	n/a
451.2905	0.06	902581	keystroke_Key.backspace	Key.backspace	n/a
451.4105	0.12	902821	keystroke_Key.backspace	Key.backspace	n/a
451.5155	0.09	903031	keystroke_f	f	n/a
451.921	0.03	903842	keystroke_Key.backspace	Key.backspace	n/a
452.026	0.09	904052	keystroke_Key.backspace	Key.backspace	n/a
452.101	0.06	904202	keystroke_f	f	n/a
452.266	0.105	904532	keystroke_r	r	n/a
452.386	0.06	904772	keystroke_i	i	n/a
452.806	0.09	905612	keystroke_g	g	n/a
453.001	0.135	906002	keystroke_e	e	n/a
453.076	0.105	906152	keystroke_r	r	n/a
453.301	0.09	906602	keystroke_a	a	n/a
453.541	0.075	907082	keystroke_t	t	n/a
453.9305	0.045	907861	keystroke_o	o	n/a
454.0505	0.075	908101	keystroke_r	r	n/a
454.3055	0.075	908611	keystroke_Key.enter	Key.enter	n/a
454.392	7.641	908784	prompt	n/a	impacts consecutive steel handhelds\n
455.0555	0.105	910111	keystroke_i	i	n/a
455.22	0.105	910440	keystroke_m	m	n/a
455.43	0.06	910860	keystroke_p	p	n/a
455.505	0.09	911010	keystroke_a	a	n/a
455.745	0.06	911490	keystroke_t	t	n/a
456.045	0.06	912090	keystroke_Key.backspace	Key.backspace	n/a
456.09	0.106	912180	keystroke_c	c	n/a
456.345	0.06	912690	keystroke_t	t	n/a
456.585	0.105	913170	keystroke_s	s	n/a
456.72	0.09	913440	keystroke_Key.space	Key.space	n/a
456.855	0.135	913710	keystroke_c	c	n/a
456.975	0.09	913950	keystroke_o	o	n/a
457.02	0.1055	914040	keystroke_n	n	n/a
457.186	0.195	914372	keystroke_s	s	n/a
457.366	0.09	914732	keystroke_e	e	n/a
457.606	0.09	915212	keystroke_c	c	n/a
457.711	0.0895	915422	keystroke_u	u	n/a
457.9205	0.075	915841	keystroke_t	t	n/a
458.4005	0.09	916801	keystroke_i	i	n/a
458.6255	0.075	917251	keystroke_v	v	n/a
458.791	0.105	917582	keystroke_e	e	n/a
458.941	0.105	917882	keystroke_Key.space	Key.space	n/a
459.091	0.105	918182	keystroke_s	s	n/a
459.286	0.0745	918572	keystroke_t	t	n/a
459.4505	0.06	918901	keystroke_e	e	n/a
459.5855	0.135	919171	keystroke_e	e	n/a
459.7055	0.09	919411	keystroke_l	l	n/a
459.7965	0.089	919593	keystroke_Key.space	Key.space	n/a
460.4255	0.075	920851	keystroke_h	h	n/a
460.5455	0.075	921091	keystroke_a	a	n/a
460.6505	0.09	921301	keystroke_n	n	n/a
460.7255	0.09	921451	keystroke_d	d	n/a
461.0705	0.075	922141	keystroke_h	h	n/a
461.1755	0.09	922351	keystroke_e	e	n/a
461.2955	0.06	922591	keystroke_l	l	n/a
461.566	0.06	923132	keystroke_d	d	n/a
461.731	0.09	923462	keystroke_s	s	n/a
461.971	0.06	923942	keystroke_Key.enter	Key.enter	n/a
462.037	7.8105	924074	prompt	n/a	economies candles sophisticated mass\n
462.7055	0.09	925411	keystroke_e	e	n/a
462.9455	0.12	925891	keystroke_c	c	n/a
463.1405	0.12	926281	keystroke_o	o	n/a
463.2615	0.074	926523	keystroke_n	n	n/a
463.4105	0.105	926821	keystroke_o	o	n/a
463.6355	0.075	927271	keystroke_m	m	n/a
463.8305	0.06	927661	keystroke_i	i	n/a
463.9205	0.06	927841	keystroke_e	e	n/a
464.1455	0.105	928291	keystroke_s	s	n/a
464.2655	0.105	928531	keystroke_Key.space	Key.space	n/a
464.3855	0.075	928771	keystroke_c	c	n/a
464.5505	0.105	929101	keystroke_a	a	n/a
464.6405	0.06	929281	keystroke_n	n	n/a
464.7455	0.09	929491	keystroke_d	d	n/a
464.8805	0.075	929761	keystroke_l	l	n/a
464.9855	0.06	929971	keystroke_e	e	n/a
465.1955	0.1205	930391	keystroke_s	s	n/a
465.48	0.075	930960	keystroke_Key.space	Key.space	n/a
465.766	0.12	931532	keystroke_s	s	n/a
465.871	0.089	931742	keystroke_o	o	n/a
466.381	0.089	932762	keystroke_p	p	n/a
466.605	0.121	933210	keystroke_h	h	n/a
466.845	0.106	933690	keystroke_i	i	n/a
467.115	0.105	934230	keystroke_s	s	n/a
467.3405	0.105	934681	keystroke_t	t	n/a
467.4605	0.075	934921	keystroke_i	i	n/a
467.595	0.075	935190	keystroke_v	v	n/a
468.06	0.06	936120	keystroke_Key.backspace	Key.backspace	n/a
468.105	0.061	936210	keystroke_c	c	n/a
468.256	0.104	936512	keystroke_a	a	n/a
468.51	0.075	937020	keystroke_t	t	n/a
468.675	0.075	937350	keystroke_e	e	n/a
468.84	0.09	937680	keystroke_d	d	n/a
468.96	0.06	937920	keystroke_Key.space	Key.space	n/a
469.14	0.106	938280	keystroke_m	m	n/a
469.215	0.105	938430	keystroke_a	a	n/a
469.425	0.061	938850	keystroke_s	s	n/a
469.56	0.15	939120	keystroke_s	s	n/a
469.755	0.09	939510	keystroke_Key.enter	Key.enter	n/a
469.85	10.332	939700	prompt	n/a	conducting cadillac auditor medical\n
470.49	0.135	940980	keystroke_c	c	n/a
470.67	0.09	941340	keystroke_o	o	n/a
470.685	0.135	941370	keystroke_n	n	n/a
470.985	0.075	941970	keystroke_s	s	n/a
471.315	0.075	942630	keystroke_Key.backspace	Key.backspace	n/a
471.405	0.09	942810	keystroke_d	d	n/a
471.57	0.076	943140	keystroke_u	u	n/a
471.676	0.105	943352	keystroke_c	c	n/a
471.976	0.075	943952	keystroke_t	t	n/a
472.141	0.15	944282	keystroke_i	i	n/a
472.231	0.12	944462	keystroke_o	o	n/a
472.291	0.105	944582	keystroke_n	n	n/a
472.906	0.03	945812	keystroke_Key.backspace	Key.backspace	n/a
472.996	0.075	945992	keystroke_Key.backspace	Key.backspace	n/a
473.221	0.075	946442	keystroke_n	n	n/a
473.311	0.12	946622	keystroke_g	g	n/a
473.671	0.09	947342	keystroke_Key.space	Key.space	n/a
474.3155	0.135	948631	keystroke_v	v	n/a
