onset	duration	sample	value	key	prompt_text
15.2895	15.803	30579	prompt	n/a	the quick brown fox jumps over a lazy dog\n
18.867	0.043	37734	keystroke_t	t	n/a
18.911	0.059	37822	keystroke_h	h	n/a
19.015	0.09	38030	keystroke_e	e	n/a
19.135	0.105	38270	keystroke_Key.space	Key.space	n/a
19.48	0.0905	38960	keystroke_q	q	n/a
19.5995	0.061	39199	keystroke_u	u	n/a
19.7655	0.075	39531	keystroke_i	i	n/a
19.9305	0.09	39861	keystroke_c	c	n/a
19.9905	0.075	39981	keystroke_k	k	n/a
20.1245	0.136	40249	keystroke_Key.space	Key.space	n/a
20.4855	0.09	40971	keystroke_b	b	n/a
20.6355	0.089	41271	keystroke_r	r	n/a
20.7105	0.119	41421	keystroke_o	o	n/a
20.7845	0.106	41569	keystroke_w	w	n/a
20.9045	0.045	41809	keystroke_n	n	n/a
20.9205	0.014	41841	keystroke_b	b	n/a
21.0095	0.12	42019	keystroke_Key.space	Key.space	n/a
21.1745	0.061	42349	keystroke_f	f	n/a
21.581	0.044	43162	keystroke_Key.backspace	Key.backspace	n/a
22.3895	0.0765	44779	keystroke_Key.backspace	Key.backspace	n/a
22.5845	0.06	45169	keystroke_Key.backspace	Key.backspace	n/a
23.2595	0.09	46519	keystroke_Key.space	Key.space	n/a
23.44	0.0755	46880	keystroke_f	f	n/a
23.5455	0.06	47091	keystroke_o	o	n/a
24.2205	0.075	48441	keystroke_x	x	n/a
24.6555	0.09	49311	keystroke_Key.space	Key.space	n/a
25.1055	0.06	50211	keystroke_j	j	n/a
25.54	0.045	51080	keystroke_u	u	n/a
25.675	0.18	51350	keystroke_m	m	n/a
25.765	0.105	51530	keystroke_o	o	n/a
26.47	0.09	52940	keystroke_Key.backspace	Key.backspace	n/a
26.92	0.075	53840	keystroke_p	p	n/a
27.025	0.075	54050	keystroke_s	s	n/a
27.28	0.105	54560	keystroke_Key.space	Key.space	n/a
27.46	0.105	54920	keystroke_o	o	n/a
27.566	0.134	55132	keystroke_v	v	n/a
27.67	0.105	55340	keystroke_e	e	n/a
27.88	0.09	55760	keystroke_r	r	n/a
27.97	0.105	55940	keystroke_Key.space	Key.space	n/a
28.09	0.105	56180	keystroke_a	a	n/a
28.21	0.09	56420	keystroke_Key.space	Key.space	n/a
28.315	0.09	56630	keystroke_k	k	n/a
28.45	0.09	56900	keystroke_a	a	n/a
28.645	0.1055	57290	keystroke_z	z	n/a
28.7655	0.06	57531	keystroke_y	y	n/a
29.1705	0.09	58341	keystroke_Key.space	Key.space	n/a
29.4105	0.015	58821	keystroke_l	l	n/a
29.7855	0.105	59571	keystroke_Key.backspace	Key.backspace	n/a
30.4155	0.015	60831	keystroke_d	d	n/a
30.4455	0.03	60891	keystroke_o	o	n/a
30.6255	0.09	61251	keystroke_g	g	n/a
31.0155	0.075	62031	keystroke_Key.enter	Key.enter	n/a
31.0965	8.4555	62193	prompt	n/a	corner biographies adelaide clinton\n
32.0505	0.12	64101	keystroke_c	c	n/a
32.1855	0.075	64371	keystroke_o	o	n/a
32.3055	0.09	64611	keystroke_r	r	n/a
32.3505	0.09	64701	keystroke_n	n	n/a
32.5005	0.0895	65001	keystroke_e	e	n/a
32.68	0.09	65360	keystroke_r	r	n/a
32.755	0.09	65510	keystroke_Key.space	Key.space	n/a
33.235	0.075	66470	keystroke_b	b	n/a
33.4	0.165	66800	keystroke_i	i	n/a
33.52	0.09	67040	keystroke_o	o	n/a
33.76	0.075	67520	keystroke_g	g	n/a
33.91	0.121	67820	keystroke_r	r	n/a
34	0.135	68000	keystroke_a	a	n/a
34.84	0.075	69680	keystroke_p	p	n/a
35.065	0.105	70130	keystroke_h	h	n/a
35.275	0.06	70550	keystroke_i	i	n/a
35.44	0.15	70880	keystroke_e	e	n/a
35.516	0.119	71032	keystroke_s	s	n/a
35.65	0.105	71300	keystroke_Key.space	Key.space	n/a
35.845	0.105	71690	keystroke_a	a	n/a
36.34	0.06	72680	keystroke_d	d	n/a
36.475	0.09	72950	keystroke_e	e	n/a
36.67	0.075	73340	keystroke_l	l	n/a
37.285	0.12	74570	keystroke_a	a	n/a
37.9155	0.105	75831	keystroke_i	i	n/a
38.0355	0.09	76071	keystroke_d	d	n/a
38.2305	0.075	76461	keystroke_e	e	n/a
38.3505	0.105	76701	keystroke_Key.space	Key.space	n/a
38.5455	0.12	77091	keystroke_c	c	n/a
38.6355	0.045	77271	keystroke_l	l	n/a
38.7705	0.135	77541	keystroke_i	i	n/a
38.8455	0.12	77691	keystroke_n	n	n/a
39.1005	0.09	78201	keystroke_t	t	n/a
39.2055	0.12	78411	keystroke_o	o	n/a
39.2805	0.105	78561	keystroke_n	n	n/a
39.4755	0.075	78951	keystroke_Key.enter	Key.enter	n/a
39.555	6.207	79110	prompt	n/a	twin replace kennedy negative\n
40.3455	0.12	80691	keystroke_t	t	n/a
40.4355	0.105	80871	keystroke_w	w	n/a
40.5855	0.15	81171	keystroke_i	i	n/a
40.6605	0.09	81321	keystroke_n	n	n/a
40.765	0.12	81530	keystroke_Key.space	Key.space	n/a
40.9	0.075	81800	keystroke_r	r	n/a
41.08	0.09	82160	keystroke_e	e	n/a
41.14	0.15	82280	keystroke_p	p	n/a
41.23	0.12	82460	keystroke_l	l	n/a
41.275	0.135	82550	keystroke_a	a	n/a
41.365	0.195	82730	keystroke_c	c	n/a
41.485	0.105	82970	keystroke_e	e	n/a
41.575	0.105	83150	keystroke_Key.space	Key.space	n/a
41.8605	0.0895	83721	keystroke_k	k	n/a
42.3405	0.09	84681	keystroke_e	e	n/a
42.4605	0.09	84921	keystroke_n	n	n/a
42.6255	0.09	85251	keystroke_n	n	n/a
42.7755	0.075	85551	keystroke_e	e	n/a
42.9405	0.09	85881	keystroke_d	d	n/a
43.1505	0.075	86301	keystroke_y	y	n/a
43.3455	0.09	86691	keystroke_Key.space	Key.space	n/a
43.4955	0.105	86991	keystroke_n	n	n/a
43.5855	0.105	87171	keystroke_e	e	n/a
43.7355	0.075	87471	keystroke_g	g	n/a
43.8705	0.075	87741	keystroke_a	a	n/a
45.1455	0.09	90291	keystroke_t	t	n/a
45.2805	0.105	90561	keystroke_i	i	n/a
45.3855	0.1645	90771	keystroke_v	v	n/a
45.521	0.105	91042	keystroke_e	e	n/a
45.7	0.06	91400	keystroke_Key.enter	Key.enter	n/a
45.7655	7.3765	91531	prompt	n/a	loving venezuela calm conversations\n
46.42	0.061	92840	keystroke_l	l	n/a
46.585	0.061	93170	keystroke_o	o	n/a
46.63	0.09	93260	keystroke_v	v	n/a
46.78	0.135	93560	keystroke_i	i	n/a
46.855	0.09	93710	keystroke_n	n	n/a
46.916	0.104	93832	keystroke_g	g	n/a
47.005	0.12	94010	keystroke_Key.space	Key.space	n/a
47.7105	0.09	95421	keystroke_v	v	n/a
47.9055	0.075	95811	keystroke_e	e	n/a
48.0255	0.09	96051	keystroke_n	n	n/a
48.7905	0.09	97581	keystroke_e	e	n/a
49.0605	0.105	98121	keystroke_z	z	n/a
49.3455	0.12	98691	keystroke_u	u	n/a
49.54	0.075	99080	keystroke_e	e	n/a
49.63	0.045	99260	keystroke_l	l	n/a
49.735	0.135	99470	keystroke_a	a	n/a
50.02	0.075	100040	keystroke_Key.space	Key.space	n/a
50.2	0.12	100400	keystroke_c	c	n/a
50.305	0.105	100610	keystroke_a	a	n/a
50.365	0.135	100730	keystroke_l	l	n/a
50.47	0.09	100940	keystroke_m	m	n/a
50.635	0.105	101270	keystroke_Key.space	Key.space	n/a
50.8455	0.105	101691	keystroke_c	c	n/a
50.9655	0.12	101931	keystroke_o	o	n/a
51.0405	0.105	102081	keystroke_n	n	n/a
51.776	0.075	103552	keystroke_v	v	n/a
52.016	0.06	104032	keystroke_e	e	n/a
52.15	0.106	104300	keystroke_r	r	n/a
52.285	0.15	104570	keystroke_s	s	n/a
52.406	0.149	104812	keystroke_a	a	n/a
52.6	0.075	105200	keystroke_t	t	n/a
52.66	0.196	105320	keystroke_i	i	n/a
52.736	0.134	105472	keystroke_o	o	n/a
52.795	0.135	105590	keystroke_n	n	n/a
52.915	0.061	105830	keystroke_s	s	n/a
53.08	0.06	106160	keystroke_Key.enter	Key.enter	n/a
53.1455	9.8965	106291	prompt	n/a	privilege tests union couple\n
54.0855	0.075	108171	keystroke_p	p	n/a
54.2505	0.105	108501	keystroke_r	r	n/a
54.3855	0.075	108771	keystroke_i	i	n/a
54.5055	0.09	109011	keystroke_v	v	n/a
54.6105	0.105	109221	keystroke_i	i	n/a
54.8205	0.105	109641	keystroke_l	l	n/a
55.2105	0.075	110421	keystroke_e	e	n/a
55.603	0.162	111206	keystroke_g	g	n/a
55.75	0.061	111500	keystroke_e	e	n/a
56.155	0.135	112310	keystroke_Key.space	Key.space	n/a
56.605	0.1505	113210	keystroke_t	t	n/a
56.725	0.15	113450	keystroke_e	e	n/a
56.86	0.18	113720	keystroke_s	s	n/a
56.935	0.09	113870	keystroke_t	t	n/a
57.745	0.09	115490	keystroke_Key.space	Key.space	n/a
58	0.12	116000	keystroke_u	u	n/a
58.135	0.135	116270	keystroke_n	n	n/a
58.225	0.24	116450	keystroke_i	i	n/a
58.36	0.135	116720	keystroke_o	o	n/a
58.435	0.105	116870	keystroke_n	n	n/a
58.585	0.12	117170	keystroke_Key.space	Key.space	n/a
59.14	0.105	118280	keystroke_c	c	n/a
59.23	0.09	118460	keystroke_o	o	n/a
59.305	0.12	118610	keystroke_u	u	n/a
59.485	0.15	118970	keystroke_p	p	n/a
59.636	0.014	119272	keystroke_k	k	n/a
60.685	0.045	121370	keystroke_Key.backspace	Key.backspace	n/a
61.12	0.165	122240	keystroke_p	p	n/a
61.27	0.06	122540	keystroke_l	l	n/a
61.405	0.076	122810	keystroke_e	e	n/a
61.826	0.03	123652	keystroke_Key.backspace	Key.backspace	n/a
61.931	0.075	123862	keystroke_Key.backspace	Key.backspace	n/a
62.051	0.045	124102	keystroke_Key.backspace	Key.backspace	n/a
62.741	0.075	125482	keystroke_l	l	n/a
62.831	0.075	125662	keystroke_e	e	n/a
62.966	0.075	125932	keystroke_Key.enter	Key.enter	n/a
63.0515	6.846	126103	prompt	n/a	forecasts acres warming lake\n
63.761	0.09	127522	keystroke_f	f	n/a
64.181	0.06	128362	keystroke_o	o	n/a
64.316	0.12	128632	keystroke_r	r	n/a
65.006	0.12	130012	keystroke_e	e	n/a
65.231	0.165	130462	keystroke_c	c	n/a
65.351	0.165	130702	keystroke_a	a	n/a
65.501	0.12	131002	keystroke_s	s	n/a
65.666	0.135	131332	keystroke_t	t	n/a
65.771	0.09	131542	keystroke_s	s	n/a
65.921	0.12	131842	keystroke_Key.space	Key.space	n/a
66.041	0.15	132082	keystroke_a	a	n/a
66.206	0.075	132412	keystroke_c	c	n/a
66.415	0.076	132830	keystroke_r	r	n/a
66.596	0.149	133192	keystroke_e	e	n/a
66.67	0.121	133340	keystroke_s	s	n/a
66.821	0.105	133642	keystroke_Key.space	Key.space	n/a
67.121	0.18	134242	keystroke_w	w	n/a
67.225	0.151	134450	keystroke_a	a	n/a
67.466	0.12	134932	keystroke_r	r	n/a
67.571	0.105	135142	keystroke_m	m	n/a
67.691	0.15	135382	keystroke_i	i	n/a
67.781	0.075	135562	keystroke_n	n	n/a
67.826	0.075	135652	keystroke_g	g	n/a
67.961	0.075	135922	keystroke_Key.space	Key.space	n/a
68.051	0.09	136102	keystroke_l	l	n/a
68.111	0.135	136222	keystroke_a	a	n/a
68.216	0.12	136432	keystroke_g	g	n/a
68.876	0.119	137752	keystroke_Key.backspace	Key.backspace	n/a
69.355	0.061	138710	keystroke_k	k	n/a
69.446	0.09	138892	keystroke_e	e	n/a
69.835	0.0605	139670	keystroke_Key.enter	Key.enter	n/a
69.902	7.3295	139804	prompt	n/a	floyd trucks style messenger\n
70.9005	0.075	141801	keystroke_f	f	n/a
70.9605	0.075	141921	keystroke_l	l	n/a
71.1405	0.075	142281	keystroke_o	o	n/a
71.3805	0.09	142761	keystroke_y	y	n/a
71.5455	0.105	143091	keystroke_d	d	n/a
71.8455	0.12	143691	keystroke_Key.space	Key.space	n/a
72.1605	0.075	144321	keystroke_t	t	n/a
72.3405	0.09	144681	keystroke_r	r	n/a
72.4755	0.045	144951	keystroke_u	u	n/a
72.9405	0.105	145881	keystroke_c	c	n/a
73.0305	0.105	146061	keystroke_k	k	n/a
73.1805	0.075	146361	keystroke_s	s	n/a
73.5255	0.105	147051	keystroke_Key.space	Key.space	n/a
73.6755	0.09	147351	keystroke_s	s	n/a
73.8255	0.105	147651	keystroke_t	t	n/a
74.3055	0.075	148611	keystroke_y	y	n/a
74.4405	0.075	148881	keystroke_l	l	n/a
74.6355	0.09	149271	keystroke_e	e	n/a
74.7705	0.09	149541	keystroke_Key.space	Key.space	n/a
75.1305	0.105	150261	keystroke_m	m	n/a
75.2355	0.09	150471	keystroke_e	e	n/a
75.4305	0.0305	150861	keystroke_s	s	n/a
75.581	0.06	151162	keystroke_s	s	n/a
75.746	0.075	151492	keystroke_e	e	n/a
76.481	0.104	152962	keystroke_n	n	n/a
76.645	0.061	153290	keystroke_g	g	n/a
76.78	0.075	153560	keystroke_e	e	n/a
76.975	0.075	153950	keystroke_r	r	n/a
77.066	0.164	154132	keystroke_Key.enter	Key.enter	n/a
77.236	8.3055	154472	prompt	n/a	additions months asus demonstration\n
78.3105	0.135	156621	keystroke_a	a	n/a
78.4755	0.09	156951	keystroke_d	d	n/a
78.6555	0.075	157311	keystroke_d	d	n/a
78.7455	0.045	157491	keystroke_i	i	n/a
78.8505	0.09	157701	keystroke_t	t	n/a
78.9255	0.165	157851	keystroke_i	i	n/a
78.9855	0.135	157971	keystroke_o	o	n/a
79.0605	0.09	158121	keystroke_n	n	n/a
79.1205	0.09	158241	keystroke_s	s	n/a
79.2255	0.12	158451	keystroke_Key.space	Key.space	n/a
79.3305	0.105	158661	keystroke_m	m	n/a
79.4205	0.1345	158841	keystroke_o	o	n/a
79.525	0.09	159050	keystroke_n	n	n/a
79.585	0.09	159170	keystroke_t	t	n/a
79.675	0.105	159350	keystroke_h	h	n/a
79.81	0.06	159620	keystroke_s	s	n/a
79.945	0.09	159890	keystroke_Key.space	Key.space	n/a
80.08	0.135	160160	keystroke_a	a	n/a
80.47	0.075	160940	keystroke_u	u	n/a
80.83	0.03	161660	keystroke_s	s	n/a
81.295	0.045	162590	keystroke_Key.backspace	Key.backspace	n/a
81.475	0.0905	162950	keystroke_Key.backspace	Key.backspace	n/a
81.9405	0.09	163881	keystroke_s	s	n/a
82.1205	0.06	164241	keystroke_u	u	n/a
82.2105	0.09	164421	keystroke_s	s	n/a
82.5405	0.075	165081	keystroke_Key.space	Key.space	n/a
82.8405	0.075	165681	keystroke_d	d	n/a
83.0205	0.09	166041	keystroke_e	e	n/a
83.1255	0.105	166251	keystroke_m	m	n/a
83.2005	0.1495	166401	keystroke_o	o	n/a
83.32	0.135	166640	keystroke_n	n	n/a
83.41	0.09	166820	keystroke_s	s	n/a
83.56	0.075	167120	keystroke_t	t	n/a
83.6805	0.165	167361	keystroke_a	a	n/a
84.5205	0.09	169041	keystroke_Key.backspace	Key.backspace	n/a
84.7155	0.075	169431	keystroke_r	r	n/a
84.7605	0.12	169521	keystroke_a	a	n/a
85.0155	0.075	170031	keystroke_t	t	n/a
85.1205	0.195	170241	keystroke_i	i	n/a
85.1955	0.15	170391	keystroke_o	o	n/a
85.2705	0.105	170541	keystroke_n	n	n/a
85.4805	0.0595	170961	keystroke_Key.enter	Key.enter	n/a
85.5445	6.087	171089	prompt	n/a	domestic fear macedonia vendors\n
86.05	0.09	172100	keystroke_a	a	n/a
86.59	0.06	173180	keystroke_Key.backspace	Key.backspace	n/a
86.77	0.09	173540	keystroke_d	d	n/a
86.861	0.119	173722	keystroke_o	o	n/a
86.965	0.09	173930	keystroke_m	m	n/a
87.145	0.135	174290	keystroke_e	e	n/a
87.295	0.1205	174590	keystroke_s	s	n/a
87.4455	0.09	174891	keystroke_t	t	n/a
87.5505	0.075	175101	keystroke_i	i	n/a
87.6855	0.09	175371	keystroke_c	c	n/a
87.8205	0.09	175641	keystroke_Key.space	Key.space	n/a
87.9555	0.105	175911	keystroke_f	f	n/a
88.1205	0.15	176241	keystroke_e	e	n/a
88.2105	0.15	176421	keystroke_a	a	n/a
88.3905	0.12	176781	keystroke_r	r	n/a
88.4955	0.09	176991	keystroke_Key.space	Key.space	n/a
88.6905	0.12	177381	keystroke_m	m	n/a
88.8105	0.165	177621	keystroke_a	a	n/a
88.9605	0.09	177921	keystroke_c	c	n/a
89.1855	0.09	178371	keystroke_e	e	n/a
89.3955	0.09	178791	keystroke_d	d	n/a
89.6205	0.165	179241	keystroke_o	o	n/a
89.7405	0.09	179481	keystroke_n	n	n/a
89.9355	0.105	179871	keystroke_i	i	n/a
90.0105	0.12	180021	keystroke_a	a	n/a
90.1305	0.09	180261	keystroke_Key.space	Key.space	n/a
90.7605	0.06	181521	keystroke_v	v	n/a
90.9105	0.105	181821	keystroke_e	e	n/a
91.0005	0.045	182001	keystroke_n	n	n/a
91.1055	0.075	182211	keystroke_d	d	n/a
91.1955	0.105	182391	keystroke_o	o	n/a
91.3155	0.15	182631	keystroke_r	r	n/a
91.4205	0.105	182841	keystroke_s	s	n/a
91.5705	0.06	183141	keystroke_Key.enter	Key.enter	n/a
91.6345	7.542	183269	prompt	n/a	hence choice triumph oxide\n
92.651	0.045	185302	keystroke_h	h	n/a
92.711	0.105	185422	keystroke_e	e	n/a
92.801	0.074	185602	keystroke_n	n	n/a
92.891	0.149	185782	keystroke_c	c	n/a
93.01	0.09	186020	keystroke_e	e	n/a
93.16	0.105	186320	keystroke_Key.space	Key.space	n/a
93.535	0.12	187070	keystroke_c	c	n/a
93.67	0.105	187340	keystroke_h	h	n/a
93.835	0.15	187670	keystroke_o	o	n/a
93.941	0.134	187882	keystroke_i	i	n/a
94.06	0.15	188120	keystroke_c	c	n/a
94.1505	0.1195	188301	keystroke_e	e	n/a
94.225	0.105	188450	keystroke_Key.space	Key.space	n/a
94.615	0.075	189230	keystroke_t	t	n/a
94.795	0.075	189590	keystroke_r	r	n/a
94.901	0.089	189802	keystroke_i	i	n/a
95.141	0.104	190282	keystroke_u	u	n/a
95.32	0.12	190640	keystroke_m	m	n/a
95.41	0.105	190820	keystroke_p	p	n/a
96.2805	0.09	192561	keystroke_h	h	n/a
96.4305	0.105	192861	keystroke_Key.space	Key.space	n/a
96.7155	0.12	193431	keystroke_o	o	n/a
97.0005	0.09	194001	keystroke_x	x	n/a
97.1505	0.1045	194301	keystroke_i	i	n/a
97.345	0.03	194690	keystroke_d	d	n/a
97.705	0.105	195410	keystroke_e	e	n/a
97.855	0.045	195710	keystroke_'	'	n/a
98.845	0.09	197690	keystroke_Key.backspace	Key.backspace	n/a
99.115	0.06	198230	keystroke_Key.enter	Key.enter	n/a
99.18	6.672	198360	prompt	n/a	sister pieces screens anniversary\n
99.925	0.06	199850	keystroke_s	s	n/a
100.015	0.075	200030	keystroke_i	i	n/a
100.105	0.09	200210	keystroke_s	s	n/a
100.255	0.075	200510	keystroke_t	t	n/a
100.345	0.12	200690	keystroke_e	e	n/a
100.435	0.105	200870	keystroke_r	r	n/a
100.555	0.105	201110	keystroke_Key.space	Key.space	n/a
101.3505	0.06	202701	keystroke_p	p	n/a
101.5155	0.09	203031	keystroke_i	i	n/a
101.5605	0.12	203121	keystroke_e	e	n/a
101.6955	0.15	203391	keystroke_c	c	n/a
101.8155	0.21	203631	keystroke_e	e	n/a
101.9505	0.105	203901	keystroke_s	s	n/a
102.1155	0.12	204231	keystroke_Key.space	Key.space	n/a
102.6105	0.105	205221	keystroke_s	s	n/a
102.8055	0.105	205611	keystroke_c	c	n/a
103.0005	0.075	206001	keystroke_r	r	n/a
103.1655	0.06	206331	keystroke_e	e	n/a
103.3455	0.06	206691	keystroke_e	e	n/a
103.4355	0.09	206871	keystroke_n	n	n/a
103.5255	0.09	207051	keystroke_s	s	n/a
103.6455	0.09	207291	keystroke_Key.space	Key.space	n/a
103.8105	0.12	207621	keystroke_a	a	n/a
103.9455	0.045	207891	keystroke_n	n	n/a
104.0505	0.075	208101	keystroke_n	n	n/a
104.3505	0.105	208701	keystroke_i	i	n/a
104.4855	0.075	208971	keystroke_v	v	n/a
104.6505	0.075	209301	keystroke_e	e	n/a
104.8155	0.06	209631	keystroke_r	r	n/a
104.9055	0.15	209811	keystroke_s	s	n/a
105.1305	0.135	210261	keystroke_a	a	n/a
105.3855	0.105	210771	keystroke_r	r	n/a
105.5055	0.075	211011	keystroke_y	y	n/a
105.7905	0.06	211581	keystroke_Key.enter	Key.enter	n/a
105.8555	8.4715	211711	prompt	n/a	highlighted farmers owned positioning\n
106.6605	0.045	213321	keystroke_h	h	n/a
106.7955	0.09	213591	keystroke_i	i	n/a
106.9155	0.075	213831	keystroke_g	g	n/a
106.9755	0.075	213951	keystroke_h	h	n/a
107.0955	0.105	214191	keystroke_l	l	n/a
107.2605	0.105	214521	keystroke_i	i	n/a
107.3505	0.09	214701	keystroke_g	g	n/a
107.471	0.074	214942	keystroke_e	e	n/a
107.62	0.1205	215240	keystroke_t	t	n/a
107.9805	0.03	215961	keystroke_=	=	n/a
108.0855	0.06	216171	keystroke_=	=	n/a
108.5955	0.074	217191	keystroke_Key.backspace	Key.backspace	n/a
108.7305	0.0595	217461	keystroke_Key.backspace	Key.backspace	n/a
108.851	0.045	217702	keystroke_Key.backspace	Key.backspace	n/a
108.956	0.09	217912	keystroke_Key.backspace	Key.backspace	n/a
109.54	0.09	219080	keystroke_h	h	n/a
109.615	0.136	219230	keystroke_t	t	n/a
109.72	0.091	219440	keystroke_e	e	n/a
109.885	0.09	219770	keystroke_d	d	n/a
110.05	0.12	220100	keystroke_Key.space	Key.space	n/a
110.9055	0.12	221811	keystroke_f	f	n/a
111.0105	0.15	222021	keystroke_a	a	n/a
111.1455	0.105	222291	keystroke_r	r	n/a
111.2355	0.105	222471	keystroke_m	m	n/a
111.3555	0.09	222711	keystroke_e	e	n/a
111.505	0.1205	223010	keystroke_r	r	n/a
111.5655	0.105	223131	keystroke_s	s	n/a
111.6855	0.075	223371	keystroke_Key.space	Key.space	n/a
111.8655	0.0895	223731	keystroke_o	o	n/a
111.895	0.15	223790	keystroke_w	w	n/a
112.075	0.09	224150	keystroke_n	n	n/a
112.15	0.105	224300	keystroke_e	e	n/a
112.375	0.09	224750	keystroke_Key.space	Key.space	n/a
112.555	0.105	225110	keystroke_p	p	n/a
112.75	0.105	225500	keystroke_o	o	n/a
112.87	0.105	225740	keystroke_s	s	n/a
113.05	0.105	226100	keystroke_t	t	n/a
113.11	0.18	226220	keystroke_i	i	n/a
113.2	0.105	226400	keystroke_o	o	n/a
113.245	0.12	226490	keystroke_n	n	n/a
113.62	0.135	227240	keystroke_i	i	n/a
113.68	0.105	227360	keystroke_n	n	n/a
113.77	0.075	227540	keystroke_g	g	n/a
114.22	0.105	228440	keystroke_Key.enter	Key.enter	n/a
114.3305	12.0565	228661	prompt	n/a	elizabeth winter liberty optics\n
115.36	0.1205	230720	keystroke_i	i	n/a
115.5105	0.09	231021	keystroke_l	l	n/a
115.7205	0.12	231441	keystroke_a	a	n/a
117.2805	0.06	234561	keystroke_Key.backspace	Key.backspace	n/a
117.4305	0.03	234861	keystroke_Key.backspace	Key.backspace	n/a
117.5355	0.12	235071	keystroke_Key.backspace	Key.backspace	n/a
118.0905	0.1045	236181	keystroke_e	e	n/a
118.2705	0.075	236541	keystroke_l	l	n/a
118.4055	0.09	236811	keystroke_i	i	n/a
119.065	0.12	238130	keystroke_z	z	n/a
119.275	0.12	238550	keystroke_a	a	n/a
119.41	0.09	238820	keystroke_b	b	n/a
119.725	0.09	239450	keystroke_t	t	n/a
119.845	0.075	239690	keystroke_h	h	n/a
120.4305	0.045	240861	keystroke_Key.backspace	Key.backspace	n/a
120.6255	0.075	241251	keystroke_Key.backspace	Key.backspace	n/a
120.9105	0.09	241821	keystroke_e	e	n/a
121.0755	0.105	242151	keystroke_t	t	n/a
121.1655	0.105	242331	keystroke_h	h	n/a
121.6005	0.105	243201	keystroke_Key.space	Key.space	n/a
121.7655	0.12	243531	keystroke_w	w	n/a
121.8705	0.12	243741	keystroke_i	i	n/a
121.9305	0.09	243861	keystroke_n	n	n/a
121.9755	0.075	243951	keystroke_t	t	n/a
122.0955	0.105	244191	keystroke_e	e	n/a
122.1855	0.075	244371	keystroke_r	r	n/a
122.2905	0.09	244581	keystroke_Key.space	Key.space	n/a
122.3955	0.06	244791	keystroke_l	l	n/a
122.5755	0.15	245151	keystroke_i	i	n/a
122.6655	0.075	245331	keystroke_n	n	n/a
123.0405	0.075	246081	keystroke_Key.backspace	Key.backspace	n/a
123.1455	0.105	246291	keystroke_b	b	n/a
123.4455	0.12	246891	keystroke_e	e	n/a
123.6105	0.09	247221	keystroke_t	t	n/a
123.7155	0.12	247431	keystroke_e	e	n/a
123.8205	0.09	247641	keystroke_r	r	n/a
123.9405	0.09	247881	keystroke_y	y	n/a
124.1205	0.09	248241	keystroke_Key.space	Key.space	n/a
124.3455	0.015	248691	keystroke_o	o	n/a
124.9305	0.06	249861	keystroke_p	p	n/a
125.0055	0.105	250011	keystroke_t	t	n/a
125.9055	0.075	251811	keystroke_r	r	n/a
126.0105	0.105	252021	keystroke_i	i	n/a
126.1305	0.135	252261	keystroke_c	c	n/a
126.2505	0.075	252501	keystroke_s	s	n/a
126.3265	0.059	252653	keystroke_Key.enter	Key.enter	n/a
126.3895	5.8925	252779	prompt	n/a	polish internet latvia departure\n
127.2105	0.015	254421	keystroke_p	p	n/a
127.3155	0.075	254631	keystroke_o	o	n/a
127.5105	0.045	255021	keystroke_l	l	n/a
127.6455	0.09	255291	keystroke_i	i	n/a
127.7655	0.135	255531	keystroke_c	c	n/a
127.9155	0.075	255831	keystroke_Key.space	Key.space	n/a
128.1555	0.165	256311	keystroke_i	i	n/a
128.2455	0.135	256491	keystroke_n	n	n/a
128.3055	0.09	256611	keystroke_t	t	n/a
128.4405	0.135	256881	keystroke_e	e	n/a
128.5455	0.105	257091	keystroke_r	r	n/a
129.0405	0.09	258081	keystroke_n	n	n/a
129.1155	0.105	258231	keystroke_e	e	n/a
129.2955	0.105	258591	keystroke_t	t	n/a
129.4155	0.12	258831	keystroke_Key.space	Key.space	n/a
129.6405	0.12	259281	keystroke_l	l	n/a
129.7455	0.12	259491	keystroke_a	a	n/a
129.8505	0.105	259701	keystroke_t	t	n/a
129.9855	0.105	259971	keystroke_i	i	n/a
130.0755	0.15	260151	keystroke_v	v	n/a
130.2105	0.135	260421	keystroke_a	a	n/a
130.3605	0.09	260721	keystroke_Key.space	Key.space	n/a
130.6305	0.075	261261	keystroke_d	d	n/a
130.81	0.09	261620	keystroke_e	e	n/a
130.885	0.09	261770	keystroke_p	p	n/a
130.9605	0.1495	261921	keystroke_a	a	n/a
131.26	0.045	262520	keystroke_r	r	n/a
131.71	0.045	263420	keystroke_t	t	n/a
131.89	0.09	263780	keystroke_u	u	n/a
132.025	0.135	264050	keystroke_r	r	n/a
132.085	0.12	264170	keystroke_e	e	n/a
132.2205	0.0595	264441	keystroke_Key.enter	Key.enter	n/a
132.2845	6.1925	264569	prompt	n/a	thus remix surname alexandria\n
132.8805	0.09	265761	keystroke_t	t	n/a
133.0005	0.045	266001	keystroke_h	h	n/a
133.1505	0.075	266301	keystroke_u	u	n/a
133.1805	0.09	266361	keystroke_s	s	n/a
133.3155	0.09	266631	keystroke_Key.space	Key.space	n/a
133.3905	0.075	266781	keystroke_r	r	n/a
133.5555	0.09	267111	keystroke_e	e	n/a
133.5855	0.12	267171	keystroke_m	m	n/a
133.69	0.1205	267380	keystroke_i	i	n/a
133.8105	0.12	267621	keystroke_x	x	n/a
133.9605	0.09	267921	keystroke_Key.space	Key.space	n/a
134.0655	0.105	268131	keystroke_s	s	n/a
134.2005	0.105	268401	keystroke_e	e	n/a
134.4255	0.06	268851	keystroke_n	n	n/a
134.8755	0.075	269751	keystroke_Key.backspace	Key.backspace	n/a
135.0105	0.105	270021	keystroke_Key.backspace	Key.backspace	n/a
135.4455	0.075	270891	keystroke_u	u	n/a
135.5055	0.09	271011	keystroke_r	r	n/a
135.6105	0.075	271221	keystroke_n	n	n/a
135.7005	0.12	271401	keystroke_a	a	n/a
135.7905	0.09	271581	keystroke_m	m	n/a
135.9105	0.09	271821	keystroke_e	e	n/a
135.9855	0.12	271971	keystroke_Key.space	Key.space	n/a
136.2405	0.12	272481	keystroke_a	a	n/a
136.3455	0.075	272691	keystroke_l	l	n/a
136.4505	0.075	272901	keystroke_e	e	n/a
136.6455	0.105	273291	keystroke_x	x	n/a
136.8105	0.09	273621	keystroke_n	n	n/a
137.5755	0.0895	275151	keystroke_Key.backspace	Key.backspace	n/a
137.6805	0.09	275361	keystroke_a	a	n/a
137.8005	0.075	275601	keystroke_n	n	n/a
137.9055	0.09	275811	keystroke_d	d	n/a
138.0705	0.105	276141	keystroke_r	r	n/a
138.1455	0.09	276291	keystroke_i	i	n/a
138.2655	0.12	276531	keystroke_a	a	n/a
138.4005	0.075	276801	keystroke_Key.enter	Key.enter	n/a
138.4795	5.787	276959	prompt	n/a	hood forty properties streaming\n
139.3755	0.06	278751	keystroke_h	h	n/a
139.5555	0.045	279111	keystroke_o	o	n/a
139.6755	0.075	279351	keystroke_o	o	n/a
139.8105	0.09	279621	keystroke_d	d	n/a
139.9905	0.09	279981	keystroke_Key.space	Key.space	n/a
140.2155	0.105	280431	keystroke_f	f	n/a
140.3055	0.06	280611	keystroke_o	o	n/a
140.4405	0.105	280881	keystroke_r	r	n/a
140.6505	0.06	281301	keystroke_t	t	n/a
140.8005	0.09	281601	keystroke_y	y	n/a
140.9205	0.105	281841	keystroke_Key.space	Key.space	n/a
141.2055	0.09	282411	keystroke_p	p	n/a
141.4605	0.105	282921	keystroke_r	r	n/a
141.5355	0.045	283071	keystroke_o	o	n/a
141.6705	0.09	283341	keystroke_p	p	n/a
141.7755	0.075	283551	keystroke_e	e	n/a
141.9105	0.105	283821	keystroke_r	r	n/a
142.4955	0.045	284991	keystroke_t	t	n/a
142.5705	0.06	285141	keystroke_i	i	n/a
142.6755	0.15	285351	keystroke_e	e	n/a
142.7655	0.12	285531	keystroke_s	s	n/a
142.9005	0.12	285801	keystroke_Key.space	Key.space	n/a
143.0355	0.06	286071	keystroke_s	s	n/a
143.1555	0.06	286311	keystroke_t	t	n/a
143.4405	0.09	286881	keystroke_r	r	n/a
143.5305	0.165	287061	keystroke_e	e	n/a
143.6355	0.15	287271	keystroke_a	a	n/a
143.8005	0.09	287601	keystroke_m	m	n/a
143.9355	0.135	287871	keystroke_i	i	n/a
144.0105	0.105	288021	keystroke_n	n	n/a
144.0855	0.075	288171	keystroke_g	g	n/a
144.1905	0.075	288381	keystroke_Key.enter	Key.enter	n/a
144.2695	6.972	288539	prompt	n/a	beverage model invite programmers\n
144.8805	0.09	289761	keystroke_b	b	n/a
144.9855	0.105	289971	keystroke_e	e	n/a
145.2255	0.105	290451	keystroke_v	v	n/a
145.3905	0.09	290781	keystroke_e	e	n/a
145.5555	0.135	291111	keystroke_r	r	n/a
145.6755	0.15	291351	keystroke_a	a	n/a
145.8105	0.135	291621	keystroke_g	g	n/a
145.9005	0.105	291801	keystroke_e	e	n/a
146.0205	0.09	292041	keystroke_Key.space	Key.space	n/a
146.1555	0.135	292311	keystroke_m	m	n/a
146.2755	0.105	292551	keystroke_i	i	n/a
146.3655	0.12	292731	keystroke_d	d	n/a
146.8005	0.045	293601	keystroke_Key.backspace	Key.backspace	n/a
146.891	0.0895	293782	keystroke_Key.backspace	Key.backspace	n/a
147.326	0.059	294652	keystroke_o	o	n/a
147.401	0.09	294802	keystroke_d	d	n/a
147.596	0.09	295192	keystroke_e	e	n/a
147.7	0.045	295400	keystroke_l	l	n/a
147.895	0.075	295790	keystroke_Key.space	Key.space	n/a
148.2705	0.1495	296541	keystroke_i	i	n/a
148.39	0.105	296780	keystroke_n	n	n/a
148.66	0.09	297320	keystroke_v	v	n/a
148.78	0.091	297560	keystroke_i	i	n/a
148.901	0.164	297802	keystroke_t	t	n/a
149.035	0.09	298070	keystroke_e	e	n/a
149.186	0.089	298372	keystroke_Key.space	Key.space	n/a
149.41	0.09	298820	keystroke_p	p	n/a
149.56	0.105	299120	keystroke_r	r	n/a
149.845	0.09	299690	keystroke_o	o	n/a
150.07	0.091	300140	keystroke_g	g	n/a
150.22	0.15	300440	keystroke_r	r	n/a
150.326	0.119	300652	keystroke_a	a	n/a
150.446	0.044	300892	keystroke_m	m	n/a
150.551	0.075	301102	keystroke_m	m	n/a
150.655	0.075	301310	keystroke_e	e	n/a
150.805	0.135	301610	keystroke_r	r	n/a
150.881	0.104	301762	keystroke_s	s	n/a
151.18	0.06	302360	keystroke_Key.enter	Key.enter	n/a
151.245	9.7915	302490	prompt	n/a	fundamental demonstration seekers functions\n
152.035	0.105	304070	keystroke_f	f	n/a
152.2	0.12	304400	keystroke_u	u	n/a
152.335	0.09	304670	keystroke_n	n	n/a
152.381	0.074	304762	keystroke_d	d	n/a
152.56	0.1055	305120	keystroke_e	e	n/a
153.1905	0.03	306381	keystroke_Key.backspace	Key.backspace	n/a
153.8205	0.12	307641	keystroke_a	a	n/a
154.0905	0.09	308181	keystroke_m	m	n/a
154.1955	0.105	308391	keystroke_e	e	n/a
154.3155	0.075	308631	keystroke_n	n	n/a
154.3755	0.135	308751	keystroke_t	t	n/a
154.5255	0.105	309051	keystroke_a	a	n/a
155.2005	0.075	310401	keystroke_l	l	n/a
155.3205	0.105	310641	keystroke_Key.space	Key.space	n/a
155.5445	0.091	311089	keystroke_d	d	n/a
155.7405	0.089	311481	keystroke_e	e	n/a
155.9055	0.15	311811	keystroke_m	m	n/a
155.9795	0.151	311959	keystroke_o	o	n/a
156.1605	0.105	312321	keystroke_s	s	n/a
156.3255	0.075	312651	keystroke_t	t	n/a
156.4595	0.151	312919	keystroke_a	a	n/a
157.1355	0.09	314271	keystroke_Key.backspace	Key.backspace	n/a
157.2405	0.105	314481	keystroke_r	r	n/a
157.3155	0.12	314631	keystroke_a	a	n/a
157.4655	0.09	314931	keystroke_t	t	n/a
157.5705	0.18	315141	keystroke_i	i	n/a
157.6455	0.12	315291	keystroke_o	o	n/a
157.6905	0.105	315381	keystroke_n	n	n/a
157.8255	0.135	315651	keystroke_Key.space	Key.space	n/a
157.9755	0.045	315951	keystroke_s	s	n/a
158.1555	0.089	316311	keystroke_e	e	n/a
158.3655	0.075	316731	keystroke_e	e	n/a
159.0705	0.0895	318141	keystroke_k	k	n/a
159.145	0.09	318290	keystroke_e	e	n/a
159.325	0.121	318650	keystroke_r	r	n/a
159.385	0.106	318770	keystroke_s	s	n/a
159.475	0.12	318950	keystroke_Key.space	Key.space	n/a
159.596	0.089	319192	keystroke_f	f	n/a
159.7	0.135	319400	keystroke_u	u	n/a
159.805	0.1055	319610	keystroke_n	n	n/a
159.8805	0.105	319761	keystroke_c	c	n/a
160.3605	0.045	320721	keystroke_t	t	n/a
160.6	0.2105	321200	keystroke_i	i	n/a
160.705	0.1205	321410	keystroke_o	o	n/a
160.735	0.1205	321470	keystroke_n	n	n/a
160.8555	0.075	321711	keystroke_s	s	n/a
160.9755	0.06	321951	keystroke_Key.enter	Key.enter	n/a
161.041	6.5355	322082	prompt	n/a	lending weddings sons broadcast\n
161.6505	0.09	323301	keystroke_l	l	n/a
161.8905	0.09	323781	keystroke_e	e	n/a
161.9955	0.105	323991	keystroke_n	n	n/a
162.1305	0.075	324261	keystroke_d	d	n/a
162.2205	0.12	324441	keystroke_i	i	n/a
162.2805	0.09	324561	keystroke_n	n	n/a
162.3555	0.09	324711	keystroke_g	g	n/a
162.4605	0.105	324921	keystroke_Key.space	Key.space	n/a
163.1955	0.105	326391	keystroke_w	w	n/a
163.3905	0.09	326781	keystroke_e	e	n/a
163.7505	0.06	327501	keystroke_d	d	n/a
163.9005	0.105	327801	keystroke_d	d	n/a
164.0205	0.135	328041	keystroke_i	i	n/a
164.0955	0.12	328191	keystroke_n	n	n/a
164.1105	0.15	328221	keystroke_g	g	n/a
164.2305	0.075	328461	keystroke_s	s	n/a
164.3355	0.105	328671	keystroke_Key.space	Key.space	n/a
164.5005	0.09	329001	keystroke_s	s	n/a
164.5755	0.12	329151	keystroke_o	o	n/a
164.6655	0.0895	329331	keystroke_n	n	n/a
164.7405	0.075	329481	keystroke_s	s	n/a
164.9205	0.06	329841	keystroke_Key.space	Key.space	n/a
165.1305	0.105	330261	keystroke_b	b	n/a
165.2505	0.105	330501	keystroke_r	r	n/a
165.3555	0.075	330711	keystroke_o	o	n/a
166.0005	0.075	332001	keystroke_a	a	n/a
166.3905	0.015	332781	keystroke_d	d	n/a
166.5105	0.135	333021	keystroke_c	c	n/a
166.8395	0.136	333679	keystroke_a	a	n/a
166.9445	0.1355	333889	keystroke_s	s	n/a
167.185	0.09	334370	keystroke_t	t	n/a
167.53	0.045	335060	keystroke_Key.enter	Key.enter	n/a
167.5815	11.29	335163	prompt	n/a	expand chrome equilibrium relationships\n
168.115	0.105	336230	keystroke_e	e	n/a
168.34	0.105	336680	keystroke_x	x	n/a
168.475	0.105	336950	keystroke_p	p	n/a
168.97	0.12	337940	keystroke_a	a	n/a
169.075	0.06	338150	keystroke_n	n	n/a
169.165	0.09	338330	keystroke_d	d	n/a
169.285	0.12	338570	keystroke_Key.space	Key.space	n/a
169.555	0.06	339110	keystroke_c	c	n/a
169.615	0.09	339230	keystroke_h	h	n/a
170.05	0.03	340100	keystroke_r	r	n/a
170.7555	0.12	341511	keystroke_o	o	n/a
170.8155	0.09	341631	keystroke_m	m	n/a
170.8905	0.105	341781	keystroke_e	e	n/a
171.0855	0.105	342171	keystroke_Key.space	Key.space	n/a
172	0.06	344000	keystroke_e	e	n/a
172.135	0.105	344270	keystroke_q	q	n/a
172.33	0.075	344660	keystroke_u	u	n/a
173.7255	0.06	347451	keystroke_i	i	n/a
174.1295	0.09	348259	keystroke_l	l	n/a
174.325	0.09	348650	keystroke_i	i	n/a
174.5805	0.0745	349161	keystroke_b	b	n/a
174.76	0.105	349520	keystroke_r	r	n/a
175.6	0.045	351200	keystroke_i	i	n/a
175.735	0.075	351470	keystroke_u	u	n/a
175.885	0.09	351770	keystroke_m	m	n/a
176.05	0.12	352100	keystroke_Key.space	Key.space	n/a
176.395	0.09	352790	keystroke_r	r	n/a
176.59	0.075	353180	keystroke_e	e	n/a
176.68	0.075	353360	keystroke_l	l	n/a
176.77	0.12	353540	keystroke_a	a	n/a
176.92	0.1055	353840	keystroke_t	t	n/a
177.01	0.195	354020	keystroke_i	i	n/a
177.07	0.12	354140	keystroke_o	o	n/a
177.145	0.12	354290	keystroke_n	n	n/a
177.295	0.075	354590	keystroke_s	s	n/a
177.925	0.06	355850	keystroke_h	h	n/a
178.195	0.12	356390	keystroke_i	i	n/a
178.225	0.135	356450	keystroke_p	p	n/a
178.705	0.075	357410	keystroke_s	s	n/a
178.81	0.06	357620	keystroke_Key.enter	Key.enter	n/a
178.8755	6.7915	357751	prompt	n/a	wallet contracting stayed elite\n
179.545	0.06	359090	keystroke_w	w	n/a
179.68	0.135	359360	keystroke_a	a	n/a
179.816	0.059	359632	keystroke_l	l	n/a
179.935	0.075	359870	keystroke_l	l	n/a
180.04	0.12	360080	keystroke_e	e	n/a
180.88	0.105	361760	keystroke_t	t	n/a
181.015	0.135	362030	keystroke_Key.space	Key.space	n/a
181.21	0.105	362420	keystroke_c	c	n/a
181.33	0.09	362660	keystroke_o	o	n/a
181.39	0.12	362780	keystroke_n	n	n/a
181.495	0.075	362990	keystroke_t	t	n/a
181.645	0.105	363290	keystroke_r	r	n/a
181.735	0.135	363470	keystroke_a	a	n/a
181.87	0.12	363740	keystroke_c	c	n/a
182.11	0.075	364220	keystroke_t	t	n/a
182.215	0.135	364430	keystroke_i	i	n/a
182.305	0.09	364610	keystroke_n	n	n/a
182.35	0.09	364700	keystroke_g	g	n/a
182.5	0.105	365000	keystroke_Key.space	Key.space	n/a
182.755	0.135	365510	keystroke_s	s	n/a
182.905	0.12	365810	keystroke_t	t	n/a
183.01	0.105	366020	keystroke_a	a	n/a
183.355	0.09	366710	keystroke_u	u	n/a
183.895	0.06	367790	keystroke_Key.backspace	Key.backspace	n/a
184.195	0.03	368390	keystroke_y	y	n/a
184.255	0.12	368510	keystroke_e	e	n/a
184.525	0.09	369050	keystroke_d	d	n/a
184.675	0.09	369350	keystroke_Key.space	Key.space	n/a
184.855	0.105	369710	keystroke_e	e	n/a
184.945	0.045	369890	keystroke_l	l	n/a
185.095	0.09	370190	keystroke_i	i	n/a
185.17	0.105	370340	keystroke_t	t	n/a
185.455	0.09	370910	keystroke_e	e	n/a
185.59	0.075	371180	keystroke_Key.enter	Key.enter	n/a
185.6715	4.72	371343	prompt	n/a	regarded monthly sound suzuki\n
186.28	0.075	372560	keystroke_r	r	n/a
186.445	0.075	372890	keystroke_e	e	n/a
186.55	0.12	373100	keystroke_g	g	n/a
186.655	0.105	373310	keystroke_a	a	n/a
186.745	0.12	373490	keystroke_r	r	n/a
186.925	0.12	373850	keystroke_d	d	n/a
187.105	0.075	374210	keystroke_e	e	n/a
187.2555	0.09	374511	keystroke_d	d	n/a
187.3605	0.12	374721	keystroke_Key.space	Key.space	n/a
187.4955	0.12	374991	keystroke_m	m	n/a
187.5555	0.135	375111	keystroke_o	o	n/a
187.6455	0.12	375291	keystroke_n	n	n/a
187.7805	0.075	375561	keystroke_t	t	n/a
187.8405	0.09	375681	keystroke_h	h	n/a
188.0355	0.045	376071	keystroke_l	l	n/a
188.0955	0.09	376191	keystroke_y	y	n/a
188.2005	0.09	376401	keystroke_Key.space	Key.space	n/a
188.3505	0.09	376701	keystroke_s	s	n/a
188.4255	0.18	376851	keystroke_o	o	n/a
188.5005	0.135	377001	keystroke_u	u	n/a
188.6205	0.09	377241	keystroke_n	n	n/a
188.7255	0.105	377451	keystroke_d	d	n/a
188.8155	0.105	377631	keystroke_Key.space	Key.space	n/a
189.2355	0.075	378471	keystroke_s	s	n/a
189.4455	0.09	378891	keystroke_u	u	n/a
189.5805	0.105	379161	keystroke_z	z	n/a
189.7155	0.105	379431	keystroke_i	i	n/a
189.9405	0.06	379881	keystroke_k	k	n/a
190.1205	0.06	380241	keystroke_i	i	n/a
190.3305	0.06	380661	keystroke_Key.enter	Key.enter	n/a
190.396	8.8905	380792	prompt	n/a	partial maritime polyphonic hired\n
191.125	0.0455	382250	keystroke_p	p	n/a
191.1855	0.09	382371	keystroke_a	a	n/a
191.3055	0.09	382611	keystroke_r	r	n/a
191.5005	0.075	383001	keystroke_t	t	n/a
191.5905	0.075	383181	keystroke_i	i	n/a
191.7255	0.12	383451	keystroke_a	a	n/a
191.8305	0.06	383661	keystroke_l	l	n/a
191.9355	0.105	383871	keystroke_Key.space	Key.space	n/a
192.0855	0.09	384171	keystroke_m	m	n/a
192.1455	0.105	384291	keystroke_a	a	n/a
192.7605	0.06	385521	keystroke_r	r	n/a
192.8805	0.105	385761	keystroke_i	i	n/a
193.1505	0.105	386301	keystroke_t	t	n/a
193.5095	0.121	387019	keystroke_i	i	n/a
193.6745	0.12	387349	keystroke_m	m	n/a
193.7805	0.09	387561	keystroke_e	e	n/a
193.8845	0.09	387769	keystroke_Key.space	Key.space	n/a
194.0355	0.09	388071	keystroke_p	p	n/a
194.2455	0.09	388491	keystroke_o	o	n/a
194.5455	0.045	389091	keystroke_l	l	n/a
195.5955	0.105	391191	keystroke_u	u	n/a
196.3595	0.061	392719	keystroke_p	p	n/a
196.6905	0.105	393381	keystroke_h	h	n/a
196.8255	0.119	393651	keystroke_o	o	n/a
197.0045	0.075	394009	keystroke_n	n	n/a
197.1995	0.09	394399	keystroke_i	i	n/a
197.3045	0.121	394609	keystroke_c	c	n/a
197.4095	0.105	394819	keystroke_Key.space	Key.space	n/a
197.6645	0.076	395329	keystroke_h	h	n/a
197.8595	0.09	395719	keystroke_i	i	n/a
197.9645	0.135	395929	keystroke_r	r	n/a
198.4155	0.045	396831	keystroke_r	r	n/a
198.8795	0.0905	397759	keystroke_Key.backspace	Key.backspace	n/a
198.9845	0.061	397969	keystroke_e	e	n/a
199.1495	0.076	398299	keystroke_d	d	n/a
199.2395	0.045	398479	keystroke_Key.enter	Key.enter	n/a
199.2905	9.626	398581	prompt	n/a	submit yield colleges equity\n
200.3195	0.09	400639	keystroke_s	s	n/a
200.4555	0.165	400911	keystroke_u	u	n/a
200.5595	0.106	401119	keystroke_b	b	n/a
200.7995	0.15	401599	keystroke_m	m	n/a
200.9345	0.12	401869	keystroke_i	i	n/a
200.9645	0.136	401929	keystroke_t	t	n/a
201.1145	0.09	402229	keystroke_e	e	n/a
201.2945	0.076	402589	keystroke_d	d	n/a
202.1945	0.03	404389	keystroke_Key.backspace	Key.backspace	n/a
202.3005	0.06	404601	keystroke_Key.backspace	Key.backspace	n/a
202.6605	0.119	405321	keystroke_Key.space	Key.space	n/a
203.3055	0.074	406611	keystroke_y	y	n/a
203.53	0.0905	407060	keystroke_i	i	n/a
203.6655	0.12	407331	keystroke_e	e	n/a
203.8005	0.045	407601	keystroke_k	k	n/a
203.9055	0.075	407811	keystroke_d	d	n/a
204.5805	0.075	409161	keystroke_Key.backspace	Key.backspace	n/a
204.7155	0.075	409431	keystroke_Key.backspace	Key.backspace	n/a
205.1805	0.075	410361	keystroke_l	l	n/a
205.2705	0.105	410541	keystroke_d	d	n/a
205.705	0.12	411410	keystroke_Key.space	Key.space	n/a
205.9	0.105	411800	keystroke_c	c	n/a
205.975	0.045	411950	keystroke_o	o	n/a
206.125	0.045	412250	keystroke_l	l	n/a
206.215	0.06	412430	keystroke_l	l	n/a
206.32	0.075	412640	keystroke_e	e	n/a
206.41	0.135	412820	keystroke_g	g	n/a
206.53	0.1495	413060	keystroke_e	e	n/a
206.62	0.1195	413240	keystroke_s	s	n/a
206.7105	0.119	413421	keystroke_Key.space	Key.space	n/a
207.2195	0.0755	414439	keystroke_e	e	n/a
207.3545	0.12	414709	keystroke_q	q	n/a
207.4895	0.045	414979	keystroke_u	u	n/a
207.61	0.105	415220	keystroke_i	i	n/a
207.73	0.105	415460	keystroke_t	t	n/a
207.925	0.09	415850	keystroke_y	y	n/a
208.1205	0.0895	416241	keystroke_Key.space	Key.space	n/a
208.8545	0.06	417709	keystroke_Key.enter	Key.enter	n/a
208.92	5.5315	417840	prompt	n/a	flower banks charming allocated\n
209.5745	0.105	419149	keystroke_f	f	n/a
209.6645	0.06	419329	keystroke_l	l	n/a
209.8295	0.045	419659	keystroke_o	o	n/a
209.9795	0.06	419959	keystroke_w	w	n/a
210.1145	0.105	420229	keystroke_e	e	n/a
210.2945	0.105	420589	keystroke_r	r	n/a
210.3845	0.075	420769	keystroke_Key.space	Key.space	n/a
210.4895	0.075	420979	keystroke_b	b	n/a
210.5795	0.12	421159	keystroke_a	a	n/a
210.6845	0.06	421369	keystroke_n	n	n/a
210.7145	0.12	421429	keystroke_k	k	n/a
210.8645	0.075	421729	keystroke_s	s	n/a
210.9695	0.09	421939	keystroke_Key.space	Key.space	n/a
211.4045	0.12	422809	keystroke_c	c	n/a
211.4795	0.06	422959	keystroke_h	h	n/a
211.5545	0.15	423109	keystroke_a	a	n/a
211.6595	0.0905	423319	keystroke_m	m	n/a
212.3045	0.06	424609	keystroke_Key.backspace	Key.backspace	n/a
212.4095	0.075	424819	keystroke_r	r	n/a
212.5295	0.105	425059	keystroke_m	m	n/a
212.7845	0.15	425569	keystroke_i	i	n/a
212.8595	0.1055	425719	keystroke_n	n	n/a
212.9495	0.075	425899	keystroke_g	g	n/a
213.055	0.12	426110	keystroke_Key.space	Key.space	n/a
213.4	0.105	426800	keystroke_a	a	n/a
213.52	0.03	427040	keystroke_l	l	n/a
213.61	0.06	427220	keystroke_l	l	n/a
213.76	0.06	427520	keystroke_o	o	n/a
213.805	0.135	427610	keystroke_c	c	n/a
213.925	0.15	427850	keystroke_a	a	n/a
214.06	0.12	428120	keystroke_t	t	n/a
214.165	0.06	428330	keystroke_e	e	n/a
214.3	0.075	428600	keystroke_d	d	n/a
214.39	0.06	428780	keystroke_Key.enter	Key.enter	n/a
214.455	6.5815	428910	prompt	n/a	samuel butler bosnia vegetable\n
215.065	0.045	430130	keystroke_s	s	n/a
215.185	0.12	430370	keystroke_a	a	n/a
215.29	0.075	430580	keystroke_m	m	n/a
215.5	0.09	431000	keystroke_u	u	n/a
215.62	0.09	431240	keystroke_e	e	n/a
215.725	0.06	431450	keystroke_l	l	n/a
215.86	0.105	431720	keystroke_Key.space	Key.space	n/a
216.055	0.105	432110	keystroke_b	b	n/a
216.145	0.09	432290	keystroke_u	u	n/a
216.28	0.06	432560	keystroke_t	t	n/a
216.58	0.075	433160	keystroke_l	l	n/a
216.67	0.135	433340	keystroke_e	e	n/a
216.79	0.105	433580	keystroke_r	r	n/a
216.925	0.09	433850	keystroke_Key.space	Key.space	n/a
217.27	0.09	434540	keystroke_b	b	n/a
217.435	0.09	434870	keystroke_o	o	n/a
217.615	0.09	435230	keystroke_s	s	n/a
217.99	0.165	435980	keystroke_n	n	n/a
218.11	0.09	436220	keystroke_i	i	n/a
218.2	0.1345	436400	keystroke_a	a	n/a
218.3195	0.075	436639	keystroke_Key.space	Key.space	n/a
218.6045	0.09	437209	keystroke_v	v	n/a
218.7695	0.12	437539	keystroke_e	e	n/a
218.9495	0.09	437899	keystroke_g	g	n/a
219.6995	0.06	439399	keystroke_e	e	n/a
219.8495	0.135	439699	keystroke_t	t	n/a
219.9995	0.06	439999	keystroke_a	a	n/a
220.6595	0.135	441319	keystroke_b	b	n/a
220.7645	0.075	441529	keystroke_l	l	n/a
220.8245	0.09	441649	keystroke_e	e	n/a
220.9595	0.075	441919	keystroke_Key.enter	Key.enter	n/a
221.04	4.2715	442080	prompt	n/a	diamond struct internet wages\n
221.5895	0.075	443179	keystroke_d	d	n/a
221.9045	0.09	443809	keystroke_a	a	n/a
221.9795	0.195	443959	keystroke_m	m	n/a
222.13	0.2095	444260	keystroke_o	o	n/a
222.3095	0.105	444619	keystroke_n	n	n/a
222.4295	0.105	444859	keystroke_d	d	n/a
222.5195	0.105	445039	keystroke_Key.space	Key.space	n/a
222.655	0.105	445310	keystroke_s	s	n/a
222.79	0.09	445580	keystroke_t	t	n/a
222.97	0.105	445940	keystroke_r	r	n/a
223.06	0.09	446120	keystroke_u	u	n/a
223.18	0.105	446360	keystroke_c	c	n/a
223.39	0.075	446780	keystroke_t	t	n/a
223.51	0.09	447020	keystroke_Key.space	Key.space	n/a
223.735	0.135	447470	keystroke_i	i	n/a
223.81	0.105	447620	keystroke_n	n	n/a
223.84	0.09	447680	keystroke_t	t	n/a
223.9455	0.134	447891	keystroke_e	e	n/a
224.0645	0.105	448129	keystroke_r	r	n/a
224.2005	0.09	448401	keystroke_n	n	n/a
224.2755	0.105	448551	keystroke_e	e	n/a
224.4255	0.09	448851	keystroke_t	t	n/a
224.5445	0.105	449089	keystroke_Key.space	Key.space	n/a
224.6805	0.15	449361	keystroke_w	w	n/a
224.7855	0.135	449571	keystroke_a	a	n/a
224.9355	0.105	449871	keystroke_g	g	n/a
225.0255	0.15	450051	keystroke_e	e	n/a
225.1155	0.105	450231	keystroke_s	s	n/a
225.2495	0.061	450499	keystroke_Key.enter	Key.enter	n/a
225.315	8.066	450630	prompt	n/a	independently netherlands socket guards\n
225.9855	0.12	451971	keystroke_i	i	n/a
226.0905	0.075	452181	keystroke_n	n	n/a
226.1355	0.09	452271	keystroke_d	d	n/a
226.3455	0.09	452691	keystroke_e	e	n/a
226.4655	0.09	452931	keystroke_p	p	n/a
226.7805	0.09	453561	keystroke_e	e	n/a
226.8855	0.089	453771	keystroke_n	n	n/a
227.0045	0.091	454009	keystroke_d	d	n/a
227.2145	0.09	454429	keystroke_e	e	n/a
227.3345	0.09	454669	keystroke_n	n	n/a
227.4095	0.1055	454819	keystroke_t	t	n/a
227.56	0.105	455120	keystroke_l	l	n/a
227.68	0.105	455360	keystroke_y	y	n/a
227.83	0.09	455660	keystroke_Key.space	Key.space	n/a
228.04	0.075	456080	keystroke_n	n	n/a
228.13	0.09	456260	keystroke_e	e	n/a
228.28	0.09	456560	keystroke_t	t	n/a
228.385	0.06	456770	keystroke_h	h	n/a
228.46	0.105	456920	keystroke_e	e	n/a
228.55	0.09	457100	keystroke_r	r	n/a
228.745	0.06	457490	keystroke_l	l	n/a
228.85	0.045	457700	keystroke_a	a	n/a
228.925	0.06	457850	keystroke_n	n	n/a
228.97	0.135	457940	keystroke_d	d	n/a
229.045	0.105	458090	keystroke_s	s	n/a
229.165	0.09	458330	keystroke_Key.space	Key.space	n/a
229.405	0.0745	458810	keystroke_s	s	n/a
229.4945	0.091	458989	keystroke_o	o	n/a
229.5995	0.12	459199	keystroke_c	c	n/a
229.7055	0.074	459411	keystroke_k	k	n/a
229.8245	0.15	459649	keystroke_e	e	n/a
230.0945	0.105	460189	keystroke_t	t	n/a
231.7745	0.06	463549	keystroke_Key.space	Key.space	n/a
232.4795	0.015	464959	keystroke_g	g	n/a
232.6145	0.12	465229	keystroke_u	u	n/a
232.7645	0.135	465529	keystroke_a	a	n/a
232.9145	0.075	465829	keystroke_r	r	n/a
233.1245	0.1055	466249	keystroke_d	d	n/a
233.2	0.06	466400	keystroke_s	s	n/a
233.32	0.06	466640	keystroke_Key.enter	Key.enter	n/a
233.3875	9.129	466775	prompt	n/a	wildlife taylor travesti tests\n
234.0855	0.104	468171	keystroke_w	w	n/a
234.1745	0.045	468349	keystroke_h	h	n/a
234.3245	0.09	468649	keystroke_i	i	n/a
234.5045	0.09	469009	keystroke_l	l	n/a
234.9095	0.015	469819	keystroke_Key.backspace	Key.backspace	n/a
234.9845	0.03	469969	keystroke_Key.backspace	Key.backspace	n/a
235.0445	0.09	470089	keystroke_Key.backspace	Key.backspace	n/a
235.5405	0.045	471081	keystroke_i	i	n/a
235.6745	0.09	471349	keystroke_l	l	n/a
236.0945	0.045	472189	keystroke_Key.backspace	Key.backspace	n/a
236.4395	0.045	472879	keystroke_l	l	n/a
236.6195	0.075	473239	keystroke_d	d	n/a
236.8295	0.09	473659	keystroke_e	e	n/a
237.1145	0.06	474229	keystroke_l	l	n/a
237.2345	0.075	474469	keystroke_i	i	n/a
237.2945	0.165	474589	keystroke_f	f	n/a
237.3995	0.12	474799	keystroke_e	e	n/a
237.4895	0.09	474979	keystroke_Key.space	Key.space	n/a
238.2845	0.12	476569	keystroke_y	y	n/a
238.4495	0.09	476899	keystroke_a	a	n/a
238.7345	0.03	477469	keystroke_Key.backspace	Key.backspace	n/a
238.8095	0.075	477619	keystroke_Key.backspace	Key.backspace	n/a
238.9745	0.12	477949	keystroke_t	t	n/a
239.1095	0.135	478219	keystroke_a	a	n/a
239.2595	0.09	478519	keystroke_y	y	n/a
239.3795	0.075	478759	keystroke_l	l	n/a
239.6795	0.09	479359	keystroke_o	o	n/a
239.7995	0.105	479599	keystroke_r	r	n/a
239.8895	0.105	479779	keystroke_Key.space	Key.space	n/a
240.1595	0.105	480319	keystroke_t	t	n/a
240.3545	0.135	480709	keystroke_r	r	n/a
240.4445	0.12	480889	keystroke_a	a	n/a
240.6695	0.075	481339	keystroke_v	v	n/a
240.8195	0.12	481639	keystroke_e	e	n/a
240.9095	0.105	481819	keystroke_s	s	n/a
241.3	0.06	482600	keystroke_t	t	n/a
241.39	0.075	482780	keystroke_i	i	n/a
241.6	0.0895	483200	keystroke_Key.space	Key.space	n/a
241.8555	0.12	483711	keystroke_t	t	n/a
242.0055	0.15	484011	keystroke_e	e	n/a
242.1105	0.089	484221	keystroke_s	s	n/a
242.1855	0.12	484371	keystroke_t	t	n/a
242.3055	0.06	484611	keystroke_s	s	n/a
242.4255	0.09	484851	keystroke_Key.enter	Key.enter	n/a
242.52	7.736	485040	prompt	n/a	gage endangered lady carroll\n
243.2805	0.075	486561	keystroke_g	g	n/a
243.3555	0.15	486711	keystroke_a	a	n/a
243.4605	0.135	486921	keystroke_g	g	n/a
243.5655	0.12	487131	keystroke_e	e	n/a
243.7745	0.12	487549	keystroke_Key.space	Key.space	n/a
243.9255	0.12	487851	keystroke_e	e	n/a
244.0295	0.106	488059	keystroke_n	n	n/a
244.1955	0.104	488391	keystroke_d	d	n/a
244.4045	0.121	488809	keystroke_a	a	n/a
245.3805	0.059	490761	keystroke_n	n	n/a
245.4545	0.091	490909	keystroke_g	g	n/a
245.6355	0.119	491271	keystroke_e	e	n/a
245.8155	0.089	491631	keystroke_r	r	n/a
245.9945	0.105	491989	keystroke_e	e	n/a
246.1895	0.09	492379	keystroke_d	d	n/a
246.2945	0.105	492589	keystroke_Key.space	Key.space	n/a
246.5345	0.06	493069	keystroke_l	l	n/a
246.6095	0.075	493219	keystroke_a	a	n/a
246.7445	0.105	493489	keystroke_d	d	n/a
246.8795	0.105	493759	keystroke_y	y	n/a
247.2995	0.12	494599	keystroke_Key.space	Key.space	n/a
247.5995	0.015	495199	keystroke_c	c	n/a
247.6445	0.105	495289	keystroke_a	a	n/a
247.8395	0.075	495679	keystroke_r	r	n/a
247.9895	0.09	495979	keystroke_r	r	n/a
248.2145	0.075	496429	keystroke_l	l	n/a
248.5895	0.105	497179	keystroke_Key.backspace	Key.backspace	n/a
249.1295	0.09	498259	keystroke_Key.backspace	Key.backspace	n/a
249.6695	0.075	499339	keystroke_r	r	n/a
249.7895	0.03	499579	keystroke_o	o	n/a
249.8945	0.06	499789	keystroke_l	l	n/a
250.0145	0.06	500029	keystroke_l	l	n/a
250.1645	0.09	500329	keystroke_Key.enter	Key.enter	n/a
250.26	6.4765	500520	prompt	n/a	relates albert your biblical\n
251.0045	0.075	502009	keystroke_r	r	n/a
251.1845	0.06	502369	keystroke_e	e	n/a
251.2295	0.06	502459	keystroke_l	l	n/a
251.3645	0.1355	502729	keystroke_a	a	n/a
251.815	0.15	503630	keystroke_t	t	n/a
251.905	0.165	503810	keystroke_e	e	n/a
252.01	0.09	504020	keystroke_s	s	n/a
252.13	0.105	504260	keystroke_Key.space	Key.space	n/a
252.28	0.12	504560	keystroke_a	a	n/a
252.385	0.06	504770	keystroke_l	l	n/a
252.535	0.09	505070	keystroke_b	b	n/a
252.655	0.09	505310	keystroke_e	e	n/a
252.835	0.105	505670	keystroke_r	r	n/a
253.36	0.09	506720	keystroke_t	t	n/a
253.525	0.12	507050	keystroke_Key.space	Key.space	n/a
254.1995	0.12	508399	keystroke_y	y	n/a
254.3795	0.135	508759	keystroke_o	o	n/a
254.4545	0.105	508909	keystroke_u	u	n/a
254.5595	0.09	509119	keystroke_r	r	n/a
254.6645	0.075	509329	keystroke_Key.space	Key.space	n/a
255.0695	0.09	510139	keystroke_b	b	n/a
255.2795	0.135	510559	keystroke_i	i	n/a
255.3845	0.12	510769	keystroke_b	b	n/a
255.7445	0.105	511489	keystroke_i	i	n/a
256.0745	0.045	512149	keystroke_c	c	n/a
256.3145	0.09	512629	keystroke_a	a	n/a
256.3895	0.075	512779	keystroke_l	l	n/a
256.5245	0.045	513049	keystroke_Key.space	Key.space	n/a
256.6595	0.075	513319	keystroke_Key.enter	Key.enter	n/a
256.741	10.78	513482	prompt	n/a	consist said liabilities birmingham\n
257.5295	0.075	515059	keystroke_c	c	n/a
257.92	0.1495	515840	keystroke_o	o	n/a
258.01	0.1195	516020	keystroke_n	n	n/a
258.1895	0.09	516379	keystroke_s	s	n/a
258.2945	0.075	516589	keystroke_i	i	n/a
259.1345	0.075	518269	keystroke_s	s	n/a
259.2245	0.0905	518449	keystroke_t	t	n/a
259.3895	0.1055	518779	keystroke_Key.space	Key.space	n/a
259.6595	0.18	519319	keystroke_s	s	n/a
259.7945	0.105	519589	keystroke_a	a	n/a
259.8995	0.075	519799	keystroke_i	i	n/a
259.9895	0.105	519979	keystroke_d	d	n/a
260.1095	0.06	520219	keystroke_Key.space	Key.space	n/a
260.2745	0.06	520549	keystroke_l	l	n/a
260.4395	0.045	520879	keystroke_i	i	n/a
261.1155	0.105	522231	keystroke_a	a	n/a
261.2645	0.09	522529	keystroke_b	b	n/a
261.4905	0.074	522981	keystroke_i	i	n/a
261.6255	0.12	523251	keystroke_l	l	n/a
261.7745	0.105	523549	keystroke_t	t	n/a
261.9395	0.09	523879	keystroke_i	i	n/a
262.465	0.03	524930	keystroke_Key.backspace	Key.backspace	n/a
263.005	0.09	526010	keystroke_i	i	n/a
263.125	0.09	526250	keystroke_t	t	n/a
263.26	0.09	526520	keystroke_i	i	n/a
263.335	0.135	526670	keystroke_e	e	n/a
263.41	0.105	526820	keystroke_s	s	n/a
263.53	0.06	527060	keystroke_Key.space	Key.space	n/a
263.905	0.09	527810	keystroke_b	b	n/a
264.49	0.09	528980	keystroke_i	i	n/a
264.595	0.105	529190	keystroke_r	r	n/a
264.685	0.135	529370	keystroke_m	m	n/a
265.6	0.135	531200	keystroke_i	i	n/a
265.66	0.105	531320	keystroke_n	n	n/a
265.72	0.075	531440	keystroke_g	g	n/a
266.095	0.09	532190	keystroke_Key.space	Key.space	n/a
266.29	0.045	532580	keystroke_h	h	n/a
266.545	0.045	533090	keystroke_Key.backspace	Key.backspace	n/a
266.65	0.06	533300	keystroke_Key.backspace	Key.backspace	n/a
267.115	0.075	534230	keystroke_h	h	n/a
267.22	0.09	534440	keystroke_a	a	n/a
267.295	0.075	534590	keystroke_m	m	n/a
267.43	0.09	534860	keystroke_Key.enter	Key.enter	n/a
267.5275	6.4735	535055	prompt	n/a	tommy available joyce paul\n
268.135	0.105	536270	keystroke_t	t	n/a
268.285	0.09	536570	keystroke_o	o	n/a
268.51	0.015	537020	keystroke_m	m	n/a
268.54	0.09	537080	keystroke_m	m	n/a
269.155	0.09	538310	keystroke_y	y	n/a
269.335	0.09	538670	keystroke_Key.space	Key.space	n/a
269.485	0.12	538970	keystroke_a	a	n/a
269.695	0.12	539390	keystroke_v	v	n/a
269.8	0.12	539600	keystroke_a	a	n/a
269.875	0.135	539750	keystroke_i	i	n/a
269.995	0.18	539990	keystroke_b	b	n/a
270.13	0.105	540260	keystroke_l	l	n/a
270.22	0.105	540440	keystroke_e	e	n/a
270.295	0.09	540590	keystroke_Key.space	Key.space	n/a
270.46	0.135	540920	keystroke_j	j	n/a
270.655	0.12	541310	keystroke_o	o	n/a
271.39	0.12	542780	keystroke_u	u	n/a
272.05	0.12	544100	keystroke_Key.backspace	Key.backspace	n/a
272.395	0.0905	544790	keystroke_y	y	n/a
272.499	0.166	544998	keystroke_c	c	n/a
272.62	0.1495	545240	keystroke_e	e	n/a
272.8295	0.12	545659	keystroke_Key.space	Key.space	n/a
273.2495	0.105	546499	keystroke_p	p	n/a
273.3995	0.105	546799	keystroke_a	a	n/a
273.5195	0.105	547039	keystroke_u	u	n/a
273.7295	0.075	547459	keystroke_l	l	n/a
273.9395	0.06	547879	keystroke_Key.enter	Key.enter	n/a
274.0065	4.8545	548013	prompt	n/a	minimum elder fruit update\n
274.5545	0.12	549109	keystroke_m	m	n/a
275.2905	0.089	550581	keystroke_i	i	n/a
275.4245	0.15	550849	keystroke_n	n	n/a
275.5295	0.12	551059	keystroke_i	i	n/a
275.7105	0.134	551421	keystroke_m	m	n/a
275.9045	0.12	551809	keystroke_u	u	n/a
276.1295	0.105	552259	keystroke_m	m	n/a
276.3095	0.105	552619	keystroke_Key.space	Key.space	n/a
276.5645	0.105	553129	keystroke_e	e	n/a
276.6545	0.06	553309	keystroke_l	l	n/a
276.7445	0.136	553489	keystroke_d	d	n/a
276.9245	0.105	553849	keystroke_e	e	n/a
277.1045	0.075	554209	keystroke_r	r	n/a
277.1495	0.09	554299	keystroke_Key.space	Key.space	n/a
277.27	0.105	554540	keystroke_f	f	n/a
277.435	0.12	554870	keystroke_r	r	n/a
277.51	0.21	555020	keystroke_u	u	n/a
277.69	0.06	555380	keystroke_i	i	n/a
277.795	0.105	555590	keystroke_t	t	n/a
277.915	0.09	555830	keystroke_Key.space	Key.space	n/a
278.215	0.06	556430	keystroke_u	u	n/a
278.35	0.09	556700	keystroke_p	p	n/a
278.455	0.105	556910	keystroke_d	d	n/a
278.515	0.15	557030	keystroke_a	a	n/a
278.635	0.09	557270	keystroke_t	t	n/a
278.695	0.105	557390	keystroke_e	e	n/a
278.815	0.045	557630	keystroke_Key.enter	Key.enter	n/a
278.864	6.5525	557728	prompt	n/a	finals entrance hostels engaged\n
279.445	0.105	558890	keystroke_f	f	n/a
279.565	0.105	559130	keystroke_i	i	n/a
279.715	0.105	559430	keystroke_n	n	n/a
279.805	0.135	559610	keystroke_a	a	n/a
279.925	0.09	559850	keystroke_l	l	n/a
280.045	0.06	560090	keystroke_s	s	n/a
280.105	0.105	560210	keystroke_Key.space	Key.space	n/a
280.285	0.12	560570	keystroke_e	e	n/a
280.39	0.135	560780	keystroke_n	n	n/a
280.48	0.09	560960	keystroke_t	t	n/a
280.675	0.135	561350	keystroke_r	r	n/a
280.795	0.165	561590	keystroke_a	a	n/a
280.93	0.18	561860	keystroke_c	c	n/a
281.065	0.12	562130	keystroke_e	e	n/a
281.2	0.075	562400	keystroke_Key.space	Key.space	n/a
281.89	0.12	563780	keystroke_h	h	n/a
281.905	0.09	563810	keystroke_j	j	n/a
282.085	0.075	564170	keystroke_o	o	n/a
282.76	0.03	565520	keystroke_Key.backspace	Key.backspace	n/a
282.88	0.045	565760	keystroke_Key.backspace	Key.backspace	n/a
283.3445	0.045	566689	keystroke_o	o	n/a
283.4795	0.105	566959	keystroke_s	s	n/a
283.6295	0.09	567259	keystroke_t	t	n/a
283.7345	0.075	567469	keystroke_l	l	n/a
283.8545	0.15	567709	keystroke_e	e	n/a
283.9445	0.12	567889	keystroke_s	s	n/a
284.0655	0.104	568131	keystroke_Key.space	Key.space	n/a
284.3495	0.105	568699	keystroke_e	e	n/a
284.4395	0.075	568879	keystroke_n	n	n/a
284.5295	0.075	569059	keystroke_g	g	n/a
284.6195	0.135	569239	keystroke_a	a	n/a
284.7095	0.12	569419	keystroke_g	g	n/a
284.8305	0.119	569661	keystroke_e	e	n/a
285.2795	0.105	570559	keystroke_d	d	n/a
285.3695	0.045	570739	keystroke_Key.enter	Key.enter	n/a
285.4245	5.439	570849	prompt	n/a	sunshine salary dying baskets\n
286.1655	0.089	572331	keystroke_s	s	n/a
286.2705	0.164	572541	keystroke_u	u	n/a
286.4195	0.075	572839	keystroke_n	n	n/a
286.5395	0.105	573079	keystroke_s	s	n/a
286.6595	0.09	573319	keystroke_h	h	n/a
286.7645	0.061	573529	keystroke_s	s	n/a
287.0955	0.164	574191	keystroke_i	i	n/a
287.1995	0.09	574399	keystroke_n	n	n/a
287.3045	0.076	574609	keystroke_e	e	n/a
287.3645	0.12	574729	keystroke_Key.space	Key.space	n/a
287.4855	0.149	574971	keystroke_s	s	n/a
287.6495	0.09	575299	keystroke_a	a	n/a
287.7095	0.075	575419	keystroke_l	l	n/a
287.8445	0.106	575689	keystroke_a	a	n/a
288.0095	0.075	576019	keystroke_r	r	n/a
288.0545	0.105	576109	keystroke_y	y	n/a
288.2195	0.105	576439	keystroke_Key.space	Key.space	n/a
288.3095	0.12	576619	keystroke_d	d	n/a
288.4445	0.09	576889	keystroke_y	y	n/a
288.6695	0.18	577339	keystroke_i	i	n/a
288.7745	0.105	577549	keystroke_n	n	n/a
288.8945	0.045	577789	keystroke_g	g	n/a
288.9845	0.105	577969	keystroke_Key.space	Key.space	n/a
289.555	0.09	579110	keystroke_b	b	n/a
289.66	0.135	579320	keystroke_a	a	n/a
289.765	0.105	579530	keystroke_s	s	n/a
290.17	0.045	580340	keystroke_k	k	n/a
290.38	0.12	580760	keystroke_e	e	n/a
290.56	0.12	581120	keystroke_t	t	n/a
290.68	0.045	581360	keystroke_s	s	n/a
290.815	0.045	581630	keystroke_Key.enter	Key.enter	n/a
290.8685	5.5575	581737	prompt	n/a	entity estates cisco refuse\n
291.7295	0.12	583459	keystroke_e	e	n/a
291.8045	0.1055	583609	keystroke_n	n	n/a
291.925	0.1045	583850	keystroke_t	t	n/a
292.0445	0.09	584089	keystroke_i	i	n/a
292.1945	0.075	584389	keystroke_t	t	n/a
292.4795	0.075	584959	keystroke_y	y	n/a
292.6145	0.09	585229	keystroke_Key.space	Key.space	n/a
292.8695	0.09	585739	keystroke_e	e	n/a
293.0195	0.1355	586039	keystroke_s	s	n/a
293.1995	0.0605	586399	keystroke_t	t	n/a
293.2895	0.135	586579	keystroke_a	a	n/a
293.3795	0.18	586759	keystroke_t	t	n/a
293.5295	0.121	587059	keystroke_s	s	n/a
293.7395	0.09	587479	keystroke_Key.space	Key.space	n/a
294.1895	0.121	588379	keystroke_c	c	n/a
294.3395	0.09	588679	keystroke_i	i	n/a
294.4145	0.076	588829	keystroke_s	s	n/a
294.82	0.105	589640	keystroke_c	c	n/a
294.91	0.06	589820	keystroke_o	o	n/a
295.12	0.09	590240	keystroke_Key.space	Key.space	n/a
295.6745	0.075	591349	keystroke_r	r	n/a
295.8395	0.075	591679	keystroke_e	e	n/a
295.8995	0.105	591799	keystroke_f	f	n/a
296.0495	0.105	592099	keystroke_u	u	n/a
296.1395	0.15	592279	keystroke_s	s	n/a
296.2745	0.075	592549	keystroke_e	e	n/a
296.3645	0.06	592729	keystroke_Key.enter	Key.enter	n/a
296.429	5.322	592858	prompt	n/a	gays trademarks stamp magic\n
297.0545	0.105	594109	keystroke_g	g	n/a
297.1445	0.12	594289	keystroke_a	a	n/a
297.3845	0.09	594769	keystroke_y	y	n/a
297.6545	0.06	595309	keystroke_s	s	n/a
297.8045	0.105	595609	keystroke_Key.space	Key.space	n/a
298.1495	0.075	596299	keystroke_t	t	n/a
298.3145	0.12	596629	keystroke_r	r	n/a
298.4195	0.12	596839	keystroke_a	a	n/a
298.5695	0.09	597139	keystroke_d	d	n/a
298.8545	0.015	597709	keystroke_e	e	n/a
298.8845	0.105	597769	keystroke_m	m	n/a
298.9745	0.15	597949	keystroke_a	a	n/a
299.1395	0.12	598279	keystroke_r	r	n/a
299.2745	0.12	598549	keystroke_k	k	n/a
299.4095	0.075	598819	keystroke_s	s	n/a
299.5895	0.09	599179	keystroke_Key.space	Key.space	n/a
299.7995	0.135	599599	keystroke_s	s	n/a
299.9795	0.15	599959	keystroke_t	t	n/a
300.0695	0.135	600139	keystroke_a	a	n/a
300.2345	0.12	600469	keystroke_m	m	n/a
300.4145	0.105	600829	keystroke_p	p	n/a
300.6245	0.06	601249	keystroke_Key.space	Key.space	n/a
301.0445	0.075	602089	keystroke_m	m	n/a
301.1045	0.12	602209	keystroke_a	a	n/a
301.2255	0.089	602451	keystroke_g	g	n/a
301.3895	0.105	602779	keystroke_i	i	n/a
301.5545	0.105	603109	keystroke_c	c	n/a
301.6895	0.06	603379	keystroke_Key.enter	Key.enter	n/a
301.7575	6.686	603515	prompt	n/a	release unsigned malaysia collect\n
302.4995	0.105	604999	keystroke_r	r	n/a
302.6945	0.075	605389	keystroke_e	e	n/a
302.7545	0.09	605509	keystroke_l	l	n/a
302.9795	0.18	605959	keystroke_e	e	n/a
303.0995	0.151	606199	keystroke_a	a	n/a
303.2195	0.165	606439	keystroke_s	s	n/a
303.3395	0.12	606679	keystroke_e	e	n/a
303.4895	0.105	606979	keystroke_Key.space	Key.space	n/a
303.7595	0.135	607519	keystroke_u	u	n/a
303.9095	0.105	607819	keystroke_n	n	n/a
304.0305	0.119	608061	keystroke_s	s	n/a
304.1345	0.09	608269	keystroke_i	i	n/a
304.2395	0.09	608479	keystroke_g	g	n/a
304.3445	0.105	608689	keystroke_n	n	n/a
304.4645	0.09	608929	keystroke_e	e	n/a
304.6295	0.105	609259	keystroke_d	d	n/a
304.7495	0.105	609499	keystroke_Key.space	Key.space	n/a
304.9295	0.076	609859	keystroke_m	m	n/a
305.0345	0.09	610069	keystroke_a	a	n/a
305.1395	0.09	610279	keystroke_l	l	n/a
305.2745	0.075	610549	keystroke_a	a	n/a
305.5745	0.091	611149	keystroke_y	y	n/a
305.8605	0.089	611721	keystroke_s	s	n/a
306.4145	0.136	612829	keystroke_i	i	n/a
306.5645	0.045	613129	keystroke_a	a	n/a
306.5945	0.105	613189	keystroke_Key.space	Key.space	n/a
307.1205	0.119	614241	keystroke_c	c	n/a
307.1955	0.059	614391	keystroke_o	o	n/a
307.4355	0.044	614871	keystroke_l	l	n/a
307.5545	0.045	615109	keystroke_l	l	n/a
307.7195	0.136	615439	keystroke_e	e	n/a
308.0645	0.105	616129	keystroke_c	c	n/a
308.3045	0.06	616609	keystroke_t	t	n/a
308.4095	0.03	616819	keystroke_Key.enter	Key.enter	n/a
308.448	8.1985	616896	prompt	n/a	safer louise pets bacterial\n
309.1445	0.105	618289	keystroke_s	s	n/a
309.6995	0.15	619399	keystroke_a	a	n/a
309.8645	0.105	619729	keystroke_f	f	n/a
310.3455	0.089	620691	keystroke_e	e	n/a
310.5245	0.12	621049	keystroke_r	r	n/a
310.7505	0.119	621501	keystroke_l	l	n/a
311.3495	0.015	622699	keystroke_Key.backspace	Key.backspace	n/a
311.4105	0.12	622821	keystroke_Key.space	Key.space	n/a
311.6505	0.075	623301	keystroke_l	l	n/a
312.8655	0.045	625731	keystroke_o	o	n/a
313.0005	0.149	626001	keystroke_u	u	n/a
313.1055	0.104	626211	keystroke_i	i	n/a
313.2405	0.15	626481	keystroke_s	s	n/a
313.3745	0.12	626749	keystroke_e	e	n/a
313.5395	0.121	627079	keystroke_Key.space	Key.space	n/a
313.7955	0.075	627591	keystroke_p	p	n/a
313.9005	0.1485	627801	keystroke_e	e	n/a
314.094	0.196	628188	keystroke_t	t	n/a
314.229	0.121	628458	keystroke_s	s	n/a
314.3645	0.1205	628729	keystroke_Key.space	Key.space	n/a
314.59	0.059	629180	keystroke_b	b	n/a
314.665	0.135	629330	keystroke_a	a	n/a
314.815	0.075	629630	keystroke_t	t	n/a
315.444	0.0455	630888	keystroke_Key.backspace	Key.backspace	n/a
315.5345	0.09	631069	keystroke_c	c	n/a
315.7445	0.105	631489	keystroke_t	t	n/a
315.9245	0.165	631849	keystroke_e	e	n/a
316.0295	0.12	632059	keystroke_r	r	n/a
316.1645	0.09	632329	keystroke_i	i	n/a
316.2695	0.105	632539	keystroke_a	a	n/a
316.3755	0.059	632751	keystroke_l	l	n/a
316.5845	0.06	633169	keystroke_Key.enter	Key.enter	n/a
316.6495	8.6815	633299	prompt	n/a	premium intend immediately southwest\n
317.5895	0.075	635179	keystroke_p	p	n/a
317.8745	0.03	635749	keystroke_e	e	n/a
318.2345	0.06	636469	keystroke_Key.backspace	Key.backspace	n/a
318.3395	0.091	636679	keystroke_r	r	n/a
318.5345	0.09	637069	keystroke_e	e	n/a
318.6395	0.105	637279	keystroke_m	m	n/a
318.8045	0.105	637609	keystroke_i	i	n/a
319.405	0.0595	638810	keystroke_m	m	n/a
319.5695	0.105	639139	keystroke_u	u	n/a
319.7645	0.0755	639529	keystroke_m	m	n/a
319.93	0.075	639860	keystroke_Key.space	Key.space	n/a
320.035	0.135	640070	keystroke_i	i	n/a
320.095	0.15	640190	keystroke_n	n	n/a
320.23	0.105	640460	keystroke_t	t	n/a
320.395	0.15	640790	keystroke_e	e	n/a
320.665	0.09	641330	keystroke_d	d	n/a
320.95	0.09	641900	keystroke_n	n	n/a
321.4755	0.059	642951	keystroke_Key.space	Key.space	n/a
321.9095	0.075	643819	keystroke_i	i	n/a
322.1645	0.06	644329	keystroke_m	m	n/a
322.3145	0.06	644629	keystroke_m	m	n/a
322.4945	0.045	644989	keystroke_e	e	n/a
322.7045	0.0455	645409	keystroke_d	d	n/a
322.7195	0.105	645439	keystroke_i	i	n/a
322.8095	0.135	645619	keystroke_a	a	n/a
322.9595	0.105	645919	keystroke_t	t	n/a
323.2745	0.12	646549	keystroke_e	e	n/a
323.4095	0.09	646819	keystroke_l	l	n/a
323.6045	0.135	647209	keystroke_y	y	n/a
323.7995	0.105	647599	keystroke_Key.space	Key.space	n/a
323.9945	0.105	647989	keystroke_s	s	n/a
324.1145	0.15	648229	keystroke_o	o	n/a
324.19	0.1045	648380	keystroke_u	u	n/a
324.3095	0.105	648619	keystroke_t	t	n/a
324.4295	0.075	648859	keystroke_h	h	n/a
324.6995	0.135	649399	keystroke_w	w	n/a
324.8645	0.225	649729	keystroke_e	e	n/a
324.9845	0.165	649969	keystroke_s	s	n/a
325.1645	0.105	650329	keystroke_t	t	n/a
325.2845	0.045	650569	keystroke_Key.enter	Key.enter	n/a
325.3355	7.0755	650671	prompt	n/a	monaco bracelets essex thereby\n
326.05	0.09	652100	keystroke_m	m	n/a
326.485	0.09	652970	keystroke_o	o	n/a
326.605	0.12	653210	keystroke_n	n	n/a
327.07	0.12	654140	keystroke_a	a	n/a
327.25	0.105	654500	keystroke_c	c	n/a
327.385	0.09	654770	keystroke_o	o	n/a
327.55	0.09	655100	keystroke_Key.space	Key.space	n/a
327.745	0.105	655490	keystroke_b	b	n/a
327.925	0.12	655850	keystroke_r	r	n/a
328.15	0.165	656300	keystroke_a	a	n/a
328.375	0.105	656750	keystroke_c	c	n/a
328.585	0.12	657170	keystroke_e	e	n/a
328.96	0.06	657920	keystroke_l	l	n/a
329.095	0.135	658190	keystroke_e	e	n/a
329.29	0.18	658580	keystroke_t	t	n/a
329.44	0.12	658880	keystroke_s	s	n/a
329.605	0.105	659210	keystroke_Key.space	Key.space	n/a
329.725	0.105	659450	keystroke_e	e	n/a
329.98	0.015	659960	keystroke_s	s	n/a
330.1	0.06	660200	keystroke_s	s	n/a
330.22	0.12	660440	keystroke_e	e	n/a
330.505	0.105	661010	keystroke_x	x	n/a
330.715	0.075	661430	keystroke_Key.space	Key.space	n/a
330.955	0.12	661910	keystroke_t	t	n/a
331.18	0.09	662360	keystroke_h	h	n/a
331.255	0.075	662510	keystroke_e	e	n/a
331.345	0.165	662690	keystroke_r	r	n/a
331.45	0.075	662900	keystroke_e	e	n/a
331.96	0.075	663920	keystroke_b	b	n/a
332.14	0.105	664280	keystroke_y	y	n/a
332.365	0.045	664730	keystroke_Key.enter	Key.enter	n/a
332.414	7.332	664828	prompt	n/a	cooking anonymous measuring apparatus\n
333.145	0.12	666290	keystroke_c	c	n/a
333.25	0.06	666500	keystroke_o	o	n/a
333.37	0.105	666740	keystroke_o	o	n/a
333.64	0.09	667280	keystroke_k	k	n/a
333.805	0.165	667610	keystroke_i	i	n/a
333.895	0.09	667790	keystroke_n	n	n/a
333.97	0.105	667940	keystroke_g	g	n/a
334.06	0.105	668120	keystroke_Key.space	Key.space	n/a
334.21	0.075	668420	keystroke_a	a	n/a
334.3	0.075	668600	keystroke_n	n	n/a
334.54	0.06	669080	keystroke_u	u	n/a
335.23	0.09	670460	keystroke_Key.backspace	Key.backspace	n/a
335.53	0.06	671060	keystroke_o	o	n/a
335.665	0.09	671330	keystroke_n	n	n/a
335.905	0.09	671810	keystroke_y	y	n/a
336.22	0.135	672440	keystroke_m	m	n/a
336.355	0.21	672710	keystroke_o	o	n/a
336.46	0.135	672920	keystroke_u	u	n/a
336.61	0.12	673220	keystroke_s	s	n/a
336.715	0.09	673430	keystroke_Key.space	Key.space	n/a
337.03	0.075	674060	keystroke_m	m	n/a
337.09	0.135	674180	keystroke_e	e	n/a
337.21	0.105	674420	keystroke_a	a	n/a
337.3	0.15	674600	keystroke_s	s	n/a
337.465	0.09	674930	keystroke_u	u	n/a
337.585	0.12	675170	keystroke_r	r	n/a
337.72	0.165	675440	keystroke_i	i	n/a
337.795	0.12	675590	keystroke_n	n	n/a
337.9	0.075	675800	keystroke_g	g	n/a
337.96	0.105	675920	keystroke_Key.space	Key.space	n/a
338.14	0.135	676280	keystroke_a	a	n/a
338.245	0.06	676490	keystroke_p	p	n/a
338.365	0.06	676730	keystroke_p	p	n/a
338.56	0.165	677120	keystroke_a	a	n/a
338.785	0.105	677570	keystroke_r	r	n/a
338.995	0.135	677990	keystroke_a	a	n/a
339.25	0.075	678500	keystroke_t	t	n/a
339.415	0.075	678830	keystroke_u	u	n/a
339.55	0.09	679100	keystroke_s	s	n/a
339.685	0.06	679370	keystroke_Key.enter	Key.enter	n/a
339.755	5.346	679510	prompt	n/a	deemed basis junction bigger\n
340.33	0.12	680660	keystroke_d	d	n/a
340.555	0.09	681110	keystroke_e	e	n/a
340.66	0.045	681320	keystroke_m	m	n/a
340.75	0.06	681500	keystroke_m	m	n/a
341.08	0.045	682160	keystroke_Key.backspace	Key.backspace	n/a
341.17	0.03	682340	keystroke_Key.backspace	Key.backspace	n/a
341.38	0.105	682760	keystroke_e	e	n/a
341.515	0.075	683030	keystroke_m	m	n/a
341.665	0.105	683330	keystroke_e	e	n/a
341.83	0.135	683660	keystroke_d	d	n/a
341.935	0.105	683870	keystroke_Key.space	Key.space	n/a
342.085	0.09	684170	keystroke_b	b	n/a
342.19	0.12	684380	keystroke_a	a	n/a
342.28	0.09	684560	keystroke_s	s	n/a
342.385	0.09	684770	keystroke_i	i	n/a
342.49	0.09	684980	keystroke_s	s	n/a
342.595	0.09	685190	keystroke_Key.space	Key.space	n/a
342.925	0.09	685850	keystroke_j	j	n/a
343.12	0.09	686240	keystroke_u	u	n/a
343.255	0.09	686510	keystroke_n	n	n/a
343.36	0.075	686720	keystroke_c	c	n/a
343.57	0.09	687140	keystroke_t	t	n/a
343.645	0.18	687290	keystroke_i	i	n/a
343.72	0.105	687440	keystroke_o	o	n/a
343.795	0.0595	687590	keystroke_n	n	n/a
343.9145	0.1205	687829	keystroke_Key.space	Key.space	n/a
344.065	0.15	688130	keystroke_b	b	n/a
344.185	0.12	688370	keystroke_i	i	n/a
344.455	0.075	688910	keystroke_g	g	n/a
344.65	0.0595	689300	keystroke_g	g	n/a
344.7545	0.09	689509	keystroke_e	e	n/a
344.9345	0.075	689869	keystroke_r	r	n/a
345.0395	0.06	690079	keystroke_Key.enter	Key.enter	n/a
345.104	5.922	690208	prompt	n/a	scan iceland personals medieval\n
345.7145	0.09	691429	keystroke_s	s	n/a
345.8345	0.15	691669	keystroke_c	c	n/a
345.9695	0.12	691939	keystroke_a	a	n/a
346.0745	0.075	692149	keystroke_n	n	n/a
346.2245	0.09	692449	keystroke_Key.space	Key.space	n/a
346.3295	0.105	692659	keystroke_i	i	n/a
346.4195	0.06	692839	keystroke_s	s	n/a
346.4945	0.12	692989	keystroke_c	c	n/a
346.6745	0.09	693349	keystroke_e	e	n/a
347.0795	0.045	694159	keystroke_Key.backspace	Key.backspace	n/a
347.1695	0.06	694339	keystroke_Key.backspace	Key.backspace	n/a
347.2745	0.075	694549	keystroke_Key.backspace	Key.backspace	n/a
347.4095	0.105	694819	keystroke_c	c	n/a
347.7245	0.09	695449	keystroke_e	e	n/a
347.8295	0.06	695659	keystroke_l	l	n/a
348.0245	0.12	696049	keystroke_a	a	n/a
348.1595	0.06	696319	keystroke_n	n	n/a
348.2205	0.134	696441	keystroke_d	d	n/a
348.3395	0.09	696679	keystroke_Key.space	Key.space	n/a
348.5045	0.105	697009	keystroke_p	p	n/a
348.6245	0.075	697249	keystroke_e	e	n/a
348.8495	0.03	697699	keystroke_r	r	n/a
348.8645	0.09	697729	keystroke_s	s	n/a
348.9095	0.12	697819	keystroke_o	o	n/a
348.9695	0.105	697939	keystroke_n	n	n/a
349.0895	0.09	698179	keystroke_a	a	n/a
349.1495	0.075	698299	keystroke_l	l	n/a
349.3145	0.06	698629	keystroke_s	s	n/a
349.4195	0.12	698839	keystroke_Key.space	Key.space	n/a
349.6895	0.09	699379	keystroke_m	m	n/a
349.7645	0.12	699529	keystroke_e	e	n/a
349.9295	0.12	699859	keystroke_d	d	n/a
350.0645	0.075	700129	keystroke_i	i	n/a
350.3345	0.09	700669	keystroke_e	e	n/a
350.5145	0.075	701029	keystroke_v	v	n/a
350.6645	0.12	701329	keystroke_a	a	n/a
350.7545	0.075	701509	keystroke_l	l	n/a
350.9645	0.06	701929	keystroke_Key.enter	Key.enter	n/a
351.029	10.062	702058	prompt	n/a	unnecessary function challenge syria\n
351.6095	0.105	703219	keystroke_u	u	n/a
351.8045	0.06	703609	keystroke_n	n	n/a
351.9095	0.09	703819	keystroke_n	n	n/a
352.0295	0.09	704059	keystroke_e	e	n/a
352.2095	0.09	704419	keystroke_s	s	n/a
353.4545	0.075	706909	keystroke_s	s	n/a
354.6695	0.12	709339	keystroke_a	a	n/a
354.9545	0.12	709909	keystroke_r	r	n/a
355.2245	0.06	710449	keystroke_u	u	n/a
355.6895	0.12	711379	keystroke_Key.space	Key.space	n/a
356.0045	0.045	712009	keystroke_Key.backspace	Key.backspace	n/a
356.1095	0.045	712219	keystroke_Key.backspace	Key.backspace	n/a
356.5895	0.135	713179	keystroke_y	y	n/a
356.7395	0.105	713479	keystroke_Key.space	Key.space	n/a
356.8745	0.09	713749	keystroke_f	f	n/a
356.9495	0.12	713899	keystroke_u	u	n/a
357.0845	0.09	714169	keystroke_n	n	n/a
357.1295	0.06	714259	keystroke_c	c	n/a
357.9245	0.09	715849	keystroke_t	t	n/a
357.9995	0.195	715999	keystroke_i	i	n/a
358.0895	0.135	716179	keystroke_o	o	n/a
358.1345	0.105	716269	keystroke_n	n	n/a
358.2845	0.105	716569	keystroke_Key.space	Key.space	n/a
358.4945	0.12	716989	keystroke_c	c	n/a
358.5695	0.09	717139	keystroke_h	h	n/a
358.6895	0.12	717379	keystroke_a	a	n/a
358.8105	0.044	717621	keystroke_l	l	n/a
358.9145	0.075	717829	keystroke_l	l	n/a
359.0345	0.12	718069	keystroke_e	e	n/a
359.1395	0.06	718279	keystroke_n	n	n/a
359.2145	0.09	718429	keystroke_g	g	n/a
359.3345	0.075	718669	keystroke_e	e	n/a
359.5895	0.09	719179	keystroke_Key.space	Key.space	n/a
359.9945	0.045	719989	keystroke_s	s	n/a
360.1445	0.075	720289	keystroke_y	y	n/a
360.5195	0.12	721039	keystroke_r	r	n/a
360.6095	0.075	721219	keystroke_i	i	n/a
360.7145	0.12	721429	keystroke_a	a	n/a
361.0295	0.06	722059	keystroke_Key.enter	Key.enter	n/a
361.0955	6.6705	722191	prompt	n/a	closely neural bird legend\n
361.7795	0.135	723559	keystroke_c	c	n/a
361.8995	0.045	723799	keystroke_l	l	n/a
362.0495	0.09	724099	keystroke_o	o	n/a
362.1095	0.12	724219	keystroke_s	s	n/a
362.5445	0.105	725089	keystroke_e	e	n/a
362.6645	0.075	725329	keystroke_l	l	n/a
362.8295	0.045	725659	keystroke_y	y	n/a
363.1145	0.075	726229	keystroke_Key.space	Key.space	n/a
363.3395	0.12	726679	keystroke_n	n	n/a
363.4445	0.105	726889	keystroke_e	e	n/a
363.7745	0.105	727549	keystroke_u	u	n/a
363.8945	0.18	727789	keystroke_r	r	n/a
364.0295	0.135	728059	keystroke_a	a	n/a
364.1195	0.075	728239	keystroke_l	l	n/a
364.2695	0.105	728539	keystroke_Key.space	Key.space	n/a
364.5845	0.105	729169	keystroke_b	b	n/a
364.8245	0.12	729649	keystroke_i	i	n/a
364.9295	0.12	729859	keystroke_r	r	n/a
365.0645	0.09	730129	keystroke_g	g	n/a
365.5295	0.105	731059	keystroke_Key.space	Key.space	n/a
365.7395	0.12	731479	keystroke_l	l	n/a
365.9645	0.12	731929	keystroke_e	e	n/a
366.3395	0.105	732679	keystroke_g	g	n/a
367.36	0.075	734720	keystroke_e	e	n/a
367.45	0.09	734900	keystroke_n	n	n/a
367.555	0.075	735110	keystroke_d	d	n/a
367.72	0.045	735440	keystroke_Key.enter	Key.enter	n/a
367.7695	5.9665	735539	prompt	n/a	limit dependence bacterial frankfurt\n
368.3945	0.06	736789	keystroke_l	l	n/a
368.5445	0.105	737089	keystroke_i	i	n/a
368.6195	0.15	737239	keystroke_m	m	n/a
368.7245	0.12	737449	keystroke_i	i	n/a
368.8595	0.105	737719	keystroke_t	t	n/a
368.9945	0.12	737989	keystroke_Key.space	Key.space	n/a
369.2195	0.06	738439	keystroke_d	d	n/a
369.3695	0.105	738739	keystroke_e	e	n/a
369.4445	0.1055	738889	keystroke_p	p	n/a
369.79	0.09	739580	keystroke_e	e	n/a
369.895	0.089	739790	keystroke_n	n	n/a
370.014	0.076	740028	keystroke_d	d	n/a
370.21	0.119	740420	keystroke_e	e	n/a
370.359	0.061	740718	keystroke_n	n	n/a
370.57	0.135	741140	keystroke_c	c	n/a
370.674	0.1655	741348	keystroke_e	e	n/a
370.8245	0.06	741649	keystroke_Key.space	Key.space	n/a
371.0045	0.075	742009	keystroke_b	b	n/a
371.1095	0.135	742219	keystroke_a	a	n/a
371.2295	0.075	742459	keystroke_c	c	n/a
371.5745	0.165	743149	keystroke_e	e	n/a
371.7095	0.12	743419	keystroke_r	r	n/a
371.8445	0.0895	743689	keystroke_i	i	n/a
371.949	0.105	743898	keystroke_a	a	n/a
372.039	0.046	744078	keystroke_l	l	n/a
372.219	0.06	744438	keystroke_Key.space	Key.space	n/a
372.519	0.09	745038	keystroke_f	f	n/a
372.714	0.105	745428	keystroke_r	r	n/a
372.759	0.091	745518	keystroke_u	u	n/a
372.8795	0.1645	745759	keystroke_n	n	n/a
372.9695	0.12	745939	keystroke_k	k	n/a
373.1795	0.1195	746359	keystroke_f	f	n/a
373.314	0.1055	746628	keystroke_u	u	n/a
373.4645	0.0745	746929	keystroke_r	r	n/a
373.615	0.075	747230	keystroke_t	t	n/a
373.69	0.045	747380	keystroke_Key.enter	Key.enter	n/a
373.7405	8.1255	747481	prompt	n/a	commodity residents bookstore taxation\n
374.4695	0.135	748939	keystroke_c	c	n/a
374.5895	0.075	749179	keystroke_o	o	n/a
374.74	0.03	749480	keystroke_m	m	n/a
374.83	0.105	749660	keystroke_m	m	n/a
374.98	0.105	749960	keystroke_o	o	n/a
375.115	0.105	750230	keystroke_d	d	n/a
375.235	0.12	750470	keystroke_i	i	n/a
375.34	0.135	750680	keystroke_t	t	n/a
375.565	0.105	751130	keystroke_y	y	n/a
375.73	0.075	751460	keystroke_Key.space	Key.space	n/a
375.985	0.09	751970	keystroke_r	r	n/a
376.15	0.12	752300	keystroke_e	e	n/a
376.3745	0.06	752749	keystroke_s	s	n/a
376.4495	0.09	752899	keystroke_i	i	n/a
377.424	0.09	754848	keystroke_d	d	n/a
377.605	0.0895	755210	keystroke_e	e	n/a
377.679	0.0905	755358	keystroke_n	n	n/a
377.754	0.12	755508	keystroke_t	t	n/a
377.8145	0.1195	755629	keystroke_s	s	n/a
377.9195	0.105	755839	keystroke_Key.space	Key.space	n/a
378.1745	0.09	756349	keystroke_b	b	n/a
378.3845	0.015	756769	keystroke_o	o	n/a
378.5495	0.015	757099	keystroke_o	o	n/a
378.7445	0.0605	757489	keystroke_k	k	n/a
378.9245	0.0755	757849	keystroke_s	s	n/a
379.045	0.12	758090	keystroke_t	t	n/a
379.2095	0.1055	758419	keystroke_o	o	n/a
379.3445	0.0755	758689	keystroke_r	r	n/a
379.7795	0.0895	759559	keystroke_e	e	n/a
380.0945	0.09	760189	keystroke_Key.space	Key.space	n/a
380.2895	0.135	760579	keystroke_t	t	n/a
380.3945	0.09	760789	keystroke_a	a	n/a
380.7695	0.105	761539	keystroke_x	x	n/a
381.0545	0.12	762109	keystroke_a	a	n/a
381.2795	0.09	762559	keystroke_t	t	n/a
381.4145	0.195	762829	keystroke_i	i	n/a
381.5045	0.12	763009	keystroke_o	o	n/a
381.5645	0.105	763129	keystroke_n	n	n/a
381.79	0.075	763580	keystroke_Key.enter	Key.enter	n/a
381.871	6.25	763742	prompt	n/a	leon greece cooperative long\n
382.585	0.015	765170	keystroke_l	l	n/a
382.615	0.1195	765230	keystroke_e	e	n/a
382.8245	0.12	765649	keystroke_o	o	n/a
382.8845	0.09	765769	keystroke_n	n	n/a
383.0045	0.15	766009	keystroke_Key.space	Key.space	n/a
383.2595	0.09	766519	keystroke_g	g	n/a
383.4095	0.12	766819	keystroke_r	r	n/a
383.6345	0.06	767269	keystroke_e	e	n/a
383.7995	0.105	767599	keystroke_e	e	n/a
384.2945	0.165	768589	keystroke_c	c	n/a
384.4145	0.1495	768829	keystroke_e	e	n/a
384.579	0.105	769158	keystroke_Key.space	Key.space	n/a
384.789	0.105	769578	keystroke_c	c	n/a
384.909	0.06	769818	keystroke_o	o	n/a
385.029	0.06	770058	keystroke_o	o	n/a
385.194	0.09	770388	keystroke_p	p	n/a
385.299	0.0905	770598	keystroke_e	e	n/a
385.4795	0.09	770959	keystroke_r	r	n/a
385.6745	0.075	771349	keystroke_a	a	n/a
386.1695	0.075	772339	keystroke_t	t	n/a
386.3495	0.075	772699	keystroke_i	i	n/a
386.4695	0.135	772939	keystroke_v	v	n/a
387.13	0.1045	774260	keystroke_e	e	n/a
387.4295	0.105	774859	keystroke_Key.space	Key.space	n/a
387.595	0.0595	775190	keystroke_l	l	n/a
387.745	0.1195	775490	keystroke_o	o	n/a
387.8195	0.12	775639	keystroke_n	n	n/a
387.9545	0.105	775909	keystroke_g	g	n/a
388.0445	0.075	776089	keystroke_Key.enter	Key.enter	n/a
388.124	6.657	776248	prompt	n/a	fortune binary coral quilt\n
388.6595	0.15	777319	keystroke_f	f	n/a
388.8245	0.105	777649	keystroke_o	o	n/a
388.9445	0.105	777889	keystroke_r	r	n/a
389.1095	0.105	778219	keystroke_t	t	n/a
389.1845	0.12	778369	keystroke_u	u	n/a
389.3195	0.075	778639	keystroke_n	n	n/a
389.3795	0.045	778759	keystroke_e	e	n/a
389.5445	0.105	779089	keystroke_Key.space	Key.space	n/a
389.74	0.045	779480	keystroke_n	n	n/a
390.0395	0.09	780079	keystroke_Key.backspace	Key.backspace	n/a
390.3245	0.075	780649	keystroke_b	b	n/a
390.4145	0.135	780829	keystroke_i	i	n/a
390.5345	0.09	781069	keystroke_n	n	n/a
390.5945	0.135	781189	keystroke_a	a	n/a
390.7895	0.105	781579	keystroke_r	r	n/a
390.8795	0.06	781759	keystroke_y	y	n/a
391.0745	0.105	782149	keystroke_Key.space	Key.space	n/a
391.2545	0.1045	782509	keystroke_c	c	n/a
391.345	0.104	782690	keystroke_o	o	n/a
391.54	0.104	783080	keystroke_r	r	n/a
391.614	0.075	783228	keystroke_o	o	n/a
391.764	0.12	783528	keystroke_a	a	n/a
391.825	0.09	783650	keystroke_l	l	n/a
391.989	0.09	783978	keystroke_Key.space	Key.space	n/a
392.244	0.046	784488	keystroke_w	w	n/a
392.815	0.045	785630	keystroke_Key.backspace	Key.backspace	n/a
392.95	0.09	785900	keystroke_q	q	n/a
393.085	0.075	786170	keystroke_u	u	n/a
393.22	0.0895	786440	keystroke_i	i	n/a
393.3845	0.105	786769	keystroke_k	k	n/a
393.8345	0.075	787669	keystroke_Key.backspace	Key.backspace	n/a
394.5245	0.06	789049	keystroke_l	l	n/a
394.5695	0.09	789139	keystroke_t	t	n/a
394.6895	0.0905	789379	keystroke_Key.enter	Key.enter	n/a
394.7835	10.8725	789567	prompt	n/a	somebody admissions productive influence\n
395.89	0.029	791780	keystroke_s	s	n/a
395.95	0.119	791900	keystroke_o	o	n/a
395.964	0.061	791928	keystroke_s	s	n/a
396.129	0.06	792258	keystroke_m	m	n/a
396.729	0.016	793458	keystroke_Key.backspace	Key.backspace	n/a
396.789	0.045	793578	keystroke_Key.backspace	Key.backspace	n/a
397.075	0.045	794150	keystroke_m	m	n/a
397.194	0.09	794388	keystroke_e	e	n/a
397.42	0.074	794840	keystroke_b	b	n/a
397.629	0.09	795258	keystroke_o	o	n/a
397.764	0.09	795528	keystroke_d	d	n/a
397.855	0.104	795710	keystroke_y	y	n/a
398.379	0.12	796758	keystroke_Key.space	Key.space	n/a
398.544	0.075	797088	keystroke_a	a	n/a
398.649	0.12	797298	keystroke_d	d	n/a
398.784	0.09	797568	keystroke_i	i	n/a
399.234	0.06	798468	keystroke_Key.backspace	Key.backspace	n/a
399.564	0.09	799128	keystroke_m	m	n/a
400.284	0.075	800568	keystroke_i	i	n/a
400.404	0.075	800808	keystroke_s	s	n/a
400.569	0.075	801138	keystroke_s	s	n/a
400.674	0.15	801348	keystroke_i	i	n/a
400.734	0.105	801468	keystroke_o	o	n/a
400.779	0.105	801558	keystroke_n	n	n/a
400.989	0.045	801978	keystroke_s	s	n/a
401.229	0.075	802458	keystroke_Key.space	Key.space	n/a
401.634	0.12	803268	keystroke_p	p	n/a
401.814	0.105	803628	keystroke_r	r	n/a
401.92	0.104	803840	keystroke_o	o	n/a
402.129	0.09	804258	keystroke_d	d	n/a
402.669	0.12	805338	keystroke_u	u	n/a
402.774	0.09	805548	keystroke_c	c	n/a
402.9845	0.0595	805969	keystroke_t	t	n/a
403.059	0.0905	806118	keystroke_i	i	n/a
403.2245	0.165	806449	keystroke_v	v	n/a
403.3595	0.1195	806719	keystroke_e	e	n/a
403.494	0.0605	806988	keystroke_Key.space	Key.space	n/a
404.2445	0.12	808489	keystroke_i	i	n/a
404.3195	0.105	808639	keystroke_n	n	n/a
404.4695	0.105	808939	keystroke_f	f	n/a
404.5895	0.015	809179	keystroke_l	l	n/a
404.7095	0.135	809419	keystroke_u	u	n/a
405.0395	0.09	810079	keystroke_e	e	n/a
405.2495	0.075	810499	keystroke_n	n	n/a
405.3545	0.165	810709	keystroke_c	c	n/a
405.4745	0.105	810949	keystroke_e	e	n/a
405.5945	0.06	811189	keystroke_Key.enter	Key.enter	n/a
405.6635	7.0575	811327	prompt	n/a	tunnel showcase melissa extreme\n
406.4345	0.105	812869	keystroke_t	t	n/a
406.5545	0.09	813109	keystroke_u	u	n/a
406.7195	0.045	813439	keystroke_n	n	n/a
406.8245	0.09	813649	keystroke_n	n	n/a
406.9595	0.105	813919	keystroke_e	e	n/a
407.0795	0.075	814159	keystroke_l	l	n/a
407.2145	0.09	814429	keystroke_Key.space	Key.space	n/a
407.5145	0.105	815029	keystroke_s	s	n/a
407.6045	0.075	815209	keystroke_h	h	n/a
407.8445	0.075	815689	keystroke_o	o	n/a
408.2045	0.09	816409	keystroke_w	w	n/a
408.4595	0.15	816919	keystroke_c	c	n/a
408.5945	0.15	817189	keystroke_a	a	n/a
408.6995	0.21	817399	keystroke_s	s	n/a
408.8495	0.12	817699	keystroke_e	e	n/a
409.0145	0.075	818029	keystroke_Key.space	Key.space	n/a
409.2845	0.105	818569	keystroke_m	m	n/a
409.3745	0.105	818749	keystroke_e	e	n/a
409.5395	0.075	819079	keystroke_l	l	n/a
409.6295	0.06	819259	keystroke_l	l	n/a
409.9295	0.06	819859	keystroke_i	i	n/a
410.6495	0.075	821299	keystroke_s	s	n/a
410.9045	0.15	821809	keystroke_s	s	n/a
411.0245	0.12	822049	keystroke_a	a	n/a
411.1445	0.09	822289	keystroke_Key.space	Key.space	n/a
411.2945	0.105	822589	keystroke_e	e	n/a
411.5195	0.15	823039	keystroke_x	x	n/a
411.7895	0.06	823579	keystroke_t	t	n/a
411.9395	0.15	823879	keystroke_r	r	n/a
412.2695	0.12	824539	keystroke_e	e	n/a
412.4045	0.06	824809	keystroke_m	m	n/a
412.4795	0.12	824959	keystroke_e	e	n/a
412.6445	0.075	825289	keystroke_Key.enter	Key.enter	n/a
412.7255	6.6105	825451	prompt	n/a	packing sigma clocks sierra\n
413.3345	0.06	826669	keystroke_p	p	n/a
413.515	0.165	827030	keystroke_a	a	n/a
413.65	0.12	827300	keystroke_c	c	n/a
413.95	0.105	827900	keystroke_i	i	n/a
414.28	0.06	828560	keystroke_Key.backspace	Key.backspace	n/a
414.49	0.075	828980	keystroke_k	k	n/a
414.73	0.09	829460	keystroke_i	i	n/a
415.39	0.045	830780	keystroke_g	g	n/a
415.465	0.09	830930	keystroke_n	n	n/a
415.63	0.09	831260	keystroke_Key.space	Key.space	n/a
415.8845	0.12	831769	keystroke_s	s	n/a
416.0195	0.03	832039	keystroke_i	i	n/a
416.0345	0.03	832069	keystroke_u	u	n/a
416.1095	0.06	832219	keystroke_g	g	n/a
416.1845	0.105	832369	keystroke_m	m	n/a
416.3345	0.15	832669	keystroke_a	a	n/a
416.4545	0.09	832909	keystroke_Key.space	Key.space	n/a
416.6495	0.12	833299	keystroke_c	c	n/a
416.7095	0.075	833419	keystroke_l	l	n/a
416.8445	0.09	833689	keystroke_o	o	n/a
417.0545	0.15	834109	keystroke_c	c	n/a
417.5345	0.09	835069	keystroke_k	k	n/a
417.6545	0.09	835309	keystroke_s	s	n/a
417.7595	0.09	835519	keystroke_Key.space	Key.space	n/a
417.9095	0.105	835819	keystroke_s	s	n/a
418.0295	0.09	836059	keystroke_i	i	n/a
418.2845	0.075	836569	keystroke_r	r	n/a
418.4495	0.105	836899	keystroke_e	e	n/a
418.6445	0.09	837289	keystroke_e	e	n/a
418.9295	0.12	837859	keystroke_a	a	n/a
419.3045	0.03	838609	keystroke_Key.enter	Key.enter	n/a
419.339	5.112	838678	prompt	n/a	minerals rome trauma athletes\n
420.1295	0.135	840259	keystroke_m	m	n/a
420.2795	0.135	840559	keystroke_i	i	n/a
420.3995	0.09	840799	keystroke_n	n	n/a
420.5345	0.06	841069	keystroke_e	e	n/a
420.6995	0.12	841399	keystroke_r	r	n/a
420.7745	0.165	841549	keystroke_a	a	n/a
420.8795	0.075	841759	keystroke_l	l	n/a
420.9995	0.075	841999	keystroke_s	s	n/a
421.0445	0.075	842089	keystroke_Key.space	Key.space	n/a
421.3895	0.075	842779	keystroke_r	r	n/a
421.4495	0.105	842899	keystroke_o	o	n/a
421.5245	0.09	843049	keystroke_m	m	n/a
421.6295	0.105	843259	keystroke_e	e	n/a
421.6745	0.12	843349	keystroke_Key.space	Key.space	n/a
421.8545	0.09	843709	keystroke_t	t	n/a
422.0345	0.15	844069	keystroke_r	r	n/a
422.1395	0.12	844279	keystroke_a	a	n/a
422.4395	0.09	844879	keystroke_u	u	n/a
422.5895	0.135	845179	keystroke_m	m	n/a
422.7095	0.09	845419	keystroke_a	a	n/a
422.8295	0.105	845659	keystroke_Key.space	Key.space	n/a
423.0995	0.18	846199	keystroke_a	a	n/a
423.2645	0.12	846529	keystroke_t	t	n/a
423.3995	0.09	846799	keystroke_h	h	n/a
423.5195	0.12	847039	keystroke_e	e	n/a
423.6245	0.06	847249	keystroke_l	l	n/a
423.7445	0.09	847489	keystroke_e	e	n/a
423.8495	0.195	847699	keystroke_r	r	n/a
423.9545	0.03	847909	keystroke_t	t	n/a
424.0295	0.09	848059	keystroke_s	s	n/a
424.4195	0.03	848839	keystroke_Key.enter	Key.enter	n/a
424.4535	8.8175	848907	prompt	n/a	andreas indonesia instruments partial\n
425.1845	0.12	850369	keystroke_a	a	n/a
425.3645	0.105	850729	keystroke_n	n	n/a
425.4545	0.12	850909	keystroke_d	d	n/a
425.6945	0.09	851389	keystroke_r	r	n/a
425.8895	0.165	851779	keystroke_e	e	n/a
426.0395	0.21	852079	keystroke_a	a	n/a
426.2195	0.135	852439	keystroke_s	s	n/a
426.4445	0.075	852889	keystroke_Key.space	Key.space	n/a
426.6695	0.135	853339	keystroke_i	i	n/a
426.7745	0.105	853549	keystroke_n	n	n/a
426.8645	0.105	853729	keystroke_d	d	n/a
426.9545	0.105	853909	keystroke_o	o	n/a
427.5845	0.03	855169	keystroke_e	e	n/a
427.7945	0.075	855589	keystroke_s	s	n/a
427.8845	0.09	855769	keystroke_i	i	n/a
427.9595	0.18	855919	keystroke_a	a	n/a
428.0945	0.105	856189	keystroke_Key.space	Key.space	n/a
428.4245	0.195	856849	keystroke_i	i	n/a
428.5145	0.135	857029	keystroke_n	n	n/a
428.6345	0.105	857269	keystroke_t	t	n/a
428.8595	0.165	857719	keystroke_r	r	n/a
429.6695	0.09	859339	keystroke_s	s	n/a
429.8345	0.105	859669	keystroke_t	t	n/a
430.0145	0.09	860029	keystroke_u	u	n/a
430.3745	0.09	860749	keystroke_m	m	n/a
430.4795	0.09	860959	keystroke_e	e	n/a
430.5545	0.12	861109	keystroke_n	n	n/a
430.6295	0.15	861259	keystroke_t	t	n/a
430.7045	0.135	861409	keystroke_s	s	n/a
430.8245	0.09	861649	keystroke_Key.space	Key.space	n/a
431.2295	0.015	862459	keystroke_p	p	n/a
431.2595	0.075	862519	keystroke_a	a	n/a
432.4595	0.09	864919	keystroke_r	r	n/a
432.6395	0.09	865279	keystroke_t	t	n/a
432.7295	0.09	865459	keystroke_i	i	n/a
432.8645	0.12	865729	keystroke_a	a	n/a
433.0145	0.045	866029	keystroke_l	l	n/a
433.1795	0.09	866359	keystroke_Key.enter	Key.enter	n/a
433.287	4.604	866574	prompt	n/a	chile toolkit problem newport\n
434.0195	0.105	868039	keystroke_c	c	n/a
434.1545	0.09	868309	keystroke_h	h	n/a
434.3195	0.105	868639	keystroke_i	i	n/a
434.4695	0.105	868939	keystroke_l	l	n/a
434.5895	0.105	869179	keystroke_e	e	n/a
434.6495	0.09	869299	keystroke_Key.space	Key.space	n/a
434.845	0.0895	869690	keystroke_t	t	n/a
434.8895	0.06	869779	keystroke_o	o	n/a
435.0095	0.075	870019	keystroke_o	o	n/a
435.1445	0.105	870289	keystroke_k	k	n/a
435.4295	0.075	870859	keystroke_i	i	n/a
435.5645	0.105	871129	keystroke_t	t	n/a
435.6845	0.075	871369	keystroke_Key.space	Key.space	n/a
435.9245	0.0905	871849	keystroke_p	p	n/a
436.06	0.135	872120	keystroke_r	r	n/a
436.135	0.105	872270	keystroke_o	o	n/a
436.285	0.12	872570	keystroke_b	b	n/a
436.435	0.09	872870	keystroke_l	l	n/a
436.57	0.075	873140	keystroke_e	e	n/a
436.615	0.075	873230	keystroke_m	m	n/a
436.78	0.09	873560	keystroke_Key.space	Key.space	n/a
437.005	0.089	874010	keystroke_n	n	n/a
437.109	0.166	874218	keystroke_e	e	n/a
437.185	0.135	874370	keystroke_w	w	n/a
437.335	0.015	874670	keystroke_Key.space	Key.space	n/a
437.425	0.105	874850	keystroke_p	p	n/a
437.5	0.12	875000	keystroke_o	o	n/a
437.545	0.119	875090	keystroke_r	r	n/a
437.755	0.075	875510	keystroke_t	t	n/a
437.815	0.074	875630	keystroke_Key.enter	Key.enter	n/a
437.894	5.592	875788	prompt	n/a	crisis magic potter kinase\n
438.565	0.104	877130	keystroke_c	c	n/a
438.775	0.105	877550	keystroke_r	r	n/a
438.85	0.074	877700	keystroke_i	i	n/a
438.955	0.1045	877910	keystroke_s	s	n/a
439.1795	0.0745	878359	keystroke_Key.space	Key.space	n/a
439.2845	0.105	878569	keystroke_m	m	n/a
439.3595	0.12	878719	keystroke_a	a	n/a
439.4945	0.12	878989	keystroke_g	g	n/a
439.6745	0.09	879349	keystroke_i	i	n/a
440.3195	0.105	880639	keystroke_c	c	n/a
440.4545	0.09	880909	keystroke_Key.space	Key.space	n/a
440.6795	0.0745	881359	keystroke_p	p	n/a
440.8445	0.09	881689	keystroke_o	o	n/a
440.9645	0.06	881929	keystroke_t	t	n/a
441.1145	0.105	882229	keystroke_t	t	n/a
441.3545	0.165	882709	keystroke_e	e	n/a
441.4745	0.12	882949	keystroke_r	r	n/a
441.6395	0.105	883279	keystroke_Key.space	Key.space	n/a
442.6595	0.045	885319	keystroke_k	k	n/a
442.7795	0.12	885559	keystroke_i	i	n/a
442.8845	0.12	885769	keystroke_n	n	n/a
443.0195	0.18	886039	keystroke_a	a	n/a
443.1545	0.165	886309	keystroke_s	s	n/a
443.2895	0.105	886579	keystroke_e	e	n/a
443.3495	0.135	886699	keystroke_Key.enter	Key.enter	n/a
443.4905	8.08	886981	prompt	n/a	totals lady trembl backgrounds\n
444.2195	0.135	888439	keystroke_t	t	n/a
444.3695	0.135	888739	keystroke_a	a	n/a
445.0895	0.075	890179	keystroke_Key.backspace	Key.backspace	n/a
445.2995	0.075	890599	keystroke_o	o	n/a
445.3595	0.15	890719	keystroke_t	t	n/a
445.4795	0.105	890959	keystroke_a	a	n/a
445.5845	0.075	891169	keystroke_l	l	n/a
445.7345	0.075	891469	keystroke_a	a	n/a
445.8395	0.105	891679	keystroke_s	s	n/a
445.9595	0.12	891919	keystroke_Key.space	Key.space	n/a
446.8445	0.06	893689	keystroke_l	l	n/a
446.9345	0.135	893869	keystroke_a	a	n/a
447.0545	0.105	894109	keystroke_d	d	n/a
447.1745	0.105	894349	keystroke_y	y	n/a
447.3395	0.105	894679	keystroke_Key.space	Key.space	n/a
447.4895	0.105	894979	keystroke_t	t	n/a
447.6695	0.12	895339	keystroke_r	r	n/a
447.7745	0.12	895549	keystroke_m	m	n/a
447.9095	0.06	895819	keystroke_e	e	n/a
448.2545	0.105	896509	keystroke_b	b	n/a
448.6895	0.06	897379	keystroke_l	l	n/a
448.9595	0.12	897919	keystroke_Key.space	Key.space	n/a
449.3945	0.105	898789	keystroke_b	b	n/a
449.7995	0.165	899599	keystroke_a	a	n/a
449.8895	0.135	899779	keystroke_c	c	n/a
450.0395	0.06	900079	keystroke_k	k	n/a
450.2195	0.09	900439	keystroke_g	g	n/a
450.3845	0.135	900769	keystroke_r	r	n/a
450.4895	0.195	900979	keystroke_o	o	n/a
450.5945	0.105	901189	keystroke_u	u	n/a
450.6845	0.135	901369	keystroke_n	n	n/a
450.8345	0.06	901669	keystroke_d	d	n/a
451.48	0.06	902960	keystroke_s	s	n/a
451.525	0.044	903050	keystroke_Key.enter	Key.enter	n/a
451.5735	7.032	903147	prompt	n/a	equally horn multiple attendance\n
452.2145	0.09	904429	keystroke_e	e	n/a
452.4845	0.105	904969	keystroke_q	q	n/a
452.6345	0.12	905269	keystroke_u	u	n/a
452.8895	0.105	905779	keystroke_a	a	n/a
453.0245	0.075	906049	keystroke_l	l	n/a
453.1445	0.09	906289	keystroke_l	l	n/a
453.2795	0.075	906559	keystroke_y	y	n/a
453.8045	0.105	907609	keystroke_Key.space	Key.space	n/a
454.0445	0.075	908089	keystroke_h	h	n/a
454.1645	0.105	908329	keystroke_o	o	n/a
454.2995	0.12	908599	keystroke_r	r	n/a
454.4045	0.075	908809	keystroke_n	n	n/a
454.5395	0.09	909079	keystroke_Key.space	Key.space	n/a
454.6745	0.105	909349	keystroke_m	m	n/a
454.9295	0.09	909859	keystroke_u	u	n/a
455.2145	0.015	910429	keystroke_l	l	n/a
455.2445	0.12	910489	keystroke_t	t	n/a
455.3495	0.075	910699	keystroke_i	i	n/a
456.0545	0.105	912109	keystroke_p	p	n/a
456.1595	0.105	912319	keystroke_l	l	n/a
456.2795	0.09	912559	keystroke_e	e	n/a
456.4745	0.105	912949	keystroke_Key.space	Key.space	n/a
457.089	0.12	914178	keystroke_a	a	n/a
457.254	0.06	914508	keystroke_t	t	n/a
457.39	0.12	914780	keystroke_t	t	n/a
457.524	0.135	915048	keystroke_e	e	n/a
457.674	0.09	915348	keystroke_n	n	n/a
457.794	0.15	915588	keystroke_d	d	n/a
457.989	0.15	915978	keystroke_a	a	n/a
458.244	0.075	916488	keystroke_n	n	n/a
458.334	0.135	916668	keystroke_c	c	n/a
458.409	0.105	916818	keystroke_e	e	n/a
458.544	0.06	917088	keystroke_Key.enter	Key.enter	n/a
458.6085	7.947	917217	prompt	n/a	provincial blogging obtaining posing\n
459.414	0.105	918828	keystroke_p	p	n/a
459.564	0.105	919128	keystroke_r	r	n/a
459.684	0.09	919368	keystroke_o	o	n/a
459.834	0.09	919668	keystroke_v	v	n/a
459.999	0.09	919998	keystroke_i	i	n/a
460.209	0.075	920418	keystroke_n	n	n/a
460.269	0.18	920538	keystroke_c	c	n/a
460.719	0.075	921438	keystroke_i	i	n/a
460.869	0.12	921738	keystroke_a	a	n/a
461.019	0.06	922038	keystroke_l	l	n/a
461.604	0.09	923208	keystroke_Key.space	Key.space	n/a
461.829	0.15	923658	keystroke_b	b	n/a
461.949	0.09	923898	keystroke_l	l	n/a
462.114	0.12	924228	keystroke_o	o	n/a
462.294	0.075	924588	keystroke_g	g	n/a
462.459	0.075	924918	keystroke_g	g	n/a
462.549	0.165	925098	keystroke_i	i	n/a
462.639	0.12	925278	keystroke_n	n	n/a
463.074	0.06	926148	keystroke_g	g	n/a
463.239	0.105	926478	keystroke_Key.space	Key.space	n/a
463.479	0.105	926958	keystroke_o	o	n/a
463.614	0.105	927228	keystroke_b	b	n/a
463.734	0.105	927468	keystroke_t	t	n/a
463.899	0.165	927798	keystroke_a	a	n/a
464.004	0.135	928008	keystroke_i	i	n/a
464.094	0.09	928188	keystroke_n	n	n/a
464.514	0.135	929028	keystroke_i	i	n/a
464.589	0.105	929178	keystroke_n	n	n/a
464.695	0.059	929390	keystroke_g	g	n/a
465.4595	0.09	930919	keystroke_Key.space	Key.space	n/a
465.7445	0.12	931489	keystroke_p	p	n/a
465.9095	0.09	931819	keystroke_o	o	n/a
466.0295	0.105	932059	keystroke_s	s	n/a
466.1495	0.165	932299	keystroke_i	i	n/a
466.2545	0.105	932509	keystroke_n	n	n/a
466.3445	0.075	932689	keystroke_g	g	n/a
466.4795	0.075	932959	keystroke_Key.enter	Key.enter	n/a
466.5585	4.662	933117	prompt	n/a	scanners screenshot rise the\n
467.4395	0.12	934879	keystroke_s	s	n/a
467.5595	0.1495	935119	keystroke_c	c	n/a
467.724	0.165	935448	keystroke_a	a	n/a
467.874	0.046	935748	keystroke_n	n	n/a
467.964	0.075	935928	keystroke_n	n	n/a
468.084	0.105	936168	keystroke_e	e	n/a
468.249	0.15	936498	keystroke_r	r	n/a
468.324	0.12	936648	keystroke_s	s	n/a
468.459	0.075	936918	keystroke_Key.space	Key.space	n/a
468.639	0.12	937278	keystroke_s	s	n/a
468.744	0.105	937488	keystroke_c	c	n/a
468.954	0.0905	937908	keystroke_r	r	n/a
469.1495	0.06	938299	keystroke_e	e	n/a
469.3145	0.09	938629	keystroke_e	e	n/a
469.4345	0.09	938869	keystroke_n	n	n/a
469.5695	0.105	939139	keystroke_s	s	n/a
469.6895	0.165	939379	keystroke_h	h	n/a
469.7795	0.12	939559	keystroke_o	o	n/a
469.8395	0.075	939679	keystroke_t	t	n/a
469.9595	0.12	939919	keystroke_Key.space	Key.space	n/a
470.2295	0.135	940459	keystroke_r	r	n/a
470.3345	0.12	940669	keystroke_i	i	n/a
470.4395	0.134	940879	keystroke_s	s	n/a
470.5595	0.075	941119	keystroke_e	e	n/a
470.6195	0.09	941239	keystroke_Key.space	Key.space	n/a
470.7395	0.089	941479	keystroke_t	t	n/a
470.8145	0.09	941629	keystroke_h	h	n/a
470.9495	0.09	941899	keystroke_e	e	n/a
471.1745	0.044	942349	keystroke_Key.enter	Key.enter	n/a
471.2235	6.777	942447	prompt	n/a	olive scoring genes thumb\n
472.2245	0.045	944449	keystroke_o	o	n/a
472.3745	0.06	944749	keystroke_l	l	n/a
472.5095	0.12	945019	keystroke_i	i	n/a
472.6145	0.1345	945229	keystroke_v	v	n/a
472.7645	0.105	945529	keystroke_e	e	n/a
472.8545	0.075	945709	keystroke_Key.space	Key.space	n/a
472.9445	0.12	945889	keystroke_s	s	n/a
473.1095	0.119	946219	keystroke_c	c	n/a
473.6645	0.09	947329	keystroke_o	o	n/a
474.2795	0.06	948559	keystroke_r	r	n/a
474.4145	0.209	948829	keystroke_i	i	n/a
474.5495	0.15	949099	keystroke_n	n	n/a
474.6845	0.0895	949369	keystroke_g	g	n/a
474.804	0.105	949608	keystroke_Key.space	Key.space	n/a
475.239	0.075	950478	keystroke_g	g	n/a
475.375	0.119	950750	keystroke_e	e	n/a
475.449	0.076	950898	keystroke_n	n	n/a
475.599	0.195	951198	keystroke_e	e	n/a
475.704	0.135	951408	keystroke_s	s	n/a
475.914	0.075	951828	keystroke_Key.space	Key.space	n/a
476.259	0.09	952518	keystroke_t	t	n/a
476.319	0.075	952638	keystroke_h	h	n/a
476.604	0.09	953208	keystroke_u	u	n/a
476.814	0.06	953628	keystroke_m	m	n/a
476.949	0.075	953898	keystroke_b	b	n/a
477.129	0.045	954258	keystroke_'	'	n/a
477.744	0.06	955488	keystroke_Key.backspace	Key.backspace	n/a
477.924	0.075	955848	keystroke_Key.enter	Key.enter	n/a
478.004	8.2165	956008	prompt	n/a	paraguay opponents positioning am\n
478.749	0.09	957498	keystroke_p	p	n/a
479.109	0.15	958218	keystroke_a	a	n/a
479.304	0.15	958608	keystroke_r	r	n/a
479.439	0.09	958878	keystroke_a	a	n/a
480.114	0.1055	960228	keystroke_g	g	n/a
480.2345	0.075	960469	keystroke_u	u	n/a
480.4895	0.075	960979	keystroke_a	a	n/a
480.5495	0.06	961099	keystroke_y	y	n/a
480.7895	0.12	961579	keystroke_Key.space	Key.space	n/a
481.1495	0.06	962299	keystroke_o	o	n/a
481.3145	0.06	962629	keystroke_p	p	n/a
481.4345	0.075	962869	keystroke_p	p	n/a
481.9595	0.075	963919	keystroke_o	o	n/a
482.3645	0.075	964729	keystroke_n	n	n/a
482.7095	0.12	965419	keystroke_e	e	n/a
482.8445	0.15	965689	keystroke_n	n	n/a
482.9495	0.15	965899	keystroke_t	t	n/a
483.0545	0.135	966109	keystroke_s	s	n/a
483.1745	0.105	966349	keystroke_Key.space	Key.space	n/a
483.3695	0.09	966739	keystroke_p	p	n/a
483.5345	0.075	967069	keystroke_o	o	n/a
483.6245	0.105	967249	keystroke_s	s	n/a
484.0595	0.075	968119	keystroke_i	i	n/a
484.2095	0.105	968419	keystroke_t	t	n/a
484.3295	0.06	968659	keystroke_i	i	n/a
484.4195	0.06	968839	keystroke_t	t	n/a
484.5545	0.18	969109	keystroke_i	i	n/a
484.6295	0.1345	969259	keystroke_o	o	n/a
484.6895	0.1345	969379	keystroke_n	n	n/a
485.394	0.12	970788	keystroke_s	s	n/a
485.664	0.09	971328	keystroke_Key.space	Key.space	n/a
485.874	0.12	971748	keystroke_a	a	n/a
485.964	0.06	971928	keystroke_m	m	n/a
486.144	0.075	972288	keystroke_Key.enter	Key.enter	n/a
486.2235	7.512	972447	prompt	n/a	fruits julian opposed jump\n
486.8945	0.105	973789	keystroke_f	f	n/a
487.0745	0.135	974149	keystroke_r	r	n/a
487.1495	0.09	974299	keystroke_u	u	n/a
487.2545	0.105	974509	keystroke_s	s	n/a
487.4045	0.1195	974809	keystroke_i	i	n/a
487.509	0.135	975018	keystroke_t	t	n/a
487.599	0.09	975198	keystroke_s	s	n/a
487.854	0.03	975708	keystroke_Key.backspace	Key.backspace	n/a
487.929	0.045	975858	keystroke_Key.backspace	Key.backspace	n/a
488.034	0.06	976068	keystroke_Key.backspace	Key.backspace	n/a
488.1695	0.03	976339	keystroke_Key.backspace	Key.backspace	n/a
488.5295	0.09	977059	keystroke_i	i	n/a
488.5745	0.15	977149	keystroke_t	t	n/a
488.6645	0.105	977329	keystroke_s	s	n/a
488.8445	0.105	977689	keystroke_Key.space	Key.space	n/a
489.3545	0.015	978709	keystroke_l	l	n/a
489.6095	0.09	979219	keystroke_Key.backspace	Key.backspace	n/a
489.8495	0.075	979699	keystroke_j	j	n/a
489.9545	0.0745	979909	keystroke_u	u	n/a
490.1495	0.075	980299	keystroke_l	l	n/a
490.3595	0.09	980719	keystroke_i	i	n/a
490.4795	0.09	980959	keystroke_a	a	n/a
490.6145	0.075	981229	keystroke_n	n	n/a
490.7795	0.09	981559	keystroke_Key.space	Key.space	n/a
491.0195	0.075	982039	keystroke_o	o	n/a
491.3495	0.045	982699	keystroke_p	p	n/a
491.4695	0.045	982939	keystroke_p	p	n/a
491.6045	0.09	983209	keystroke_o	o	n/a
491.7095	0.12	983419	keystroke_s	s	n/a
491.9045	0.09	983809	keystroke_e	e	n/a
492.0695	0.105	984139	keystroke_d	d	n/a
492.1445	0.09	984289	keystroke_Key.space	Key.space	n/a
492.3545	0.075	984709	keystroke_j	j	n/a
492.9095	0.105	985819	keystroke_u	u	n/a
493.0745	0.15	986149	keystroke_m	m	n/a
493.4795	0.06	986959	keystroke_p	p	n/a
493.6595	0.075	987319	keystroke_Key.enter	Key.enter	n/a
493.739	6.9115	987478	prompt	n/a	earnings unix grain asking\n
494.3795	0.18	988759	keystroke_e	e	n/a
494.5145	0.15	989029	keystroke_a	a	n/a
494.6945	0.135	989389	keystroke_r	r	n/a
494.7995	0.075	989599	keystroke_n	n	n/a
494.8895	0.15	989779	keystroke_i	i	n/a
494.9945	0.075	989989	keystroke_n	n	n/a
495.0095	0.12	990019	keystroke_g	g	n/a
495.0995	0.105	990199	keystroke_s	s	n/a
495.1745	0.12	990349	keystroke_Key.space	Key.space	n/a
495.4145	0.12	990829	keystroke_u	u	n/a
495.5645	0.165	991129	keystroke_n	n	n/a
495.6845	0.12	991369	keystroke_i	i	n/a
495.8195	0.135	991639	keystroke_c	c	n/a
496.6445	0.12	993289	keystroke_Key.space	Key.space	n/a
497.0645	0.105	994129	keystroke_g	g	n/a
497.1995	0.15	994399	keystroke_r	r	n/a
497.3045	0.135	994609	keystroke_a	a	n/a
497.5295	0.09	995059	keystroke_n	n	n/a
499.8715	0.058	999743	keystroke_Key.space	Key.space	n/a
499.9445	0.135	999889	keystroke_a	a	n/a
500.0195	0.165	1000039	keystroke_s	s	n/a
500.1545	0.045	1000309	keystroke_k	k	n/a
500.2745	0.1195	1000549	keystroke_i	i	n/a
500.3645	0.0895	1000729	keystroke_n	n	n/a
500.409	0.075	1000818	keystroke_g	g	n/a
500.529	0.12	1001058	keystroke_Key.enter	Key.enter	n/a
500.6545	8.786	1001309	prompt	n/a	trackbacks promises talent habits\n
501.414	0.165	1002828	keystroke_r	r	n/a
501.564	0.195	1003128	keystroke_a	a	n/a
501.729	0.12	1003458	keystroke_c	c	n/a
501.999	0.09	1003998	keystroke_b	b	n/a
502.359	0.06	1004718	keystroke_Key.backspace	Key.backspace	n/a
502.599	0.12	1005198	keystroke_Key.backspace	Key.backspace	n/a
502.794	0.045	1005588	keystroke_Key.backspace	Key.backspace	n/a
502.899	0.15	1005798	keystroke_Key.backspace	Key.backspace	n/a
503.079	0.09	1006158	keystroke_t	t	n/a
503.244	0.12	1006488	keystroke_r	r	n/a
503.334	0.1655	1006668	keystroke_a	a	n/a
503.4695	0.105	1006939	keystroke_c	c	n/a
503.7995	0.075	1007599	keystroke_k	k	n/a
504.0245	0.075	1008049	keystroke_b	b	n/a
504.1295	0.15	1008259	keystroke_a	a	n/a
