onset	duration	sample	value	key	prompt_text
1.2745	8.6955	2549	prompt	n/a	the quick brown fox jumps over a lazy dog\n
2.782	0.0275	5564	keystroke_t	t	n/a
2.8545	0.0755	5709	keystroke_h	h	n/a
2.915	0.09	5830	keystroke_e	e	n/a
3.0795	0.1055	6159	keystroke_Key.space	Key.space	n/a
3.245	0.075	6490	keystroke_q	q	n/a
3.395	0.075	6790	keystroke_u	u	n/a
3.605	0.0745	7210	keystroke_i	i	n/a
3.7105	0.1045	7421	keystroke_c	c	n/a
3.845	0.09	7690	keystroke_k	k	n/a
4.07	0.045	8140	keystroke_Key.space	Key.space	n/a
4.2505	0.0745	8501	keystroke_b	b	n/a
4.385	0.06	8770	keystroke_r	r	n/a
4.475	0.1055	8950	keystroke_o	o	n/a
4.61	0.0905	9220	keystroke_w	w	n/a
4.745	0.075	9490	keystroke_n	n	n/a
4.9555	0.06	9911	keystroke_Key.space	Key.space	n/a
5.045	0.0745	10090	keystroke_f	f	n/a
5.165	0.06	10330	keystroke_o	o	n/a
5.3905	0.075	10781	keystroke_x	x	n/a
5.495	0.06	10990	keystroke_Key.space	Key.space	n/a
6.305	0.0465	12610	keystroke_j	j	n/a
6.4565	0.0595	12913	keystroke_u	u	n/a
6.637	0.075	13274	keystroke_m	m	n/a
6.8165	0.0755	13633	keystroke_p	p	n/a
6.907	0.0745	13814	keystroke_s	s	n/a
7.042	0.06	14084	keystroke_Key.space	Key.space	n/a
7.2225	0.09	14445	keystroke_o	o	n/a
7.447	0.0605	14894	keystroke_v	v	n/a
7.582	0.151	15164	keystroke_e	e	n/a
7.733	0.075	15466	keystroke_r	r	n/a
7.867	0.0905	15734	keystroke_Key.space	Key.space	n/a
7.9875	0.0895	15975	keystroke_a	a	n/a
8.122	0.06	16244	keystroke_Key.space	Key.space	n/a
8.3475	0.0755	16695	keystroke_l	l	n/a
8.438	0.0895	16876	keystroke_a	a	n/a
8.737	0.06	17474	keystroke_z	z	n/a
8.917	0.0755	17834	keystroke_y	y	n/a
9.1425	0.075	18285	keystroke_Key.space	Key.space	n/a
9.3975	0.075	18795	keystroke_d	d	n/a
9.593	0.09	19186	keystroke_o	o	n/a
9.7275	0.0745	19455	keystroke_g	g	n/a
9.892	0.075	19784	keystroke_Key.enter	Key.enter	n/a
9.975	9.0095	19950	prompt	n/a	harold annotated y'all powered\n
10.7775	0.0445	21555	keystroke_h	h	n/a
10.807	0.121	21614	keystroke_a	a	n/a
10.987	0.09	21974	keystroke_r	r	n/a
11.3175	0.0605	22635	keystroke_o	o	n/a
11.497	0.0755	22994	keystroke_l	l	n/a
11.603	0.0895	23206	keystroke_d	d	n/a
11.8425	0.0745	23685	keystroke_Key.space	Key.space	n/a
12.1275	0.0895	24255	keystroke_a	a	n/a
12.322	0.0605	24644	keystroke_n	n	n/a
12.457	0.091	24914	keystroke_n	n	n/a
13.597	0.0755	27194	keystroke_o	o	n/a
13.8675	0.09	27735	keystroke_t	t	n/a
13.9725	0.15	27945	keystroke_a	a	n/a
14.1245	0.118	28249	keystroke_t	t	n/a
14.257	0.1065	28514	keystroke_e	e	n/a
14.722	0.0455	29444	keystroke_d	d	n/a
14.9475	0.0745	29895	keystroke_Key.space	Key.space	n/a
15.5475	0.1045	31095	keystroke_y	y	n/a
16.102	0.0755	32204	keystroke_'	'	n/a
16.283	0.075	32566	keystroke_a	a	n/a
16.402	0.061	32804	keystroke_l	l	n/a
16.537	0.0905	33074	keystroke_l	l	n/a
16.837	0.0605	33674	keystroke_Key.space	Key.space	n/a
17.1375	0.105	34275	keystroke_p	p	n/a
17.347	0.075	34694	keystroke_o	o	n/a
17.468	0.074	34936	keystroke_w	w	n/a
17.5725	0.105	35145	keystroke_e	e	n/a
17.783	0.09	35566	keystroke_r	r	n/a
18.0225	0.1955	36045	keystroke_e	e	n/a
18.203	0.119	36406	keystroke_d	d	n/a
18.892	0.0905	37784	keystroke_Key.enter	Key.enter	n/a
18.991	6.8785	37982	prompt	n/a	potential voted quiet castle\n
19.972	0.1055	39944	keystroke_p	p	n/a
20.1975	0.0605	40395	keystroke_o	o	n/a
20.363	0.105	40726	keystroke_t	t	n/a
21.0675	0.0745	42135	keystroke_e	e	n/a
21.2625	0.1045	42525	keystroke_n	n	n/a
21.398	0.09	42796	keystroke_t	t	n/a
21.5175	0.0755	43035	keystroke_i	i	n/a
21.623	0.09	43246	keystroke_a	a	n/a
21.7575	0.0905	43515	keystroke_l	l	n/a
22.013	0.075	44026	keystroke_Key.space	Key.space	n/a
22.2985	0.0445	44597	keystroke_v	v	n/a
22.403	0.09	44806	keystroke_o	o	n/a
22.628	0.105	45256	keystroke_t	t	n/a
22.718	0.1345	45436	keystroke_e	e	n/a
22.9125	0.0895	45825	keystroke_d	d	n/a
23.183	0.045	46366	keystroke_Key.space	Key.space	n/a
23.588	0.09	47176	keystroke_q	q	n/a
23.752	0.046	47504	keystroke_u	u	n/a
23.9475	0.075	47895	keystroke_i	i	n/a
24.008	0.09	48016	keystroke_e	e	n/a
24.233	0.0755	48466	keystroke_t	t	n/a
24.4425	0.0605	48885	keystroke_Key.space	Key.space	n/a
24.6225	0.09	49245	keystroke_c	c	n/a
24.7275	0.0905	49455	keystroke_a	a	n/a
24.938	0.089	49876	keystroke_s	s	n/a
25.1925	0.0605	50385	keystroke_t	t	n/a
25.3585	0.0735	50717	keystroke_l	l	n/a
25.418	0.0595	50836	keystroke_e	e	n/a
25.7775	0.0905	51555	keystroke_Key.enter	Key.enter	n/a
25.8735	11.1415	51747	prompt	n/a	trials functioning gibraltar genesis\n
26.6025	0.0905	53205	keystroke_t	t	n/a
26.962	0.075	53924	keystroke_r	r	n/a
27.1125	0.0755	54225	keystroke_i	i	n/a
27.202	0.121	54404	keystroke_a	a	n/a
27.3525	0.075	54705	keystroke_l	l	n/a
27.473	0.06	54946	keystroke_s	s	n/a
27.652	0.075	55304	keystroke_Key.space	Key.space	n/a
27.968	0.0445	55936	keystroke_f	f	n/a
28.133	0.1195	56266	keystroke_u	u	n/a
28.208	0.09	56416	keystroke_n	n	n/a
28.358	0.09	56716	keystroke_c	c	n/a
28.5985	0.059	57197	keystroke_t	t	n/a
28.6725	0.2095	57345	keystroke_i	i	n/a
28.7325	0.1655	57465	keystroke_o	o	n/a
28.808	0.105	57616	keystroke_n	n	n/a
29.8575	0.075	59715	keystroke_i	i	n/a
29.8725	0.135	59745	keystroke_n	n	n/a
30.758	0.06	61516	keystroke_g	g	n/a
30.9675	0.09	61935	keystroke_Key.space	Key.space	n/a
31.433	0.06	62866	keystroke_g	g	n/a
31.6425	0.09	63285	keystroke_i	i	n/a
32.978	0.059	65956	keystroke_b	b	n/a
33.098	0.12	66196	keystroke_r	r	n/a
33.3375	0.09	66675	keystroke_a	a	n/a
33.533	0.06	67066	keystroke_l	l	n/a
33.7285	0.089	67457	keystroke_t	t	n/a
33.9825	0.09	67965	keystroke_a	a	n/a
34.2225	0.0755	68445	keystroke_r	r	n/a
34.493	0.0595	68986	keystroke_Key.space	Key.space	n/a
34.688	0.0755	69376	keystroke_g	g	n/a
34.778	0.09	69556	keystroke_e	e	n/a
34.943	0.105	69886	keystroke_n	n	n/a
36.023	0.06	72046	keystroke_e	e	n/a
36.338	0.0595	72676	keystroke_s	s	n/a
36.488	0.075	72976	keystroke_i	i	n/a
36.578	0.06	73156	keystroke_s	s	n/a
36.938	0.075	73876	keystroke_Key.enter	Key.enter	n/a
37.019	7.736	74038	prompt	n/a	easier heading karaoke like\n
37.703	0.135	75406	keystroke_e	e	n/a
37.853	0.15	75706	keystroke_a	a	n/a
37.988	0.09	75976	keystroke_s	s	n/a
38.228	0.09	76456	keystroke_i	i	n/a
38.348	0.15	76696	keystroke_e	e	n/a
38.573	0.1055	77146	keystroke_r	r	n/a
38.888	0.09	77776	keystroke_Key.space	Key.space	n/a
39.128	0.075	78256	keystroke_h	h	n/a
39.173	0.135	78346	keystroke_e	e	n/a
39.263	0.1205	78526	keystroke_a	a	n/a
39.398	0.09	78796	keystroke_d	d	n/a
39.533	0.135	79066	keystroke_i	i	n/a
39.6235	0.1345	79247	keystroke_n	n	n/a
39.7275	0.09	79455	keystroke_g	g	n/a
39.938	0.0595	79876	keystroke_Key.space	Key.space	n/a
40.6125	0.0755	81225	keystroke_k	k	n/a
40.6725	0.106	81345	keystroke_a	a	n/a
40.8835	0.0595	81767	keystroke_r	r	n/a
41.1825	0.09	82365	keystroke_a	a	n/a
42.6985	0.0745	85397	keystroke_o	o	n/a
42.878	0.0745	85756	keystroke_k	k	n/a
43.0875	0.061	86175	keystroke_e	e	n/a
43.5225	0.061	87045	keystroke_Key.space	Key.space	n/a
43.988	0.135	87976	keystroke_l	l	n/a
44.2585	0.075	88517	keystroke_i	i	n/a
44.4235	0.119	88847	keystroke_k	k	n/a
44.528	0.0755	89056	keystroke_e	e	n/a
44.648	0.105	89296	keystroke_Key.enter	Key.enter	n/a
44.76	7.69	89520	prompt	n/a	fiber identification explore lucy\n
45.5775	0.061	91155	keystroke_f	f	n/a
45.7135	0.0895	91427	keystroke_i	i	n/a
45.908	0.0905	91816	keystroke_b	b	n/a
45.9985	0.1345	91997	keystroke_e	e	n/a
46.118	0.09	92236	keystroke_r	r	n/a
46.298	0.075	92596	keystroke_Key.space	Key.space	n/a
46.823	0.0745	93646	keystroke_i	i	n/a
46.9725	0.09	93945	keystroke_d	d	n/a
47.108	0.0895	94216	keystroke_e	e	n/a
47.2875	0.06	94575	keystroke_n	n	n/a
47.4235	0.0445	94847	keystroke_t	t	n/a
47.573	0.1055	95146	keystroke_i	i	n/a
47.7835	0.074	95567	keystroke_f	f	n/a
47.9025	0.0905	95805	keystroke_i	i	n/a
48.0675	0.075	96135	keystroke_c	c	n/a
48.158	0.1345	96316	keystroke_a	a	n/a
48.428	0.0895	96856	keystroke_t	t	n/a
48.503	0.2255	97006	keystroke_i	i	n/a
48.5335	0.18	97067	keystroke_o	o	n/a
48.653	0.135	97306	keystroke_n	n	n/a
49.5535	0.06	99107	keystroke_Key.space	Key.space	n/a
49.8385	0.0895	99677	keystroke_e	e	n/a
50.093	0.105	100186	keystroke_x	x	n/a
50.273	0.12	100546	keystroke_p	p	n/a
50.318	0.105	100636	keystroke_l	l	n/a
50.528	0.09	101056	keystroke_o	o	n/a
50.678	0.12	101356	keystroke_r	r	n/a
50.753	0.105	101506	keystroke_e	e	n/a
50.948	0.09	101896	keystroke_Key.space	Key.space	n/a
51.353	0.1195	102706	keystroke_l	l	n/a
51.638	0.09	103276	keystroke_u	u	n/a
51.9835	0.059	103967	keystroke_c	c	n/a
52.103	0.0595	104206	keystroke_y	y	n/a
52.3585	0.089	104717	keystroke_Key.enter	Key.enter	n/a
52.456	7.6745	104912	prompt	n/a	mechanisms song agents realm\n
53.289	0.0585	106578	keystroke_m	m	n/a
53.4085	0.075	106817	keystroke_e	e	n/a
53.6475	0.091	107295	keystroke_c	c	n/a
53.7975	0.09	107595	keystroke_h	h	n/a
53.9035	0.06	107807	keystroke_a	a	n/a
54.0385	0.09	108077	keystroke_n	n	n/a
54.3235	0.1055	108647	keystroke_i	i	n/a
54.5935	0.105	109187	keystroke_s	s	n/a
55.4335	0.0745	110867	keystroke_m	m	n/a
56.243	0.06	112486	keystroke_s	s	n/a
56.3935	0.075	112787	keystroke_Key.space	Key.space	n/a
56.678	0.0455	113356	keystroke_s	s	n/a
56.7685	0.09	113537	keystroke_o	o	n/a
57.008	0.0755	114016	keystroke_n	n	n/a
57.1435	0.09	114287	keystroke_g	g	n/a
57.353	0.075	114706	keystroke_Key.space	Key.space	n/a
57.7585	0.06	115517	keystroke_a	a	n/a
57.9835	0.09	115967	keystroke_g	g	n/a
58.0585	0.12	116117	keystroke_e	e	n/a
58.2385	0.0895	116477	keystroke_n	n	n/a
58.3735	0.09	116747	keystroke_t	t	n/a
58.5835	0.0745	117167	keystroke_s	s	n/a
58.823	0.075	117646	keystroke_Key.space	Key.space	n/a
59.153	0.135	118306	keystroke_r	r	n/a
59.243	0.18	118486	keystroke_e	e	n/a
59.379	0.104	118758	keystroke_a	a	n/a
59.528	0.1055	119056	keystroke_l	l	n/a
59.828	0.09	119656	keystroke_m	m	n/a
60.038	0.09	120076	keystroke_Key.enter	Key.enter	n/a
60.1375	10.6425	120275	prompt	n/a	dominican delegation quebec certification\n
60.9235	0.074	121847	keystroke_d	d	n/a
61.1775	0.1355	122355	keystroke_o	o	n/a
61.3875	0.1355	122775	keystroke_m	m	n/a
61.643	0.1355	123286	keystroke_i	i	n/a
61.883	0.105	123766	keystroke_n	n	n/a
62.0635	0.119	124127	keystroke_i	i	n/a
62.4075	0.09	124815	keystroke_c	c	n/a
62.5135	0.105	125027	keystroke_a	a	n/a
62.7085	0.09	125417	keystroke_n	n	n/a
63.203	0.075	126406	keystroke_Key.space	Key.space	n/a
63.668	0.091	127336	keystroke_d	d	n/a
63.804	0.0885	127608	keystroke_e	e	n/a
63.998	0.0605	127996	keystroke_l	l	n/a
64.0725	0.0905	128145	keystroke_e	e	n/a
64.8235	0.045	129647	keystroke_g	g	n/a
64.8835	0.06	129767	keystroke_a	a	n/a
65.0025	0.076	130005	keystroke_t	t	n/a
65.1235	0.194	130247	keystroke_i	i	n/a
65.1535	0.15	130307	keystroke_o	o	n/a
65.2425	0.136	130485	keystroke_n	n	n/a
65.5725	0.076	131145	keystroke_Key.space	Key.space	n/a
66.2485	0.0745	132497	keystroke_q	q	n/a
66.428	0.0755	132856	keystroke_u	u	n/a
66.5635	0.075	133127	keystroke_e	e	n/a
66.8175	0.091	133635	keystroke_b	b	n/a
66.9985	0.105	133997	keystroke_e	e	n/a
67.269	0.089	134538	keystroke_c	c	n/a
68.303	0.0605	136606	keystroke_Key.space	Key.space	n/a
68.8285	0.0605	137657	keystroke_c	c	n/a
68.979	0.1045	137958	keystroke_e	e	n/a
69.0985	0.075	138197	keystroke_r	r	n/a
69.3075	0.0605	138615	keystroke_t	t	n/a
69.473	0.0895	138946	keystroke_i	i	n/a
69.638	0.06	139276	keystroke_f	f	n/a
69.758	0.1055	139516	keystroke_i	i	n/a
69.9535	0.09	139907	keystroke_c	c	n/a
70.0585	0.12	140117	keystroke_a	a	n/a
70.2385	0.075	140477	keystroke_t	t	n/a
70.3135	0.21	140627	keystroke_i	i	n/a
70.3735	0.165	140747	keystroke_o	o	n/a
70.4335	0.12	140867	keystroke_n	n	n/a
70.673	0.1055	141346	keystroke_Key.enter	Key.enter	n/a
70.784	8.246	141568	prompt	n/a	accordance maui patents raymond\n
71.4535	0.075	142907	keystroke_a	a	n/a
71.663	0.0605	143326	keystroke_c	c	n/a
71.813	0.0905	143626	keystroke_c	c	n/a
71.963	0.091	143926	keystroke_o	o	n/a
72.113	0.0605	144226	keystroke_r	r	n/a
72.323	0.1055	144646	keystroke_d	d	n/a
72.458	0.1055	144916	keystroke_a	a	n/a
72.5485	0.1195	145097	keystroke_n	n	n/a
72.7885	0.075	145577	keystroke_c	c	n/a
72.9535	0.105	145907	keystroke_e	e	n/a
73.8235	0.06	147647	keystroke_Key.space	Key.space	n/a
74.0935	0.09	148187	keystroke_m	m	n/a
74.1685	0.09	148337	keystroke_a	a	n/a
74.4085	0.075	148817	keystroke_u	u	n/a
74.6035	0.075	149207	keystroke_i	i	n/a
74.8735	0.075	149747	keystroke_Key.space	Key.space	n/a
75.1435	0.1045	150287	keystroke_p	p	n/a
75.203	0.12	150406	keystroke_a	a	n/a
75.488	0.09	150976	keystroke_t	t	n/a
75.594	0.0895	151188	keystroke_e	e	n/a
75.8785	0.12	151757	keystroke_n	n	n/a
76.133	0.09	152266	keystroke_t	t	n/a
76.433	0.0455	152866	keystroke_e	e	n/a
76.913	0.12	153826	keystroke_Key.backspace	Key.backspace	n/a
77.0335	0.1045	154067	keystroke_s	s	n/a
77.288	0.06	154576	keystroke_Key.space	Key.space	n/a
77.708	0.0905	155416	keystroke_r	r	n/a
77.8585	0.0895	155717	keystroke_a	a	n/a
78.038	0.06	156076	keystroke_y	y	n/a
78.278	0.105	156556	keystroke_m	m	n/a
78.443	0.135	156886	keystroke_o	o	n/a
78.5935	0.09	157187	keystroke_n	n	n/a
78.7435	0.075	157487	keystroke_d	d	n/a
78.9525	0.076	157905	keystroke_Key.enter	Key.enter	n/a
79.035	7.451	158070	prompt	n/a	detection rated district roses\n
79.7485	0.0745	159497	keystroke_d	d	n/a
79.883	0.1055	159766	keystroke_e	e	n/a
80.0635	0.105	160127	keystroke_t	t	n/a
80.1985	0.1045	160397	keystroke_e	e	n/a
80.438	0.09	160876	keystroke_c	c	n/a
80.6635	0.075	161327	keystroke_t	t	n/a
80.7675	0.225	161535	keystroke_i	i	n/a
80.8125	0.166	161625	keystroke_o	o	n/a
80.9325	0.136	161865	keystroke_n	n	n/a
81.398	0.075	162796	keystroke_Key.space	Key.space	n/a
81.743	0.1205	163486	keystroke_r	r	n/a
81.878	0.075	163756	keystroke_a	a	n/a
82.013	0.105	164026	keystroke_t	t	n/a
82.118	0.12	164236	keystroke_e	e	n/a
82.3285	0.0745	164657	keystroke_d	d	n/a
82.508	0.1045	165016	keystroke_Key.space	Key.space	n/a
82.7935	0.075	165587	keystroke_d	d	n/a
83.0035	0.0755	166007	keystroke_i	i	n/a
83.0935	0.09	166187	keystroke_s	s	n/a
83.348	0.1055	166696	keystroke_t	t	n/a
83.4375	0.151	166875	keystroke_r	r	n/a
83.6935	0.0895	167387	keystroke_i	i	n/a
83.8585	0.09	167717	keystroke_c	c	n/a
84.8485	0.075	169697	keystroke_t	t	n/a
85.223	0.075	170446	keystroke_Key.space	Key.space	n/a
85.403	0.075	170806	keystroke_r	r	n/a
85.5385	0.0745	171077	keystroke_o	o	n/a
85.718	0.0755	171436	keystroke_s	s	n/a
85.913	0.0445	171826	keystroke_e	e	n/a
86.093	0.0605	172186	keystroke_s	s	n/a
86.393	0.0905	172786	keystroke_Key.enter	Key.enter	n/a
86.489	8.6355	172978	prompt	n/a	perfectly input multiple bali\n
87.383	0.075	174766	keystroke_p	p	n/a
87.503	0.0755	175006	keystroke_e	e	n/a
87.5635	0.105	175127	keystroke_r	r	n/a
87.818	0.12	175636	keystroke_f	f	n/a
87.923	0.1355	175846	keystroke_e	e	n/a
89.0175	0.091	178035	keystroke_c	c	n/a
89.3035	0.075	178607	keystroke_t	t	n/a
89.4835	0.105	178967	keystroke_l	l	n/a
89.5735	0.075	179147	keystroke_y	y	n/a
90.3235	0.09	180647	keystroke_Key.space	Key.space	n/a
90.6985	0.105	181397	keystroke_i	i	n/a
90.744	0.1345	181488	keystroke_n	n	n/a
91.2375	0.09	182475	keystroke_p	p	n/a
91.5085	0.0745	183017	keystroke_u	u	n/a
91.613	0.075	183226	keystroke_t	t	n/a
91.7785	0.0745	183557	keystroke_Key.space	Key.space	n/a
92.0775	0.106	184155	keystroke_m	m	n/a
92.303	0.0745	184606	keystroke_u	u	n/a
92.648	0.09	185296	keystroke_l	l	n/a
92.8435	0.06	185687	keystroke_t	t	n/a
92.9035	0.0745	185807	keystroke_i	i	n/a
93.098	0.1355	186196	keystroke_p	p	n/a
93.1885	0.1045	186377	keystroke_l	l	n/a
93.338	0.09	186676	keystroke_e	e	n/a
93.998	0.105	187996	keystroke_Key.space	Key.space	n/a
94.328	0.0605	188656	keystroke_b	b	n/a
94.419	0.1045	188838	keystroke_a	a	n/a
94.6285	0.0745	189257	keystroke_l	l	n/a
94.823	0.075	189646	keystroke_i	i	n/a
95.048	0.075	190096	keystroke_Key.enter	Key.enter	n/a
95.1295	7.6	190259	prompt	n/a	hosts individuals reporter refine\n
95.948	0.045	191896	keystroke_h	h	n/a
96.113	0.0605	192226	keystroke_o	o	n/a
96.203	0.105	192406	keystroke_s	s	n/a
96.428	0.09	192856	keystroke_t	t	n/a
96.5485	0.0895	193097	keystroke_s	s	n/a
96.833	0.0905	193666	keystroke_Key.space	Key.space	n/a
97.043	0.135	194086	keystroke_i	i	n/a
97.133	0.09	194266	keystroke_n	n	n/a
97.4035	0.0595	194807	keystroke_d	d	n/a
97.538	0.1205	195076	keystroke_i	i	n/a
97.703	0.075	195406	keystroke_v	v	n/a
97.838	0.105	195676	keystroke_i	i	n/a
98.2285	0.0895	196457	keystroke_d	d	n/a
98.378	0.075	196756	keystroke_u	u	n/a
98.528	0.09	197056	keystroke_a	a	n/a
98.663	0.09	197326	keystroke_l	l	n/a
98.8435	0.09	197687	keystroke_s	s	n/a
99.5625	0.0605	199125	keystroke_Key.space	Key.space	n/a
99.8485	0.1195	199697	keystroke_r	r	n/a
99.9235	0.1195	199847	keystroke_e	e	n/a
100.148	0.0905	200296	keystroke_p	p	n/a
100.3575	0.0755	200715	keystroke_o	o	n/a
100.4035	0.1195	200807	keystroke_r	r	n/a
100.6435	0.075	201287	keystroke_t	t	n/a
100.7185	0.21	201437	keystroke_e	e	n/a
100.8985	0.12	201797	keystroke_r	r	n/a
101.3035	0.075	202607	keystroke_Key.space	Key.space	n/a
101.8885	0.1195	203777	keystroke_r	r	n/a
101.9935	0.134	203987	keystroke_e	e	n/a
102.2035	0.06	204407	keystroke_f	f	n/a
102.308	0.1355	204616	keystroke_i	i	n/a
102.3835	0.1045	204767	keystroke_n	n	n/a
102.4885	0.075	204977	keystroke_e	e	n/a
102.6225	0.106	205245	keystroke_Key.enter	Key.enter	n/a
102.7345	7.3005	205469	prompt	n/a	travelers married selection slot\n
103.5375	0.12	207075	keystroke_t	t	n/a
103.5975	0.1505	207195	keystroke_r	r	n/a
103.8075	0.075	207615	keystroke_a	a	n/a
104.0025	0.09	208005	keystroke_v	v	n/a
104.1375	0.105	208275	keystroke_e	e	n/a
104.303	0.09	208606	keystroke_l	l	n/a
104.408	0.1205	208816	keystroke_e	e	n/a
104.588	0.1055	209176	keystroke_r	r	n/a
104.8135	0.09	209627	keystroke_s	s	n/a
105.2625	0.0605	210525	keystroke_Key.space	Key.space	n/a
105.5025	0.076	211005	keystroke_m	m	n/a
105.5325	0.1055	211065	keystroke_a	a	n/a
105.743	0.06	211486	keystroke_r	r	n/a
105.863	0.0755	211726	keystroke_r	r	n/a
105.983	0.09	211966	keystroke_i	i	n/a
106.058	0.12	212116	keystroke_e	e	n/a
106.179	0.119	212358	keystroke_d	d	n/a
106.343	0.09	212686	keystroke_Key.space	Key.space	n/a
106.9425	0.0455	213885	keystroke_d	d	n/a
107.273	0.12	214546	keystroke_Key.backspace	Key.backspace	n/a
107.378	0.09	214756	keystroke_s	s	n/a
107.618	0.045	215236	keystroke_e	e	n/a
107.738	0.0755	215476	keystroke_l	l	n/a
107.918	0.09	215836	keystroke_e	e	n/a
108.1585	0.0745	216317	keystroke_c	c	n/a
108.458	0.075	216916	keystroke_t	t	n/a
108.5635	0.1645	217127	keystroke_i	i	n/a
108.578	0.135	217156	keystroke_o	o	n/a
108.683	0.12	217366	keystroke_n	n	n/a
109.2075	0.06	218415	keystroke_Key.space	Key.space	n/a
109.4485	0.059	218897	keystroke_s	s	n/a
109.553	0.0755	219106	keystroke_l	l	n/a
109.718	0.105	219436	keystroke_o	o	n/a
109.823	0.075	219646	keystroke_t	t	n/a
109.943	0.09	219886	keystroke_Key.enter	Key.enter	n/a
110.0395	8.3505	220079	prompt	n/a	accommodations sought pork geography\n
110.7985	0.09	221597	keystroke_a	a	n/a
111.023	0.06	222046	keystroke_c	c	n/a
111.1735	0.0745	222347	keystroke_c	c	n/a
111.293	0.1055	222586	keystroke_o	o	n/a
111.593	0.075	223186	keystroke_m	m	n/a
111.7585	0.105	223517	keystroke_o	o	n/a
112.0135	0.135	224027	keystroke_d	d	n/a
112.1335	0.105	224267	keystroke_a	a	n/a
112.3275	0.076	224655	keystroke_t	t	n/a
112.418	0.1955	224836	keystroke_i	i	n/a
112.463	0.1205	224926	keystroke_o	o	n/a
112.5535	0.12	225107	keystroke_n	n	n/a
112.8535	0.09	225707	keystroke_s	s	n/a
113.228	0.075	226456	keystroke_Key.space	Key.space	n/a
113.4375	0.076	226875	keystroke_s	s	n/a
113.603	0.0895	227206	keystroke_o	o	n/a
113.8585	0.0595	227717	keystroke_u	u	n/a
114.038	0.09	228076	keystroke_g	g	n/a
114.1585	0.119	228317	keystroke_h	h	n/a
114.2925	0.0755	228585	keystroke_t	t	n/a
114.548	0.0605	229096	keystroke_Key.space	Key.space	n/a
114.8925	0.076	229785	keystroke_p	p	n/a
115.0735	0.09	230147	keystroke_o	o	n/a
115.2525	0.076	230505	keystroke_r	r	n/a
115.9725	0.06	231945	keystroke_k	k	n/a
116.183	0.0745	232366	keystroke_Key.space	Key.space	n/a
116.3325	0.061	232665	keystroke_g	g	n/a
116.3935	0.105	232787	keystroke_e	e	n/a
116.588	0.0905	233176	keystroke_o	o	n/a
116.9025	0.09	233805	keystroke_g	g	n/a
116.9935	0.135	233987	keystroke_r	r	n/a
117.2175	0.0905	234435	keystroke_a	a	n/a
117.353	0.0895	234706	keystroke_p	p	n/a
117.5775	0.075	235155	keystroke_h	h	n/a
117.7585	0.074	235517	keystroke_y	y	n/a
118.313	0.075	236626	keystroke_Key.enter	Key.enter	n/a
118.393	8.007	236786	prompt	n/a	create resident trees students\n
119.138	0.075	238276	keystroke_c	c	n/a
119.4085	0.0895	238817	keystroke_r	r	n/a
119.4535	0.1495	238907	keystroke_e	e	n/a
119.6035	0.0895	239207	keystroke_a	a	n/a
119.723	0.105	239446	keystroke_t	t	n/a
119.7835	0.1045	239567	keystroke_e	e	n/a
120.248	0.015	240496	keystroke_Key.space	Key.space	n/a
120.4885	0.074	240977	keystroke_r	r	n/a
120.5335	0.105	241067	keystroke_e	e	n/a
121.103	0.0755	242206	keystroke_s	s	n/a
121.253	0.0905	242506	keystroke_i	i	n/a
121.4035	0.1045	242807	keystroke_d	d	n/a
121.538	0.1045	243076	keystroke_e	e	n/a
121.8225	0.1055	243645	keystroke_n	n	n/a
122.183	0.045	244366	keystroke_Key.space	Key.space	n/a
122.723	0.09	245446	keystroke_Key.backspace	Key.backspace	n/a
122.903	0.06	245806	keystroke_t	t	n/a
123.2325	0.075	246465	keystroke_Key.space	Key.space	n/a
123.6835	0.0745	247367	keystroke_t	t	n/a
123.7735	0.09	247547	keystroke_r	r	n/a
123.983	0.061	247966	keystroke_e	e	n/a
124.133	0.06	248266	keystroke_e	e	n/a
124.328	0.0755	248656	keystroke_s	s	n/a
124.718	0.0145	249436	keystroke_Key.space	Key.space	n/a
124.868	0.0895	249736	keystroke_s	s	n/a
125.2275	0.0605	250455	keystroke_t	t	n/a
125.4375	0.075	250875	keystroke_u	u	n/a
125.5735	0.105	251147	keystroke_d	d	n/a
125.7075	0.1055	251415	keystroke_e	e	n/a
125.8275	0.09	251655	keystroke_n	n	n/a
125.9185	0.075	251837	keystroke_t	t	n/a
126.0535	0.06	252107	keystroke_s	s	n/a
126.338	0.06	252676	keystroke_Key.enter	Key.enter	n/a
126.4035	5.9815	252807	prompt	n/a	decorating again simply hood\n
127.1185	0.06	254237	keystroke_d	d	n/a
127.2385	0.09	254477	keystroke_e	e	n/a
127.4335	0.12	254867	keystroke_c	c	n/a
127.6735	0.075	255347	keystroke_o	o	n/a
127.7635	0.075	255527	keystroke_r	r	n/a
127.9285	0.0895	255857	keystroke_a	a	n/a
128.094	0.059	256188	keystroke_t	t	n/a
128.198	0.18	256396	keystroke_i	i	n/a
128.393	0.105	256786	keystroke_n	n	n/a
128.993	0.045	257986	keystroke_g	g	n/a
129.113	0.075	258226	keystroke_Key.space	Key.space	n/a
129.1735	0.105	258347	keystroke_a	a	n/a
129.398	0.075	258796	keystroke_g	g	n/a
129.608	0.09	259216	keystroke_a	a	n/a
129.744	0.1345	259488	keystroke_i	i	n/a
129.8635	0.1345	259727	keystroke_n	n	n/a
130.1775	0.075	260355	keystroke_Key.space	Key.space	n/a
130.3735	0.0895	260747	keystroke_s	s	n/a
130.478	0.09	260956	keystroke_i	i	n/a
130.553	0.1205	261106	keystroke_m	m	n/a
130.7925	0.136	261585	keystroke_p	p	n/a
130.8685	0.12	261737	keystroke_l	l	n/a
131.1835	0.09	262367	keystroke_y	y	n/a
131.4825	0.0755	262965	keystroke_Key.space	Key.space	n/a
131.738	0.09	263476	keystroke_h	h	n/a
131.9335	0.0595	263867	keystroke_o	o	n/a
132.0525	0.1205	264105	keystroke_o	o	n/a
132.188	0.06	264376	keystroke_d	d	n/a
132.293	0.09	264586	keystroke_Key.enter	Key.enter	n/a
132.3895	9.385	264779	prompt	n/a	donate relief qualification cellular\n
133.1335	0.0745	266267	keystroke_d	d	n/a
133.2985	0.1345	266597	keystroke_o	o	n/a
133.4035	0.1045	266807	keystroke_n	n	n/a
133.493	0.0905	266986	keystroke_a	a	n/a
133.658	0.09	267316	keystroke_t	t	n/a
133.733	0.1055	267466	keystroke_e	e	n/a
133.973	0.0755	267946	keystroke_Key.space	Key.space	n/a
134.243	0.1055	268486	keystroke_r	r	n/a
134.3185	0.105	268637	keystroke_e	e	n/a
134.5135	0.0745	269027	keystroke_l	l	n/a
134.678	0.0895	269356	keystroke_i	i	n/a
134.7525	0.105	269505	keystroke_e	e	n/a
134.9925	0.105	269985	keystroke_f	f	n/a
135.2025	0.0905	270405	keystroke_Key.space	Key.space	n/a
135.7885	0.104	271577	keystroke_q	q	n/a
135.9685	0.09	271937	keystroke_u	u	n/a
136.2835	0.075	272567	keystroke_a	a	n/a
136.5085	0.075	273017	keystroke_l	l	n/a
136.8235	0.074	273647	keystroke_i	i	n/a
137.213	0.1205	274426	keystroke_f	f	n/a
137.4385	0.0895	274877	keystroke_i	i	n/a
137.633	0.105	275266	keystroke_c	c	n/a
137.7835	0.1045	275567	keystroke_a	a	n/a
137.978	0.075	275956	keystroke_t	t	n/a
138.068	0.21	276136	keystroke_i	i	n/a
138.143	0.15	276286	keystroke_o	o	n/a
138.188	0.1355	276376	keystroke_n	n	n/a
138.833	0.0605	277666	keystroke_Key.space	Key.space	n/a
139.148	0.0755	278296	keystroke_c	c	n/a
139.4635	0.0595	278927	keystroke_l	l	n/a
139.8675	0.075	279735	keystroke_Key.backspace	Key.backspace	n/a
140.0325	0.0755	280065	keystroke_e	e	n/a
140.1975	0.0605	280395	keystroke_l	l	n/a
140.3335	0.104	280667	keystroke_l	l	n/a
140.738	0.075	281476	keystroke_u	u	n/a
141.053	0.06	282106	keystroke_l	l	n/a
141.143	0.0905	282286	keystroke_a	a	n/a
141.3385	0.09	282677	keystroke_r	r	n/a
141.698	0.075	283396	keystroke_Key.enter	Key.enter	n/a
141.7795	6.8055	283559	prompt	n/a	customers epson radiation fall\n
142.5685	0.0745	285137	keystroke_c	c	n/a
142.733	0.0595	285466	keystroke_u	u	n/a
142.8085	0.089	285617	keystroke_s	s	n/a
143.0035	0.074	286007	keystroke_t	t	n/a
143.1085	0.0895	286217	keystroke_o	o	n/a
143.1385	0.0895	286277	keystroke_m	m	n/a
143.258	0.105	286516	keystroke_e	e	n/a
143.4235	0.105	286847	keystroke_r	r	n/a
143.648	0.045	287296	keystroke_s	s	n/a
143.858	0.075	287716	keystroke_Key.space	Key.space	n/a
144.173	0.075	288346	keystroke_e	e	n/a
144.473	0.0605	288946	keystroke_p	p	n/a
144.578	0.0895	289156	keystroke_s	s	n/a
144.9985	0.059	289997	keystroke_o	o	n/a
145.193	0.105	290386	keystroke_n	n	n/a
145.553	0.0745	291106	keystroke_Key.space	Key.space	n/a
145.8825	0.09	291765	keystroke_r	r	n/a
146.0035	0.12	292007	keystroke_a	a	n/a
146.573	0.09	293146	keystroke_d	d	n/a
146.903	0.06	293806	keystroke_i	i	n/a
146.948	0.09	293896	keystroke_a	a	n/a
147.128	0.075	294256	keystroke_t	t	n/a
147.2485	0.1645	294497	keystroke_i	i	n/a
147.263	0.135	294526	keystroke_o	o	n/a
147.3385	0.1195	294677	keystroke_n	n	n/a
147.668	0.075	295336	keystroke_Key.space	Key.space	n/a
147.9085	0.09	295817	keystroke_f	f	n/a
148.013	0.105	296026	keystroke_a	a	n/a
148.133	0.075	296266	keystroke_l	l	n/a
148.283	0.075	296566	keystroke_l	l	n/a
148.493	0.09	296986	keystroke_Key.enter	Key.enter	n/a
148.59	8.3645	297180	prompt	n/a	killer primarily winners 'tis\n
149.2885	0.12	298577	keystroke_k	k	n/a
149.4985	0.06	298997	keystroke_i	i	n/a
149.693	0.0605	299386	keystroke_l	l	n/a
149.8135	0.089	299627	keystroke_l	l	n/a
150.1435	0.015	300287	keystroke_e	e	n/a
150.1585	0.074	300317	keystroke_r	r	n/a
150.293	0.0445	300586	keystroke_Key.space	Key.space	n/a
150.503	0.09	301006	keystroke_p	p	n/a
150.683	0.0605	301366	keystroke_r	r	n/a
150.9385	0.09	301877	keystroke_i	i	n/a
151.313	0.0905	302626	keystroke_l	l	n/a
151.988	0.09	303976	keystroke_Key.backspace	Key.backspace	n/a
152.2885	0.089	304577	keystroke_m	m	n/a
152.3935	0.119	304787	keystroke_a	a	n/a
152.603	0.1195	305206	keystroke_r	r	n/a
152.7535	0.104	305507	keystroke_i	i	n/a
153.0535	0.075	306107	keystroke_l	l	n/a
153.6075	0.0755	307215	keystroke_y	y	n/a
153.953	0.075	307906	keystroke_Key.space	Key.space	n/a
154.268	0.0755	308536	keystroke_w	w	n/a
154.3735	0.0895	308747	keystroke_i	i	n/a
154.523	0.075	309046	keystroke_n	n	n/a
154.673	0.09	309346	keystroke_n	n	n/a
154.763	0.135	309526	keystroke_e	e	n/a
154.883	0.09	309766	keystroke_r	r	n/a
155.123	0.12	310246	keystroke_s	s	n/a
155.828	0.105	311656	keystroke_Key.space	Key.space	n/a
156.0835	0.09	312167	keystroke_'	'	n/a
156.4135	0.075	312827	keystroke_t	t	n/a
156.5325	0.076	313065	keystroke_i	i	n/a
156.6525	0.0605	313305	keystroke_s	s	n/a
156.878	0.075	313756	keystroke_Key.enter	Key.enter	n/a
156.961	6.669	313922	prompt	n/a	duncan older witnesses blessed\n
157.7035	0.09	315407	keystroke_d	d	n/a
157.868	0.09	315736	keystroke_u	u	n/a
157.973	0.1055	315946	keystroke_n	n	n/a
158.1235	0.15	316247	keystroke_c	c	n/a
158.2585	0.105	316517	keystroke_a	a	n/a
158.423	0.09	316846	keystroke_n	n	n/a
158.678	0.075	317356	keystroke_Key.space	Key.space	n/a
158.9625	0.105	317925	keystroke_o	o	n/a
159.1275	0.1055	318255	keystroke_l	l	n/a
159.2475	0.106	318495	keystroke_d	d	n/a
159.4125	0.136	318825	keystroke_e	e	n/a
159.5325	0.076	319065	keystroke_r	r	n/a
159.743	0.0745	319486	keystroke_Key.space	Key.space	n/a
159.968	0.0895	319936	keystroke_w	w	n/a
160.103	0.105	320206	keystroke_i	i	n/a
160.2535	0.0745	320507	keystroke_t	t	n/a
160.433	0.09	320866	keystroke_n	n	n/a
160.6285	0.1045	321257	keystroke_e	e	n/a
160.868	0.075	321736	keystroke_s	s	n/a
161.018	0.09	322036	keystroke_s	s	n/a
161.243	0.0455	322486	keystroke_e	e	n/a
161.438	0.09	322876	keystroke_s	s	n/a
161.678	0.075	323356	keystroke_Key.space	Key.space	n/a
161.963	0.075	323926	keystroke_b	b	n/a
162.218	0.09	324436	keystroke_l	l	n/a
162.338	0.09	324676	keystroke_e	e	n/a
162.5935	0.059	325187	keystroke_s	s	n/a
162.698	0.0755	325396	keystroke_s	s	n/a
162.9075	0.09	325815	keystroke_e	e	n/a
163.0285	0.0745	326057	keystroke_d	d	n/a
163.538	0.09	327076	keystroke_Key.enter	Key.enter	n/a
163.6335	9.251	327267	prompt	n/a	appliances dietary diagram stan\n
164.303	0.091	328606	keystroke_a	a	n/a
164.468	0.0445	328936	keystroke_o	o	n/a
164.888	0.105	329776	keystroke_Key.backspace	Key.backspace	n/a
165.5785	0.0445	331157	keystroke_p	p	n/a
165.683	0.1195	331366	keystroke_p	p	n/a
165.7585	0.134	331517	keystroke_l	l	n/a
166.0125	0.06	332025	keystroke_i	i	n/a
166.1025	0.09	332205	keystroke_a	a	n/a
166.463	0.105	332926	keystroke_n	n	n/a
166.5975	0.091	333195	keystroke_c	c	n/a
166.718	0.09	333436	keystroke_e	e	n/a
166.928	0.075	333856	keystroke_s	s	n/a
167.3775	0.075	334755	keystroke_Key.space	Key.space	n/a
167.6625	0.106	335325	keystroke_d	d	n/a
168.0375	0.076	336075	keystroke_i	i	n/a
168.1425	0.136	336285	keystroke_e	e	n/a
168.4285	0.0895	336857	keystroke_t	t	n/a
168.9985	0.105	337997	keystroke_a	a	n/a
169.2075	0.0755	338415	keystroke_r	r	n/a
169.478	0.075	338956	keystroke_y	y	n/a
170.6185	0.105	341237	keystroke_Key.space	Key.space	n/a
170.783	0.075	341566	keystroke_d	d	n/a
170.933	0.0755	341866	keystroke_i	i	n/a
170.9935	0.075	341987	keystroke_a	a	n/a
171.1885	0.0595	342377	keystroke_g	g	n/a
171.293	0.195	342586	keystroke_r	r	n/a
171.473	0.09	342946	keystroke_a	a	n/a
171.668	0.0905	343336	keystroke_m	m	n/a
172.013	0.0745	344026	keystroke_Key.space	Key.space	n/a
172.1335	0.089	344267	keystroke_s	s	n/a
172.3135	0.1045	344627	keystroke_t	t	n/a
172.433	0.0755	344866	keystroke_a	a	n/a
172.5385	0.105	345077	keystroke_n	n	n/a
172.778	0.105	345556	keystroke_Key.enter	Key.enter	n/a
172.889	6.296	345778	prompt	n/a	ceiling understand cove adding\n
173.558	0.045	347116	keystroke_c	c	n/a
173.693	0.075	347386	keystroke_e	e	n/a
173.858	0.0905	347716	keystroke_i	i	n/a
174.083	0.0755	348166	keystroke_l	l	n/a
174.278	0.1205	348556	keystroke_i	i	n/a
174.368	0.12	348736	keystroke_n	n	n/a
174.503	0.06	349006	keystroke_g	g	n/a
174.758	0.06	349516	keystroke_Key.space	Key.space	n/a
175.373	0.015	350746	keystroke_u	u	n/a
175.4035	0.03	350807	keystroke_n	n	n/a
175.568	0.075	351136	keystroke_d	d	n/a
175.703	0.105	351406	keystroke_e	e	n/a
175.853	0.105	351706	keystroke_r	r	n/a
176.078	0.045	352156	keystroke_s	s	n/a
176.2885	0.045	352577	keystroke_t	t	n/a
176.543	0.075	353086	keystroke_a	a	n/a
176.6635	0.09	353327	keystroke_n	n	n/a
176.873	0.0755	353746	keystroke_d	d	n/a
177.3225	0.075	354645	keystroke_Key.space	Key.space	n/a
177.6535	0.075	355307	keystroke_c	c	n/a
177.743	0.09	355486	keystroke_o	o	n/a
177.8935	0.1045	355787	keystroke_v	v	n/a
178.0285	0.09	356057	keystroke_e	e	n/a
178.1935	0.1045	356387	keystroke_Key.space	Key.space	n/a
178.434	0.0445	356868	keystroke_a	a	n/a
178.5835	0.075	357167	keystroke_d	d	n/a
178.7335	0.09	357467	keystroke_d	d	n/a
178.8085	0.15	357617	keystroke_i	i	n/a
178.8835	0.12	357767	keystroke_n	n	n/a
178.9875	0.075	357975	keystroke_g	g	n/a
179.0925	0.0905	358185	keystroke_Key.enter	Key.enter	n/a
179.19	8.4395	358380	prompt	n/a	broadcast turtle content collectors\n
180.3385	0.0745	360677	keystroke_b	b	n/a
180.6985	0.09	361397	keystroke_r	r	n/a
180.8335	0.06	361667	keystroke_o	o	n/a
180.9535	0.06	361907	keystroke_a	a	n/a
181.1935	0.09	362387	keystroke_d	d	n/a
181.4485	0.0895	362897	keystroke_c	c	n/a
181.553	0.1055	363106	keystroke_a	a	n/a
181.688	0.1055	363376	keystroke_s	s	n/a
182.1985	0.075	364397	keystroke_t	t	n/a
182.3325	0.0905	364665	keystroke_Key.space	Key.space	n/a
182.4685	0.12	364937	keystroke_t	t	n/a
182.6935	0.075	365387	keystroke_u	u	n/a
182.8885	0.104	365777	keystroke_r	r	n/a
183.0835	0.075	366167	keystroke_t	t	n/a
183.218	0.09	366436	keystroke_l	l	n/a
183.353	0.12	366706	keystroke_e	e	n/a
184.118	0.075	368236	keystroke_Key.space	Key.space	n/a
184.388	0.06	368776	keystroke_c	c	n/a
184.493	0.135	368986	keystroke_o	o	n/a
184.568	0.1205	369136	keystroke_n	n	n/a
184.793	0.1055	369586	keystroke_t	t	n/a
184.883	0.1055	369766	keystroke_e	e	n/a
185.0035	0.1195	370007	keystroke_n	n	n/a
185.198	0.075	370396	keystroke_t	t	n/a
185.663	0.0595	371326	keystroke_Key.space	Key.space	n/a
185.8125	0.075	371625	keystroke_c	c	n/a
185.933	0.105	371866	keystroke_o	o	n/a
186.143	0.0595	372286	keystroke_l	l	n/a
186.2775	0.105	372555	keystroke_l	l	n/a
186.3675	0.09	372735	keystroke_e	e	n/a
186.6075	0.061	373215	keystroke_c	c	n/a
186.818	0.0445	373636	keystroke_t	t	n/a
186.8925	0.076	373785	keystroke_o	o	n/a
187.118	0.075	374236	keystroke_r	r	n/a
187.268	0.09	374536	keystroke_s	s	n/a
187.553	0.075	375106	keystroke_Key.enter	Key.enter	n/a
187.6405	7.354	375281	prompt	n/a	designed kansas philip that'd\n
188.3335	0.074	376667	keystroke_d	d	n/a
188.498	0.0605	376996	keystroke_e	e	n/a
188.6785	0.0745	377357	keystroke_s	s	n/a
188.888	0.09	377776	keystroke_i	i	n/a
189.023	0.09	378046	keystroke_g	g	n/a
189.1435	0.1045	378287	keystroke_n	n	n/a
189.263	0.15	378526	keystroke_e	e	n/a
189.6375	0.0755	379275	keystroke_d	d	n/a
189.8175	0.0755	379635	keystroke_Key.space	Key.space	n/a
190.133	0.1055	380266	keystroke_k	k	n/a
190.2385	0.09	380477	keystroke_a	a	n/a
190.403	0.0755	380806	keystroke_n	n	n/a
190.658	0.09	381316	keystroke_s	s	n/a
190.808	0.12	381616	keystroke_a	a	n/a
190.898	0.135	381796	keystroke_s	s	n/a
191.423	0.0745	382846	keystroke_Key.space	Key.space	n/a
191.7225	0.1055	383445	keystroke_p	p	n/a
191.9935	0.074	383987	keystroke_h	h	n/a
192.1425	0.091	384285	keystroke_i	i	n/a
192.3985	0.059	384797	keystroke_l	l	n/a
192.5025	0.091	385005	keystroke_l	l	n/a
192.728	0.06	385456	keystroke_i	i	n/a
192.983	0.1045	385966	keystroke_p	p	n/a
193.433	0.06	386866	keystroke_Key.space	Key.space	n/a
193.703	0.0905	387406	keystroke_t	t	n/a
193.823	0.06	387646	keystroke_h	h	n/a
193.8685	0.1045	387737	keystroke_a	a	n/a
193.958	0.09	387916	keystroke_t	t	n/a
194.258	0.06	388516	keystroke_'	'	n/a
194.5285	0.059	389057	keystroke_d	d	n/a
194.9175	0.075	389835	keystroke_Key.enter	Key.enter	n/a
194.9975	7.272	389995	prompt	n/a	venture hygiene batman clouds\n
195.788	0.045	391576	keystroke_v	v	n/a
195.893	0.105	391786	keystroke_e	e	n/a
196.043	0.09	392086	keystroke_n	n	n/a
196.178	0.075	392356	keystroke_t	t	n/a
196.313	0.075	392626	keystroke_u	u	n/a
196.418	0.135	392836	keystroke_r	r	n/a
196.493	0.09	392986	keystroke_e	e	n/a
196.703	0.075	393406	keystroke_Key.space	Key.space	n/a
197.123	0.075	394246	keystroke_h	h	n/a
197.3025	0.06	394605	keystroke_y	y	n/a
197.843	0.0755	395686	keystroke_g	g	n/a
197.992	0.0905	395984	keystroke_i	i	n/a
198.068	0.09	396136	keystroke_e	e	n/a
199.298	0.075	398596	keystroke_n	n	n/a
199.403	0.0745	398806	keystroke_e	e	n/a
199.823	0.075	399646	keystroke_Key.space	Key.space	n/a
200.093	0.06	400186	keystroke_b	b	n/a
200.183	0.105	400366	keystroke_a	a	n/a
200.438	0.0905	400876	keystroke_t	t	n/a
200.603	0.0745	401206	keystroke_m	m	n/a
200.6925	0.09	401385	keystroke_a	a	n/a
200.8125	0.0905	401625	keystroke_n	n	n/a
201.0375	0.075	402075	keystroke_Key.space	Key.space	n/a
201.2785	0.074	402557	keystroke_c	c	n/a
201.398	0.0895	402796	keystroke_l	l	n/a
201.5785	0.089	403157	keystroke_o	o	n/a
201.817	0.076	403634	keystroke_u	u	n/a
202.013	0.1045	404026	keystroke_d	d	n/a
202.0875	0.121	404175	keystroke_s	s	n/a
202.193	0.075	404386	keystroke_Key.enter	Key.enter	n/a
202.274	8.2605	404548	prompt	n/a	expired possibilities george giving\n
202.9585	0.074	405917	keystroke_e	e	n/a
203.213	0.075	406426	keystroke_x	x	n/a
203.453	0.015	406906	keystroke_p	p	n/a
203.573	0.09	407146	keystroke_i	i	n/a
203.678	0.0895	407356	keystroke_r	r	n/a
203.7825	0.18	407565	keystroke_e	e	n/a
203.9475	0.1055	407895	keystroke_d	d	n/a
204.1275	0.09	408255	keystroke_Key.space	Key.space	n/a
204.428	0.0745	408856	keystroke_p	p	n/a
204.6075	0.0605	409215	keystroke_o	o	n/a
204.6975	0.0755	409395	keystroke_s	s	n/a
204.878	0.075	409756	keystroke_s	s	n/a
205.058	0.12	410116	keystroke_i	i	n/a
205.192	0.121	410384	keystroke_b	b	n/a
205.5985	0.1645	411197	keystroke_i	i	n/a
206.123	0.12	412246	keystroke_l	l	n/a
206.423	0.06	412846	keystroke_i	i	n/a
206.618	0.09	413236	keystroke_t	t	n/a
206.7675	0.075	413535	keystroke_i	i	n/a
206.9325	0.09	413865	keystroke_e	e	n/a
207.1725	0.045	414345	keystroke_s	s	n/a
207.3975	0.075	414795	keystroke_Key.space	Key.space	n/a
207.818	0.06	415636	keystroke_g	g	n/a
207.893	0.15	415786	keystroke_e	e	n/a
208.163	0.09	416326	keystroke_o	o	n/a
208.268	0.105	416536	keystroke_r	r	n/a
208.5685	0.1195	417137	keystroke_g	g	n/a
208.673	0.105	417346	keystroke_e	e	n/a
208.898	0.105	417796	keystroke_Key.space	Key.space	n/a
209.2725	0.075	418545	keystroke_g	g	n/a
209.3925	0.1055	418785	keystroke_i	i	n/a
209.603	0.0895	419206	keystroke_v	v	n/a
209.7225	0.135	419445	keystroke_i	i	n/a
209.813	0.1195	419626	keystroke_n	n	n/a
209.9175	0.0755	419835	keystroke_g	g	n/a
210.4575	0.0755	420915	keystroke_Key.enter	Key.enter	n/a
210.5395	8.395	421079	prompt	n/a	literally builder frequently cialis\n
211.2225	0.075	422445	keystroke_l	l	n/a
211.448	0.0595	422896	keystroke_i	i	n/a
211.538	0.1345	423076	keystroke_t	t	n/a
211.6585	0.1335	423317	keystroke_e	e	n/a
211.8225	0.1055	423645	keystroke_r	r	n/a
212.078	0.0745	424156	keystroke_a	a	n/a
212.528	0.06	425056	keystroke_l	l	n/a
212.663	0.09	425326	keystroke_l	l	n/a
212.768	0.061	425536	keystroke_y	y	n/a
213.083	0.075	426166	keystroke_Key.space	Key.space	n/a
213.3675	0.075	426735	keystroke_b	b	n/a
213.5025	0.0905	427005	keystroke_u	u	n/a
213.713	0.06	427426	keystroke_i	i	n/a
213.908	0.075	427816	keystroke_l	l	n/a
213.968	0.12	427936	keystroke_d	d	n/a
214.103	0.1495	428206	keystroke_e	e	n/a
214.2225	0.09	428445	keystroke_r	r	n/a
214.433	0.0745	428866	keystroke_Key.space	Key.space	n/a
214.883	0.06	429766	keystroke_f	f	n/a
215.0025	0.0755	430005	keystroke_r	r	n/a
215.2125	0.06	430425	keystroke_e	e	n/a
215.5285	0.074	431057	keystroke_q	q	n/a
215.7075	0.09	431415	keystroke_u	u	n/a
215.8575	0.09	431715	keystroke_e	e	n/a
215.9625	0.0905	431925	keystroke_n	n	n/a
216.248	0.0745	432496	keystroke_t	t	n/a
216.3675	0.105	432735	keystroke_l	l	n/a
216.488	0.0745	432976	keystroke_y	y	n/a
216.9225	0.0905	433845	keystroke_Key.space	Key.space	n/a
217.373	0.0895	434746	keystroke_c	c	n/a
218.153	0.0745	436306	keystroke_i	i	n/a
218.258	0.09	436516	keystroke_a	a	n/a
218.407	0.076	436814	keystroke_l	l	n/a
218.603	0.105	437206	keystroke_i	i	n/a
218.693	0.09	437386	keystroke_s	s	n/a
218.843	0.0895	437686	keystroke_Key.enter	Key.enter	n/a
218.9395	6.415	437879	prompt	n/a	called didn't clouds divided\n
219.9525	0.015	439905	keystroke_c	c	n/a
220.0425	0.09	440085	keystroke_a	a	n/a
220.1775	0.03	440355	keystroke_l	l	n/a
220.2975	0.076	440595	keystroke_l	l	n/a
220.358	0.15	440716	keystroke_e	e	n/a
220.4925	0.1205	440985	keystroke_d	d	n/a
220.8075	0.09	441615	keystroke_Key.space	Key.space	n/a
221.108	0.0895	442216	keystroke_d	d	n/a
221.258	0.0745	442516	keystroke_i	i	n/a
221.3335	0.089	442667	keystroke_d	d	n/a
221.4385	0.089	442877	keystroke_n	n	n/a
221.783	0.06	443566	keystroke_'	'	n/a
221.903	0.075	443806	keystroke_t	t	n/a
222.173	0.075	444346	keystroke_Key.space	Key.space	n/a
222.6975	0.0905	445395	keystroke_c	c	n/a
222.8175	0.06	445635	keystroke_l	l	n/a
222.9675	0.106	445935	keystroke_o	o	n/a
223.238	0.105	446476	keystroke_u	u	n/a
223.373	0.09	446746	keystroke_d	d	n/a
223.538	0.0745	447076	keystroke_Key.space	Key.space	n/a
223.943	0.0905	447886	keystroke_d	d	n/a
224.1225	0.09	448245	keystroke_i	i	n/a
224.348	0.074	448696	keystroke_v	v	n/a
224.468	0.0905	448936	keystroke_i	i	n/a
224.738	0.12	449476	keystroke_d	d	n/a
224.8725	0.136	449745	keystroke_e	e	n/a
224.978	0.105	449956	keystroke_d	d	n/a
225.278	0.075	450556	keystroke_Key.enter	Key.enter	n/a
225.359	7.5255	450718	prompt	n/a	included muscles impossible christmas\n
226.1325	0.105	452265	keystroke_i	i	n/a
226.208	0.0745	452416	keystroke_n	n	n/a
226.298	0.0895	452596	keystroke_c	c	n/a
226.508	0.06	453016	keystroke_l	l	n/a
226.7175	0.0605	453435	keystroke_u	u	n/a
226.883	0.1055	453766	keystroke_d	d	n/a
227.0185	0.164	454037	keystroke_e	e	n/a
227.1375	0.12	454275	keystroke_d	d	n/a
227.483	0.0595	454966	keystroke_Key.space	Key.space	n/a
227.6925	0.075	455385	keystroke_m	m	n/a
227.8725	0.0755	455745	keystroke_u	u	n/a
227.9625	0.105	455925	keystroke_s	s	n/a
228.1885	0.089	456377	keystroke_c	c	n/a
228.2925	0.0905	456585	keystroke_l	l	n/a
228.413	0.1045	456826	keystroke_e	e	n/a
228.728	0.06	457456	keystroke_s	s	n/a
228.968	0.075	457936	keystroke_Key.space	Key.space	n/a
229.2085	0.105	458417	keystroke_i	i	n/a
229.2825	0.12	458565	keystroke_m	m	n/a
229.538	0.06	459076	keystroke_p	p	n/a
229.718	0.075	459436	keystroke_o	o	n/a
229.823	0.06	459646	keystroke_s	s	n/a
229.973	0.09	459946	keystroke_s	s	n/a
230.1535	0.1495	460307	keystroke_i	i	n/a
230.258	0.09	460516	keystroke_b	b	n/a
230.468	0.105	460936	keystroke_l	l	n/a
230.633	0.06	461266	keystroke_e	e	n/a
230.798	0.06	461596	keystroke_Key.space	Key.space	n/a
231.2925	0.0605	462585	keystroke_c	c	n/a
231.518	0.0145	463036	keystroke_h	h	n/a
231.593	0.06	463186	keystroke_r	r	n/a
231.6975	0.0755	463395	keystroke_i	i	n/a
231.7875	0.0905	463575	keystroke_s	s	n/a
231.9975	0.06	463995	keystroke_t	t	n/a
232.1475	0.061	464295	keystroke_m	m	n/a
232.2525	0.105	464505	keystroke_a	a	n/a
232.478	0.0895	464956	keystroke_s	s	n/a
232.793	0.089	465586	keystroke_Key.enter	Key.enter	n/a
232.89	9.64	465780	prompt	n/a	adjusted digest untitled innovation\n
233.4675	0.0905	466935	keystroke_a	a	n/a
233.8725	0.06	467745	keystroke_d	d	n/a
234.0375	0.0605	468075	keystroke_j	j	n/a
234.188	0.0895	468376	keystroke_u	u	n/a
234.2325	0.09	468465	keystroke_s	s	n/a
234.4425	0.09	468885	keystroke_t	t	n/a
234.638	0.0745	469276	keystroke_Key.space	Key.space	n/a
235.2075	0.09	470415	keystroke_d	d	n/a
235.3275	0.0755	470655	keystroke_i	i	n/a
235.448	0.0745	470896	keystroke_g	g	n/a
235.5825	0.0895	471165	keystroke_e	e	n/a
235.792	0.09	471584	keystroke_s	s	n/a
235.988	0.074	471976	keystroke_t	t	n/a
236.228	0.0595	472456	keystroke_n	n	n/a
236.9625	0.135	473925	keystroke_Key.backspace	Key.backspace	n/a
237.5625	0.075	475125	keystroke_Key.space	Key.space	n/a
238.0285	0.09	476057	keystroke_u	u	n/a
238.1925	0.0905	476385	keystroke_n	n	n/a
238.4025	0.075	476805	keystroke_t	t	n/a
238.508	0.0745	477016	keystroke_i	i	n/a
238.6125	0.09	477225	keystroke_t	t	n/a
238.733	0.075	477466	keystroke_l	l	n/a
238.853	0.105	477706	keystroke_e	e	n/a
239.258	0.09	478516	keystroke_s	s	n/a
240.0075	0.09	480015	keystroke_Key.backspace	Key.backspace	n/a
240.3385	0.089	480677	keystroke_d	d	n/a
240.473	0.09	480946	keystroke_Key.space	Key.space	n/a
240.653	0.135	481306	keystroke_i	i	n/a
240.728	0.135	481456	keystroke_n	n	n/a
241.043	0.105	482086	keystroke_n	n	n/a
241.508	0.12	483016	keystroke_o	o	n/a
241.763	0.0745	483526	keystroke_v	v	n/a
241.8385	0.1195	483677	keystroke_a	a	n/a
242.003	0.105	484006	keystroke_t	t	n/a
242.093	0.1645	484186	keystroke_i	i	n/a
242.123	0.1195	484246	keystroke_o	o	n/a
242.183	0.1345	484366	keystroke_n	n	n/a
242.4375	0.0905	484875	keystroke_Key.enter	Key.enter	n/a
242.5345	7.075	485069	prompt	n/a	fatal seeing confidential justify\n
243.293	0.1045	486586	keystroke_f	f	n/a
243.412	0.091	486824	keystroke_a	a	n/a
243.578	0.06	487156	keystroke_t	t	n/a
243.668	0.09	487336	keystroke_a	a	n/a
243.8185	0.1345	487637	keystroke_l	l	n/a
244.103	0.074	488206	keystroke_Key.space	Key.space	n/a
244.238	0.06	488476	keystroke_s	s	n/a
244.433	0.045	488866	keystroke_e	e	n/a
244.553	0.075	489106	keystroke_e	e	n/a
244.643	0.105	489286	keystroke_i	i	n/a
244.688	0.135	489376	keystroke_n	n	n/a
244.8825	0.0905	489765	keystroke_g	g	n/a
245.0625	0.09	490125	keystroke_Key.space	Key.space	n/a
245.7075	0.06	491415	keystroke_c	c	n/a
245.8275	0.121	491655	keystroke_o	o	n/a
245.9175	0.105	491835	keystroke_n	n	n/a
246.1425	0.075	492285	keystroke_f	f	n/a
246.248	0.09	492496	keystroke_i	i	n/a
246.458	0.0905	492916	keystroke_d	d	n/a
246.6385	0.104	493277	keystroke_e	e	n/a
246.773	0.075	493546	keystroke_n	n	n/a
246.893	0.09	493786	keystroke_t	t	n/a
247.058	0.09	494116	keystroke_i	i	n/a
247.193	0.105	494386	keystroke_a	a	n/a
247.328	0.0745	494656	keystroke_l	l	n/a
247.6875	0.0755	495375	keystroke_Key.space	Key.space	n/a
248.0775	0.0605	496155	keystroke_j	j	n/a
248.2275	0.075	496455	keystroke_u	u	n/a
248.2725	0.0605	496545	keystroke_s	s	n/a
248.453	0.09	496906	keystroke_t	t	n/a
248.6925	0.091	497385	keystroke_i	i	n/a
248.978	0.0745	497956	keystroke_f	f	n/a
249.2775	0.09	498555	keystroke_y	y	n/a
249.548	0.0595	499096	keystroke_Key.enter	Key.enter	n/a
249.614	6.8355	499228	prompt	n/a	hobbies motorola rendered sized\n
250.3285	0.074	500657	keystroke_h	h	n/a
250.478	0.105	500956	keystroke_o	o	n/a
250.748	0.06	501496	keystroke_b	b	n/a
250.8835	0.0745	501767	keystroke_b	b	n/a
251.018	0.09	502036	keystroke_i	i	n/a
251.123	0.06	502246	keystroke_e	e	n/a
251.333	0.06	502666	keystroke_s	s	n/a
251.438	0.09	502876	keystroke_Key.space	Key.space	n/a
251.663	0.09	503326	keystroke_m	m	n/a
251.8435	0.0895	503687	keystroke_o	o	n/a
252.008	0.09	504016	keystroke_t	t	n/a
252.1135	0.1195	504227	keystroke_o	o	n/a
252.277	0.09	504554	keystroke_r	r	n/a
252.4425	0.1055	504885	keystroke_l	l	n/a
252.6075	0.0905	505215	keystroke_a	a	n/a
253.2375	0.075	506475	keystroke_Key.space	Key.space	n/a
253.5385	0.0895	507077	keystroke_r	r	n/a
253.613	0.1205	507226	keystroke_e	e	n/a
253.9725	0.075	507945	keystroke_n	n	n/a
254.123	0.09	508246	keystroke_d	d	n/a
254.2425	0.136	508485	keystroke_e	e	n/a
254.3785	0.1495	508757	keystroke_r	r	n/a
254.498	0.1495	508996	keystroke_e	e	n/a
254.6625	0.0905	509325	keystroke_d	d	n/a
255.2775	0.075	510555	keystroke_Key.space	Key.space	n/a
255.4425	0.076	510885	keystroke_s	s	n/a
255.578	0.075	511156	keystroke_i	i	n/a
255.863	0.0745	511726	keystroke_z	z	n/a
256.088	0.0895	512176	keystroke_e	e	n/a
256.2075	0.1055	512415	keystroke_d	d	n/a
256.3575	0.0905	512715	keystroke_Key.enter	Key.enter	n/a
256.4535	6.491	512907	prompt	n/a	pike forgot offered clips\n
257.183	0.0755	514366	keystroke_p	p	n/a
257.393	0.105	514786	keystroke_i	i	n/a
258.3825	0.06	516765	keystroke_k	k	n/a
258.473	0.09	516946	keystroke_e	e	n/a
258.5925	0.09	517185	keystroke_Key.space	Key.space	n/a
258.7125	0.105	517425	keystroke_f	f	n/a
258.9535	0.0745	517907	keystroke_o	o	n/a
259.043	0.0895	518086	keystroke_r	r	n/a
259.4025	0.06	518805	keystroke_g	g	n/a
259.478	0.075	518956	keystroke_o	o	n/a
259.553	0.075	519106	keystroke_t	t	n/a
259.8075	0.075	519615	keystroke_Key.space	Key.space	n/a
260.2425	0.075	520485	keystroke_o	o	n/a
260.348	0.0445	520696	keystroke_f	f	n/a
260.4825	0.076	520965	keystroke_f	f	n/a
260.603	0.1355	521206	keystroke_e	e	n/a
260.7385	0.1045	521477	keystroke_r	r	n/a
260.8285	0.1045	521657	keystroke_e	e	n/a
261.098	0.105	522196	keystroke_d	d	n/a
261.548	0.0745	523096	keystroke_Key.space	Key.space	n/a
262.103	0.074	524206	keystroke_c	c	n/a
262.2225	0.0905	524445	keystroke_l	l	n/a
262.418	0.075	524836	keystroke_i	i	n/a
262.598	0.105	525196	keystroke_p	p	n/a
262.717	0.061	525434	keystroke_s	s	n/a
262.868	0.0745	525736	keystroke_Key.enter	Key.enter	n/a
262.9495	7.0445	525899	prompt	n/a	camp manufacturers bodies other\n
263.603	0.089	527206	keystroke_c	c	n/a
263.8275	0.0755	527655	keystroke_a	a	n/a
263.9325	0.0905	527865	keystroke_m	m	n/a
264.0975	0.075	528195	keystroke_p	p	n/a
264.3825	0.075	528765	keystroke_Key.space	Key.space	n/a
264.6075	0.0755	529215	keystroke_m	m	n/a
264.6675	0.0905	529335	keystroke_a	a	n/a
264.848	0.0745	529696	keystroke_n	n	n/a
265.0285	0.0895	530057	keystroke_u	u	n/a
265.2975	0.0905	530595	keystroke_f	f	n/a
265.403	0.1195	530806	keystroke_a	a	n/a
265.6275	0.0605	531255	keystroke_t	t	n/a
265.8225	0.0755	531645	keystroke_u	u	n/a
266.0175	0.1055	532035	keystroke_r	r	n/a
266.078	0.105	532156	keystroke_e	e	n/a
266.8125	0.0905	533625	keystroke_d	d	n/a
267.2475	0.0895	534495	keystroke_Key.backspace	Key.backspace	n/a
267.383	0.119	534766	keystroke_s	s	n/a
268.0575	0.0745	536115	keystroke_Key.space	Key.space	n/a
268.2985	0.0595	536597	keystroke_b	b	n/a
268.447	0.09	536894	keystroke_o	o	n/a
268.553	0.1045	537106	keystroke_d	d	n/a
268.7175	0.09	537435	keystroke_i	i	n/a
268.8975	0.075	537795	keystroke_e	e	n/a
269.093	0.06	538186	keystroke_s	s	n/a
269.2275	0.09	538455	keystroke_Key.space	Key.space	n/a
269.4675	0.105	538935	keystroke_o	o	n/a
269.6025	0.09	539205	keystroke_t	t	n/a
269.7225	0.075	539445	keystroke_h	h	n/a
269.7675	0.105	539535	keystroke_e	e	n/a
269.8425	0.09	539685	keystroke_r	r	n/a
269.9475	0.045	539895	keystroke_Key.enter	Key.enter	n/a
269.998	7.8415	539996	prompt	n/a	slot bryan bands credit\n
270.668	0.0895	541336	keystroke_s	s	n/a
270.7725	0.09	541545	keystroke_l	l	n/a
270.9375	0.09	541875	keystroke_o	o	n/a
271.0575	0.091	542115	keystroke_t	t	n/a
271.2225	0.075	542445	keystroke_Key.space	Key.space	n/a
272.903	0.12	545806	keystroke_b	b	n/a
273.098	0.0745	546196	keystroke_r	r	n/a
273.2175	0.075	546435	keystroke_y	y	n/a
273.398	0.075	546796	keystroke_s	s	n/a
273.772	0.061	547544	keystroke_Key.backspace	Key.backspace	n/a
273.8935	0.0885	547787	keystroke_a	a	n/a
274.4925	0.09	548985	keystroke_n	n	n/a
275.0475	0.075	550095	keystroke_Key.space	Key.space	n/a
275.303	0.0745	550606	keystroke_b	b	n/a
275.3475	0.1205	550695	keystroke_a	a	n/a
275.528	0.09	551056	keystroke_n	n	n/a
275.6775	0.106	551355	keystroke_d	d	n/a
276.0975	0.075	552195	keystroke_Key.space	Key.space	n/a
276.3075	0.075	552615	keystroke_c	c	n/a
276.533	0.135	553066	keystroke_r	r	n/a
276.653	0.165	553306	keystroke_e	e	n/a
276.803	0.105	553606	keystroke_d	d	n/a
277.567	0.0755	555134	keystroke_i	i	n/a
277.658	0.089	555316	keystroke_t	t	n/a
277.762	0.075	555524	keystroke_Key.enter	Key.enter	n/a
277.844	5.8005	555688	prompt	n/a	leave impose economy open\n
278.708	0.075	557416	keystroke_l	l	n/a
278.7675	0.1805	557535	keystroke_e	e	n/a
278.873	0.0895	557746	keystroke_a	a	n/a
279.083	0.075	558166	keystroke_v	v	n/a
279.173	0.09	558346	keystroke_e	e	n/a
279.3375	0.075	558675	keystroke_Key.space	Key.space	n/a
279.7125	0.105	559425	keystroke_i	i	n/a
279.7725	0.09	559545	keystroke_m	m	n/a
279.968	0.075	559936	keystroke_p	p	n/a
280.1775	0.09	560355	keystroke_o	o	n/a
280.2525	0.0595	560505	keystroke_s	s	n/a
280.432	0.076	560864	keystroke_e	e	n/a
280.5825	0.075	561165	keystroke_Key.space	Key.space	n/a
280.9275	0.0905	561855	keystroke_e	e	n/a
281.4225	0.0755	562845	keystroke_c	c	n/a
281.543	0.1195	563086	keystroke_o	o	n/a
281.648	0.105	563296	keystroke_n	n	n/a
281.7975	0.1505	563595	keystroke_o	o	n/a
282.0525	0.09	564105	keystroke_m	m	n/a
282.353	0.045	564706	keystroke_y	y	n/a
282.728	0.075	565456	keystroke_Key.space	Key.space	n/a
282.953	0.074	565906	keystroke_o	o	n/a
283.163	0.0605	566326	keystroke_p	p	n/a
283.2675	0.0755	566535	keystroke_e	e	n/a
283.3575	0.0905	566715	keystroke_n	n	n/a
283.568	0.0745	567136	keystroke_Key.enter	Key.enter	n/a
283.6495	9.7	567299	prompt	n/a	perhaps sacramento ireland metres\n
284.393	0.06	568786	keystroke_p	p	n/a
284.482	0.12	568964	keystroke_e	e	n/a
284.587	0.075	569174	keystroke_r	r	n/a
284.828	0.09	569656	keystroke_h	h	n/a
284.933	0.09	569866	keystroke_a	a	n/a
285.113	0.089	570226	keystroke_p	p	n/a
285.353	0.104	570706	keystroke_s	s	n/a
285.562	0.075	571124	keystroke_Key.space	Key.space	n/a
285.937	0.09	571874	keystroke_s	s	n/a
286.1475	0.0895	572295	keystroke_a	a	n/a
286.327	0.121	572654	keystroke_c	c	n/a
286.5675	0.0745	573135	keystroke_r	r	n/a
286.7325	0.0755	573465	keystroke_a	a	n/a
286.913	0.0895	573826	keystroke_m	m	n/a
287.047	0.105	574094	keystroke_e	e	n/a
287.137	0.076	574274	keystroke_n	n	n/a
287.2575	0.1055	574515	keystroke_t	t	n/a
288.0675	0.1655	576135	keystroke_p	p	n/a
288.6225	0.12	577245	keystroke_Key.backspace	Key.backspace	n/a
288.908	0.0595	577816	keystroke_o	o	n/a
289.118	0.0745	578236	keystroke_Key.space	Key.space	n/a
289.2975	0.09	578595	keystroke_i	i	n/a
289.3725	0.105	578745	keystroke_r	r	n/a
289.463	0.1045	578926	keystroke_e	e	n/a
289.5975	0.106	579195	keystroke_l	l	n/a
289.883	0.0755	579766	keystroke_a	a	n/a
290.0035	0.0895	580007	keystroke_n	n	n/a
290.153	0.09	580306	keystroke_d	d	n/a
290.348	0.06	580696	keystroke_Key.space	Key.space	n/a
290.918	0.075	581836	keystroke_m	m	n/a
291.172	0.0905	582344	keystroke_e	e	n/a
291.3525	0.075	582705	keystroke_t	t	n/a
291.4585	0.134	582917	keystroke_e	e	n/a
291.6075	0.1505	583215	keystroke_r	r	n/a
292.3275	0.06	584655	keystroke_Key.backspace	Key.backspace	n/a
292.4625	0.105	584925	keystroke_Key.backspace	Key.backspace	n/a
292.538	0.165	585076	keystroke_r	r	n/a
292.613	0.12	585226	keystroke_e	e	n/a
292.852	0.151	585704	keystroke_s	s	n/a
293.2725	0.0755	586545	keystroke_Key.enter	Key.enter	n/a
293.354	7.165	586708	prompt	n/a	site alliance speeds pipeline\n
294.007	0.091	588014	keystroke_s	s	n/a
294.217	0.061	588434	keystroke_i	i	n/a
294.3075	0.135	588615	keystroke_t	t	n/a
294.4275	0.105	588855	keystroke_e	e	n/a
294.6375	0.09	589275	keystroke_Key.space	Key.space	n/a
295.298	0.075	590596	keystroke_a	a	n/a
296.1075	0.06	592215	keystroke_l	l	n/a
296.228	0.09	592456	keystroke_l	l	n/a
296.438	0.0895	592876	keystroke_i	i	n/a
296.497	0.1055	592994	keystroke_a	a	n/a
296.6325	0.09	593265	keystroke_n	n	n/a
296.7675	0.105	593535	keystroke_c	c	n/a
296.918	0.0745	593836	keystroke_e	e	n/a
297.0525	0.06	594105	keystroke_Key.space	Key.space	n/a
297.3225	0.075	594645	keystroke_s	s	n/a
297.4875	0.0745	594975	keystroke_p	p	n/a
297.607	0.0755	595214	keystroke_e	e	n/a
297.7575	0.0905	595515	keystroke_e	e	n/a
297.8925	0.105	595785	keystroke_d	d	n/a
298.0125	0.105	596025	keystroke_s	s	n/a
298.1925	0.06	596385	keystroke_Key.space	Key.space	n/a
298.4635	0.0735	596927	keystroke_p	p	n/a
298.6575	0.06	597315	keystroke_i	i	n/a
298.853	0.089	597706	keystroke_p	p	n/a
299.1375	0.015	598275	keystroke_e	e	n/a
299.2575	0.105	598515	keystroke_l	l	n/a
299.498	0.1195	598996	keystroke_i	i	n/a
299.5425	0.15	599085	keystroke_n	n	n/a
299.888	0.1045	599776	keystroke_s	s	n/a
300.232	0.061	600464	keystroke_Key.backspace	Key.backspace	n/a
300.308	0.075	600616	keystroke_e	e	n/a
300.428	0.09	600856	keystroke_Key.enter	Key.enter	n/a
300.524	7.631	601048	prompt	n/a	believed beam economies trigger\n
301.613	0.0445	603226	keystroke_b	b	n/a
301.8225	0.0755	603645	keystroke_e	e	n/a
301.928	0.0745	603856	keystroke_l	l	n/a
302.108	0.075	604216	keystroke_i	i	n/a
302.198	0.105	604396	keystroke_e	e	n/a
302.633	0.0895	605266	keystroke_v	v	n/a
302.753	0.18	605506	keystroke_e	e	n/a
302.978	0.105	605956	keystroke_d	d	n/a
303.278	0.09	606556	keystroke_Key.space	Key.space	n/a
303.503	0.09	607006	keystroke_b	b	n/a
303.578	0.15	607156	keystroke_e	e	n/a
303.6825	0.1355	607365	keystroke_a	a	n/a
303.998	0.075	607996	keystroke_m	m	n/a
304.313	0.075	608626	keystroke_Key.space	Key.space	n/a
304.643	0.105	609286	keystroke_e	e	n/a
304.898	0.075	609796	keystroke_c	c	n/a
305.033	0.135	610066	keystroke_o	o	n/a
305.138	0.12	610276	keystroke_n	n	n/a
305.332	0.151	610664	keystroke_o	o	n/a
305.468	0.1495	610936	keystroke_m	m	n/a
305.708	0.09	611416	keystroke_i	i	n/a
305.8725	0.0895	611745	keystroke_e	e	n/a
306.083	0.06	612166	keystroke_s	s	n/a
306.2325	0.0745	612465	keystroke_Key.space	Key.space	n/a
306.547	0.106	613094	keystroke_t	t	n/a
306.6825	0.105	613365	keystroke_r	r	n/a
306.893	0.105	613786	keystroke_i	i	n/a
307.2085	0.074	614417	keystroke_g	g	n/a
307.358	0.09	614716	keystroke_g	g	n/a
307.493	0.165	614986	keystroke_e	e	n/a
307.613	0.105	615226	keystroke_r	r	n/a
308.063	0.09	616126	keystroke_Key.enter	Key.enter	n/a
308.16	5.6345	616320	prompt	n/a	rays relax reflects field\n
308.888	0.105	617776	keystroke_r	r	n/a
309.0075	0.105	618015	keystroke_a	a	n/a
309.173	0.0895	618346	keystroke_y	y	n/a
309.278	0.0745	618556	keystroke_s	s	n/a
309.4575	0.075	618915	keystroke_Key.space	Key.space	n/a
309.8625	0.09	619725	keystroke_r	r	n/a
309.9225	0.106	619845	keystroke_e	e	n/a
310.147	0.09	620294	keystroke_l	l	n/a
310.222	0.0905	620444	keystroke_a	a	n/a
310.6275	0.09	621255	keystroke_x	x	n/a
310.868	0.0745	621736	keystroke_Key.space	Key.space	n/a
311.2725	0.09	622545	keystroke_r	r	n/a
311.3175	0.1345	622635	keystroke_e	e	n/a
311.5275	0.09	623055	keystroke_f	f	n/a
311.7675	0.09	623535	keystroke_l	l	n/a
311.8725	0.09	623745	keystroke_e	e	n/a
312.1875	0.075	624375	keystroke_c	c	n/a
312.3975	0.06	624795	keystroke_t	t	n/a
312.607	0.076	625214	keystroke_s	s	n/a
312.8025	0.0755	625605	keystroke_Key.space	Key.space	n/a
313.103	0.075	626206	keystroke_f	f	n/a
313.253	0.074	626506	keystroke_i	i	n/a
313.358	0.0745	626716	keystroke_e	e	n/a
313.4775	0.0905	626955	keystroke_l	l	n/a
313.552	0.0905	627104	keystroke_d	d	n/a
313.7025	0.0895	627405	keystroke_Key.enter	Key.enter	n/a
313.801	8.633	627602	prompt	n/a	oughtn't fraser msgid america\n
314.6475	0.0745	629295	keystroke_o	o	n/a
314.902	0.09	629804	keystroke_u	u	n/a
315.127	0.09	630254	keystroke_g	g	n/a
315.277	0.106	630554	keystroke_h	h	n/a
315.442	0.0755	630884	keystroke_t	t	n/a
316.537	0.135	633074	keystroke_n	n	n/a
316.747	0.09	633494	keystroke_'	'	n/a
317.1825	0.075	634365	keystroke_t	t	n/a
317.3465	0.0755	634693	keystroke_Key.space	Key.space	n/a
317.708	0.09	635416	keystroke_f	f	n/a
317.903	0.075	635806	keystroke_r	r	n/a
318.083	0.075	636166	keystroke_a	a	n/a
318.2625	0.075	636525	keystroke_s	s	n/a
318.4575	0.1055	636915	keystroke_e	e	n/a
318.607	0.09	637214	keystroke_r	r	n/a
319.0575	0.0595	638115	keystroke_Key.space	Key.space	n/a
319.657	0.061	639314	keystroke_m	m	n/a
319.793	0.074	639586	keystroke_s	s	n/a
320.1525	0.075	640305	keystroke_g	g	n/a
320.363	0.09	640726	keystroke_i	i	n/a
320.7825	0.136	641565	keystroke_d	d	n/a
321.217	0.075	642434	keystroke_Key.space	Key.space	n/a
321.412	0.075	642824	keystroke_a	a	n/a
321.533	0.074	643066	keystroke_m	m	n/a
321.653	0.1195	643306	keystroke_e	e	n/a
321.8325	0.075	643665	keystroke_r	r	n/a
322.0275	0.0905	644055	keystroke_i	i	n/a
322.178	0.1195	644356	keystroke_c	c	n/a
322.2675	0.105	644535	keystroke_a	a	n/a
322.3425	0.09	644685	keystroke_Key.enter	Key.enter	n/a
322.4375	6.3265	644875	prompt	n/a	thomas semi semi brother\n
323.228	0.0745	646456	keystroke_t	t	n/a
323.3475	0.075	646695	keystroke_h	h	n/a
323.4825	0.15	646965	keystroke_o	o	n/a
323.6175	0.1045	647235	keystroke_m	m	n/a
323.737	0.135	647474	keystroke_a	a	n/a
323.8275	0.1205	647655	keystroke_s	s	n/a
324.037	0.075	648074	keystroke_Key.space	Key.space	n/a
324.247	0.091	648494	keystroke_s	s	n/a
324.8025	0.0605	649605	keystroke_e	e	n/a
324.9375	0.09	649875	keystroke_m	m	n/a
325.1325	0.0895	650265	keystroke_i	i	n/a
325.747	0.0605	651494	keystroke_Key.space	Key.space	n/a
325.9425	0.1055	651885	keystroke_s	s	n/a
326.1675	0.06	652335	keystroke_e	e	n/a
326.2875	0.105	652575	keystroke_m	m	n/a
326.4365	0.1055	652873	keystroke_i	i	n/a
327.247	0.06	654494	keystroke_Key.space	Key.space	n/a
327.758	0.044	655516	keystroke_b	b	n/a
327.817	0.031	655634	keystroke_r	r	n/a
327.878	0.0895	655756	keystroke_o	o	n/a
328.013	0.074	656026	keystroke_t	t	n/a
328.103	0.074	656206	keystroke_h	h	n/a
328.132	0.121	656264	keystroke_e	e	n/a
328.237	0.075	656474	keystroke_r	r	n/a
328.687	0.0755	657374	keystroke_Key.enter	Key.enter	n/a
328.7675	7.4665	657535	prompt	n/a	occurring guaranteed burden islands\n
329.857	0.0755	659714	keystroke_o	o	n/a
330.052	0.061	660104	keystroke_c	c	n/a
330.203	0.09	660406	keystroke_c	c	n/a
330.278	0.09	660556	keystroke_u	u	n/a
330.4125	0.09	660825	keystroke_r	r	n/a
330.5175	0.1345	661035	keystroke_i	i	n/a
330.607	0.105	661214	keystroke_n	n	n/a
330.697	0.09	661394	keystroke_g	g	n/a
330.832	0.09	661664	keystroke_Key.space	Key.space	n/a
331.388	0.0895	662776	keystroke_g	g	n/a
331.537	0.076	663074	keystroke_u	u	n/a
331.642	0.12	663284	keystroke_r	r	n/a
331.8675	0.09	663735	keystroke_a	a	n/a
332.123	0.0895	664246	keystroke_n	n	n/a
332.482	0.0755	664964	keystroke_t	t	n/a
332.6625	0.105	665325	keystroke_e	e	n/a
332.8575	0.1205	665715	keystroke_e	e	n/a
332.993	0.12	665986	keystroke_d	d	n/a
333.232	0.0755	666464	keystroke_Key.space	Key.space	n/a
333.6675	0.075	667335	keystroke_b	b	n/a
333.8775	0.09	667755	keystroke_u	u	n/a
334.0575	0.09	668115	keystroke_r	r	n/a
334.2825	0.1205	668565	keystroke_d	d	n/a
334.3875	0.1055	668775	keystroke_e	e	n/a
334.943	0.0745	669886	keystroke_n	n	n/a
335.092	0.075	670184	keystroke_Key.space	Key.space	n/a
335.242	0.106	670484	keystroke_i	i	n/a
335.348	0.089	670696	keystroke_s	s	n/a
335.542	0.075	671084	keystroke_l	l	n/a
335.6475	0.09	671295	keystroke_a	a	n/a
335.768	0.089	671536	keystroke_n	n	n/a
335.918	0.104	671836	keystroke_d	d	n/a
336.023	0.0895	672046	keystroke_s	s	n/a
336.1575	0.074	672315	keystroke_Key.enter	Key.enter	n/a
336.2395	7.2845	672479	prompt	n/a	crude stays patent arkansas\n
336.938	0.075	673876	keystroke_c	c	n/a
337.117	0.06	674234	keystroke_r	r	n/a
337.208	0.089	674416	keystroke_u	u	n/a
337.3725	0.12	674745	keystroke_d	d	n/a
337.4775	0.09	674955	keystroke_e	e	n/a
337.5975	0.09	675195	keystroke_Key.space	Key.space	n/a
338.0015	0.076	676003	keystroke_s	s	n/a
338.3175	0.075	676635	keystroke_t	t	n/a
338.408	0.089	676816	keystroke_a	a	n/a
338.542	0.075	677084	keystroke_y	y	n/a
338.6325	0.0895	677265	keystroke_s	s	n/a
338.797	0.0905	677594	keystroke_Key.space	Key.space	n/a
339.187	0.105	678374	keystroke_p	p	n/a
339.278	0.09	678556	keystroke_a	a	n/a
339.7725	0.105	679545	keystroke_t	t	n/a
339.9375	0.105	679875	keystroke_e	e	n/a
340.028	0.1045	680056	keystroke_n	n	n/a
340.327	0.105	680654	keystroke_t	t	n/a
340.897	0.075	681794	keystroke_Key.space	Key.space	n/a
341.062	0.091	682124	keystroke_a	a	n/a
341.437	0.091	682874	keystroke_r	r	n/a
341.693	0.075	683386	keystroke_k	k	n/a
341.797	0.091	683594	keystroke_a	a	n/a
341.948	0.06	683896	keystroke_n	n	n/a
342.038	0.09	684076	keystroke_s	s	n/a
342.607	0.1055	685214	keystroke_a	a	n/a
342.728	0.104	685456	keystroke_s	s	n/a
343.4475	0.074	686895	keystroke_Key.enter	Key.enter	n/a
343.528	9.686	687056	prompt	n/a	fellow contests domains screenshot\n
344.557	0.075	689114	keystroke_f	f	n/a
344.6625	0.09	689325	keystroke_e	e	n/a
344.7975	0.0755	689595	keystroke_l	l	n/a
344.933	0.1045	689866	keystroke_l	l	n/a
345.142	0.0905	690284	keystroke_o	o	n/a
345.472	0.06	690944	keystroke_w	w	n/a
345.892	0.06	691784	keystroke_Key.space	Key.space	n/a
346.237	0.0605	692474	keystroke_c	c	n/a
346.312	0.09	692624	keystroke_o	o	n/a
346.3875	0.1045	692775	keystroke_n	n	n/a
346.5525	0.0595	693105	keystroke_t	t	n/a
347.617	0.06	695234	keystroke_e	e	n/a
347.827	0.075	695654	keystroke_s	s	n/a
348.097	0.09	696194	keystroke_t	t	n/a
349.7325	0.0905	699465	keystroke_s	s	n/a
350.1225	0.045	700245	keystroke_Key.space	Key.space	n/a
350.3175	0.09	700635	keystroke_d	d	n/a
350.5125	0.1045	701025	keystroke_o	o	n/a
350.602	0.12	701204	keystroke_m	m	n/a
350.7375	0.09	701475	keystroke_a	a	n/a
350.843	0.105	701686	keystroke_i	i	n/a
350.917	0.09	701834	keystroke_n	n	n/a
351.052	0.106	702104	keystroke_s	s	n/a
351.262	0.075	702524	keystroke_Key.space	Key.space	n/a
351.757	0.0905	703514	keystroke_s	s	n/a
351.953	0.059	703906	keystroke_c	c	n/a
352.102	0.075	704204	keystroke_r	r	n/a
352.297	0.045	704594	keystroke_e	e	n/a
352.4175	0.0745	704835	keystroke_e	e	n/a
352.5225	0.09	705045	keystroke_n	n	n/a
352.6725	0.045	705345	keystroke_s	s	n/a
352.7325	0.105	705465	keystroke_h	h	n/a
352.8675	0.12	705735	keystroke_o	o	n/a
353.0325	0.0755	706065	keystroke_t	t	n/a
353.1375	0.0745	706275	keystroke_Key.enter	Key.enter	n/a
353.218	9.326	706436	prompt	n/a	vitamins structural personnel introduce\n
354.053	0.075	708106	keystroke_v	v	n/a
354.2325	0.09	708465	keystroke_i	i	n/a
354.3075	0.09	708615	keystroke_t	t	n/a
354.473	0.075	708946	keystroke_m	m	n/a
354.533	0.075	709066	keystroke_a	a	n/a
354.6975	0.135	709395	keystroke_i	i	n/a
354.788	0.1195	709576	keystroke_n	n	n/a
354.8925	0.135	709785	keystroke_s	s	n/a
355.192	0.075	710384	keystroke_Key.space	Key.space	n/a
355.4925	0.0905	710985	keystroke_s	s	n/a
355.7175	0.1345	711435	keystroke_t	t	n/a
355.8375	0.1045	711675	keystroke_r	r	n/a
355.988	0.089	711976	keystroke_u	u	n/a
356.182	0.09	712364	keystroke_c	c	n/a
356.407	0.0755	712814	keystroke_t	t	n/a
356.5725	0.0605	713145	keystroke_u	u	n/a
356.8125	0.0745	713625	keystroke_r	r	n/a
357.008	0.0895	714016	keystroke_a	a	n/a
357.1125	0.0755	714225	keystroke_l	l	n/a
357.4275	0.075	714855	keystroke_Key.space	Key.space	n/a
357.698	0.1045	715396	keystroke_p	p	n/a
357.8175	0.09	715635	keystroke_e	e	n/a
357.9225	0.09	715845	keystroke_r	r	n/a
358.1175	0.06	716235	keystroke_s	s	n/a
358.2375	0.15	716475	keystroke_o	o	n/a
358.4025	0.105	716805	keystroke_n	n	n/a
359.618	0.1345	719236	keystroke_n	n	n/a
359.8725	0.06	719745	keystroke_e	e	n/a
360.0075	0.105	720015	keystroke_l	l	n/a
360.3975	0.074	720795	keystroke_Key.space	Key.space	n/a
360.637	0.1055	721274	keystroke_i	i	n/a
360.682	0.135	721364	keystroke_n	n	n/a
360.9225	0.135	721845	keystroke_t	t	n/a
361.0275	0.1195	722055	keystroke_r	r	n/a
361.327	0.135	722654	keystroke_o	o	n/a
361.507	0.09	723014	keystroke_d	d	n/a
361.642	0.09	723284	keystroke_u	u	n/a
361.807	0.091	723614	keystroke_c	c	n/a
361.957	0.105	723914	keystroke_e	e	n/a
362.4675	0.075	724935	keystroke_Key.enter	Key.enter	n/a
362.5485	9.1455	725097	prompt	n/a	executed flesh discrimination revenues\n
363.3375	0.075	726675	keystroke_e	e	n/a
363.5475	0.09	727095	keystroke_x	x	n/a
363.8475	0.105	727695	keystroke_e	e	n/a
364.0425	0.09	728085	keystroke_c	c	n/a
364.3725	0.0455	728745	keystroke_t	t	n/a
364.732	0.105	729464	keystroke_Key.backspace	Key.backspace	n/a
365.003	0.075	730006	keystroke_u	u	n/a
365.107	0.105	730214	keystroke_t	t	n/a
365.318	0.18	730636	keystroke_e	e	n/a
365.438	0.134	730876	keystroke_d	d	n/a
365.677	0.09	731354	keystroke_Key.space	Key.space	n/a
366.053	0.0745	732106	keystroke_f	f	n/a
366.203	0.1045	732406	keystroke_l	l	n/a
366.2625	0.09	732525	keystroke_e	e	n/a
366.473	0.1045	732946	keystroke_s	s	n/a
366.6075	0.12	733215	keystroke_h	h	n/a
366.9075	0.075	733815	keystroke_Key.space	Key.space	n/a
367.357	0.075	734714	keystroke_d	d	n/a
367.507	0.0755	735014	keystroke_i	i	n/a
367.627	0.076	735254	keystroke_s	s	n/a
367.942	0.0905	735884	keystroke_c	c	n/a
368.137	0.075	736274	keystroke_r	r	n/a
368.257	0.1505	736514	keystroke_i	i	n/a
368.543	0.074	737086	keystroke_m	m	n/a
368.6925	0.1195	737385	keystroke_i	i	n/a
368.797	0.0905	737594	keystroke_n	n	n/a
368.918	0.1045	737836	keystroke_a	a	n/a
369.1125	0.09	738225	keystroke_t	t	n/a
369.1725	0.195	738345	keystroke_i	i	n/a
369.2325	0.12	738465	keystroke_o	o	n/a
369.2925	0.12	738585	keystroke_n	n	n/a
370.0725	0.075	740145	keystroke_Key.space	Key.space	n/a
370.4025	0.1195	740805	keystroke_r	r	n/a
370.492	0.135	740984	keystroke_e	e	n/a
370.7775	0.06	741555	keystroke_v	v	n/a
370.853	0.0895	741706	keystroke_e	e	n/a
370.957	0.091	741914	keystroke_n	n	n/a
371.182	0.075	742364	keystroke_u	u	n/a
371.3325	0.06	742665	keystroke_e	e	n/a
371.513	0.0745	743026	keystroke_s	s	n/a
371.6175	0.075	743235	keystroke_Key.enter	Key.enter	n/a
371.699	8.65	743398	prompt	n/a	temple her findarticles nissan\n
372.368	0.089	744736	keystroke_t	t	n/a
372.5325	0.075	745065	keystroke_e	e	n/a
372.6675	0.09	745335	keystroke_m	m	n/a
372.862	0.1205	745724	keystroke_p	p	n/a
372.908	0.1345	745816	keystroke_l	l	n/a
373.0275	0.0895	746055	keystroke_e	e	n/a
373.2825	0.075	746565	keystroke_Key.space	Key.space	n/a
373.688	0.0895	747376	keystroke_h	h	n/a
373.8075	0.09	747615	keystroke_e	e	n/a
373.9575	0.075	747915	keystroke_Key.space	Key.space	n/a
374.7375	0.075	749475	keystroke_f	f	n/a
374.8575	0.1355	749715	keystroke_i	i	n/a
374.9325	0.135	749865	keystroke_n	n	n/a
375.1875	0.1045	750375	keystroke_d	d	n/a
376.1925	0.12	752385	keystroke_a	a	n/a
376.4775	0.0905	752955	keystroke_r	r	n/a
376.6875	0.075	753375	keystroke_t	t	n/a
376.8075	0.074	753615	keystroke_i	i	n/a
377.002	0.0905	754004	keystroke_c	c	n/a
377.1075	0.075	754215	keystroke_l	l	n/a
377.2125	0.0605	754425	keystroke_e	e	n/a
377.437	0.0755	754874	keystroke_s	s	n/a
377.5875	0.074	755175	keystroke_Key.space	Key.space	n/a
377.9025	0.06	755805	keystroke_n	n	n/a
378.0525	0.09	756105	keystroke_i	i	n/a
378.158	0.0295	756316	keystroke_a	a	n/a
378.292	0.09	756584	keystroke_s	s	n/a
378.5025	0.0595	757005	keystroke_Key.backspace	Key.backspace	n/a
378.6225	0.089	757245	keystroke_Key.backspace	Key.backspace	n/a
378.6665	0.1515	757333	keystroke_s	s	n/a
378.8185	0.029	757637	keystroke_a	a	n/a
379.342	0.075	758684	keystroke_Key.backspace	Key.backspace	n/a
379.418	0.164	758836	keystroke_s	s	n/a
379.5225	0.1355	759045	keystroke_a	a	n/a
380.0325	0.0905	760065	keystroke_n	n	n/a
380.2725	0.0745	760545	keystroke_Key.enter	Key.enter	n/a
380.3525	5.9815	760705	prompt	n/a	cycling outdoor them frozen\n
381.203	0.0735	762406	keystroke_c	c	n/a
381.6515	0.076	763303	keystroke_y	y	n/a
382.1175	0.075	764235	keystroke_c	c	n/a
382.2225	0.0605	764445	keystroke_l	l	n/a
382.3875	0.12	764775	keystroke_i	i	n/a
382.4625	0.1055	764925	keystroke_n	n	n/a
382.5375	0.06	765075	keystroke_g	g	n/a
382.687	0.0755	765374	keystroke_Key.space	Key.space	n/a
383.137	0.0905	766274	keystroke_o	o	n/a
383.3625	0.06	766725	keystroke_u	u	n/a
383.4525	0.075	766905	keystroke_t	t	n/a
383.722	0.075	767444	keystroke_d	d	n/a
383.812	0.0455	767624	keystroke_o	o	n/a
383.9175	0.09	767835	keystroke_o	o	n/a
384.0075	0.0745	768015	keystroke_r	r	n/a
384.187	0.06	768374	keystroke_Key.space	Key.space	n/a
384.3975	0.0745	768795	keystroke_t	t	n/a
384.457	0.091	768914	keystroke_h	h	n/a
384.563	0.074	769126	keystroke_e	e	n/a
384.6975	0.0595	769395	keystroke_m	m	n/a
384.8775	0.0745	769755	keystroke_Key.space	Key.space	n/a
385.027	0.0755	770054	keystroke_f	f	n/a
385.1475	0.075	770295	keystroke_r	r	n/a
385.2375	0.0905	770475	keystroke_o	o	n/a
385.6875	0.09	771375	keystroke_z	z	n/a
385.9425	0.0755	771885	keystroke_e	e	n/a
386.0625	0.09	772125	keystroke_n	n	n/a
386.2425	0.09	772485	keystroke_Key.enter	Key.enter	n/a
386.338	6.491	772676	prompt	n/a	lunch thereby bristol rugs\n
387.0075	0.105	774015	keystroke_l	l	n/a
387.2625	0.0755	774525	keystroke_u	u	n/a
388.027	0.075	776054	keystroke_n	n	n/a
388.4625	0.075	776925	keystroke_c	c	n/a
388.5225	0.1205	777045	keystroke_h	h	n/a
388.8665	0.075	777733	keystroke_Key.space	Key.space	n/a
389.1225	0.09	778245	keystroke_t	t	n/a
389.258	0.0445	778516	keystroke_h	h	n/a
389.288	0.1495	778576	keystroke_e	e	n/a
389.407	0.1205	778814	keystroke_r	r	n/a
389.7225	0.0595	779445	keystroke_b	b	n/a
389.872	0.075	779744	keystroke_y	y	n/a
390.217	0.09	780434	keystroke_Key.space	Key.space	n/a
390.6075	0.0445	781215	keystroke_b	b	n/a
390.7875	0.0755	781575	keystroke_r	r	n/a
390.922	0.075	781844	keystroke_i	i	n/a
390.967	0.12	781934	keystroke_s	s	n/a
391.192	0.0755	782384	keystroke_t	t	n/a
391.2975	0.0745	782595	keystroke_o	o	n/a
391.5825	0.0895	783165	keystroke_l	l	n/a
391.8525	0.0895	783705	keystroke_Key.space	Key.space	n/a
392.047	0.075	784094	keystroke_r	r	n/a
392.1675	0.0895	784335	keystroke_u	u	n/a
392.4225	0.06	784845	keystroke_g	g	n/a
392.6025	0.09	785205	keystroke_s	s	n/a
392.7375	0.09	785475	keystroke_Key.enter	Key.enter	n/a
392.836	8.468	785672	prompt	n/a	global achieving measured arguments\n
393.6975	0.0755	787395	keystroke_g	g	n/a
393.8475	0.0755	787695	keystroke_l	l	n/a
393.997	0.105	787994	keystroke_o	o	n/a
394.177	0.09	788354	keystroke_b	b	n/a
394.282	0.09	788564	keystroke_a	a	n/a
394.418	0.1195	788836	keystroke_l	l	n/a
394.687	0.0755	789374	keystroke_Key.space	Key.space	n/a
394.8075	0.0895	789615	keystroke_a	a	n/a
395.0325	0.0745	790065	keystroke_c	c	n/a
395.1375	0.0745	790275	keystroke_h	h	n/a
395.272	0.0905	790544	keystroke_e	e	n/a
395.3325	0.1045	790665	keystroke_i	i	n/a
395.557	0.061	791114	keystroke_v	v	n/a
395.693	0.1345	791386	keystroke_i	i	n/a
395.782	0.1355	791564	keystroke_n	n	n/a
396.037	0.015	792074	keystroke_f	f	n/a
396.5015	0.076	793003	keystroke_Key.backspace	Key.backspace	n/a
396.7125	0.09	793425	keystroke_g	g	n/a
396.9225	0.074	793845	keystroke_Key.space	Key.space	n/a
397.7175	0.06	795435	keystroke_m	m	n/a
397.7625	0.1495	795525	keystroke_e	e	n/a
397.882	0.12	795764	keystroke_a	a	n/a
398.1675	0.045	796335	keystroke_s	s	n/a
398.2275	0.06	796455	keystroke_u	u	n/a
398.437	0.1055	796874	keystroke_r	r	n/a
398.5265	0.106	797053	keystroke_e	e	n/a
398.6765	0.06	797353	keystroke_Key.space	Key.space	n/a
399.2025	0.105	798405	keystroke_a	a	n/a
399.427	0.0895	798854	keystroke_r	r	n/a
399.6525	0.09	799305	keystroke_g	g	n/a
399.862	0.0905	799724	keystroke_u	u	n/a
400.193	0.0895	800386	keystroke_m	m	n/a
400.4325	0.09	800865	keystroke_e	e	n/a
400.5375	0.06	801075	keystroke_n	n	n/a
400.6125	0.0745	801225	keystroke_t	t	n/a
400.7475	0.0745	801495	keystroke_s	s	n/a
401.227	0.0755	802454	keystroke_Key.enter	Key.enter	n/a
401.3085	7.3005	802617	prompt	n/a	solving discharge sector limit\n
402.0975	0.075	804195	keystroke_s	s	n/a
402.2025	0.06	804405	keystroke_o	o	n/a
402.3825	0.09	804765	keystroke_l	l	n/a
402.5475	0.075	805095	keystroke_v	v	n/a
402.6375	0.1045	805275	keystroke_i	i	n/a
402.712	0.0905	805424	keystroke_n	n	n/a
402.8175	0.0595	805635	keystroke_g	g	n/a
402.9375	0.0895	805875	keystroke_Key.space	Key.space	n/a
403.6875	0.06	807375	keystroke_d	d	n/a
403.8375	0.06	807675	keystroke_i	i	n/a
403.9125	0.0745	807825	keystroke_s	s	n/a
404.212	0.0905	808424	keystroke_c	c	n/a
404.3325	0.06	808665	keystroke_h	h	n/a
404.3625	0.1045	808725	keystroke_a	a	n/a
404.557	0.1055	809114	keystroke_r	r	n/a
405.307	0.0755	810614	keystroke_g	g	n/a
405.4265	0.106	810853	keystroke_e	e	n/a
405.6525	0.075	811305	keystroke_Key.space	Key.space	n/a
405.817	0.0755	811634	keystroke_s	s	n/a
406.0125	0.09	812025	keystroke_e	e	n/a
406.2825	0.0445	812565	keystroke_c	c	n/a
406.5075	0.045	813015	keystroke_t	t	n/a
406.5375	0.1045	813075	keystroke_o	o	n/a
406.8075	0.0745	813615	keystroke_r	r	n/a
406.957	0.09	813914	keystroke_Key.space	Key.space	n/a
407.3025	0.0895	814605	keystroke_l	l	n/a
407.512	0.1055	815024	keystroke_i	i	n/a
407.6925	0.105	815385	keystroke_m	m	n/a
407.8275	0.105	815655	keystroke_i	i	n/a
408.1125	0.09	816225	keystroke_t	t	n/a
408.5325	0.075	817065	keystroke_Key.enter	Key.enter	n/a
408.614	6.025	817228	prompt	n/a	mirror lenders persons directive\n
409.327	0.0605	818654	keystroke_m	m	n/a
409.522	0.075	819044	keystroke_i	i	n/a
409.6275	0.0745	819255	keystroke_r	r	n/a
409.777	0.075	819554	keystroke_r	r	n/a
409.9575	0.1045	819915	keystroke_o	o	n/a
410.1525	0.0745	820305	keystroke_r	r	n/a
410.3325	0.0745	820665	keystroke_Key.space	Key.space	n/a
410.692	0.0905	821384	keystroke_l	l	n/a
410.783	0.0745	821566	keystroke_e	e	n/a
410.9325	0.09	821865	keystroke_n	n	n/a
411.0675	0.089	822135	keystroke_d	d	n/a
411.187	0.1355	822374	keystroke_e	e	n/a
411.2925	0.1355	822585	keystroke_r	r	n/a
411.4575	0.0895	822915	keystroke_s	s	n/a
411.682	0.0605	823364	keystroke_Key.space	Key.space	n/a
411.9075	0.1045	823815	keystroke_p	p	n/a
411.997	0.09	823994	keystroke_e	e	n/a
412.103	0.134	824206	keystroke_r	r	n/a
412.2525	0.0455	824505	keystroke_s	s	n/a
412.312	0.1205	824624	keystroke_o	o	n/a
412.3875	0.1045	824775	keystroke_n	n	n/a
412.522	0.136	825044	keystroke_s	s	n/a
412.777	0.0905	825554	keystroke_Key.space	Key.space	n/a
413.1225	0.09	826245	keystroke_d	d	n/a
413.2425	0.09	826485	keystroke_i	i	n/a
413.3475	0.09	826695	keystroke_r	r	n/a
413.4675	0.1495	826935	keystroke_e	e	n/a
413.783	0.059	827566	keystroke_c	c	n/a
413.992	0.0605	827984	keystroke_t	t	n/a
414.097	0.09	828194	keystroke_i	i	n/a
414.3075	0.06	828615	keystroke_v	v	n/a
414.4425	0.105	828885	keystroke_e	e	n/a
414.5625	0.075	829125	keystroke_Key.enter	Key.enter	n/a
414.6425	5.5315	829285	prompt	n/a	goals rebel virtue reason\n
415.4325	0.074	830865	keystroke_g	g	n/a
415.5825	0.0895	831165	keystroke_o	o	n/a
415.7175	0.104	831435	keystroke_a	a	n/a
415.8375	0.09	831675	keystroke_l	l	n/a
415.9575	0.09	831915	keystroke_s	s	n/a
416.152	0.0755	832304	keystroke_Key.space	Key.space	n/a
416.4975	0.105	832995	keystroke_r	r	n/a
416.6315	0.09	833263	keystroke_e	e	n/a
416.7525	0.075	833505	keystroke_b	b	n/a
416.8725	0.0895	833745	keystroke_e	e	n/a
417.0075	0.105	834015	keystroke_l	l	n/a
417.3225	0.075	834645	keystroke_Key.space	Key.space	n/a
417.6665	0.121	835333	keystroke_v	v	n/a
417.8475	0.075	835695	keystroke_i	i	n/a
417.9825	0.09	835965	keystroke_r	r	n/a
418.1925	0.09	836385	keystroke_t	t	n/a
418.343	0.0745	836686	keystroke_u	u	n/a
418.492	0.18	836984	keystroke_e	e	n/a
418.9875	0.06	837975	keystroke_Key.space	Key.space	n/a
419.2725	0.1045	838545	keystroke_r	r	n/a
419.332	0.1355	838664	keystroke_e	e	n/a
419.437	0.1205	838874	keystroke_a	a	n/a
419.662	0.106	839324	keystroke_s	s	n/a
419.797	0.1795	839594	keystroke_o	o	n/a
419.887	0.1355	839774	keystroke_n	n	n/a
420.082	0.09	840164	keystroke_Key.enter	Key.enter	n/a
420.1785	6.3105	840357	prompt	n/a	warcraft pirates goals helped\n
421.0425	0.105	842085	keystroke_w	w	n/a
421.1775	0.105	842355	keystroke_a	a	n/a
421.3575	0.105	842715	keystroke_r	r	n/a
421.6725	0.075	843345	keystroke_c	c	n/a
421.8825	0.06	843765	keystroke_r	r	n/a
422.078	0.1045	844156	keystroke_a	a	n/a
422.2125	0.135	844425	keystroke_f	f	n/a
422.5115	0.0605	845023	keystroke_t	t	n/a
422.737	0.046	845474	keystroke_Key.space	Key.space	n/a
422.9325	0.075	845865	keystroke_p	p	n/a
423.1275	0.075	846255	keystroke_i	i	n/a
423.247	0.1045	846494	keystroke_r	r	n/a
423.3825	0.104	846765	keystroke_a	a	n/a
423.5175	0.09	847035	keystroke_t	t	n/a
423.713	0.0145	847426	keystroke_e	e	n/a
423.9975	0.09	847995	keystroke_s	s	n/a
424.3875	0.0745	848775	keystroke_Key.space	Key.space	n/a
424.6575	0.0605	849315	keystroke_g	g	n/a
424.778	0.059	849556	keystroke_o	o	n/a
424.882	0.0905	849764	keystroke_a	a	n/a
425.092	0.1055	850184	keystroke_l	l	n/a
425.377	0.075	850754	keystroke_Key.space	Key.space	n/a
425.6175	0.075	851235	keystroke_h	h	n/a
425.7075	0.0895	851415	keystroke_e	e	n/a
425.8575	0.075	851715	keystroke_l	l	n/a
426.0225	0.09	852045	keystroke_p	p	n/a
426.1425	0.105	852285	keystroke_e	e	n/a
426.2775	0.1055	852555	keystroke_d	d	n/a
426.3975	0.09	852795	keystroke_Key.enter	Key.enter	n/a
426.493	9.311	852986	prompt	n/a	taxation organisms deutsch acids\n
427.208	0.1195	854416	keystroke_t	t	n/a
427.372	0.09	854744	keystroke_a	a	n/a
427.837	0.09	855674	keystroke_x	x	n/a
427.9575	0.105	855915	keystroke_a	a	n/a
428.167	0.075	856334	keystroke_t	t	n/a
428.2725	0.2405	856545	keystroke_i	i	n/a
428.3625	0.1345	856725	keystroke_o	o	n/a
428.438	0.1195	856876	keystroke_n	n	n/a
428.707	0.0755	857414	keystroke_Key.space	Key.space	n/a
428.992	0.0905	857984	keystroke_o	o	n/a
429.097	0.09	858194	keystroke_r	r	n/a
429.5325	0.0605	859065	keystroke_g	g	n/a
429.652	0.0895	859304	keystroke_a	a	n/a
429.9075	0.075	859815	keystroke_n	n	n/a
430.0415	0.091	860083	keystroke_i	i	n/a
430.2375	0.0905	860475	keystroke_s	s	n/a
430.3715	0.0755	860743	keystroke_m	m	n/a
430.627	0.0755	861254	keystroke_Key.space	Key.space	n/a
431.1065	0.09	862213	keystroke_d	d	n/a
431.287	0.0905	862574	keystroke_e	e	n/a
432.3525	0.075	864705	keystroke_u	u	n/a
432.7425	0.0895	865485	keystroke_t	t	n/a
433.5825	0.09	867165	keystroke_s	s	n/a
433.7925	0.075	867585	keystroke_c	c	n/a
433.9275	0.06	867855	keystroke_h	h	n/a
434.5425	0.09	869085	keystroke_Key.space	Key.space	n/a
434.8425	0.09	869685	keystroke_a	a	n/a
435.0825	0.09	870165	keystroke_c	c	n/a
435.2175	0.09	870435	keystroke_i	i	n/a
435.4275	0.1505	870855	keystroke_d	d	n/a
435.5625	0.1345	871125	keystroke_s	s	n/a
435.7125	0.09	871425	keystroke_Key.enter	Key.enter	n/a
435.8075	8.7565	871615	prompt	n/a	lodge there's despite formation\n
436.567	0.0905	873134	keystroke_l	l	n/a
436.763	0.0895	873526	keystroke_o	o	n/a
436.9275	0.09	873855	keystroke_d	d	n/a
437.1675	0.0605	874335	keystroke_g	g	n/a
437.332	0.091	874664	keystroke_e	e	n/a
437.738	0.059	875476	keystroke_Key.space	Key.space	n/a
438.127	0.1055	876254	keystroke_t	t	n/a
438.2475	0.06	876495	keystroke_h	h	n/a
438.2925	0.15	876585	keystroke_e	e	n/a
438.3975	0.1495	876795	keystroke_r	r	n/a
438.4725	0.105	876945	keystroke_e	e	n/a
438.9225	0.06	877845	keystroke_s	s	n/a
439.3725	0.09	878745	keystroke_'	'	n/a
439.6875	0.1195	879375	keystroke_Key.backspace	Key.backspace	n/a
439.9275	0.09	879855	keystroke_'	'	n/a
440.212	0.0905	880424	keystroke_Key.backspace	Key.backspace	n/a
440.3925	0.1195	880785	keystroke_Key.backspace	Key.backspace	n/a
440.497	0.12	880994	keystroke_'	'	n/a
440.603	0.089	881206	keystroke_s	s	n/a
441.0675	0.075	882135	keystroke_Key.space	Key.space	n/a
441.6225	0.1055	883245	keystroke_d	d	n/a
441.968	0.045	883936	keystroke_e	e	n/a
442.1775	0.0595	884355	keystroke_s	s	n/a
442.2675	0.075	884535	keystroke_p	p	n/a
442.477	0.09	884954	keystroke_i	i	n/a
442.553	0.1345	885106	keystroke_t	t	n/a
442.702	0.0755	885404	keystroke_e	e	n/a
442.837	0.075	885674	keystroke_Key.space	Key.space	n/a
443.437	0.1195	886874	keystroke_f	f	n/a
443.602	0.09	887204	keystroke_o	o	n/a
443.662	0.091	887324	keystroke_r	r	n/a
443.8575	0.074	887715	keystroke_m	m	n/a
443.9165	0.1055	887833	keystroke_a	a	n/a
444.053	0.075	888106	keystroke_t	t	n/a
444.097	0.2255	888194	keystroke_i	i	n/a
444.1725	0.135	888345	keystroke_o	o	n/a
444.2325	0.135	888465	keystroke_n	n	n/a
444.4725	0.09	888945	keystroke_Key.enter	Key.enter	n/a
444.568	5.2915	889136	prompt	n/a	audi it bishop planes\n
445.388	0.075	890776	keystroke_a	a	n/a
445.7925	0.06	891585	keystroke_u	u	n/a
445.8975	0.075	891795	keystroke_d	d	n/a
446.0325	0.06	892065	keystroke_i	i	n/a
446.347	0.0755	892694	keystroke_Key.space	Key.space	n/a
446.648	0.074	893296	keystroke_i	i	n/a
446.783	0.074	893566	keystroke_t	t	n/a
446.902	0.075	893804	keystroke_Key.space	Key.space	n/a
447.098	0.0595	894196	keystroke_b	b	n/a
447.248	0.105	894496	keystroke_i	i	n/a
447.338	0.0745	894676	keystroke_s	s	n/a
447.4715	0.091	894943	keystroke_h	h	n/a
447.6825	0.12	895365	keystroke_o	o	n/a
447.9225	0.1045	895845	keystroke_p	p	n/a
448.567	0.075	897134	keystroke_Key.space	Key.space	n/a
448.867	0.136	897734	keystroke_p	p	n/a
448.9875	0.1195	897975	keystroke_l	l	n/a
449.1235	0.1045	898247	keystroke_a	a	n/a
449.392	0.0755	898784	keystroke_n	n	n/a
449.483	0.0745	898966	keystroke_e	e	n/a
449.677	0.076	899354	keystroke_s	s	n/a
449.767	0.09	899534	keystroke_Key.enter	Key.enter	n/a
449.864	9.58	899728	prompt	n/a	barcelona mariah hybrid oughtn't\n
450.7575	0.06	901515	keystroke_b	b	n/a
450.8475	0.0745	901695	keystroke_a	a	n/a
451.012	0.09	902024	keystroke_r	r	n/a
451.3125	0.0595	902625	keystroke_c	c	n/a
451.4175	0.09	902835	keystroke_e	e	n/a
451.5675	0.06	903135	keystroke_l	l	n/a
451.732	0.1345	903464	keystroke_o	o	n/a
451.8525	0.09	903705	keystroke_n	n	n/a
451.9725	0.089	903945	keystroke_a	a	n/a
452.182	0.0755	904364	keystroke_Key.space	Key.space	n/a
452.558	0.074	905116	keystroke_m	m	n/a
452.617	0.075	905234	keystroke_a	a	n/a
452.767	0.091	905534	keystroke_r	r	n/a
452.902	0.09	905804	keystroke_i	i	n/a
453.008	0.1045	906016	keystroke_a	a	n/a
453.442	0.121	906884	keystroke_h	h	n/a
453.8175	0.09	907635	keystroke_Key.space	Key.space	n/a
454.1325	0.075	908265	keystroke_h	h	n/a
454.328	0.074	908656	keystroke_y	y	n/a
454.582	0.09	909164	keystroke_b	b	n/a
454.747	0.061	909494	keystroke_r	r	n/a
454.852	0.09	909704	keystroke_i	i	n/a
455.1075	0.1195	910215	keystroke_d	d	n/a
455.407	0.075	910814	keystroke_Key.space	Key.space	n/a
455.768	0.104	911536	keystroke_o	o	n/a
456.0225	0.09	912045	keystroke_u	u	n/a
456.2625	0.09	912525	keystroke_g	g	n/a
456.5625	0.12	913125	keystroke_h	h	n/a
457.0875	0.075	914175	keystroke_t	t	n/a
457.7025	0.0595	915405	keystroke_n	n	n/a
458.0925	0.06	916185	keystroke_'	'	n/a
458.167	0.075	916334	keystroke_t	t	n/a
458.4075	0.015	916815	keystroke_n	n	n/a
458.8575	0.105	917715	keystroke_Key.backspace	Key.backspace	n/a
459.3225	0.12	918645	keystroke_Key.enter	Key.enter	n/a
459.4475	7.0015	918895	prompt	n/a	warrant immigration coat initially\n
460.267	0.135	920534	keystroke_w	w	n/a
460.3875	0.1195	920775	keystroke_a	a	n/a
460.567	0.075	921134	keystroke_r	r	n/a
460.717	0.09	921434	keystroke_r	r	n/a
460.868	0.1045	921736	keystroke_a	a	n/a
460.9575	0.1045	921915	keystroke_n	n	n/a
461.0925	0.0895	922185	keystroke_t	t	n/a
461.242	0.09	922484	keystroke_Key.space	Key.space	n/a
461.8425	0.12	923685	keystroke_i	i	n/a
461.9175	0.12	923835	keystroke_m	m	n/a
462.1575	0.0605	924315	keystroke_m	m	n/a
462.338	0.09	924676	keystroke_i	i	n/a
462.488	0.1045	924976	keystroke_g	g	n/a
462.683	0.1195	925366	keystroke_r	r	n/a
462.8625	0.105	925725	keystroke_a	a	n/a
462.982	0.0905	925964	keystroke_t	t	n/a
463.0575	0.18	926115	keystroke_i	i	n/a
463.132	0.1205	926264	keystroke_o	o	n/a
463.1925	0.1355	926385	keystroke_n	n	n/a
463.568	0.0895	927136	keystroke_Key.space	Key.space	n/a
463.9425	0.0745	927885	keystroke_c	c	n/a
464.0475	0.0755	928095	keystroke_o	o	n/a
464.3175	0.105	928635	keystroke_a	a	n/a
464.527	0.1055	929054	keystroke_t	t	n/a
464.7075	0.075	929415	keystroke_Key.space	Key.space	n/a
465.052	0.136	930104	keystroke_i	i	n/a
465.172	0.105	930344	keystroke_n	n	n/a
465.367	0.105	930734	keystroke_t	t	n/a
465.487	0.0905	930974	keystroke_i	i	n/a
465.6375	0.1045	931275	keystroke_a	a	n/a
465.787	0.06	931574	keystroke_l	l	n/a
465.922	0.105	931844	keystroke_l	l	n/a
466.237	0.105	932474	keystroke_y	y	n/a
466.357	0.09	932714	keystroke_Key.enter	Key.enter	n/a
466.456	6.083	932912	prompt	n/a	mere item fantasy rochester\n
467.287	0.0755	934574	keystroke_m	m	n/a
467.3175	0.105	934635	keystroke_e	e	n/a
467.4375	0.1645	934875	keystroke_r	r	n/a
467.557	0.1355	935114	keystroke_e	e	n/a
467.827	0.06	935654	keystroke_Key.space	Key.space	n/a
468.1425	0.0745	936285	keystroke_i	i	n/a
468.307	0.121	936614	keystroke_t	t	n/a
468.397	0.1205	936794	keystroke_e	e	n/a
468.5325	0.105	937065	keystroke_m	m	n/a
468.7875	0.075	937575	keystroke_Key.space	Key.space	n/a
468.9975	0.12	937995	keystroke_f	f	n/a
469.1325	0.0895	938265	keystroke_a	a	n/a
469.282	0.0905	938564	keystroke_n	n	n/a
469.478	0.0745	938956	keystroke_t	t	n/a
469.5825	0.134	939165	keystroke_a	a	n/a
469.7475	0.149	939495	keystroke_s	s	n/a
470.2425	0.194	940485	keystroke_y	y	n/a
470.7825	0.0595	941565	keystroke_Key.space	Key.space	n/a
471.0675	0.0595	942135	keystroke_r	r	n/a
471.1875	0.135	942375	keystroke_o	o	n/a
471.3825	0.1045	942765	keystroke_c	c	n/a
471.5175	0.09	943035	keystroke_h	h	n/a
471.622	0.106	943244	keystroke_e	e	n/a
471.848	0.119	943696	keystroke_s	s	n/a
472.0875	0.09	944175	keystroke_t	t	n/a
472.1925	0.18	944385	keystroke_e	e	n/a
472.3125	0.1045	944625	keystroke_r	r	n/a
472.432	0.1055	944864	keystroke_Key.enter	Key.enter	n/a
472.5485	5.6455	945097	prompt	n/a	lung trace stake rico\n
473.2575	0.1195	946515	keystroke_l	l	n/a
473.527	0.1355	947054	keystroke_u	u	n/a
473.618	0.1495	947236	keystroke_n	n	n/a
474.0375	0.1505	948075	keystroke_g	g	n/a
474.8025	0.075	949605	keystroke_Key.space	Key.space	n/a
474.9675	0.1195	949935	keystroke_t	t	n/a
475.0725	0.18	950145	keystroke_r	r	n/a
475.2225	0.1195	950445	keystroke_a	a	n/a
475.432	0.135	950864	keystroke_c	c	n/a
475.597	0.105	951194	keystroke_e	e	n/a
475.747	0.09	951494	keystroke_Key.space	Key.space	n/a
476.0475	0.1195	952095	keystroke_s	s	n/a
476.272	0.151	952544	keystroke_t	t	n/a
476.437	0.1355	952874	keystroke_a	a	n/a
476.6175	0.135	953235	keystroke_k	k	n/a
476.7675	0.0755	953535	keystroke_e	e	n/a
477.1425	0.06	954285	keystroke_Key.space	Key.space	n/a
477.5625	0.045	955125	keystroke_r	r	n/a
477.713	0.0745	955426	keystroke_i	i	n/a
477.983	0.0745	955966	keystroke_c	c	n/a
478.1025	0.09	956205	keystroke_Key.enter	Key.enter	n/a
478.198	7.3615	956396	prompt	n/a	impose see wanted nearby\n
479.3475	0.105	958695	keystroke_i	i	n/a
479.4075	0.15	958815	keystroke_m	m	n/a
479.6625	0.075	959325	keystroke_p	p	n/a
479.857	0.06	959714	keystroke_o	o	n/a
479.9475	0.12	959895	keystroke_s	s	n/a
480.2175	0.12	960435	keystroke_e	e	n/a
480.652	0.046	961304	keystroke_s	s	n/a
480.757	0.0455	961514	keystroke_Key.space	Key.space	n/a
480.9825	0.06	961965	keystroke_Key.backspace	Key.backspace	n/a
481.1625	0.0445	962325	keystroke_Key.backspace	Key.backspace	n/a
481.6575	0.0595	963315	keystroke_Key.space	Key.space	n/a
481.7325	0.06	963465	keystroke_s	s	n/a
481.913	0.0595	963826	keystroke_e	e	n/a
482.047	0.0905	964094	keystroke_Key.space	Key.space	n/a
482.183	0.12	964366	keystroke_w	w	n/a
482.318	0.104	964636	keystroke_a	a	n/a
482.437	0.1205	964874	keystroke_n	n	n/a
482.6025	0.1045	965205	keystroke_t	t	n/a
482.7375	0.18	965475	keystroke_e	e	n/a
483.0375	0.0605	966075	keystroke_d	d	n/a
483.337	0.0605	966674	keystroke_Key.space	Key.space	n/a
483.6075	0.075	967215	keystroke_n	n	n/a
483.6675	0.12	967335	keystroke_e	e	n/a
484.6875	0.045	969375	keystroke_a	a	n/a
484.8075	0.105	969615	keystroke_r	r	n/a
485.1375	0.09	970275	keystroke_b	b	n/a
485.3475	0.09	970695	keystroke_y	y	n/a
485.4825	0.075	970965	keystroke_Key.enter	Key.enter	n/a
485.564	8.3355	971128	prompt	n/a	taught businesses needle some\n
486.3075	0.105	972615	keystroke_t	t	n/a
486.4575	0.0895	972915	keystroke_a	a	n/a
486.6675	0.09	973335	keystroke_u	u	n/a
486.787	0.09	973574	keystroke_g	g	n/a
486.8925	0.105	973785	keystroke_h	h	n/a
486.9675	0.105	973935	keystroke_t	t	n/a
487.1625	0.09	974325	keystroke_Key.space	Key.space	n/a
487.4175	0.075	974835	keystroke_b	b	n/a
487.5975	0.09	975195	keystroke_u	u	n/a
487.7325	0.09	975465	keystroke_s	s	n/a
487.928	0.135	975856	keystroke_i	i	n/a
488.018	0.1345	976036	keystroke_n	n	n/a
489.5175	0.09	979035	keystroke_e	e	n/a
489.758	0.0595	979516	keystroke_s	s	n/a
489.893	0.104	979786	keystroke_s	s	n/a
490.2825	0.09	980565	keystroke_e	e	n/a
490.763	0.0445	981526	keystroke_s	s	n/a
491.3325	0.06	982665	keystroke_Key.space	Key.space	n/a
491.782	0.0755	983564	keystroke_n	n	n/a
491.872	0.09	983744	keystroke_e	e	n/a
492.1125	0.105	984225	keystroke_e	e	n/a
492.3675	0.1045	984735	keystroke_d	d	n/a
492.5025	0.09	985005	keystroke_l	l	n/a
492.5925	0.1345	985185	keystroke_e	e	n/a
493.2525	0.06	986505	keystroke_Key.space	Key.space	n/a
493.448	0.104	986896	keystroke_s	s	n/a
493.5665	0.0905	987133	keystroke_o	o	n/a
493.612	0.1055	987224	keystroke_m	m	n/a
493.7025	0.0755	987405	keystroke_e	e	n/a
493.8225	0.0745	987645	keystroke_Key.enter	Key.enter	n/a
493.904	11.335	987808	prompt	n/a	trusts geographical forbidden trial\n
497.8285	0.0745	995657	keystroke_t	t	n/a
497.9175	0.105	995835	keystroke_r	r	n/a
498.0375	0.09	996075	keystroke_u	u	n/a
498.1725	0.1045	996345	keystroke_s	s	n/a
498.4125	0.0745	996825	keystroke_t	t	n/a
498.577	0.075	997154	keystroke_Key.space	Key.space	n/a
499.088	0.09	998176	keystroke_g	g	n/a
499.477	0.0905	998954	keystroke_e	e	n/a
499.598	0.089	999196	keystroke_o	o	n/a
499.958	0.0895	999916	keystroke_g	g	n/a
500.0325	0.1655	1000065	keystroke_r	r	n/a
500.258	0.09	1000516	keystroke_a	a	n/a
501.052	0.045	1002104	keystroke_p	p	n/a
501.232	0.076	1002464	keystroke_h	h	n/a
501.338	0.119	1002676	keystroke_i	i	n/a
501.532	0.076	1003064	keystroke_c	c	n/a
501.637	0.091	1003274	keystroke_a	a	n/a
501.713	0.12	1003426	keystroke_l	l	n/a
502.012	0.075	1004024	keystroke_Key.space	Key.space	n/a
502.537	0.1055	1005074	keystroke_f	f	n/a
502.673	0.0895	1005346	keystroke_o	o	n/a
502.7325	0.0605	1005465	keystroke_r	r	n/a
503.0325	0.045	1006065	keystroke_b	b	n/a
503.2275	0.1055	1006455	keystroke_i	i	n/a
503.4375	0.0905	1006875	keystroke_d	d	n/a
503.6025	0.0755	1007205	keystroke_d	d	n/a
503.662	0.135	1007324	keystroke_e	e	n/a
503.8875	0.1345	1007775	keystroke_n	n	n/a
504.1575	0.0745	1008315	keystroke_Key.space	Key.space	n/a
504.367	0.1205	1008734	keystroke_t	t	n/a
504.458	0.1645	1008916	keystroke_r	r	n/a
504.6525	0.1045	1009305	keystroke_i	i	n/a
504.848	0.089	1009696	keystroke_a	a	n/a
504.953	0.09	1009906	keystroke_l	l	n/a
505.162	0.075	1010324	keystroke_Key.enter	Key.enter	n/a
505.2435	7.0455	1010487	prompt	n/a	fuzzy potter solved mustn't\n
506.018	0.06	1012036	keystroke_f	f	n/a
506.213	0.075	1012426	keystroke_u	u	n/a
506.438	0.014	1012876	keystroke_z	z	n/a
506.5725	0.06	1013145	keystroke_z	z	n/a
506.737	0.091	1013474	keystroke_y	y	n/a
506.992	0.075	1013984	keystroke_Key.space	Key.space	n/a
507.338	0.0745	1014676	keystroke_p	p	n/a
507.503	0.074	1015006	keystroke_o	o	n/a
507.637	0.0605	1015274	keystroke_t	t	n/a
507.833	0.074	1015666	keystroke_t	t	n/a
507.983	0.135	1015966	keystroke_e	e	n/a
508.0725	0.105	1016145	keystroke_r	r	n/a
508.2675	0.0595	1016535	keystroke_Key.space	Key.space	n/a
508.4475	0.0745	1016895	keystroke_s	s	n/a
508.538	0.0895	1017076	keystroke_o	o	n/a
508.733	0.074	1017466	keystroke_l	l	n/a
508.882	0.09	1017764	keystroke_v	v	n/a
509.032	0.106	1018064	keystroke_e	e	n/a
509.183	0.1045	1018366	keystroke_d	d	n/a
509.377	0.0905	1018754	keystroke_Key.space	Key.space	n/a
509.693	0.0745	1019386	keystroke_m	m	n/a
509.8875	0.06	1019775	keystroke_u	u	n/a
509.993	0.0895	1019986	keystroke_s	s	n/a
510.233	0.0745	1020466	keystroke_t	t	n/a
510.458	0.0895	1020916	keystroke_n	n	n/a
510.7575	0.075	1021515	keystroke_'	'	n/a
510.8775	0.075	1021755	keystroke_t	t	n/a
512.2125	0.075	1024425	keystroke_Key.enter	Key.enter	n/a
512.2935	8.426	1024587	prompt	n/a	comparative relating indians terminals\n
513.4125	0.075	1026825	keystroke_c	c	n/a
513.5025	0.075	1027005	keystroke_o	o	n/a
513.5625	0.0755	1027125	keystroke_m	m	n/a
513.713	0.09	1027426	keystroke_p	p	n/a
513.8325	0.09	1027665	keystroke_a	a	n/a
513.9975	0.09	1027995	keystroke_r	r	n/a
514.433	0.09	1028866	keystroke_i	i	n/a
514.552	0.091	1029104	keystroke_t	t	n/a
514.6725	0.1045	1029345	keystroke_i	i	n/a
515.018	0.09	1030036	keystroke_v	v	n/a
515.167	0.09	1030334	keystroke_e	e	n/a
515.3625	0.0745	1030725	keystroke_Key.space	Key.space	n/a
515.8425	0.09	1031685	keystroke_r	r	n/a
515.902	0.106	1031804	keystroke_e	e	n/a
516.113	0.074	1032226	keystroke_l	l	n/a
516.202	0.075	1032404	keystroke_a	a	n/a
516.427	0.091	1032854	keystroke_t	t	n/a
516.487	0.1205	1032974	keystroke_i	i	n/a
516.562	0.1205	1033124	keystroke_n	n	n/a
516.742	0.105	1033484	keystroke_f	f	n/a
516.937	0.0755	1033874	keystroke_Key.space	Key.space	n/a
517.2075	0.12	1034415	keystroke_i	i	n/a
517.283	0.104	1034566	keystroke_n	n	n/a
517.4775	0.1045	1034955	keystroke_d	d	n/a
517.6575	0.0905	1035315	keystroke_i	i	n/a
517.7625	0.0755	1035525	keystroke_a	a	n/a
517.9425	0.1045	1035885	keystroke_n	n	n/a
518.3175	0.105	1036635	keystroke_s	s	n/a
518.5275	0.0895	1037055	keystroke_Key.space	Key.space	n/a
518.9625	0.09	1037925	keystroke_t	t	n/a
519.0825	0.18	1038165	keystroke_e	e	n/a
519.218	0.105	1038436	keystroke_r	r	n/a
519.8025	0.09	1039605	keystroke_m	m	n/a
519.9525	0.1355	1039905	keystroke_i	i	n/a
520.0425	0.12	1040085	keystroke_n	n	n/a
520.2075	0.09	1040415	keystroke_a	a	n/a
520.373	0.1045	1040746	keystroke_l	l	n/a
520.4925	0.075	1040985	keystroke_s	s	n/a
520.613	0.1045	1041226	keystroke_Key.enter	Key.enter	n/a
520.725	4.659	1041450	prompt	n/a	mating might yeast demo\n
521.393	0.075	1042786	keystroke_m	m	n/a
521.422	0.09	1042844	keystroke_a	a	n/a
521.618	0.06	1043236	keystroke_t	t	n/a
521.708	0.089	1043416	keystroke_i	i	n/a
521.753	0.119	1043506	keystroke_n	n	n/a
521.917	0.121	1043834	keystroke_f	f	n/a
522.112	0.075	1044224	keystroke_Key.space	Key.space	n/a
522.323	0.074	1044646	keystroke_m	m	n/a
522.458	0.105	1044916	keystroke_i	i	n/a
522.607	0.09	1045214	keystroke_g	g	n/a
522.7125	0.0745	1045425	keystroke_h	h	n/a
522.7725	0.075	1045545	keystroke_t	t	n/a
522.9525	0.075	1045905	keystroke_Key.space	Key.space	n/a
523.3725	0.0745	1046745	keystroke_y	y	n/a
523.477	0.1055	1046954	keystroke_e	e	n/a
523.6125	0.15	1047225	keystroke_a	a	n/a
523.8075	0.09	1047615	keystroke_s	s	n/a
524.108	0.0745	1048216	keystroke_t	t	n/a
524.303	0.059	1048606	keystroke_Key.space	Key.space	n/a
524.467	0.091	1048934	keystroke_d	d	n/a
524.6025	0.0905	1049205	keystroke_e	e	n/a
524.7825	0.0755	1049565	keystroke_m	m	n/a
524.9925	0.075	1049985	keystroke_o	o	n/a
525.277	0.1055	1050554	keystroke_Key.enter	Key.enter	n/a
525.388	7.556	1050776	prompt	n/a	remain poker went journal\n
526.283	0.12	1052566	keystroke_r	r	n/a
527.122	0.076	1054244	keystroke_e	e	n/a
527.363	0.075	1054726	keystroke_m	m	n/a
527.453	0.09	1054906	keystroke_a	a	n/a
527.558	0.12	1055116	keystroke_i	i	n/a
527.693	0.105	1055386	keystroke_n	n	n/a
527.9475	0.0755	1055895	keystroke_Key.space	Key.space	n/a
528.218	0.09	1056436	keystroke_p	p	n/a
528.818	0.0745	1057636	keystroke_o	o	n/a
529.043	0.1045	1058086	keystroke_k	k	n/a
529.133	0.1345	1058266	keystroke_e	e	n/a
529.238	0.1195	1058476	keystroke_r	r	n/a
529.5675	0.075	1059135	keystroke_Key.space	Key.space	n/a
529.9125	0.12	1059825	keystroke_w	w	n/a
530.2875	0.105	1060575	keystroke_e	e	n/a
530.4075	0.105	1060815	keystroke_n	n	n/a
530.933	0.044	1061866	keystroke_t	t	n/a
531.4125	0.075	1062825	keystroke_Key.space	Key.space	n/a
531.9075	0.075	1063815	keystroke_j	j	n/a
532.013	0.0895	1064026	keystroke_o	o	n/a
532.2375	0.06	1064475	keystroke_u	u	n/a
532.3575	0.09	1064715	keystroke_r	r	n/a
532.4925	0.075	1064985	keystroke_n	n	n/a
532.583	0.105	1065166	keystroke_a	a	n/a
532.7025	0.0755	1065405	keystroke_l	l	n/a
532.8525	0.09	1065705	keystroke_Key.enter	Key.enter	n/a
532.949	9.31	1065898	prompt	n/a	individuals knowing surveys applying\n
533.753	0.105	1067506	keystroke_i	i	n/a
533.797	0.136	1067594	keystroke_n	n	n/a
534.127	0.091	1068254	keystroke_d	d	n/a
534.248	0.12	1068496	keystroke_i	i	n/a
534.413	0.0745	1068826	keystroke_v	v	n/a
534.533	0.1045	1069066	keystroke_i	i	n/a
534.7875	0.15	1069575	keystroke_d	d	n/a
534.9825	0.09	1069965	keystroke_u	u	n/a
535.1625	0.105	1070325	keystroke_a	a	n/a
535.297	0.09	1070594	keystroke_l	l	n/a
535.448	0.089	1070896	keystroke_s	s	n/a
536.047	0.0605	1072094	keystroke_Key.space	Key.space	n/a
536.5875	0.075	1073175	keystroke_k	k	n/a
536.8125	0.06	1073625	keystroke_n	n	n/a
536.993	0.075	1073986	keystroke_o	o	n/a
537.1125	0.0605	1074225	keystroke_w	w	n/a
537.233	0.1345	1074466	keystroke_i	i	n/a
537.3075	0.12	1074615	keystroke_n	n	n/a
537.443	0.0445	1074886	keystroke_g	g	n/a
537.5775	0.075	1075155	keystroke_Key.space	Key.space	n/a
538.673	0.075	1077346	keystroke_s	s	n/a
539.378	0.0605	1078756	keystroke_u	u	n/a
539.528	0.09	1079056	keystroke_r	r	n/a
539.737	0.061	1079474	keystroke_v	v	n/a
539.828	0.089	1079656	keystroke_e	e	n/a
540.0075	0.075	1080015	keystroke_y	y	n/a
540.158	0.075	1080316	keystroke_s	s	n/a
540.8925	0.0455	1081785	keystroke_Key.space	Key.space	n/a
541.0425	0.09	1082085	keystroke_a	a	n/a
541.2075	0.0605	1082415	keystroke_p	p	n/a
541.3275	0.12	1082655	keystroke_p	p	n/a
541.4025	0.12	1082805	keystroke_l	l	n/a
541.7025	0.0455	1083405	keystroke_y	y	n/a
541.898	0.135	1083796	keystroke_i	i	n/a
541.973	0.12	1083946	keystroke_n	n	n/a
542.063	0.09	1084126	keystroke_g	g	n/a
542.1825	0.0745	1084365	keystroke_Key.enter	Key.enter	n/a
542.2625	7.6015	1084525	prompt	n/a	stayed pirates hook deutsch\n
542.873	0.1045	1085746	keystroke_s	s	n/a
543.203	0.075	1086406	keystroke_t	t	n/a
543.293	0.075	1086586	keystroke_a	a	n/a
543.413	0.0745	1086826	keystroke_y	y	n/a
543.5335	0.119	1087067	keystroke_e	e	n/a
543.6675	0.1505	1087335	keystroke_d	d	n/a
543.833	0.09	1087666	keystroke_Key.space	Key.space	n/a
544.628	0.1045	1089256	keystroke_p	p	n/a
544.853	0.0745	1089706	keystroke_i	i	n/a
545.1375	0.105	1090275	keystroke_r	r	n/a
545.318	0.1195	1090636	keystroke_a	a	n/a
545.4675	0.1655	1090935	keystroke_t	t	n/a
545.6175	0.1805	1091235	keystroke_e	e	n/a
545.8575	0.12	1091715	keystroke_d	d	n/a
546.3375	0.075	1092675	keystroke_Key.space	Key.space	n/a
546.5925	0.0745	1093185	keystroke_h	h	n/a
546.712	0.105	1093424	keystroke_o	o	n/a
546.893	0.104	1093786	keystroke_o	o	n/a
547.0575	0.075	1094115	keystroke_k	k	n/a
547.3125	0.09	1094625	keystroke_Key.space	Key.space	n/a
547.5525	0.15	1095105	keystroke_d	d	n/a
547.6875	0.105	1095375	keystroke_e	e	n/a
547.9875	0.09	1095975	keystroke_u	u	n/a
548.2125	0.06	1096425	keystroke_t	t	n/a
548.617	0.106	1097234	keystroke_s	s	n/a
548.843	0.105	1097686	keystroke_c	c	n/a
548.933	0.119	1097866	keystroke_h	h	n/a
549.7725	0.09	1099545	keystroke_Key.enter	Key.enter	n/a
549.868	7.451	1099736	prompt	n/a	boston cameroon pmid grown\n
550.748	0.0595	1101496	keystroke_o	o	n/a
551.1375	0.075	1102275	keystroke_Key.backspace	Key.backspace	n/a
551.2725	0.105	1102545	keystroke_Key.backspace	Key.backspace	n/a
551.6925	0.06	1103385	keystroke_b	b	n/a
551.812	0.1055	1103624	keystroke_o	o	n/a
551.873	0.089	1103746	keystroke_s	s	n/a
552.097	0.0905	1104194	keystroke_t	t	n/a
