onset	duration	sample	value	key	prompt_text
2.776	8.8	5552	prompt	n/a	the quick brown fox jumps over a lazy dog\n
4.4405	0.058	8881	keystroke_t	t	n/a
4.4685	0.075	8937	keystroke_h	h	n/a
4.5585	0.15	9117	keystroke_e	e	n/a
4.6785	0.1495	9357	keystroke_Key.space	Key.space	n/a
4.858	0.195	9716	keystroke_q	q	n/a
5.038	0.12	10076	keystroke_u	u	n/a
5.173	0.09	10346	keystroke_i	i	n/a
5.368	0.1355	10736	keystroke_c	c	n/a
5.5185	0.075	11037	keystroke_k	k	n/a
5.6235	0.118	11247	keystroke_Key.space	Key.space	n/a
5.7825	0.105	11565	keystroke_b	b	n/a
6.0225	0.09	12045	keystroke_r	r	n/a
6.0675	0.09	12135	keystroke_o	o	n/a
6.2335	0.12	12467	keystroke_w	w	n/a
6.3985	0.075	12797	keystroke_n	n	n/a
6.608	0.1205	13216	keystroke_Key.space	Key.space	n/a
6.8035	0.105	13607	keystroke_f	f	n/a
6.9235	0.09	13847	keystroke_o	o	n/a
7.0885	0.135	14177	keystroke_x	x	n/a
7.2385	0.105	14477	keystroke_Key.space	Key.space	n/a
7.3285	0.09	14657	keystroke_j	j	n/a
7.5085	0.06	15017	keystroke_u	u	n/a
7.6885	0.135	15377	keystroke_m	m	n/a
7.854	0.0895	15708	keystroke_p	p	n/a
7.973	0.121	15946	keystroke_s	s	n/a
8.094	0.1195	16188	keystroke_Key.space	Key.space	n/a
8.2135	0.12	16427	keystroke_o	o	n/a
8.3035	0.09	16607	keystroke_v	v	n/a
8.4985	0.12	16997	keystroke_e	e	n/a
8.5735	0.1495	17147	keystroke_r	r	n/a
8.7085	0.1195	17417	keystroke_Key.space	Key.space	n/a
8.768	0.165	17536	keystroke_a	a	n/a
8.888	0.135	17776	keystroke_Key.space	Key.space	n/a
9.2335	0.105	18467	keystroke_l	l	n/a
9.4435	0.0905	18887	keystroke_a	a	n/a
9.6685	0.105	19337	keystroke_z	z	n/a
9.8185	0.075	19637	keystroke_y	y	n/a
9.9685	0.12	19937	keystroke_Key.space	Key.space	n/a
10.8085	0.09	21617	keystroke_d	d	n/a
11.1835	0.09	22367	keystroke_o	o	n/a
11.304	0.074	22608	keystroke_g	g	n/a
11.5285	0.045	23057	keystroke_Key.enter	Key.enter	n/a
11.58	10.9455	23160	prompt	n/a	implementing tahoe scheduling programme\n
12.2635	0.06	24527	keystroke_i	i	n/a
12.4135	0.12	24827	keystroke_m	m	n/a
12.5935	0.12	25187	keystroke_p	p	n/a
12.8035	0.105	25607	keystroke_l	l	n/a
12.9535	0.105	25907	keystroke_e	e	n/a
13.2235	0.09	26447	keystroke_m	m	n/a
13.3285	0.105	26657	keystroke_e	e	n/a
13.4335	0.075	26867	keystroke_n	n	n/a
13.5385	0.0745	27077	keystroke_t	t	n/a
13.643	0.06	27286	keystroke_i	i	n/a
13.808	0.075	27616	keystroke_n	n	n/a
13.868	0.105	27736	keystroke_g	g	n/a
13.958	0.12	27916	keystroke_Key.space	Key.space	n/a
14.829	0.1045	29658	keystroke_t	t	n/a
14.9935	0.135	29987	keystroke_a	a	n/a
15.1735	0.075	30347	keystroke_h	h	n/a
15.3385	0.09	30677	keystroke_o	o	n/a
15.5635	0.105	31127	keystroke_e	e	n/a
15.7735	0.105	31547	keystroke_Key.space	Key.space	n/a
16.0135	0.09	32027	keystroke_s	s	n/a
16.8685	0.12	33737	keystroke_c	c	n/a
17.3635	0.06	34727	keystroke_h	h	n/a
17.5885	0.1055	35177	keystroke_e	e	n/a
17.8735	0.09	35747	keystroke_d	d	n/a
18.0085	0.075	36017	keystroke_u	u	n/a
18.1885	0.105	36377	keystroke_l	l	n/a
19.6735	0.06	39347	keystroke_i	i	n/a
19.8685	0.075	39737	keystroke_n	n	n/a
19.9285	0.1955	39857	keystroke_g	g	n/a
20.139	0.1495	40278	keystroke_Key.space	Key.space	n/a
20.6335	0.0905	41267	keystroke_p	p	n/a
20.739	0.105	41478	keystroke_r	r	n/a
20.859	0.0745	41718	keystroke_o	o	n/a
21.384	0.075	42768	keystroke_g	g	n/a
21.549	0.135	43098	keystroke_r	r	n/a
21.684	0.12	43368	keystroke_a	a	n/a
21.789	0.075	43578	keystroke_m	m	n/a
21.984	0.075	43968	keystroke_m	m	n/a
22.089	0.105	44178	keystroke_e	e	n/a
22.464	0.06	44928	keystroke_Key.enter	Key.enter	n/a
22.5285	12.087	45057	prompt	n/a	universities rhythm questions earnings\n
23.2135	0.0605	46427	keystroke_u	u	n/a
23.409	0.06	46818	keystroke_n	n	n/a
23.559	0.075	47118	keystroke_i	i	n/a
23.829	0.105	47658	keystroke_v	v	n/a
24.069	0.12	48138	keystroke_e	e	n/a
24.129	0.1195	48258	keystroke_r	r	n/a
24.3235	0.135	48647	keystroke_s	s	n/a
24.3985	0.075	48797	keystroke_i	i	n/a
24.5785	0.075	49157	keystroke_t	t	n/a
24.759	0.0895	49518	keystroke_i	i	n/a
25.1635	0.15	50327	keystroke_e	e	n/a
25.2985	0.135	50597	keystroke_s	s	n/a
25.4635	0.105	50927	keystroke_Key.space	Key.space	n/a
25.7185	0.105	51437	keystroke_r	r	n/a
26.379	0.06	52758	keystroke_h	h	n/a
27.009	0.089	54018	keystroke_y	y	n/a
27.5185	0.105	55037	keystroke_t	t	n/a
27.6385	0.06	55277	keystroke_h	h	n/a
28.0735	0.075	56147	keystroke_m	m	n/a
28.2535	0.09	56507	keystroke_Key.space	Key.space	n/a
28.8235	0.075	57647	keystroke_e	e	n/a
29.2285	0.045	58457	keystroke_\	\	n/a
29.3335	0.12	58667	keystroke_q	q	n/a
30.144	0.045	60288	keystroke_Key.backspace	Key.backspace	n/a
30.489	0.0595	60978	keystroke_Key.backspace	Key.backspace	n/a
30.7885	0.06	61577	keystroke_Key.backspace	Key.backspace	n/a
30.923	0.091	61846	keystroke_q	q	n/a
31.3885	0.09	62777	keystroke_u	u	n/a
31.4935	0.15	62987	keystroke_e	e	n/a
31.6285	0.15	63257	keystroke_s	s	n/a
31.7795	0.119	63559	keystroke_t	t	n/a
31.8685	0.21	63737	keystroke_i	i	n/a
31.9585	0.195	63917	keystroke_o	o	n/a
32.1085	0.136	64217	keystroke_n	n	n/a
32.1985	0.09	64397	keystroke_s	s	n/a
32.3035	0.105	64607	keystroke_Key.space	Key.space	n/a
32.7235	0.285	65447	keystroke_e	e	n/a
32.8735	0.12	65747	keystroke_a	a	n/a
32.9785	0.12	65957	keystroke_r	r	n/a
33.3835	0.06	66767	keystroke_n	n	n/a
33.5335	0.075	67067	keystroke_i	i	n/a
33.6985	0.105	67397	keystroke_n	n	n/a
33.7885	0.12	67577	keystroke_g	g	n/a
34.1935	0.06	68387	keystroke_s	s	n/a
34.5235	0.09	69047	keystroke_Key.enter	Key.enter	n/a
34.6195	5.126	69239	prompt	n/a	soft flush adopted farms\n
35.2735	0.09	70547	keystroke_s	s	n/a
35.3785	0.0905	70757	keystroke_o	o	n/a
35.484	0.09	70968	keystroke_f	f	n/a
35.679	0.12	71358	keystroke_t	t	n/a
35.829	0.165	71658	keystroke_Key.space	Key.space	n/a
36.099	0.1045	72198	keystroke_f	f	n/a
36.2185	0.105	72437	keystroke_l	l	n/a
36.3835	0.075	72767	keystroke_u	u	n/a
36.5335	0.09	73067	keystroke_s	s	n/a
36.6685	0.0755	73337	keystroke_h	h	n/a
36.849	0.12	73698	keystroke_Key.space	Key.space	n/a
37.269	0.1045	74538	keystroke_a	a	n/a
37.4035	0.12	74807	keystroke_d	d	n/a
37.8385	0.09	75677	keystroke_o	o	n/a
37.9735	0.09	75947	keystroke_p	p	n/a
38.139	0.075	76278	keystroke_t	t	n/a
38.334	0.075	76668	keystroke_e	e	n/a
38.529	0.105	77058	keystroke_d	d	n/a
38.604	0.135	77208	keystroke_Key.space	Key.space	n/a
38.784	0.1345	77568	keystroke_f	f	n/a
38.9935	0.135	77987	keystroke_a	a	n/a
39.1135	0.105	78227	keystroke_r	r	n/a
39.279	0.1045	78558	keystroke_m	m	n/a
39.504	0.09	79008	keystroke_s	s	n/a
39.699	0.045	79398	keystroke_Key.enter	Key.enter	n/a
39.7485	13.572	79497	prompt	n/a	birds webster peninsula numeric\n
40.389	0.09	80778	keystroke_b	b	n/a
40.838	0.0755	81676	keystroke_i	i	n/a
40.9285	0.105	81857	keystroke_r	r	n/a
41.1385	0.075	82277	keystroke_d	d	n/a
41.2885	0.12	82577	keystroke_s	s	n/a
41.4985	0.12	82997	keystroke_Key.space	Key.space	n/a
42.084	0.09	84168	keystroke_w	w	n/a
42.219	0.1055	84438	keystroke_e	e	n/a
42.804	0.045	85608	keystroke_b	b	n/a
42.864	0.045	85728	keystroke_s	s	n/a
42.984	0.105	85968	keystroke_t	t	n/a
43.164	0.12	86328	keystroke_e	e	n/a
43.239	0.135	86478	keystroke_r	r	n/a
43.389	0.15	86778	keystroke_Key.space	Key.space	n/a
43.659	0.09	87318	keystroke_p	p	n/a
43.824	0.1495	87648	keystroke_e	e	n/a
44.0335	0.075	88067	keystroke_n	n	n/a
49.1805	0.028	98361	keystroke_i	i	n/a
49.5235	0.105	99047	keystroke_n	n	n/a
49.9135	0.09	99827	keystroke_s	s	n/a
50.0635	0.075	100127	keystroke_u	u	n/a
50.2285	0.0905	100457	keystroke_l	l	n/a
50.424	0.12	100848	keystroke_a	a	n/a
50.859	0.12	101718	keystroke_Key.space	Key.space	n/a
51.354	0.075	102708	keystroke_n	n	n/a
51.714	0.075	103428	keystroke_u	u	n/a
51.969	0.075	103938	keystroke_m	m	n/a
52.569	0.15	105138	keystroke_e	e	n/a
52.659	0.135	105318	keystroke_r	r	n/a
52.839	0.09	105678	keystroke_i	i	n/a
53.019	0.12	106038	keystroke_c	c	n/a
53.259	0.06	106518	keystroke_Key.enter	Key.enter	n/a
53.324	7.032	106648	prompt	n/a	scheme they're annual delaware\n
53.904	0.105	107808	keystroke_s	s	n/a
54.084	0.135	108168	keystroke_c	c	n/a
54.189	0.075	108378	keystroke_h	h	n/a
54.384	0.09	108768	keystroke_e	e	n/a
54.534	0.06	109068	keystroke_m	m	n/a
54.639	0.105	109278	keystroke_e	e	n/a
54.909	0.12	109818	keystroke_Key.space	Key.space	n/a
55.299	0.075	110598	keystroke_t	t	n/a
55.389	0.09	110778	keystroke_h	h	n/a
55.509	0.075	111018	keystroke_e	e	n/a
56.169	0.06	112338	keystroke_y	y	n/a
56.829	0.06	113658	keystroke_'	'	n/a
56.949	0.12	113898	keystroke_r	r	n/a
57.024	0.135	114048	keystroke_e	e	n/a
57.189	0.165	114378	keystroke_Key.space	Key.space	n/a
57.459	0.135	114918	keystroke_a	a	n/a
57.609	0.045	115218	keystroke_n	n	n/a
57.714	0.075	115428	keystroke_n	n	n/a
57.909	0.09	115818	keystroke_u	u	n/a
58.059	0.12	116118	keystroke_a	a	n/a
58.164	0.105	116328	keystroke_l	l	n/a
58.3145	0.135	116629	keystroke_Key.space	Key.space	n/a
58.689	0.075	117378	keystroke_d	d	n/a
58.854	0.09	117708	keystroke_e	e	n/a
59.004	0.12	118008	keystroke_l	l	n/a
59.169	0.135	118338	keystroke_a	a	n/a
59.424	0.075	118848	keystroke_w	w	n/a
59.544	0.105	119088	keystroke_a	a	n/a
59.964	0.09	119928	keystroke_r	r	n/a
60.039	0.12	120078	keystroke_e	e	n/a
60.294	0.06	120588	keystroke_Key.enter	Key.enter	n/a
60.3595	13.136	120719	prompt	n/a	killer hunt everyone's glow\n
60.924	0.075	121848	keystroke_k	k	n/a
61.089	0.06	122178	keystroke_i	i	n/a
61.224	0.105	122448	keystroke_l	l	n/a
61.389	0.09	122778	keystroke_l	l	n/a
61.479	0.12	122958	keystroke_e	e	n/a
61.554	0.18	123108	keystroke_r	r	n/a
61.734	0.135	123468	keystroke_Key.space	Key.space	n/a
62.019	0.03	124038	keystroke_h	h	n/a
62.484	0.06	124968	keystroke_u	u	n/a
63.069	0.075	126138	keystroke_n	n	n/a
63.279	0.12	126558	keystroke_t	t	n/a
63.549	0.15	127098	keystroke_Key.space	Key.space	n/a
63.714	0.09	127428	keystroke_e	e	n/a
63.924	0.09	127848	keystroke_v	v	n/a
64.029	0.135	128058	keystroke_e	e	n/a
64.119	0.135	128238	keystroke_r	r	n/a
64.269	0.06	128538	keystroke_y	y	n/a
64.599	0.045	129198	keystroke_o	o	n/a
64.719	0.075	129438	keystroke_n	n	n/a
65.004	0.09	130008	keystroke_'	'	n/a
65.124	0.135	130248	keystroke_e	e	n/a
65.379	0.12	130758	keystroke_Key.space	Key.space	n/a
65.544	0.075	131088	keystroke_g	g	n/a
65.634	0.12	131268	keystroke_l	l	n/a
66.234	0.09	132468	keystroke_Key.backspace	Key.backspace	n/a
66.684	0.075	133368	keystroke_Key.backspace	Key.backspace	n/a
67.0285	0.06	134057	keystroke_Key.backspace	Key.backspace	n/a
67.4635	0.075	134927	keystroke_Key.backspace	Key.backspace	n/a
67.5985	0.105	135197	keystroke_s	s	n/a
67.7035	0.12	135407	keystroke_Key.space	Key.space	n/a
67.8835	0.09	135767	keystroke_g	g	n/a
68.0035	0.12	136007	keystroke_l	l	n/a
69.279	0.09	138558	keystroke_Key.backspace	Key.backspace	n/a
69.654	0.075	139308	keystroke_Key.backspace	Key.backspace	n/a
70.149	0.015	140298	keystroke_Key.backspace	Key.backspace	n/a
70.419	0.075	140838	keystroke_Key.backspace	Key.backspace	n/a
71.1985	0.015	142397	keystroke_Key.backspace	Key.backspace	n/a
71.2585	0.015	142517	keystroke_e	e	n/a
72.024	0.045	144048	keystroke_'	'	n/a
72.189	0.1045	144378	keystroke_s	s	n/a
72.3535	0.12	144707	keystroke_Key.space	Key.space	n/a
72.8485	0.06	145697	keystroke_g	g	n/a
72.9685	0.09	145937	keystroke_l	l	n/a
73.1185	0.105	146237	keystroke_o	o	n/a
73.1935	0.105	146387	keystroke_w	w	n/a
73.4335	0.06	146867	keystroke_Key.enter	Key.enter	n/a
73.5025	26.978	147005	prompt	n/a	guidelines structured nintendo needs\n
74.6485	0.075	149297	keystroke_g	g	n/a
74.799	0.0755	149598	keystroke_u	u	n/a
74.979	0.09	149958	keystroke_d	d	n/a
75.669	0.06	151338	keystroke_Key.backspace	Key.backspace	n/a
75.954	0.045	151908	keystroke_i	i	n/a
76.0595	0.12	152119	keystroke_d	d	n/a
76.809	0.09	153618	keystroke_l	l	n/a
76.989	0.06	153978	keystroke_i	i	n/a
77.154	0.075	154308	keystroke_n	n	n/a
77.244	0.165	154488	keystroke_e	e	n/a
77.379	0.1505	154758	keystroke_s	s	n/a
77.5435	0.15	155087	keystroke_Key.space	Key.space	n/a
77.7845	0.105	155569	keystroke_s	s	n/a
78.0395	0.059	156079	keystroke_t	t	n/a
78.6995	0.089	157399	keystroke_Key.backspace	Key.backspace	n/a
79.2685	0.015	158537	keystroke_Key.backspace	Key.backspace	n/a
79.6285	0.06	159257	keystroke_Key.backspace	Key.backspace	n/a
81.534	0.075	163068	keystroke_Key.backspace	Key.backspace	n/a
81.8795	0.06	163759	keystroke_Key.backspace	Key.backspace	n/a
82.2845	0.06	164569	keystroke_Key.backspace	Key.backspace	n/a
82.7045	0.06	165409	keystroke_Key.backspace	Key.backspace	n/a
83.259	0.105	166518	keystroke_e	e	n/a
83.784	0.075	167568	keystroke_Key.backspace	Key.backspace	n/a
84.054	0.075	168108	keystroke_Key.backspace	Key.backspace	n/a
84.189	0.09	168378	keystroke_e	e	n/a
84.354	0.09	168708	keystroke_l	l	n/a
84.5935	0.06	169187	keystroke_i	i	n/a
84.7735	0.076	169547	keystroke_n	n	n/a
84.9245	0.075	169849	keystroke_e	e	n/a
85.1045	0.15	170209	keystroke_s	s	n/a
85.2395	0.15	170479	keystroke_Key.space	Key.space	n/a
85.6445	0.105	171289	keystroke_s	s	n/a
85.8095	0.09	171619	keystroke_t	t	n/a
86.0045	0.09	172009	keystroke_r	r	n/a
86.1845	0.015	172369	keystroke_u	u	n/a
86.3195	0.12	172639	keystroke_c	c	n/a
86.5895	0.105	173179	keystroke_t	t	n/a
86.8145	0.06	173629	keystroke_u	u	n/a
86.8745	0.164	173749	keystroke_r	r	n/a
87.0095	0.12	174019	keystroke_e	e	n/a
87.249	0.12	174498	keystroke_d	d	n/a
87.384	0.12	174768	keystroke_Key.space	Key.space	n/a
87.6685	0.06	175337	keystroke_n	n	n/a
87.8785	0.045	175757	keystroke_i	i	n/a
88.3435	0.061	176687	keystroke_n	n	n/a
88.719	0.0895	177438	keystroke_t	t	n/a
88.8985	0.09	177797	keystroke_e	e	n/a
89.1385	0.076	178277	keystroke_d	d	n/a
90.924	0.06	181848	keystroke_Key.backspace	Key.backspace	n/a
91.239	0.06	182478	keystroke_n	n	n/a
91.479	0.09	182958	keystroke_d	d	n/a
91.629	0.09	183258	keystroke_o	o	n/a
91.779	0.135	183558	keystroke_Key.space	Key.space	n/a
92.184	0.06	184368	keystroke_n	n	n/a
92.679	0.09	185358	keystroke_Key.backspace	Key.backspace	n/a
97.4365	0.088	194873	keystroke_Key.space	Key.space	n/a
98.2895	0.06	196579	keystroke_Key.backspace	Key.backspace	n/a
98.7095	0.09	197419	keystroke_Key.backspace	Key.backspace	n/a
99.0845	0.12	198169	keystroke_Key.space	Key.space	n/a
99.3695	0.075	198739	keystroke_n	n	n/a
99.5495	0.06	199099	keystroke_e	e	n/a
99.684	0.06	199368	keystroke_e	e	n/a
99.879	0.075	199758	keystroke_d	d	n/a
100.179	0.105	200358	keystroke_s	s	n/a
100.434	0.045	200868	keystroke_Key.enter	Key.enter	n/a
100.4835	8.6525	200967	prompt	n/a	flame lecture relation lover\n
101.139	0.15	202278	keystroke_f	f	n/a
101.304	0.135	202608	keystroke_a	a	n/a
101.394	0.09	202788	keystroke_l	l	n/a
101.544	0.135	203088	keystroke_m	m	n/a
101.649	0.105	203298	keystroke_e	e	n/a
102.354	0.09	204708	keystroke_Key.backspace	Key.backspace	n/a
102.6095	0.075	205219	keystroke_Key.backspace	Key.backspace	n/a
102.9995	0.06	205999	keystroke_Key.backspace	Key.backspace	n/a
103.2245	0.075	206449	keystroke_Key.backspace	Key.backspace	n/a
103.5995	0.135	207199	keystroke_a	a	n/a
104.1095	0.06	208219	keystroke_Key.backspace	Key.backspace	n/a
104.6045	0.075	209209	keystroke_l	l	n/a
104.7095	0.105	209419	keystroke_a	a	n/a
104.8145	0.09	209629	keystroke_m	m	n/a
104.9795	0.09	209959	keystroke_e	e	n/a
105.2195	0.135	210439	keystroke_Key.space	Key.space	n/a
105.6245	0.105	211249	keystroke_l	l	n/a
105.7745	0.12	211549	keystroke_e	e	n/a
106.0145	0.105	212029	keystroke_c	c	n/a
106.2695	0.105	212539	keystroke_t	t	n/a
106.3895	0.09	212779	keystroke_u	u	n/a
106.5095	0.165	213019	keystroke_r	r	n/a
106.6295	0.12	213259	keystroke_e	e	n/a
106.9145	0.15	213829	keystroke_Key.space	Key.space	n/a
107.2295	0.135	214459	keystroke_r	r	n/a
107.3495	0.075	214699	keystroke_e	e	n/a
107.4395	0.0755	214879	keystroke_l	l	n/a
107.529	0.135	215058	keystroke_a	a	n/a
107.649	0.105	215298	keystroke_t	t	n/a
107.755	0.224	215510	keystroke_i	i	n/a
107.889	0.15	215778	keystroke_o	o	n/a
108.024	0.135	216048	keystroke_n	n	n/a
108.144	0.12	216288	keystroke_Key.space	Key.space	n/a
108.354	0.06	216708	keystroke_l	l	n/a
108.519	0.09	217038	keystroke_o	o	n/a
108.564	0.106	217128	keystroke_v	v	n/a
108.759	0.12	217518	keystroke_e	e	n/a
108.819	0.12	217638	keystroke_r	r	n/a
109.0745	0.0595	218149	keystroke_Key.enter	Key.enter	n/a
109.139	10.767	218278	prompt	n/a	which uncertainty months prices\n
109.824	0.06	219648	keystroke_w	w	n/a
109.899	0.075	219798	keystroke_h	h	n/a
110.004	0.105	220008	keystroke_i	i	n/a
110.124	0.135	220248	keystroke_c	c	n/a
110.274	0.075	220548	keystroke_h	h	n/a
110.319	0.105	220638	keystroke_Key.space	Key.space	n/a
110.484	0.075	220968	keystroke_u	u	n/a
110.679	0.075	221358	keystroke_n	n	n/a
110.919	0.135	221838	keystroke_c	c	n/a
111.114	0.12	222228	keystroke_e	e	n/a
111.189	0.12	222378	keystroke_r	r	n/a
111.399	0.105	222798	keystroke_t	t	n/a
111.519	0.15	223038	keystroke_a	a	n/a
111.624	0.075	223248	keystroke_i	i	n/a
111.759	0.075	223518	keystroke_n	n	n/a
111.894	0.105	223788	keystroke_l	l	n/a
112.119	0.075	224238	keystroke_y	y	n/a
112.254	0.105	224508	keystroke_Key.space	Key.space	n/a
112.464	0.075	224928	keystroke_m	m	n/a
112.599	0.075	225198	keystroke_o	o	n/a
112.9445	0.075	225889	keystroke_t	t	n/a
113.0795	0.09	226159	keystroke_h	h	n/a
113.7545	0.075	227509	keystroke_Key.backspace	Key.backspace	n/a
114.0995	0.06	228199	keystroke_Key.backspace	Key.backspace	n/a
114.3845	0.075	228769	keystroke_n	n	n/a
114.6845	0.105	229369	keystroke_t	t	n/a
114.7745	0.09	229549	keystroke_h	h	n/a
114.9245	0.135	229849	keystroke_s	s	n/a
115.0445	0.135	230089	keystroke_Key.space	Key.space	n/a
115.2095	0.105	230419	keystroke_p	p	n/a
115.4495	0.105	230899	keystroke_e	e	n/a
115.5095	0.105	231019	keystroke_r	r	n/a
115.6295	0.09	231259	keystroke_i	i	n/a
115.7945	0.165	231589	keystroke_c	c	n/a
115.9145	0.18	231829	keystroke_e	e	n/a
116.0795	0.09	232159	keystroke_s	s	n/a
116.6045	0.06	233209	keystroke_Key.backspace	Key.backspace	n/a
117.009	0.045	234018	keystroke_Key.backspace	Key.backspace	n/a
117.414	0.06	234828	keystroke_Key.backspace	Key.backspace	n/a
117.894	0.015	235788	keystroke_Key.backspace	Key.backspace	n/a
118.3145	0.075	236629	keystroke_Key.backspace	Key.backspace	n/a
118.749	0.06	237498	keystroke_Key.backspace	Key.backspace	n/a
118.929	0.09	237858	keystroke_r	r	n/a
119.1395	0.075	238279	keystroke_i	i	n/a
119.3045	0.18	238609	keystroke_c	c	n/a
119.4695	0.15	238939	keystroke_e	e	n/a
119.5895	0.105	239179	keystroke_s	s	n/a
119.8445	0.06	239689	keystroke_Key.enter	Key.enter	n/a
119.9085	4.872	239817	prompt	n/a	marsh cartoon through info\n
120.5945	0.075	241189	keystroke_m	m	n/a
120.6845	0.105	241369	keystroke_a	a	n/a
120.7745	0.075	241549	keystroke_r	r	n/a
121.1345	0.105	242269	keystroke_s	s	n/a
121.299	0.075	242598	keystroke_h	h	n/a
121.419	0.12	242838	keystroke_Key.space	Key.space	n/a
121.734	0.1205	243468	keystroke_c	c	n/a
121.8395	0.165	243679	keystroke_a	a	n/a
122.0495	0.09	244099	keystroke_r	r	n/a
122.2295	0.105	244459	keystroke_t	t	n/a
122.4095	0.105	244819	keystroke_o	o	n/a
122.649	0.0605	245298	keystroke_o	o	n/a
122.784	0.09	245568	keystroke_n	n	n/a
122.92	0.1495	245840	keystroke_Key.space	Key.space	n/a
123.1895	0.075	246379	keystroke_t	t	n/a
123.2795	0.075	246559	keystroke_h	h	n/a
123.3995	0.105	246799	keystroke_r	r	n/a
123.4895	0.135	246979	keystroke_o	o	n/a
123.5945	0.09	247189	keystroke_u	u	n/a
123.7295	0.105	247459	keystroke_g	g	n/a
123.8495	0.075	247699	keystroke_h	h	n/a
124.0145	0.09	248029	keystroke_Key.space	Key.space	n/a
124.1195	0.09	248239	keystroke_i	i	n/a
124.2995	0.075	248599	keystroke_n	n	n/a
124.3445	0.105	248689	keystroke_f	f	n/a
124.4795	0.09	248959	keystroke_o	o	n/a
124.7195	0.0595	249439	keystroke_Key.enter	Key.enter	n/a
124.784	7.347	249568	prompt	n/a	mens feels individuals arctic\n
125.304	0.105	250608	keystroke_m	m	n/a
125.454	0.075	250908	keystroke_e	e	n/a
125.544	0.075	251088	keystroke_n	n	n/a
125.709	0.105	251418	keystroke_s	s	n/a
125.829	0.135	251658	keystroke_Key.space	Key.space	n/a
125.949	0.09	251898	keystroke_f	f	n/a
126.1	0.074	252200	keystroke_e	e	n/a
126.534	0.09	253068	keystroke_e	e	n/a
126.7595	0.09	253519	keystroke_l	l	n/a
126.8645	0.135	253729	keystroke_s	s	n/a
127.0145	0.165	254029	keystroke_Key.space	Key.space	n/a
127.7645	0.075	255529	keystroke_i	i	n/a
127.9895	0.06	255979	keystroke_n	n	n/a
128.1695	0.12	256339	keystroke_d	d	n/a
128.3645	0.075	256729	keystroke_i	i	n/a
128.7845	0.075	257569	keystroke_v	v	n/a
128.9195	0.09	257839	keystroke_i	i	n/a
129.0395	0.12	258079	keystroke_d	d	n/a
129.3995	0.045	258799	keystroke_u	u	n/a
129.9995	0.075	259999	keystroke_a	a	n/a
130.1635	0.1055	260327	keystroke_l	l	n/a
130.2845	0.1055	260569	keystroke_s	s	n/a
130.404	0.151	260808	keystroke_Key.space	Key.space	n/a
130.5235	0.166	261047	keystroke_a	a	n/a
131.034	0.105	262068	keystroke_r	r	n/a
131.304	0.12	262608	keystroke_c	c	n/a
131.574	0.09	263148	keystroke_t	t	n/a
131.694	0.075	263388	keystroke_i	i	n/a
131.8745	0.09	263749	keystroke_c	c	n/a
132.0545	0.075	264109	keystroke_Key.enter	Key.enter	n/a
132.134	9.552	264268	prompt	n/a	headset synthesis presence essentials\n
132.864	0.09	265728	keystroke_h	h	n/a
132.999	0.12	265998	keystroke_e	e	n/a
133.105	0.149	266210	keystroke_a	a	n/a
133.269	0.105	266538	keystroke_d	d	n/a
133.629	0.09	267258	keystroke_s	s	n/a
133.884	0.12	267768	keystroke_e	e	n/a
134.079	0.15	268158	keystroke_t	t	n/a
134.274	0.15	268548	keystroke_Key.space	Key.space	n/a
134.499	0.09	268998	keystroke_s	s	n/a
134.709	0.06	269418	keystroke_y	y	n/a
135.384	0.06	270768	keystroke_n	n	n/a
135.864	0.105	271728	keystroke_t	t	n/a
135.984	0.06	271968	keystroke_h	h	n/a
136.119	0.2405	272238	keystroke_e	e	n/a
136.3145	0.15	272629	keystroke_s	s	n/a
136.899	0.061	273798	keystroke_i	i	n/a
137.035	0.134	274070	keystroke_s	s	n/a
137.259	0.136	274518	keystroke_Key.space	Key.space	n/a
137.545	0.0895	275090	keystroke_p	p	n/a
137.7245	0.15	275449	keystroke_r	r	n/a
137.8295	0.12	275659	keystroke_e	e	n/a
138.0845	0.165	276169	keystroke_s	s	n/a
138.1745	0.15	276349	keystroke_e	e	n/a
138.3395	0.075	276679	keystroke_n	n	n/a
138.5045	0.225	277009	keystroke_c	c	n/a
138.6695	0.165	277339	keystroke_e	e	n/a
138.8495	0.15	277699	keystroke_Key.space	Key.space	n/a
139.344	0.045	278688	keystroke_e	e	n/a
139.479	0.09	278958	keystroke_s	s	n/a
139.644	0.09	279288	keystroke_s	s	n/a
139.899	0.135	279798	keystroke_e	e	n/a
140.064	0.09	280128	keystroke_n	n	n/a
140.229	0.12	280458	keystroke_t	t	n/a
140.334	0.075	280668	keystroke_i	i	n/a
140.484	0.12	280968	keystroke_a	a	n/a
140.589	0.12	281178	keystroke_l	l	n/a
140.769	0.105	281538	keystroke_s	s	n/a
141.609	0.075	283218	keystroke_Key.enter	Key.enter	n/a
141.6885	5.5325	283377	prompt	n/a	network albania resident sold\n
142.4345	0.105	284869	keystroke_n	n	n/a
142.5245	0.105	285049	keystroke_e	e	n/a
142.689	0.105	285378	keystroke_t	t	n/a
142.839	0.135	285678	keystroke_w	w	n/a
142.989	0.105	285978	keystroke_o	o	n/a
143.049	0.12	286098	keystroke_r	r	n/a
143.214	0.09	286428	keystroke_k	k	n/a
143.379	0.135	286758	keystroke_Key.space	Key.space	n/a
143.529	0.12	287058	keystroke_a	a	n/a
143.634	0.105	287268	keystroke_l	l	n/a
143.964	0.09	287928	keystroke_b	b	n/a
144.129	0.105	288258	keystroke_a	a	n/a
144.324	0.06	288648	keystroke_n	n	n/a
144.549	0.06	289098	keystroke_i	i	n/a
144.684	0.1355	289368	keystroke_a	a	n/a
144.8345	0.15	289669	keystroke_Key.space	Key.space	n/a
145.1495	0.15	290299	keystroke_r	r	n/a
145.2545	0.12	290509	keystroke_e	e	n/a
145.4795	0.09	290959	keystroke_s	s	n/a
145.5395	0.075	291079	keystroke_i	i	n/a
145.6295	0.09	291259	keystroke_d	d	n/a
145.7795	0.12	291559	keystroke_e	e	n/a
145.9145	0.06	291829	keystroke_n	n	n/a
146.0195	0.18	292039	keystroke_t	t	n/a
146.1845	0.165	292369	keystroke_Key.space	Key.space	n/a
146.5145	0.12	293029	keystroke_s	s	n/a
146.6195	0.075	293239	keystroke_o	o	n/a
146.829	0.09	293658	keystroke_l	l	n/a
146.904	0.09	293808	keystroke_d	d	n/a
147.144	0.075	294288	keystroke_Key.enter	Key.enter	n/a
147.224	6.6865	294448	prompt	n/a	panama copying interact attorneys\n
147.9245	0.105	295849	keystroke_p	p	n/a
148.1195	0.105	296239	keystroke_a	a	n/a
148.2545	0.075	296509	keystroke_n	n	n/a
148.6295	0.09	297259	keystroke_a	a	n/a
148.7795	0.075	297559	keystroke_m	m	n/a
148.8995	0.12	297799	keystroke_a	a	n/a
149.0795	0.165	298159	keystroke_Key.space	Key.space	n/a
149.6345	0.09	299269	keystroke_c	c	n/a
149.7545	0.09	299509	keystroke_o	o	n/a
149.9045	0.105	299809	keystroke_p	p	n/a
150.1295	0.045	300259	keystroke_y	y	n/a
150.2795	0.075	300559	keystroke_i	i	n/a
150.4745	0.06	300949	keystroke_n	n	n/a
150.5345	0.18	301069	keystroke_g	g	n/a
150.6995	0.15	301399	keystroke_Key.space	Key.space	n/a
150.9095	0.06	301819	keystroke_i	i	n/a
151.0895	0.06	302179	keystroke_n	n	n/a
151.1195	0.12	302239	keystroke_t	t	n/a
151.2545	0.165	302509	keystroke_e	e	n/a
151.3745	0.135	302749	keystroke_r	r	n/a
151.7495	0.135	303499	keystroke_a	a	n/a
151.9295	0.12	303859	keystroke_c	c	n/a
152.1695	0.15	304339	keystroke_t	t	n/a
152.3205	0.149	304641	keystroke_Key.space	Key.space	n/a
152.4395	0.15	304879	keystroke_a	a	n/a
152.6345	0.075	305269	keystroke_t	t	n/a
152.7845	0.075	305569	keystroke_t	t	n/a
152.9195	0.105	305839	keystroke_o	o	n/a
153.0095	0.12	306019	keystroke_r	r	n/a
153.1595	0.075	306319	keystroke_n	n	n/a
153.2345	0.12	306469	keystroke_e	e	n/a
153.4745	0.075	306949	keystroke_y	y	n/a
153.6545	0.075	307309	keystroke_s	s	n/a
153.8645	0.045	307729	keystroke_Key.enter	Key.enter	n/a
153.9155	15.266	307831	prompt	n/a	sharp integer accuracy aggressive\n
154.554	0.165	309108	keystroke_s	s	n/a
154.734	0.015	309468	keystroke_h	h	n/a
154.779	0.135	309558	keystroke_a	a	n/a
154.899	0.105	309798	keystroke_r	r	n/a
155.124	0.075	310248	keystroke_p	p	n/a
155.274	0.135	310548	keystroke_Key.space	Key.space	n/a
155.574	0.06	311148	keystroke_i	i	n/a
155.7545	0.075	311509	keystroke_n	n	n/a
155.874	0.135	311748	keystroke_t	t	n/a
156.684	0.0905	313368	keystroke_e	e	n/a
156.9395	0.075	313879	keystroke_g	g	n/a
157.2095	0.18	314419	keystroke_a	a	n/a
157.9295	0.06	315859	keystroke_Key.backspace	Key.backspace	n/a
158.0495	0.135	316099	keystroke_e	e	n/a
158.1995	0.0895	316399	keystroke_r	r	n/a
158.514	0.12	317028	keystroke_Key.space	Key.space	n/a
158.875	0.135	317750	keystroke_a	a	n/a
159.219	0.091	318438	keystroke_c	c	n/a
159.489	0.075	318978	keystroke_u	u	n/a
159.609	0.105	319218	keystroke_r	r	n/a
159.789	0.12	319578	keystroke_a	a	n/a
159.924	0.12	319848	keystroke_c	c	n/a
160.314	0.06	320628	keystroke_y	y	n/a
160.494	0.135	320988	keystroke_Key.space	Key.space	n/a
160.809	0.1205	321618	keystroke_a	a	n/a
161.4995	0.09	322999	keystroke_Key.backspace	Key.backspace	n/a
162.2795	0.09	324559	keystroke_Key.backspace	Key.backspace	n/a
162.835	0.104	325670	keystroke_Key.backspace	Key.backspace	n/a
163.389	0.06	326778	keystroke_Key.backspace	Key.backspace	n/a
163.809	0.075	327618	keystroke_Key.backspace	Key.backspace	n/a
164.214	0.075	328428	keystroke_Key.backspace	Key.backspace	n/a
164.604	0.045	329208	keystroke_Key.backspace	Key.backspace	n/a
164.7395	0.12	329479	keystroke_c	c	n/a
165.0095	0.06	330019	keystroke_u	u	n/a
165.1895	0.075	330379	keystroke_r	r	n/a
165.4145	0.135	330829	keystroke_a	a	n/a
166.6595	0.105	333319	keystroke_c	c	n/a
166.8995	0.075	333799	keystroke_y	y	n/a
167.0345	0.15	334069	keystroke_Key.space	Key.space	n/a
167.4995	0.105	334999	keystroke_a	a	n/a
167.6495	0.075	335299	keystroke_g	g	n/a
167.799	0.075	335598	keystroke_g	g	n/a
167.994	0.136	335988	keystroke_r	r	n/a
168.069	0.151	336138	keystroke_e	e	n/a
168.265	0.105	336530	keystroke_s	s	n/a
168.43	0.09	336860	keystroke_s	s	n/a
168.535	0.105	337070	keystroke_i	i	n/a
168.655	0.165	337310	keystroke_v	v	n/a
168.865	0.1195	337730	keystroke_e	e	n/a
169.1045	0.075	338209	keystroke_Key.enter	Key.enter	n/a
169.186	6.61	338372	prompt	n/a	architects whereas rotary grams\n
169.7645	0.12	339529	keystroke_a	a	n/a
169.9745	0.075	339949	keystroke_r	r	n/a
170.215	0.12	340430	keystroke_c	c	n/a
170.32	0.075	340640	keystroke_h	h	n/a
170.485	0.075	340970	keystroke_i	i	n/a
170.65	0.075	341300	keystroke_t	t	n/a
170.8145	0.1055	341629	keystroke_e	e	n/a
171.04	0.089	342080	keystroke_c	c	n/a
171.28	0.104	342560	keystroke_t	t	n/a
171.474	0.136	342948	keystroke_s	s	n/a
171.594	0.1505	343188	keystroke_Key.space	Key.space	n/a
171.7745	0.075	343549	keystroke_w	w	n/a
171.8795	0.09	343759	keystroke_h	h	n/a
172.0145	0.12	344029	keystroke_e	e	n/a
172.1195	0.1345	344239	keystroke_r	r	n/a
172.2095	0.1505	344419	keystroke_e	e	n/a
172.5095	0.21	345019	keystroke_a	a	n/a
172.7045	0.1655	345409	keystroke_s	s	n/a
172.9	0.135	345800	keystroke_Key.space	Key.space	n/a
173.4545	0.105	346909	keystroke_r	r	n/a
173.6195	0.12	347239	keystroke_o	o	n/a
173.7695	0.09	347539	keystroke_t	t	n/a
173.965	0.135	347930	keystroke_a	a	n/a
174.115	0.105	348230	keystroke_r	r	n/a
174.31	0.09	348620	keystroke_y	y	n/a
174.475	0.105	348950	keystroke_Key.space	Key.space	n/a
174.984	0.075	349968	keystroke_g	g	n/a
175.149	0.105	350298	keystroke_r	r	n/a
175.284	0.105	350568	keystroke_a	a	n/a
175.404	0.075	350808	keystroke_m	m	n/a
175.539	0.105	351078	keystroke_s	s	n/a
175.735	0.059	351470	keystroke_Key.enter	Key.enter	n/a
175.7995	5.337	351599	prompt	n/a	pointing tech secured works\n
176.44	0.06	352880	keystroke_p	p	n/a
176.635	0.06	353270	keystroke_o	o	n/a
177.2345	0.06	354469	keystroke_i	i	n/a
177.4295	0.09	354859	keystroke_n	n	n/a
177.5645	0.09	355129	keystroke_t	t	n/a
177.6695	0.09	355339	keystroke_i	i	n/a
177.8645	0.09	355729	keystroke_n	n	n/a
177.9095	0.195	355819	keystroke_g	g	n/a
178.1195	0.15	356239	keystroke_Key.space	Key.space	n/a
178.4195	0.105	356839	keystroke_t	t	n/a
178.5695	0.09	357139	keystroke_e	e	n/a
178.78	0.105	357560	keystroke_c	c	n/a
178.93	0.075	357860	keystroke_h	h	n/a
179.035	0.12	358070	keystroke_Key.space	Key.space	n/a
179.26	0.12	358520	keystroke_s	s	n/a
179.395	0.075	358790	keystroke_e	e	n/a
179.59	0.09	359180	keystroke_c	c	n/a
179.755	0.075	359510	keystroke_u	u	n/a
179.815	0.15	359630	keystroke_r	r	n/a
179.95	0.105	359900	keystroke_e	e	n/a
180.159	0.121	360318	keystroke_d	d	n/a
180.264	0.136	360528	keystroke_Key.space	Key.space	n/a
180.415	0.09	360830	keystroke_w	w	n/a
180.475	0.105	360950	keystroke_o	o	n/a
180.61	0.12	361220	keystroke_r	r	n/a
180.715	0.105	361430	keystroke_k	k	n/a
180.91	0.105	361820	keystroke_s	s	n/a
181.075	0.06	362150	keystroke_Key.enter	Key.enter	n/a
181.1405	6.821	362281	prompt	n/a	valley clone cleaners owen\n
181.8245	0.15	363649	keystroke_v	v	n/a
182.2445	0.12	364489	keystroke_a	a	n/a
182.3945	0.09	364789	keystroke_l	l	n/a
182.5445	0.0895	365089	keystroke_l	l	n/a
182.904	0.105	365808	keystroke_e	e	n/a
183.099	0.075	366198	keystroke_y	y	n/a
183.279	0.105	366558	keystroke_Key.space	Key.space	n/a
183.654	0.12	367308	keystroke_c	c	n/a
183.775	0.074	367550	keystroke_l	l	n/a
183.954	0.105	367908	keystroke_o	o	n/a
184.1345	0.1045	368269	keystroke_n	n	n/a
184.224	0.12	368448	keystroke_e	e	n/a
184.345	0.134	368690	keystroke_Key.space	Key.space	n/a
184.674	0.1205	369348	keystroke_c	c	n/a
184.8245	0.105	369649	keystroke_l	l	n/a
185.4545	0.075	370909	keystroke_e	e	n/a
185.4845	0.12	370969	keystroke_a	a	n/a
186.145	0.06	372290	keystroke_n	n	n/a
186.265	0.135	372530	keystroke_e	e	n/a
186.34	0.12	372680	keystroke_r	r	n/a
186.58	0.105	373160	keystroke_s	s	n/a
186.655	0.165	373310	keystroke_Key.space	Key.space	n/a
186.85	0.105	373700	keystroke_o	o	n/a
186.97	0.09	373940	keystroke_w	w	n/a
187.555	0.075	375110	keystroke_e	e	n/a
187.69	0.075	375380	keystroke_n	n	n/a
187.915	0.045	375830	keystroke_Key.enter	Key.enter	n/a
187.9645	7.7815	375929	prompt	n/a	tourism subsidiary lime twisted\n
188.7545	0.075	377509	keystroke_t	t	n/a
188.8595	0.12	377719	keystroke_o	o	n/a
188.9945	0.105	377989	keystroke_u	u	n/a
189.1145	0.045	378229	keystroke_r	r	n/a
189.2345	0.09	378469	keystroke_i	i	n/a
189.3695	0.105	378739	keystroke_s	s	n/a
189.5795	0.075	379159	keystroke_m	m	n/a
189.7145	0.09	379429	keystroke_Key.space	Key.space	n/a
190.1195	0.105	380239	keystroke_s	s	n/a
190.2845	0.06	380569	keystroke_u	u	n/a
190.4345	0.09	380869	keystroke_b	b	n/a
190.8695	0.075	381739	keystroke_s	s	n/a
190.9745	0.075	381949	keystroke_i	i	n/a
191.0945	0.09	382189	keystroke_d	d	n/a
191.4695	0.09	382939	keystroke_i	i	n/a
191.7845	0.165	383569	keystroke_a	a	n/a
191.9345	0.12	383869	keystroke_r	r	n/a
192.175	0.075	384350	keystroke_y	y	n/a
192.355	0.105	384710	keystroke_Key.space	Key.space	n/a
192.625	0.045	385250	keystroke_i	i	n/a
193.0145	0.06	386029	keystroke_Key.backspace	Key.backspace	n/a
193.2845	0.105	386569	keystroke_l	l	n/a
193.4795	0.06	386959	keystroke_i	i	n/a
193.6745	0.06	387349	keystroke_m	m	n/a
193.8245	0.09	387649	keystroke_e	e	n/a
194.1245	0.105	388249	keystroke_Key.space	Key.space	n/a
194.5295	0.06	389059	keystroke_t	t	n/a
194.6645	0.12	389329	keystroke_w	w	n/a
194.9045	0.075	389809	keystroke_i	i	n/a
195.0395	0.12	390079	keystroke_s	s	n/a
195.2045	0.135	390409	keystroke_t	t	n/a
195.3245	0.09	390649	keystroke_e	e	n/a
195.5195	0.075	391039	keystroke_d	d	n/a
195.6845	0.06	391369	keystroke_Key.enter	Key.enter	n/a
195.749	10.242	391498	prompt	n/a	howard think exclusion exterior\n
196.3895	0.075	392779	keystroke_h	h	n/a
196.5245	0.1355	393049	keystroke_a	a	n/a
197.605	0.06	395210	keystroke_Key.backspace	Key.backspace	n/a
197.89	0.075	395780	keystroke_o	o	n/a
198.04	0.105	396080	keystroke_w	w	n/a
198.175	0.18	396350	keystroke_a	a	n/a
198.324	0.1205	396648	keystroke_r	r	n/a
199.1945	0.09	398389	keystroke_d	d	n/a
199.3445	0.165	398689	keystroke_Key.space	Key.space	n/a
200.6045	0.105	401209	keystroke_t	t	n/a
200.755	0.105	401510	keystroke_h	h	n/a
200.905	0.135	401810	keystroke_i	i	n/a
201.4145	0.105	402829	keystroke_n	n	n/a
201.5355	0.074	403071	keystroke_k	k	n/a
201.7295	0.09	403459	keystroke_Key.space	Key.space	n/a
201.9545	0.075	403909	keystroke_e	e	n/a
202.1495	0.09	404299	keystroke_x	x	n/a
202.3745	0.09	404749	keystroke_c	c	n/a
202.4795	0.105	404959	keystroke_l	l	n/a
202.6745	0.075	405349	keystroke_u	u	n/a
202.7945	0.12	405589	keystroke_s	s	n/a
202.8995	0.1955	405799	keystroke_i	i	n/a
203.0345	0.1655	406069	keystroke_o	o	n/a
203.23	0.09	406460	keystroke_n	n	n/a
203.424	0.121	406848	keystroke_Key.space	Key.space	n/a
204.04	0.1345	408080	keystroke_e	e	n/a
204.3245	0.09	408649	keystroke_x	x	n/a
204.5795	0.09	409159	keystroke_t	t	n/a
204.7295	0.3	409459	keystroke_e	e	n/a
205.0595	0.12	410119	keystroke_r	r	n/a
205.4045	0.09	410809	keystroke_i	i	n/a
205.5845	0.12	411169	keystroke_o	o	n/a
205.7345	0.09	411469	keystroke_r	r	n/a
205.9295	0.06	411859	keystroke_Key.enter	Key.enter	n/a
205.994	7.707	411988	prompt	n/a	write model evaluate professor\n
206.6345	0.1055	413269	keystroke_w	w	n/a
206.77	0.135	413540	keystroke_r	r	n/a
206.875	0.09	413750	keystroke_i	i	n/a
207.01	0.12	414020	keystroke_t	t	n/a
207.1	0.165	414200	keystroke_e	e	n/a
207.235	0.12	414470	keystroke_Key.space	Key.space	n/a
207.49	0.075	414980	keystroke_m	m	n/a
207.64	0.075	415280	keystroke_o	o	n/a
207.67	0.105	415340	keystroke_d	d	n/a
207.85	0.105	415700	keystroke_e	e	n/a
207.94	0.09	415880	keystroke_l	l	n/a
208.03	0.165	416060	keystroke_Key.space	Key.space	n/a
208.18	0.12	416360	keystroke_e	e	n/a
208.6145	0.121	417229	keystroke_v	v	n/a
209.2595	0.105	418519	keystroke_a	a	n/a
209.4095	0.12	418819	keystroke_l	l	n/a
209.7095	0.06	419419	keystroke_u	u	n/a
210.0845	0.18	420169	keystroke_a	a	n/a
210.2195	0.15	420439	keystroke_t	t	n/a
210.3395	0.12	420679	keystroke_e	e	n/a
210.5945	0.135	421189	keystroke_Key.space	Key.space	n/a
210.8945	0.075	421789	keystroke_p	p	n/a
210.9995	0.105	421999	keystroke_r	r	n/a
211.1195	0.105	422239	keystroke_o	o	n/a
211.33	0.12	422660	keystroke_f	f	n/a
211.51	0.105	423020	keystroke_e	e	n/a
211.72	0.105	423440	keystroke_s	s	n/a
211.975	0.075	423950	keystroke_o	o	n/a
212.065	0.06	424130	keystroke_r	r	n/a
212.574	0.0605	425148	keystroke_Key.backspace	Key.backspace	n/a
213.01	0.06	426020	keystroke_Key.backspace	Key.backspace	n/a
213.175	0.075	426350	keystroke_s	s	n/a
213.34	0.075	426680	keystroke_o	o	n/a
213.445	0.09	426890	keystroke_r	r	n/a
213.655	0.045	427310	keystroke_Key.enter	Key.enter	n/a
213.7045	10.3015	427409	prompt	n/a	theorem naples happiness approximate\n
214.465	0.06	428930	keystroke_t	t	n/a
214.54	0.075	429080	keystroke_h	h	n/a
214.99	0.09	429980	keystroke_e	e	n/a
215.29	0.0745	430580	keystroke_o	o	n/a
215.635	0.0745	431270	keystroke_r	r	n/a
215.905	0.09	431810	keystroke_e	e	n/a
216.0845	0.105	432169	keystroke_m	m	n/a
216.2495	0.12	432499	keystroke_Key.space	Key.space	n/a
217.42	0.075	434840	keystroke_n	n	n/a
217.525	0.105	435050	keystroke_a	a	n/a
217.69	0.105	435380	keystroke_p	p	n/a
217.9	0.15	435800	keystroke_l	l	n/a
218.035	0.15	436070	keystroke_e	e	n/a
218.23	0.135	436460	keystroke_s	s	n/a
218.38	0.165	436760	keystroke_Key.space	Key.space	n/a
218.785	0.105	437570	keystroke_h	h	n/a
219.265	0.09	438530	keystroke_a	a	n/a
219.4745	0.06	438949	keystroke_p	p	n/a
219.6245	0.09	439249	keystroke_p	p	n/a
220.6145	0.06	441229	keystroke_i	i	n/a
220.7795	0.105	441559	keystroke_n	n	n/a
220.8695	0.21	441739	keystroke_e	e	n/a
221.0345	0.12	442069	keystroke_s	s	n/a
221.2295	0.12	442459	keystroke_s	s	n/a
221.4545	0.135	442909	keystroke_Key.space	Key.space	n/a
221.6945	0.135	443389	keystroke_a	a	n/a
221.8595	0.06	443719	keystroke_p	p	n/a
221.9945	0.105	443989	keystroke_p	p	n/a
222.1295	0.12	444259	keystroke_r	r	n/a
222.2645	0.1055	444529	keystroke_o	o	n/a
222.8655	0.134	445731	keystroke_x	x	n/a
223.1045	0.045	446209	keystroke_i	i	n/a
223.3305	0.075	446661	keystroke_m	m	n/a
223.4205	0.179	446841	keystroke_a	a	n/a
223.5845	0.135	447169	keystroke_t	t	n/a
223.6895	0.135	447379	keystroke_e	e	n/a
223.9595	0.045	447919	keystroke_Key.enter	Key.enter	n/a
224.011	9.8355	448022	prompt	n/a	smallest rental auto porcelain\n
224.815	0.09	449630	keystroke_s	s	n/a
224.95	0.15	449900	keystroke_a	a	n/a
225.115	0.045	450230	keystroke_m	m	n/a
226.1045	0.075	452209	keystroke_Key.backspace	Key.backspace	n/a
226.42	0.059	452840	keystroke_Key.backspace	Key.backspace	n/a
226.66	0.09	453320	keystroke_m	m	n/a
226.795	0.135	453590	keystroke_a	a	n/a
226.915	0.075	453830	keystroke_l	l	n/a
227.125	0.03	454250	keystroke_l	l	n/a
227.14	0.135	454280	keystroke_e	e	n/a
227.29	0.15	454580	keystroke_s	s	n/a
227.65	0.12	455300	keystroke_t	t	n/a
227.875	0.1345	455750	keystroke_Key.space	Key.space	n/a
228.2045	0.105	456409	keystroke_r	r	n/a
228.2945	0.1655	456589	keystroke_e	e	n/a
228.49	0.075	456980	keystroke_n	n	n/a
228.61	0.105	457220	keystroke_t	t	n/a
228.745	0.12	457490	keystroke_a	a	n/a
228.865	0.105	457730	keystroke_l	l	n/a
228.97	0.135	457940	keystroke_Key.space	Key.space	n/a
229.27	0.105	458540	keystroke_a	a	n/a
229.42	0.075	458840	keystroke_u	u	n/a
229.57	0.12	459140	keystroke_t	t	n/a
229.675	0.105	459350	keystroke_o	o	n/a
229.795	0.15	459590	keystroke_Key.space	Key.space	n/a
230.005	0.075	460010	keystroke_p	p	n/a
230.11	0.12	460220	keystroke_r	r	n/a
230.245	0.105	460490	keystroke_o	o	n/a
231.265	0.075	462530	keystroke_Key.backspace	Key.backspace	n/a
231.55	0.075	463100	keystroke_Key.backspace	Key.backspace	n/a
231.85	0.09	463700	keystroke_o	o	n/a
232.03	0.105	464060	keystroke_r	r	n/a
232.345	0.195	464690	keystroke_c	c	n/a
232.525	0.09	465050	keystroke_e	e	n/a
232.675	0.105	465350	keystroke_l	l	n/a
232.84	0.1345	465680	keystroke_a	a	n/a
233.4095	0.06	466819	keystroke_i	i	n/a
233.5895	0.045	467179	keystroke_n	n	n/a
233.7845	0.06	467569	keystroke_Key.enter	Key.enter	n/a
233.8495	7.422	467699	prompt	n/a	sunny niagara accompanied finally\n
234.5645	0.09	469129	keystroke_s	s	n/a
234.6995	0.0755	469399	keystroke_u	u	n/a
234.94	0.06	469880	keystroke_n	n	n/a
235.075	0.075	470150	keystroke_n	n	n/a
235.285	0.06	470570	keystroke_y	y	n/a
235.405	0.09	470810	keystroke_Key.space	Key.space	n/a
235.645	0.075	471290	keystroke_n	n	n/a
235.825	0.075	471650	keystroke_i	i	n/a
236.29	0.12	472580	keystroke_a	a	n/a
236.695	0.12	473390	keystroke_g	g	n/a
237.1895	0.12	474379	keystroke_a	a	n/a
237.3395	0.15	474679	keystroke_r	r	n/a
237.4745	0.12	474949	keystroke_a	a	n/a
237.7145	0.135	475429	keystroke_Key.space	Key.space	n/a
238.0295	0.105	476059	keystroke_a	a	n/a
238.2095	0.105	476419	keystroke_c	c	n/a
238.4045	0.09	476809	keystroke_c	c	n/a
238.5845	0.105	477169	keystroke_o	o	n/a
238.7495	0.12	477499	keystroke_m	m	n/a
238.9295	0.105	477859	keystroke_p	p	n/a
239.1245	0.12	478249	keystroke_a	a	n/a
239.2895	0.09	478579	keystroke_n	n	n/a
239.5145	0.06	479029	keystroke_i	i	n/a
239.6195	0.09	479239	keystroke_e	e	n/a
239.8145	0.1505	479629	keystroke_d	d	n/a
239.95	0.135	479900	keystroke_Key.space	Key.space	n/a
240.07	0.15	480140	keystroke_f	f	n/a
240.205	0.075	480410	keystroke_i	i	n/a
240.385	0.075	480770	keystroke_n	n	n/a
240.49	0.12	480980	keystroke_a	a	n/a
240.595	0.06	481190	keystroke_l	l	n/a
240.73	0.105	481460	keystroke_l	l	n/a
240.955	0.06	481910	keystroke_y	y	n/a
241.195	0.0745	482390	keystroke_Key.enter	Key.enter	n/a
241.2745	7.752	482549	prompt	n/a	efforts allocation hunt sports\n
241.9595	0.075	483919	keystroke_e	e	n/a
242.1395	0.075	484279	keystroke_f	f	n/a
242.2895	0.09	484579	keystroke_f	f	n/a
242.455	0.09	484910	keystroke_o	o	n/a
242.53	0.075	485060	keystroke_r	r	n/a
242.71	0.06	485420	keystroke_t	t	n/a
242.935	0.135	485870	keystroke_s	s	n/a
243.07	0.135	486140	keystroke_Key.space	Key.space	n/a
243.325	0.135	486650	keystroke_a	a	n/a
243.475	0.09	486950	keystroke_l	l	n/a
243.64	0.06	487280	keystroke_l	l	n/a
243.805	0.09	487610	keystroke_o	o	n/a
243.94	0.15	487880	keystroke_c	c	n/a
244.06	0.12	488120	keystroke_a	a	n/a
244.24	0.09	488480	keystroke_t	t	n/a
244.3	0.1945	488600	keystroke_i	i	n/a
244.435	0.1945	488870	keystroke_o	o	n/a
244.57	0.1195	489140	keystroke_n	n	n/a
244.6745	0.1055	489349	keystroke_Key.space	Key.space	n/a
244.795	0.045	489590	keystroke_j	j	n/a
244.81	0.045	489620	keystroke_h	h	n/a
244.99	0.0605	489980	keystroke_u	u	n/a
245.23	0.045	490460	keystroke_n	n	n/a
245.6495	0.06	491299	keystroke_Key.backspace	Key.backspace	n/a
246.0395	0.06	492079	keystroke_Key.backspace	Key.backspace	n/a
246.4895	0.015	492979	keystroke_Key.backspace	Key.backspace	n/a
246.7595	0.06	493519	keystroke_Key.backspace	Key.backspace	n/a
247.3155	0.06	494631	keystroke_h	h	n/a
247.4805	0.0585	494961	keystroke_u	u	n/a
247.6605	0.1045	495321	keystroke_n	n	n/a
247.7055	0.1645	495411	keystroke_t	t	n/a
247.885	0.15	495770	keystroke_Key.space	Key.space	n/a
248.05	0.105	496100	keystroke_s	s	n/a
248.17	0.105	496340	keystroke_p	p	n/a
248.35	0.1055	496700	keystroke_o	o	n/a
248.4405	0.104	496881	keystroke_r	r	n/a
248.6205	0.105	497241	keystroke_t	t	n/a
248.7845	0.121	497569	keystroke_s	s	n/a
248.9795	0.045	497959	keystroke_Key.enter	Key.enter	n/a
249.0295	9.837	498059	prompt	n/a	replication disposition michelle adware\n
249.775	0.12	499550	keystroke_r	r	n/a
249.865	0.105	499730	keystroke_e	e	n/a
250.09	0.12	500180	keystroke_l	l	n/a
250.765	0.045	501530	keystroke_Key.backspace	Key.backspace	n/a
251.2	0.09	502400	keystroke_p	p	n/a
251.365	0.12	502730	keystroke_l	l	n/a
251.56	0.06	503120	keystroke_i	i	n/a
251.695	0.135	503390	keystroke_c	c	n/a
251.8	0.1495	503600	keystroke_a	a	n/a
251.9955	0.075	503991	keystroke_t	t	n/a
252.0555	0.194	504111	keystroke_i	i	n/a
252.1895	0.18	504379	keystroke_o	o	n/a
252.3245	0.15	504649	keystroke_n	n	n/a
252.4595	0.105	504919	keystroke_Key.space	Key.space	n/a
252.6695	0.1355	505339	keystroke_d	d	n/a
252.865	0.09	505730	keystroke_i	i	n/a
253.075	0.075	506150	keystroke_s	s	n/a
253.39	0.09	506780	keystroke_p	p	n/a
253.5555	0.105	507111	keystroke_o	o	n/a
253.9755	0.09	507951	keystroke_s	s	n/a
254.1255	0.074	508251	keystroke_i	i	n/a
254.6655	0.1045	509331	keystroke_t	t	n/a
254.785	0.21	509570	keystroke_i	i	n/a
254.8745	0.1805	509749	keystroke_o	o	n/a
255.04	0.135	510080	keystroke_n	n	n/a
255.2045	0.12	510409	keystroke_Key.space	Key.space	n/a
255.4145	0.091	510829	keystroke_m	m	n/a
255.9395	0.06	511879	keystroke_i	i	n/a
256.1795	0.12	512359	keystroke_c	c	n/a
256.3595	0.06	512719	keystroke_h	h	n/a
256.4645	0.09	512929	keystroke_e	e	n/a
256.6145	0.075	513229	keystroke_l	l	n/a
256.78	0.09	513560	keystroke_l	l	n/a
256.855	0.15	513710	keystroke_e	e	n/a
257.02	0.1945	514040	keystroke_Key.space	Key.space	n/a
257.1845	0.12	514369	keystroke_a	a	n/a
257.3795	0.135	514759	keystroke_d	d	n/a
258.055	0.12	516110	keystroke_w	w	n/a
258.235	0.12	516470	keystroke_a	a	n/a
258.4595	0.12	516919	keystroke_r	r	n/a
258.5495	0.105	517099	keystroke_e	e	n/a
258.7895	0.075	517579	keystroke_Key.enter	Key.enter	n/a
258.8715	8.77	517743	prompt	n/a	colleges originally funeral namespace\n
259.5695	0.105	519139	keystroke_c	c	n/a
259.7045	0.09	519409	keystroke_o	o	n/a
259.8845	0.075	519769	keystroke_l	l	n/a
260.0195	0.075	520039	keystroke_l	l	n/a
260.2595	0.12	520519	keystroke_e	e	n/a
260.4395	0.105	520879	keystroke_g	g	n/a
260.5145	0.12	521029	keystroke_e	e	n/a
260.7395	0.12	521479	keystroke_s	s	n/a
260.8445	0.135	521689	keystroke_Key.space	Key.space	n/a
261.0695	0.09	522139	keystroke_o	o	n/a
261.1445	0.105	522289	keystroke_r	r	n/a
262.195	0.045	524390	keystroke_i	i	n/a
262.75	0.1195	525500	keystroke_g	g	n/a
262.9895	0.076	525979	keystroke_i	i	n/a
263.1845	0.075	526369	keystroke_n	n	n/a
263.2895	0.121	526579	keystroke_a	a	n/a
263.4105	0.059	526821	keystroke_l	l	n/a
263.5745	0.09	527149	keystroke_l	l	n/a
263.8445	0.06	527689	keystroke_y	y	n/a
263.9645	0.12	527929	keystroke_Key.space	Key.space	n/a
264.1895	0.135	528379	keystroke_f	f	n/a
264.6845	0.061	529369	keystroke_u	u	n/a
264.88	0.075	529760	keystroke_n	n	n/a
265	0.135	530000	keystroke_e	e	n/a
265.075	0.135	530150	keystroke_r	r	n/a
265.255	0.105	530510	keystroke_a	a	n/a
265.345	0.105	530690	keystroke_l	l	n/a
265.48	0.12	530960	keystroke_Key.space	Key.space	n/a
265.825	0.105	531650	keystroke_n	n	n/a
266.035	0.105	532070	keystroke_a	a	n/a
266.215	0.06	532430	keystroke_m	m	n/a
266.41	0.09	532820	keystroke_e	e	n/a
266.695	0.105	533390	keystroke_s	s	n/a
266.845	0.09	533690	keystroke_p	p	n/a
266.95	0.1945	533900	keystroke_a	a	n/a
267.2045	0.165	534409	keystroke_c	c	n/a
267.3545	0.09	534709	keystroke_e	e	n/a
267.5645	0.075	535129	keystroke_Key.enter	Key.enter	n/a
267.646	5.411	535292	prompt	n/a	rock flights packages holidays\n
268.5395	0.105	537079	keystroke_r	r	n/a
268.6595	0.09	537319	keystroke_o	o	n/a
268.8395	0.09	537679	keystroke_c	c	n/a
268.9745	0.075	537949	keystroke_k	k	n/a
269.0945	0.105	538189	keystroke_Key.space	Key.space	n/a
269.2445	0.12	538489	keystroke_f	f	n/a
269.3195	0.105	538639	keystroke_l	l	n/a
269.4995	0.09	538999	keystroke_i	i	n/a
269.6345	0.09	539269	keystroke_g	g	n/a
269.7695	0.09	539539	keystroke_h	h	n/a
269.8295	0.09	539659	keystroke_t	t	n/a
270.0395	0.12	540079	keystroke_s	s	n/a
270.1745	0.12	540349	keystroke_Key.space	Key.space	n/a
270.4145	0.09	540829	keystroke_p	p	n/a
270.4595	0.135	540919	keystroke_a	a	n/a
270.6245	0.135	541249	keystroke_c	c	n/a
270.7745	0.0755	541549	keystroke_k	k	n/a
270.91	0.15	541820	keystroke_a	a	n/a
271.075	0.1355	542150	keystroke_g	g	n/a
271.24	0.105	542480	keystroke_e	e	n/a
271.495	0.105	542990	keystroke_s	s	n/a
271.63	0.12	543260	keystroke_Key.space	Key.space	n/a
271.855	0.0755	543710	keystroke_h	h	n/a
272.0045	0.1055	544009	keystroke_o	o	n/a
272.2	0.12	544400	keystroke_l	l	n/a
272.35	0.09	544700	keystroke_i	i	n/a
272.395	0.135	544790	keystroke_d	d	n/a
272.515	0.105	545030	keystroke_a	a	n/a
272.665	0.09	545330	keystroke_y	y	n/a
272.83	0.09	545660	keystroke_s	s	n/a
272.98	0.075	545960	keystroke_Key.enter	Key.enter	n/a
273.062	9.61	546124	prompt	n/a	leader noble incidence portsmouth\n
273.7	0.12	547400	keystroke_l	l	n/a
274.0755	0.119	548151	keystroke_a	a	n/a
274.2555	0.119	548511	keystroke_e	e	n/a
274.7795	0.06	549559	keystroke_Key.backspace	Key.backspace	n/a
275.1095	0.075	550219	keystroke_Key.backspace	Key.backspace	n/a
275.2005	0.15	550401	keystroke_e	e	n/a
275.3345	0.105	550669	keystroke_a	a	n/a
275.4695	0.106	550939	keystroke_d	d	n/a
275.6945	0.135	551389	keystroke_e	e	n/a
275.7995	0.151	551599	keystroke_r	r	n/a
276.0245	0.105	552049	keystroke_Key.space	Key.space	n/a
276.1745	0.105	552349	keystroke_n	n	n/a
276.6395	0.09	553279	keystroke_o	o	n/a
276.7905	0.089	553581	keystroke_b	b	n/a
276.9395	0.09	553879	keystroke_l	l	n/a
277.0445	0.165	554089	keystroke_e	e	n/a
277.1945	0.15	554389	keystroke_Key.space	Key.space	n/a
277.4945	0.06	554989	keystroke_i	i	n/a
277.7645	0.09	555529	keystroke_n	n	n/a
277.9595	0.1055	555919	keystroke_c	c	n/a
278.095	0.09	556190	keystroke_i	i	n/a
278.2	0.09	556400	keystroke_d	d	n/a
278.3655	0.1045	556731	keystroke_e	e	n/a
278.47	0.075	556940	keystroke_n	n	n/a
279.205	0.135	558410	keystroke_c	c	n/a
279.325	0.03	558650	keystroke_e	e	n/a
280.015	0.015	560030	keystroke_Key.space	Key.space	n/a
280.36	0.075	560720	keystroke_p	p	n/a
280.585	0.105	561170	keystroke_o	o	n/a
280.78	0.09	561560	keystroke_r	r	n/a
280.975	0.06	561950	keystroke_t	t	n/a
281.56	0.09	563120	keystroke_s	s	n/a
281.8	0.09	563600	keystroke_m	m	n/a
281.965	0.135	563930	keystroke_o	o	n/a
282.085	0.075	564170	keystroke_u	u	n/a
282.25	0.09	564500	keystroke_t	t	n/a
282.37	0.06	564740	keystroke_h	h	n/a
282.61	0.06	565220	keystroke_Key.enter	Key.enter	n/a
282.6755	6.761	565351	prompt	n/a	tower fans venues lies\n
283.375	0.09	566750	keystroke_t	t	n/a
283.54	0.105	567080	keystroke_o	o	n/a
283.615	0.105	567230	keystroke_w	w	n/a
283.81	0.15	567620	keystroke_e	e	n/a
283.93	0.135	567860	keystroke_r	r	n/a
284.215	0.105	568430	keystroke_Key.space	Key.space	n/a
284.335	0.12	568670	keystroke_f	f	n/a
284.485	0.12	568970	keystroke_a	a	n/a
284.62	0.06	569240	keystroke_n	n	n/a
284.74	0.12	569480	keystroke_s	s	n/a
284.875	0.1505	569750	keystroke_Key.space	Key.space	n/a
285.4595	0.045	570919	keystroke_e	e	n/a
286.0595	0.09	572119	keystroke_Key.backspace	Key.backspace	n/a
286.4795	0.12	572959	keystroke_v	v	n/a
286.9305	0.105	573861	keystroke_e	e	n/a
287.1705	0.075	574341	keystroke_n	n	n/a
287.4555	0.075	574911	keystroke_u	u	n/a
288.0855	0.09	576171	keystroke_e	e	n/a
288.2655	0.135	576531	keystroke_s	s	n/a
288.4145	0.106	576829	keystroke_Key.space	Key.space	n/a
288.5655	0.12	577131	keystroke_l	l	n/a
288.9105	0.0595	577821	keystroke_i	i	n/a
289.015	0.18	578030	keystroke_e	e	n/a
289.165	0.12	578330	keystroke_s	s	n/a
289.39	0.045	578780	keystroke_Key.enter	Key.enter	n/a
289.439	12.028	578878	prompt	n/a	patrick johns passenger wisdom\n
290.2	0.105	580400	keystroke_p	p	n/a
290.32	0.15	580640	keystroke_a	a	n/a
290.545	0.105	581090	keystroke_t	t	n/a
290.77	0.075	581540	keystroke_r	r	n/a
290.86	0.075	581720	keystroke_i	i	n/a
291.025	0.09	582050	keystroke_c	c	n/a
291.175	0.06	582350	keystroke_k	k	n/a
291.295	0.105	582590	keystroke_Key.space	Key.space	n/a
291.745	0.09	583490	keystroke_h	h	n/a
291.955	0.105	583910	keystroke_o	o	n/a
292.225	0.06	584450	keystroke_h	h	n/a
292.7795	0.06	585559	keystroke_Key.backspace	Key.backspace	n/a
293.2295	0.06	586459	keystroke_Key.backspace	Key.backspace	n/a
293.6045	0.045	587209	keystroke_Key.backspace	Key.backspace	n/a
294.0705	0.075	588141	keystroke_h	h	n/a
294.2505	0.09	588501	keystroke_o	o	n/a
295.21	0.105	590420	keystroke_Key.backspace	Key.backspace	n/a
295.555	0.075	591110	keystroke_Key.backspace	Key.backspace	n/a
296.185	0.06	592370	keystroke_j	j	n/a
296.41	0.075	592820	keystroke_o	o	n/a
296.7995	0.045	593599	keystroke_h	h	n/a
296.9795	0.06	593959	keystroke_n	n	n/a
297.1745	0.105	594349	keystroke_s	s	n/a
297.3245	0.15	594649	keystroke_Key.space	Key.space	n/a
297.5495	0.105	595099	keystroke_p	p	n/a
297.6845	0.15	595369	keystroke_a	a	n/a
297.8495	0.09	595699	keystroke_s	s	n/a
298.0295	0.09	596059	keystroke_s	s	n/a
298.2095	0.105	596419	keystroke_e	e	n/a
298.72	0.06	597440	keystroke_n	n	n/a
299.185	0.075	598370	keystroke_g	g	n/a
299.3805	0.165	598761	keystroke_e	e	n/a
299.5005	0.135	599001	keystroke_r	r	n/a
299.7855	0.135	599571	keystroke_Key.space	Key.space	n/a
300.2805	0.135	600561	keystroke_w	w	n/a
300.5055	0.09	601011	keystroke_i	i	n/a
300.6405	0.1045	601281	keystroke_s	s	n/a
300.91	0.09	601820	keystroke_d	d	n/a
301.03	0.105	602060	keystroke_o	o	n/a
301.195	0.09	602390	keystroke_m	m	n/a
301.42	0.045	602840	keystroke_Key.enter	Key.enter	n/a
301.47	4.6915	602940	prompt	n/a	any salaries sweden seen\n
302.05	0.12	604100	keystroke_a	a	n/a
302.185	0.06	604370	keystroke_n	n	n/a
302.395	0.06	604790	keystroke_y	y	n/a
302.485	0.105	604970	keystroke_Key.space	Key.space	n/a
302.635	0.1205	605270	keystroke_s	s	n/a
302.7705	0.105	605541	keystroke_a	a	n/a
302.8755	0.105	605751	keystroke_l	l	n/a
303.0855	0.165	606171	keystroke_a	a	n/a
303.2355	0.075	606471	keystroke_r	r	n/a
303.4305	0.075	606861	keystroke_i	i	n/a
303.5205	0.18	607041	keystroke_e	e	n/a
303.6555	0.135	607311	keystroke_s	s	n/a
303.8045	0.121	607609	keystroke_Key.space	Key.space	n/a
304.0155	0.09	608031	keystroke_s	s	n/a
304.2705	0.12	608541	keystroke_w	w	n/a
304.4205	0.119	608841	keystroke_e	e	n/a
304.6595	0.0605	609319	keystroke_n	n	n/a
304.825	0.09	609650	keystroke_d	d	n/a
305.02	0.075	610040	keystroke_e	e	n/a
305.11	0.06	610220	keystroke_n	n	n/a
305.23	0.1045	610460	keystroke_Key.space	Key.space	n/a
305.3795	0.151	610759	keystroke_s	s	n/a
305.5455	0.059	611091	keystroke_e	e	n/a
305.7105	0.075	611421	keystroke_e	e	n/a
305.8905	0.044	611781	keystroke_n	n	n/a
306.1155	0.045	612231	keystroke_Key.enter	Key.enter	n/a
306.164	7.078	612328	prompt	n/a	works aurora paperback dist\n
306.7895	0.09	613579	keystroke_w	w	n/a
306.9245	0.09	613849	keystroke_o	o	n/a
307.0295	0.105	614059	keystroke_r	r	n/a
307.1495	0.075	614299	keystroke_k	k	n/a
307.2845	0.135	614569	keystroke_s	s	n/a
307.4205	0.119	614841	keystroke_Key.space	Key.space	n/a
307.9745	0.105	615949	keystroke_a	a	n/a
308.2295	0.075	616459	keystroke_u	u	n/a
308.3945	0.075	616789	keystroke_r	r	n/a
308.5895	0.09	617179	keystroke_o	o	n/a
308.8905	0.1045	617781	keystroke_r	r	n/a
309.025	0.1505	618050	keystroke_a	a	n/a
309.28	0.1205	618560	keystroke_Key.space	Key.space	n/a
309.9255	0.075	619851	keystroke_p	p	n/a
310.375	0.06	620750	keystroke_a	a	n/a
310.45	0.06	620900	keystroke_p	p	n/a
310.57	0.165	621140	keystroke_e	e	n/a
310.675	0.105	621350	keystroke_r	r	n/a
311.305	0.105	622610	keystroke_b	b	n/a
311.5	0.105	623000	keystroke_a	a	n/a
311.62	0.12	623240	keystroke_c	c	n/a
312.07	0.09	624140	keystroke_k	k	n/a
312.22	0.12	624440	keystroke_Key.space	Key.space	n/a
312.535	0.105	625070	keystroke_d	d	n/a
312.685	0.09	625370	keystroke_i	i	n/a
312.79	0.105	625580	keystroke_s	s	n/a
312.955	0.0905	625910	keystroke_t	t	n/a
313.1805	0.0595	626361	keystroke_Key.enter	Key.enter	n/a
313.245	5.3815	626490	prompt	n/a	not ratings ballot cover\n
313.8705	0.1045	627741	keystroke_n	n	n/a
314.05	0.105	628100	keystroke_o	o	n/a
314.14	0.135	628280	keystroke_t	t	n/a
314.245	0.1645	628490	keystroke_Key.space	Key.space	n/a
314.4255	0.12	628851	keystroke_r	r	n/a
314.5455	0.12	629091	keystroke_a	a	n/a
314.9805	0.089	629961	keystroke_t	t	n/a
315.1295	0.076	630259	keystroke_i	i	n/a
315.3245	0.076	630649	keystroke_n	n	n/a
315.4005	0.104	630801	keystroke_g	g	n/a
315.7755	0.074	631551	keystroke_s	s	n/a
315.8795	0.15	631759	keystroke_Key.space	Key.space	n/a
316.4355	0.135	632871	keystroke_b	b	n/a
316.6305	0.105	633261	keystroke_a	a	n/a
316.7505	0.075	633501	keystroke_l	l	n/a
316.9005	0.09	633801	keystroke_l	l	n/a
317.0805	0.105	634161	keystroke_o	o	n/a
317.1705	0.135	634341	keystroke_t	t	n/a
317.2755	0.149	634551	keystroke_Key.space	Key.space	n/a
317.6645	0.12	635329	keystroke_c	c	n/a
317.7545	0.09	635509	keystroke_o	o	n/a
317.9795	0.105	635959	keystroke_v	v	n/a
318.2045	0.105	636409	keystroke_e	e	n/a
318.2645	0.15	636529	keystroke_r	r	n/a
318.5495	0.075	637099	keystroke_Key.enter	Key.enter	n/a
318.6295	5.8325	637259	prompt	n/a	wanted phones commerce fare\n
319.405	0.045	638810	keystroke_w	w	n/a
319.54	0.15	639080	keystroke_a	a	n/a
319.675	0.06	639350	keystroke_n	n	n/a
319.78	0.15	639560	keystroke_t	t	n/a
319.885	0.12	639770	keystroke_e	e	n/a
320.14	0.12	640280	keystroke_d	d	n/a
320.9495	0.106	641899	keystroke_Key.space	Key.space	n/a
321.0845	0.076	642169	keystroke_p	p	n/a
321.3095	0.105	642619	keystroke_h	h	n/a
321.4595	0.15	642919	keystroke_o	o	n/a
321.6245	0.0905	643249	keystroke_n	n	n/a
321.685	0.18	643370	keystroke_e	e	n/a
321.866	0.164	643732	keystroke_s	s	n/a
322.03	0.135	644060	keystroke_Key.space	Key.space	n/a
322.33	0.15	644660	keystroke_c	c	n/a
322.465	0.075	644930	keystroke_o	o	n/a
322.63	0.0755	645260	keystroke_m	m	n/a
322.795	0.09	645590	keystroke_m	m	n/a
322.87	0.1505	645740	keystroke_e	e	n/a
322.9755	0.09	645951	keystroke_r	r	n/a
323.2305	0.18	646461	keystroke_c	c	n/a
323.3805	0.135	646761	keystroke_e	e	n/a
323.5305	0.105	647061	keystroke_Key.space	Key.space	n/a
323.7405	0.1345	647481	keystroke_f	f	n/a
323.89	0.1355	647780	keystroke_a	a	n/a
324.01	0.1355	648020	keystroke_r	r	n/a
324.13	0.1055	648260	keystroke_e	e	n/a
324.385	0.0755	648770	keystroke_Key.enter	Key.enter	n/a
324.466	10.196	648932	prompt	n/a	hosted enzyme combat abilities\n
325.1205	0.075	650241	keystroke_h	h	n/a
325.2255	0.12	650451	keystroke_o	o	n/a
325.3155	0.18	650631	keystroke_s	s	n/a
325.5105	0.18	651021	keystroke_t	t	n/a
325.6455	0.105	651291	keystroke_e	e	n/a
325.8555	0.12	651711	keystroke_d	d	n/a
325.9755	0.105	651951	keystroke_Key.space	Key.space	n/a
326.1105	0.135	652221	keystroke_e	e	n/a
326.8755	0.12	653751	keystroke_x	x	n/a
327.2655	0.135	654531	keystroke_z	z	n/a
327.8955	0.09	655791	keystroke_Key.backspace	Key.backspace	n/a
328.2855	0.075	656571	keystroke_Key.backspace	Key.backspace	n/a
328.9605	0.075	657921	keystroke_n	n	n/a
329.2155	0.135	658431	keystroke_z	z	n/a
330.01	0.105	660020	keystroke_y	y	n/a
330.445	0.0605	660890	keystroke_m	m	n/a
330.55	0.1355	661100	keystroke_e	e	n/a
330.73	0.15	661460	keystroke_Key.space	Key.space	n/a
331	0.135	662000	keystroke_c	c	n/a
331.315	0.105	662630	keystroke_m	m	n/a
331.7505	0.06	663501	keystroke_Key.backspace	Key.backspace	n/a
331.9905	0.12	663981	keystroke_o	o	n/a
332.1705	0.09	664341	keystroke_m	m	n/a
332.3055	0.105	664611	keystroke_b	b	n/a
332.4705	0.15	664941	keystroke_a	a	n/a
332.6655	0.135	665331	keystroke_t	t	n/a
332.9055	0.135	665811	keystroke_Key.space	Key.space	n/a
333.0705	0.105	666141	keystroke_a	a	n/a
333.3855	0.105	666771	keystroke_b	b	n/a
333.5205	0.075	667041	keystroke_i	i	n/a
333.7005	0.12	667401	keystroke_l	l	n/a
333.8655	0.09	667731	keystroke_i	i	n/a
333.9855	0.075	667971	keystroke_t	t	n/a
334.1205	0.09	668241	keystroke_i	i	n/a
334.2105	0.21	668421	keystroke_e	e	n/a
334.3755	0.135	668751	keystroke_s	s	n/a
334.5855	0.075	669171	keystroke_Key.enter	Key.enter	n/a
334.6645	9.387	669329	prompt	n/a	accordance march apartment weed\n
335.35	0.045	670700	keystroke_a	a	n/a
335.47	0.09	670940	keystroke_c	c	n/a
335.62	0.09	671240	keystroke_c	c	n/a
335.755	0.12	671510	keystroke_o	o	n/a
335.86	0.12	671720	keystroke_r	r	n/a
336.115	0.105	672230	keystroke_d	d	n/a
336.865	0.12	673730	keystroke_a	a	n/a
337.015	0.06	674030	keystroke_n	n	n/a
337.135	0.18	674270	keystroke_c	c	n/a
337.27	0.165	674540	keystroke_e	e	n/a
337.42	0.12	674840	keystroke_Key.space	Key.space	n/a
337.705	0.105	675410	keystroke_m	m	n/a
337.81	0.135	675620	keystroke_a	a	n/a
337.915	0.105	675830	keystroke_r	r	n/a
338.2005	0.09	676401	keystroke_c	c	n/a
338.3505	0.075	676701	keystroke_h	h	n/a
338.4855	0.075	676971	keystroke_Key.space	Key.space	n/a
338.5905	0.12	677181	keystroke_a	a	n/a
338.7555	0.105	677511	keystroke_p	p	n/a
338.8905	0.12	677781	keystroke_r	r	n/a
339.1455	0.09	678291	keystroke_t	t	n/a
339.97	0.015	679940	keystroke_Key.backspace	Key.backspace	n/a
340.375	0.15	680750	keystroke_a	a	n/a
340.51	0.105	681020	keystroke_r	r	n/a
341.1855	0.06	682371	keystroke_Key.backspace	Key.backspace	n/a
341.5605	0.075	683121	keystroke_Key.backspace	Key.backspace	n/a
341.8755	0.09	683751	keystroke_Key.backspace	Key.backspace	n/a
342.0705	0.105	684141	keystroke_a	a	n/a
342.2505	0.09	684501	keystroke_r	r	n/a
342.4755	0.045	684951	keystroke_t	t	n/a
342.6255	0.075	685251	keystroke_m	m	n/a
342.715	0.1055	685430	keystroke_e	e	n/a
342.8355	0.06	685671	keystroke_n	n	n/a
342.9255	0.15	685851	keystroke_t	t	n/a
343.0455	0.18	686091	keystroke_Key.space	Key.space	n/a
343.2405	0.105	686481	keystroke_w	w	n/a
343.4205	0.12	686841	keystroke_e	e	n/a
343.5555	0.075	687111	keystroke_e	e	n/a
343.7955	0.075	687591	keystroke_d	d	n/a
344.0055	0.045	688011	keystroke_Key.enter	Key.enter	n/a
344.0545	6.1775	688109	prompt	n/a	sans enlarge code agree\n
345.49	0.105	690980	keystroke_s	s	n/a
345.61	0.12	691220	keystroke_a	a	n/a
345.925	0.105	691850	keystroke_n	n	n/a
346.24	0.105	692480	keystroke_s	s	n/a
346.42	0.12	692840	keystroke_Key.space	Key.space	n/a
346.7655	0.09	693531	keystroke_e	e	n/a
346.9455	0.06	693891	keystroke_n	n	n/a
347.3355	0.105	694671	keystroke_l	l	n/a
347.5905	0.15	695181	keystroke_a	a	n/a
347.7255	0.105	695451	keystroke_r	r	n/a
347.9505	0.09	695901	keystroke_g	g	n/a
348.1155	0.135	696231	keystroke_e	e	n/a
348.2805	0.135	696561	keystroke_Key.space	Key.space	n/a
348.6255	0.105	697251	keystroke_c	c	n/a
348.7605	0.09	697521	keystroke_o	o	n/a
348.8355	0.09	697671	keystroke_d	d	n/a
349.0005	0.12	698001	keystroke_e	e	n/a
349.1055	0.165	698211	keystroke_Key.space	Key.space	n/a
349.2255	0.135	698451	keystroke_a	a	n/a
349.4505	0.09	698901	keystroke_g	g	n/a
349.6755	0.135	699351	keystroke_r	r	n/a
349.7805	0.09	699561	keystroke_e	e	n/a
349.9605	0.09	699921	keystroke_e	e	n/a
350.1855	0.045	700371	keystroke_Key.enter	Key.enter	n/a
350.236	4.4215	700472	prompt	n/a	diego slope soon maps\n
350.8005	0.105	701601	keystroke_d	d	n/a
351.0105	0.075	702021	keystroke_i	i	n/a
351.116	0.0745	702232	keystroke_e	e	n/a
351.326	0.06	702652	keystroke_g	g	n/a
351.4755	0.075	702951	keystroke_o	o	n/a
351.6105	0.1045	703221	keystroke_Key.space	Key.space	n/a
351.895	0.12	703790	keystroke_s	s	n/a
352.03	0.105	704060	keystroke_l	l	n/a
352.241	0.074	704482	keystroke_o	o	n/a
352.375	0.09	704750	keystroke_p	p	n/a
352.8555	0.105	705711	keystroke_e	e	n/a
353.1405	0.09	706281	keystroke_Key.space	Key.space	n/a
353.3955	0.105	706791	keystroke_s	s	n/a
353.5305	0.06	707061	keystroke_o	o	n/a
353.6805	0.075	707361	keystroke_o	o	n/a
353.8155	0.09	707631	keystroke_n	n	n/a
353.8755	0.12	707751	keystroke_Key.space	Key.space	n/a
354.0255	0.09	708051	keystroke_m	m	n/a
354.1155	0.075	708231	keystroke_a	a	n/a
354.2355	0.09	708471	keystroke_p	p	n/a
354.3855	0.12	708771	keystroke_s	s	n/a
354.6105	0.045	709221	keystroke_Key.enter	Key.enter	n/a
354.66	6.687	709320	prompt	n/a	rebate rugby polymer virgin\n
355.4055	0.12	710811	keystroke_r	r	n/a
355.5405	0.105	711081	keystroke_e	e	n/a
355.8105	0.15	711621	keystroke_b	b	n/a
356.1105	0.15	712221	keystroke_a	a	n/a
356.2305	0.15	712461	keystroke_t	t	n/a
356.3355	0.165	712671	keystroke_e	e	n/a
356.4555	0.135	712911	keystroke_Key.space	Key.space	n/a
356.6955	0.105	713391	keystroke_r	r	n/a
356.8905	0.075	713781	keystroke_u	u	n/a
357.1605	0.09	714321	keystroke_g	g	n/a
357.5505	0.105	715101	keystroke_b	b	n/a
357.7455	0.06	715491	keystroke_y	y	n/a
358.0455	0.015	716091	keystroke_Key.space	Key.space	n/a
358.4205	0.06	716841	keystroke_p	p	n/a
358.5705	0.105	717141	keystroke_o	o	n/a
358.75	0.09	717500	keystroke_l	l	n/a
359.1555	0.06	718311	keystroke_y	y	n/a
359.4105	0.09	718821	keystroke_m	m	n/a
359.5155	0.165	719031	keystroke_e	e	n/a
359.6205	0.15	719241	keystroke_r	r	n/a
359.7555	0.1645	719511	keystroke_Key.space	Key.space	n/a
360.026	0.15	720052	keystroke_v	v	n/a
360.221	0.074	720442	keystroke_i	i	n/a
360.58	0.105	721160	keystroke_r	r	n/a
360.8355	0.075	721671	keystroke_g	g	n/a
360.9255	0.09	721851	keystroke_i	i	n/a
361.1055	0.06	722211	keystroke_n	n	n/a
361.3005	0.045	722601	keystroke_Key.enter	Key.enter	n/a
361.35	4.662	722700	prompt	n/a	scotia eating kept mere\n
361.9755	0.105	723951	keystroke_s	s	n/a
362.2605	0.12	724521	keystroke_c	c	n/a
362.4255	0.075	724851	keystroke_o	o	n/a
362.6505	0.09	725301	keystroke_t	t	n/a
362.7555	0.075	725511	keystroke_i	i	n/a
362.9205	0.15	725841	keystroke_a	a	n/a
363.0555	0.165	726111	keystroke_Key.space	Key.space	n/a
363.5955	0.135	727191	keystroke_e	e	n/a
363.7155	0.15	727431	keystroke_a	a	n/a
363.8805	0.1195	727761	keystroke_t	t	n/a
364.015	0.105	728030	keystroke_i	i	n/a
364.225	0.09	728450	keystroke_n	n	n/a
364.3	0.135	728600	keystroke_g	g	n/a
364.405	0.12	728810	keystroke_Key.space	Key.space	n/a
364.63	0.09	729260	keystroke_k	k	n/a
364.735	0.09	729470	keystroke_e	e	n/a
364.9305	0.075	729861	keystroke_p	p	n/a
365.0955	0.15	730191	keystroke_t	t	n/a
365.2305	0.135	730461	keystroke_Key.space	Key.space	n/a
365.4405	0.12	730881	keystroke_m	m	n/a
365.5155	0.12	731031	keystroke_e	e	n/a
365.6055	0.15	731211	keystroke_r	r	n/a
365.7255	0.105	731451	keystroke_e	e	n/a
365.9505	0.06	731901	keystroke_Key.enter	Key.enter	n/a
366.015	11.982	732030	prompt	n/a	angola deborah target philadelphia\n
366.7755	0.12	733551	keystroke_a	a	n/a
366.9705	0.075	733941	keystroke_n	n	n/a
367.2555	0.09	734511	keystroke_g	g	n/a
367.7055	0.075	735411	keystroke_l	l	n/a
369.1005	0.045	738201	keystroke_Key.backspace	Key.backspace	n/a
369.7455	0.075	739491	keystroke_o	o	n/a
369.9705	0.06	739941	keystroke_l	l	n/a
370.1055	0.15	740211	keystroke_a	a	n/a
370.3005	0.165	740601	keystroke_Key.space	Key.space	n/a
370.9905	0.18	741981	keystroke_d	d	n/a
371.1855	0.06	742371	keystroke_e	e	n/a
371.4705	0.12	742941	keystroke_b	b	n/a
371.6955	0.15	743391	keystroke_o	o	n/a
371.8605	0.09	743721	keystroke_r	r	n/a
372.0705	0.12	744141	keystroke_a	a	n/a
372.2505	0.105	744501	keystroke_h	h	n/a
372.4305	0.135	744861	keystroke_Key.space	Key.space	n/a
373.0455	0.105	746091	keystroke_t	t	n/a
373.1655	0.18	746331	keystroke_a	a	n/a
373.2855	0.12	746571	keystroke_r	r	n/a
373.5255	0.105	747051	keystroke_g	g	n/a
373.6605	0.18	747321	keystroke_e	e	n/a
373.8105	0.15	747621	keystroke_t	t	n/a
374.0205	0.165	748041	keystroke_Key.space	Key.space	n/a
374.4105	0.075	748821	keystroke_p	p	n/a
374.606	0.089	749212	keystroke_h	h	n/a
374.77	0.075	749540	keystroke_i	i	n/a
375.13	0.045	750260	keystroke_l	l	n/a
375.251	0.135	750502	keystroke_a	a	n/a
375.521	0.104	751042	keystroke_d	d	n/a
375.776	0.119	751552	keystroke_e	e	n/a
376.7205	0.135	753441	keystroke_l	l	n/a
377.2455	0.06	754491	keystroke_p	p	n/a
377.4255	0.075	754851	keystroke_h	h	n/a
377.576	0.074	755152	keystroke_i	i	n/a
377.71	0.105	755420	keystroke_a	a	n/a
377.935	0.061	755870	keystroke_Key.enter	Key.enter	n/a
378.0005	12.5665	756001	prompt	n/a	princeton revision clearing fisheries\n
378.7155	0.105	757431	keystroke_p	p	n/a
378.8805	0.135	757761	keystroke_r	r	n/a
379.0005	0.075	758001	keystroke_i	i	n/a
379.645	0.075	759290	keystroke_n	n	n/a
379.855	0.12	759710	keystroke_c	c	n/a
380.08	0.09	760160	keystroke_e	e	n/a
380.9805	0.09	761961	keystroke_t	t	n/a
381.0855	0.12	762171	keystroke_o	o	n/a
381.2955	0.075	762591	keystroke_n	n	n/a
381.3405	0.135	762681	keystroke_Key.space	Key.space	n/a
385.888	0.072	771776	keystroke_r	r	n/a
385.945	0.105	771890	keystroke_e	e	n/a
386.155	0.15	772310	keystroke_v	v	n/a
386.335	0.09	772670	keystroke_i	i	n/a
386.44	0.12	772880	keystroke_s	s	n/a
386.53	0.2105	773060	keystroke_i	i	n/a
386.62	0.1955	773240	keystroke_o	o	n/a
387.0855	0.0755	774171	keystroke_n	n	n/a
387.206	0.105	774412	keystroke_Key.space	Key.space	n/a
387.371	0.135	774742	keystroke_c	c	n/a
387.551	0.12	775102	keystroke_l	l	n/a
388.106	0.225	776212	keystroke_e	e	n/a
388.211	0.135	776422	keystroke_a	a	n/a
388.316	0.09	776632	keystroke_r	r	n/a
388.421	0.0745	776842	keystroke_i	i	n/a
388.6005	0.09	777201	keystroke_n	n	n/a
388.6605	0.12	777321	keystroke_g	g	n/a
388.7655	0.105	777531	keystroke_Key.space	Key.space	n/a
388.9305	0.09	777861	keystroke_f	f	n/a
389.0355	0.075	778071	keystroke_i	i	n/a
389.1555	0.12	778311	keystroke_s	s	n/a
389.3055	0.075	778611	keystroke_h	h	n/a
389.4255	0.15	778851	keystroke_e	e	n/a
389.5455	0.12	779091	keystroke_r	r	n/a
390.0555	0.06	780111	keystroke_i	i	n/a
390.1305	0.15	780261	keystroke_e	e	n/a
390.2505	0.12	780501	keystroke_s	s	n/a
390.5055	0.06	781011	keystroke_Key.enter	Key.enter	n/a
390.57	6.462	781140	prompt	n/a	makes injection verify anything\n
391.2105	0.0905	782421	keystroke_m	m	n/a
391.2855	0.0605	782571	keystroke_a	a	n/a
391.331	0.0895	782662	keystroke_k	k	n/a
391.436	0.0895	782872	keystroke_e	e	n/a
391.6005	0.135	783201	keystroke_s	s	n/a
391.7505	0.105	783501	keystroke_Key.space	Key.space	n/a
391.9005	0.075	783801	keystroke_i	i	n/a
392.0655	0.0605	784131	keystroke_n	n	n/a
392.2305	0.0605	784461	keystroke_j	j	n/a
392.3205	0.105	784641	keystroke_e	e	n/a
392.5305	0.105	785061	keystroke_c	c	n/a
392.756	0.105	785512	keystroke_t	t	n/a
392.785	0.241	785570	keystroke_i	i	n/a
392.935	0.151	785870	keystroke_o	o	n/a
393.055	0.135	786110	keystroke_n	n	n/a
393.16	0.12	786320	keystroke_Key.space	Key.space	n/a
393.34	0.121	786680	keystroke_v	v	n/a
393.88	0.135	787760	keystroke_e	e	n/a
394	0.12	788000	keystroke_r	r	n/a
394.645	0.09	789290	keystroke_i	i	n/a
394.78	0.09	789560	keystroke_f	f	n/a
395.02	0.075	790040	keystroke_y	y	n/a
395.185	0.1205	790370	keystroke_Key.space	Key.space	n/a
395.7405	0.075	791481	keystroke_a	a	n/a
395.8305	0.06	791661	keystroke_n	n	n/a
396.0405	0.06	792081	keystroke_y	y	n/a
396.3855	0.105	792771	keystroke_t	t	n/a
396.4605	0.135	792921	keystroke_h	h	n/a
396.5805	0.15	793161	keystroke_i	i	n/a
396.7005	0.12	793401	keystroke_n	n	n/a
396.8055	0.09	793611	keystroke_g	g	n/a
396.9855	0.045	793971	keystroke_Key.enter	Key.enter	n/a
397.0345	6.2525	794069	prompt	n/a	nissan rugby medical adipex\n
397.6605	0.075	795321	keystroke_n	n	n/a
397.8105	0.09	795621	keystroke_i	i	n/a
397.9755	0.075	795951	keystroke_s	s	n/a
398.1405	0.06	796281	keystroke_s	s	n/a
398.2305	0.12	796461	keystroke_a	a	n/a
398.3805	0.06	796761	keystroke_n	n	n/a
398.4855	0.15	796971	keystroke_Key.space	Key.space	n/a
399.0405	0.135	798081	keystroke_r	r	n/a
399.2955	0.0905	798591	keystroke_u	u	n/a
399.565	0.09	799130	keystroke_g	g	n/a
399.88	0.105	799760	keystroke_b	b	n/a
400.045	0.061	800090	keystroke_y	y	n/a
400.195	0.135	800390	keystroke_Key.space	Key.space	n/a
400.8855	0.12	801771	keystroke_m	m	n/a
400.976	0.075	801952	keystroke_e	e	n/a
401.1555	0.09	802311	keystroke_d	d	n/a
401.2305	0.075	802461	keystroke_i	i	n/a
401.3505	0.15	802701	keystroke_c	c	n/a
401.4705	0.135	802941	keystroke_a	a	n/a
401.5605	0.105	803121	keystroke_l	l	n/a
401.651	0.1195	803302	keystroke_Key.space	Key.space	n/a
401.9055	0.135	803811	keystroke_a	a	n/a
402.2355	0.12	804471	keystroke_d	d	n/a
402.4455	0.075	804891	keystroke_i	i	n/a
402.716	0.0745	805432	keystroke_p	p	n/a
402.8355	0.105	805671	keystroke_e	e	n/a
403.0455	0.105	806091	keystroke_x	x	n/a
403.2105	0.075	806421	keystroke_Key.enter	Key.enter	n/a
403.29	7.362	806580	prompt	n/a	cloudy tackle dumb removal\n
404.1555	0.12	808311	keystroke_c	c	n/a
404.2905	0.12	808581	keystroke_l	l	n/a
404.5005	0.045	809001	keystroke_u	u	n/a
405.16	0.045	810320	keystroke_Key.backspace	Key.backspace	n/a
405.595	0.121	811190	keystroke_o	o	n/a
405.685	0.091	811370	keystroke_u	u	n/a
405.866	0.09	811732	keystroke_d	d	n/a
406.166	0.0745	812332	keystroke_y	y	n/a
406.3605	0.12	812721	keystroke_Key.space	Key.space	n/a
406.7505	0.09	813501	keystroke_t	t	n/a
406.8705	0.15	813741	keystroke_a	a	n/a
407.0655	0.105	814131	keystroke_c	c	n/a
407.2005	0.075	814401	keystroke_k	k	n/a
407.3805	0.12	814761	keystroke_l	l	n/a
407.5155	0.105	815031	keystroke_e	e	n/a
407.7105	0.135	815421	keystroke_Key.space	Key.space	n/a
408.2355	0.09	816471	keystroke_d	d	n/a
408.3855	0.06	816771	keystroke_u	u	n/a
408.5805	0.0905	817161	keystroke_m	m	n/a
408.7455	0.09	817491	keystroke_b	b	n/a
408.9555	0.075	817911	keystroke_Key.space	Key.space	n/a
409.2555	0.135	818511	keystroke_r	r	n/a
409.3605	0.12	818721	keystroke_e	e	n/a
409.6155	0.06	819231	keystroke_m	m	n/a
409.7655	0.09	819531	keystroke_o	o	n/a
409.8405	0.075	819681	keystroke_v	v	n/a
410.2455	0.105	820491	keystroke_a	a	n/a
410.3655	0.09	820731	keystroke_l	l	n/a
410.5905	0.06	821181	keystroke_Key.enter	Key.enter	n/a
410.655	11.712	821310	prompt	n/a	trackbacks thailand wound conspiracy\n
411.3705	0.105	822741	keystroke_t	t	n/a
411.6105	0.09	823221	keystroke_r	r	n/a
411.746	0.12	823492	keystroke_a	a	n/a
411.941	0.105	823882	keystroke_c	c	n/a
412.046	0.06	824092	keystroke_k	k	n/a
412.271	0.105	824542	keystroke_b	b	n/a
412.421	0.135	824842	keystroke_a	a	n/a
413.141	0.045	826282	keystroke_c	c	n/a
413.201	0.045	826402	keystroke_k	k	n/a
413.291	0.105	826582	keystroke_s	s	n/a
413.411	0.135	826822	keystroke_Key.space	Key.space	n/a
413.651	0.09	827302	keystroke_t	t	n/a
413.756	0.075	827512	keystroke_h	h	n/a
413.981	0.075	827962	keystroke_i	i	n/a
414.521	0.06	829042	keystroke_l	l	n/a
414.746	0.15	829492	keystroke_a	a	n/a
414.956	0.045	829912	keystroke_n	n	n/a
415.421	0.045	830842	keystroke_Key.backspace	Key.backspace	n/a
415.751	0.045	831502	keystroke_Key.backspace	Key.backspace	n/a
416.186	0.09	832372	keystroke_Key.backspace	Key.backspace	n/a
416.576	0.06	833152	keystroke_Key.backspace	Key.backspace	n/a
416.741	0.1195	833482	keystroke_a	a	n/a
416.9355	0.06	833871	keystroke_i	i	n/a
417.131	0.09	834262	keystroke_l	l	n/a
417.266	0.15	834532	keystroke_d	d	n/a
417.431	0.12	834862	keystroke_a	a	n/a
417.581	0.045	835162	keystroke_n	n	n/a
417.641	0.105	835282	keystroke_d	d	n/a
418.001	0.1495	836002	keystroke_Key.space	Key.space	n/a
419.336	0.135	838672	keystroke_w	w	n/a
419.486	0.165	838972	keystroke_o	o	n/a
419.621	0.12	839242	keystroke_u	u	n/a
420.056	0.075	840112	keystroke_n	n	n/a
420.19	0.1205	840380	keystroke_d	d	n/a
420.2955	0.135	840591	keystroke_Key.space	Key.space	n/a
420.6555	0.1045	841311	keystroke_c	c	n/a
420.73	0.135	841460	keystroke_o	o	n/a
420.895	0.0905	841790	keystroke_n	n	n/a
421	0.105	842000	keystroke_s	s	n/a
421.135	0.0905	842270	keystroke_p	p	n/a
421.3905	0.09	842781	keystroke_i	i	n/a
421.526	0.09	843052	keystroke_r	r	n/a
421.721	0.135	843442	keystroke_a	a	n/a
421.871	0.105	843742	keystroke_c	c	n/a
422.051	0.075	844102	keystroke_y	y	n/a
422.306	0.06	844612	keystroke_Key.enter	Key.enter	n/a
422.37	8.232	844740	prompt	n/a	mistress workflow ranks engagement\n
423.145	0.09	846290	keystroke_m	m	n/a
423.296	0.074	846592	keystroke_i	i	n/a
423.386	0.105	846772	keystroke_s	s	n/a
423.596	0.09	847192	keystroke_t	t	n/a
423.791	0.105	847582	keystroke_r	r	n/a
423.865	0.106	847730	keystroke_e	e	n/a
424.06	0.09	848120	keystroke_e	e	n/a
424.39	0.1355	848780	keystroke_Key.space	Key.space	n/a
425.1105	0.015	850221	keystroke_Key.backspace	Key.backspace	n/a
425.5155	0.075	851031	keystroke_Key.backspace	Key.backspace	n/a
425.7555	0.075	851511	keystroke_s	s	n/a
426.1005	0.135	852201	keystroke_s	s	n/a
426.3705	0.135	852741	keystroke_Key.space	Key.space	n/a
426.641	0.105	853282	keystroke_w	w	n/a
426.761	0.12	853522	keystroke_o	o	n/a
426.866	0.105	853732	keystroke_r	r	n/a
426.956	0.075	853912	keystroke_k	k	n/a
427.136	0.09	854272	keystroke_f	f	n/a
427.241	0.09	854482	keystroke_l	l	n/a
427.436	0.0895	854872	keystroke_o	o	n/a
427.5405	0.09	855081	keystroke_w	w	n/a
427.7205	0.105	855441	keystroke_Key.space	Key.space	n/a
428.1255	0.135	856251	keystroke_r	r	n/a
428.2755	0.15	856551	keystroke_a	a	n/a
428.4105	0.15	856821	keystroke_n	n	n/a
428.5455	0.09	857091	keystroke_k	k	n/a
428.6505	0.12	857301	keystroke_s	s	n/a
428.7405	0.135	857481	keystroke_Key.space	Key.space	n/a
428.9955	0.1055	857991	keystroke_e	e	n/a
429.131	0.06	858262	keystroke_n	n	n/a
429.341	0.09	858682	keystroke_g	g	n/a
429.536	0.165	859072	keystroke_a	a	n/a
429.731	0.0895	859462	keystroke_g	g	n/a
429.9105	0.06	859821	keystroke_e	e	n/a
430.0155	0.06	860031	keystroke_m	m	n/a
430.1055	0.12	860211	keystroke_e	e	n/a
430.2405	0.045	860481	keystroke_n	n	n/a
430.3455	0.09	860691	keystroke_t	t	n/a
430.5405	0.06	861081	keystroke_Key.enter	Key.enter	n/a
430.6045	11.353	861209	prompt	n/a	switched breaks keyboards wants\n
431.4255	0.105	862851	keystroke_w	w	n/a
432.056	0.0745	864112	keystroke_Key.backspace	Key.backspace	n/a
432.1605	0.0905	864321	keystroke_s	s	n/a
432.3705	0.075	864741	keystroke_w	w	n/a
433.481	0.06	866962	keystroke_i	i	n/a
433.6305	0.105	867261	keystroke_t	t	n/a
433.946	0.104	867892	keystroke_c	c	n/a
434.53	0.06	869060	keystroke_h	h	n/a
434.696	0.075	869392	keystroke_e	e	n/a
434.876	0.15	869752	keystroke_d	d	n/a
434.981	0.15	869962	keystroke_Key.space	Key.space	n/a
435.296	0.0895	870592	keystroke_b	b	n/a
435.5355	0.18	871071	keystroke_r	r	n/a
435.6405	0.165	871281	keystroke_e	e	n/a
435.7605	0.105	871521	keystroke_a	a	n/a
435.8805	0.075	871761	keystroke_k	k	n/a
436.0155	0.12	872031	keystroke_s	s	n/a
436.1655	0.15	872331	keystroke_Key.space	Key.space	n/a
436.5405	0.105	873081	keystroke_k	k	n/a
436.751	0.074	873502	keystroke_e	e	n/a
436.901	0.074	873802	keystroke_y	y	n/a
437.6505	0.12	875301	keystroke_b	b	n/a
438.101	0.09	876202	keystroke_o	o	n/a
438.236	0.18	876472	keystroke_a	a	n/a
438.386	0.12	876772	keystroke_r	r	n/a
438.581	0.165	877162	keystroke_d	d	n/a
438.761	0.09	877522	keystroke_Key.space	Key.space	n/a
438.956	0.105	877912	keystroke_w	w	n/a
439.121	0.06	878242	keystroke_n	n	n/a
439.136	0.195	878272	keystroke_a	a	n/a
439.331	0.135	878662	keystroke_t	t	n/a
439.961	0.06	879922	keystroke_Key.backspace	Key.backspace	n/a
440.3655	0.075	880731	keystroke_Key.backspace	Key.backspace	n/a
440.7855	0.075	881571	keystroke_Key.backspace	Key.backspace	n/a
441.1155	0.1205	882231	keystroke_a	a	n/a
441.236	0.045	882472	keystroke_n	n	n/a
441.386	0.09	882772	keystroke_t	t	n/a
441.611	0.12	883222	keystroke_s	s	n/a
441.896	0.06	883792	keystroke_Key.enter	Key.enter	n/a
441.962	4.421	883924	prompt	n/a	fish earning lower chase\n
442.556	0.105	885112	keystroke_f	f	n/a
442.691	0.075	885382	keystroke_i	i	n/a
442.811	0.09	885622	keystroke_s	s	n/a
442.916	0.0745	885832	keystroke_h	h	n/a
443.0055	0.135	886011	keystroke_Key.space	Key.space	n/a
443.2155	0.24	886431	keystroke_e	e	n/a
443.3505	0.09	886701	keystroke_a	a	n/a
443.4255	0.105	886851	keystroke_r	r	n/a
443.5905	0.09	887181	keystroke_n	n	n/a
443.7255	0.075	887451	keystroke_i	i	n/a
443.8905	0.105	887781	keystroke_n	n	n/a
444.0105	0.165	888021	keystroke_g	g	n/a
444.1905	0.12	888381	keystroke_Key.space	Key.space	n/a
444.5205	0.09	889041	keystroke_l	l	n/a
444.7005	0.135	889401	keystroke_o	o	n/a
444.7905	0.135	889581	keystroke_w	w	n/a
444.9105	0.15	889821	keystroke_e	e	n/a
445.0305	0.165	890061	keystroke_r	r	n/a
445.2555	0.135	890511	keystroke_Key.space	Key.space	n/a
445.6755	0.105	891351	keystroke_c	c	n/a
445.7355	0.06	891471	keystroke_h	h	n/a
445.8405	0.165	891681	keystroke_a	a	n/a
445.9755	0.15	891951	keystroke_s	s	n/a
446.0955	0.105	892191	keystroke_e	e	n/a
446.3205	0.06	892641	keystroke_Key.enter	Key.enter	n/a
446.3875	14.065	892775	prompt	n/a	memphis exploration skirt diagnostic\n
447.071	0.105	894142	keystroke_m	m	n/a
447.206	0.12	894412	keystroke_e	e	n/a
447.356	0.09	894712	keystroke_m	m	n/a
447.491	0.09	894982	keystroke_e	e	n/a
448.961	0.0295	897922	keystroke_Key.backspace	Key.backspace	n/a
449.591	0.0745	899182	keystroke_h	h	n/a
449.741	0.105	899482	keystroke_o	o	n/a
450.5055	0.09	901011	keystroke_Key.backspace	Key.backspace	n/a
450.8655	0.09	901731	keystroke_Key.backspace	Key.backspace	n/a
452.021	0.06	904042	keystroke_p	p	n/a
452.351	0.075	904702	keystroke_h	h	n/a
452.5605	0.0755	905121	keystroke_i	i	n/a
452.6805	0.1505	905361	keystroke_s	s	n/a
452.861	0.135	905722	keystroke_Key.space	Key.space	n/a
453.281	0.06	906562	keystroke_e	e	n/a
453.9855	0.135	907971	keystroke_x	x	n/a
454.3005	0.09	908601	keystroke_p	p	n/a
454.781	0.12	909562	keystroke_o	o	n/a
455.2605	0.06	910521	keystroke_Key.backspace	Key.backspace	n/a
455.516	0.075	911032	keystroke_l	l	n/a
455.726	0.09	911452	keystroke_o	o	n/a
455.831	0.09	911662	keystroke_r	r	n/a
455.996	0.135	911992	keystroke_a	a	n/a
456.176	0.09	912352	keystroke_t	t	n/a
456.251	0.27	912502	keystroke_i	i	n/a
456.386	0.18	912772	keystroke_o	o	n/a
456.551	0.135	913102	keystroke_n	n	n/a
456.701	0.12	913402	keystroke_Key.space	Key.space	n/a
456.896	0.135	913792	keystroke_s	s	n/a
457.046	0.09	914092	keystroke_k	k	n/a
457.241	0.075	914482	keystroke_i	i	n/a
457.406	0.105	914812	keystroke_r	r	n/a
457.616	0.12	915232	keystroke_t	t	n/a
457.856	0.12	915712	keystroke_Key.space	Key.space	n/a
458.1105	0.075	916221	keystroke_d	d	n/a
458.2905	0.0905	916581	keystroke_i	i	n/a
458.516	0.135	917032	keystroke_a	a	n/a
458.981	0.0895	917962	keystroke_g	g	n/a
459.1455	0.09	918291	keystroke_n	n	n/a
459.4755	0.105	918951	keystroke_o	o	n/a
459.7005	0.12	919401	keystroke_s	s	n/a
459.8955	0.075	919791	keystroke_t	t	n/a
459.9555	0.09	919911	keystroke_i	i	n/a
460.1805	0.09	920361	keystroke_c	c	n/a
460.3905	0.06	920781	keystroke_Key.enter	Key.enter	n/a
460.455	8.1725	920910	prompt	n/a	gage likewise staff pupils\n
461.3955	0.105	922791	keystroke_g	g	n/a
461.6205	0.12	923241	keystroke_a	a	n/a
462.1005	0.0755	924201	keystroke_g	g	n/a
462.2955	0.135	924591	keystroke_e	e	n/a
462.4455	0.1505	924891	keystroke_Key.space	Key.space	n/a
462.581	0.09	925162	keystroke_l	l	n/a
462.7455	0.06	925491	keystroke_i	i	n/a
462.9255	0.105	925851	keystroke_k	k	n/a
463.1055	0.12	926211	keystroke_e	e	n/a
463.3605	0.105	926721	keystroke_w	w	n/a
463.5555	0.075	927111	keystroke_i	i	n/a
463.7055	0.18	927411	keystroke_s	s	n/a
463.841	0.1195	927682	keystroke_e	e	n/a
464.0655	0.12	928131	keystroke_Key.space	Key.space	n/a
464.3805	0.12	928761	keystroke_s	s	n/a
464.5755	0.105	929151	keystroke_t	t	n/a
464.7705	0.09	929541	keystroke_a	a	n/a
464.9665	0.089	929933	keystroke_f	f	n/a
465.1755	0.06	930351	keystroke_f	f	n/a
465.5655	0.105	931131	keystroke_Key.space	Key.space	n/a
465.8805	0.09	931761	keystroke_p	p	n/a
466.0455	0.091	932091	keystroke_u	u	n/a
466.6015	0.075	933203	keystroke_i	i	n/a
467.1855	0.06	934371	keystroke_Key.backspace	Key.backspace	n/a
467.8455	0.046	935691	keystroke_p	p	n/a
468.1005	0.06	936201	keystroke_i	i	n/a
468.2655	0.075	936531	keystroke_l	l	n/a
468.4165	0.089	936833	keystroke_s	s	n/a
468.5655	0.06	937131	keystroke_Key.enter	Key.enter	n/a
468.6305	8.8315	937261	prompt	n/a	damaged selective vatican mails\n
469.2855	0.09	938571	keystroke_d	d	n/a
469.5555	0.12	939111	keystroke_a	a	n/a
469.7055	0.075	939411	keystroke_m	m	n/a
469.8255	0.12	939651	keystroke_a	a	n/a
469.9755	0.105	939951	keystroke_g	g	n/a
470.1405	0.09	940281	keystroke_e	e	n/a
470.3505	0.105	940701	keystroke_d	d	n/a
470.4705	0.12	940941	keystroke_Key.space	Key.space	n/a
470.8605	0.105	941721	keystroke_s	s	n/a
471.0105	0.09	942021	keystroke_e	e	n/a
471.2205	0.075	942441	keystroke_l	l	n/a
471.2805	0.12	942561	keystroke_e	e	n/a
471.6555	0.15	943311	keystroke_c	c	n/a
471.9255	0.075	943851	keystroke_t	t	n/a
472.0155	0.075	944031	keystroke_i	i	n/a
472.2105	0.09	944421	keystroke_v	v	n/a
472.3755	0.12	944751	keystroke_e	e	n/a
472.6155	0.09	945231	keystroke_Key.space	Key.space	n/a
473.906	0.135	947812	keystroke_v	v	n/a
474.131	0.135	948262	keystroke_a	a	n/a
474.431	0.105	948862	keystroke_t	t	n/a
475.286	0.045	950572	keystroke_i	i	n/a
475.481	0.135	950962	keystroke_c	c	n/a
475.631	0.0895	951262	keystroke_a	a	n/a
475.7355	0.06	951471	keystroke_n	n	n/a
475.8405	0.105	951681	keystroke_Key.space	Key.space	n/a
476.4105	0.12	952821	keystroke_m	m	n/a
476.5455	0.12	953091	keystroke_a	a	n/a
476.7255	0.075	953451	keystroke_i	i	n/a
476.9055	0.12	953811	keystroke_l	l	n/a
477.161	0.1205	954322	keystroke_s	s	n/a
477.4015	0.0595	954803	keystroke_Key.enter	Key.enter	n/a
477.465	12.6125	954930	prompt	n/a	killed liquid porcelain exclusive\n
478.151	0.105	956302	keystroke_k	k	n/a
478.451	0.075	956902	keystroke_i	i	n/a
478.616	0.09	957232	keystroke_l	l	n/a
478.7805	0.105	957561	keystroke_l	l	n/a
478.9005	0.09	957801	keystroke_e	e	n/a
479.1105	0.12	958221	keystroke_d	d	n/a
479.2455	0.075	958491	keystroke_Key.space	Key.space	n/a
479.3655	0.105	958731	keystroke_l	l	n/a
479.8155	0.1055	959631	keystroke_i	i	n/a
480.1155	0.0905	960231	keystroke_q	q	n/a
480.3405	0.1505	960681	keystroke_u	u	n/a
480.506	0.105	961012	keystroke_i	i	n/a
481.316	0.06	962632	keystroke_Key.backspace	Key.backspace	n/a
481.466	0.105	962932	keystroke_d	d	n/a
481.676	0.135	963352	keystroke_Key.space	Key.space	n/a
482.276	0.12	964552	keystroke_Key.backspace	Key.backspace	n/a
483.401	0.075	966802	keystroke_Key.backspace	Key.backspace	n/a
484.256	0.075	968512	keystroke_i	i	n/a
484.406	0.12	968812	keystroke_d	d	n/a
484.511	0.12	969022	keystroke_Key.space	Key.space	n/a
484.841	0.075	969682	keystroke_p	p	n/a
485.066	0.12	970132	keystroke_o	o	n/a
485.171	0.105	970342	keystroke_r	r	n/a
485.456	0.1795	970912	keystroke_c	c	n/a
485.6515	0.045	971303	keystroke_e	e	n/a
485.7415	0.12	971483	keystroke_l	l	n/a
486.4605	0.105	972921	keystroke_a	a	n/a
486.6105	0.09	973221	keystroke_i	i	n/a
486.8055	0.075	973611	keystroke_n	n	n/a
486.9105	0.136	973821	keystroke_Key.space	Key.space	n/a
487.3465	0.09	974693	keystroke_e	e	n/a
487.7215	0.075	975443	keystroke_x	x	n/a
488.0655	0.135	976131	keystroke_c	c	n/a
488.2315	0.119	976463	keystroke_l	l	n/a
488.4405	0.06	976881	keystroke_u	u	n/a
489.0105	0.091	978021	keystroke_s	s	n/a
489.1305	0.09	978261	keystroke_i	i	n/a
489.3555	0.015	978711	keystroke_v	v	n/a
489.8055	0.0905	979611	keystroke_e	e	n/a
490.016	0.06	980032	keystroke_Key.enter	Key.enter	n/a
490.0805	8.743	980161	prompt	n/a	sunrise tutorial buildings elvis\n
490.796	0.045	981592	keystroke_s	s	n/a
490.871	0.06	981742	keystroke_u	u	n/a
491.051	0.075	982102	keystroke_n	n	n/a
491.261	0.12	982522	keystroke_r	r	n/a
491.396	0.06	982792	keystroke_i	i	n/a
491.501	0.165	983002	keystroke_s	s	n/a
491.621	0.12	983242	keystroke_e	e	n/a
491.801	0.0745	983602	keystroke_Key.space	Key.space	n/a
492.0555	0.1055	984111	keystroke_t	t	n/a
492.311	0.075	984622	keystroke_u	u	n/a
492.716	0.105	985432	keystroke_t	t	n/a
493.196	0.09	986392	keystroke_o	o	n/a
493.346	0.075	986692	keystroke_r	r	n/a
493.466	0.075	986932	keystroke_i	i	n/a
493.571	0.12	987142	keystroke_a	a	n/a
493.706	0.105	987412	keystroke_l	l	n/a
493.811	0.12	987622	keystroke_Key.space	Key.space	n/a
494.576	0.09	989152	keystroke_b	b	n/a
494.8155	0.075	989631	keystroke_u	u	n/a
495.0405	0.105	990081	keystroke_l	l	n/a
495.2805	0.09	990561	keystroke_i	i	n/a
496.0465	0.15	992093	keystroke_Key.backspace	Key.backspace	n/a
496.3615	0.075	992723	keystroke_Key.backspace	Key.backspace	n/a
496.6015	0.075	993203	keystroke_i	i	n/a
496.7965	0.09	993593	keystroke_l	l	n/a
496.9315	0.09	993863	keystroke_d	d	n/a
497.0805	0.076	994161	keystroke_i	i	n/a
497.2765	0.074	994553	keystroke_n	n	n/a
497.3515	0.12	994703	keystroke_g	g	n/a
497.5155	0.1355	995031	keystroke_Key.space	Key.space	n/a
497.741	0.06	995482	keystroke_e	e	n/a
497.891	0.09	995782	keystroke_l	l	n/a
498.2805	0.1205	996561	keystroke_v	v	n/a
498.446	0.075	996892	keystroke_i	i	n/a
498.566	0.12	997132	keystroke_s	s	n/a
498.7755	0.045	997551	keystroke_Key.enter	Key.enter	n/a
498.8275	6.685	997655	prompt	n/a	pill tiles dancing serial\n
499.4655	0.075	998931	keystroke_p	p	n/a
499.6305	0.075	999261	keystroke_i	i	n/a
499.8105	0.075	999621	keystroke_l	l	n/a
499.9455	0.09	999891	keystroke_l	l	n/a
500.0205	0.105	1000041	keystroke_Key.space	Key.space	n/a
500.2005	0.106	1000401	keystroke_t	t	n/a
500.2915	0.06	1000583	keystroke_i	i	n/a
500.4565	0.12	1000913	keystroke_l	l	n/a
500.5315	0.179	1001063	keystroke_e	e	n/a
500.6955	0.1505	1001391	keystroke_s	s	n/a
500.891	0.15	1001782	keystroke_Key.space	Key.space	n/a
501.281	0.1045	1002562	keystroke_d	d	n/a
501.3705	0.135	1002741	keystroke_a	a	n/a
501.5205	0.075	1003041	keystroke_n	n	n/a
501.6265	0.134	1003253	keystroke_c	c	n/a
501.7305	0.076	1003461	keystroke_i	i	n/a
501.9255	0.075	1003851	keystroke_n	n	n/a
502.0155	0.165	1004031	keystroke_g	g	n/a
502.1655	0.135	1004331	keystroke_Key.space	Key.space	n/a
502.6905	0.15	1005381	keystroke_s	s	n/a
502.9305	0.03	1005861	keystroke_e	e	n/a
502.9455	0.106	1005891	keystroke_r	r	n/a
503.1115	0.075	1006223	keystroke_i	i	n/a
503.2615	0.165	1006523	keystroke_c	c	n/a
503.4115	0.135	1006823	keystroke_a	a	n/a
503.5315	0.075	1007063	keystroke_l	l	n/a
504.0255	0.06	1008051	keystroke_Key.backspace	Key.backspace	n/a
504.4605	0.06	1008921	keystroke_Key.backspace	Key.backspace	n/a
504.8505	0.06	1009701	keystroke_Key.backspace	Key.backspace	n/a
505.0155	0.105	1010031	keystroke_a	a	n/a
505.1505	0.09	1010301	keystroke_l	l	n/a
505.4205	0.09	1010841	keystroke_Key.enter	Key.enter	n/a
505.5155	16.287	1011031	prompt	n/a	endorsement cardiac techniques asia\n
506.276	0.105	1012552	keystroke_e	e	n/a
506.561	0.06	1013122	keystroke_d	d	n/a
507.1605	0.0455	1014321	keystroke_Key.backspace	Key.backspace	n/a
507.401	0.075	1014802	keystroke_n	n	n/a
507.521	0.1205	1015042	keystroke_d	d	n/a
507.7455	0.091	1015491	keystroke_o	o	n/a
507.8505	0.091	1015701	keystroke_r	r	n/a
508.1055	0.151	1016211	keystroke_s	s	n/a
508.2265	0.075	1016453	keystroke_e	e	n/a
508.4065	0.089	1016813	keystroke_m	m	n/a
508.5115	0.119	1017023	keystroke_e	e	n/a
508.6465	0.059	1017293	keystroke_n	n	n/a
508.781	0.105	1017562	keystroke_t	t	n/a
509.051	0.12	1018102	keystroke_Key.space	Key.space	n/a
509.336	0.12	1018672	keystroke_c	c	n/a
509.546	0.195	1019092	keystroke_a	a	n/a
509.756	0.09	1019512	keystroke_r	r	n/a
510.101	0.09	1020202	keystroke_d	d	n/a
510.251	0.0745	1020502	keystroke_i	i	n/a
510.5055	0.135	1021011	keystroke_a	a	n/a
510.7005	0.1505	1021401	keystroke_c	c	n/a
510.896	0.1195	1021792	keystroke_Key.space	Key.space	n/a
511.1955	0.015	1022391	keystroke_t	t	n/a
511.256	0.1045	1022512	keystroke_e	e	n/a
511.5105	0.12	1023021	keystroke_c	c	n/a
511.6905	0.0755	1023381	keystroke_h	h	n/a
511.8855	0.06	1023771	keystroke_n	n	n/a
512.0205	0.075	1024041	keystroke_i	i	n/a
512.2005	0.09	1024401	keystroke_q	q	n/a
512.3205	0.075	1024641	keystroke_u	u	n/a
512.4855	0.091	1024971	keystroke_i	i	n/a
512.726	0.135	1025452	keystroke_e	e	n/a
512.876	0.135	1025752	keystroke_s	s	n/a
513.056	0.09	1026112	keystroke_Key.space	Key.space	n/a
513.266	0.12	1026532	keystroke_a	a	n/a
513.566	0.09	1027132	keystroke_s	s	n/a
513.746	0.06	1027492	keystroke_i	i	n/a
513.866	0.135	1027732	keystroke_s	s	n/a
514.7205	0.06	1029441	keystroke_Key.backspace	Key.backspace	n/a
515.2005	0.075	1030401	keystroke_Key.backspace	Key.backspace	n/a
515.6665	0.075	1031333	keystroke_Key.backspace	Key.backspace	n/a
516.4455	0.075	1032891	keystroke_Key.backspace	Key.backspace	n/a
517.301	0.06	1034602	keystroke_Key.backspace	Key.backspace	n/a
517.856	0.06	1035712	keystroke_Key.backspace	Key.backspace	n/a
518.396	0.06	1036792	keystroke_Key.backspace	Key.backspace	n/a
519.071	0.06	1038142	keystroke_Key.backspace	Key.backspace	n/a
519.821	0.09	1039642	keystroke_e	e	n/a
520.061	0.105	1040122	keystroke_s	s	n/a
520.226	0.15	1040452	keystroke_Key.space	Key.space	n/a
521.0355	0.09	1042071	keystroke_a	a	n/a
521.2305	0.105	1042461	keystroke_s	s	n/a
521.3965	0.09	1042793	keystroke_i	i	n/a
521.5165	0.089	1043033	keystroke_a	a	n/a
521.7565	0.044	1043513	keystroke_Key.enter	Key.enter	n/a
521.805	7.1375	1043610	prompt	n/a	concentration hilton grab rooms\n
522.5815	0.104	1045163	keystroke_c	c	n/a
522.7155	0.105	1045431	keystroke_o	o	n/a
522.8805	0.075	1045761	keystroke_n	n	n/a
523.2555	0.12	1046511	keystroke_c	c	n/a
523.646	0.09	1047292	keystroke_e	e	n/a
523.766	0.075	1047532	keystroke_n	n	n/a
523.9155	0.09	1047831	keystroke_t	t	n/a
524.1255	0.105	1048251	keystroke_r	r	n/a
524.2755	0.1505	1048551	keystroke_a	a	n/a
524.4555	0.09	1048911	keystroke_t	t	n/a
524.5605	0.2255	1049121	keystroke_i	i	n/a
524.6955	0.211	1049391	keystroke_o	o	n/a
524.8915	0.135	1049783	keystroke_n	n	n/a
525.0415	0.105	1050083	keystroke_Key.space	Key.space	n/a
525.296	0.09	1050592	keystroke_h	h	n/a
525.491	0.075	1050982	keystroke_i	i	n/a
525.641	0.105	1051282	keystroke_l	l	n/a
525.821	0.09	1051642	keystroke_t	t	n/a
525.912	0.089	1051824	keystroke_o	o	n/a
526.076	0.09	1052152	keystroke_n	n	n/a
526.211	0.09	1052422	keystroke_Key.space	Key.space	n/a
526.586	0.075	1053172	keystroke_g	g	n/a
526.7655	0.0905	1053531	keystroke_r	r	n/a
527.051	0.1345	1054102	keystroke_a	a	n/a
527.3055	0.045	1054611	keystroke_b	b	n/a
527.6655	0.15	1055331	keystroke_Key.space	Key.space	n/a
528.176	0.075	1056352	keystroke_r	r	n/a
528.311	0.0745	1056622	keystroke_o	o	n/a
528.4755	0.1205	1056951	keystroke_o	o	n/a
528.611	0.09	1057222	keystroke_m	m	n/a
528.7465	0.105	1057493	keystroke_s	s	n/a
528.896	0.045	1057792	keystroke_Key.enter	Key.enter	n/a
528.9455	6.237	1057891	prompt	n/a	eminem southern peer these\n
529.661	0.045	1059322	keystroke_e	e	n/a
529.901	0.045	1059802	keystroke_m	m	n/a
530.186	0.0595	1060372	keystroke_i	i	n/a
530.3655	0.061	1060731	keystroke_n	n	n/a
530.5305	0.075	1061061	keystroke_e	e	n/a
530.6505	0.0905	1061301	keystroke_m	m	n/a
530.771	0.15	1061542	keystroke_Key.space	Key.space	n/a
531.371	0.105	1062742	keystroke_s	s	n/a
531.476	0.15	1062952	keystroke_o	o	n/a
531.5955	0.0755	1063191	keystroke_u	u	n/a
532.031	0.09	1064062	keystroke_t	t	n/a
532.136	0.06	1064272	keystroke_h	h	n/a
532.256	0.135	1064512	keystroke_e	e	n/a
532.346	0.135	1064692	keystroke_r	r	n/a
532.541	0.06	1065082	keystroke_n	n	n/a
532.661	0.12	1065322	keystroke_Key.space	Key.space	n/a
532.901	0.075	1065802	keystroke_p	p	n/a
532.991	0.165	1065982	keystroke_e	e	n/a
533.351	0.09	1066702	keystroke_e	e	n/a
533.591	0.12	1067182	keystroke_r	r	n/a
533.786	0.135	1067572	keystroke_Key.space	Key.space	n/a
534.146	0.09	1068292	keystroke_t	t	n/a
534.206	0.075	1068412	keystroke_h	h	n/a
534.326	0.195	1068652	keystroke_e	e	n/a
534.476	0.195	1068952	keystroke_s	s	n/a
534.626	0.105	1069252	keystroke_e	e	n/a
535.166	0.015	1070332	keystroke_Key.enter	Key.enter	n/a
535.187	8.8455	1070374	prompt	n/a	chose jones operated struct\n
536.201	0.09	1072402	keystroke_s	s	n/a
536.321	0.06	1072642	keystroke_h	h	n/a
536.501	0.09	1073002	keystroke_o	o	n/a
536.651	0.1655	1073302	keystroke_s	s	n/a
536.8015	0.104	1073603	keystroke_e	e	n/a
537.3255	0.075	1074651	keystroke_Key.backspace	Key.backspace	n/a
537.7005	0.06	1075401	keystroke_Key.backspace	Key.backspace	n/a
537.9705	0.075	1075941	keystroke_Key.backspace	Key.backspace	n/a
538.4215	0.06	1076843	keystroke_Key.backspace	Key.backspace	n/a
538.7215	0.075	1077443	keystroke_Key.backspace	Key.backspace	n/a
538.9015	0.12	1077803	keystroke_c	c	n/a
539.0665	0.075	1078133	keystroke_h	h	n/a
539.2165	0.09	1078433	keystroke_o	o	n/a
539.3215	0.135	1078643	keystroke_s	s	n/a
539.4265	0.12	1078853	keystroke_e	e	n/a
539.5765	0.15	1079153	keystroke_Key.space	Key.space	n/a
539.8315	0.075	1079663	keystroke_j	j	n/a
540.0265	0.105	1080053	keystroke_o	o	n/a
540.2365	0.075	1080473	keystroke_n	n	n/a
540.3565	0.089	1080713	keystroke_e	e	n/a
540.5365	0.15	1081073	keystroke_s	s	n/a
540.7155	0.09	1081431	keystroke_Key.space	Key.space	n/a
541.3165	0.135	1082633	keystroke_o	o	n/a
541.4515	0.105	1082903	keystroke_p	p	n/a
541.5265	0.135	1083053	keystroke_e	e	n/a
541.6165	0.105	1083233	keystroke_r	r	n/a
541.9165	0.15	1083833	keystroke_a	a	n/a
542.0815	0.09	1084163	keystroke_t	t	n/a
542.3065	0.09	1084613	keystroke_e	e	n/a
542.502	0.1185	1085004	keystroke_d	d	n/a
542.6655	0.06	1085331	keystroke_Key.space	Key.space	n/a
542.8005	0.136	1085601	keystroke_s	s	n/a
542.9665	0.09	1085933	keystroke_t	t	n/a
543.1915	0.075	1086383	keystroke_r	r	n/a
543.3565	0.06	1086713	keystroke_u	u	n/a
543.5065	0.075	1087013	keystroke_c	c	n/a
543.7465	0.075	1087493	keystroke_t	t	n/a
543.971	0.06	1087942	keystroke_Key.enter	Key.enter	n/a
544.0355	8.607	1088071	prompt	n/a	involving trading crafts artist\n
544.661	0.0595	1089322	keystroke_i	i	n/a
544.8405	0.076	1089681	keystroke_n	n	n/a
544.9455	0.091	1089891	keystroke_v	v	n/a
545.0805	0.075	1090161	keystroke_o	o	n/a
545.246	0.105	1090492	keystroke_l	l	n/a
545.456	0.09	1090912	keystroke_o	o	n/a
546.4165	0.06	1092833	keystroke_Key.backspace	Key.backspace	n/a
547.031	0.09	1094062	keystroke_v	v	n/a
547.376	0.06	1094752	keystroke_i	i	n/a
547.586	0.0755	1095172	keystroke_n	n	n/a
547.646	0.15	1095292	keystroke_g	g	n/a
547.781	0.135	1095562	keystroke_Key.space	Key.space	n/a
548.036	0.03	1096072	keystroke_t	t	n/a
548.651	0.1055	1097302	keystroke_r	r	n/a
548.7855	0.135	1097571	keystroke_a	a	n/a
548.9365	0.104	1097873	keystroke_d	d	n/a
549.0855	0.076	1098171	keystroke_i	i	n/a
549.2805	0.075	1098561	keystroke_n	n	n/a
549.3405	0.12	1098681	keystroke_g	g	n/a
549.4305	0.12	1098861	keystroke_Key.space	Key.space	n/a
549.6555	0.09	1099311	keystroke_c	c	n/a
549.8805	0.105	1099761	keystroke_r	r	n/a
550.016	0.1795	1100032	keystroke_a	a	n/a
550.811	0.105	1101622	keystroke_f	f	n/a
551.021	0.09	1102042	keystroke_t	t	n/a
551.231	0.12	1102462	keystroke_s	s	n/a
551.366	0.135	1102732	keystroke_Key.space	Key.space	n/a
551.681	0.12	1103362	keystroke_a	a	n/a
551.816	0.09	1103632	keystroke_r	r	n/a
551.996	0.09	1103992	keystroke_t	t	n/a
552.116	0.075	1104232	keystroke_i	i	n/a
552.2515	0.1345	1104503	keystroke_s	s	n/a
552.401	0.075	1104802	keystroke_t	t	n/a
552.581	0.06	1105162	keystroke_Key.enter	Key.enter	n/a
552.646	8.8165	1105292	prompt	n/a	forgotten chile greg alabama\n
553.2415	0.105	1106483	keystroke_f	f	n/a
553.4215	0.105	1106843	keystroke_o	o	n/a
553.5415	0.06	1107083	keystroke_r	r	n/a
553.7665	0.06	1107533	keystroke_g	g	n/a
553.9755	0.045	1107951	keystroke_o	o	n/a
554.7715	0.06	1109543	keystroke_Key.backspace	Key.backspace	n/a
555.8065	0.045	1111613	keystroke_o	o	n/a
555.9565	0.045	1111913	keystroke_t	t	n/a
556.1065	0.0745	1112213	keystroke_t	t	n/a
556.271	0.09	1112542	keystroke_e	e	n/a
556.391	0.06	1112782	keystroke_n	n	n/a
556.541	0.12	1113082	keystroke_Key.space	Key.space	n/a
556.856	0.135	1113712	keystroke_c	c	n/a
556.961	0.075	1113922	keystroke_h	h	n/a
557.066	0.165	1114132	keystroke_i	i	n/a
557.216	0.105	1114432	keystroke_l	l	n/a
557.351	0.15	1114702	keystroke_e	e	n/a
557.501	0.165	1115002	keystroke_Key.space	Key.space	n/a
557.801	0.0305	1115602	keystroke_g	g	n/a
558.0265	0.135	1116053	keystroke_r	r	n/a
558.1465	0.105	1116293	keystroke_e	e	n/a
558.3715	0.105	1116743	keystroke_g	g	n/a
558.5665	0.18	1117133	keystroke_Key.space	Key.space	n/a
558.7615	0.12	1117523	keystroke_a	a	n/a
559.1815	0.12	1118363	keystroke_l	l	n/a
559.5265	0.105	1119053	keystroke_a	a	n/a
560.2915	0.014	1120583	keystroke_b	b	n/a
560.9815	0.045	1121963	keystroke_a	a	n/a
561.101	0.06	1122202	keystroke_m	m	n/a
561.221	0.105	1122442	keystroke_a	a	n/a
561.401	0.06	1122802	keystroke_Key.enter	Key.enter	n/a
561.465	7.108	1122930	prompt	n/a	aging measuring debt causes\n
562.136	0.09	1124272	keystroke_a	a	n/a
562.481	0.09	1124962	keystroke_g	g	n/a
562.691	0.075	1125382	keystroke_i	i	n/a
562.931	0.06	1125862	keystroke_n	n	n/a
563.021	0.165	1126042	keystroke_g	g	n/a
563.171	0.135	1126342	keystroke_Key.space	Key.space	n/a
563.366	0.105	1126732	keystroke_m	m	n/a
563.456	0.135	1126912	keystroke_e	e	n/a
563.576	0.12	1127152	keystroke_a	a	n/a
564.596	0.105	1129192	keystroke_s	s	n/a
564.9705	0.076	1129941	keystroke_u	u	n/a
565.1055	0.106	1130211	keystroke_r	r	n/a
565.1955	0.09	1130391	keystroke_i	i	n/a
565.4065	0.075	1130813	keystroke_n	n	n/a
565.4655	0.135	1130931	keystroke_g	g	n/a
565.5855	0.1355	1131171	keystroke_Key.space	Key.space	n/a
566.156	0.105	1132312	keystroke_d	d	n/a
566.426	0.015	1132852	keystroke_e	e	n/a
566.546	0.105	1133092	keystroke_b	b	n/a
566.846	0.12	1133692	keystroke_t	t	n/a
567.026	0.1345	1134052	keystroke_Key.space	Key.space	n/a
567.4305	0.135	1134861	keystroke_c	c	n/a
567.6265	0.105	1135253	keystroke_a	a	n/a
567.7315	0.074	1135463	keystroke_u	u	n/a
567.8805	0.165	1135761	keystroke_s	s	n/a
568.0155	0.135	1136031	keystroke_e	e	n/a
568.1655	0.136	1136331	keystroke_s	s	n/a
568.5255	0.045	1137051	keystroke_Key.enter	Key.enter	n/a
568.576	23.232	1137152	prompt	n/a	salon navigator icons trauma\n
569.261	0.09	1138522	keystroke_s	s	n/a
569.396	0.15	1138792	keystroke_a	a	n/a
569.531	0.09	1139062	keystroke_l	l	n/a
569.7265	0.104	1139453	keystroke_o	o	n/a
569.9055	0.091	1139811	keystroke_n	n	n/a
569.9805	0.135	1139961	keystroke_Key.space	Key.space	n/a
570.4015	0.164	1140803	keystroke_v	v	n/a
570.6105	0.1205	1141221	keystroke_a	a	n/a
571.196	0.06	1142392	keystroke_Key.backspace	Key.backspace	n/a
571.511	0.075	1143022	keystroke_Key.backspace	Key.backspace	n/a
572.306	0.12	1144612	keystroke_v	v	n/a
572.486	0.12	1144972	keystroke_a	a	n/a
573.416	0.135	1146832	keystroke_v	v	n/a
573.596	0.075	1147192	keystroke_i	i	n/a
573.9115	0.15	1147823	keystroke_g	g	n/a
574.1065	0.1195	1148213	keystroke_a	a	n/a
574.241	0.06	1148482	keystroke_t	t	n/a
574.721	0.06	1149442	keystroke_Key.backspace	Key.backspace	n/a
575.066	0.075	1150132	keystroke_Key.backspace	Key.backspace	n/a
575.4265	0.045	1150853	keystroke_Key.backspace	Key.backspace	n/a
575.8315	0.075	1151663	keystroke_Key.backspace	Key.backspace	n/a
576.2065	0.06	1152413	keystroke_Key.backspace	Key.backspace	n/a
576.6565	0.06	1153313	keystroke_Key.backspace	Key.backspace	n/a
577.1215	0.045	1154243	keystroke_Key.backspace	Key.backspace	n/a
577.721	0.165	1155442	keystroke_v	v	n/a
578.366	0.045	1156732	keystroke_Key.backspace	Key.backspace	n/a
580.6335	0	1161267	keystroke_n	n	n/a
580.751	0.12	1161502	keystroke_a	a	n/a
581.576	0.12	1163152	keystroke_v	v	n/a
581.741	0.075	1163482	keystroke_i	i	n/a
582.056	0.1055	1164112	keystroke_g	g	n/a
582.2215	0.105	1164443	keystroke_a	a	n/a
582.4315	0.09	1164863	keystroke_t	t	n/a
582.5965	0.12	1165193	keystroke_o	o	n/a
