onset	duration	sample	value	key	prompt_text
8.286	15.6455	16572	prompt	n/a	the quick brown fox jumps over a lazy dog\n
11.3775	0.1515	22755	keystroke_t	t	n/a
11.449	0.1195	22898	keystroke_h	h	n/a
11.5445	0.137	23089	keystroke_e	e	n/a
11.696	0.161	23392	keystroke_Key.space	Key.space	n/a
12.681	0.112	25362	keystroke_q	q	n/a
14.5765	0.088	29153	keystroke_u	u	n/a
14.769	0.08	29538	keystroke_i	i	n/a
14.9125	0.1605	29825	keystroke_v	v	n/a
15.121	0.0955	30242	keystroke_k	k	n/a
15.224	0.128	30448	keystroke_Key.space	Key.space	n/a
15.5525	0.0475	31105	keystroke_Key.backspace	Key.backspace	n/a
15.6805	0.056	31361	keystroke_Key.backspace	Key.backspace	n/a
15.816	0.089	31632	keystroke_Key.backspace	Key.backspace	n/a
16.489	0.103	32978	keystroke_c	c	n/a
16.648	0.1125	33296	keystroke_k	k	n/a
16.768	0.137	33536	keystroke_Key.space	Key.space	n/a
16.969	0.095	33938	keystroke_b	b	n/a
17.08	0.113	34160	keystroke_r	r	n/a
17.225	0.071	34450	keystroke_o	o	n/a
17.304	0.1125	34608	keystroke_w	w	n/a
17.417	0.1035	34834	keystroke_n	n	n/a
17.5045	0.1365	35009	keystroke_Key.space	Key.space	n/a
17.713	0.0955	35426	keystroke_b	b	n/a
18.0405	0.0725	36081	keystroke_Key.backspace	Key.backspace	n/a
18.1845	0.104	36369	keystroke_f	f	n/a
18.3365	0.1115	36673	keystroke_o	o	n/a
18.465	0.1355	36930	keystroke_x	x	n/a
18.5845	0.1595	37169	keystroke_Key.space	Key.space	n/a
18.784	0.105	37568	keystroke_j	j	n/a
18.969	0.0555	37938	keystroke_u	u	n/a
19.1445	0.1125	38289	keystroke_m	m	n/a
19.4965	0.1195	38993	keystroke_s	s	n/a
19.704	0.057	39408	keystroke_Key.backspace	Key.backspace	n/a
20.1525	0.0725	40305	keystroke_p	p	n/a
20.321	0.0865	40642	keystroke_s	s	n/a
20.3445	0.16	40689	keystroke_Key.space	Key.space	n/a
20.528	0.1125	41056	keystroke_o	o	n/a
20.6485	0.112	41297	keystroke_v	v	n/a
20.8725	0.12	41745	keystroke_e	e	n/a
20.9285	0.1435	41857	keystroke_r	r	n/a
21.0165	0.1445	42033	keystroke_Key.space	Key.space	n/a
21.201	0.087	42402	keystroke_a	a	n/a
21.264	0.136	42528	keystroke_Key.space	Key.space	n/a
21.44	0.0885	42880	keystroke_l	l	n/a
21.5685	0.0725	43137	keystroke_a	a	n/a
21.824	0.129	43648	keystroke_y	y	n/a
22.153	0.063	44306	keystroke_Key.backspace	Key.backspace	n/a
22.392	0.089	44784	keystroke_z	z	n/a
22.5445	0.0955	45089	keystroke_y	y	n/a
22.6565	0.1435	45313	keystroke_Key.space	Key.space	n/a
22.816	0.0485	45632	keystroke_t	t	n/a
23.2005	0.0635	46401	keystroke_Key.backspace	Key.backspace	n/a
23.3125	0.072	46625	keystroke_d	d	n/a
23.4885	0.0885	46977	keystroke_o	o	n/a
23.6	0.104	47200	keystroke_g	g	n/a
23.856	0.072	47712	keystroke_Key.enter	Key.enter	n/a
23.938	8.4405	47876	prompt	n/a	hybrid resistance court spider\n
24.7045	0.096	49409	keystroke_h	h	n/a
24.8715	0.0975	49743	keystroke_y	y	n/a
25.113	0.0875	50226	keystroke_p	p	n/a
25.3285	0.1445	50657	keystroke_d	d	n/a
25.577	0.104	51154	keystroke_r	r	n/a
25.689	0.087	51378	keystroke_i	i	n/a
26.1685	0.0715	52337	keystroke_Key.backspace	Key.backspace	n/a
26.328	0.0565	52656	keystroke_Key.backspace	Key.backspace	n/a
26.665	0.0635	53330	keystroke_Key.backspace	Key.backspace	n/a
26.849	0.0555	53698	keystroke_Key.backspace	Key.backspace	n/a
27.3285	0.104	54657	keystroke_b	b	n/a
27.4965	0.088	54993	keystroke_r	r	n/a
27.5925	0.0885	55185	keystroke_i	i	n/a
27.729	0.1035	55458	keystroke_d	d	n/a
27.8165	0.144	55633	keystroke_Key.space	Key.space	n/a
28.089	0.1435	56178	keystroke_r	r	n/a
28.1685	0.1765	56337	keystroke_e	e	n/a
28.2645	0.144	56529	keystroke_s	s	n/a
28.4565	0.088	56913	keystroke_i	i	n/a
28.609	0.12	57218	keystroke_s	s	n/a
28.7205	0.112	57441	keystroke_t	t	n/a
28.8725	0.1125	57745	keystroke_a	a	n/a
28.945	0.1035	57890	keystroke_n	n	n/a
29.129	0.143	58258	keystroke_c	c	n/a
29.13	0.1585	58260	keystroke_Key.space	Key.space	n/a
29.4885	0.072	58977	keystroke_Key.backspace	Key.backspace	n/a
29.793	0.104	59586	keystroke_e	e	n/a
29.9125	0.16	59825	keystroke_Key.space	Key.space	n/a
30.129	0.072	60258	keystroke_o	o	n/a
30.5765	0.056	61153	keystroke_Key.backspace	Key.backspace	n/a
30.6885	0.104	61377	keystroke_c	c	n/a
30.84	0.145	61680	keystroke_o	o	n/a
30.9765	0.104	61953	keystroke_u	u	n/a
31.0645	0.088	62129	keystroke_r	r	n/a
31.2805	0.1205	62561	keystroke_t	t	n/a
31.36	0.128	62720	keystroke_Key.space	Key.space	n/a
31.536	0.1285	63072	keystroke_s	s	n/a
31.625	0.047	63250	keystroke_p	p	n/a
31.824	0.1045	63648	keystroke_i	i	n/a
31.904	0.0965	63808	keystroke_d	d	n/a
31.992	0.153	63984	keystroke_e	e	n/a
32.105	0.1275	64210	keystroke_r	r	n/a
32.304	0.072	64608	keystroke_Key.enter	Key.enter	n/a
32.3835	10.7475	64767	prompt	n/a	variety philadelphia film blogs\n
33.153	0.135	66306	keystroke_c	c	n/a
33.393	0.1195	66786	keystroke_a	a	n/a
33.4805	0.136	66961	keystroke_r	r	n/a
33.625	0.0635	67250	keystroke_i	i	n/a
33.7435	0.169	67487	keystroke_e	e	n/a
33.8965	0.1285	67793	keystroke_t	t	n/a
34.025	0.16	68050	keystroke_y	y	n/a
34.4155	0.0565	68831	keystroke_Key.backspace	Key.backspace	n/a
34.536	0.08	69072	keystroke_Key.backspace	Key.backspace	n/a
34.6805	0.0555	69361	keystroke_Key.backspace	Key.backspace	n/a
34.7995	0.0645	69599	keystroke_Key.backspace	Key.backspace	n/a
34.9285	0.064	69857	keystroke_Key.backspace	Key.backspace	n/a
35.0555	0.0815	70111	keystroke_Key.backspace	Key.backspace	n/a
35.216	0.0885	70432	keystroke_Key.backspace	Key.backspace	n/a
35.696	0.104	71392	keystroke_v	v	n/a
35.92	0.169	71840	keystroke_a	a	n/a
36.097	0.119	72194	keystroke_r	r	n/a
36.224	0.0965	72448	keystroke_i	i	n/a
36.3685	0.144	72737	keystroke_e	e	n/a
36.4805	0.1205	72961	keystroke_t	t	n/a
36.6245	0.136	73249	keystroke_y	y	n/a
36.784	0.184	73568	keystroke_Key.space	Key.space	n/a
37.0645	0.096	74129	keystroke_p	p	n/a
37.3205	0.12	74641	keystroke_h	h	n/a
37.4885	0.1125	74977	keystroke_i	i	n/a
37.6085	0.0875	75217	keystroke_l	l	n/a
37.8325	0.1355	75665	keystroke_a	a	n/a
38.0565	0.0965	76113	keystroke_h	h	n/a
38.512	0.072	77024	keystroke_Key.backspace	Key.backspace	n/a
38.632	0.113	77264	keystroke_d	d	n/a
38.7045	0.1355	77409	keystroke_e	e	n/a
38.896	0.0725	77792	keystroke_l	l	n/a
39.1125	0.088	78225	keystroke_p	p	n/a
39.3765	0.0955	78753	keystroke_h	h	n/a
39.528	0.104	79056	keystroke_i	i	n/a
39.6565	0.144	79313	keystroke_a	a	n/a
39.7525	0.152	79505	keystroke_Key.space	Key.space	n/a
40.129	0.12	80258	keystroke_f	f	n/a
40.2245	0.104	80449	keystroke_i	i	n/a
40.2965	0.1195	80593	keystroke_l	l	n/a
40.608	0.0965	81216	keystroke_m	m	n/a
40.8325	0.1675	81665	keystroke_Key.space	Key.space	n/a
41.1685	0.08	82337	keystroke_b	b	n/a
41.4	0.1125	82800	keystroke_l	l	n/a
41.6325	0.072	83265	keystroke_o	o	n/a
41.7205	0.12	83441	keystroke_g	g	n/a
41.8645	0.128	83729	keystroke_s	s	n/a
43.0165	0.1115	86033	keystroke_Key.enter	Key.enter	n/a
43.1365	6.658	86273	prompt	n/a	fathers snowboard on photography\n
43.9525	0.1125	87905	keystroke_f	f	n/a
44.129	0.119	88258	keystroke_a	a	n/a
44.24	0.128	88480	keystroke_t	t	n/a
44.345	0.1115	88690	keystroke_h	h	n/a
44.432	0.1285	88864	keystroke_e	e	n/a
44.4965	0.1045	88993	keystroke_r	r	n/a
44.5685	0.1365	89137	keystroke_s	s	n/a
44.6165	0.216	89233	keystroke_Key.space	Key.space	n/a
44.8325	0.056	89665	keystroke_n	n	n/a
44.9525	0.072	89905	keystroke_w	w	n/a
45.12	0.056	90240	keystroke_Key.backspace	Key.backspace	n/a
45.2645	0.056	90529	keystroke_Key.backspace	Key.backspace	n/a
45.408	0.096	90816	keystroke_s	s	n/a
45.616	0.096	91232	keystroke_n	n	n/a
45.7925	0.08	91585	keystroke_o	o	n/a
45.8875	0.105	91775	keystroke_w	w	n/a
46.057	0.0955	92114	keystroke_b	b	n/a
46.2725	0.079	92545	keystroke_o	o	n/a
46.4085	0.072	92817	keystroke_a	a	n/a
46.4645	0.0885	92929	keystroke_r	r	n/a
46.6725	0.112	93345	keystroke_d	d	n/a
46.7845	0.136	93569	keystroke_Key.space	Key.space	n/a
47.0395	0.0645	94079	keystroke_o	o	n/a
47.2	0.1045	94400	keystroke_n	n	n/a
47.248	0.1365	94496	keystroke_Key.space	Key.space	n/a
47.4405	0.0885	94881	keystroke_p	p	n/a
47.672	0.0885	95344	keystroke_h	h	n/a
47.8165	0.0635	95633	keystroke_o	o	n/a
48.1205	0.112	96241	keystroke_t	t	n/a
48.2805	0.0715	96561	keystroke_o	o	n/a
48.608	0.097	97216	keystroke_g	g	n/a
48.825	0.1115	97650	keystroke_r	r	n/a
48.913	0.1595	97826	keystroke_a	a	n/a
49.0165	0.0805	98033	keystroke_p	p	n/a
49.2245	0.1115	98449	keystroke_h	h	n/a
49.377	0.0875	98754	keystroke_y	y	n/a
49.7365	0.056	99473	keystroke_Key.enter	Key.enter	n/a
49.7985	8.6675	99597	prompt	n/a	guaranteed athletes manuals wrist\n
50.5205	0.12	101041	keystroke_g	g	n/a
50.6885	0.0955	101377	keystroke_u	u	n/a
50.824	0.1045	101648	keystroke_a	a	n/a
50.944	0.129	101888	keystroke_r	r	n/a
51.0645	0.112	102129	keystroke_a	a	n/a
51.2885	0.104	102577	keystroke_n	n	n/a
51.3995	0.145	102799	keystroke_t	t	n/a
51.584	0.0965	103168	keystroke_e	e	n/a
51.9365	0.1275	103873	keystroke_e	e	n/a
52.0715	0.12	104143	keystroke_d	d	n/a
52.1355	0.177	104271	keystroke_Key.space	Key.space	n/a
52.4725	0.1115	104945	keystroke_a	a	n/a
52.625	0.1355	105250	keystroke_t	t	n/a
52.728	0.096	105456	keystroke_h	h	n/a
52.976	0.056	105952	keystroke_e	e	n/a
53.3285	0.056	106657	keystroke_Key.backspace	Key.backspace	n/a
53.6085	0.088	107217	keystroke_l	l	n/a
53.6965	0.1275	107393	keystroke_e	e	n/a
53.848	0.1045	107696	keystroke_t	t	n/a
54.0315	0.081	108063	keystroke_t	t	n/a
54.128	0.1525	108256	keystroke_e	e	n/a
54.48	0.048	108960	keystroke_Key.backspace	Key.backspace	n/a
54.9365	0.1515	109873	keystroke_e	e	n/a
55.328	0.048	110656	keystroke_Key.backspace	Key.backspace	n/a
55.5685	0.144	111137	keystroke_e	e	n/a
55.8325	0.064	111665	keystroke_Key.backspace	Key.backspace	n/a
55.9845	0.072	111969	keystroke_Key.backspace	Key.backspace	n/a
56.072	0.16	112144	keystroke_e	e	n/a
56.1525	0.12	112305	keystroke_s	s	n/a
56.312	0.192	112624	keystroke_Key.space	Key.space	n/a
56.5125	0.1285	113025	keystroke_m	m	n/a
56.648	0.1285	113296	keystroke_a	a	n/a
56.7675	0.113	113535	keystroke_n	n	n/a
56.9525	0.0955	113905	keystroke_u	u	n/a
57.0885	0.0955	114177	keystroke_a	a	n/a
57.192	0.1285	114384	keystroke_l	l	n/a
57.312	0.1205	114624	keystroke_s	s	n/a
57.4085	0.16	114817	keystroke_Key.space	Key.space	n/a
57.6485	0.112	115297	keystroke_w	w	n/a
57.8005	0.096	115601	keystroke_r	r	n/a
57.8965	0.096	115793	keystroke_i	i	n/a
58.0645	0.128	116129	keystroke_s	s	n/a
58.1605	0.104	116321	keystroke_t	t	n/a
58.392	0.072	116784	keystroke_Key.enter	Key.enter	n/a
58.4695	6.2365	116939	prompt	n/a	distinct besides who'd stream\n
59.352	0.072	118704	keystroke_d	d	n/a
59.4955	0.097	118991	keystroke_i	i	n/a
59.6165	0.128	119233	keystroke_s	s	n/a
59.8005	0.112	119601	keystroke_t	t	n/a
60.0245	0.08	120049	keystroke_i	i	n/a
60.2085	0.12	120417	keystroke_n	n	n/a
60.2965	0.104	120593	keystroke_c	c	n/a
60.8165	0.104	121633	keystroke_t	t	n/a
60.9525	0.1355	121905	keystroke_Key.space	Key.space	n/a
61.249	0.111	122498	keystroke_b	b	n/a
61.336	0.184	122672	keystroke_e	e	n/a
61.44	0.152	122880	keystroke_s	s	n/a
61.608	0.096	123216	keystroke_i	i	n/a
61.728	0.105	123456	keystroke_d	d	n/a
61.784	0.2	123568	keystroke_e	e	n/a
61.904	0.16	123808	keystroke_s	s	n/a
62.04	0.136	124080	keystroke_Key.space	Key.space	n/a
62.272	0.1115	124544	keystroke_w	w	n/a
62.3205	0.088	124641	keystroke_h	h	n/a
62.4725	0.088	124945	keystroke_o	o	n/a
62.7755	0.121	125551	keystroke_'	'	n/a
62.9835	0.089	125967	keystroke_d	d	n/a
63.1125	0.168	126225	keystroke_Key.space	Key.space	n/a
63.5595	0.112	127119	keystroke_s	s	n/a
63.704	0.104	127408	keystroke_t	t	n/a
63.9205	0.12	127841	keystroke_r	r	n/a
63.9675	0.185	127935	keystroke_e	e	n/a
64.1365	0.168	128273	keystroke_a	a	n/a
64.248	0.1125	128496	keystroke_m	m	n/a
64.624	0.08	129248	keystroke_Key.enter	Key.enter	n/a
64.7115	10.0755	129423	prompt	n/a	auction puzzle kenya recovery\n
65.4155	0.145	130831	keystroke_a	a	n/a
65.5525	0.088	131105	keystroke_u	u	n/a
65.6725	0.096	131345	keystroke_c	c	n/a
65.944	0.12	131888	keystroke_t	t	n/a
66.04	0.096	132080	keystroke_i	i	n/a
66.24	0.1115	132480	keystroke_n	n	n/a
66.3195	0.137	132639	keystroke_Key.space	Key.space	n/a
66.5045	0.08	133009	keystroke_p	p	n/a
66.7525	0.08	133505	keystroke_u	u	n/a
66.9205	0.088	133841	keystroke_z	z	n/a
67.4875	0.056	134975	keystroke_Key.backspace	Key.backspace	n/a
67.6395	0.056	135279	keystroke_Key.backspace	Key.backspace	n/a
67.784	0.072	135568	keystroke_Key.backspace	Key.backspace	n/a
67.968	0.056	135936	keystroke_Key.backspace	Key.backspace	n/a
68.128	0.064	136256	keystroke_Key.backspace	Key.backspace	n/a
68.488	0.1125	136976	keystroke_o	o	n/a
68.728	0.128	137456	keystroke_n	n	n/a
68.832	0.16	137664	keystroke_Key.space	Key.space	n/a
69.056	0.0885	138112	keystroke_p	p	n/a
69.328	0.089	138656	keystroke_u	u	n/a
69.5205	0.1115	139041	keystroke_z	z	n/a
70.4645	0.1515	140929	keystroke_z	z	n/a
70.6725	0.135	141345	keystroke_l	l	n/a
70.8555	0.144	141711	keystroke_e	e	n/a
71.264	0.168	142528	keystroke_Key.space	Key.space	n/a
71.44	0.134	142880	keystroke_k	k	n/a
71.576	0.12	143152	keystroke_e	e	n/a
71.7285	0.111	143457	keystroke_n	n	n/a
71.9755	0.0965	143951	keystroke_y	y	n/a
72.0805	0.1515	144161	keystroke_a	a	n/a
72.2885	0.159	144577	keystroke_Key.space	Key.space	n/a
72.4645	0.119	144929	keystroke_r	r	n/a
72.5355	0.1605	145071	keystroke_e	e	n/a
72.784	0.1205	145568	keystroke_c	c	n/a
72.8805	0.111	145761	keystroke_o	o	n/a
73.0725	0.1035	146145	keystroke_v	v	n/a
73.8	0.12	147600	keystroke_e	e	n/a
73.872	0.1525	147744	keystroke_r	r	n/a
74.0475	0.136	148095	keystroke_y	y	n/a
74.6555	0.128	149311	keystroke_Key.enter	Key.enter	n/a
74.791	9.562	149582	prompt	n/a	destination marked resulting photograph\n
76.68	0.096	153360	keystroke_d	d	n/a
76.9285	0.144	153857	keystroke_e	e	n/a
77.0235	0.145	154047	keystroke_s	s	n/a
77.224	0.1595	154448	keystroke_t	t	n/a
77.3285	0.087	154657	keystroke_i	i	n/a
77.4795	0.1365	154959	keystroke_n	n	n/a
77.6075	0.12	155215	keystroke_a	a	n/a
77.72	0.1355	155440	keystroke_t	t	n/a
77.848	0.1195	155696	keystroke_i	i	n/a
77.9285	0.079	155857	keystroke_o	o	n/a
78.0475	0.128	156095	keystroke_n	n	n/a
78.1515	0.1205	156303	keystroke_Key.space	Key.space	n/a
78.48	0.128	156960	keystroke_m	m	n/a
78.575	0.1215	157150	keystroke_a	a	n/a
78.6715	0.1205	157343	keystroke_r	r	n/a
78.7835	0.096	157567	keystroke_k	k	n/a
78.928	0.08	157856	keystroke_e	e	n/a
79.088	0.088	158176	keystroke_d	d	n/a
79.184	0.1195	158368	keystroke_Key.space	Key.space	n/a
79.4235	0.152	158847	keystroke_r	r	n/a
79.472	0.208	158944	keystroke_e	e	n/a
79.608	0.1515	159216	keystroke_s	s	n/a
79.7605	0.095	159521	keystroke_u	u	n/a
79.9835	0.0565	159967	keystroke_l	l	n/a
80.088	0.0965	160176	keystroke_t	t	n/a
80.175	0.0805	160350	keystroke_i	i	n/a
80.5515	0.04	161103	keystroke_Key.backspace	Key.backspace	n/a
81.1915	0.0805	162383	keystroke_i	i	n/a
81.368	0.112	162736	keystroke_n	n	n/a
81.456	0.12	162912	keystroke_g	g	n/a
81.568	0.128	163136	keystroke_Key.space	Key.space	n/a
81.984	0.0965	163968	keystroke_p	p	n/a
82.248	0.072	164496	keystroke_h	h	n/a
82.3925	0.1115	164785	keystroke_o	o	n/a
82.52	0.112	165040	keystroke_t	t	n/a
83.104	0.0875	166208	keystroke_o	o	n/a
83.3115	0.088	166623	keystroke_g	g	n/a
83.544	0.127	167088	keystroke_r	r	n/a
83.664	0.136	167328	keystroke_a	a	n/a
83.7435	0.0965	167487	keystroke_p	p	n/a
83.976	0.0805	167952	keystroke_h	h	n/a
84.272	0.0795	168544	keystroke_Key.enter	Key.enter	n/a
84.356	7.7095	168712	prompt	n/a	activities spank apparent plant\n
84.9835	0.1115	169967	keystroke_a	a	n/a
85.152	0.072	170304	keystroke_c	c	n/a
85.376	0.072	170752	keystroke_t	t	n/a
85.448	0.0875	170896	keystroke_i	i	n/a
85.6235	0.137	171247	keystroke_v	v	n/a
85.7285	0.103	171457	keystroke_i	i	n/a
85.92	0.1355	171840	keystroke_t	t	n/a
86.0085	0.159	172017	keystroke_e	e	n/a
86.4155	0.064	172831	keystroke_Key.backspace	Key.backspace	n/a
86.695	0.121	173390	keystroke_i	i	n/a
86.783	0.1365	173566	keystroke_e	e	n/a
86.8475	0.1365	173695	keystroke_s	s	n/a
86.9355	0.1765	173871	keystroke_Key.space	Key.space	n/a
87.128	0.08	174256	keystroke_s	s	n/a
87.239	0.049	174478	keystroke_p	p	n/a
87.36	0.104	174720	keystroke_a	a	n/a
87.488	0.096	174976	keystroke_n	n	n/a
87.6555	0.1445	175311	keystroke_k	k	n/a
87.784	0.143	175568	keystroke_Key.space	Key.space	n/a
88	0.1275	176000	keystroke_a	a	n/a
88.16	0.064	176320	keystroke_p	p	n/a
88.232	0.079	176464	keystroke_p	p	n/a
88.6795	0.16	177359	keystroke_a	a	n/a
88.7915	0.1205	177583	keystroke_r	r	n/a
88.9835	0.0885	177967	keystroke_n	n	n/a
89.3355	0.064	178671	keystroke_Key.backspace	Key.backspace	n/a
89.432	0.0955	178864	keystroke_e	e	n/a
89.7035	0.08	179407	keystroke_n	n	n/a
89.7595	0.143	179519	keystroke_t	t	n/a
89.8955	0.136	179791	keystroke_Key.space	Key.space	n/a
90.1675	0.176	180335	keystroke_p	p	n/a
90.6875	0.0645	181375	keystroke_k	k	n/a
91.087	0.0645	182174	keystroke_Key.backspace	Key.backspace	n/a
91.3595	0.0955	182719	keystroke_l	l	n/a
91.4885	0.135	182977	keystroke_a	a	n/a
91.631	0.0965	183262	keystroke_n	n	n/a
91.7435	0.1275	183487	keystroke_t	t	n/a
91.9835	0.0795	183967	keystroke_Key.enter	Key.enter	n/a
92.07	7.739	184140	prompt	n/a	conditional citysearch fuji terminology\n
92.688	0.1115	185376	keystroke_c	c	n/a
92.759	0.0885	185518	keystroke_o	o	n/a
92.9275	0.1205	185855	keystroke_n	n	n/a
93.0395	0.104	186079	keystroke_d	d	n/a
93.1835	0.104	186367	keystroke_i	i	n/a
93.2955	0.144	186591	keystroke_t	t	n/a
93.4155	0.096	186831	keystroke_i	i	n/a
93.4795	0.08	186959	keystroke_o	o	n/a
93.6235	0.08	187247	keystroke_n	n	n/a
93.7355	0.104	187471	keystroke_a	a	n/a
93.8875	0.1275	187775	keystroke_l	l	n/a
94.023	0.144	188046	keystroke_Key.space	Key.space	n/a
94.255	0.1205	188510	keystroke_c	c	n/a
94.3515	0.1045	188703	keystroke_i	i	n/a
94.551	0.1285	189102	keystroke_t	t	n/a
94.672	0.1035	189344	keystroke_y	y	n/a
94.8555	0.1115	189711	keystroke_s	s	n/a
95.0635	0.1915	190127	keystroke_e	e	n/a
95.287	0.112	190574	keystroke_a	a	n/a
95.343	0.128	190686	keystroke_r	r	n/a
95.624	0.135	191248	keystroke_c	c	n/a
95.696	0.104	191392	keystroke_h	h	n/a
95.8315	0.1595	191663	keystroke_Key.space	Key.space	n/a
95.967	0.0965	191934	keystroke_f	f	n/a
96.208	0.087	192416	keystroke_u	u	n/a
96.5595	0.112	193119	keystroke_j	j	n/a
96.679	0.113	193358	keystroke_i	i	n/a
97.023	0.16	194046	keystroke_Key.space	Key.space	n/a
97.1675	0.1195	194335	keystroke_t	t	n/a
97.279	0.16	194558	keystroke_e	e	n/a
97.4075	0.1035	194815	keystroke_r	r	n/a
97.528	0.1355	195056	keystroke_m	m	n/a
97.7755	0.0795	195551	keystroke_i	i	n/a
97.943	0.128	195886	keystroke_n	n	n/a
98.152	0.111	196304	keystroke_o	o	n/a
98.519	0.065	197038	keystroke_l	l	n/a
98.783	0.048	197566	keystroke_o	o	n/a
98.8795	0.12	197759	keystroke_g	g	n/a
99.312	0.079	198624	keystroke_y	y	n/a
99.7115	0.0955	199423	keystroke_Key.enter	Key.enter	n/a
99.814	13.0745	199628	prompt	n/a	uncertainty theories needn't raise\n
101.1275	0.1115	202255	keystroke_c	c	n/a
101.471	0.056	202942	keystroke_Key.backspace	Key.backspace	n/a
101.7675	0.096	203535	keystroke_u	u	n/a
101.9275	0.104	203855	keystroke_n	n	n/a
102.0955	0.112	204191	keystroke_c	c	n/a
102.2225	0.201	204445	keystroke_e	e	n/a
102.4	0.104	204800	keystroke_r	r	n/a
102.624	0.1275	205248	keystroke_t	t	n/a
102.824	0.1435	205648	keystroke_a	a	n/a
102.9115	0.0795	205823	keystroke_i	i	n/a
103.063	0.104	206126	keystroke_n	n	n/a
103.2155	0.0885	206431	keystroke_i	i	n/a
103.3995	0.128	206799	keystroke_t	t	n/a
103.5355	0.1205	207071	keystroke_y	y	n/a
103.9275	0.056	207855	keystroke_Key.backspace	Key.backspace	n/a
104.0635	0.0555	208127	keystroke_Key.backspace	Key.backspace	n/a
104.943	0.08	209886	keystroke_Key.backspace	Key.backspace	n/a
105.072	0.1275	210144	keystroke_t	t	n/a
105.28	0.1115	210560	keystroke_y	y	n/a
105.5355	0.192	211071	keystroke_Key.space	Key.space	n/a
105.791	0.12	211582	keystroke_t	t	n/a
105.8795	0.1275	211759	keystroke_h	h	n/a
106.375	0.112	212750	keystroke_e	e	n/a
106.495	0.08	212990	keystroke_o	o	n/a
106.775	0.1125	213550	keystroke_r	r	n/a
106.895	0.088	213790	keystroke_i	i	n/a
106.951	0.2165	213902	keystroke_e	e	n/a
107.079	0.184	214158	keystroke_s	s	n/a
107.303	0.1285	214606	keystroke_Key.space	Key.space	n/a
107.767	0.08	215534	keystroke_n	n	n/a
107.9115	0.072	215823	keystroke_e	e	n/a
108.0715	0.1435	216143	keystroke_e	e	n/a
108.207	0.0885	216414	keystroke_d	d	n/a
108.3515	0.1035	216703	keystroke_n	n	n/a
108.816	0.103	217632	keystroke_;	;	n/a
108.943	0.12	217886	keystroke_t	t	n/a
109.3265	0.057	218653	keystroke_Key.backspace	Key.backspace	n/a
109.4705	0.049	218941	keystroke_Key.backspace	Key.backspace	n/a
109.8395	0.104	219679	keystroke_t	t	n/a
110.111	0.04	220222	keystroke_Key.backspace	Key.backspace	n/a
110.7675	0.0795	221535	keystroke_'	'	n/a
111.071	0.1045	222142	keystroke_t	t	n/a
111.3035	0.167	222607	keystroke_Key.space	Key.space	n/a
112.1115	0.128	224223	keystroke_r	r	n/a
112.303	0.0885	224606	keystroke_a	a	n/a
112.3665	0.112	224733	keystroke_i	i	n/a
112.567	0.144	225134	keystroke_s	s	n/a
112.6315	0.1195	225263	keystroke_e	e	n/a
112.823	0.064	225646	keystroke_Key.enter	Key.enter	n/a
112.892	12.501	225784	prompt	n/a	recommends signature i'll trucks\n
113.504	0.1035	227008	keystroke_r	r	n/a
113.5675	0.16	227135	keystroke_e	e	n/a
113.8555	0.112	227711	keystroke_c	c	n/a
113.9355	0.064	227871	keystroke_o	o	n/a
114.0635	0.256	228127	keystroke_m	m	n/a
114.5665	0.105	229133	keystroke_m	m	n/a
114.663	0.1285	229326	keystroke_e	e	n/a
114.8555	0.104	229711	keystroke_n	n	n/a
114.9275	0.119	229855	keystroke_d	d	n/a
115.0955	0.104	230191	keystroke_s	s	n/a
115.2395	0.112	230479	keystroke_Key.space	Key.space	n/a
115.5195	0.0645	231039	keystroke_i	i	n/a
115.5675	0.104	231135	keystroke_s	s	n/a
115.8235	0.047	231647	keystroke_Key.backspace	Key.backspace	n/a
115.9505	0.073	231901	keystroke_Key.backspace	Key.backspace	n/a
116.0705	0.121	232141	keystroke_s	s	n/a
116.2155	0.104	232431	keystroke_i	i	n/a
116.3755	0.064	232751	keystroke_g	g	n/a
116.5595	0.08	233119	keystroke_n	n	n/a
116.7035	0.144	233407	keystroke_a	a	n/a
116.8635	0.144	233727	keystroke_t	t	n/a
117.183	0.1045	234366	keystroke_u	u	n/a
117.279	0.112	234558	keystroke_r	r	n/a
117.351	0.1285	234702	keystroke_e	e	n/a
117.487	0.136	234974	keystroke_Key.space	Key.space	n/a
117.727	0.096	235454	keystroke_i	i	n/a
117.9755	0.1045	235951	keystroke_t	t	n/a
118.863	0.0715	237726	keystroke_Key.backspace	Key.backspace	n/a
119.2315	0.0715	238463	keystroke_;	;	n/a
119.7835	0.056	239567	keystroke_Key.backspace	Key.backspace	n/a
122.3115	0.104	244623	keystroke_'	'	n/a
123.183	0.088	246366	keystroke_l	l	n/a
123.343	0.2245	246686	keystroke_l	l	n/a
123.9745	0.12	247949	keystroke_Key.space	Key.space	n/a
124.1035	0.135	248207	keystroke_t	t	n/a
124.3435	0.12	248687	keystroke_r	r	n/a
124.5275	0.104	249055	keystroke_u	u	n/a
124.6715	0.128	249343	keystroke_c	c	n/a
124.8225	0.104	249645	keystroke_k	k	n/a
124.9115	0.1435	249823	keystroke_s	s	n/a
125.2795	0.1115	250559	keystroke_Key.enter	Key.enter	n/a
125.3975	7.907	250795	prompt	n/a	valuable therefore game recently\n
126.279	0.1445	252558	keystroke_v	v	n/a
126.576	0.119	253152	keystroke_l	l	n/a
126.639	0.152	253278	keystroke_a	a	n/a
126.903	0.048	253806	keystroke_Key.backspace	Key.backspace	n/a
127.039	0.056	254078	keystroke_Key.backspace	Key.backspace	n/a
127.1675	0.184	254335	keystroke_a	a	n/a
127.3115	0.0955	254623	keystroke_l	l	n/a
127.559	0.088	255118	keystroke_u	u	n/a
127.735	0.144	255470	keystroke_a	a	n/a
128.3675	0.112	256735	keystroke_b	b	n/a
128.7035	0.096	257407	keystroke_l	l	n/a
128.775	0.1595	257550	keystroke_e	e	n/a
128.9185	0.1205	257837	keystroke_Key.space	Key.space	n/a
129.1985	0.112	258397	keystroke_t	t	n/a
129.4385	0.097	258877	keystroke_h	h	n/a
129.527	0.112	259054	keystroke_e	e	n/a
129.6625	0.1285	259325	keystroke_r	r	n/a
129.7585	0.1205	259517	keystroke_e	e	n/a
130.3115	0.0875	260623	keystroke_f	f	n/a
130.391	0.089	260782	keystroke_o	o	n/a
130.5425	0.1205	261085	keystroke_r	r	n/a
130.5985	0.177	261197	keystroke_e	e	n/a
130.7665	0.144	261533	keystroke_Key.space	Key.space	n/a
130.9035	0.111	261807	keystroke_g	g	n/a
131.119	0.0635	262238	keystroke_a	a	n/a
131.1905	0.089	262381	keystroke_m	m	n/a
131.3115	0.16	262623	keystroke_e	e	n/a
131.4865	0.153	262973	keystroke_Key.space	Key.space	n/a
131.8625	0.1125	263725	keystroke_r	r	n/a
131.9105	0.168	263821	keystroke_e	e	n/a
132.1515	0.103	264303	keystroke_c	c	n/a
132.2305	0.145	264461	keystroke_e	e	n/a
132.3585	0.112	264717	keystroke_n	n	n/a
132.4385	0.1205	264877	keystroke_t	t	n/a
132.5985	0.104	265197	keystroke_l	l	n/a
132.8145	0.152	265629	keystroke_y	y	n/a
133.183	0.12	266366	keystroke_Key.enter	Key.enter	n/a
133.3085	4.9005	266617	prompt	n/a	performs null seven bits\n
133.943	0.072	267886	keystroke_p	p	n/a
134.151	0.1045	268302	keystroke_e	e	n/a
134.207	0.0875	268414	keystroke_r	r	n/a
134.4385	0.104	268877	keystroke_f	f	n/a
134.5585	0.073	269117	keystroke_o	o	n/a
134.8225	0.1125	269645	keystroke_r	r	n/a
135.0155	0.08	270031	keystroke_m	m	n/a
135.1035	0.2	270207	keystroke_s	s	n/a
135.3035	0.111	270607	keystroke_Key.space	Key.space	n/a
135.479	0.119	270958	keystroke_n	n	n/a
135.6235	0.0875	271247	keystroke_u	u	n/a
135.967	0.104	271934	keystroke_l	l	n/a
136.375	0.12	272750	keystroke_l	l	n/a
136.527	0.136	273054	keystroke_Key.space	Key.space	n/a
136.671	0.1605	273342	keystroke_s	s	n/a
136.775	0.104	273550	keystroke_e	e	n/a
137.0235	0.103	274047	keystroke_v	v	n/a
137.167	0.144	274334	keystroke_e	e	n/a
137.2555	0.1195	274511	keystroke_n	n	n/a
137.367	0.136	274734	keystroke_Key.space	Key.space	n/a
137.615	0.0885	275230	keystroke_b	b	n/a
137.831	0.064	275662	keystroke_i	i	n/a
137.8635	0.1355	275727	keystroke_t	t	n/a
137.943	0.136	275886	keystroke_s	s	n/a
138.127	0.0795	276254	keystroke_Key.enter	Key.enter	n/a
138.2125	6.2435	276425	prompt	n/a	candidate cast prostores zoning\n
138.8875	0.1425	277775	keystroke_c	c	n/a
139.054	0.129	278108	keystroke_a	a	n/a
139.3185	0.072	278637	keystroke_n	n	n/a
139.439	0.12	278878	keystroke_d	d	n/a
139.6865	0.08	279373	keystroke_i	i	n/a
139.839	0.1195	279678	keystroke_d	d	n/a
139.999	0.096	279998	keystroke_a	a	n/a
140.167	0.12	280334	keystroke_t	t	n/a
140.239	0.128	280478	keystroke_e	e	n/a
140.391	0.152	280782	keystroke_Key.space	Key.space	n/a
140.703	0.1525	281406	keystroke_c	c	n/a
140.895	0.1595	281790	keystroke_a	a	n/a
140.983	0.104	281966	keystroke_s	s	n/a
141.159	0.1285	282318	keystroke_t	t	n/a
141.263	0.152	282526	keystroke_Key.space	Key.space	n/a
141.5035	0.0955	283007	keystroke_p	p	n/a
141.647	0.096	283294	keystroke_r	r	n/a
141.823	0.0965	283646	keystroke_o	o	n/a
141.983	0.168	283966	keystroke_s	s	n/a
142.159	0.128	284318	keystroke_t	t	n/a
142.543	0.072	285086	keystroke_o	o	n/a
142.655	0.128	285310	keystroke_r	r	n/a
142.719	0.176	285438	keystroke_e	e	n/a
142.823	0.159	285646	keystroke_s	s	n/a
142.959	0.1595	285918	keystroke_Key.space	Key.space	n/a
143.4785	0.1445	286957	keystroke_z	z	n/a
143.6305	0.097	287261	keystroke_o	o	n/a
143.8225	0.0885	287645	keystroke_n	n	n/a
143.9425	0.1365	287885	keystroke_i	i	n/a
144.071	0.104	288142	keystroke_n	n	n/a
144.119	0.112	288238	keystroke_g	g	n/a
144.391	0.064	288782	keystroke_Key.enter	Key.enter	n/a
144.46	6.1165	288920	prompt	n/a	club hitachi travesti losing\n
145.2155	0.1025	290431	keystroke_c	c	n/a
145.31	0.064	290620	keystroke_l	l	n/a
145.487	0.073	290974	keystroke_u	u	n/a
145.663	0.12	291326	keystroke_b	b	n/a
145.799	0.128	291598	keystroke_Key.space	Key.space	n/a
146.079	0.088	292158	keystroke_h	h	n/a
146.191	0.128	292382	keystroke_i	i	n/a
146.351	0.104	292702	keystroke_t	t	n/a
146.607	0.1125	293214	keystroke_a	a	n/a
146.887	0.12	293774	keystroke_c	c	n/a
146.983	0.1195	293966	keystroke_h	h	n/a
147.2785	0.12	294557	keystroke_i	i	n/a
147.4625	0.192	294925	keystroke_Key.space	Key.space	n/a
147.6225	0.104	295245	keystroke_t	t	n/a
147.9025	0.1045	295805	keystroke_r	r	n/a
148.023	0.063	296046	keystroke_a	a	n/a
148.239	0.112	296478	keystroke_v	v	n/a
148.3835	0.1275	296767	keystroke_e	e	n/a
148.639	0.072	297278	keystroke_s	s	n/a
148.879	0.079	297758	keystroke_t	t	n/a
148.9745	0.1195	297949	keystroke_i	i	n/a
149.2145	0.16	298429	keystroke_Key.space	Key.space	n/a
149.4945	0.04	298989	keystroke_l	l	n/a
149.7025	0.096	299405	keystroke_o	o	n/a
149.8395	0.088	299679	keystroke_s	s	n/a
149.9435	0.096	299887	keystroke_i	i	n/a
150.1105	0.1285	300221	keystroke_n	n	n/a
150.1825	0.12	300365	keystroke_g	g	n/a
150.5185	0.056	301037	keystroke_Key.enter	Key.enter	n/a
150.58	5.2365	301160	prompt	n/a	magazine hostel factors wins\n
151.279	0.12	302558	keystroke_m	m	n/a
151.4065	0.0955	302813	keystroke_a	a	n/a
151.647	0.1275	303294	keystroke_g	g	n/a
151.8625	0.0795	303725	keystroke_a	a	n/a
152.102	0.128	304204	keystroke_z	z	n/a
152.166	0.08	304332	keystroke_i	i	n/a
152.3425	0.112	304685	keystroke_n	n	n/a
152.4065	0.128	304813	keystroke_e	e	n/a
152.5185	0.176	305037	keystroke_Key.space	Key.space	n/a
152.711	0.0955	305422	keystroke_h	h	n/a
152.8545	0.1205	305709	keystroke_o	o	n/a
152.99	0.112	305980	keystroke_s	s	n/a
153.119	0.144	306238	keystroke_t	t	n/a
153.3345	0.096	306669	keystroke_e	e	n/a
153.438	0.065	306876	keystroke_l	l	n/a
153.511	0.1515	307022	keystroke_Key.space	Key.space	n/a
153.8545	0.104	307709	keystroke_f	f	n/a
154.0065	0.128	308013	keystroke_a	a	n/a
154.1505	0.0885	308301	keystroke_c	c	n/a
154.3905	0.0885	308781	keystroke_t	t	n/a
154.471	0.095	308942	keystroke_o	o	n/a
154.591	0.111	309182	keystroke_r	r	n/a
154.711	0.119	309422	keystroke_s	s	n/a
154.806	0.1765	309612	keystroke_Key.space	Key.space	n/a
155.1025	0.112	310205	keystroke_w	w	n/a
155.1905	0.0725	310381	keystroke_i	i	n/a
155.3425	0.12	310685	keystroke_n	n	n/a
155.4865	0.128	310973	keystroke_s	s	n/a
155.7425	0.0725	311485	keystroke_Key.enter	Key.enter	n/a
155.8235	9.969	311647	prompt	n/a	class http procedures travelers\n
156.559	0.103	313118	keystroke_c	c	n/a
156.6945	0.096	313389	keystroke_l	l	n/a
156.7985	0.128	313597	keystroke_a	a	n/a
156.887	0.095	313774	keystroke_s	s	n/a
157.1025	0.12	314205	keystroke_s	s	n/a
157.2545	0.1275	314509	keystroke_Key.space	Key.space	n/a
157.414	0.1285	314828	keystroke_t	t	n/a
157.67	0.0645	315340	keystroke_h	h	n/a
157.9985	0.064	315997	keystroke_Key.backspace	Key.backspace	n/a
158.126	0.0565	316252	keystroke_Key.backspace	Key.backspace	n/a
158.398	0.097	316796	keystroke_h	h	n/a
158.51	0.288	317020	keystroke_t	t	n/a
159.063	0.0955	318126	keystroke_t	t	n/a
159.151	0.1355	318302	keystroke_p	p	n/a
159.2785	0.168	318557	keystroke_Key.space	Key.space	n/a
159.4465	0.0885	318893	keystroke_c	c	n/a
159.7185	0.032	319437	keystroke_o	o	n/a
159.9345	0.08	319869	keystroke_Key.backspace	Key.backspace	n/a
160.0865	0.064	320173	keystroke_Key.backspace	Key.backspace	n/a
160.3185	0.072	320637	keystroke_p	p	n/a
160.407	0.1115	320814	keystroke_r	r	n/a
160.671	0.0875	321342	keystroke_o	o	n/a
161.0145	0.1275	322029	keystroke_c	c	n/a
161.239	0.104	322478	keystroke_e	e	n/a
161.487	0.0395	322974	keystroke_d	d	n/a
161.5505	0.096	323101	keystroke_u	u	n/a
161.6785	0.112	323357	keystroke_r	r	n/a
161.7025	0.192	323405	keystroke_e	e	n/a
161.8145	0.16	323629	keystroke_s	s	n/a
161.9345	0.152	323869	keystroke_Key.space	Key.space	n/a
162.0705	0.12	324141	keystroke_t	t	n/a
162.2625	0.144	324525	keystroke_r	r	n/a
162.3905	0.104	324781	keystroke_a	a	n/a
162.7105	0.104	325421	keystroke_e	e	n/a
163.062	0.056	326124	keystroke_Key.backspace	Key.backspace	n/a
163.1345	0.128	326269	keystroke_v	v	n/a
163.366	0.088	326732	keystroke_e	e	n/a
163.422	0.112	326844	keystroke_l	l	n/a
163.5265	0.1435	327053	keystroke_r	r	n/a
163.6465	0.1035	327293	keystroke_s	s	n/a
164.7425	0.0635	329485	keystroke_Key.backspace	Key.backspace	n/a
165.134	0.08	330268	keystroke_Key.backspace	Key.backspace	n/a
165.23	0.144	330460	keystroke_e	e	n/a
165.31	0.0965	330620	keystroke_r	r	n/a
165.367	0.135	330734	keystroke_s	s	n/a
165.71	0.0805	331420	keystroke_Key.enter	Key.enter	n/a
165.7965	8.78	331593	prompt	n/a	fever niagara time nutrition\n
166.438	0.121	332876	keystroke_t	t	n/a
166.638	0.1285	333276	keystroke_e	e	n/a
166.9265	0.1035	333853	keystroke_v	v	n/a
167.1025	0.128	334205	keystroke_e	e	n/a
167.3895	0.048	334779	keystroke_Key.backspace	Key.backspace	n/a
167.5345	0.039	335069	keystroke_Key.backspace	Key.backspace	n/a
167.6535	0.056	335307	keystroke_Key.backspace	Key.backspace	n/a
167.7985	0.08	335597	keystroke_Key.backspace	Key.backspace	n/a
167.9105	0.072	335821	keystroke_f	f	n/a
167.958	0.1445	335916	keystroke_e	e	n/a
168.2225	0.0965	336445	keystroke_v	v	n/a
168.3505	0.1355	336701	keystroke_e	e	n/a
168.4705	0.1195	336941	keystroke_r	r	n/a
168.598	0.176	337196	keystroke_Key.space	Key.space	n/a
168.847	0.104	337694	keystroke_n	n	n/a
169.0065	0.1195	338013	keystroke_i	i	n/a
169.094	0.088	338188	keystroke_g	g	n/a
169.519	0.0875	339038	keystroke_a	a	n/a
169.678	0.0645	339356	keystroke_Key.backspace	Key.backspace	n/a
169.822	0.0725	339644	keystroke_Key.backspace	Key.backspace	n/a
169.9185	0.08	339837	keystroke_a	a	n/a
170.1185	0.096	340237	keystroke_g	g	n/a
171.254	0.0965	342508	keystroke_a	a	n/a
171.3585	0.135	342717	keystroke_r	r	n/a
171.4855	0.121	342971	keystroke_a	a	n/a
171.6535	0.144	343307	keystroke_Key.space	Key.space	n/a
172.078	0.1275	344156	keystroke_t	t	n/a
172.2065	0.119	344413	keystroke_i	i	n/a
172.3585	0.1355	344717	keystroke_m	m	n/a
172.471	0.127	344942	keystroke_e	e	n/a
172.5825	0.175	345165	keystroke_Key.space	Key.space	n/a
172.7735	0.153	345547	keystroke_n	n	n/a
172.8935	0.145	345787	keystroke_u	u	n/a
172.9985	0.1195	345997	keystroke_t	t	n/a
173.238	0.0805	346476	keystroke_r	r	n/a
173.7985	0.064	347597	keystroke_i	i	n/a
173.871	0.1115	347742	keystroke_t	t	n/a
173.9985	0.128	347997	keystroke_i	i	n/a
174.0865	0.088	348173	keystroke_o	o	n/a
174.1905	0.12	348381	keystroke_n	n	n/a
174.5185	0.056	349037	keystroke_Key.enter	Key.enter	n/a
174.58	5.38	349160	prompt	n/a	danny leasing discuss suites\n
175.222	0.1205	350444	keystroke_d	d	n/a
175.398	0.112	350796	keystroke_a	a	n/a
175.4865	0.224	350973	keystroke_n	n	n/a
175.966	0.08	351932	keystroke_n	n	n/a
176.1025	0.136	352205	keystroke_y	y	n/a
176.246	0.152	352492	keystroke_Key.space	Key.space	n/a
176.4705	0.071	352941	keystroke_l	l	n/a
176.5425	0.128	353085	keystroke_e	e	n/a
176.6785	0.1365	353357	keystroke_a	a	n/a
176.7825	0.0875	353565	keystroke_s	s	n/a
176.902	0.088	353804	keystroke_i	i	n/a
177.0785	0.112	354157	keystroke_n	n	n/a
177.1345	0.143	354269	keystroke_g	g	n/a
177.2625	0.176	354525	keystroke_Key.space	Key.space	n/a
177.4945	0.072	354989	keystroke_d	d	n/a
177.6305	0.096	355261	keystroke_i	i	n/a
177.7665	0.112	355533	keystroke_s	s	n/a
177.9665	0.096	355933	keystroke_c	c	n/a
178.0715	0.0945	356143	keystroke_u	u	n/a
178.2225	0.096	356445	keystroke_s	s	n/a
178.374	0.0885	356748	keystroke_s	s	n/a
178.51	0.1765	357020	keystroke_Key.space	Key.space	n/a
178.91	0.1285	357820	keystroke_s	s	n/a
179.0145	0.136	358029	keystroke_u	u	n/a
179.0935	0.113	358187	keystroke_i	i	n/a
179.1905	0.192	358381	keystroke_t	t	n/a
179.2945	0.2	358589	keystroke_e	e	n/a
179.694	0.0965	359388	keystroke_s	s	n/a
179.87	0.088	359740	keystroke_Key.enter	Key.enter	n/a
179.964	9.212	359928	prompt	n/a	tutorials slope supplies bookmarks\n
180.5505	0.112	361101	keystroke_t	t	n/a
180.694	0.112	361388	keystroke_u	u	n/a
180.91	0.0245	361820	keystroke_r	r	n/a
181.622	0.048	363244	keystroke_=	=	n/a
181.774	0.0805	363548	keystroke_t	t	n/a
181.942	0.064	363884	keystroke_Key.backspace	Key.backspace	n/a
182.086	0.0565	364172	keystroke_Key.backspace	Key.backspace	n/a
182.366	0.08	364732	keystroke_Key.backspace	Key.backspace	n/a
182.743	0.111	365486	keystroke_t	t	n/a
182.87	0.0965	365740	keystroke_o	o	n/a
183.0705	0.1035	366141	keystroke_r	r	n/a
183.1585	0.088	366317	keystroke_i	i	n/a
183.2945	0.112	366589	keystroke_a	a	n/a
183.3975	0.096	366795	keystroke_l	l	n/a
183.5415	0.08	367083	keystroke_s	s	n/a
183.6855	0.16	367371	keystroke_Key.space	Key.space	n/a
183.91	0.096	367820	keystroke_s	s	n/a
184.006	0.0635	368012	keystroke_l	l	n/a
184.294	0.0805	368588	keystroke_o	o	n/a
184.318	0.129	368636	keystroke_p	p	n/a
184.542	0.16	369084	keystroke_e	e	n/a
184.75	0.16	369500	keystroke_Key.space	Key.space	n/a
185.0695	0.1205	370139	keystroke_s	s	n/a
185.182	0.072	370364	keystroke_u	u	n/a
185.406	0.056	370812	keystroke_p	p	n/a
185.55	0.064	371100	keystroke_p	p	n/a
186.118	0.096	372236	keystroke_l	l	n/a
186.286	0.1045	372572	keystroke_i	i	n/a
186.406	0.136	372812	keystroke_e	e	n/a
186.478	0.104	372956	keystroke_s	s	n/a
186.574	0.168	373148	keystroke_Key.space	Key.space	n/a
186.782	0.1115	373564	keystroke_b	b	n/a
186.9895	0.08	373979	keystroke_o	o	n/a
187.1495	0.12	374299	keystroke_o	o	n/a
187.2295	0.1445	374459	keystroke_k	k	n/a
187.542	0.128	375084	keystroke_m	m	n/a
187.718	0.1275	375436	keystroke_a	a	n/a
187.878	0.128	375756	keystroke_r	r	n/a
187.9505	0.1035	375901	keystroke_k	k	n/a
188.03	0.1525	376060	keystroke_e	e	n/a
188.102	0.144	376204	keystroke_s	s	n/a
188.438	0.056	376876	keystroke_Key.backspace	Key.backspace	n/a
188.574	0.064	377148	keystroke_Key.backspace	Key.backspace	n/a
188.646	0.12	377292	keystroke_s	s	n/a
189.006	0.168	378012	keystroke_Key.enter	Key.enter	n/a
189.18	5.515	378360	prompt	n/a	proteins ourselves primary mission\n
189.878	0.088	379756	keystroke_p	p	n/a
189.9905	0.12	379981	keystroke_r	r	n/a
190.094	0.104	380188	keystroke_o	o	n/a
190.238	0.1195	380476	keystroke_t	t	n/a
190.31	0.1285	380620	keystroke_e	e	n/a
190.534	0.0965	381068	keystroke_i	i	n/a
190.7345	0.112	381469	keystroke_n	n	n/a
190.8215	0.128	381643	keystroke_s	s	n/a
190.9255	0.1445	381851	keystroke_Key.space	Key.space	n/a
191.142	0.096	382284	keystroke_o	o	n/a
191.35	0.1115	382700	keystroke_u	u	n/a
191.47	0.1355	382940	keystroke_r	r	n/a
191.646	0.136	383292	keystroke_s	s	n/a
191.7345	0.143	383469	keystroke_e	e	n/a
191.9255	0.073	383851	keystroke_l	l	n/a
192.054	0.136	384108	keystroke_v	v	n/a
192.181	0.177	384362	keystroke_e	e	n/a
192.2865	0.1355	384573	keystroke_s	s	n/a
192.3975	0.153	384795	keystroke_Key.space	Key.space	n/a
192.598	0.104	385196	keystroke_p	p	n/a
192.726	0.128	385452	keystroke_r	r	n/a
192.854	0.079	385708	keystroke_i	i	n/a
193.0295	0.1205	386059	keystroke_m	m	n/a
193.1415	0.128	386283	keystroke_a	a	n/a
193.2225	0.144	386445	keystroke_r	r	n/a
193.31	0.1195	386620	keystroke_y	y	n/a
193.4375	0.144	386875	keystroke_Key.space	Key.space	n/a
193.6375	0.144	387275	keystroke_m	m	n/a
193.814	0.128	387628	keystroke_i	i	n/a
193.9345	0.0875	387869	keystroke_s	s	n/a
194.1095	0.072	388219	keystroke_s	s	n/a
194.158	0.128	388316	keystroke_i	i	n/a
194.2535	0.0805	388507	keystroke_o	o	n/a
194.3495	0.1045	388699	keystroke_n	n	n/a
194.654	0.039	389308	keystroke_Key.enter	Key.enter	n/a
194.6985	8.429	389397	prompt	n/a	millennium diploma industry hack\n
195.35	0.112	390700	keystroke_m	m	n/a
195.7175	0.0725	391435	keystroke_i	i	n/a
195.91	0.056	391820	keystroke_l	l	n/a
196.062	0.08	392124	keystroke_l	l	n/a
196.246	0.112	392492	keystroke_e	e	n/a
196.342	0.112	392684	keystroke_n	n	n/a
196.678	0.096	393356	keystroke_n	n	n/a
196.902	0.104	393804	keystroke_i	i	n/a
197.1105	0.079	394221	keystroke_u	u	n/a
197.3095	0.1285	394619	keystroke_m	m	n/a
197.4455	0.144	394891	keystroke_Key.space	Key.space	n/a
197.598	0.104	395196	keystroke_d	d	n/a
197.6855	0.112	395371	keystroke_i	i	n/a
197.9815	0.08	395963	keystroke_p	p	n/a
198.3655	0.0885	396731	keystroke_l	l	n/a
198.59	0.096	397180	keystroke_o	o	n/a
198.862	0.119	397724	keystroke_m	m	n/a
199.0135	0.1285	398027	keystroke_a	a	n/a
199.15	0.128	398300	keystroke_Key.space	Key.space	n/a
199.678	0.056	399356	keystroke_i	i	n/a
199.862	0.12	399724	keystroke_n	n	n/a
200.182	0.112	400364	keystroke_d	d	n/a
200.302	0.112	400604	keystroke_u	u	n/a
200.406	0.128	400812	keystroke_s	s	n/a
200.582	0.112	401164	keystroke_t	t	n/a
200.79	0.112	401580	keystroke_r	r	n/a
200.894	0.12	401788	keystroke_u	u	n/a
201.046	0.1595	402092	keystroke_Key.space	Key.space	n/a
201.5655	0.0805	403131	keystroke_Key.backspace	Key.backspace	n/a
201.7255	0.072	403451	keystroke_Key.backspace	Key.backspace	n/a
202.0375	0.112	404075	keystroke_y	y	n/a
202.1495	0.144	404299	keystroke_Key.space	Key.space	n/a
202.4295	0.096	404859	keystroke_h	h	n/a
202.502	0.08	405004	keystroke_a	a	n/a
202.669	0.1125	405338	keystroke_c	c	n/a
202.798	0.071	405596	keystroke_k	k	n/a
203.062	0.0635	406124	keystroke_Key.enter	Key.enter	n/a
203.1315	7.389	406263	prompt	n/a	commitments soon individuals zero\n
203.998	0.144	407996	keystroke_c	c	n/a
204.198	0.135	408396	keystroke_m	m	n/a
204.621	0.049	409242	keystroke_Key.backspace	Key.backspace	n/a
204.87	0.096	409740	keystroke_o	o	n/a
205.054	0.088	410108	keystroke_m	m	n/a
205.2145	0.079	410429	keystroke_m	m	n/a
205.422	0.128	410844	keystroke_i	i	n/a
205.534	0.184	411068	keystroke_t	t	n/a
205.774	0.128	411548	keystroke_m	m	n/a
205.95	0.136	411900	keystroke_e	e	n/a
206.062	0.104	412124	keystroke_n	n	n/a
206.15	0.12	412300	keystroke_t	t	n/a
206.238	0.128	412476	keystroke_s	s	n/a
206.326	0.136	412652	keystroke_Key.space	Key.space	n/a
206.5105	0.0875	413021	keystroke_s	s	n/a
206.606	0.056	413212	keystroke_o	o	n/a
206.766	0.056	413532	keystroke_o	o	n/a
206.9175	0.1435	413835	keystroke_n	n	n/a
207.021	0.144	414042	keystroke_Key.space	Key.space	n/a
207.181	0.096	414362	keystroke_i	i	n/a
207.374	0.136	414748	keystroke_n	n	n/a
207.502	0.111	415004	keystroke_d	d	n/a
207.718	0.072	415436	keystroke_i	i	n/a
207.862	0.128	415724	keystroke_v	v	n/a
208.2855	0.089	416571	keystroke_i	i	n/a
208.51	0.1115	417020	keystroke_u	u	n/a
208.6135	0.08	417227	keystroke_d	d	n/a
208.662	0.112	417324	keystroke_a	a	n/a
208.79	0.104	417580	keystroke_l	l	n/a
208.9105	0.0805	417821	keystroke_s	s	n/a
209.038	0.1675	418076	keystroke_Key.space	Key.space	n/a
209.3185	0.143	418637	keystroke_z	z	n/a
209.6375	0.144	419275	keystroke_e	e	n/a
209.734	0.128	419468	keystroke_r	r	n/a
209.838	0.1115	419676	keystroke_o	o	n/a
210.4295	0.088	420859	keystroke_Key.enter	Key.enter	n/a
210.524	10.8195	421048	prompt	n/a	accessibility productivity real divx\n
212.3895	0.0725	424779	keystroke_a	a	n/a
212.7185	0.079	425437	keystroke_c	c	n/a
212.9095	0.128	425819	keystroke_c	c	n/a
213.0135	0.168	426027	keystroke_e	e	n/a
213.1015	0.153	426203	keystroke_s	s	n/a
213.558	0.103	427116	keystroke_s	s	n/a
213.702	0.112	427404	keystroke_i	i	n/a
213.9975	0.104	427995	keystroke_b	b	n/a
214.2295	0.1205	428459	keystroke_i	i	n/a
214.3415	0.176	428683	keystroke_l	l	n/a
214.4855	0.0805	428971	keystroke_i	i	n/a
214.59	0.1435	429180	keystroke_t	t	n/a
214.7335	0.12	429467	keystroke_y	y	n/a
214.8695	0.168	429739	keystroke_Key.space	Key.space	n/a
215.213	0.104	430426	keystroke_a	a	n/a
215.573	0.072	431146	keystroke_Key.backspace	Key.backspace	n/a
215.862	0.103	431724	keystroke_p	p	n/a
215.981	0.1125	431962	keystroke_r	r	n/a
216.0855	0.12	432171	keystroke_o	o	n/a
216.4855	0.096	432971	keystroke_d	d	n/a
216.59	0.12	433180	keystroke_u	u	n/a
216.766	0.104	433532	keystroke_c	c	n/a
217.053	0.129	434106	keystroke_t	t	n/a
217.326	0.104	434652	keystroke_i	i	n/a
217.646	0.128	435292	keystroke_v	v	n/a
218.0135	0.088	436027	keystroke_i	i	n/a
218.2695	0.184	436539	keystroke_t	t	n/a
218.4055	0.136	436811	keystroke_y	y	n/a
218.5495	0.192	437099	keystroke_Key.space	Key.space	n/a
218.7015	0.216	437403	keystroke_r	r	n/a
218.8055	0.152	437611	keystroke_e	e	n/a
218.9895	0.112	437979	keystroke_a	a	n/a
219.0935	0.104	438187	keystroke_l	l	n/a
219.2055	0.16	438411	keystroke_Key.space	Key.space	n/a
219.7335	0.103	439467	keystroke_d	d	n/a
219.8455	0.1035	439691	keystroke_i	i	n/a
220.862	0.127	441724	keystroke_v	v	n/a
220.982	0.119	441964	keystroke_x	x	n/a
221.189	0.152	442378	keystroke_Key.enter	Key.enter	n/a
221.3475	7.4675	442695	prompt	n/a	troops manhattan read tells\n
222.2535	0.12	444507	keystroke_t	t	n/a
222.5095	0.0805	445019	keystroke_r	r	n/a
223.022	0.08	446044	keystroke_p	p	n/a
223.4375	0.08	446875	keystroke_Key.backspace	Key.backspace	n/a
223.8855	0.056	447771	keystroke_o	o	n/a
224.0615	0.0955	448123	keystroke_o	o	n/a
224.293	0.129	448586	keystroke_s	s	n/a
224.5575	0.0635	449115	keystroke_Key.backspace	Key.backspace	n/a
224.9015	0.08	449803	keystroke_p	p	n/a
225.0445	0.097	450089	keystroke_s	s	n/a
225.1415	0.176	450283	keystroke_Key.space	Key.space	n/a
225.309	0.137	450618	keystroke_m	m	n/a
225.461	0.104	450922	keystroke_a	a	n/a
225.589	0.0885	451178	keystroke_n	n	n/a
225.829	0.0645	451658	keystroke_h	h	n/a
225.9015	0.104	451803	keystroke_a	a	n/a
226.1415	0.056	452283	keystroke_t	t	n/a
226.3095	0.1045	452619	keystroke_t	t	n/a
226.6535	0.112	453307	keystroke_a	a	n/a
226.6935	0.12	453387	keystroke_n	n	n/a
226.8455	0.152	453691	keystroke_Key.space	Key.space	n/a
227.0295	0.168	454059	keystroke_r	r	n/a
227.1255	0.224	454251	keystroke_e	e	n/a
227.4375	0.144	454875	keystroke_a	a	n/a
227.6055	0.152	455211	keystroke_d	d	n/a
227.7015	0.184	455403	keystroke_Key.space	Key.space	n/a
228.0135	0.16	456027	keystroke_t	t	n/a
228.0935	0.1845	456187	keystroke_e	e	n/a
228.2935	0.064	456587	keystroke_l	l	n/a
228.438	0.1035	456876	keystroke_l	l	n/a
228.5175	0.1125	457035	keystroke_s	s	n/a
228.7335	0.0795	457467	keystroke_Key.enter	Key.enter	n/a
228.82	6.6905	457640	prompt	n/a	trademark disorder threat lately\n
229.4855	0.127	458971	keystroke_t	t	n/a
229.7165	0.0965	459433	keystroke_r	r	n/a
229.8135	0.136	459627	keystroke_a	a	n/a
230.0375	0.12	460075	keystroke_d	d	n/a
230.1575	0.128	460315	keystroke_e	e	n/a
230.3415	0.12	460683	keystroke_m	m	n/a
230.5735	0.1685	461147	keystroke_a	a	n/a
230.7895	0.128	461579	keystroke_r	r	n/a
230.8935	0.112	461787	keystroke_k	k	n/a
231.0615	0.183	462123	keystroke_Key.space	Key.space	n/a
231.3015	0.0795	462603	keystroke_d	d	n/a
231.413	0.096	462826	keystroke_i	i	n/a
231.573	0.1205	463146	keystroke_s	s	n/a
231.686	0.0875	463372	keystroke_o	o	n/a
231.813	0.104	463626	keystroke_r	r	n/a
232.062	0.119	464124	keystroke_d	d	n/a
232.1975	0.1515	464395	keystroke_e	e	n/a
232.31	0.1115	464620	keystroke_r	r	n/a
232.381	0.16	464762	keystroke_Key.space	Key.space	n/a
232.637	0.1205	465274	keystroke_t	t	n/a
232.7575	0.088	465515	keystroke_h	h	n/a
232.8935	0.192	465787	keystroke_r	r	n/a
232.998	0.175	465996	keystroke_e	e	n/a
233.1255	0.1595	466251	keystroke_a	a	n/a
233.2765	0.08	466553	keystroke_t	t	n/a
233.6285	0.177	467257	keystroke_Key.space	Key.space	n/a
234.261	0.0965	468522	keystroke_l	l	n/a
234.3655	0.1355	468731	keystroke_a	a	n/a
234.5655	0.1355	469131	keystroke_t	t	n/a
234.653	0.1365	469306	keystroke_e	e	n/a
234.9015	0.0485	469803	keystroke_l	l	n/a
235.125	0.0405	470250	keystroke_y	y	n/a
235.4455	0.064	470891	keystroke_Key.enter	Key.enter	n/a
235.516	6.027	471032	prompt	n/a	atlantic rise thesis edinburgh\n
236.1735	0.1205	472347	keystroke_a	a	n/a
236.3335	0.112	472667	keystroke_t	t	n/a
236.4855	0.1045	472971	keystroke_l	l	n/a
236.6375	0.112	473275	keystroke_a	a	n/a
236.7415	0.1195	473483	keystroke_n	n	n/a
236.893	0.1045	473786	keystroke_t	t	n/a
237.0135	0.104	474027	keystroke_i	i	n/a
237.181	0.121	474362	keystroke_c	c	n/a
237.293	0.152	474586	keystroke_Key.space	Key.space	n/a
237.501	0.1205	475002	keystroke_r	r	n/a
237.6135	0.08	475227	keystroke_i	i	n/a
237.725	0.168	475450	keystroke_s	s	n/a
237.846	0.135	475692	keystroke_e	e	n/a
237.933	0.16	475866	keystroke_Key.space	Key.space	n/a
238.1415	0.1275	476283	keystroke_t	t	n/a
238.2455	0.0715	476491	keystroke_h	h	n/a
238.357	0.1445	476714	keystroke_e	e	n/a
238.55	0.136	477100	keystroke_s	s	n/a
238.726	0.1035	477452	keystroke_i	i	n/a
238.813	0.104	477626	keystroke_s	s	n/a
238.9575	0.1595	477915	keystroke_Key.space	Key.space	n/a
239.397	0.144	478794	keystroke_e	e	n/a
239.693	0.1045	479386	keystroke_d	d	n/a
239.9175	0.072	479835	keystroke_i	i	n/a
240.1175	0.08	480235	keystroke_n	n	n/a
240.4295	0.088	480859	keystroke_b	b	n/a
240.5495	0.152	481099	keystroke_u	u	n/a
240.6615	0.096	481323	keystroke_r	r	n/a
240.9175	0.1115	481835	keystroke_g	g	n/a
241.013	0.112	482026	keystroke_h	h	n/a
241.429	0.112	482858	keystroke_Key.enter	Key.enter	n/a
241.547	7.1895	483094	prompt	n/a	stores casting garlic university\n
242.318	0.1185	484636	keystroke_s	s	n/a
242.429	0.1285	484858	keystroke_t	t	n/a
242.5575	0.111	485115	keystroke_o	o	n/a
242.7255	0.12	485451	keystroke_e	e	n/a
243.085	0.08	486170	keystroke_Key.backspace	Key.backspace	n/a
243.221	0.136	486442	keystroke_r	r	n/a
243.309	0.12	486618	keystroke_e	e	n/a
243.373	0.136	486746	keystroke_s	s	n/a
243.549	0.1765	487098	keystroke_Key.space	Key.space	n/a
243.773	0.104	487546	keystroke_c	c	n/a
243.957	0.104	487914	keystroke_a	a	n/a
244.181	0.088	488362	keystroke_s	s	n/a
244.3175	0.1195	488635	keystroke_t	t	n/a
244.4055	0.096	488811	keystroke_i	i	n/a
244.565	0.144	489130	keystroke_n	n	n/a
244.653	0.1285	489306	keystroke_g	g	n/a
244.741	0.16	489482	keystroke_Key.space	Key.space	n/a
244.9175	0.112	489835	keystroke_g	g	n/a
245.1575	0.128	490315	keystroke_a	a	n/a
245.2765	0.128	490553	keystroke_r	r	n/a
245.4215	0.063	490843	keystroke_l	l	n/a
245.6295	0.111	491259	keystroke_i	i	n/a
245.813	0.1675	491626	keystroke_c	c	n/a
245.933	0.1595	491866	keystroke_Key.space	Key.space	n/a
246.3895	0.0795	492779	keystroke_u	u	n/a
246.5255	0.1275	493051	keystroke_n	n	n/a
246.693	0.096	493386	keystroke_i	i	n/a
246.989	0.056	493978	keystroke_v	v	n/a
247.1015	0.224	494203	keystroke_e	e	n/a
247.261	0.168	494522	keystroke_r	r	n/a
247.8375	0.112	495675	keystroke_s	s	n/a
247.9415	0.072	495883	keystroke_i	i	n/a
248.126	0.1115	496252	keystroke_t	t	n/a
248.2135	0.128	496427	keystroke_y	y	n/a
248.6535	0.08	497307	keystroke_Key.enter	Key.enter	n/a
248.7455	4.837	497491	prompt	n/a	temple serial zoning skirt\n
249.4205	0.128	498841	keystroke_t	t	n/a
249.5805	0.113	499161	keystroke_e	e	n/a
249.653	0.1355	499306	keystroke_m	m	n/a
249.8685	0.1365	499737	keystroke_p	p	n/a
250.189	0.0965	500378	keystroke_l	l	n/a
250.317	0.12	500634	keystroke_e	e	n/a
250.4445	0.1525	500889	keystroke_Key.space	Key.space	n/a
250.7165	0.1445	501433	keystroke_s	s	n/a
250.797	0.1605	501594	keystroke_e	e	n/a
250.909	0.152	501818	keystroke_r	r	n/a
251.069	0.0965	502138	keystroke_i	i	n/a
251.2215	0.128	502443	keystroke_a	a	n/a
251.309	0.0875	502618	keystroke_l	l	n/a
251.4045	0.176	502809	keystroke_Key.space	Key.space	n/a
251.6935	0.1115	503387	keystroke_z	z	n/a
251.7975	0.0875	503595	keystroke_o	o	n/a
251.949	0.1205	503898	keystroke_n	n	n/a
252.101	0.12	504202	keystroke_i	i	n/a
252.2455	0.1355	504491	keystroke_n	n	n/a
252.373	0.152	504746	keystroke_g	g	n/a
252.485	0.16	504970	keystroke_Key.space	Key.space	n/a
252.693	0.1525	505386	keystroke_s	s	n/a
252.8215	0.08	505643	keystroke_k	k	n/a
253.0135	0.1115	506027	keystroke_i	i	n/a
253.0935	0.088	506187	keystroke_r	r	n/a
253.3015	0.1115	506603	keystroke_t	t	n/a
253.485	0.096	506970	keystroke_Key.enter	Key.enter	n/a
253.586	8.061	507172	prompt	n/a	departure consisting casa we've\n
254.293	0.136	508586	keystroke_d	d	n/a
254.4055	0.127	508811	keystroke_e	e	n/a
254.557	0.1035	509114	keystroke_p	p	n/a
254.773	0.1195	509546	keystroke_a	a	n/a
255.0935	0.167	510187	keystroke_t	t	n/a
255.517	0.072	511034	keystroke_Key.backspace	Key.backspace	n/a
255.629	0.0965	511258	keystroke_r	r	n/a
255.8855	0.1275	511771	keystroke_t	t	n/a
256.005	0.1125	512010	keystroke_u	u	n/a
256.157	0.128	512314	keystroke_r	r	n/a
256.2295	0.152	512459	keystroke_e	e	n/a
256.341	0.1515	512682	keystroke_Key.space	Key.space	n/a
256.549	0.1595	513098	keystroke_c	c	n/a
256.6455	0.056	513291	keystroke_o	o	n/a
256.7965	0.1365	513593	keystroke_n	n	n/a
257.1095	0.1035	514219	keystroke_s	s	n/a
257.245	0.088	514490	keystroke_i	i	n/a
257.437	0.112	514874	keystroke_s	s	n/a
257.621	0.12	515242	keystroke_t	t	n/a
258.149	0.08	516298	keystroke_i	i	n/a
258.349	0.0965	516698	keystroke_n	n	n/a
258.413	0.136	516826	keystroke_g	g	n/a
258.557	0.16	517114	keystroke_Key.space	Key.space	n/a
258.877	0.16	517754	keystroke_c	c	n/a
259.101	0.1605	518202	keystroke_a	a	n/a
259.2295	0.1275	518459	keystroke_s	s	n/a
259.485	0.1525	518970	keystroke_a	a	n/a
259.7245	0.192	519449	keystroke_Key.space	Key.space	n/a
259.997	0.0965	519994	keystroke_w	w	n/a
260.1725	0.137	520345	keystroke_e	e	n/a
260.453	0.1765	520906	keystroke_'	'	n/a
260.6205	0.1685	521241	keystroke_v	v	n/a
260.7565	0.1525	521513	keystroke_e	e	n/a
261.437	0.208	522874	keystroke_Key.enter	Key.enter	n/a
261.651	8.8915	523302	prompt	n/a	formal numeric budget cycles\n
262.357	0.104	524714	keystroke_f	f	n/a
262.453	0.0965	524906	keystroke_o	o	n/a
262.8855	0.127	525771	keystroke_r	r	n/a
263.1725	0.137	526345	keystroke_m	m	n/a
263.3495	0.128	526699	keystroke_a	a	n/a
263.8845	0.128	527769	keystroke_l	l	n/a
264.045	0.192	528090	keystroke_Key.space	Key.space	n/a
264.2215	0.1035	528443	keystroke_u	u	n/a
264.404	0.137	528808	keystroke_m	m	n/a
264.5335	0.1345	529067	keystroke_e	e	n/a
264.589	0.112	529178	keystroke_r	r	n/a
264.677	0.12	529354	keystroke_i	i	n/a
265.101	0.0315	530202	keystroke_Key.backspace	Key.backspace	n/a
265.341	0.072	530682	keystroke_Key.backspace	Key.backspace	n/a
265.4685	0.0725	530937	keystroke_Key.backspace	Key.backspace	n/a
265.6125	0.0725	531225	keystroke_Key.backspace	Key.backspace	n/a
265.7565	0.104	531513	keystroke_Key.backspace	Key.backspace	n/a
266.3095	0.096	532619	keystroke_n	n	n/a
266.3895	0.096	532779	keystroke_u	u	n/a
266.5725	0.144	533145	keystroke_m	m	n/a
266.7405	0.104	533481	keystroke_e	e	n/a
266.781	0.1275	533562	keystroke_r	r	n/a
266.9095	0.1115	533819	keystroke_i	i	n/a
267.077	0.1355	534154	keystroke_c	c	n/a
267.1805	0.1685	534361	keystroke_Key.space	Key.space	n/a
267.389	0.1285	534778	keystroke_b	b	n/a
267.5335	0.1435	535067	keystroke_u	u	n/a
267.645	0.119	535290	keystroke_d	d	n/a
267.9575	0.159	535915	keystroke_g	g	n/a
268.149	0.192	536298	keystroke_e	e	n/a
268.541	0.0795	537082	keystroke_Key.space	Key.space	n/a
268.6285	0.104	537257	keystroke_t	t	n/a
268.9565	0.0645	537913	keystroke_Key.backspace	Key.backspace	n/a
269.1085	0.048	538217	keystroke_Key.backspace	Key.backspace	n/a
269.165	0.1125	538330	keystroke_t	t	n/a
269.2925	0.16	538585	keystroke_Key.space	Key.space	n/a
269.4855	0.1115	538971	keystroke_c	c	n/a
269.661	0.104	539322	keystroke_y	y	n/a
269.861	0.136	539722	keystroke_c	c	n/a
270.021	0.12	540042	keystroke_l	l	n/a
270.117	0.16	540234	keystroke_e	e	n/a
270.221	0.136	540442	keystroke_s	s	n/a
270.413	0.128	540826	keystroke_Key.enter	Key.enter	n/a
270.547	6.196	541094	prompt	n/a	only settlement touring tomorrow\n
271.2285	0.097	542457	keystroke_o	o	n/a
271.3885	0.1205	542777	keystroke_n	n	n/a
271.557	0.1035	543114	keystroke_l	l	n/a
271.7805	0.1285	543561	keystroke_y	y	n/a
271.925	0.1435	543850	keystroke_Key.space	Key.space	n/a
272.061	0.128	544122	keystroke_s	s	n/a
272.477	0.1195	544954	keystroke_e	e	n/a
272.557	0.128	545114	keystroke_t	t	n/a
272.7565	0.1365	545513	keystroke_t	t	n/a
272.877	0.104	545754	keystroke_l	l	n/a
273.021	0.104	546042	keystroke_e	e	n/a
273.236	0.072	546472	keystroke_m	m	n/a
273.325	0.119	546650	keystroke_e	e	n/a
273.445	0.1275	546890	keystroke_n	n	n/a
273.5	0.1765	547000	keystroke_t	t	n/a
273.6045	0.1765	547209	keystroke_Key.space	Key.space	n/a
273.8045	0.129	547609	keystroke_t	t	n/a
273.941	0.0715	547882	keystroke_o	o	n/a
274.181	0.0955	548362	keystroke_u	u	n/a
274.301	0.112	548602	keystroke_r	r	n/a
274.4445	0.0565	548889	keystroke_i	i	n/a
274.5965	0.1125	549193	keystroke_n	n	n/a
274.6765	0.1445	549353	keystroke_g	g	n/a
274.797	0.1515	549594	keystroke_Key.space	Key.space	n/a
275.061	0.104	550122	keystroke_t	t	n/a
275.197	0.08	550394	keystroke_o	o	n/a
275.413	0.1125	550826	keystroke_m	m	n/a
275.605	0.088	551210	keystroke_o	o	n/a
275.725	0.072	551450	keystroke_r	r	n/a
275.869	0.12	551738	keystroke_r	r	n/a
275.965	0.136	551930	keystroke_o	o	n/a
276.365	0.152	552730	keystroke_w	w	n/a
276.661	0.0795	553322	keystroke_Key.enter	Key.enter	n/a
276.7465	8.3	553493	prompt	n/a	announce expectations i'll pocket\n
277.46	0.105	554920	keystroke_a	a	n/a
277.548	0.104	555096	keystroke_n	n	n/a
277.7085	0.1045	555417	keystroke_n	n	n/a
277.885	0.0875	555770	keystroke_o	o	n/a
278.0525	0.0885	556105	keystroke_u	u	n/a
278.2205	0.1365	556441	keystroke_n	n	n/a
278.364	0.113	556728	keystroke_c	c	n/a
278.42	0.161	556840	keystroke_e	e	n/a
278.588	0.1445	557176	keystroke_Key.space	Key.space	n/a
278.7565	0.0955	557513	keystroke_e	e	n/a
279.1485	0.128	558297	keystroke_x	x	n/a
279.2845	0.112	558569	keystroke_p	p	n/a
279.5325	0.136	559065	keystroke_e	e	n/a
280.301	0.0875	560602	keystroke_c	c	n/a
280.597	0.1365	561194	keystroke_t	t	n/a
280.8365	0.144	561673	keystroke_a	a	n/a
280.9485	0.136	561897	keystroke_t	t	n/a
281.053	0.1115	562106	keystroke_i	i	n/a
281.1165	0.0805	562233	keystroke_o	o	n/a
281.2605	0.136	562521	keystroke_n	n	n/a
281.3975	0.143	562795	keystroke_s	s	n/a
281.453	0.1835	562906	keystroke_Key.space	Key.space	n/a
281.6125	0.112	563225	keystroke_i	i	n/a
281.9005	0.048	563801	keystroke_;	;	n/a
282.3885	0.08	564777	keystroke_Key.backspace	Key.backspace	n/a
282.8445	0.0885	565689	keystroke_'	'	n/a
283.101	0.0635	566202	keystroke_l	l	n/a
283.2535	0.063	566507	keystroke_l	l	n/a
283.4045	0.168	566809	keystroke_Key.space	Key.space	n/a
283.8605	0.0955	567721	keystroke_p	p	n/a
283.964	0.105	567928	keystroke_o	o	n/a
284.373	0.128	568746	keystroke_c	c	n/a
284.5085	0.12	569017	keystroke_k	k	n/a
284.6205	0.152	569241	keystroke_e	e	n/a
284.7485	0.144	569497	keystroke_t	t	n/a
284.9485	0.096	569897	keystroke_Key.enter	Key.enter	n/a
285.0505	5.7955	570101	prompt	n/a	logistics rose portion bruce\n
285.8525	0.1045	571705	keystroke_l	l	n/a
286.0765	0.08	572153	keystroke_o	o	n/a
286.2205	0.1285	572441	keystroke_g	g	n/a
286.2925	0.1205	572585	keystroke_i	i	n/a
286.517	0.112	573034	keystroke_s	s	n/a
286.725	0.12	573450	keystroke_t	t	n/a
286.861	0.095	573722	keystroke_i	i	n/a
287.036	0.1285	574072	keystroke_c	c	n/a
287.172	0.121	574344	keystroke_s	s	n/a
287.26	0.168	574520	keystroke_Key.space	Key.space	n/a
287.6605	0.12	575321	keystroke_r	r	n/a
287.812	0.0885	575624	keystroke_o	o	n/a
287.9645	0.1435	575929	keystroke_s	s	n/a
288.06	0.137	576120	keystroke_e	e	n/a
288.172	0.1525	576344	keystroke_Key.space	Key.space	n/a
288.749	0.087	577498	keystroke_p	p	n/a
288.909	0.112	577818	keystroke_o	o	n/a
289.012	0.104	578024	keystroke_r	r	n/a
289.237	0.127	578474	keystroke_t	t	n/a
289.2925	0.16	578585	keystroke_i	i	n/a
289.3965	0.1045	578793	keystroke_o	o	n/a
289.5725	0.136	579145	keystroke_n	n	n/a
289.6685	0.1675	579337	keystroke_Key.space	Key.space	n/a
289.908	0.1125	579816	keystroke_b	b	n/a
290.085	0.096	580170	keystroke_r	r	n/a
290.1565	0.112	580313	keystroke_u	u	n/a
290.3565	0.152	580713	keystroke_c	c	n/a
290.4525	0.152	580905	keystroke_e	e	n/a
290.7485	0.096	581497	keystroke_Key.enter	Key.enter	n/a
290.8505	6.0355	581701	prompt	n/a	wire titanium browser wasn't\n
291.6045	0.144	583209	keystroke_w	w	n/a
291.7405	0.0955	583481	keystroke_i	i	n/a
291.8525	0.1435	583705	keystroke_r	r	n/a
291.916	0.16	583832	keystroke_e	e	n/a
292.068	0.1605	584136	keystroke_Key.space	Key.space	n/a
292.237	0.1435	584474	keystroke_t	t	n/a
292.46	0.08	584920	keystroke_i	i	n/a
292.62	0.136	585240	keystroke_t	t	n/a
292.861	0.1275	585722	keystroke_a	a	n/a
293.0445	0.104	586089	keystroke_n	n	n/a
293.3085	0.064	586617	keystroke_i	i	n/a
293.5325	0.088	587065	keystroke_u	u	n/a
293.741	0.128	587482	keystroke_m	m	n/a
293.8845	0.176	587769	keystroke_Key.space	Key.space	n/a
294.1085	0.128	588217	keystroke_b	b	n/a
294.2765	0.144	588553	keystroke_r	r	n/a
294.4445	0.072	588889	keystroke_o	o	n/a
294.5245	0.104	589049	keystroke_w	w	n/a
294.8045	0.128	589609	keystroke_e	e	n/a
295.1245	0.064	590249	keystroke_Key.backspace	Key.backspace	n/a
295.1965	0.1275	590393	keystroke_s	s	n/a
295.269	0.135	590538	keystroke_e	e	n/a
295.332	0.1525	590664	keystroke_r	r	n/a
295.4685	0.1915	590937	keystroke_Key.space	Key.space	n/a
295.74	0.128	591480	keystroke_w	w	n/a
295.869	0.151	591738	keystroke_a	a	n/a
296.0125	0.0875	592025	keystroke_s	s	n/a
296.092	0.113	592184	keystroke_n	n	n/a
296.3485	0.0955	592697	keystroke_'	'	n/a
296.477	0.119	592954	keystroke_t	t	n/a
296.7885	0.0955	593577	keystroke_Key.enter	Key.enter	n/a
296.89	7.7315	593780	prompt	n/a	hostels britannica bulgarian flush\n
297.7	0.096	595400	keystroke_h	h	n/a
297.852	0.1125	595704	keystroke_o	o	n/a
298.0125	0.1275	596025	keystroke_s	s	n/a
298.1485	0.1355	596297	keystroke_t	t	n/a
298.5325	0.096	597065	keystroke_e	e	n/a
298.6675	0.129	597335	keystroke_l	l	n/a
299.0045	0.1045	598009	keystroke_s	s	n/a
299.1245	0.1195	598249	keystroke_Key.space	Key.space	n/a
299.365	0.087	598730	keystroke_b	b	n/a
299.5485	0.12	599097	keystroke_r	r	n/a
299.7085	0.08	599417	keystroke_i	i	n/a
299.8365	0.152	599673	keystroke_t	t	n/a
300.1085	0.1205	600217	keystroke_a	a	n/a
300.2995	0.24	600599	keystroke_n	n	n/a
300.7085	0.104	601417	keystroke_n	n	n/a
300.901	0.111	601802	keystroke_i	i	n/a
300.9965	0.184	601993	keystroke_c	c	n/a
301.188	0.1205	602376	keystroke_a	a	n/a
301.4365	0.1595	602873	keystroke_Key.space	Key.space	n/a
301.6525	0.12	603305	keystroke_b	b	n/a
301.8365	0.1035	603673	keystroke_u	u	n/a
302.348	0.104	604696	keystroke_l	l	n/a
302.7245	0.128	605449	keystroke_g	g	n/a
302.996	0.12	605992	keystroke_a	a	n/a
303.1005	0.104	606201	keystroke_r	r	n/a
303.188	0.112	606376	keystroke_i	i	n/a
303.3405	0.0875	606681	keystroke_a	a	n/a
303.4365	0.1195	606873	keystroke_n	n	n/a
303.54	0.176	607080	keystroke_Key.space	Key.space	n/a
303.78	0.1285	607560	keystroke_f	f	n/a
303.892	0.056	607784	keystroke_l	l	n/a
304.044	0.096	608088	keystroke_u	u	n/a
304.156	0.152	608312	keystroke_s	s	n/a
304.22	0.12	608440	keystroke_h	h	n/a
304.54	0.08	609080	keystroke_Key.enter	Key.enter	n/a
304.6275	7.226	609255	prompt	n/a	separate bearing segment baptist\n
305.388	0.128	610776	keystroke_s	s	n/a
305.612	0.1515	611224	keystroke_e	e	n/a
305.7645	0.1115	611529	keystroke_p	p	n/a
306.0045	0.1435	612009	keystroke_a	a	n/a
306.2355	0.112	612471	keystroke_r	r	n/a
306.3645	0.103	612729	keystroke_a	a	n/a
306.6035	0.1205	613207	keystroke_t	t	n/a
306.804	0.0795	613608	keystroke_e	e	n/a
306.8195	0.1205	613639	keystroke_Key.space	Key.space	n/a
307.1955	0.112	614391	keystroke_b	b	n/a
307.3645	0.12	614729	keystroke_e	e	n/a
307.4995	0.129	614999	keystroke_a	a	n/a
307.58	0.1115	615160	keystroke_r	r	n/a
307.6925	0.0795	615385	keystroke_i	i	n/a
307.844	0.1125	615688	keystroke_n	n	n/a
307.9395	0.152	615879	keystroke_g	g	n/a
308.052	0.1355	616104	keystroke_Key.space	Key.space	n/a
308.2355	0.1205	616471	keystroke_s	s	n/a
308.308	0.152	616616	keystroke_e	e	n/a
308.5715	0.0965	617143	keystroke_g	g	n/a
309.1235	0.088	618247	keystroke_e	e	n/a
309.4035	0.08	618807	keystroke_Key.backspace	Key.backspace	n/a
309.668	0.104	619336	keystroke_m	m	n/a
309.7875	0.128	619575	keystroke_e	e	n/a
309.9235	0.0885	619847	keystroke_n	n	n/a
310.0045	0.1675	620009	keystroke_t	t	n/a
310.172	0.12	620344	keystroke_Key.space	Key.space	n/a
310.34	0.112	620680	keystroke_b	b	n/a
310.5075	0.1045	621015	keystroke_a	a	n/a
310.6435	0.096	621287	keystroke_p	p	n/a
310.852	0.144	621704	keystroke_t	t	n/a
310.98	0.112	621960	keystroke_i	i	n/a
311.1565	0.112	622313	keystroke_s	s	n/a
311.228	0.1365	622456	keystroke_t	t	n/a
311.78	0.0715	623560	keystroke_Key.enter	Key.enter	n/a
311.858	7.3155	623716	prompt	n/a	mechanical communication ment detection\n
312.5245	0.12	625049	keystroke_m	m	n/a
312.6365	0.152	625273	keystroke_e	e	n/a
312.8925	0.1435	625785	keystroke_c	c	n/a
312.9715	0.12	625943	keystroke_h	h	n/a
313.1955	0.153	626391	keystroke_a	a	n/a
313.2915	0.096	626583	keystroke_n	n	n/a
313.5	0.0955	627000	keystroke_i	i	n/a
313.5875	0.16	627175	keystroke_c	c	n/a
313.7715	0.1525	627543	keystroke_a	a	n/a
313.868	0.112	627736	keystroke_l	l	n/a
313.972	0.1435	627944	keystroke_Key.space	Key.space	n/a
314.2035	0.113	628407	keystroke_c	c	n/a
314.3085	0.0555	628617	keystroke_o	o	n/a
314.6605	0.079	629321	keystroke_m	m	n/a
314.82	0.096	629640	keystroke_m	m	n/a
315.02	0.1115	630040	keystroke_u	u	n/a
315.204	0.104	630408	keystroke_n	n	n/a
315.404	0.1125	630808	keystroke_i	i	n/a
315.508	0.1205	631016	keystroke_c	c	n/a
315.6445	0.112	631289	keystroke_a	a	n/a
315.86	0.128	631720	keystroke_t	t	n/a
315.924	0.12	631848	keystroke_i	i	n/a
316.004	0.088	632008	keystroke_o	o	n/a
316.14	0.128	632280	keystroke_n	n	n/a
316.243	0.144	632486	keystroke_Key.space	Key.space	n/a
316.42	0.1285	632840	keystroke_m	m	n/a
316.5645	0.1515	633129	keystroke_e	e	n/a
316.7245	0.1265	633449	keystroke_n	n	n/a
316.8365	0.1355	633673	keystroke_t	t	n/a
316.924	0.16	633848	keystroke_Key.space	Key.space	n/a
317.3485	0.104	634697	keystroke_d	d	n/a
317.556	0.136	635112	keystroke_e	e	n/a
317.684	0.1525	635368	keystroke_t	t	n/a
317.9405	0.1745	635881	keystroke_e	e	n/a
318.196	0.112	636392	keystroke_c	c	n/a
318.531	0.105	637062	keystroke_t	t	n/a
318.604	0.112	637208	keystroke_i	i	n/a
318.66	0.088	637320	keystroke_o	o	n/a
318.78	0.1285	637560	keystroke_n	n	n/a
319.1315	0.04	638263	keystroke_Key.enter	Key.enter	n/a
319.1775	7.42	638355	prompt	n/a	scenarios beans dedicated refurbished\n
320.132	0.128	640264	keystroke_s	s	n/a
320.4045	0.1435	640809	keystroke_c	c	n/a
320.572	0.096	641144	keystroke_e	e	n/a
320.724	0.088	641448	keystroke_n	n	n/a
320.9245	0.12	641849	keystroke_a	a	n/a
321.0205	0.143	642041	keystroke_r	r	n/a
321.1645	0.112	642329	keystroke_i	i	n/a
321.2445	0.087	642489	keystroke_o	o	n/a
321.3635	0.072	642727	keystroke_s	s	n/a
321.4275	0.16	642855	keystroke_Key.space	Key.space	n/a
321.652	0.1115	643304	keystroke_b	b	n/a
321.7485	0.136	643497	keystroke_e	e	n/a
321.9085	0.1195	643817	keystroke_a	a	n/a
322.0355	0.0885	644071	keystroke_n	n	n/a
322.116	0.104	644232	keystroke_s	s	n/a
322.2275	0.1605	644455	keystroke_Key.space	Key.space	n/a
322.508	0.096	645016	keystroke_d	d	n/a
322.692	0.089	645384	keystroke_s	s	n/a
323.1	0.072	646200	keystroke_Key.backspace	Key.backspace	n/a
323.18	0.136	646360	keystroke_e	e	n/a
323.516	0.104	647032	keystroke_d	d	n/a
323.6915	0.0885	647383	keystroke_i	i	n/a
323.828	0.128	647656	keystroke_c	c	n/a
324.0195	0.121	648039	keystroke_a	a	n/a
324.1875	0.096	648375	keystroke_t	t	n/a
324.2595	0.16	648519	keystroke_e	e	n/a
324.5085	0.1185	649017	keystroke_d	d	n/a
324.6035	0.1515	649207	keystroke_Key.space	Key.space	n/a
324.804	0.112	649608	keystroke_r	r	n/a
324.8765	0.16	649753	keystroke_e	e	n/a
325.1075	0.096	650215	keystroke_f	f	n/a
325.2515	0.096	650503	keystroke_u	u	n/a
325.516	0.087	651032	keystroke_r	r	n/a
325.627	0.057	651254	keystroke_b	b	n/a
325.9165	0.095	651833	keystroke_i	i	n/a
326.06	0.0875	652120	keystroke_s	s	n/a
326.155	0.081	652310	keystroke_h	h	n/a
326.267	0.161	652534	keystroke_e	e	n/a
326.396	0.127	652792	keystroke_d	d	n/a
326.5315	0.0635	653063	keystroke_Key.enter	Key.enter	n/a
326.602	7.004	653204	prompt	n/a	republic traveling norfolk england\n
327.3555	0.153	654711	keystroke_r	r	n/a
327.411	0.1455	654822	keystroke_e	e	n/a
327.557	0.1035	655114	keystroke_p	p	n/a
327.796	0.095	655592	keystroke_u	u	n/a
328.012	0.096	656024	keystroke_b	b	n/a
328.2035	0.08	656407	keystroke_l	l	n/a
328.3075	0.1205	656615	keystroke_i	i	n/a
328.5715	0.1125	657143	keystroke_c	c	n/a
328.6755	0.136	657351	keystroke_Key.space	Key.space	n/a
328.9315	0.0725	657863	keystroke_t	t	n/a
329.1955	0.136	658391	keystroke_r	r	n/a
329.3395	0.072	658679	keystroke_a	a	n/a
329.6045	0.1265	659209	keystroke_v	v	n/a
329.723	0.12	659446	keystroke_e	e	n/a
329.812	0.096	659624	keystroke_l	l	n/a
329.948	0.112	659896	keystroke_i	i	n/a
330.132	0.12	660264	keystroke_n	n	n/a
330.203	0.113	660406	keystroke_g	g	n/a
330.276	0.2	660552	keystroke_Key.space	Key.space	n/a
330.483	0.105	660966	keystroke_b	b	n/a
330.811	0.0725	661622	keystroke_Key.backspace	Key.backspace	n/a
331.0755	0.1045	662151	keystroke_n	n	n/a
331.22	0.12	662440	keystroke_o	o	n/a
331.332	0.096	662664	keystroke_r	r	n/a
331.5875	0.1045	663175	keystroke_f	f	n/a
331.723	0.0485	663446	keystroke_o	o	n/a
331.948	0.103	663896	keystroke_l	l	n/a
332.019	0.1365	664038	keystroke_k	k	n/a
332.2035	0.1605	664407	keystroke_Key.space	Key.space	n/a
332.396	0.1035	664792	keystroke_e	e	n/a
332.5715	0.104	665143	keystroke_n	n	n/a
332.7875	0.1285	665575	keystroke_g	g	n/a
332.9475	0.0725	665895	keystroke_l	l	n/a
333.0835	0.1045	666167	keystroke_a	a	n/a
333.1635	0.096	666327	keystroke_n	n	n/a
333.2515	0.0885	666503	keystroke_d	d	n/a
333.5315	0.0725	667063	keystroke_Key.enter	Key.enter	n/a
333.6095	8.564	667219	prompt	n/a	deemed bloomberg term niagara\n
334.42	0.128	668840	keystroke_d	d	n/a
334.5075	0.144	669015	keystroke_e	e	n/a
334.6595	0.072	669319	keystroke_m	m	n/a
334.804	0.096	669608	keystroke_m	m	n/a
334.932	0.103	669864	keystroke_e	e	n/a
335.019	0.097	670038	keystroke_d	d	n/a
335.524	0.056	671048	keystroke_Key.backspace	Key.backspace	n/a
335.78	0.048	671560	keystroke_Key.backspace	Key.backspace	n/a
335.892	0.08	671784	keystroke_Key.backspace	Key.backspace	n/a
336.084	0.0795	672168	keystroke_Key.backspace	Key.backspace	n/a
336.291	0.129	672582	keystroke_e	e	n/a
336.4915	0.0885	672983	keystroke_m	m	n/a
336.667	0.1605	673334	keystroke_e	e	n/a
336.804	0.1205	673608	keystroke_d	d	n/a
337.1555	0.1525	674311	keystroke_Key.space	Key.space	n/a
337.499	0.0965	674998	keystroke_b	b	n/a
337.94	0.08	675880	keystroke_l	l	n/a
338.131	0.0725	676262	keystroke_o	o	n/a
338.2835	0.12	676567	keystroke_o	o	n/a
338.4675	0.152	676935	keystroke_m	m	n/a
338.7875	0.1195	677575	keystroke_b	b	n/a
338.9155	0.136	677831	keystroke_e	e	n/a
338.971	0.121	677942	keystroke_r	r	n/a
339.268	0.1435	678536	keystroke_g	g	n/a
339.4515	0.136	678903	keystroke_Key.space	Key.space	n/a
339.6755	0.16	679351	keystroke_t	t	n/a
339.8675	0.144	679735	keystroke_e	e	n/a
340.0195	0.136	680039	keystroke_r	r	n/a
340.252	0.0955	680504	keystroke_m	m	n/a
340.5075	0.152	681015	keystroke_Key.space	Key.space	n/a
340.8035	0.1045	681607	keystroke_n	n	n/a
341.0115	0.1035	682023	keystroke_i	i	n/a
341.148	0.112	682296	keystroke_a	a	n/a
341.372	0.1195	682744	keystroke_g	g	n/a
341.603	0.1365	683206	keystroke_a	a	n/a
341.691	0.1445	683382	keystroke_r	r	n/a
341.8115	0.112	683623	keystroke_a	a	n/a
342.0835	0.088	684167	keystroke_Key.enter	Key.enter	n/a
342.178	7.3625	684356	prompt	n/a	ottawa publishers inspired wrote\n
342.7955	0.1445	685591	keystroke_o	o	n/a
343.0195	0.0795	686039	keystroke_t	t	n/a
343.1875	0.1195	686375	keystroke_t	t	n/a
343.38	0.1195	686760	keystroke_a	a	n/a
343.475	0.113	686950	keystroke_w	w	n/a
343.915	0.1205	687830	keystroke_a	a	n/a
344.083	0.12	688166	keystroke_Key.space	Key.space	n/a
344.411	0.0805	688822	keystroke_p	p	n/a
344.6435	0.088	689287	keystroke_u	u	n/a
344.835	0.08	689670	keystroke_b	b	n/a
345.1075	0.096	690215	keystroke_l	l	n/a
345.2915	0.096	690583	keystroke_i	i	n/a
345.4515	0.1125	690903	keystroke_s	s	n/a
345.5715	0.112	691143	keystroke_h	h	n/a
345.7795	0.1685	691559	keystroke_r	r	n/a
345.915	0.152	691830	keystroke_e	e	n/a
346.027	0.096	692054	keystroke_s	s	n/a
346.2675	0.048	692535	keystroke_Key.backspace	Key.backspace	n/a
346.396	0.0555	692792	keystroke_Key.backspace	Key.backspace	n/a
346.5235	0.104	693047	keystroke_Key.backspace	Key.backspace	n/a
346.6435	0.1355	693287	keystroke_e	e	n/a
346.716	0.1115	693432	keystroke_r	r	n/a
346.836	0.1035	693672	keystroke_s	s	n/a
347.0275	0.1755	694055	keystroke_Key.space	Key.space	n/a
347.379	0.104	694758	keystroke_i	i	n/a
347.5715	0.104	695143	keystroke_n	n	n/a
347.7075	0.104	695415	keystroke_s	s	n/a
347.8355	0.0885	695671	keystroke_p	p	n/a
348.0515	0.088	696103	keystroke_i	i	n/a
348.164	0.1275	696328	keystroke_r	r	n/a
348.316	0.16	696632	keystroke_e	e	n/a
348.4275	0.12	696855	keystroke_d	d	n/a
348.539	0.1685	697078	keystroke_Key.space	Key.space	n/a
348.828	0.127	697656	keystroke_w	w	n/a
348.98	0.1035	697960	keystroke_r	r	n/a
349.0755	0.1045	698151	keystroke_o	o	n/a
349.212	0.1195	698424	keystroke_t	t	n/a
349.2595	0.144	698519	keystroke_e	e	n/a
349.476	0.0635	698952	keystroke_Key.enter	Key.enter	n/a
349.5435	6.3185	699087	prompt	n/a	corn circulation mess following\n
350.219	0.104	700438	keystroke_c	c	n/a
350.363	0.081	700726	keystroke_o	o	n/a
350.516	0.136	701032	keystroke_r	r	n/a
350.643	0.112	701286	keystroke_n	n	n/a
350.747	0.16	701494	keystroke_Key.space	Key.space	n/a
350.876	0.136	701752	keystroke_c	c	n/a
350.987	0.08	701974	keystroke_i	i	n/a
351.355	0.097	702710	keystroke_r	r	n/a
351.8675	0.1515	703735	keystroke_c	c	n/a
351.9635	0.0875	703927	keystroke_u	u	n/a
352.18	0.0635	704360	keystroke_l	l	n/a
352.2745	0.121	704549	keystroke_a	a	n/a
352.4425	0.129	704885	keystroke_t	t	n/a
352.5305	0.121	705061	keystroke_i	i	n/a
352.611	0.0725	705222	keystroke_o	o	n/a
352.7315	0.12	705463	keystroke_n	n	n/a
352.8195	0.128	705639	keystroke_Key.space	Key.space	n/a
353.0915	0.096	706183	keystroke_e	e	n/a
353.3875	0.064	706775	keystroke_Key.backspace	Key.backspace	n/a
353.6355	0.1285	707271	keystroke_m	m	n/a
353.7315	0.136	707463	keystroke_e	e	n/a
353.8115	0.096	707623	keystroke_s	s	n/a
353.988	0.127	707976	keystroke_s	s	n/a
354.131	0.136	708262	keystroke_Key.space	Key.space	n/a
354.307	0.096	708614	keystroke_f	f	n/a
354.4115	0.0795	708823	keystroke_o	o	n/a
354.611	0.096	709222	keystroke_l	l	n/a
354.8115	0.056	709623	keystroke_l	l	n/a
355.059	0.104	710118	keystroke_o	o	n/a
355.203	0.096	710406	keystroke_w	w	n/a
355.2915	0.1035	710583	keystroke_i	i	n/a
355.4675	0.1275	710935	keystroke_n	n	n/a
355.5555	0.144	711111	keystroke_g	g	n/a
355.7795	0.079	711559	keystroke_Key.enter	Key.enter	n/a
355.866	5.939	711732	prompt	n/a	burke isle users sharon\n
356.5635	0.112	713127	keystroke_b	b	n/a
356.8035	0.104	713607	keystroke_u	u	n/a
357.0675	0.104	714135	keystroke_r	r	n/a
357.163	0.1045	714326	keystroke_k	k	n/a
357.3075	0.08	714615	keystroke_e	e	n/a
357.4435	0.16	714887	keystroke_Key.space	Key.space	n/a
357.6905	0.089	715381	keystroke_i	i	n/a
357.8435	0.12	715687	keystroke_s	s	n/a
358.219	0.0725	716438	keystroke_l	l	n/a
358.339	0.12	716678	keystroke_e	e	n/a
358.5	0.079	717000	keystroke_s	s	n/a
358.8675	0.0715	717735	keystroke_Key.backspace	Key.backspace	n/a
359.035	0.1525	718070	keystroke_Key.space	Key.space	n/a
359.3395	0.088	718679	keystroke_u	u	n/a
359.491	0.1525	718982	keystroke_s	s	n/a
359.6195	0.0875	719239	keystroke_e	e	n/a
359.6595	0.1675	719319	keystroke_r	r	n/a
359.7955	0.112	719591	keystroke_s	s	n/a
360.155	0.1355	720310	keystroke_Key.space	Key.space	n/a
360.4745	0.081	720949	keystroke_s	s	n/a
360.5475	0.104	721095	keystroke_h	h	n/a
360.7395	0.1515	721479	keystroke_a	a	n/a
360.947	0.12	721894	keystroke_r	r	n/a
361.307	0.072	722614	keystroke_o	o	n/a
361.4355	0.1035	722871	keystroke_n	n	n/a
361.731	0.072	723462	keystroke_Key.enter	Key.enter	n/a
361.809	6.0595	723618	prompt	n/a	spyware devoted cottage teach\n
362.6755	0.087	725351	keystroke_s	s	n/a
362.715	0.1035	725430	keystroke_p	p	n/a
363.003	0.1205	726006	keystroke_y	y	n/a
363.2595	0.152	726519	keystroke_w	w	n/a
363.3635	0.136	726727	keystroke_a	a	n/a
363.523	0.1285	727046	keystroke_r	r	n/a
363.6115	0.127	727223	keystroke_e	e	n/a
363.7155	0.1435	727431	keystroke_Key.space	Key.space	n/a
363.971	0.088	727942	keystroke_d	d	n/a
364.035	0.08	728070	keystroke_e	e	n/a
364.2355	0.1125	728471	keystroke_v	v	n/a
364.387	0.104	728774	keystroke_o	o	n/a
364.515	0.128	729030	keystroke_t	t	n/a
364.619	0.1845	729238	keystroke_e	e	n/a
364.8265	0.097	729653	keystroke_d	d	n/a
364.9075	0.1515	729815	keystroke_Key.space	Key.space	n/a
365.075	0.1115	730150	keystroke_c	c	n/a
365.195	0.0635	730390	keystroke_o	o	n/a
365.371	0.0955	730742	keystroke_t	t	n/a
365.4995	0.12	730999	keystroke_t	t	n/a
365.795	0.112	731590	keystroke_a	a	n/a
366.035	0.128	732070	keystroke_g	g	n/a
366.139	0.1195	732278	keystroke_e	e	n/a
366.5075	0.167	733015	keystroke_Key.space	Key.space	n/a
366.8035	0.1595	733607	keystroke_t	t	n/a
367.004	0.1035	734008	keystroke_e	e	n/a
367.2505	0.097	734501	keystroke_a	a	n/a
367.427	0.1355	734854	keystroke_c	c	n/a
367.475	0.1205	734950	keystroke_h	h	n/a
367.7785	0.088	735557	keystroke_Key.enter	Key.enter	n/a
367.873	5.9955	735746	prompt	n/a	modify dating station scale\n
368.6195	0.144	737239	keystroke_m	m	n/a
368.7545	0.153	737509	keystroke_o	o	n/a
368.923	0.0965	737846	keystroke_d	d	n/a
369.4275	0.087	738855	keystroke_i	i	n/a
369.5705	0.0965	739141	keystroke_f	f	n/a
369.683	0.12	739366	keystroke_y	y	n/a
369.843	0.144	739686	keystroke_Key.space	Key.space	n/a
370.619	0.1045	741238	keystroke_d	d	n/a
370.7475	0.0875	741495	keystroke_a	a	n/a
370.9785	0.1205	741957	keystroke_t	t	n/a
371.1155	0.071	742231	keystroke_i	i	n/a
371.2905	0.12	742581	keystroke_n	n	n/a
371.4025	0.105	742805	keystroke_g	g	n/a
371.499	0.1525	742998	keystroke_Key.space	Key.space	n/a
371.851	0.121	743702	keystroke_s	s	n/a
372.068	0.095	744136	keystroke_t	t	n/a
372.2435	0.111	744487	keystroke_a	a	n/a
372.3465	0.097	744693	keystroke_t	t	n/a
372.4585	0.096	744917	keystroke_i	i	n/a
372.523	0.0645	745046	keystroke_o	o	n/a
372.6585	0.1285	745317	keystroke_n	n	n/a
372.7625	0.1205	745525	keystroke_Key.space	Key.space	n/a
372.8995	0.079	745799	keystroke_s	s	n/a
373.0585	0.1605	746117	keystroke_c	c	n/a
373.2425	0.145	746485	keystroke_a	a	n/a
373.3945	0.1125	746789	keystroke_l	l	n/a
373.4905	0.112	746981	keystroke_e	e	n/a
373.8025	0.064	747605	keystroke_Key.enter	Key.enter	n/a
373.876	7.1125	747752	prompt	n/a	ruth returns shares accordance\n
374.3865	0.1445	748773	keystroke_r	r	n/a
374.635	0.1045	749270	keystroke_u	u	n/a
374.756	0.135	749512	keystroke_t	t	n/a
374.8915	0.1115	749783	keystroke_h	h	n/a
374.987	0.144	749974	keystroke_e	e	n/a
375.355	0.136	750710	keystroke_Key.space	Key.space	n/a
375.8515	0.168	751703	keystroke_Key.backspace	Key.backspace	n/a
376.2195	0.112	752439	keystroke_Key.backspace	Key.backspace	n/a
376.4115	0.208	752823	keystroke_Key.space	Key.space	n/a
376.7395	0.175	753479	keystroke_r	r	n/a
376.8835	0.16	753767	keystroke_e	e	n/a
377.0675	0.12	754135	keystroke_t	t	n/a
377.1955	0.112	754391	keystroke_u	u	n/a
377.3385	0.145	754677	keystroke_r	r	n/a
377.4915	0.088	754983	keystroke_n	n	n/a
377.5555	0.136	755111	keystroke_s	s	n/a
377.7065	0.1205	755413	keystroke_Key.space	Key.space	n/a
377.9865	0.088	755973	keystroke_s	s	n/a
378.0675	0.128	756135	keystroke_h	h	n/a
378.1635	0.104	756327	keystroke_a	a	n/a
378.2675	0.12	756535	keystroke_r	r	n/a
378.3465	0.168	756693	keystroke_e	e	n/a
378.6105	0.12	757221	keystroke_s	s	n/a
378.7395	0.1435	757479	keystroke_Key.space	Key.space	n/a
379.2505	0.088	758501	keystroke_a	a	n/a
379.4435	0.064	758887	keystroke_c	c	n/a
379.5945	0.096	759189	keystroke_c	c	n/a
379.7475	0.127	759495	keystroke_o	o	n/a
379.8915	0.096	759783	keystroke_r	r	n/a
380.1225	0.097	760245	keystroke_d	d	n/a
380.2995	0.087	760599	keystroke_a	a	n/a
380.4195	0.1035	760839	keystroke_n	n	n/a
380.5635	0.143	761127	keystroke_c	c	n/a
380.6275	0.135	761255	keystroke_e	e	n/a
380.907	0.08	761814	keystroke_Key.enter	Key.enter	n/a
380.9935	6.283	761987	prompt	n/a	nice hostels ruling vitamins\n
381.6275	0.128	763255	keystroke_n	n	n/a
381.8195	0.12	763639	keystroke_i	i	n/a
381.8915	0.151	763783	keystroke_c	c	n/a
381.9555	0.1595	763911	keystroke_e	e	n/a
382.1155	0.191	764231	keystroke_Key.space	Key.space	n/a
382.3155	0.112	764631	keystroke_h	h	n/a
382.4345	0.1125	764869	keystroke_o	o	n/a
382.587	0.112	765174	keystroke_s	s	n/a
382.755	0.128	765510	keystroke_t	t	n/a
383.0275	0.112	766055	keystroke_e	e	n/a
383.1785	0.112	766357	keystroke_l	l	n/a
383.427	0.1195	766854	keystroke_s	s	n/a
383.5475	0.135	767095	keystroke_Key.space	Key.space	n/a
383.979	0.096	767958	keystroke_r	r	n/a
384.083	0.072	768166	keystroke_u	u	n/a
384.443	0.104	768886	keystroke_l	l	n/a
384.6675	0.0955	769335	keystroke_i	i	n/a
385.0195	0.128	770039	keystroke_n	n	n/a
385.1145	0.153	770229	keystroke_g	g	n/a
385.2515	0.143	770503	keystroke_Key.space	Key.space	n/a
385.763	0.128	771526	keystroke_v	v	n/a
386.0425	0.081	772085	keystroke_i	i	n/a
386.1635	0.12	772327	keystroke_t	t	n/a
386.3705	0.0965	772741	keystroke_a	a	n/a
386.5305	0.1685	773061	keystroke_m	m	n/a
386.6755	0.1275	773351	keystroke_i	i	n/a
386.843	0.136	773686	keystroke_n	n	n/a
386.955	0.112	773910	keystroke_s	s	n/a
387.1705	0.104	774341	keystroke_Key.enter	Key.enter	n/a
387.281	7.7635	774562	prompt	n/a	interior luggage mrna brazil\n
387.85	0.0965	775700	keystroke_i	i	n/a
388.051	0.1195	776102	keystroke_n	n	n/a
388.1395	0.119	776279	keystroke_t	t	n/a
388.2745	0.136	776549	keystroke_e	e	n/a
388.3785	0.12	776757	keystroke_r	r	n/a
388.971	0.1515	777942	keystroke_i	i	n/a
389.075	0.1275	778150	keystroke_o	o	n/a
389.2185	0.1205	778437	keystroke_r	r	n/a
389.3785	0.1845	778757	keystroke_Key.space	Key.space	n/a
389.587	0.0805	779174	keystroke_l	l	n/a
389.787	0.088	779574	keystroke_u	u	n/a
390.131	0.136	780262	keystroke_g	g	n/a
390.291	0.128	780582	keystroke_g	g	n/a
390.6755	0.1035	781351	keystroke_a	a	n/a
391.131	0.0565	782262	keystroke_e	e	n/a
391.459	0.079	782918	keystroke_Key.backspace	Key.backspace	n/a
391.531	0.176	783062	keystroke_g	g	n/a
391.698	0.089	783396	keystroke_e	e	n/a
391.819	0.216	783638	keystroke_Key.space	Key.space	n/a
392.043	0.136	784086	keystroke_m	m	n/a
392.435	0.096	784870	keystroke_r	r	n/a
392.667	0.12	785334	keystroke_n	n	n/a
392.931	0.104	785862	keystroke_a	a	n/a
393.099	0.168	786198	keystroke_Key.space	Key.space	n/a
393.3075	0.104	786615	keystroke_b	b	n/a
393.5155	0.144	787031	keystroke_r	r	n/a
393.747	0.0715	787494	keystroke_a	a	n/a
394.2665	0.089	788533	keystroke_z	z	n/a
394.459	0.136	788918	keystroke_i	i	n/a
394.6345	0.1365	789269	keystroke_l	l	n/a
394.947	0.096	789894	keystroke_Key.enter	Key.enter	n/a
395.049	5.6355	790098	prompt	n/a	double dresses perth steve\n
395.707	0.136	791414	keystroke_d	d	n/a
395.811	0.064	791622	keystroke_o	o	n/a
395.939	0.1115	791878	keystroke_u	u	n/a
396.131	0.1045	792262	keystroke_b	b	n/a
396.323	0.12	792646	keystroke_l	l	n/a
396.435	0.088	792870	keystroke_e	e	n/a
396.491	0.168	792982	keystroke_Key.space	Key.space	n/a
396.635	0.12	793270	keystroke_d	d	n/a
396.891	0.168	793782	keystroke_r	r	n/a
396.947	0.2075	793894	keystroke_e	e	n/a
397.0985	0.112	794197	keystroke_s	s	n/a
397.6665	0.1045	795333	keystroke_s	s	n/a
397.811	0.16	795622	keystroke_e	e	n/a
397.931	0.1115	795862	keystroke_s	s	n/a
398.1065	0.152	796213	keystroke_Key.space	Key.space	n/a
398.307	0.1115	796614	keystroke_p	p	n/a
398.4105	0.112	796821	keystroke_e	e	n/a
398.459	0.128	796918	keystroke_r	r	n/a
398.9865	0.1605	797973	keystroke_t	t	n/a
399.163	0.136	798326	keystroke_h	h	n/a
399.339	0.1755	798678	keystroke_Key.space	Key.space	n/a
399.651	0.1125	799302	keystroke_s	s	n/a
399.891	0.128	799782	keystroke_t	t	n/a
400.019	0.135	800038	keystroke_e	e	n/a
400.2915	0.1115	800583	keystroke_v	v	n/a
400.4435	0.1435	800887	keystroke_e	e	n/a
400.587	0.095	801174	keystroke_Key.enter	Key.enter	n/a
400.6885	6.956	801377	prompt	n/a	absence secrets replied beside\n
401.355	0.152	802710	keystroke_a	a	n/a
401.5	0.127	803000	keystroke_b	b	n/a
401.6595	0.1515	803319	keystroke_s	s	n/a
401.795	0.128	803590	keystroke_e	e	n/a
401.9235	0.104	803847	keystroke_n	n	n/a
402.3065	0.1125	804613	keystroke_c	c	n/a
402.3635	0.151	804727	keystroke_e	e	n/a
402.5625	0.1205	805125	keystroke_Key.space	Key.space	n/a
402.883	0.1285	805766	keystroke_s	s	n/a
402.9475	0.2075	805895	keystroke_e	e	n/a
403.291	0.1195	806582	keystroke_c	c	n/a
403.5705	0.1285	807141	keystroke_r	r	n/a
403.6595	0.1835	807319	keystroke_e	e	n/a
403.8435	0.127	807687	keystroke_t	t	n/a
403.9715	0.104	807943	keystroke_s	s	n/a
404.115	0.1675	808230	keystroke_Key.space	Key.space	n/a
404.291	0.111	808582	keystroke_r	r	n/a
404.659	0.0715	809318	keystroke_p	p	n/a
405.179	0.064	810358	keystroke_Key.backspace	Key.backspace	n/a
405.291	0.12	810582	keystroke_e	e	n/a
405.443	0.0875	810886	keystroke_p	p	n/a
405.683	0.088	811366	keystroke_l	l	n/a
405.883	0.088	811766	keystroke_i	i	n/a
405.995	0.12	811990	keystroke_e	e	n/a
406.195	0.104	812390	keystroke_d	d	n/a
406.299	0.168	812598	keystroke_Key.space	Key.space	n/a
406.483	0.12	812966	keystroke_b	b	n/a
406.7145	0.176	813429	keystroke_e	e	n/a
407.011	0.088	814022	keystroke_s	s	n/a
407.075	0.112	814150	keystroke_i	i	n/a
407.243	0.0885	814486	keystroke_d	d	n/a
407.299	0.128	814598	keystroke_e	e	n/a
407.571	0.072	815142	keystroke_Key.enter	Key.enter	n/a
407.649	9.2435	815298	prompt	n/a	guided commercial appreciation triple\n
408.587	0.128	817174	keystroke_g	g	n/a
408.723	0.12	817446	keystroke_u	u	n/a
408.794	0.104	817588	keystroke_i	i	n/a
408.939	0.104	817878	keystroke_d	d	n/a
409.003	0.1355	818006	keystroke_e	e	n/a
409.531	0.0795	819062	keystroke_d	d	n/a
409.619	0.1195	819238	keystroke_Key.space	Key.space	n/a
409.8905	0.129	819781	keystroke_c	c	n/a
410.0265	0.0405	820053	keystroke_o	o	n/a
410.3865	0.072	820773	keystroke_m	m	n/a
410.5145	0.096	821029	keystroke_m	m	n/a
410.7465	0.0965	821493	keystroke_e	e	n/a
410.7945	0.136	821589	keystroke_r	r	n/a
411.067	0.08	822134	keystroke_i	i	n/a
411.1705	0.12	822341	keystroke_c	c	n/a
411.4105	0.1045	822821	keystroke_a	a	n/a
411.5465	0.104	823093	keystroke_l	l	n/a
412.194	0.057	824388	keystroke_Key.backspace	Key.backspace	n/a
412.626	0.064	825252	keystroke_Key.backspace	Key.backspace	n/a
412.779	0.063	825558	keystroke_Key.backspace	Key.backspace	n/a
412.93	0.072	825860	keystroke_Key.backspace	Key.backspace	n/a
413.082	0.128	826164	keystroke_c	c	n/a
413.435	0.056	826870	keystroke_i	i	n/a
413.627	0.128	827254	keystroke_a	a	n/a
413.691	0.12	827382	keystroke_l	l	n/a
413.795	0.1915	827590	keystroke_Key.space	Key.space	n/a
414.0505	0.12	828101	keystroke_a	a	n/a
414.1225	0.088	828245	keystroke_p	p	n/a
414.275	0.0955	828550	keystroke_p	p	n/a
414.4185	0.152	828837	keystroke_r	r	n/a
414.563	0.1755	829126	keystroke_e	e	n/a
414.8025	0.144	829605	keystroke_c	c	n/a
414.947	0.0715	829894	keystroke_i	i	n/a
415.075	0.1035	830150	keystroke_a	a	n/a
415.2515	0.1195	830503	keystroke_t	t	n/a
415.3305	0.104	830661	keystroke_i	i	n/a
415.4025	0.072	830805	keystroke_o	o	n/a
415.5305	0.1445	831061	keystroke_n	n	n/a
415.6505	0.1445	831301	keystroke_Key.space	Key.space	n/a
415.899	0.0955	831798	keystroke_t	t	n/a
416.0985	0.128	832197	keystroke_r	r	n/a
416.1705	0.072	832341	keystroke_i	i	n/a
416.3385	0.1765	832677	keystroke_p	p	n/a
416.459	0.1355	832918	keystroke_l	l	n/a
416.5465	0.1685	833093	keystroke_e	e	n/a
416.811	0.0795	833622	keystroke_Key.enter	Key.enter	n/a
416.8965	8.0115	833793	prompt	n/a	conservative themselves mistakes types\n
417.587	0.1445	835174	keystroke_c	c	n/a
417.666	0.066	835332	keystroke_o	o	n/a
417.81	0.152	835620	keystroke_n	n	n/a
417.939	0.167	835878	keystroke_s	s	n/a
418.051	0.1675	836102	keystroke_e	e	n/a
418.139	0.1275	836278	keystroke_r	r	n/a
418.715	0.128	837430	keystroke_v	v	n/a
418.995	0.112	837990	keystroke_a	a	n/a
419.099	0.144	838198	keystroke_t	t	n/a
419.2265	0.096	838453	keystroke_i	i	n/a
419.4665	0.128	838933	keystroke_v	v	n/a
419.6105	0.1525	839221	keystroke_e	e	n/a
419.7385	0.152	839477	keystroke_Key.space	Key.space	n/a
419.899	0.1355	839798	keystroke_t	t	n/a
419.9865	0.128	839973	keystroke_h	h	n/a
420.0665	0.112	840133	keystroke_e	e	n/a
420.2745	0.1285	840549	keystroke_m	m	n/a
420.5705	0.1125	841141	keystroke_s	s	n/a
420.6265	0.152	841253	keystroke_e	e	n/a
420.843	0.0875	841686	keystroke_l	l	n/a
420.9305	0.1685	841861	keystroke_v	v	n/a
421.107	0.176	842214	keystroke_e	e	n/a
421.219	0.128	842438	keystroke_s	s	n/a
421.363	0.152	842726	keystroke_Key.space	Key.space	n/a
421.858	0.129	843716	keystroke_m	m	n/a
422.043	0.168	844086	keystroke_i	i	n/a
422.1545	0.1195	844309	keystroke_s	s	n/a
422.322	0.129	844644	keystroke_t	t	n/a
422.538	0.0645	845076	keystroke_a	a	n/a
422.618	0.104	845236	keystroke_k	k	n/a
422.714	0.2085	845428	keystroke_e	e	n/a
422.85	0.1685	845700	keystroke_s	s	n/a
423.3385	0.1355	846677	keystroke_Key.space	Key.space	n/a
423.49	0.137	846980	keystroke_t	t	n/a
423.803	0.072	847606	keystroke_y	y	n/a
424.018	0.129	848036	keystroke_p	p	n/a
424.163	0.119	848326	keystroke_e	e	n/a
424.234	0.096	848468	keystroke_s	s	n/a
424.738	0.1685	849476	keystroke_Key.enter	Key.enter	n/a
424.9125	5.2755	849825	prompt	n/a	an burns guard expert\n
425.6025	0.136	851205	keystroke_a	a	n/a
425.6745	0.1115	851349	keystroke_n	n	n/a
425.85	0.1605	851700	keystroke_Key.space	Key.space	n/a
426.123	0.1035	852246	keystroke_b	b	n/a
426.347	0.0955	852694	keystroke_u	u	n/a
426.867	0.135	853734	keystroke_r	r	n/a
427.01	0.096	854020	keystroke_n	n	n/a
427.322	0.128	854644	keystroke_s	s	n/a
427.602	0.16	855204	keystroke_Key.space	Key.space	n/a
427.946	0.16	855892	keystroke_g	g	n/a
428.083	0.127	856166	keystroke_u	u	n/a
428.227	0.16	856454	keystroke_a	a	n/a
428.314	0.129	856628	keystroke_r	r	n/a
428.667	0.127	857334	keystroke_d	d	n/a
428.786	0.153	857572	keystroke_Key.space	Key.space	n/a
429.0185	0.096	858037	keystroke_e	e	n/a
429.2905	0.12	858581	keystroke_x	x	n/a
429.3945	0.12	858789	keystroke_p	p	n/a
429.5865	0.168	859173	keystroke_e	e	n/a
429.6905	0.152	859381	keystroke_r	r	n/a
429.9465	0.136	859893	keystroke_t	t	n/a
430.0665	0.12	860133	keystroke_Key.enter	Key.enter	n/a
430.1915	6.0925	860383	prompt	n/a	voices bulk assessed projected\n
430.859	0.1195	861718	keystroke_v	v	n/a
430.9625	0.12	861925	keystroke_o	o	n/a
431.0505	0.096	862101	keystroke_i	i	n/a
431.1545	0.152	862309	keystroke_c	c	n/a
431.2185	0.16	862437	keystroke_e	e	n/a
431.314	0.168	862628	keystroke_s	s	n/a
431.474	0.056	862948	keystroke_Key.space	Key.space	n/a
431.6505	0.128	863301	keystroke_b	b	n/a
431.819	0.1195	863638	keystroke_u	u	n/a
432.2105	0.08	864421	keystroke_l	l	n/a
432.4265	0.144	864853	keystroke_k	k	n/a
432.5785	0.1515	865157	keystroke_Key.space	Key.space	n/a
432.786	0.1365	865572	keystroke_a	a	n/a
433.123	0.087	866246	keystroke_s	s	n/a
433.2985	0.0715	866597	keystroke_s	s	n/a
433.498	0.152	866996	keystroke_e	e	n/a
433.626	0.1125	867252	keystroke_s	s	n/a
433.85	0.088	867700	keystroke_s	s	n/a
434.026	0.1365	868052	keystroke_e	e	n/a
434.178	0.1125	868356	keystroke_d	d	n/a
434.3305	0.1515	868661	keystroke_Key.space	Key.space	n/a
434.6505	0.112	869301	keystroke_p	p	n/a
434.81	0.0885	869620	keystroke_r	r	n/a
434.938	0.097	869876	keystroke_o	o	n/a
435.162	0.12	870324	keystroke_j	j	n/a
435.2665	0.0875	870533	keystroke_e	e	n/a
435.362	0.0965	870724	keystroke_c	c	n/a
435.611	0.111	871222	keystroke_t	t	n/a
435.858	0.1685	871716	keystroke_e	e	n/a
435.9865	0.12	871973	keystroke_d	d	n/a
436.2105	0.072	872421	keystroke_Key.enter	Key.enter	n/a
436.2885	7.707	872577	prompt	n/a	francis careful cameroon number\n
437.2025	0.112	874405	keystroke_f	f	n/a
437.4815	0.121	874963	keystroke_r	r	n/a
437.5945	0.136	875189	keystroke_a	a	n/a
437.8185	0.144	875637	keystroke_c	c	n/a
437.9305	0.112	875861	keystroke_i	i	n/a
438.3305	0.072	876661	keystroke_Key.backspace	Key.backspace	n/a
438.4265	0.112	876853	keystroke_Key.backspace	Key.backspace	n/a
438.8505	0.128	877701	keystroke_n	n	n/a
438.986	0.144	877972	keystroke_c	c	n/a
439.1375	0.112	878275	keystroke_i	i	n/a
439.2905	0.128	878581	keystroke_s	s	n/a
439.4335	0.145	878867	keystroke_Key.space	Key.space	n/a
439.69	0.1205	879380	keystroke_c	c	n/a
439.8985	0.112	879797	keystroke_a	a	n/a
440.026	0.112	880052	keystroke_r	r	n/a
440.114	0.1685	880228	keystroke_e	e	n/a
440.4425	0.1195	880885	keystroke_f	f	n/a
440.5705	0.0795	881141	keystroke_u	u	n/a
440.7775	0.104	881555	keystroke_l	l	n/a
440.89	0.152	881780	keystroke_Key.space	Key.space	n/a
441.0265	0.144	882053	keystroke_c	c	n/a
441.306	0.136	882612	keystroke_a	a	n/a
441.4345	0.0795	882869	keystroke_m	m	n/a
441.634	0.112	883268	keystroke_e	e	n/a
441.818	0.096	883636	keystroke_r	r	n/a
442.3385	0.0635	884677	keystroke_o	o	n/a
442.49	0.072	884980	keystroke_o	o	n/a
442.6745	0.12	885349	keystroke_n	n	n/a
442.7865	0.1515	885573	keystroke_Key.space	Key.space	n/a
442.9295	0.12	885859	keystroke_n	n	n/a
443.066	0.1125	886132	keystroke_u	u	n/a
443.2655	0.104	886531	keystroke_m	m	n/a
443.4745	0.12	886949	keystroke_b	b	n/a
443.6025	0.08	887205	keystroke_e	e	n/a
443.627	0.1425	887254	keystroke_r	r	n/a
443.9215	0.0725	887843	keystroke_Key.enter	Key.enter	n/a
444.003	7.273	888006	prompt	n/a	personality inkjet lights gang\n
444.762	0.088	889524	keystroke_p	p	n/a
444.922	0.1285	889844	keystroke_e	e	n/a
444.97	0.1595	889940	keystroke_r	r	n/a
445.0895	0.1845	890179	keystroke_s	s	n/a
445.3625	0.031	890725	keystroke_o	o	n/a
445.5535	0.089	891107	keystroke_n	n	n/a
445.8895	0.1125	891779	keystroke_a	a	n/a
446.01	0.072	892020	keystroke_l	l	n/a
446.17	0.112	892340	keystroke_i	i	n/a
446.322	0.136	892644	keystroke_t	t	n/a
446.442	0.104	892884	keystroke_y	y	n/a
446.562	0.1595	893124	keystroke_Key.space	Key.space	n/a
446.7375	0.088	893475	keystroke_i	i	n/a
446.9215	0.1285	893843	keystroke_n	n	n/a
447.09	0.112	894180	keystroke_k	k	n/a
447.5385	0.1275	895077	keystroke_j	j	n/a
447.6825	0.1595	895365	keystroke_e	e	n/a
447.858	0.1525	895716	keystroke_c	c	n/a
448.306	0.056	896612	keystroke_Key.backspace	Key.backspace	n/a
448.378	0.112	896756	keystroke_t	t	n/a
448.61	0.176	897220	keystroke_Key.space	Key.space	n/a
449.042	0.08	898084	keystroke_l	l	n/a
449.178	0.104	898356	keystroke_i	i	n/a
449.322	0.1125	898644	keystroke_g	g	n/a
449.435	0.111	898870	keystroke_h	h	n/a
449.578	0.128	899156	keystroke_t	t	n/a
449.666	0.128	899332	keystroke_s	s	n/a
449.778	0.128	899556	keystroke_Key.space	Key.space	n/a
450.0025	0.1355	900005	keystroke_g	g	n/a
450.25	0.08	900500	keystroke_a	a	n/a
450.3065	0.112	900613	keystroke_n	n	n/a
450.442	0.1445	900884	keystroke_g	g	n/a
451.106	0.1685	902212	keystroke_Key.enter	Key.enter	n/a
451.2795	7.196	902559	prompt	n/a	otherwise oasis how're stakeholders\n
451.914	0.104	903828	keystroke_o	o	n/a
452.0985	0.1355	904197	keystroke_t	t	n/a
452.242	0.1365	904484	keystroke_h	h	n/a
452.394	0.144	904788	keystroke_r	r	n/a
452.858	0.072	905716	keystroke_Key.backspace	Key.backspace	n/a
452.9545	0.1275	905909	keystroke_e	e	n/a
453.026	0.1285	906052	keystroke_r	r	n/a
453.266	0.112	906532	keystroke_w	w	n/a
453.3935	0.089	906787	keystroke_i	i	n/a
453.562	0.136	907124	keystroke_s	s	n/a
453.6745	0.144	907349	keystroke_e	e	n/a
453.794	0.168	907588	keystroke_Key.space	Key.space	n/a
453.9945	0.1195	907989	keystroke_o	o	n/a
454.202	0.192	908404	keystroke_a	a	n/a
454.3705	0.1115	908741	keystroke_s	s	n/a
454.522	0.0885	909044	keystroke_i	i	n/a
454.634	0.088	909268	keystroke_s	s	n/a
454.8335	0.1685	909667	keystroke_Key.space	Key.space	n/a
455.026	0.128	910052	keystroke_h	h	n/a
455.1945	0.1515	910389	keystroke_o	o	n/a
455.306	0.096	910612	keystroke_w	w	n/a
455.8015	0.064	911603	keystroke_'	'	n/a
455.914	0.112	911828	keystroke_r	r	n/a
455.962	0.152	911924	keystroke_e	e	n/a
456.0575	0.1445	912115	keystroke_Key.space	Key.space	n/a
456.3625	0.0635	912725	keystroke_s	s	n/a
456.49	0.096	912980	keystroke_t	t	n/a
456.6345	0.1195	913269	keystroke_a	a	n/a
456.746	0.08	913492	keystroke_k	k	n/a
456.818	0.1355	913636	keystroke_e	e	n/a
457.37	0.1195	914740	keystroke_h	h	n/a
457.53	0.0955	915060	keystroke_o	o	n/a
457.7375	0.112	915475	keystroke_l	l	n/a
457.8575	0.072	915715	keystroke_d	d	n/a
457.9135	0.1685	915827	keystroke_e	e	n/a
458.0415	0.144	916083	keystroke_r	r	n/a
458.1775	0.1205	916355	keystroke_s	s	n/a
458.3135	0.16	916627	keystroke_Key.enter	Key.enter	n/a
458.4785	6.325	916957	prompt	n/a	legs quest committees checklist\n
459.09	0.12	918180	keystroke_l	l	n/a
459.1785	0.0795	918357	keystroke_e	e	n/a
459.354	0.136	918708	keystroke_g	g	n/a
459.514	0.12	919028	keystroke_s	s	n/a
459.602	0.2	919204	keystroke_Key.space	Key.space	n/a
460.187	0.1265	920374	keystroke_q	q	n/a
460.33	0.12	920660	keystroke_u	u	n/a
460.5135	0.176	921027	keystroke_e	e	n/a
460.6415	0.1205	921283	keystroke_s	s	n/a
460.7785	0.1115	921557	keystroke_t	t	n/a
460.8975	0.1445	921795	keystroke_Key.space	Key.space	n/a
461.138	0.128	922276	keystroke_c	c	n/a
461.2025	0.0475	922405	keystroke_o	o	n/a
461.362	0.0805	922724	keystroke_m	m	n/a
461.522	0.0885	923044	keystroke_m	m	n/a
461.706	0.104	923412	keystroke_i	i	n/a
461.858	0.0875	923716	keystroke_t	t	n/a
462.0335	0.144	924067	keystroke_t	t	n/a
462.1855	0.192	924371	keystroke_e	e	n/a
462.3135	0.056	924627	keystroke_s	s	n/a
462.754	0.072	925508	keystroke_Key.backspace	Key.backspace	n/a
462.93	0.1525	925860	keystroke_e	e	n/a
463.122	0.128	926244	keystroke_s	s	n/a
463.37	0.136	926740	keystroke_Key.space	Key.space	n/a
463.538	0.128	927076	keystroke_c	c	n/a
463.618	0.104	927236	keystroke_h	h	n/a
463.738	0.168	927476	keystroke_e	e	n/a
463.906	0.112	927812	keystroke_c	c	n/a
463.9865	0.0795	927973	keystroke_k	k	n/a
464.186	0.056	928372	keystroke_l	l	n/a
464.314	0.088	928628	keystroke_i	i	n/a
464.4585	0.1115	928917	keystroke_s	s	n/a
464.562	0.112	929124	keystroke_t	t	n/a
464.737	0.0645	929474	keystroke_Key.enter	Key.enter	n/a
464.8075	7.356	929615	prompt	n/a	pointing response proprietary seal\n
465.602	0.1205	931204	keystroke_p	p	n/a
465.778	0.1035	931556	keystroke_o	o	n/a
466.002	0.0885	932004	keystroke_i	i	n/a
466.194	0.1285	932388	keystroke_n	n	n/a
466.306	0.12	932612	keystroke_t	t	n/a
466.4345	0.1035	932869	keystroke_i	i	n/a
466.578	0.136	933156	keystroke_n	n	n/a
466.698	0.1205	933396	keystroke_g	g	n/a
466.794	0.136	933588	keystroke_Key.space	Key.space	n/a
467.0745	0.16	934149	keystroke_r	r	n/a
467.1455	0.2155	934291	keystroke_e	e	n/a
467.3055	0.1285	934611	keystroke_s	s	n/a
467.45	0.112	934900	keystroke_p	p	n/a
467.554	0.104	935108	keystroke_o	o	n/a
467.8095	0.128	935619	keystroke_n	n	n/a
467.938	0.136	935876	keystroke_s	s	n/a
468.002	0.144	936004	keystroke_e	e	n/a
468.153	0.1525	936306	keystroke_Key.space	Key.space	n/a
468.402	0.1115	936804	keystroke_p	p	n/a
468.5615	0.1205	937123	keystroke_r	r	n/a
468.7135	0.0885	937427	keystroke_o	o	n/a
468.906	0.104	937812	keystroke_p	p	n/a
469.3855	0.0965	938771	keystroke_r	r	n/a
469.4895	0.0965	938979	keystroke_i	i	n/a
469.754	0.1605	939508	keystroke_e	e	n/a
469.9375	0.072	939875	keystroke_t	t	n/a
470.5055	0.144	941011	keystroke_a	a	n/a
470.634	0.112	941268	keystroke_r	r	n/a
470.77	0.1195	941540	keystroke_y	y	n/a
470.93	0.1595	941860	keystroke_Key.space	Key.space	n/a
471.3055	0.0965	942611	keystroke_s	s	n/a
471.5135	0.1445	943027	keystroke_e	e	n/a
471.634	0.136	943268	keystroke_a	a	n/a
471.706	0.136	943412	keystroke_l	l	n/a
472.058	0.1035	944116	keystroke_Key.enter	Key.enter	n/a
472.168	9.1795	944336	prompt	n/a	syndrome recover olympics punishment\n
472.8255	0.112	945651	keystroke_s	s	n/a
473.0585	0.1275	946117	keystroke_y	y	n/a
473.29	0.104	946580	keystroke_n	n	n/a
473.513	0.121	947026	keystroke_d	d	n/a
473.7465	0.0955	947493	keystroke_r	r	n/a
473.8735	0.0885	947747	keystroke_o	o	n/a
474.0265	0.1355	948053	keystroke_m	m	n/a
474.1705	0.1035	948341	keystroke_e	e	n/a
474.29	0.128	948580	keystroke_Key.space	Key.space	n/a
474.465	0.137	948930	keystroke_r	r	n/a
474.5535	0.1445	949107	keystroke_e	e	n/a
474.801	0.105	949602	keystroke_c	c	n/a
474.954	0.104	949908	keystroke_o	o	n/a
475.074	0.1355	950148	keystroke_v	v	n/a
475.282	0.168	950564	keystroke_e	e	n/a
475.386	0.136	950772	keystroke_r	r	n/a
475.53	0.184	951060	keystroke_Key.space	Key.space	n/a
475.922	0.0555	951844	keystroke_o	o	n/a
476.2495	0.104	952499	keystroke_l	l	n/a
476.513	0.0965	953026	keystroke_y	y	n/a
476.954	0.104	953908	keystroke_m	m	n/a
477.17	0.0955	954340	keystroke_p	p	n/a
477.409	0.081	954818	keystroke_i	i	n/a
477.602	0.168	955204	keystroke_c	c	n/a
477.754	0.128	955508	keystroke_s	s	n/a
477.89	0.128	955780	keystroke_Key.space	Key.space	n/a
478.0815	0.112	956163	keystroke_p	p	n/a
478.9855	0.08	957971	keystroke_u	u	n/a
479.1215	0.136	958243	keystroke_n	n	n/a
479.5215	0.08	959043	keystroke_s	s	n/a
479.617	0.072	959234	keystroke_i	i	n/a
479.8655	0.056	959731	keystroke_Key.backspace	Key.backspace	n/a
479.9935	0.056	959987	keystroke_Key.backspace	Key.backspace	n/a
480.2575	0.096	960515	keystroke_i	i	n/a
480.3615	0.1045	960723	keystroke_s	s	n/a
480.4975	0.0805	960995	keystroke_h	h	n/a
480.7135	0.112	961427	keystroke_m	m	n/a
480.842	0.16	961684	keystroke_e	e	n/a
480.9215	0.1285	961843	keystroke_n	n	n/a
481.041	0.1285	962082	keystroke_t	t	n/a
481.2735	0.072	962547	keystroke_Key.enter	Key.enter	n/a
481.3515	6.116	962703	prompt	n/a	madison considering lady costa\n
482.138	0.151	964276	keystroke_m	m	n/a
482.3135	0.1435	964627	keystroke_a	a	n/a
482.5535	0.1125	965107	keystroke_d	d	n/a
482.6255	0.128	965251	keystroke_i	i	n/a
482.834	0.112	965668	keystroke_s	s	n/a
483.081	0.1125	966162	keystroke_n	n	n/a
483.386	0.055	966772	keystroke_Key.backspace	Key.backspace	n/a
483.665	0.096	967330	keystroke_o	o	n/a
483.8575	0.1445	967715	keystroke_n	n	n/a
483.9615	0.128	967923	keystroke_Key.space	Key.space	n/a
484.0905	0.119	968181	keystroke_c	c	n/a
484.1855	0.089	968371	keystroke_o	o	n/a
484.3455	0.136	968691	keystroke_n	n	n/a
484.5785	0.103	969157	keystroke_s	s	n/a
484.8095	0.0805	969619	keystroke_i	i	n/a
484.9695	0.144	969939	keystroke_d	d	n/a
485.1215	0.192	970243	keystroke_e	e	n/a
485.2495	0.144	970499	keystroke_r	r	n/a
485.5055	0.048	971011	keystroke_i	i	n/a
485.6415	0.112	971283	keystroke_n	n	n/a
485.7215	0.152	971443	keystroke_g	g	n/a
485.8175	0.168	971635	keystroke_Key.space	Key.space	n/a
486.0255	0.0955	972051	keystroke_l	l	n/a
486.161	0.1365	972322	keystroke_a	a	n/a
486.289	0.1365	972578	keystroke_d	d	n/a
486.393	0.128	972786	keystroke_y	y	n/a
486.545	0.136	973090	keystroke_Key.space	Key.space	n/a
486.6655	0.12	973331	keystroke_c	c	n/a
