onset	duration	sample	value	key	prompt_text
27.149	10.7845	54298	prompt	n/a	the quick brown fox jumps over a lazy dog\n
32.457	0	64914	keystroke_t	t	n/a
32.484	0.075	64968	keystroke_h	h	n/a
32.574	0.0745	65148	keystroke_e	e	n/a
32.6635	0.075	65327	keystroke_Key.space	Key.space	n/a
32.92	0.074	65840	keystroke_q	q	n/a
33.0095	0.119	66019	keystroke_u	u	n/a
33.1	0.0595	66200	keystroke_i	i	n/a
33.2195	0.074	66439	keystroke_c	c	n/a
33.3085	0.106	66617	keystroke_k	k	n/a
33.4295	0.089	66859	keystroke_Key.space	Key.space	n/a
33.5495	0.0895	67099	keystroke_b	b	n/a
33.6845	0.105	67369	keystroke_r	r	n/a
33.7445	0.105	67489	keystroke_o	o	n/a
33.9095	0.075	67819	keystroke_w	w	n/a
33.9845	0.105	67969	keystroke_n	n	n/a
34.0595	0.105	68119	keystroke_Key.space	Key.space	n/a
34.2245	0.0755	68449	keystroke_f	f	n/a
34.3145	0.09	68629	keystroke_o	o	n/a
34.4945	0.075	68989	keystroke_x	x	n/a
34.5845	0.09	69169	keystroke_Key.space	Key.space	n/a
34.7945	0.09	69589	keystroke_j	j	n/a
34.9745	0.06	69949	keystroke_u	u	n/a
35.1995	0.045	70399	keystroke_m	m	n/a
35.2595	0.09	70519	keystroke_p	p	n/a
35.4245	0.06	70849	keystroke_s	s	n/a
35.4995	0.075	70999	keystroke_Key.space	Key.space	n/a
35.6045	0.105	71209	keystroke_o	o	n/a
35.7245	0.075	71449	keystroke_v	v	n/a
35.8295	0.1645	71659	keystroke_e	e	n/a
35.9645	0.06	71929	keystroke_r	r	n/a
36.009	0.0905	72018	keystroke_Key.space	Key.space	n/a
36.1445	0.075	72289	keystroke_a	a	n/a
36.1745	0.09	72349	keystroke_Key.space	Key.space	n/a
36.3545	0.105	72709	keystroke_l	l	n/a
36.4745	0.06	72949	keystroke_a	a	n/a
36.6395	0.09	73279	keystroke_z	z	n/a
36.7445	0.105	73489	keystroke_y	y	n/a
36.8635	0.076	73727	keystroke_Key.space	Key.space	n/a
36.9695	0.075	73939	keystroke_d	d	n/a
37.0595	0.075	74119	keystroke_o	o	n/a
37.1795	0.045	74359	keystroke_g	g	n/a
37.8395	0.09	75679	keystroke_Key.enter	Key.enter	n/a
37.9395	9.5175	75879	prompt	n/a	adaptation coaching publisher bolivia\n
38.56	0.089	77120	keystroke_a	a	n/a
38.68	0.104	77360	keystroke_d	d	n/a
38.8	0.0745	77600	keystroke_a	a	n/a
38.95	0.09	77900	keystroke_p	p	n/a
39.145	0.06	78290	keystroke_t	t	n/a
39.249	0.12	78498	keystroke_a	a	n/a
39.355	0.0585	78710	keystroke_t	t	n/a
39.4595	0.225	78919	keystroke_i	i	n/a
39.5345	0.12	79069	keystroke_o	o	n/a
39.5795	0.1355	79159	keystroke_n	n	n/a
39.6995	0.045	79399	keystroke_Key.space	Key.space	n/a
40.4195	0.105	80839	keystroke_c	c	n/a
40.5095	0.075	81019	keystroke_o	o	n/a
40.614	0.09	81228	keystroke_a	a	n/a
40.779	0.1055	81558	keystroke_c	c	n/a
40.959	0.09	81918	keystroke_h	h	n/a
41.094	0.105	82188	keystroke_i	i	n/a
41.1545	0.0895	82309	keystroke_n	n	n/a
41.26	0.0445	82520	keystroke_g	g	n/a
41.364	0.06	82728	keystroke_Key.space	Key.space	n/a
42.16	0.1195	84320	keystroke_p	p	n/a
42.3395	0.105	84679	keystroke_u	u	n/a
42.5795	0.075	85159	keystroke_b	b	n/a
42.6695	0.135	85339	keystroke_l	l	n/a
42.8945	0.075	85789	keystroke_i	i	n/a
42.9995	0.045	85999	keystroke_s	s	n/a
43.1045	0.06	86209	keystroke_h	h	n/a
43.1195	0.03	86239	keystroke_j	j	n/a
43.195	0.1345	86390	keystroke_e	e	n/a
43.2995	0.075	86599	keystroke_r	r	n/a
43.6445	0.045	87289	keystroke_Key.backspace	Key.backspace	n/a
43.7795	0.075	87559	keystroke_Key.backspace	Key.backspace	n/a
43.9445	0.0745	87889	keystroke_Key.backspace	Key.backspace	n/a
44.0945	0.0895	88189	keystroke_e	e	n/a
44.1545	0.0745	88309	keystroke_r	r	n/a
44.289	0.0755	88578	keystroke_Key.space	Key.space	n/a
45.4145	0.1195	90829	keystroke_b	b	n/a
45.549	0.046	91098	keystroke_o	o	n/a
45.8945	0.09	91789	keystroke_l	l	n/a
46.135	0.1195	92270	keystroke_i	i	n/a
46.2995	0.06	92599	keystroke_v	v	n/a
46.4195	0.075	92839	keystroke_i	i	n/a
46.54	0.0445	93080	keystroke_a	a	n/a
47.3795	0.074	94759	keystroke_Key.enter	Key.enter	n/a
47.462	8.215	94924	prompt	n/a	thanks that're expanding nationwide\n
48.1895	0.075	96379	keystroke_t	t	n/a
48.2945	0.075	96589	keystroke_h	h	n/a
48.415	0.09	96830	keystroke_a	a	n/a
48.5195	0.09	97039	keystroke_n	n	n/a
48.6395	0.075	97279	keystroke_k	k	n/a
48.6995	0.09	97399	keystroke_s	s	n/a
48.8795	0.06	97759	keystroke_Key.space	Key.space	n/a
49.0145	0.06	98029	keystroke_t	t	n/a
49.0745	0.105	98149	keystroke_h	h	n/a
49.1645	0.0905	98329	keystroke_a	a	n/a
49.2245	0.06	98449	keystroke_t	t	n/a
50.109	0.0605	100218	keystroke_'	'	n/a
50.1395	0.106	100279	keystroke_r	r	n/a
50.199	0.1205	100398	keystroke_e	e	n/a
50.3045	0.06	100609	keystroke_Key.space	Key.space	n/a
51.3695	0.045	102739	keystroke_e	e	n/a
51.8045	0.09	103609	keystroke_x	x	n/a
51.9245	0.09	103849	keystroke_p	p	n/a
52.0595	0.075	104119	keystroke_a	a	n/a
52.2095	0.075	104419	keystroke_n	n	n/a
52.4495	0.075	104899	keystroke_d	d	n/a
52.5845	0.12	105169	keystroke_i	i	n/a
52.645	0.0895	105290	keystroke_n	n	n/a
52.7795	0.06	105559	keystroke_g	g	n/a
52.8695	0.075	105739	keystroke_Key.space	Key.space	n/a
53.3795	0.09	106759	keystroke_n	n	n/a
53.4545	0.105	106909	keystroke_a	a	n/a
53.5745	0.045	107149	keystroke_t	t	n/a
53.8745	0.2545	107749	keystroke_i	i	n/a
53.9945	0.105	107989	keystroke_o	o	n/a
54.0245	0.1195	108049	keystroke_n	n	n/a
54.219	0.0905	108438	keystroke_w	w	n/a
54.369	0.091	108738	keystroke_i	i	n/a
54.49	0.0445	108980	keystroke_d	d	n/a
54.6395	0.045	109279	keystroke_e	e	n/a
55.644	0.03	111288	keystroke_Key.enter	Key.enter	n/a
55.6825	9.489	111365	prompt	n/a	weight lunch kuwait diabetes\n
57.2345	0.1055	114469	keystroke_w	w	n/a
57.3245	0.1045	114649	keystroke_e	e	n/a
57.4895	0.075	114979	keystroke_i	i	n/a
57.595	0.059	115190	keystroke_g	g	n/a
57.7145	0.0755	115429	keystroke_h	h	n/a
57.8045	0.045	115609	keystroke_t	t	n/a
57.9245	0.06	115849	keystroke_Key.space	Key.space	n/a
58.5695	0.09	117139	keystroke_l	l	n/a
58.7645	0.0755	117529	keystroke_u	u	n/a
58.9895	0.09	117979	keystroke_n	n	n/a
59.1095	0.09	118219	keystroke_c	c	n/a
59.23	0.09	118460	keystroke_h	h	n/a
59.349	0.0605	118698	keystroke_Key.space	Key.space	n/a
59.8445	0.075	119689	keystroke_k	k	n/a
60.0395	0.075	120079	keystroke_u	u	n/a
60.2045	0.09	120409	keystroke_w	w	n/a
60.3395	0.0745	120679	keystroke_a	a	n/a
60.4745	0.0755	120949	keystroke_i	i	n/a
60.58	0.074	121160	keystroke_t	t	n/a
60.73	0.0745	121460	keystroke_Key.space	Key.space	n/a
61.555	0.075	123110	keystroke_d	d	n/a
61.69	0.09	123380	keystroke_i	i	n/a
61.765	0.06	123530	keystroke_a	a	n/a
61.915	0.075	123830	keystroke_b	b	n/a
62.005	0.105	124010	keystroke_e	e	n/a
62.14	0.09	124280	keystroke_t	t	n/a
62.275	0.165	124550	keystroke_e	e	n/a
62.425	0.09	124850	keystroke_r	r	n/a
63.5645	0.0745	127129	keystroke_Key.backspace	Key.backspace	n/a
63.67	0.0895	127340	keystroke_s	s	n/a
65.0945	0.075	130189	keystroke_Key.enter	Key.enter	n/a
65.1765	10.12	130353	prompt	n/a	vegetation automotive ignore oecd\n
65.9945	0.09	131989	keystroke_v	v	n/a
66.0995	0.105	132199	keystroke_e	e	n/a
66.2495	0.1055	132499	keystroke_g	g	n/a
66.3245	0.12	132649	keystroke_e	e	n/a
66.4895	0.0905	132979	keystroke_t	t	n/a
66.61	0.15	133220	keystroke_a	a	n/a
66.73	0.0595	133460	keystroke_t	t	n/a
66.924	0.24	133848	keystroke_i	i	n/a
66.999	0.135	133998	keystroke_o	o	n/a
67.059	0.12	134118	keystroke_n	n	n/a
67.2095	0.075	134419	keystroke_Key.space	Key.space	n/a
68.035	0.105	136070	keystroke_a	a	n/a
68.2145	0.075	136429	keystroke_u	u	n/a
68.3195	0.075	136639	keystroke_t	t	n/a
68.44	0.1495	136880	keystroke_o	o	n/a
68.5295	0.105	137059	keystroke_m	m	n/a
69.2645	0.0905	138529	keystroke_o	o	n/a
69.49	0.06	138980	keystroke_i	i	n/a
69.879	0.0755	139758	keystroke_Key.backspace	Key.backspace	n/a
69.9695	0.075	139939	keystroke_t	t	n/a
70.1195	0.0755	140239	keystroke_i	i	n/a
70.3295	0.09	140659	keystroke_e	e	n/a
70.4645	0.06	140929	keystroke_Key.space	Key.space	n/a
70.84	0.044	141680	keystroke_Key.backspace	Key.backspace	n/a
70.989	0.046	141978	keystroke_Key.backspace	Key.backspace	n/a
71.23	0.09	142460	keystroke_v	v	n/a
71.29	0.105	142580	keystroke_e	e	n/a
71.454	0.075	142908	keystroke_Key.space	Key.space	n/a
72.49	0.0595	144980	keystroke_i	i	n/a
72.5945	0.075	145189	keystroke_g	g	n/a
72.7295	0.09	145459	keystroke_n	n	n/a
72.8345	0.105	145669	keystroke_o	o	n/a
72.9245	0.135	145849	keystroke_r	r	n/a
73	0.1195	146000	keystroke_e	e	n/a
73.1345	0.0755	146269	keystroke_Key.space	Key.space	n/a
73.7795	0.0895	147559	keystroke_o	o	n/a
74.0495	0.0755	148099	keystroke_e	e	n/a
74.2295	0.09	148459	keystroke_c	c	n/a
74.3945	0.075	148789	keystroke_d	d	n/a
75.2195	0.075	150439	keystroke_Key.enter	Key.enter	n/a
75.3015	7.7505	150603	prompt	n/a	seekers peterson expand develop\n
76.1495	0.1055	152299	keystroke_s	s	n/a
76.3595	0.0605	152719	keystroke_e	e	n/a
76.4945	0.075	152989	keystroke_e	e	n/a
76.5845	0.105	153169	keystroke_k	k	n/a
76.7045	0.165	153409	keystroke_e	e	n/a
76.8245	0.1055	153649	keystroke_r	r	n/a
77.0495	0.075	154099	keystroke_s	s	n/a
77.1845	0.06	154369	keystroke_Key.space	Key.space	n/a
77.9495	0.06	155899	keystroke_p	p	n/a
77.9945	0.1355	155989	keystroke_e	e	n/a
78.1445	0.09	156289	keystroke_t	t	n/a
78.2795	0.1205	156559	keystroke_e	e	n/a
78.355	0.0895	156710	keystroke_r	r	n/a
78.594	0.061	157188	keystroke_s	s	n/a
78.685	0.1195	157370	keystroke_o	o	n/a
78.7595	0.1205	157519	keystroke_n	n	n/a
78.984	0.06	157968	keystroke_Key.space	Key.space	n/a
79.855	0.074	159710	keystroke_e	e	n/a
80.0645	0.09	160129	keystroke_x	x	n/a
80.215	0.059	160430	keystroke_p	p	n/a
80.3045	0.075	160609	keystroke_a	a	n/a
80.44	0.0595	160880	keystroke_n	n	n/a
80.4995	0.06	160999	keystroke_d	d	n/a
80.665	0.0595	161330	keystroke_Key.space	Key.space	n/a
81.3995	0.075	162799	keystroke_d	d	n/a
81.5795	0.06	163159	keystroke_e	e	n/a
81.6845	0.12	163369	keystroke_v	v	n/a
81.79	0.09	163580	keystroke_e	e	n/a
81.8495	0.105	163699	keystroke_l	l	n/a
82.06	0.074	164120	keystroke_o	o	n/a
82.255	0.075	164510	keystroke_p	p	n/a
82.989	0.0605	165978	keystroke_Key.enter	Key.enter	n/a
83.058	6.5335	166116	prompt	n/a	awesome lips wide training\n
83.74	0.105	167480	keystroke_a	a	n/a
83.9495	0.1505	167899	keystroke_w	w	n/a
84.145	0.075	168290	keystroke_e	e	n/a
84.3545	0.0905	168709	keystroke_s	s	n/a
84.5045	0.15	169009	keystroke_o	o	n/a
84.5795	0.1205	169159	keystroke_m	m	n/a
84.714	0.091	169428	keystroke_e	e	n/a
84.864	0.075	169728	keystroke_Key.space	Key.space	n/a
85.705	0.089	171410	keystroke_l	l	n/a
85.8695	0.105	171739	keystroke_i	i	n/a
86.1095	0.075	172219	keystroke_p	p	n/a
86.2295	0.06	172459	keystroke_s	s	n/a
86.4395	0.06	172879	keystroke_Key.space	Key.space	n/a
87.2345	0.09	174469	keystroke_w	w	n/a
87.4145	0.105	174829	keystroke_i	i	n/a
87.5045	0.075	175009	keystroke_d	d	n/a
87.6995	0.06	175399	keystroke_e	e	n/a
87.7745	0.09	175549	keystroke_Key.space	Key.space	n/a
87.9845	0.06	175969	keystroke_t	t	n/a
88.1195	0.091	176239	keystroke_r	r	n/a
88.1795	0.0905	176359	keystroke_a	a	n/a
88.285	0.1195	176570	keystroke_i	i	n/a
88.3745	0.0755	176749	keystroke_n	n	n/a
88.509	0.136	177018	keystroke_i	i	n/a
88.57	0.104	177140	keystroke_n	n	n/a
88.659	0.046	177318	keystroke_g	g	n/a
89.5295	0.0595	179059	keystroke_Key.enter	Key.enter	n/a
89.596	7.901	179192	prompt	n/a	reasonably chemicals clay welsh\n
90.295	0.135	180590	keystroke_r	r	n/a
90.385	0.12	180770	keystroke_e	e	n/a
90.475	0.105	180950	keystroke_a	a	n/a
90.685	0.1495	181370	keystroke_o	o	n/a
91.2095	0.0595	182419	keystroke_Key.backspace	Key.backspace	n/a
91.299	0.091	182598	keystroke_s	s	n/a
91.45	0.135	182900	keystroke_o	o	n/a
91.54	0.075	183080	keystroke_n	n	n/a
91.75	0.075	183500	keystroke_a	a	n/a
91.8555	0.104	183711	keystroke_b	b	n/a
92.065	0.1045	184130	keystroke_l	l	n/a
92.29	0.06	184580	keystroke_y	y	n/a
92.3945	0.06	184789	keystroke_Key.space	Key.space	n/a
93.145	0.1195	186290	keystroke_c	c	n/a
93.249	0.09	186498	keystroke_h	h	n/a
93.324	0.121	186648	keystroke_e	e	n/a
93.475	0.119	186950	keystroke_m	m	n/a
93.609	0.121	187218	keystroke_i	i	n/a
93.744	0.105	187488	keystroke_c	c	n/a
93.8195	0.1355	187639	keystroke_a	a	n/a
93.955	0.09	187910	keystroke_l	l	n/a
94.075	0.105	188150	keystroke_s	s	n/a
94.165	0.075	188330	keystroke_Key.space	Key.space	n/a
94.9595	0.075	189919	keystroke_c	c	n/a
95.0795	0.091	190159	keystroke_l	l	n/a
95.1545	0.09	190309	keystroke_a	a	n/a
95.334	0.0605	190668	keystroke_y	y	n/a
95.409	0.09	190818	keystroke_Key.space	Key.space	n/a
95.62	0.135	191240	keystroke_w	w	n/a
95.695	0.1195	191390	keystroke_e	e	n/a
96.1445	0.09	192289	keystroke_l	l	n/a
96.3395	0.06	192679	keystroke_s	s	n/a
96.43	0.0895	192860	keystroke_h	h	n/a
97.42	0.075	194840	keystroke_Key.enter	Key.enter	n/a
97.5015	5.575	195003	prompt	n/a	cage ring ipod madrid\n
98.17	0.165	196340	keystroke_c	c	n/a
98.32	0.105	196640	keystroke_a	a	n/a
98.47	0.135	196940	keystroke_g	g	n/a
98.59	0.105	197180	keystroke_e	e	n/a
98.695	0.09	197390	keystroke_Key.space	Key.space	n/a
99.115	0.075	198230	keystroke_r	r	n/a
99.22	0.12	198440	keystroke_i	i	n/a
99.28	0.09	198560	keystroke_n	n	n/a
99.355	0.074	198710	keystroke_g	g	n/a
99.46	0.09	198920	keystroke_Key.space	Key.space	n/a
99.625	0.09	199250	keystroke_i	i	n/a
99.8645	0.105	199729	keystroke_p	p	n/a
100.1795	0.105	200359	keystroke_o	o	n/a
100.3145	0.0755	200629	keystroke_d	d	n/a
100.4495	0.06	200899	keystroke_Key.space	Key.space	n/a
101.3345	0.12	202669	keystroke_m	m	n/a
101.4245	0.09	202849	keystroke_a	a	n/a
101.53	0.104	203060	keystroke_d	d	n/a
101.694	0.075	203388	keystroke_r	r	n/a
101.784	0.0915	203568	keystroke_i	i	n/a
101.9195	0.0605	203839	keystroke_d	d	n/a
102.985	0.09	205970	keystroke_Key.enter	Key.enter	n/a
103.0815	7.8095	206163	prompt	n/a	scale religion href suppliers\n
103.66	0.0895	207320	keystroke_s	s	n/a
103.8395	0.1505	207679	keystroke_c	c	n/a
103.9595	0.105	207919	keystroke_a	a	n/a
104.1095	0.09	208219	keystroke_l	l	n/a
104.2145	0.075	208429	keystroke_e	e	n/a
104.3495	0.06	208699	keystroke_Key.space	Key.space	n/a
104.9645	0.09	209929	keystroke_r	r	n/a
105.0395	0.09	210079	keystroke_e	e	n/a
105.1445	0.1055	210289	keystroke_l	l	n/a
105.3695	0.091	210739	keystroke_i	i	n/a
105.4895	0.06	210979	keystroke_g	g	n/a
105.655	0.3	211310	keystroke_i	i	n/a
105.7745	0.15	211549	keystroke_o	o	n/a
105.8345	0.135	211669	keystroke_n	n	n/a
105.9995	0.0905	211999	keystroke_Key.space	Key.space	n/a
106.929	0.075	213858	keystroke_h	h	n/a
107.1995	0.12	214399	keystroke_r	r	n/a
107.305	0.1045	214610	keystroke_e	e	n/a
107.4695	0.0745	214939	keystroke_f	f	n/a
107.604	0.09	215208	keystroke_Key.space	Key.space	n/a
108.2645	0.0755	216529	keystroke_s	s	n/a
108.43	0.0745	216860	keystroke_u	u	n/a
108.6095	0.075	217219	keystroke_p	p	n/a
109.0745	0.03	218149	keystroke_p	p	n/a
109.2545	0.075	218509	keystroke_l	l	n/a
109.4795	0.075	218959	keystroke_i	i	n/a
109.5695	0.09	219139	keystroke_e	e	n/a
109.645	0.0895	219290	keystroke_r	r	n/a
109.7945	0.075	219589	keystroke_s	s	n/a
110.8445	0.045	221689	keystroke_Key.enter	Key.enter	n/a
110.9045	10.966	221809	prompt	n/a	specifics functions descending swing\n
111.6395	0.0605	223279	keystroke_s	s	n/a
111.7745	0.06	223549	keystroke_e	e	n/a
111.91	0.075	223820	keystroke_p	p	n/a
111.9995	0.0755	223999	keystroke_c	c	n/a
112.1345	0.075	224269	keystroke_i	i	n/a
112.2245	0.06	224449	keystroke_f	f	n/a
112.3295	0.075	224659	keystroke_i	i	n/a
112.405	0.0745	224810	keystroke_c	c	n/a
112.6595	0.03	225319	keystroke_Key.backspace	Key.backspace	n/a
112.7795	0.06	225559	keystroke_Key.backspace	Key.backspace	n/a
112.8995	0.075	225799	keystroke_Key.backspace	Key.backspace	n/a
113.064	0.0455	226128	keystroke_Key.backspace	Key.backspace	n/a
113.1845	0.0745	226369	keystroke_Key.backspace	Key.backspace	n/a
113.3495	0.075	226699	keystroke_Key.backspace	Key.backspace	n/a
113.844	0.0455	227688	keystroke_Key.backspace	Key.backspace	n/a
114.76	0.074	229520	keystroke_p	p	n/a
114.849	0.1055	229698	keystroke_e	e	n/a
114.999	0.1055	229998	keystroke_c	c	n/a
115.1645	0.075	230329	keystroke_i	i	n/a
115.2545	0.0755	230509	keystroke_f	f	n/a
115.3745	0.09	230749	keystroke_i	i	n/a
115.4495	0.075	230899	keystroke_c	c	n/a
115.734	0.076	231468	keystroke_s	s	n/a
115.8695	0.0445	231739	keystroke_Key.space	Key.space	n/a
116.379	0.045	232758	keystroke_f	f	n/a
116.455	0.03	232910	keystroke_u	u	n/a
116.589	0.105	233178	keystroke_n	n	n/a
116.665	0.09	233330	keystroke_c	c	n/a
116.875	0.06	233750	keystroke_t	t	n/a
116.95	0.2545	233900	keystroke_i	i	n/a
117.025	0.1345	234050	keystroke_o	o	n/a
117.069	0.1205	234138	keystroke_n	n	n/a
117.219	0.076	234438	keystroke_s	s	n/a
117.3095	0.0895	234619	keystroke_Key.space	Key.space	n/a
118.0895	0.0745	236179	keystroke_d	d	n/a
118.284	0.0905	236568	keystroke_e	e	n/a
118.36	0.1345	236720	keystroke_s	s	n/a
118.51	0.0895	237020	keystroke_c	c	n/a
118.6145	0.075	237229	keystroke_e	e	n/a
118.7195	0.105	237439	keystroke_n	n	n/a
118.8845	0.075	237769	keystroke_d	d	n/a
119.0045	0.135	238009	keystroke_i	i	n/a
119.065	0.0895	238130	keystroke_n	n	n/a
119.1695	0.06	238339	keystroke_g	g	n/a
119.2745	0.075	238549	keystroke_Key.space	Key.space	n/a
119.95	0.1195	239900	keystroke_w	w	n/a
120.19	0.074	240380	keystroke_s	s	n/a
120.489	0.06	240978	keystroke_Key.backspace	Key.backspace	n/a
120.6245	0.0745	241249	keystroke_Key.backspace	Key.backspace	n/a
120.73	0.074	241460	keystroke_s	s	n/a
120.879	0.0755	241758	keystroke_w	w	n/a
120.9695	0.1055	241939	keystroke_i	i	n/a
121.0145	0.1045	242029	keystroke_n	n	n/a
121.12	0.0595	242240	keystroke_g	g	n/a
121.8095	0.06	243619	keystroke_Key.enter	Key.enter	n/a
121.8745	8.787	243749	prompt	n/a	manuals formatting ministry realm\n
122.7395	0.0905	245479	keystroke_m	m	n/a
122.845	0.0595	245690	keystroke_a	a	n/a
122.949	0.09	245898	keystroke_n	n	n/a
123.055	0.075	246110	keystroke_u	u	n/a
123.174	0.076	246348	keystroke_a	a	n/a
123.2945	0.1045	246589	keystroke_l	l	n/a
123.445	0.06	246890	keystroke_s	s	n/a
123.519	0.075	247038	keystroke_Key.space	Key.space	n/a
124.4045	0.06	248809	keystroke_f	f	n/a
124.5545	0.09	249109	keystroke_o	o	n/a
124.6745	0.075	249349	keystroke_r	r	n/a
124.84	0.074	249680	keystroke_m	m	n/a
125.004	0.0755	250008	keystroke_a	a	n/a
125.139	0.061	250278	keystroke_t	t	n/a
125.29	0.075	250580	keystroke_t	t	n/a
125.4095	0.1505	250819	keystroke_i	i	n/a
125.4845	0.0905	250969	keystroke_n	n	n/a
125.65	0.09	251300	keystroke_g	g	n/a
125.8	0.075	251600	keystroke_Key.space	Key.space	n/a
126.624	0.1205	253248	keystroke_m	m	n/a
126.7595	0.09	253519	keystroke_i	i	n/a
126.879	0.1055	253758	keystroke_s	s	n/a
127.554	0.076	255108	keystroke_Key.backspace	Key.backspace	n/a
127.78	0.105	255560	keystroke_n	n	n/a
127.87	0.105	255740	keystroke_i	i	n/a
127.99	0.0895	255980	keystroke_s	s	n/a
128.2445	0.06	256489	keystroke_t	t	n/a
128.395	0.0745	256790	keystroke_r	r	n/a
128.53	0.1045	257060	keystroke_y	y	n/a
128.7095	0.075	257419	keystroke_Key.space	Key.space	n/a
129.579	0.15	259158	keystroke_r	r	n/a
129.684	0.106	259368	keystroke_e	e	n/a
129.76	0.104	259520	keystroke_a	a	n/a
129.835	0.164	259670	keystroke_l	l	n/a
130.0145	0.12	260029	keystroke_m	m	n/a
130.569	0.09	261138	keystroke_Key.enter	Key.enter	n/a
130.6675	17.098	261335	prompt	n/a	audit rain whom'st minolta\n
131.335	0.074	262670	keystroke_a	a	n/a
131.5595	0.06	263119	keystroke_d	d	n/a
132.0845	0.06	264169	keystroke_Key.backspace	Key.backspace	n/a
132.2345	0.0905	264469	keystroke_u	u	n/a
132.3395	0.0605	264679	keystroke_d	d	n/a
132.4295	0.09	264859	keystroke_i	i	n/a
132.55	0.0745	265100	keystroke_t	t	n/a
132.6845	0.06	265369	keystroke_Key.space	Key.space	n/a
133.4495	0.1355	266899	keystroke_r	r	n/a
133.614	0.06	267228	keystroke_a	a	n/a
133.7195	0.1795	267439	keystroke_i	i	n/a
133.794	0.1505	267588	keystroke_n	n	n/a
133.929	0.0755	267858	keystroke_Key.space	Key.space	n/a
134.7095	0.06	269419	keystroke_w	w	n/a
134.7995	0.0745	269599	keystroke_h	h	n/a
134.965	0.15	269930	keystroke_o	o	n/a
135.0545	0.0905	270109	keystroke_m	m	n/a
135.19	0.06	270380	keystroke_s	s	n/a
136.195	0.0745	272390	keystroke_Key.backspace	Key.backspace	n/a
136.7945	0.09	273589	keystroke_'	'	n/a
136.9445	0.12	273889	keystroke_s	s	n/a
137.1395	0.075	274279	keystroke_t	t	n/a
137.2745	0.09	274549	keystroke_Key.space	Key.space	n/a
144.3565	0.0425	288713	keystroke_m	m	n/a
144.505	0.12	289010	keystroke_i	i	n/a
144.775	0.105	289550	keystroke_n	n	n/a
145.03	0.09	290060	keystroke_o	o	n/a
145.2845	0.1055	290569	keystroke_l	l	n/a
145.435	0.09	290870	keystroke_t	t	n/a
145.6145	0.0755	291229	keystroke_a	a	n/a
147.7625	0.001	295525	keystroke_Key.enter	Key.enter	n/a
147.7705	8.332	295541	prompt	n/a	cruises audit hierarchy long\n
148.5105	0.074	297021	keystroke_c	c	n/a
148.6895	0.0605	297379	keystroke_r	r	n/a
148.7795	0.135	297559	keystroke_u	u	n/a
149.0795	0.1055	298159	keystroke_i	i	n/a
149.215	0.1195	298430	keystroke_s	s	n/a
149.3795	0.135	298759	keystroke_e	e	n/a
149.5295	0.0905	299059	keystroke_s	s	n/a
149.6205	0.0895	299241	keystroke_Key.space	Key.space	n/a
150.235	0.09	300470	keystroke_a	a	n/a
150.4	0.105	300800	keystroke_u	u	n/a
150.52	0.06	301040	keystroke_d	d	n/a
150.655	0.09	301310	keystroke_i	i	n/a
150.8055	0.0745	301611	keystroke_t	t	n/a
150.94	0.075	301880	keystroke_Key.space	Key.space	n/a
151.825	0.0895	303650	keystroke_h	h	n/a
152.095	0.09	304190	keystroke_i	i	n/a
152.245	0.06	304490	keystroke_e	e	n/a
152.4995	0.09	304999	keystroke_r	r	n/a
152.7095	0.121	305419	keystroke_a	a	n/a
152.9945	0.0605	305989	keystroke_r	r	n/a
153.175	0.0745	306350	keystroke_c	c	n/a
153.2795	0.1045	306559	keystroke_h	h	n/a
153.534	0.046	307068	keystroke_y	y	n/a
153.6845	0.0605	307369	keystroke_Key.space	Key.space	n/a
154.405	0.09	308810	keystroke_l	l	n/a
154.63	0.135	309260	keystroke_o	o	n/a
154.735	0.104	309470	keystroke_n	n	n/a
154.854	0.061	309708	keystroke_g	g	n/a
156.025	0.075	312050	keystroke_Key.enter	Key.enter	n/a
156.1075	9.7135	312215	prompt	n/a	arcade occasions walker strength\n
156.655	0.105	313310	keystroke_a	a	n/a
156.805	0.075	313610	keystroke_r	r	n/a
157	0.135	314000	keystroke_c	c	n/a
157.119	0.091	314238	keystroke_a	a	n/a
157.225	0.089	314450	keystroke_d	d	n/a
157.404	0.091	314808	keystroke_e	e	n/a
157.525	0.0895	315050	keystroke_Key.space	Key.space	n/a
157.915	0.0745	315830	keystroke_o	o	n/a
157.9905	0.0745	315981	keystroke_c	c	n/a
158.14	0.09	316280	keystroke_c	c	n/a
158.215	0.12	316430	keystroke_a	a	n/a
158.425	0.09	316850	keystroke_i	i	n/a
158.8	0.059	317600	keystroke_Key.backspace	Key.backspace	n/a
158.995	0.045	317990	keystroke_s	s	n/a
159.19	0.27	318380	keystroke_i	i	n/a
159.28	0.165	318560	keystroke_o	o	n/a
159.37	0.135	318740	keystroke_n	n	n/a
159.52	0.105	319040	keystroke_s	s	n/a
159.64	0.09	319280	keystroke_Key.space	Key.space	n/a
160.3	0.075	320600	keystroke_w	w	n/a
160.42	0.075	320840	keystroke_a	a	n/a
160.54	0.06	321080	keystroke_l	l	n/a
160.585	0.12	321170	keystroke_k	k	n/a
160.705	0.135	321410	keystroke_e	e	n/a
160.8095	0.061	321619	keystroke_r	r	n/a
161.155	0.0745	322310	keystroke_Key.space	Key.space	n/a
161.59	0.075	323180	keystroke_s	s	n/a
161.74	0.06	323480	keystroke_t	t	n/a
161.905	0.045	323810	keystroke_r	r	n/a
162.325	0.06	324650	keystroke_e	e	n/a
162.475	0.0895	324950	keystroke_n	n	n/a
162.6095	0.061	325219	keystroke_g	g	n/a
162.745	0.075	325490	keystroke_h	h	n/a
162.85	0.06	325700	keystroke_t	t	n/a
163.4795	0.015	326959	keystroke_Key.backspace	Key.backspace	n/a
163.5695	0.075	327139	keystroke_Key.backspace	Key.backspace	n/a
163.7645	0.06	327529	keystroke_t	t	n/a
163.8395	0.06	327679	keystroke_h	h	n/a
165.7595	0.06	331519	keystroke_Key.enter	Key.enter	n/a
165.8245	7.0465	331649	prompt	n/a	fighting seafood specialized comp\n
166.5395	0.06	333079	keystroke_f	f	n/a
166.6445	0.075	333289	keystroke_i	i	n/a
166.765	0.0595	333530	keystroke_g	g	n/a
166.8395	0.0755	333679	keystroke_h	h	n/a
166.9445	0.06	333889	keystroke_t	t	n/a
167.02	0.09	334040	keystroke_i	i	n/a
167.0645	0.09	334129	keystroke_n	n	n/a
167.1695	0.0605	334339	keystroke_g	g	n/a
167.2445	0.075	334489	keystroke_Key.space	Key.space	n/a
167.3645	0.09	334729	keystroke_s	s	n/a
167.47	0.135	334940	keystroke_e	e	n/a
167.6195	0.075	335239	keystroke_a	a	n/a
167.725	0.0745	335450	keystroke_f	f	n/a
168.0995	0.06	336199	keystroke_o	o	n/a
168.2495	0.0905	336499	keystroke_o	o	n/a
168.3845	0.076	336769	keystroke_d	d	n/a
168.5195	0.06	337039	keystroke_Key.space	Key.space	n/a
169.18	0.0895	338360	keystroke_s	s	n/a
169.4045	0.0605	338809	keystroke_p	p	n/a
169.4655	0.089	338931	keystroke_e	e	n/a
169.6145	0.09	339229	keystroke_c	c	n/a
169.7495	0.03	339499	keystroke_i	i	n/a
169.8245	0.075	339649	keystroke_a	a	n/a
169.9445	0.0905	339889	keystroke_l	l	n/a
170.1395	0.075	340279	keystroke_i	i	n/a
170.2445	0.09	340489	keystroke_z	z	n/a
170.3795	0.06	340759	keystroke_e	e	n/a
170.5445	0.075	341089	keystroke_d	d	n/a
170.6345	0.06	341269	keystroke_Key.space	Key.space	n/a
171.43	0.075	342860	keystroke_c	c	n/a
171.5195	0.09	343039	keystroke_o	o	n/a
171.58	0.09	343160	keystroke_m	m	n/a
171.715	0.075	343430	keystroke_p	p	n/a
172.8095	0.0595	345619	keystroke_Key.enter	Key.enter	n/a
172.8745	7.0775	345749	prompt	n/a	might tuesday phys indicators\n
173.545	0.0905	347090	keystroke_m	m	n/a
173.65	0.074	347300	keystroke_i	i	n/a
173.784	0.0455	347568	keystroke_g	g	n/a
173.845	0.09	347690	keystroke_h	h	n/a
173.95	0.059	347900	keystroke_t	t	n/a
174.0245	0.0745	348049	keystroke_Key.space	Key.space	n/a
174.19	0.0595	348380	keystroke_t	t	n/a
174.2805	0.075	348561	keystroke_u	u	n/a
174.415	0.0295	348830	keystroke_d	d	n/a
174.579	0.015	349158	keystroke_e	e	n/a
174.864	0.06	349728	keystroke_Key.backspace	Key.backspace	n/a
174.985	0.089	349970	keystroke_Key.backspace	Key.backspace	n/a
175.104	0.061	350208	keystroke_e	e	n/a
175.255	0.119	350510	keystroke_s	s	n/a
175.389	0.1055	350778	keystroke_d	d	n/a
175.5095	0.105	351019	keystroke_a	a	n/a
175.599	0.0755	351198	keystroke_y	y	n/a
175.7795	0.045	351559	keystroke_Key.space	Key.space	n/a
176.5445	0.0755	353089	keystroke_p	p	n/a
176.7095	0.06	353419	keystroke_h	h	n/a
176.8745	0.06	353749	keystroke_y	y	n/a
176.995	0.0595	353990	keystroke_s	s	n/a
177.205	0.015	354410	keystroke_Key.space	Key.space	n/a
178.165	0.075	356330	keystroke_i	i	n/a
178.299	0.0905	356598	keystroke_n	n	n/a
178.375	0.075	356750	keystroke_d	d	n/a
178.525	0.0445	357050	keystroke_i	i	n/a
178.5995	0.121	357199	keystroke_c	c	n/a
178.705	0.0895	357410	keystroke_a	a	n/a
178.8245	0.06	357649	keystroke_t	t	n/a
178.9305	0.059	357861	keystroke_o	o	n/a
179.0195	0.09	358039	keystroke_r	r	n/a
179.1245	0.0755	358249	keystroke_s	s	n/a
179.8745	0.0755	359749	keystroke_Key.enter	Key.enter	n/a
179.9585	7.343	359917	prompt	n/a	gaps deeper bundle arising\n
180.67	0.075	361340	keystroke_g	g	n/a
180.775	0.0905	361550	keystroke_a	a	n/a
180.895	0.0605	361790	keystroke_p	p	n/a
181.015	0.074	362030	keystroke_s	s	n/a
181.149	0.0605	362298	keystroke_Key.space	Key.space	n/a
181.3595	0.06	362719	keystroke_d	d	n/a
181.5545	0.045	363109	keystroke_e	e	n/a
181.6745	0.06	363349	keystroke_e	e	n/a
181.7495	0.09	363499	keystroke_p	p	n/a
181.8845	0.105	363769	keystroke_e	e	n/a
181.96	0.0895	363920	keystroke_r	r	n/a
182.1095	0.06	364219	keystroke_Key.space	Key.space	n/a
182.8745	0.09	365749	keystroke_b	b	n/a
183.115	0.0895	366230	keystroke_u	u	n/a
183.31	0.0745	366620	keystroke_n	n	n/a
183.3855	0.074	366771	keystroke_d	d	n/a
183.5345	0.09	367069	keystroke_l	l	n/a
183.6695	0.075	367339	keystroke_e	e	n/a
183.7895	0.045	367579	keystroke_Key.space	Key.space	n/a
184.51	0.09	369020	keystroke_a	a	n/a
184.66	0.06	369320	keystroke_r	r	n/a
184.75	0.06	369500	keystroke_i	i	n/a
185.11	0.045	370220	keystroke_s	s	n/a
185.56	0.045	371120	keystroke_Key.backspace	Key.backspace	n/a
186.1	0.1345	372200	keystroke_s	s	n/a
186.2495	0.075	372499	keystroke_i	i	n/a
186.265	0.105	372530	keystroke_n	n	n/a
186.3845	0.045	372769	keystroke_g	g	n/a
187.2545	0.0455	374509	keystroke_Key.enter	Key.enter	n/a
187.305	7.856	374610	prompt	n/a	spirit sherman soviet revised\n
187.885	0.089	375770	keystroke_s	s	n/a
188.035	0.06	376070	keystroke_p	p	n/a
188.2445	0.06	376489	keystroke_i	i	n/a
188.3195	0.06	376639	keystroke_r	r	n/a
188.815	0.075	377630	keystroke_i	i	n/a
188.9045	0.06	377809	keystroke_t	t	n/a
189.0095	0.06	378019	keystroke_Key.space	Key.space	n/a
189.849	0.06	379698	keystroke_s	s	n/a
189.9845	0.0605	379969	keystroke_h	h	n/a
190.075	0.075	380150	keystroke_e	e	n/a
190.165	0.045	380330	keystroke_r	r	n/a
190.285	0.09	380570	keystroke_m	m	n/a
190.585	0.045	381170	keystroke_a	a	n/a
190.66	0.075	381320	keystroke_n	n	n/a
190.779	0.075	381558	keystroke_Key.space	Key.space	n/a
191.8145	0.075	383629	keystroke_s	s	n/a
191.905	0.1045	383810	keystroke_o	o	n/a
192.1155	0.0745	384231	keystroke_v	v	n/a
192.2645	0.09	384529	keystroke_i	i	n/a
192.3845	0.075	384769	keystroke_e	e	n/a
192.5345	0.0605	385069	keystroke_t	t	n/a
192.6395	0.0755	385279	keystroke_Key.space	Key.space	n/a
193.5695	0.105	387139	keystroke_r	r	n/a
193.6445	0.0755	387289	keystroke_e	e	n/a
193.825	0.0605	387650	keystroke_v	v	n/a
193.9145	0.09	387829	keystroke_i	i	n/a
193.9895	0.135	387979	keystroke_s	s	n/a
194.11	0.0605	388220	keystroke_e	e	n/a
194.2605	0.059	388521	keystroke_d	d	n/a
195.0845	0.075	390169	keystroke_Key.enter	Key.enter	n/a
195.1645	9.702	390329	prompt	n/a	defense supporting associated closure\n
195.7145	0.075	391429	keystroke_d	d	n/a
196.345	0.0595	392690	keystroke_e	e	n/a
196.464	0.075	392928	keystroke_f	f	n/a
196.66	0.0595	393320	keystroke_e	e	n/a
196.7795	0.09	393559	keystroke_n	n	n/a
196.8995	0.135	393799	keystroke_s	s	n/a
197.005	0.0595	394010	keystroke_e	e	n/a
197.1545	0.06	394309	keystroke_Key.space	Key.space	n/a
197.6645	0.075	395329	keystroke_s	s	n/a
197.8145	0.0755	395629	keystroke_u	u	n/a
197.9805	0.0595	395961	keystroke_p	p	n/a
198.1	0.09	396200	keystroke_p	p	n/a
198.28	0.06	396560	keystroke_o	o	n/a
198.385	0.045	396770	keystroke_r	r	n/a
198.609	0.046	397218	keystroke_t	t	n/a
198.7295	0.12	397459	keystroke_i	i	n/a
198.8345	0.075	397669	keystroke_n	n	n/a
198.925	0.0445	397850	keystroke_g	g	n/a
199.09	0.0745	398180	keystroke_Key.space	Key.space	n/a
199.8545	0.0755	399709	keystroke_a	a	n/a
199.99	0.06	399980	keystroke_s	s	n/a
200.14	0.09	400280	keystroke_s	s	n/a
200.2	0.1055	400400	keystroke_o	o	n/a
200.35	0.075	400700	keystroke_c	c	n/a
200.44	0.0745	400880	keystroke_i	i	n/a
200.4845	0.0755	400969	keystroke_a	a	n/a
200.59	0.105	401180	keystroke_t	t	n/a
200.6495	0.0905	401299	keystroke_e	e	n/a
200.8595	0.06	401719	keystroke_d	d	n/a
200.965	0.0595	401930	keystroke_Key.space	Key.space	n/a
201.73	0.075	403460	keystroke_c	c	n/a
201.82	0.0895	403640	keystroke_l	l	n/a
202.0445	0.0605	404089	keystroke_o	o	n/a
202.255	0.0745	404510	keystroke_u	u	n/a
202.51	0.09	405020	keystroke_s	s	n/a
202.66	0.059	405320	keystroke_r	r	n/a
202.99	0.0745	405980	keystroke_Key.backspace	Key.backspace	n/a
203.1395	0.0905	406279	keystroke_Key.backspace	Key.backspace	n/a
203.305	0.105	406610	keystroke_Key.backspace	Key.backspace	n/a
203.4255	0.09	406851	keystroke_s	s	n/a
203.5445	0.09	407089	keystroke_u	u	n/a
203.665	0.1045	407330	keystroke_r	r	n/a
203.7395	0.1055	407479	keystroke_e	e	n/a
204.82	0.044	409640	keystroke_Key.enter	Key.enter	n/a
204.8715	6.671	409743	prompt	n/a	advances owners contrast weird\n
205.465	0.075	410930	keystroke_a	a	n/a
205.554	0.061	411108	keystroke_d	d	n/a
205.69	0.09	411380	keystroke_v	v	n/a
205.825	0.06	411650	keystroke_a	a	n/a
205.885	0.0895	411770	keystroke_n	n	n/a
206.0045	0.0905	412009	keystroke_c	c	n/a
206.0645	0.09	412129	keystroke_e	e	n/a
206.2745	0.06	412549	keystroke_s	s	n/a
206.3945	0.0605	412789	keystroke_Key.space	Key.space	n/a
207.025	0.0595	414050	keystroke_o	o	n/a
207.1295	0.09	414259	keystroke_w	w	n/a
207.3095	0.0755	414619	keystroke_n	n	n/a
207.3995	0.1355	414799	keystroke_e	e	n/a
207.52	0.074	415040	keystroke_r	r	n/a
207.64	0.105	415280	keystroke_s	s	n/a
207.775	0.059	415550	keystroke_Key.space	Key.space	n/a
208.51	0.09	417020	keystroke_c	c	n/a
208.6	0.105	417200	keystroke_o	o	n/a
208.66	0.105	417320	keystroke_n	n	n/a
208.75	0.06	417500	keystroke_t	t	n/a
208.885	0.075	417770	keystroke_r	r	n/a
208.945	0.0905	417890	keystroke_a	a	n/a
209.0045	0.1655	418009	keystroke_s	s	n/a
209.14	0.06	418280	keystroke_t	t	n/a
209.2445	0.0755	418489	keystroke_Key.space	Key.space	n/a
210.1	0.075	420200	keystroke_w	w	n/a
210.205	0.09	420410	keystroke_e	e	n/a
210.37	0.075	420740	keystroke_i	i	n/a
210.43	0.105	420860	keystroke_r	r	n/a
210.52	0.105	421040	keystroke_d	d	n/a
211.4495	0.09	422899	keystroke_Key.enter	Key.enter	n/a
211.547	10.105	423094	prompt	n/a	sbjct democrats prince suggestion\n
212.47	0.0905	424940	keystroke_s	s	n/a
213.19	0.0745	426380	keystroke_b	b	n/a
213.415	0.09	426830	keystroke_j	j	n/a
213.564	0.076	427128	keystroke_c	c	n/a
213.79	0.0455	427580	keystroke_t	t	n/a
213.8795	0.0905	427759	keystroke_Key.space	Key.space	n/a
214.419	0.016	428838	keystroke_d	d	n/a
214.494	0.061	428988	keystroke_e	e	n/a
214.539	0.121	429078	keystroke_m	m	n/a
214.765	0.0745	429530	keystroke_o	o	n/a
215.1095	0.06	430219	keystroke_r	r	n/a
215.425	0.0895	430850	keystroke_Key.backspace	Key.backspace	n/a
215.545	0.0895	431090	keystroke_c	c	n/a
215.7245	0.045	431449	keystroke_e	e	n/a
215.7405	0.0595	431481	keystroke_r	r	n/a
216.28	0.059	432560	keystroke_Key.backspace	Key.backspace	n/a
216.4	0.09	432800	keystroke_Key.backspace	Key.backspace	n/a
216.5195	0.09	433039	keystroke_r	r	n/a
216.6395	0.09	433279	keystroke_a	a	n/a
216.715	0.0895	433430	keystroke_t	t	n/a
216.8645	0.09	433729	keystroke_s	s	n/a
216.9845	0.075	433969	keystroke_Key.space	Key.space	n/a
217.81	0.0745	435620	keystroke_p	p	n/a
217.9	0.06	435800	keystroke_r	r	n/a
218.0195	0.075	436039	keystroke_i	i	n/a
218.0645	0.09	436129	keystroke_n	n	n/a
218.11	0.12	436220	keystroke_c	c	n/a
218.185	0.1195	436370	keystroke_e	e	n/a
218.3195	0.03	436639	keystroke_Key.space	Key.space	n/a
219.265	0.06	438530	keystroke_s	s	n/a
219.3395	0.0895	438679	keystroke_u	u	n/a
219.46	0.045	438920	keystroke_g	g	n/a
219.58	0.105	439160	keystroke_g	g	n/a
219.6695	0.1955	439339	keystroke_e	e	n/a
219.76	0.135	439520	keystroke_s	s	n/a
219.849	0.0755	439698	keystroke_t	t	n/a
220.1045	0.255	440209	keystroke_i	i	n/a
220.1945	0.1355	440389	keystroke_o	o	n/a
220.27	0.135	440540	keystroke_n	n	n/a
221.575	0.0745	443150	keystroke_Key.enter	Key.enter	n/a
221.657	6.594	443314	prompt	n/a	phil terror presents majority\n
222.4145	0.075	444829	keystroke_p	p	n/a
222.6095	0.09	445219	keystroke_h	h	n/a
222.67	0.1195	445340	keystroke_i	i	n/a
222.8795	0.105	445759	keystroke_l	l	n/a
223.059	0.06	446118	keystroke_Key.space	Key.space	n/a
223.6595	0.1055	447319	keystroke_t	t	n/a
223.735	0.18	447470	keystroke_e	e	n/a
223.885	0.0745	447770	keystroke_r	r	n/a
224.02	0.0905	448040	keystroke_r	r	n/a
224.139	0.075	448278	keystroke_o	o	n/a
224.26	0.06	448520	keystroke_r	r	n/a
224.35	0.045	448700	keystroke_Key.space	Key.space	n/a
225.16	0.06	450320	keystroke_p	p	n/a
225.205	0.105	450410	keystroke_r	r	n/a
225.28	0.0745	450560	keystroke_e	e	n/a
225.4445	0.0755	450889	keystroke_s	s	n/a
225.5045	0.0905	451009	keystroke_e	e	n/a
225.625	0.0895	451250	keystroke_n	n	n/a
225.73	0.0595	451460	keystroke_t	t	n/a
225.85	0.09	451700	keystroke_s	s	n/a
225.985	0.0295	451970	keystroke_Key.space	Key.space	n/a
226.84	0.1045	453680	keystroke_m	m	n/a
226.96	0.075	453920	keystroke_a	a	n/a
227.0795	0.091	454159	keystroke_j	j	n/a
227.1845	0.09	454369	keystroke_o	o	n/a
227.2895	0.075	454579	keystroke_r	r	n/a
227.395	0.09	454790	keystroke_i	i	n/a
227.5	0.0595	455000	keystroke_t	t	n/a
227.605	0.0595	455210	keystroke_y	y	n/a
228.175	0.075	456350	keystroke_Key.enter	Key.enter	n/a
228.258	7.134	456516	prompt	n/a	retrieve whom refused designation\n
229.03	0.12	458060	keystroke_r	r	n/a
229.12	0.105	458240	keystroke_e	e	n/a
229.3895	0.0605	458779	keystroke_t	t	n/a
229.5245	0.076	459049	keystroke_r	r	n/a
229.6445	0.075	459289	keystroke_i	i	n/a
229.7495	0.0755	459499	keystroke_e	e	n/a
229.9895	0.105	459979	keystroke_v	v	n/a
230.41	0.045	460820	keystroke_e	e	n/a
230.589	0.046	461178	keystroke_Key.space	Key.space	n/a
231.25	0.075	462500	keystroke_w	w	n/a
231.34	0.015	462680	keystroke_h	h	n/a
231.385	0.15	462770	keystroke_o	o	n/a
231.489	0.091	462978	keystroke_m	m	n/a
231.624	0.075	463248	keystroke_Key.space	Key.space	n/a
231.864	0.105	463728	keystroke_r	r	n/a
231.94	0.105	463880	keystroke_e	e	n/a
232.1345	0.0605	464269	keystroke_f	f	n/a
232.2255	0.0745	464451	keystroke_u	u	n/a
232.3295	0.09	464659	keystroke_s	s	n/a
232.4055	0.0595	464811	keystroke_e	e	n/a
232.57	0.075	465140	keystroke_d	d	n/a
232.66	0.089	465320	keystroke_Key.space	Key.space	n/a
233.305	0.075	466610	keystroke_d	d	n/a
233.499	0.1205	466998	keystroke_e	e	n/a
233.59	0.12	467180	keystroke_s	s	n/a
233.755	0.0745	467510	keystroke_i	i	n/a
233.9045	0.045	467809	keystroke_g	g	n/a
233.9955	0.089	467991	keystroke_n	n	n/a
234.115	0.105	468230	keystroke_a	a	n/a
234.19	0.06	468380	keystroke_t	t	n/a
234.31	0.255	468620	keystroke_i	i	n/a
234.4	0.119	468800	keystroke_o	o	n/a
234.415	0.135	468830	keystroke_n	n	n/a
235.3295	0.06	470659	keystroke_Key.enter	Key.enter	n/a
235.3965	10.12	470793	prompt	n/a	state nevertheless pharmacology inquiry\n
236.0205	0.059	472041	keystroke_s	s	n/a
236.1095	0.075	472219	keystroke_t	t	n/a
236.215	0.09	472430	keystroke_a	a	n/a
236.29	0.0745	472580	keystroke_t	t	n/a
236.32	0.1345	472640	keystroke_e	e	n/a
236.4695	0.075	472939	keystroke_Key.space	Key.space	n/a
236.7105	0.074	473421	keystroke_n	n	n/a
236.7695	0.105	473539	keystroke_e	e	n/a
236.9495	0.136	473899	keystroke_v	v	n/a
237.0995	0.15	474199	keystroke_e	e	n/a
237.2195	0.075	474439	keystroke_r	r	n/a
237.43	0.06	474860	keystroke_t	t	n/a
237.535	0.0895	475070	keystroke_h	h	n/a
237.61	0.0445	475220	keystroke_e	e	n/a
237.7595	0.09	475519	keystroke_l	l	n/a
237.8645	0.045	475729	keystroke_e	e	n/a
237.9995	0.0755	475999	keystroke_s	s	n/a
238.15	0.09	476300	keystroke_s	s	n/a
238.2695	0.075	476539	keystroke_Key.space	Key.space	n/a
239.245	0.06	478490	keystroke_p	p	n/a
239.455	0.075	478910	keystroke_h	h	n/a
239.785	0.119	479570	keystroke_a	a	n/a
239.89	0.09	479780	keystroke_r	r	n/a
240.01	0.09	480020	keystroke_m	m	n/a
240.1445	0.09	480289	keystroke_a	a	n/a
240.64	0.06	481280	keystroke_c	c	n/a
240.73	0.06	481460	keystroke_o	o	n/a
240.91	0.045	481820	keystroke_l	l	n/a
241.045	0.075	482090	keystroke_o	o	n/a
241.149	0.06	482298	keystroke_g	g	n/a
241.27	0.0595	482540	keystroke_y	y	n/a
241.555	0.059	483110	keystroke_Key.space	Key.space	n/a
242.44	0.12	484880	keystroke_i	i	n/a
242.545	0.09	485090	keystroke_n	n	n/a
242.695	0.075	485390	keystroke_q	q	n/a
242.8445	0.1205	485689	keystroke_u	u	n/a
242.905	0.12	485810	keystroke_i	i	n/a
243.055	0.075	486110	keystroke_r	r	n/a
243.46	0.06	486920	keystroke_t	t	n/a
243.85	0.0445	487700	keystroke_Key.backspace	Key.backspace	n/a
243.9845	0.06	487969	keystroke_y	y	n/a
245.44	0.075	490880	keystroke_Key.enter	Key.enter	n/a
245.5215	5.6655	491043	prompt	n/a	patch nikon fruit as\n
246.355	0.0745	492710	keystroke_p	p	n/a
246.4305	0.1195	492861	keystroke_a	a	n/a
246.505	0.0595	493010	keystroke_t	t	n/a
246.7	0.074	493400	keystroke_c	c	n/a
246.789	0.0915	493578	keystroke_h	h	n/a
246.91	0.06	493820	keystroke_Key.space	Key.space	n/a
247.749	0.106	495498	keystroke_n	n	n/a
247.869	0.075	495738	keystroke_i	i	n/a
248.0645	0.046	496129	keystroke_k	k	n/a
248.2145	0.075	496429	keystroke_o	o	n/a
248.3195	0.105	496639	keystroke_n	n	n/a
248.41	0.0745	496820	keystroke_Key.space	Key.space	n/a
249.2645	0.0455	498529	keystroke_f	f	n/a
249.4	0.06	498800	keystroke_r	r	n/a
249.475	0.075	498950	keystroke_u	u	n/a
249.61	0.09	499220	keystroke_i	i	n/a
249.685	0.075	499370	keystroke_t	t	n/a
249.91	0.089	499820	keystroke_Key.space	Key.space	n/a
250.24	0.15	500480	keystroke_a	a	n/a
250.33	0.135	500660	keystroke_s	s	n/a
251.11	0.075	502220	keystroke_Key.enter	Key.enter	n/a
251.1905	8.142	502381	prompt	n/a	likewise prozac density national\n
251.77	0.09	503540	keystroke_l	l	n/a
251.95	0.06	503900	keystroke_i	i	n/a
252.1	0.075	504200	keystroke_k	k	n/a
252.145	0.09	504290	keystroke_e	e	n/a
252.31	0.09	504620	keystroke_w	w	n/a
252.445	0.075	504890	keystroke_i	i	n/a
252.535	0.075	505070	keystroke_s	s	n/a
252.595	0.075	505190	keystroke_e	e	n/a
252.715	0.045	505430	keystroke_Key.space	Key.space	n/a
253.2845	0.0605	506569	keystroke_p	p	n/a
253.3905	0.0585	506781	keystroke_r	r	n/a
253.51	0.075	507020	keystroke_o	o	n/a
253.645	0.105	507290	keystroke_z	z	n/a
254.185	0.045	508370	keystroke_c	c	n/a
254.2595	0.0605	508519	keystroke_a	a	n/a
254.7095	0.0605	509419	keystroke_Key.backspace	Key.backspace	n/a
254.8445	0.075	509689	keystroke_Key.backspace	Key.backspace	n/a
254.9355	0.089	509871	keystroke_a	a	n/a
254.9795	0.0755	509959	keystroke_c	c	n/a
255.1	0.0745	510200	keystroke_Key.space	Key.space	n/a
255.9845	0.0455	511969	keystroke_d	d	n/a
256.1505	0.0445	512301	keystroke_e	e	n/a
256.225	0.0895	512450	keystroke_n	n	n/a
256.3445	0.0755	512689	keystroke_s	s	n/a
256.4495	0.076	512899	keystroke_i	i	n/a
256.5545	0.061	513109	keystroke_t	t	n/a
256.6895	0.045	513379	keystroke_y	y	n/a
256.8095	0.045	513619	keystroke_Key.space	Key.space	n/a
257.635	0.0895	515270	keystroke_n	n	n/a
257.7245	0.0755	515449	keystroke_a	a	n/a
257.8445	0.0605	515689	keystroke_t	t	n/a
257.92	0.24	515840	keystroke_i	i	n/a
258.01	0.1345	516020	keystroke_o	o	n/a
258.0395	0.166	516079	keystroke_n	n	n/a
258.2195	0.09	516439	keystroke_a	a	n/a
258.3405	0.059	516681	keystroke_l	l	n/a
259.255	0.075	518510	keystroke_Key.enter	Key.enter	n/a
259.34	7.9565	518680	prompt	n/a	beads waste dallas differently\n
260.125	0.075	520250	keystroke_b	b	n/a
260.185	0.09	520370	keystroke_e	e	n/a
260.305	0.1045	520610	keystroke_a	a	n/a
260.3945	0.165	520789	keystroke_d	d	n/a
260.4995	0.1205	520999	keystroke_s	s	n/a
260.8295	0.06	521659	keystroke_Key.space	Key.space	n/a
261.25	0.0755	522500	keystroke_w	w	n/a
261.385	0.105	522770	keystroke_a	a	n/a
261.459	0.1505	522918	keystroke_s	s	n/a
261.58	0.12	523160	keystroke_t	t	n/a
261.595	0.1655	523190	keystroke_e	e	n/a
261.805	0.0595	523610	keystroke_Key.space	Key.space	n/a
262.525	0.075	525050	keystroke_d	d	n/a
262.644	0.091	525288	keystroke_a	a	n/a
262.78	0.06	525560	keystroke_l	l	n/a
262.93	0.0595	525860	keystroke_l	l	n/a
263.035	0.2095	526070	keystroke_a	a	n/a
263.2295	0.12	526459	keystroke_s	s	n/a
263.395	0.0745	526790	keystroke_Key.space	Key.space	n/a
264.175	0.0745	528350	keystroke_d	d	n/a
264.3245	0.0745	528649	keystroke_i	i	n/a
264.429	0.076	528858	keystroke_f	f	n/a
264.595	0.074	529190	keystroke_f	f	n/a
264.685	0.09	529370	keystroke_e	e	n/a
264.79	0.0895	529580	keystroke_r	r	n/a
264.865	0.0895	529730	keystroke_e	e	n/a
264.9405	0.104	529881	keystroke_n	n	n/a
265.0595	0.06	530119	keystroke_t	t	n/a
265.15	0.09	530300	keystroke_l	l	n/a
265.375	0.0605	530750	keystroke_y	y	n/a
265.3895	0.0295	530779	keystroke_t	t	n/a
265.885	0.06	531770	keystroke_Key.backspace	Key.backspace	n/a
267.2495	0.045	534499	keystroke_Key.enter	Key.enter	n/a
267.3015	8.23	534603	prompt	n/a	shelter charging highland suites\n
267.9245	0.0905	535849	keystroke_s	s	n/a
268.059	0.091	536118	keystroke_h	h	n/a
268.165	0.045	536330	keystroke_e	e	n/a
268.3	0.06	536600	keystroke_l	l	n/a
268.4945	0.06	536989	keystroke_t	t	n/a
268.6295	0.105	537259	keystroke_e	e	n/a
268.7055	0.074	537411	keystroke_r	r	n/a
268.8545	0.06	537709	keystroke_Key.space	Key.space	n/a
269.5755	0.074	539151	keystroke_c	c	n/a
269.6955	0.0895	539391	keystroke_h	h	n/a
269.7545	0.0905	539509	keystroke_a	a	n/a
269.815	0.075	539630	keystroke_r	r	n/a
270.0095	0.0455	540019	keystroke_g	g	n/a
270.19	0.105	540380	keystroke_i	i	n/a
270.25	0.105	540500	keystroke_n	n	n/a
270.37	0.045	540740	keystroke_g	g	n/a
270.5345	0.06	541069	keystroke_Key.space	Key.space	n/a
271.375	0.0595	542750	keystroke_h	h	n/a
271.494	0.076	542988	keystroke_i	i	n/a
271.615	0.06	543230	keystroke_g	g	n/a
271.69	0.09	543380	keystroke_h	h	n/a
271.84	0.105	543680	keystroke_l	l	n/a
271.9295	0.0755	543859	keystroke_a	a	n/a
272.035	0.09	544070	keystroke_n	n	n/a
272.11	0.075	544220	keystroke_d	d	n/a
272.215	0.075	544430	keystroke_Key.space	Key.space	n/a
272.9195	0.061	545839	keystroke_s	s	n/a
273.025	0.1045	546050	keystroke_u	u	n/a
273.1455	0.089	546291	keystroke_i	i	n/a
273.2505	0.119	546501	keystroke_t	t	n/a
273.3245	0.18	546649	keystroke_e	e	n/a
273.4595	0.135	546919	keystroke_s	s	n/a
275.4395	0.09	550879	keystroke_Key.enter	Key.enter	n/a
275.5365	6.5805	551073	prompt	n/a	prev networks belarus decent\n
276.385	0.075	552770	keystroke_p	p	n/a
276.445	0.12	552890	keystroke_r	r	n/a
276.52	0.075	553040	keystroke_e	e	n/a
276.685	0.075	553370	keystroke_v	v	n/a
276.805	0.06	553610	keystroke_Key.space	Key.space	n/a
277.3	0.09	554600	keystroke_n	n	n/a
277.375	0.105	554750	keystroke_e	e	n/a
277.51	0.06	555020	keystroke_t	t	n/a
277.63	0.09	555260	keystroke_w	w	n/a
277.765	0.09	555530	keystroke_o	o	n/a
277.8705	0.045	555741	keystroke_r	r	n/a
277.96	0.06	555920	keystroke_k	k	n/a
278.05	0.09	556100	keystroke_s	s	n/a
278.3045	0.09	556609	keystroke_Key.space	Key.space	n/a
279.13	0.0895	558260	keystroke_b	b	n/a
279.2045	0.0755	558409	keystroke_e	e	n/a
279.3545	0.09	558709	keystroke_l	l	n/a
279.46	0.1195	558920	keystroke_a	a	n/a
279.5645	0.075	559129	keystroke_r	r	n/a
279.7445	0.06	559489	keystroke_u	u	n/a
279.8655	0.0745	559731	keystroke_s	s	n/a
279.9545	0.0755	559909	keystroke_Key.space	Key.space	n/a
280.7495	0.0605	561499	keystroke_d	d	n/a
280.8995	0.075	561799	keystroke_e	e	n/a
280.9755	0.134	561951	keystroke_c	c	n/a
281.095	0.09	562190	keystroke_e	e	n/a
281.1545	0.1055	562309	keystroke_n	n	n/a
281.2895	0.0605	562579	keystroke_t	t	n/a
282.0395	0.075	564079	keystroke_Key.enter	Key.enter	n/a
282.1215	5.635	564243	prompt	n/a	remind more falling giant\n
282.9395	0.1205	565879	keystroke_r	r	n/a
283.0445	0.0755	566089	keystroke_e	e	n/a
283.1505	0.089	566301	keystroke_m	m	n/a
283.2705	0.119	566541	keystroke_i	i	n/a
283.3605	0.0745	566721	keystroke_n	n	n/a
283.405	0.0745	566810	keystroke_d	d	n/a
283.5395	0.075	567079	keystroke_Key.space	Key.space	n/a
284.4245	0.0905	568849	keystroke_m	m	n/a
284.53	0.09	569060	keystroke_o	o	n/a
284.605	0.12	569210	keystroke_r	r	n/a
284.68	0.09	569360	keystroke_e	e	n/a
284.784	0.045	569568	keystroke_Key.space	Key.space	n/a
285.2505	0.0895	570501	keystroke_f	f	n/a
285.325	0.059	570650	keystroke_a	a	n/a
285.4	0.075	570800	keystroke_l	l	n/a
285.55	0.075	571100	keystroke_l	l	n/a
285.7295	0.1055	571459	keystroke_i	i	n/a
285.79	0.075	571580	keystroke_n	n	n/a
285.85	0.06	571700	keystroke_g	g	n/a
285.9695	0.075	571939	keystroke_Key.space	Key.space	n/a
286.4645	0.045	572929	keystroke_g	g	n/a
286.7945	0.075	573589	keystroke_i	i	n/a
286.8855	0.0595	573771	keystroke_a	a	n/a
286.96	0.09	573920	keystroke_n	n	n/a
287.1095	0.061	574219	keystroke_t	t	n/a
287.6795	0.075	575359	keystroke_Key.enter	Key.enter	n/a
287.7605	9.161	575521	prompt	n/a	dressing ascii peripherals programmers\n
288.414	0.031	576828	keystroke_d	d	n/a
288.76	0.1045	577520	keystroke_r	r	n/a
288.8195	0.105	577639	keystroke_e	e	n/a
289.03	0.09	578060	keystroke_s	s	n/a
289.1795	0.1055	578359	keystroke_s	s	n/a
289.2995	0.1055	578599	keystroke_i	i	n/a
289.3595	0.12	578719	keystroke_n	n	n/a
289.4795	0.06	578959	keystroke_g	g	n/a
289.5845	0.075	579169	keystroke_Key.space	Key.space	n/a
290.2295	0.046	580459	keystroke_a	a	n/a
290.3505	0.1045	580701	keystroke_s	s	n/a
290.6055	0.0595	581211	keystroke_c	c	n/a
290.815	0.045	581630	keystroke_i	i	n/a
291.129	0.0605	582258	keystroke_i	i	n/a
291.31	0.06	582620	keystroke_Key.space	Key.space	n/a
292.21	0.06	584420	keystroke_p	p	n/a
292.2845	0.0905	584569	keystroke_e	e	n/a
292.3445	0.075	584689	keystroke_r	r	n/a
292.4795	0.075	584959	keystroke_i	i	n/a
292.6745	0.06	585349	keystroke_p	p	n/a
292.945	0.075	585890	keystroke_h	h	n/a
293.0355	0.1045	586071	keystroke_e	e	n/a
293.095	0.09	586190	keystroke_r	r	n/a
293.215	0.105	586430	keystroke_a	a	n/a
293.289	0.106	586578	keystroke_l	l	n/a
293.455	0.09	586910	keystroke_s	s	n/a
293.59	0.075	587180	keystroke_Key.space	Key.space	n/a
294.4445	0.0755	588889	keystroke_p	p	n/a
294.5645	0.0905	589129	keystroke_r	r	n/a
294.6705	0.059	589341	keystroke_o	o	n/a
294.8045	0.0305	589609	keystroke_g	g	n/a
294.94	0.0595	589880	keystroke_r	r	n/a
294.985	0.0895	589970	keystroke_a	a	n/a
295.0595	0.061	590119	keystroke_m	m	n/a
295.1945	0.075	590389	keystroke_m	m	n/a
295.255	0.1345	590510	keystroke_e	e	n/a
295.3295	0.1505	590659	keystroke_r	r	n/a
295.4345	0.12	590869	keystroke_s	s	n/a
296.8445	0.075	593689	keystroke_Key.enter	Key.enter	n/a
296.9265	8.515	593853	prompt	n/a	before decent descriptions humans\n
297.5205	0.074	595041	keystroke_b	b	n/a
297.5655	0.059	595131	keystroke_e	e	n/a
297.6555	0.0745	595311	keystroke_f	f	n/a
297.7895	0.075	595579	keystroke_o	o	n/a
297.895	0.105	595790	keystroke_r	r	n/a
297.9545	0.1055	595909	keystroke_e	e	n/a
298.045	0.075	596090	keystroke_Key.space	Key.space	n/a
298.435	0.105	596870	keystroke_a	a	n/a
298.554	0.075	597108	keystroke_d	d	n/a
298.9145	0.045	597829	keystroke_Key.backspace	Key.backspace	n/a
299.0345	0.0755	598069	keystroke_Key.backspace	Key.backspace	n/a
299.1405	0.0895	598281	keystroke_d	d	n/a
299.29	0.15	598580	keystroke_c	c	n/a
299.41	0.09	598820	keystroke_e	e	n/a
299.56	0.1055	599120	keystroke_n	n	n/a
299.9195	0.0445	599839	keystroke_Key.backspace	Key.backspace	n/a
300.0545	0.075	600109	keystroke_Key.backspace	Key.backspace	n/a
300.2045	0.09	600409	keystroke_Key.backspace	Key.backspace	n/a
300.3105	0.06	600621	keystroke_e	e	n/a
300.46	0.105	600920	keystroke_c	c	n/a
300.5345	0.1055	601069	keystroke_e	e	n/a
300.625	0.105	601250	keystroke_n	n	n/a
300.79	0.059	601580	keystroke_t	t	n/a
300.895	0.075	601790	keystroke_Key.space	Key.space	n/a
301.63	0.059	603260	keystroke_d	d	n/a
301.81	0.12	603620	keystroke_e	e	n/a
301.885	0.12	603770	keystroke_s	s	n/a
301.975	0.075	603950	keystroke_c	c	n/a
302.155	0.045	604310	keystroke_r	r	n/a
302.215	0.075	604430	keystroke_i	i	n/a
302.425	0.09	604850	keystroke_p	p	n/a
302.529	0.061	605058	keystroke_t	t	n/a
302.7105	0.2245	605421	keystroke_i	i	n/a
302.785	0.12	605570	keystroke_o	o	n/a
302.845	0.1195	605690	keystroke_n	n	n/a
302.95	0.0905	605900	keystroke_s	s	n/a
303.085	0.0745	606170	keystroke_Key.space	Key.space	n/a
303.864	0.076	607728	keystroke_h	h	n/a
304.0295	0.075	608059	keystroke_u	u	n/a
304.2095	0.0755	608419	keystroke_m	m	n/a
304.3	0.12	608600	keystroke_a	a	n/a
304.405	0.045	608810	keystroke_n	n	n/a
304.4655	0.0595	608931	keystroke_s	s	n/a
305.365	0.0745	610730	keystroke_Key.enter	Key.enter	n/a
305.4465	8.4705	610893	prompt	n/a	comfortable what's hormone lodge\n
306.175	0.0745	612350	keystroke_c	c	n/a
306.2795	0.105	612559	keystroke_o	o	n/a
306.3395	0.12	612679	keystroke_m	m	n/a
306.475	0.0595	612950	keystroke_f	f	n/a
306.5645	0.075	613129	keystroke_o	o	n/a
306.655	0.0305	613310	keystroke_r	r	n/a
306.79	0.045	613580	keystroke_t	t	n/a
306.865	0.105	613730	keystroke_a	a	n/a
306.94	0.1055	613880	keystroke_b	b	n/a
307.075	0.09	614150	keystroke_l	l	n/a
307.195	0.06	614390	keystroke_e	e	n/a
307.3	0.06	614600	keystroke_Key.space	Key.space	n/a
307.8855	0.06	615771	keystroke_w	w	n/a
307.975	0.075	615950	keystroke_h	h	n/a
308.02	0.105	616040	keystroke_a	a	n/a
308.14	0.045	616280	keystroke_t	t	n/a
308.23	0.09	616460	keystroke_s	s	n/a
309.04	0.06	618080	keystroke_Key.backspace	Key.backspace	n/a
309.5495	0.076	619099	keystroke_'	'	n/a
309.6405	0.075	619281	keystroke_s	s	n/a
309.76	0.06	619520	keystroke_Key.space	Key.space	n/a
310.7345	0.0605	621469	keystroke_h	h	n/a
310.87	0.0895	621740	keystroke_o	o	n/a
310.9745	0.075	621949	keystroke_r	r	n/a
311.32	0.0895	622640	keystroke_m	m	n/a
311.425	0.1195	622850	keystroke_o	o	n/a
311.5295	0.0755	623059	keystroke_n	n	n/a
311.62	0.075	623240	keystroke_e	e	n/a
311.724	0.076	623448	keystroke_Key.space	Key.space	n/a
312.46	0.09	624920	keystroke_l	l	n/a
312.7	0.075	625400	keystroke_o	o	n/a
312.7595	0.0905	625519	keystroke_d	d	n/a
312.88	0.12	625760	keystroke_g	g	n/a
312.9705	0.1045	625941	keystroke_e	e	n/a
313.854	0.061	627708	keystroke_Key.enter	Key.enter	n/a
313.921	10.135	627842	prompt	n/a	searching chancellor motivation century\n
314.62	0.0905	629240	keystroke_s	s	n/a
314.695	0.15	629390	keystroke_e	e	n/a
314.815	0.12	629630	keystroke_a	a	n/a
314.89	0.09	629780	keystroke_r	r	n/a
315.0855	0.0745	630171	keystroke_c	c	n/a
315.175	0.075	630350	keystroke_h	h	n/a
315.265	0.1355	630530	keystroke_i	i	n/a
315.34	0.105	630680	keystroke_n	n	n/a
315.43	0.06	630860	keystroke_g	g	n/a
315.55	0.075	631100	keystroke_Key.space	Key.space	n/a
316.27	0.09	632540	keystroke_c	c	n/a
316.39	0.0755	632780	keystroke_h	h	n/a
316.4805	0.0595	632961	keystroke_e	e	n/a
316.9745	0.0605	633949	keystroke_Key.backspace	Key.backspace	n/a
317.1555	0.0895	634311	keystroke_n	n	n/a
317.6195	0.06	635239	keystroke_Key.backspace	Key.backspace	n/a
317.7255	0.03	635451	keystroke_a	a	n/a
317.8	0.0895	635600	keystroke_n	n	n/a
317.935	0.1195	635870	keystroke_c	c	n/a
318.0095	0.105	636019	keystroke_e	e	n/a
318.775	0.075	637550	keystroke_l	l	n/a
318.925	0.06	637850	keystroke_l	l	n/a
319.105	0.06	638210	keystroke_o	o	n/a
319.21	0.03	638420	keystroke_r	r	n/a
319.285	0.06	638570	keystroke_Key.space	Key.space	n/a
320.08	0.075	640160	keystroke_m	m	n/a
320.1695	0.091	640339	keystroke_o	o	n/a
320.2605	0.075	640521	keystroke_t	t	n/a
320.38	0.09	640760	keystroke_i	i	n/a
320.5	0.06	641000	keystroke_v	v	n/a
320.575	0.1345	641150	keystroke_a	a	n/a
320.695	0.06	641390	keystroke_t	t	n/a
320.7995	0.195	641599	keystroke_i	i	n/a
320.86	0.089	641720	keystroke_o	o	n/a
320.875	0.179	641750	keystroke_n	n	n/a
321.039	0.0605	642078	keystroke_Key.space	Key.space	n/a
321.94	0.105	643880	keystroke_c	c	n/a
322.06	0.105	644120	keystroke_e	e	n/a
322.12	0.09	644240	keystroke_n	n	n/a
322.27	0.06	644540	keystroke_t	t	n/a
322.375	0.075	644750	keystroke_u	u	n/a
322.435	0.075	644870	keystroke_r	r	n/a
322.69	0.0605	645380	keystroke_y	y	n/a
323.9945	0.06	647989	keystroke_Key.enter	Key.enter	n/a
324.06	6.1015	648120	prompt	n/a	till estate execute yemen\n
324.79	0.075	649580	keystroke_t	t	n/a
324.88	0.09	649760	keystroke_i	i	n/a
325.105	0.015	650210	keystroke_l	l	n/a
325.195	0.105	650390	keystroke_l	l	n/a
325.285	0.0755	650570	keystroke_Key.space	Key.space	n/a
325.4055	0.0595	650811	keystroke_e	e	n/a
325.525	0.12	651050	keystroke_s	s	n/a
325.66	0.075	651320	keystroke_t	t	n/a
325.7805	0.075	651561	keystroke_a	a	n/a
325.825	0.1195	651650	keystroke_t	t	n/a
325.8995	0.105	651799	keystroke_e	e	n/a
326.0345	0.06	652069	keystroke_Key.space	Key.space	n/a
326.8155	0.0745	653631	keystroke_e	e	n/a
326.9955	0.0595	653991	keystroke_x	x	n/a
327.16	0.12	654320	keystroke_e	e	n/a
327.295	0.076	654590	keystroke_c	c	n/a
327.535	0.075	655070	keystroke_u	u	n/a
327.685	0.15	655370	keystroke_t	t	n/a
327.805	0.1345	655610	keystroke_e	e	n/a
327.955	0.0745	655910	keystroke_Key.space	Key.space	n/a
328.915	0.03	657830	keystroke_y	y	n/a
328.975	0.075	657950	keystroke_e	e	n/a
329.125	0.0895	658250	keystroke_m	m	n/a
329.2295	0.075	658459	keystroke_e	e	n/a
329.3205	0.06	658641	keystroke_n	n	n/a
330.085	0.0745	660170	keystroke_Key.enter	Key.enter	n/a
330.1665	6.2645	660333	prompt	n/a	marble result apparel fitting\n
330.8045	0.105	661609	keystroke_m	m	n/a
330.88	0.105	661760	keystroke_a	a	n/a
330.9695	0.0605	661939	keystroke_r	r	n/a
331.06	0.06	662120	keystroke_b	b	n/a
331.1505	0.1495	662301	keystroke_l	l	n/a
331.3	0.0605	662600	keystroke_e	e	n/a
331.39	0.059	662780	keystroke_Key.space	Key.space	n/a
332.1695	0.12	664339	keystroke_r	r	n/a
332.2605	0.075	664521	keystroke_e	e	n/a
332.4095	0.106	664819	keystroke_s	s	n/a
332.5305	0.104	665061	keystroke_u	u	n/a
332.65	0.105	665300	keystroke_l	l	n/a
332.77	0.06	665540	keystroke_t	t	n/a
332.86	0.075	665720	keystroke_Key.space	Key.space	n/a
333.595	0.0595	667190	keystroke_a	a	n/a
333.76	0.0445	667520	keystroke_p	p	n/a
333.88	0.075	667760	keystroke_p	p	n/a
333.925	0.09	667850	keystroke_a	a	n/a
334.03	0.12	668060	keystroke_r	r	n/a
334.12	0.09	668240	keystroke_e	e	n/a
334.211	0.074	668422	keystroke_l	l	n/a
334.345	0.06	668690	keystroke_Key.space	Key.space	n/a
335.065	0.015	670130	keystroke_f	f	n/a
335.095	0.075	670190	keystroke_i	i	n/a
335.2455	0.0445	670491	keystroke_t	t	n/a
335.35	0.09	670700	keystroke_t	t	n/a
335.4555	0.105	670911	keystroke_i	i	n/a
335.5005	0.0895	671001	keystroke_n	n	n/a
335.575	0.06	671150	keystroke_g	g	n/a
336.355	0.075	672710	keystroke_Key.enter	Key.enter	n/a
336.4345	10.1075	672869	prompt	n/a	melbourne controversy these accident\n
337.3305	0.135	674661	keystroke_m	m	n/a
337.4945	0.075	674989	keystroke_e	e	n/a
337.8105	0.09	675621	keystroke_l	l	n/a
338.0655	0.0595	676131	keystroke_b	b	n/a
338.2155	0.1195	676431	keystroke_o	o	n/a
338.305	0.105	676610	keystroke_u	u	n/a
338.425	0.09	676850	keystroke_r	r	n/a
338.725	0.0745	677450	keystroke_n	n	n/a
338.815	0.0895	677630	keystroke_e	e	n/a
338.9495	0.0755	677899	keystroke_Key.space	Key.space	n/a
340.196	0.119	680392	keystroke_c	c	n/a
340.45	0.0895	680900	keystroke_o	o	n/a
340.5995	0.0905	681199	keystroke_n	n	n/a
340.675	0.075	681350	keystroke_t	t	n/a
340.81	0.075	681620	keystroke_r	r	n/a
340.915	0.105	681830	keystroke_o	o	n/a
341.0805	0.074	682161	keystroke_v	v	n/a
341.215	0.1045	682430	keystroke_e	e	n/a
341.305	0.06	682610	keystroke_r	r	n/a
341.4245	0.1205	682849	keystroke_s	s	n/a
341.6045	0.075	683209	keystroke_y	y	n/a
341.8145	0.045	683629	keystroke_Key.space	Key.space	n/a
342.445	0.0455	684890	keystroke_t	t	n/a
342.535	0.075	685070	keystroke_h	h	n/a
342.5955	0.1045	685191	keystroke_e	e	n/a
342.715	0.135	685430	keystroke_s	s	n/a
342.82	0.075	685640	keystroke_e	e	n/a
343.06	0.045	686120	keystroke_Key.space	Key.space	n/a
343.48	0.105	686960	keystroke_a	a	n/a
343.585	0.09	687170	keystroke_c	c	n/a
343.7055	0.1045	687411	keystroke_c	c	n/a
343.84	0.0755	687680	keystroke_i	i	n/a
343.8995	0.0755	687799	keystroke_d	d	n/a
344.05	0.105	688100	keystroke_n	n	n/a
344.065	0.045	688130	keystroke_e	e	n/a
344.26	0.045	688520	keystroke_t	t	n/a
344.725	0.045	689450	keystroke_Key.backspace	Key.backspace	n/a
344.86	0.0745	689720	keystroke_Key.backspace	Key.backspace	n/a
345.01	0.075	690020	keystroke_Key.backspace	Key.backspace	n/a
345.1	0.06	690200	keystroke_e	e	n/a
345.19	0.09	690380	keystroke_n	n	n/a
345.295	0.045	690590	keystroke_t	t	n/a
346.4045	0.1355	692809	keystroke_Key.enter	Key.enter	n/a
346.55	10.7315	693100	prompt	n/a	transparency organisations ultimate additional\n
347.1855	0.059	694371	keystroke_t	t	n/a
347.3195	0.1055	694639	keystroke_r	r	n/a
347.41	0.105	694820	keystroke_a	a	n/a
347.515	0.09	695030	keystroke_n	n	n/a
347.635	0.0755	695270	keystroke_s	s	n/a
347.7855	0.045	695571	keystroke_p	p	n/a
347.8605	0.119	695721	keystroke_a	a	n/a
347.9655	0.0895	695931	keystroke_r	r	n/a
348.085	0.09	696170	keystroke_e	e	n/a
348.2055	0.0745	696411	keystroke_n	n	n/a
348.31	0.06	696620	keystroke_c	c	n/a
348.475	0.045	696950	keystroke_y	y	n/a
348.595	0.06	697190	keystroke_Key.space	Key.space	n/a
349.4195	0.075	698839	keystroke_o	o	n/a
349.6305	0.059	699261	keystroke_r	r	n/a
349.8395	0.0605	699679	keystroke_g	g	n/a
350.365	0.135	700730	keystroke_a	a	n/a
350.515	0.015	701030	keystroke_n	n	n/a
350.545	0.045	701090	keystroke_i	i	n/a
350.665	0.06	701330	keystroke_z	z	n/a
351.085	0.0595	702170	keystroke_Key.backspace	Key.backspace	n/a
351.1595	0.091	702319	keystroke_s	s	n/a
351.4295	0.076	702859	keystroke_a	a	n/a
351.6395	0.0605	703279	keystroke_t	t	n/a
351.7305	0.239	703461	keystroke_i	i	n/a
351.8045	0.1055	703609	keystroke_o	o	n/a
351.8495	0.136	703699	keystroke_n	n	n/a
352	0.0895	704000	keystroke_s	s	n/a
352.3445	0.075	704689	keystroke_Key.space	Key.space	n/a
354.0395	0.0755	708079	keystroke_u	u	n/a
354.1295	0.0305	708259	keystroke_l	l	n/a
354.205	0.0745	708410	keystroke_t	t	n/a
354.2795	0.1505	708559	keystroke_i	i	n/a
354.4	0.105	708800	keystroke_m	m	n/a
354.475	0.075	708950	keystroke_a	a	n/a
354.565	0.075	709130	keystroke_t	t	n/a
354.61	0.105	709220	keystroke_e	e	n/a
354.76	0.06	709520	keystroke_Key.space	Key.space	n/a
355.4945	0.1205	710989	keystroke_a	a	n/a
355.6445	0.0605	711289	keystroke_d	d	n/a
355.795	0.0595	711590	keystroke_d	d	n/a
355.8855	0.0895	711771	keystroke_i	i	n/a
356.0195	0.061	712039	keystroke_t	t	n/a
356.1095	0.18	712219	keystroke_i	i	n/a
356.1845	0.12	712369	keystroke_o	o	n/a
356.215	0.12	712430	keystroke_n	n	n/a
356.32	0.075	712640	keystroke_a	a	n/a
356.4545	0.061	712909	keystroke_l	l	n/a
357.2045	0.0755	714409	keystroke_Key.enter	Key.enter	n/a
357.2845	10.424	714569	prompt	n/a	aims bullet telecharger security\n
357.85	0.1055	715700	keystroke_a	a	n/a
358.015	0.135	716030	keystroke_i	i	n/a
358.12	0.1495	716240	keystroke_m	m	n/a
358.255	0.0895	716510	keystroke_s	s	n/a
358.36	0.075	716720	keystroke_Key.space	Key.space	n/a
358.706	0.089	717412	keystroke_b	b	n/a
359.2745	0.075	718549	keystroke_u	u	n/a
359.7695	0.0455	719539	keystroke_l	l	n/a
359.8295	0.0605	719659	keystroke_l	l	n/a
360.055	0.06	720110	keystroke_l	l	n/a
360.55	0.075	721100	keystroke_Key.backspace	Key.backspace	n/a
360.8195	0.135	721639	keystroke_e	e	n/a
360.9255	0.074	721851	keystroke_t	t	n/a
361.0445	0.09	722089	keystroke_Key.space	Key.space	n/a
361.7645	0.106	723529	keystroke_t	t	n/a
361.8555	0.089	723711	keystroke_e	e	n/a
361.9755	0.0895	723951	keystroke_l	l	n/a
362.08	0.075	724160	keystroke_e	e	n/a
362.515	0.1055	725030	keystroke_c	c	n/a
362.6355	0.06	725271	keystroke_h	h	n/a
362.6795	0.166	725359	keystroke_a	a	n/a
362.8905	0.075	725781	keystroke_r	r	n/a
363.28	0.06	726560	keystroke_g	g	n/a
363.4	0.12	726800	keystroke_e	e	n/a
363.4905	0.06	726981	keystroke_r	r	n/a
363.58	0.075	727160	keystroke_Key.space	Key.space	n/a
364.3295	0.09	728659	keystroke_s	s	n/a
364.4495	0.06	728899	keystroke_e	e	n/a
364.615	0.1045	729230	keystroke_c	c	n/a
364.7345	0.0755	729469	keystroke_u	u	n/a
364.8245	0.06	729649	keystroke_r	r	n/a
364.9295	0.0755	729859	keystroke_i	i	n/a
365.0195	0.09	730039	keystroke_t	t	n/a
365.125	0.06	730250	keystroke_y	y	n/a
367.7065	0	735413	keystroke_Key.enter	Key.enter	n/a
367.712	11.515	735424	prompt	n/a	recommended daughters desirable eagle\n
368.38	0.09	736760	keystroke_r	r	n/a
368.455	0.1205	736910	keystroke_e	e	n/a
368.755	0.09	737510	keystroke_c	c	n/a
368.86	0.09	737720	keystroke_o	o	n/a
368.935	0.09	737870	keystroke_m	m	n/a
369.085	0.09	738170	keystroke_m	m	n/a
369.28	0.06	738560	keystroke_e	e	n/a
369.415	0.075	738830	keystroke_n	n	n/a
369.5355	0.1045	739071	keystroke_d	d	n/a
369.775	0.06	739550	keystroke_e	e	n/a
369.925	0.06	739850	keystroke_d	d	n/a
370	0.075	740000	keystroke_Key.space	Key.space	n/a
373.5115	0.0435	747023	keystroke_d	d	n/a
373.5845	0.12	747169	keystroke_a	a	n/a
373.735	0.0895	747470	keystroke_u	u	n/a
373.84	0.0455	747680	keystroke_g	g	n/a
373.975	0.0745	747950	keystroke_h	h	n/a
374.065	0.09	748130	keystroke_t	t	n/a
374.1245	0.136	748249	keystroke_e	e	n/a
374.2305	0.149	748461	keystroke_r	r	n/a
374.3655	0.0895	748731	keystroke_s	s	n/a
374.6345	0.0905	749269	keystroke_Key.space	Key.space	n/a
375.4595	0.076	750919	keystroke_d	d	n/a
375.7005	0.0595	751401	keystroke_e	e	n/a
375.8355	0.0745	751671	keystroke_s	s	n/a
376.2555	0.075	752511	keystroke_i	i	n/a
376.3605	0.075	752721	keystroke_r	r	n/a
376.466	0.0745	752932	keystroke_a	a	n/a
376.5845	0.0905	753169	keystroke_b	b	n/a
376.705	0.0605	753410	keystroke_l	l	n/a
376.7655	0.075	753531	keystroke_e	e	n/a
377.035	0.075	754070	keystroke_Key.space	Key.space	n/a
378.0555	0.0745	756111	keystroke_e	e	n/a
378.2045	0.105	756409	keystroke_a	a	n/a
378.445	0.0605	756890	keystroke_g	g	n/a
378.5645	0.09	757129	keystroke_l	l	n/a
378.6705	0.075	757341	keystroke_e	e	n/a
379.2105	0.015	758421	keystroke_Key.enter	Key.enter	n/a
379.2315	7.691	758463	prompt	n/a	debt adapted beijing promotional\n
379.9005	0.059	759801	keystroke_d	d	n/a
380.065	0.06	760130	keystroke_e	e	n/a
380.14	0.0605	760280	keystroke_b	b	n/a
380.2595	0.0605	760519	keystroke_t	t	n/a
380.335	0.06	760670	keystroke_Key.space	Key.space	n/a
380.875	0.075	761750	keystroke_a	a	n/a
381.025	0.09	762050	keystroke_d	d	n/a
381.16	0.015	762320	keystroke_a	a	n/a
381.28	0.045	762560	keystroke_p	p	n/a
381.6105	0.0595	763221	keystroke_t	t	n/a
381.8045	0.06	763609	keystroke_e	e	n/a
381.9395	0.1205	763879	keystroke_d	d	n/a
382.075	0.045	764150	keystroke_Key.space	Key.space	n/a
382.7195	0.091	765439	keystroke_b	b	n/a
382.78	0.0595	765560	keystroke_e	e	n/a
382.9895	0.076	765979	keystroke_i	i	n/a
383.2155	0.075	766431	keystroke_j	j	n/a
383.3505	0.135	766701	keystroke_i	i	n/a
383.4405	0.06	766881	keystroke_n	n	n/a
383.5455	0.044	767091	keystroke_g	g	n/a
383.6645	0.06	767329	keystroke_Key.space	Key.space	n/a
384.64	0.09	769280	keystroke_p	p	n/a
384.7305	0.0595	769461	keystroke_r	r	n/a
385.015	0.105	770030	keystroke_o	o	n/a
385.165	0.12	770330	keystroke_m	m	n/a
385.3	0.075	770600	keystroke_o	o	n/a
385.45	0.06	770900	keystroke_t	t	n/a
385.585	0.27	771170	keystroke_i	i	n/a
385.69	0.21	771380	keystroke_o	o	n/a
385.7955	0.12	771591	keystroke_n	n	n/a
385.93	0.0755	771860	keystroke_a	a	n/a
386.0355	0.089	772071	keystroke_l	l	n/a
386.8445	0.0755	773689	keystroke_Key.enter	Key.enter	n/a
386.927	4.84	773854	prompt	n/a	jason pair content aspect\n
387.5655	0.0745	775131	keystroke_j	j	n/a
387.655	0.0905	775310	keystroke_a	a	n/a
387.73	0.135	775460	keystroke_s	s	n/a
387.82	0.1205	775640	keystroke_o	o	n/a
387.88	0.1205	775760	keystroke_n	n	n/a
388.0145	0.0755	776029	keystroke_Key.space	Key.space	n/a
388.2855	0.074	776571	keystroke_p	p	n/a
388.3745	0.06	776749	keystroke_a	a	n/a
388.615	0.0745	777230	keystroke_i	i	n/a
388.6745	0.0905	777349	keystroke_r	r	n/a
388.8395	0.06	777679	keystroke_Key.space	Key.space	n/a
389.5145	0.0905	779029	keystroke_c	c	n/a
389.6205	0.09	779241	keystroke_o	o	n/a
389.6795	0.1055	779359	keystroke_n	n	n/a
389.7855	0.1045	779571	keystroke_t	t	n/a
389.86	0.105	779720	keystroke_e	e	n/a
389.9505	0.074	779901	keystroke_n	n	n/a
390.04	0.0605	780080	keystroke_t	t	n/a
390.1295	0.075	780259	keystroke_Key.space	Key.space	n/a
390.7605	0.105	781521	keystroke_a	a	n/a
390.8665	0.119	781733	keystroke_s	s	n/a
391.0005	0.06	782001	keystroke_p	p	n/a
391.0755	0.0895	782151	keystroke_e	e	n/a
391.21	0.06	782420	keystroke_c	c	n/a
391.375	0.06	782750	keystroke_t	t	n/a
391.735	0.03	783470	keystroke_Key.enter	Key.enter	n/a
391.772	16.9	783544	prompt	n/a	island supplemental uniprotkb invite\n
398.172	0.0285	796344	keystroke_i	i	n/a
398.2005	0.075	796401	keystroke_s	s	n/a
398.335	0.105	796670	keystroke_l	l	n/a
398.425	0.0905	796850	keystroke_a	a	n/a
398.545	0.1055	797090	keystroke_n	n	n/a
398.635	0.075	797270	keystroke_d	d	n/a
398.725	0.0755	797450	keystroke_Key.space	Key.space	n/a
399.055	0.0605	798110	keystroke_s	s	n/a
399.1905	0.09	798381	keystroke_u	u	n/a
399.5505	0.09	799101	keystroke_p	p	n/a
399.7005	0.075	799401	keystroke_p	p	n/a
399.8805	0.075	799761	keystroke_l	l	n/a
400.015	0.061	800030	keystroke_e	e	n/a
400.1505	0.09	800301	keystroke_m	m	n/a
400.255	0.075	800510	keystroke_e	e	n/a
400.345	0.0755	800690	keystroke_n	n	n/a
400.4355	0.075	800871	keystroke_t	t	n/a
400.5255	0.0745	801051	keystroke_a	a	n/a
400.615	0.0755	801230	keystroke_l	l	n/a
400.7505	0.075	801501	keystroke_Key.space	Key.space	n/a
401.6655	0.075	803331	keystroke_u	u	n/a
401.8755	0.06	803751	keystroke_n	n	n/a
401.9505	0.09	803901	keystroke_i	i	n/a
402.461	0.074	804922	keystroke_p	p	n/a
402.565	0.076	805130	keystroke_r	r	n/a
402.686	0.059	805372	keystroke_o	o	n/a
402.805	0.0455	805610	keystroke_t	t	n/a
403.0905	0.0745	806181	keystroke_k	k	n/a
403.6595	0.06	807319	keystroke_Key.backspace	Key.backspace	n/a
404.5605	0.0445	809121	keystroke_k	k	n/a
404.905	0.0455	809810	keystroke_b	b	n/a
405.34	0.045	810680	keystroke_Key.space	Key.space	n/a
407.773	0.012	815546	keystroke_i	i	n/a
407.8005	0.0745	815601	keystroke_n	n	n/a
407.89	0.0605	815780	keystroke_v	v	n/a
407.9955	0.09	815991	keystroke_i	i	n/a
408.1005	0.0895	816201	keystroke_t	t	n/a
408.1605	0.1045	816321	keystroke_e	e	n/a
408.6105	0.0595	817221	keystroke_Key.enter	Key.enter	n/a
408.6765	6.9105	817353	prompt	n/a	tulsa harmful falls discipline\n
409.315	0.075	818630	keystroke_t	t	n/a
409.435	0.135	818870	keystroke_u	u	n/a
409.556	0.09	819112	keystroke_l	l	n/a
409.63	0.165	819260	keystroke_s	s	n/a
409.78	0.075	819560	keystroke_a	a	n/a
409.87	0.06	819740	keystroke_Key.space	Key.space	n/a
410.6955	0.075	821391	keystroke_h	h	n/a
410.8145	0.076	821629	keystroke_a	a	n/a
410.906	0.074	821812	keystroke_r	r	n/a
410.9645	0.106	821929	keystroke_m	m	n/a
411.101	0.0885	822202	keystroke_f	f	n/a
411.2355	0.09	822471	keystroke_u	u	n/a
411.3705	0.105	822741	keystroke_l	l	n/a
411.476	0.074	822952	keystroke_Key.space	Key.space	n/a
412.2855	0.105	824571	keystroke_f	f	n/a
412.3755	0.12	824751	keystroke_a	a	n/a
412.4805	0.045	824961	keystroke_l	l	n/a
412.6005	0.09	825201	keystroke_l	l	n/a
412.7055	0.075	825411	keystroke_s	s	n/a
412.8105	0.0745	825621	keystroke_Key.space	Key.space	n/a
413.26	0.06	826520	keystroke_d	d	n/a
413.635	0.1055	827270	keystroke_i	i	n/a
413.905	0.09	827810	keystroke_s	s	n/a
414.0555	0.06	828111	keystroke_c	c	n/a
414.2045	0.075	828409	keystroke_i	i	n/a
414.4005	0.075	828801	keystroke_p	p	n/a
414.6105	0.06	829221	keystroke_l	l	n/a
414.8055	0.075	829611	keystroke_i	i	n/a
414.8505	0.09	829701	keystroke_n	n	n/a
414.9255	0.075	829851	keystroke_e	e	n/a
415.4805	0.1045	830961	keystroke_Key.enter	Key.enter	n/a
415.5915	6.2235	831183	prompt	n/a	fraction delivered handles partner\n
416.1705	0.059	832341	keystroke_f	f	n/a
416.3055	0.075	832611	keystroke_r	r	n/a
416.4105	0.135	832821	keystroke_a	a	n/a
416.5145	0.076	833029	keystroke_c	c	n/a
416.6955	0.045	833391	keystroke_t	t	n/a
416.7555	0.165	833511	keystroke_i	i	n/a
416.7855	0.1205	833571	keystroke_o	o	n/a
416.815	0.1355	833630	keystroke_n	n	n/a
416.9355	0.06	833871	keystroke_Key.space	Key.space	n/a
417.6555	0.06	835311	keystroke_d	d	n/a
417.8505	0.0595	835701	keystroke_e	e	n/a
417.9555	0.045	835911	keystroke_l	l	n/a
418.075	0.0755	836150	keystroke_i	i	n/a
418.165	0.0605	836330	keystroke_v	v	n/a
418.256	0.1195	836512	keystroke_e	e	n/a
418.376	0.089	836752	keystroke_r	r	n/a
418.45	0.076	836900	keystroke_e	e	n/a
418.6	0.0905	837200	keystroke_d	d	n/a
418.6905	0.0295	837381	keystroke_Key.space	Key.space	n/a
419.395	0.076	838790	keystroke_h	h	n/a
419.4855	0.1045	838971	keystroke_a	a	n/a
419.591	0.074	839182	keystroke_n	n	n/a
419.666	0.074	839332	keystroke_d	d	n/a
419.77	0.0905	839540	keystroke_l	l	n/a
419.8755	0.105	839751	keystroke_e	e	n/a
419.9505	0.105	839901	keystroke_s	s	n/a
420.0695	0.075	840139	keystroke_Key.space	Key.space	n/a
420.7755	0.074	841551	keystroke_p	p	n/a
420.8355	0.075	841671	keystroke_a	a	n/a
420.911	0.0595	841822	keystroke_r	r	n/a
421.0745	0.0465	842149	keystroke_t	t	n/a
421.1355	0.074	842271	keystroke_n	n	n/a
421.2255	0.12	842451	keystroke_e	e	n/a
421.33	0.0605	842660	keystroke_r	r	n/a
421.7505	0.0595	843501	keystroke_Key.enter	Key.enter	n/a
421.8195	7.914	843639	prompt	n/a	platforms richards contact constant\n
422.5305	0.045	845061	keystroke_p	p	n/a
422.8755	0.045	845751	keystroke_l	l	n/a
423.0705	0.0745	846141	keystroke_a	a	n/a
423.205	0.076	846410	keystroke_t	t	n/a
423.43	0.06	846860	keystroke_f	f	n/a
423.5955	0.0745	847191	keystroke_o	o	n/a
423.716	0.0595	847432	keystroke_r	r	n/a
423.7905	0.09	847581	keystroke_m	m	n/a
423.925	0.0605	847850	keystroke_s	s	n/a
424.0745	0.076	848149	keystroke_Key.space	Key.space	n/a
424.8555	0.075	849711	keystroke_r	r	n/a
424.9455	0.0745	849891	keystroke_i	i	n/a
425.0355	0.0895	850071	keystroke_c	c	n/a
425.1405	0.0755	850281	keystroke_h	h	n/a
425.2455	0.135	850491	keystroke_a	a	n/a
425.366	0.1045	850732	keystroke_r	r	n/a
425.4405	0.165	850881	keystroke_d	d	n/a
425.5605	0.12	851121	keystroke_s	s	n/a
425.6505	0.06	851301	keystroke_Key.space	Key.space	n/a
426.4	0.0905	852800	keystroke_c	c	n/a
426.505	0.09	853010	keystroke_o	o	n/a
426.565	0.09	853130	keystroke_n	n	n/a
426.671	0.044	853342	keystroke_t	t	n/a
426.7755	0.135	853551	keystroke_a	a	n/a
426.865	0.075	853730	keystroke_c	c	n/a
427.046	0.059	854092	keystroke_t	t	n/a
427.1505	0.09	854301	keystroke_Key.space	Key.space	n/a
427.8255	0.075	855651	keystroke_c	c	n/a
427.915	0.106	855830	keystroke_o	o	n/a
428.006	0.089	856012	keystroke_n	n	n/a
428.065	0.12	856130	keystroke_s	s	n/a
428.2155	0.0455	856431	keystroke_t	t	n/a
428.4555	0.0605	856911	keystroke_a	a	n/a
428.56	0.075	857120	keystroke_n	n	n/a
428.68	0.06	857360	keystroke_t	t	n/a
429.6705	0.06	859341	keystroke_Key.enter	Key.enter	n/a
429.739	6.338	859478	prompt	n/a	broad download toddler seller\n
430.3905	0.075	860781	keystroke_b	b	n/a
430.4805	0.06	860961	keystroke_r	r	n/a
430.5705	0.0905	861141	keystroke_o	o	n/a
430.6455	0.1045	861291	keystroke_a	a	n/a
430.765	0.061	861530	keystroke_d	d	n/a
430.826	0.059	861652	keystroke_Key.space	Key.space	n/a
431.5005	0.09	863001	keystroke_d	d	n/a
431.7405	0.09	863481	keystroke_o	o	n/a
431.8905	0.075	863781	keystroke_w	w	n/a
431.9805	0.105	863961	keystroke_n	n	n/a
432.1605	0.105	864321	keystroke_l	l	n/a
432.3705	0.06	864741	keystroke_o	o	n/a
432.4605	0.09	864921	keystroke_a	a	n/a
432.536	0.0745	865072	keystroke_d	d	n/a
432.7155	0.06	865431	keystroke_Key.space	Key.space	n/a
433.436	0.044	866872	keystroke_t	t	n/a
433.5705	0.1055	867141	keystroke_o	o	n/a
433.75	0.0605	867500	keystroke_d	d	n/a
433.915	0.046	867830	keystroke_d	d	n/a
434.035	0.0905	868070	keystroke_l	l	n/a
434.17	0.1055	868340	keystroke_e	e	n/a
434.23	0.136	868460	keystroke_r	r	n/a
434.426	0.074	868852	keystroke_Key.space	Key.space	n/a
434.9205	0.045	869841	keystroke_s	s	n/a
435.0705	0.0455	870141	keystroke_e	e	n/a
435.1755	0.06	870351	keystroke_l	l	n/a
435.3105	0.075	870621	keystroke_l	l	n/a
435.3555	0.12	870711	keystroke_e	e	n/a
435.4455	0.074	870891	keystroke_r	r	n/a
436.0155	0.059	872031	keystroke_Key.enter	Key.enter	n/a
436.086	5.7355	872172	prompt	n/a	spam howto slight debug\n
436.8255	0.075	873651	keystroke_s	s	n/a
436.9605	0.06	873921	keystroke_p	p	n/a
437.0655	0.0895	874131	keystroke_a	a	n/a
437.2455	0.105	874491	keystroke_m	m	n/a
437.4705	0.06	874941	keystroke_Key.space	Key.space	n/a
438.3105	0.0745	876621	keystroke_h	h	n/a
438.4305	0.09	876861	keystroke_o	o	n/a
438.505	0.0605	877010	keystroke_w	w	n/a
438.641	0.0745	877282	keystroke_t	t	n/a
438.7305	0.06	877461	keystroke_o	o	n/a
438.8505	0.075	877701	keystroke_Key.space	Key.space	n/a
439.6905	0.075	879381	keystroke_s	s	n/a
439.7805	0.06	879561	keystroke_l	l	n/a
439.9005	0.12	879801	keystroke_i	i	n/a
439.9755	0.09	879951	keystroke_g	g	n/a
440.08	0.0905	880160	keystroke_h	h	n/a
440.1705	0.0755	880341	keystroke_t	t	n/a
440.2605	0.075	880521	keystroke_Key.space	Key.space	n/a
440.95	0.0455	881900	keystroke_d	d	n/a
441.1005	0.045	882201	keystroke_e	e	n/a
441.2205	0.075	882441	keystroke_b	b	n/a
441.3105	0.105	882621	keystroke_u	u	n/a
441.4155	0.0595	882831	keystroke_g	g	n/a
441.7605	0.06	883521	keystroke_Key.enter	Key.enter	n/a
441.825	9.777	883650	prompt	n/a	corresponding sometimes summary transparency\n
442.48	0.076	884960	keystroke_c	c	n/a
442.57	0.075	885140	keystroke_o	o	n/a
442.705	0.045	885410	keystroke_r	r	n/a
442.841	0.0745	885682	keystroke_r	r	n/a
442.8855	0.0745	885771	keystroke_e	e	n/a
443.005	0.105	886010	keystroke_s	s	n/a
443.2005	0.0745	886401	keystroke_p	p	n/a
443.65	0.106	887300	keystroke_o	o	n/a
443.831	0.089	887662	keystroke_n	n	n/a
443.921	0.059	887842	keystroke_d	d	n/a
444.0405	0.09	888081	keystroke_i	i	n/a
444.1	0.0755	888200	keystroke_n	n	n/a
444.1605	0.045	888321	keystroke_g	g	n/a
444.2805	0.0595	888561	keystroke_Key.space	Key.space	n/a
445.0455	0.075	890091	keystroke_s	s	n/a
445.135	0.1655	890270	keystroke_o	o	n/a
445.2555	0.1045	890511	keystroke_m	m	n/a
445.375	0.075	890750	keystroke_t	t	n/a
445.5105	0.1045	891021	keystroke_i	i	n/a
445.6	0.105	891200	keystroke_m	m	n/a
445.615	0.0605	891230	keystroke_e	e	n/a
446.0055	0.03	892011	keystroke_Key.backspace	Key.backspace	n/a
446.1245	0.06	892249	keystroke_Key.backspace	Key.backspace	n/a
446.2455	0.074	892491	keystroke_Key.backspace	Key.backspace	n/a
446.3955	0.09	892791	keystroke_Key.backspace	Key.backspace	n/a
446.5305	0.045	893061	keystroke_e	e	n/a
446.6655	0.0605	893331	keystroke_t	t	n/a
446.74	0.0905	893480	keystroke_i	i	n/a
446.8155	0.09	893631	keystroke_m	m	n/a
446.8605	0.12	893721	keystroke_e	e	n/a
446.936	0.1345	893872	keystroke_s	s	n/a
447.0855	0.0595	894171	keystroke_Key.space	Key.space	n/a
447.73	0.075	895460	keystroke_s	s	n/a
447.835	0.061	895670	keystroke_u	u	n/a
448	0.0755	896000	keystroke_m	m	n/a
448.1355	0.075	896271	keystroke_m	m	n/a
448.1955	0.12	896391	keystroke_a	a	n/a
448.2855	0.0755	896571	keystroke_r	r	n/a
448.3905	0.075	896781	keystroke_y	y	n/a
448.5105	0.075	897021	keystroke_Key.space	Key.space	n/a
449.1705	0.075	898341	keystroke_t	t	n/a
449.291	0.0445	898582	keystroke_r	r	n/a
449.3355	0.0895	898671	keystroke_a	a	n/a
449.38	0.09	898760	keystroke_n	n	n/a
449.545	0.0605	899090	keystroke_s	s	n/a
449.6505	0.075	899301	keystroke_p	p	n/a
449.7405	0.09	899481	keystroke_a	a	n/a
449.845	0.105	899690	keystroke_r	r	n/a
449.935	0.0905	899870	keystroke_e	e	n/a
450.0405	0.1045	900081	keystroke_n	n	n/a
450.19	0.076	900380	keystroke_c	c	n/a
450.385	0.045	900770	keystroke_y	y	n/a
451.5405	0.06	903081	keystroke_Key.enter	Key.enter	n/a
451.605	6.777	903210	prompt	n/a	about feeling ensure prominent\n
452.185	0.1055	904370	keystroke_a	a	n/a
452.365	0.0155	904730	keystroke_b	b	n/a
452.4555	0.12	904911	keystroke_o	o	n/a
452.5605	0.09	905121	keystroke_u	u	n/a
452.6205	0.165	905241	keystroke_t	t	n/a
452.8605	0.045	905721	keystroke_Key.space	Key.space	n/a
453.2055	0.06	906411	keystroke_f	f	n/a
453.4145	0.015	906829	keystroke_e	e	n/a
453.4895	0.076	906979	keystroke_e	e	n/a
453.596	0.1045	907192	keystroke_l	l	n/a
453.7755	0.105	907551	keystroke_i	i	n/a
453.8355	0.1045	907671	keystroke_n	n	n/a
453.955	0.0605	907910	keystroke_g	g	n/a
454.0455	0.075	908091	keystroke_Key.space	Key.space	n/a
454.6005	0.045	909201	keystroke_e	e	n/a
454.6905	0.075	909381	keystroke_n	n	n/a
454.8105	0.015	909621	keystroke_s	s	n/a
455.2755	0.075	910551	keystroke_u	u	n/a
455.3805	0.09	910761	keystroke_r	r	n/a
455.4405	0.1045	910881	keystroke_e	e	n/a
455.5605	0.045	911121	keystroke_Key.space	Key.space	n/a
456.265	0.0755	912530	keystroke_p	p	n/a
456.355	0.045	912710	keystroke_r	r	n/a
456.4755	0.12	912951	keystroke_o	o	n/a
456.58	0.076	913160	keystroke_m	m	n/a
457.0305	0.0745	914061	keystroke_i	i	n/a
457.135	0.09	914270	keystroke_n	n	n/a
457.285	0.06	914570	keystroke_e	e	n/a
457.36	0.06	914720	keystroke_n	n	n/a
457.4655	0.0595	914931	keystroke_t	t	n/a
458.3055	0.0745	916611	keystroke_Key.enter	Key.enter	n/a
458.387	9.1155	916774	prompt	n/a	airports possibility matches cold\n
459.01	0.105	918020	keystroke_a	a	n/a
459.145	0.075	918290	keystroke_i	i	n/a
459.34	0.046	918680	keystroke_r	r	n/a
459.73	0.0455	919460	keystroke_p	p	n/a
459.8955	0.075	919791	keystroke_o	o	n/a
459.956	0.0595	919912	keystroke_r	r	n/a
460.1205	0.045	920241	keystroke_t	t	n/a
460.225	0.09	920450	keystroke_s	s	n/a
460.36	0.03	920720	keystroke_Key.space	Key.space	n/a
461.02	0.0605	922040	keystroke_p	p	n/a
461.2455	0.0745	922491	keystroke_o	o	n/a
461.365	0.06	922730	keystroke_s	s	n/a
461.5605	0.0755	923121	keystroke_s	s	n/a
461.726	0.0445	923452	keystroke_s	s	n/a
461.845	0.15	923690	keystroke_i	i	n/a
462.2955	0.045	924591	keystroke_Key.backspace	Key.backspace	n/a
462.4155	0.09	924831	keystroke_Key.backspace	Key.backspace	n/a
462.685	0.1055	925370	keystroke_i	i	n/a
462.97	0.106	925940	keystroke_b	b	n/a
463.1505	0.12	926301	keystroke_i	i	n/a
463.345	0.1055	926690	keystroke_l	l	n/a
463.465	0.0755	926930	keystroke_i	i	n/a
463.585	0.0755	927170	keystroke_t	t	n/a
463.7205	0.12	927441	keystroke_y	y	n/a
464.3355	0.06	928671	keystroke_Key.space	Key.space	n/a
465.1305	0.09	930261	keystroke_m	m	n/a
465.191	0.089	930382	keystroke_a	a	n/a
465.295	0.0455	930590	keystroke_t	t	n/a
465.4605	0.075	930921	keystroke_c	c	n/a
465.505	0.0755	931010	keystroke_h	h	n/a
465.6105	0.105	931221	keystroke_e	e	n/a
465.6705	0.09	931341	keystroke_s	s	n/a
465.7745	0.061	931549	keystroke_Key.space	Key.space	n/a
466.6005	0.0895	933201	keystroke_c	c	n/a
466.72	0.045	933440	keystroke_o	o	n/a
466.8705	0.075	933741	keystroke_l	l	n/a
466.961	0.044	933922	keystroke_d	d	n/a
467.44	0.06	934880	keystroke_Key.enter	Key.enter	n/a
467.506	8.5165	935012	prompt	n/a	derived projected reserves conventional\n
468.3555	0.0605	936711	keystroke_d	d	n/a
468.5055	0.1205	937011	keystroke_e	e	n/a
468.6105	0.075	937221	keystroke_r	r	n/a
468.7455	0.0905	937491	keystroke_i	i	n/a
468.82	0.076	937640	keystroke_v	v	n/a
468.9105	0.0745	937821	keystroke_e	e	n/a
469.0755	0.09	938151	keystroke_d	d	n/a
469.18	0.045	938360	keystroke_Key.space	Key.space	n/a
469.945	0.075	939890	keystroke_p	p	n/a
470.021	0.0745	940042	keystroke_r	r	n/a
470.1555	0.165	940311	keystroke_o	o	n/a
470.2755	0.12	940551	keystroke_j	j	n/a
470.3505	0.105	940701	keystroke_e	e	n/a
470.4105	0.075	940821	keystroke_c	c	n/a
470.6505	0.075	941301	keystroke_t	t	n/a
470.7105	0.075	941421	keystroke_e	e	n/a
470.8605	0.075	941721	keystroke_d	d	n/a
470.9655	0.075	941931	keystroke_Key.space	Key.space	n/a
471.701	0.1045	943402	keystroke_e	e	n/a
471.821	0.0895	943642	keystroke_r	r	n/a
472.12	0.076	944240	keystroke_Key.backspace	Key.backspace	n/a
472.255	0.06	944510	keystroke_Key.backspace	Key.backspace	n/a
472.331	0.12	944662	keystroke_r	r	n/a
472.406	0.09	944812	keystroke_e	e	n/a
472.481	0.18	944962	keystroke_s	s	n/a
472.615	0.151	945230	keystroke_e	e	n/a
472.736	0.06	945472	keystroke_r	r	n/a
472.9	0.09	945800	keystroke_v	v	n/a
473.02	0.1505	946040	keystroke_e	e	n/a
473.126	0.105	946252	keystroke_s	s	n/a
473.2905	0.0445	946581	keystroke_Key.space	Key.space	n/a
473.935	0.0905	947870	keystroke_c	c	n/a
474.0405	0.1195	948081	keystroke_o	o	n/a
474.13	0.0755	948260	keystroke_n	n	n/a
474.206	0.0595	948412	keystroke_v	v	n/a
474.28	0.061	948560	keystroke_e	e	n/a
474.3705	0.0895	948741	keystroke_n	n	n/a
474.461	0.044	948922	keystroke_t	t	n/a
474.565	0.196	949130	keystroke_i	i	n/a
474.655	0.1205	949310	keystroke_o	o	n/a
474.7	0.105	949400	keystroke_n	n	n/a
474.79	0.06	949580	keystroke_a	a	n/a
474.8955	0.0745	949791	keystroke_l	l	n/a
475.96	0.06	951920	keystroke_Key.enter	Key.enter	n/a
476.0265	8.2455	952053	prompt	n/a	southeast pharmaceutical retailer funky\n
476.681	0.0595	953362	keystroke_s	s	n/a
476.996	0.0895	953992	keystroke_o	o	n/a
477.0405	0.09	954081	keystroke_u	u	n/a
477.1305	0.075	954261	keystroke_t	t	n/a
477.2505	0.075	954501	keystroke_h	h	n/a
477.3105	0.09	954621	keystroke_e	e	n/a
477.4305	0.105	954861	keystroke_a	a	n/a
477.4905	0.195	954981	keystroke_s	s	n/a
477.6255	0.105	955251	keystroke_t	t	n/a
477.7455	0.045	955491	keystroke_Key.space	Key.space	n/a
478.406	0.075	956812	keystroke_p	p	n/a
478.8255	0.045	957651	keystroke_h	h	n/a
478.8855	0.03	957771	keystroke_a	a	n/a
478.9005	0.06	957801	keystroke_r	r	n/a
479.0055	0.09	958011	keystroke_m	m	n/a
479.1855	0.09	958371	keystroke_a	a	n/a
479.7105	0.075	959421	keystroke_c	c	n/a
479.8605	0.06	959721	keystroke_e	e	n/a
479.9955	0.0745	959991	keystroke_u	u	n/a
480.13	0.105	960260	keystroke_t	t	n/a
480.265	0.0905	960530	keystroke_i	i	n/a
480.431	0.0895	960862	keystroke_c	c	n/a
480.4905	0.12	960981	keystroke_a	a	n/a
480.6255	0.06	961251	keystroke_l	l	n/a
480.8355	0.06	961671	keystroke_Key.space	Key.space	n/a
481.675	0.1055	963350	keystroke_r	r	n/a
481.75	0.0905	963500	keystroke_e	e	n/a
481.916	0.075	963832	keystroke_t	t	n/a
482.0055	0.075	964011	keystroke_a	a	n/a
482.0505	0.105	964101	keystroke_i	i	n/a
482.2155	0.09	964431	keystroke_l	l	n/a
482.2905	0.09	964581	keystroke_e	e	n/a
482.366	0.0745	964732	keystroke_r	r	n/a
482.4705	0.09	964941	keystroke_Key.space	Key.space	n/a
483.0255	0.09	966051	keystroke_f	f	n/a
483.1305	0.09	966261	keystroke_u	u	n/a
483.326	0.0895	966652	keystroke_n	n	n/a
483.4005	0.09	966801	keystroke_k	k	n/a
483.5505	0.075	967101	keystroke_y	y	n/a
484.2105	0.06	968421	keystroke_Key.enter	Key.enter	n/a
484.2755	6.2965	968551	prompt	n/a	actively additionally gold cruises\n
484.9455	0.18	969891	keystroke_a	a	n/a
485.0655	0.135	970131	keystroke_c	c	n/a
485.32	0.045	970640	keystroke_t	t	n/a
485.425	0.06	970850	keystroke_i	i	n/a
485.5	0.09	971000	keystroke_v	v	n/a
485.56	0.075	971120	keystroke_e	e	n/a
485.65	0.0905	971300	keystroke_l	l	n/a
485.815	0.075	971630	keystroke_y	y	n/a
485.936	0.059	971872	keystroke_Key.space	Key.space	n/a
486.4755	0.09	972951	keystroke_a	a	n/a
486.626	0.059	973252	keystroke_d	d	n/a
486.7455	0.075	973491	keystroke_d	d	n/a
486.835	0.075	973670	keystroke_i	i	n/a
486.955	0.06	973910	keystroke_t	t	n/a
487.0455	0.165	974091	keystroke_i	i	n/a
487.091	0.1045	974182	keystroke_o	o	n/a
487.15	0.1055	974300	keystroke_n	n	n/a
487.24	0.0755	974480	keystroke_a	a	n/a
487.33	0.075	974660	keystroke_l	l	n/a
487.4655	0.09	974931	keystroke_l	l	n/a
487.6455	0.0595	975291	keystroke_y	y	n/a
487.7505	0.0595	975501	keystroke_Key.space	Key.space	n/a
488.4555	0.06	976911	keystroke_g	g	n/a
488.5455	0.06	977091	keystroke_o	o	n/a
488.6805	0.0755	977361	keystroke_l	l	n/a
488.77	0.06	977540	keystroke_d	d	n/a
488.845	0.075	977690	keystroke_Key.space	Key.space	n/a
488.995	0.091	977990	keystroke_c	c	n/a
489.1905	0.06	978381	keystroke_r	r	n/a
489.265	0.076	978530	keystroke_u	u	n/a
489.3255	0.0755	978651	keystroke_i	i	n/a
489.401	0.1045	978802	keystroke_s	s	n/a
489.491	0.059	978982	keystroke_e	e	n/a
489.655	0.076	979310	keystroke_s	s	n/a
490.51	0.0605	981020	keystroke_Key.enter	Key.enter	n/a
490.5765	6.761	981153	prompt	n/a	blanket thin symantec batch\n
491.216	0.074	982432	keystroke_b	b	n/a
491.3955	0.0895	982791	keystroke_l	l	n/a
491.545	0.06	983090	keystroke_a	a	n/a
491.981	0.09	983962	keystroke_n	n	n/a
492.1	0.0755	984200	keystroke_k	k	n/a
492.176	0.1495	984352	keystroke_e	e	n/a
492.296	0.075	984592	keystroke_t	t	n/a
492.385	0.075	984770	keystroke_Key.space	Key.space	n/a
493.15	0.045	986300	keystroke_t	t	n/a
493.21	0.09	986420	keystroke_h	h	n/a
493.315	0.106	986630	keystroke_i	i	n/a
493.375	0.0905	986750	keystroke_n	n	n/a
493.51	0.0755	987020	keystroke_Key.space	Key.space	n/a
494.35	0.0905	988700	keystroke_s	s	n/a
494.4705	0.0755	988941	keystroke_y	y	n/a
494.6955	0.075	989391	keystroke_m	m	n/a
494.8155	0.0605	989631	keystroke_a	a	n/a
494.8905	0.06	989781	keystroke_n	n	n/a
495.2055	0.075	990411	keystroke_t	t	n/a
495.3105	0.0895	990621	keystroke_e	e	n/a
495.49	0.0605	990980	keystroke_c	c	n/a
495.5955	0.074	991191	keystroke_Key.space	Key.space	n/a
496.3305	0.06	992661	keystroke_b	b	n/a
496.3755	0.045	992751	keystroke_a	a	n/a
496.4055	0.03	992811	keystroke_t	t	n/a
496.556	0.0745	993112	keystroke_c	c	n/a
496.6755	0.06	993351	keystroke_h	h	n/a
497.275	0.0605	994550	keystroke_Key.enter	Key.enter	n/a
497.341	6.0865	994682	prompt	n/a	we're adds minimum heads\n
497.9805	0.135	995961	keystroke_w	w	n/a
498.1005	0.105	996201	keystroke_e	e	n/a
498.715	0.0605	997430	keystroke_'	'	n/a
498.7905	0.075	997581	keystroke_r	r	n/a
498.835	0.1055	997670	keystroke_e	e	n/a
498.955	0.045	997910	keystroke_Key.space	Key.space	n/a
499.496	0.1045	998992	keystroke_a	a	n/a
499.615	0.0455	999230	keystroke_d	d	n/a
499.7355	0.1355	999471	keystroke_d	d	n/a
499.855	0.1055	999710	keystroke_s	s	n/a
499.9615	0.074	999923	keystroke_Key.space	Key.space	n/a
500.6355	0.105	1001271	keystroke_m	m	n/a
500.8005	0.12	1001601	keystroke_i	i	n/a
500.9055	0.09	1001811	keystroke_n	n	n/a
501.0255	0.12	1002051	keystroke_i	i	n/a
501.2795	0.076	1002559	keystroke_m	m	n/a
501.4755	0.03	1002951	keystroke_u	u	n/a
501.5955	0.0745	1003191	keystroke_m	m	n/a
501.7455	0.0745	1003491	keystroke_Key.space	Key.space	n/a
502.5105	0.0755	1005021	keystroke_h	h	n/a
502.6005	0.06	1005201	keystroke_e	e	n/a
502.6755	0.12	1005351	keystroke_a	a	n/a
502.7655	0.105	1005531	keystroke_d	d	n/a
502.8405	0.105	1005681	keystroke_s	s	n/a
503.3505	0.075	1006701	keystroke_Key.enter	Key.enter	n/a
503.4325	8.935	1006865	prompt	n/a	lisa relatives trim simulations\n
504.1605	0.165	1008321	keystroke_l	l	n/a
504.34	0.0305	1008680	keystroke_i	i	n/a
504.356	0.0745	1008712	keystroke_s	s	n/a
504.415	0.1055	1008830	keystroke_a	a	n/a
504.535	0.06	1009070	keystroke_Key.space	Key.space	n/a
504.8955	0.0905	1009791	keystroke_r	r	n/a
504.9705	0.0905	1009941	keystroke_e	e	n/a
505.121	0.0895	1010242	keystroke_l	l	n/a
505.2555	0.1495	1010511	keystroke_a	a	n/a
505.3905	0.0595	1010781	keystroke_t	t	n/a
505.465	0.0605	1010930	keystroke_i	i	n/a
505.5855	0.075	1011171	keystroke_v	v	n/a
505.6455	0.1055	1011291	keystroke_e	e	n/a
505.8255	0.09	1011651	keystroke_s	s	n/a
505.96	0.0455	1011920	keystroke_Key.space	Key.space	n/a
506.5905	0.06	1013181	keystroke_t	t	n/a
506.6655	0.075	1013331	keystroke_h	h	n/a
507.0105	0.075	1014021	keystroke_Key.backspace	Key.backspace	n/a
507.236	0.0595	1014472	keystroke_r	r	n/a
507.3405	0.09	1014681	keystroke_i	i	n/a
507.4015	0.119	1014803	keystroke_m	m	n/a
507.5505	0.075	1015101	keystroke_Key.space	Key.space	n/a
508.225	0.075	1016450	keystroke_s	s	n/a
508.4205	0.0145	1016841	keystroke_8	8	n/a
508.465	0.0455	1016930	keystroke_i	i	n/a
508.8855	0.045	1017771	keystroke_Key.backspace	Key.backspace	n/a
509.0205	0.06	1018041	keystroke_Key.backspace	Key.backspace	n/a
509.2155	0.135	1018431	keystroke_i	i	n/a
509.3205	0.075	1018641	keystroke_n	n	n/a
509.546	0.0445	1019092	keystroke_u	u	n/a
509.86	0.0455	1019720	keystroke_Key.backspace	Key.backspace	n/a
509.9655	0.0745	1019931	keystroke_Key.backspace	Key.backspace	n/a
510.1455	0.0605	1020291	keystroke_m	m	n/a
510.4155	0.015	1020831	keystroke_u	u	n/a
510.4605	0.1045	1020921	keystroke_l	l	n/a
510.611	0.1185	1021222	keystroke_a	a	n/a
510.7005	0.0605	1021401	keystroke_t	t	n/a
510.806	0.1795	1021612	keystroke_i	i	n/a
510.851	0.1195	1021702	keystroke_o	o	n/a
510.925	0.1055	1021850	keystroke_n	n	n/a
511.045	0.0905	1022090	keystroke_s	s	n/a
512.3055	0.06	1024611	keystroke_Key.enter	Key.enter	n/a
512.3745	9.113	1024749	prompt	n/a	advised lakes bunny cause\n
512.9505	0.12	1025901	keystroke_a	a	n/a
513.085	0.0605	1026170	keystroke_d	d	n/a
513.2355	0.09	1026471	keystroke_v	v	n/a
513.3405	0.09	1026681	keystroke_i	i	n/a
513.4605	0.105	1026921	keystroke_s	s	n/a
513.5355	0.075	1027071	keystroke_e	e	n/a
513.6855	0.105	1027371	keystroke_d	d	n/a
513.8205	0.06	1027641	keystroke_Key.space	Key.space	n/a
514.571	0.0745	1029142	keystroke_l	l	n/a
514.9005	0.06	1029801	keystroke_Key.backspace	Key.backspace	n/a
515.5755	0.105	1031151	keystroke_l	l	n/a
515.7105	0.075	1031421	keystroke_a	a	n/a
515.8005	0.045	1031601	keystroke_e	e	n/a
515.8605	0.075	1031721	keystroke_k	k	n/a
516.3705	0.045	1032741	keystroke_Key.backspace	Key.backspace	n/a
516.4905	0.075	1032981	keystroke_Key.backspace	Key.backspace	n/a
516.6855	0.03	1033371	keystroke_i	i	n/a
516.716	0.1195	1033432	keystroke_e	e	n/a
516.7755	0.12	1033551	keystroke_s	s	n/a
516.8805	0.09	1033761	keystroke_Key.space	Key.space	n/a
517.2555	0.06	1034511	keystroke_Key.backspace	Key.backspace	n/a
517.3905	0.06	1034781	keystroke_Key.backspace	Key.backspace	n/a
517.5255	0.075	1035051	keystroke_Key.backspace	Key.backspace	n/a
517.6605	0.075	1035321	keystroke_Key.backspace	Key.backspace	n/a
517.8855	0.06	1035771	keystroke_k	k	n/a
517.9605	0.1055	1035921	keystroke_e	e	n/a
518.0505	0.1205	1036101	keystroke_s	s	n/a
518.2605	0.045	1036521	keystroke_Key.space	Key.space	n/a
519.0105	0.135	1038021	keystroke_b	b	n/a
519.1605	0.0895	1038321	keystroke_u	u	n/a
519.371	0.06	1038742	keystroke_n	n	n/a
519.49	0.061	1038980	keystroke_n	n	n/a
519.686	0.044	1039372	keystroke_y	y	n/a
519.775	0.075	1039550	keystroke_Key.space	Key.space	n/a
520.3755	0.1195	1040751	keystroke_c	c	n/a
520.4505	0.09	1040901	keystroke_a	a	n/a
520.57	0.075	1041140	keystroke_u	u	n/a
520.66	0.075	1041320	keystroke_s	s	n/a
520.69	0.1055	1041380	keystroke_e	e	n/a
521.44	0.0455	1042880	keystroke_Key.enter	Key.enter	n/a
521.4915	4.7955	1042983	prompt	n/a	adjacent seeing tear cole\n
522.0705	0.1045	1044141	keystroke_a	a	n/a
522.191	0.075	1044382	keystroke_d	d	n/a
522.28	0.076	1044560	keystroke_j	j	n/a
522.371	0.12	1044742	keystroke_a	a	n/a
522.4605	0.1205	1044921	keystroke_c	c	n/a
522.566	0.09	1045132	keystroke_e	e	n/a
522.67	0.076	1045340	keystroke_n	n	n/a
522.775	0.06	1045550	keystroke_t	t	n/a
522.865	0.06	1045730	keystroke_Key.space	Key.space	n/a
523.5855	0.06	1047171	keystroke_s	s	n/a
523.691	0.0595	1047382	keystroke_e	e	n/a
523.8255	0.09	1047651	keystroke_e	e	n/a
523.931	0.0895	1047862	keystroke_i	i	n/a
523.991	0.0895	1047982	keystroke_n	n	n/a
524.0505	0.0605	1048101	keystroke_g	g	n/a
524.1705	0.075	1048341	keystroke_Key.space	Key.space	n/a
524.3205	0.075	1048641	keystroke_t	t	n/a
524.381	0.1195	1048762	keystroke_e	e	n/a
524.4705	0.12	1048941	keystroke_a	a	n/a
524.5605	0.075	1049121	keystroke_r	r	n/a
524.6505	0.0895	1049301	keystroke_Key.space	Key.space	n/a
524.8005	0.075	1049601	keystroke_c	c	n/a
524.921	0.044	1049842	keystroke_o	o	n/a
525.056	0.075	1050112	keystroke_l	l	n/a
525.131	0.075	1050262	keystroke_e	e	n/a
526.2255	0.06	1052451	keystroke_Key.enter	Key.enter	n/a
526.2915	7.5115	1052583	prompt	n/a	issues exercises specialties trial\n
527.1255	0.06	1054251	keystroke_i	i	n/a
527.2455	0.0745	1054491	keystroke_s	s	n/a
527.426	0.0285	1054852	keystroke_s	s	n/a
527.4705	0.0755	1054941	keystroke_u	u	n/a
527.546	0.12	1055092	keystroke_e	e	n/a
527.636	0.09	1055272	keystroke_s	s	n/a
527.7405	0.0595	1055481	keystroke_Key.space	Key.space	n/a
528.4455	0.015	1056891	keystroke_e	e	n/a
528.5505	0.06	1057101	keystroke_x	x	n/a
528.6705	0.12	1057341	keystroke_e	e	n/a
528.7605	0.06	1057521	keystroke_r	r	n/a
528.9255	0.075	1057851	keystroke_c	c	n/a
529.0605	0.06	1058121	keystroke_i	i	n/a
529.1655	0.105	1058331	keystroke_s	s	n/a
529.2405	0.09	1058481	keystroke_e	e	n/a
529.4355	0.075	1058871	keystroke_s	s	n/a
529.5405	0.06	1059081	keystroke_Key.space	Key.space	n/a
530.2155	0.075	1060431	keystroke_s	s	n/a
530.3805	0.075	1060761	keystroke_p	p	n/a
530.4705	0.075	1060941	keystroke_e	e	n/a
530.605	0.09	1061210	keystroke_c	c	n/a
530.71	0.06	1061420	keystroke_i	i	n/a
530.785	0.075	1061570	keystroke_a	a	n/a
530.906	0.075	1061812	keystroke_l	l	n/a
531.115	0.06	1062230	keystroke_t	t	n/a
531.2655	0.09	1062531	keystroke_i	i	n/a
531.4005	0.135	1062801	keystroke_e	e	n/a
531.5205	0.12	1063041	keystroke_s	s	n/a
531.6255	0.06	1063251	keystroke_Key.space	Key.space	n/a
532.406	0.0595	1064812	keystroke_t	t	n/a
532.6305	0.015	1065261	keystroke_r	r	n/a
532.7055	0.0755	1065411	keystroke_i	i	n/a
532.8105	0.06	1065621	keystroke_a	a	n/a
532.9155	0.075	1065831	keystroke_l	l	n/a
533.7405	0.0605	1067481	keystroke_Key.enter	Key.enter	n/a
533.8065	7.3455	1067613	prompt	n/a	disposition story gage eagles\n
534.5655	0.0595	1069131	keystroke_d	d	n/a
534.685	0.09	1069370	keystroke_i	i	n/a
534.79	0.0905	1069580	keystroke_s	s	n/a
534.955	0.06	1069910	keystroke_p	p	n/a
535.165	0.0605	1070330	keystroke_o	o	n/a
535.8255	0.0455	1071651	keystroke_s	s	n/a
535.931	0.06	1071862	keystroke_i	i	n/a
536.051	0.0445	1072102	keystroke_t	t	n/a
536.155	0.195	1072310	keystroke_i	i	n/a
536.215	0.105	1072430	keystroke_o	o	n/a
536.26	0.12	1072520	keystroke_n	n	n/a
536.425	0.0755	1072850	keystroke_Key.space	Key.space	n/a
537.1455	0.075	1074291	keystroke_s	s	n/a
537.2955	0.075	1074591	keystroke_t	t	n/a
537.4005	0.06	1074801	keystroke_o	o	n/a
537.4755	0.0755	1074951	keystroke_r	r	n/a
537.5955	0.075	1075191	keystroke_y	y	n/a
537.7005	0.06	1075401	keystroke_Key.space	Key.space	n/a
538.585	0.061	1077170	keystroke_g	g	n/a
538.721	0.12	1077442	keystroke_a	a	n/a
538.825	0.105	1077650	keystroke_g	g	n/a
538.886	0.119	1077772	keystroke_e	e	n/a
538.975	0.0755	1077950	keystroke_Key.space	Key.space	n/a
539.7105	0.0605	1079421	keystroke_e	e	n/a
539.8305	0.105	1079661	keystroke_a	a	n/a
540.071	0.06	1080142	keystroke_g	g	n/a
540.2205	0.06	1080441	keystroke_l	l	n/a
540.296	0.1195	1080592	keystroke_e	e	n/a
540.3855	0.105	1080771	keystroke_s	s	n/a
541.06	0.0905	1082120	keystroke_Key.enter	Key.enter	n/a
541.157	8.2155	1082314	prompt	n/a	resources lock covering bedroom\n
541.916	0.104	1083832	keystroke_r	r	n/a
541.9755	0.1205	1083951	keystroke_e	e	n/a
542.066	0.105	1084132	keystroke_s	s	n/a
542.2005	0.0905	1084401	keystroke_o	o	n/a
542.2455	0.0755	1084491	keystroke_u	u	n/a
542.335	0.031	1084670	keystroke_r	r	n/a
542.4855	0.09	1084971	keystroke_c	c	n/a
542.5455	0.12	1085091	keystroke_e	e	n/a
542.6205	0.1055	1085241	keystroke_s	s	n/a
542.7105	0.075	1085421	keystroke_Key.space	Key.space	n/a
543.4455	0.075	1086891	keystroke_l	l	n/a
543.4605	0.045	1086921	keystroke_k	k	n/a
543.6405	0.075	1087281	keystroke_o	o	n/a
543.7455	0.06	1087491	keystroke_c	c	n/a
544.0605	0.03	1088121	keystroke_Key.backspace	Key.backspace	n/a
544.181	0.0745	1088362	keystroke_Key.backspace	Key.backspace	n/a
544.315	0.0755	1088630	keystroke_Key.backspace	Key.backspace	n/a
544.4355	0.06	1088871	keystroke_c	c	n/a
544.511	0.0745	1089022	keystroke_o	o	n/a
544.9305	0.0445	1089861	keystroke_Key.backspace	Key.backspace	n/a
545.0655	0.06	1090131	keystroke_Key.backspace	Key.backspace	n/a
545.2305	0.075	1090461	keystroke_o	o	n/a
545.3205	0.075	1090641	keystroke_c	c	n/a
545.4105	0.075	1090821	keystroke_k	k	n/a
545.5155	0.075	1091031	keystroke_Key.space	Key.space	n/a
546.3855	0.06	1092771	keystroke_c	c	n/a
546.4605	0.0605	1092921	keystroke_o	o	n/a
546.565	0.076	1093130	keystroke_v	v	n/a
546.6555	0.1345	1093311	keystroke_e	e	n/a
546.76	0.061	1093520	keystroke_r	r	n/a
546.85	0.09	1093700	keystroke_i	i	n/a
546.896	0.09	1093792	keystroke_n	n	n/a
546.97	0.075	1093940	keystroke_g	g	n/a
547.0905	0.06	1094181	keystroke_Key.space	Key.space	n/a
547.7955	0.06	1095591	keystroke_b	b	n/a
547.8405	0.045	1095681	keystroke_e	e	n/a
547.9755	0.0595	1095951	keystroke_d	d	n/a
548.0805	0.0595	1096161	keystroke_r	r	n/a
548.17	0.06	1096340	keystroke_o	o	n/a
548.305	0.12	1096610	keystroke_o	o	n/a
548.365	0.105	1096730	keystroke_m	m	n/a
549.3255	0.045	1098651	keystroke_Key.enter	Key.enter	n/a
549.3765	8.741	1098753	prompt	n/a	sunglasses crops fiji classroom\n
550.0755	0.075	1100151	keystroke_s	s	n/a
550.165	0.06	1100330	keystroke_u	u	n/a
550.331	0.0895	1100662	keystroke_n	n	n/a
550.4205	0.0605	1100841	keystroke_g	g	n/a
550.541	0.0445	1101082	keystroke_l	l	n/a
550.6005	0.0755	1101201	keystroke_a	a	n/a
550.7655	0.06	1101531	keystroke_s	s	n/a
550.886	0.0895	1101772	keystroke_s	s	n/a
550.976	0.105	1101952	keystroke_e	e	n/a
551.1105	0.091	1102221	keystroke_s	s	n/a
551.2155	0.06	1102431	keystroke_Key.space	Key.space	n/a
552.0705	0.045	1104141	keystroke_f	f	n/a
552.086	0.0145	1104172	keystroke_r	r	n/a
552.5055	0.045	1105011	keystroke_Key.backspace	Key.backspace	n/a
552.5655	0.015	1105131	keystroke_c	c	n/a
552.716	0.0595	1105432	keystroke_Key.backspace	Key.backspace	n/a
552.8505	0.075	1105701	keystroke_Key.backspace	Key.backspace	n/a
552.9405	0.075	1105881	keystroke_c	c	n/a
553.1355	0.045	1106271	keystroke_r	r	n/a
553.1955	0.0595	1106391	keystroke_o	o	n/a
553.3455	0.075	1106691	keystroke_p	p	n/a
553.4355	0.0755	1106871	keystroke_s	s	n/a
553.5705	0.075	1107141	keystroke_Key.space	Key.space	n/a
554.426	0.03	1108852	keystroke_f	f	n/a
554.501	0.075	1109002	keystroke_i	i	n/a
554.771	0.0895	1109542	keystroke_j	j	n/a
554.8755	0.09	1109751	keystroke_i	i	n/a
555.0105	0.09	1110021	keystroke_Key.space	Key.space	n/a
555.8655	0.0755	1111731	keystroke_c	c	n/a
555.9855	0.06	1111971	keystroke_l	l	n/a
556.1055	0.06	1112211	keystroke_a	a	n/a
556.2555	0.06	1112511	keystroke_s	s	n/a
556.4055	0.075	1112811	keystroke_s	s	n/a
556.6155	0.045	1113231	keystroke_r	r	n/a
556.691	0.0445	1113382	keystroke_o	o	n/a
556.811	0.1195	1113622	keystroke_o	o	n/a
556.8855	0.12	1113771	keystroke_m	m	n/a
558.04	0.076	1116080	keystroke_Key.enter	Key.enter	n/a
558.121	7.1815	1116242	prompt	n/a	scoop casting bubble speeches\n
558.8055	0.06	1117611	keystroke_s	s	n/a
559.0005	0.06	1118001	keystroke_c	c	n/a
559.106	0.0595	1118212	keystroke_o	o	n/a
559.2855	0.015	1118571	keystroke_o	o	n/a
559.7055	0.075	1119411	keystroke_p	p	n/a
559.8405	0.075	1119681	keystroke_Key.space	Key.space	n/a
560.44	0.121	1120880	keystroke_c	c	n/a
560.546	0.059	1121092	keystroke_a	a	n/a
560.561	0.195	1121122	keystroke_s	s	n/a
560.726	0.059	1121452	keystroke_t	t	n/a
560.816	0.09	1121632	keystroke_i	i	n/a
560.8605	0.0905	1121721	keystroke_n	n	n/a
560.936	0.059	1121872	keystroke_g	g	n/a
561.055	0.0605	1122110	keystroke_Key.space	Key.space	n/a
561.8055	0.12	1123611	keystroke_b	b	n/a
561.9555	0.09	1123911	keystroke_u	u	n/a
562.0905	0.075	1124181	keystroke_b	b	n/a
562.2555	0.06	1124511	keystroke_b	b	n/a
562.3605	0.105	1124721	keystroke_l	l	n/a
562.4805	0.075	1124961	keystroke_e	e	n/a
562.6005	0.06	1125201	keystroke_Key.space	Key.space	n/a
563.2605	0.075	1126521	keystroke_s	s	n/a
563.4105	0.09	1126821	keystroke_p	p	n/a
563.486	0.0595	1126972	keystroke_e	e	n/a
563.6355	0.09	1127271	keystroke_e	e	n/a
563.8005	0.09	1127601	keystroke_c	c	n/a
563.9055	0.0755	1127811	keystroke_h	h	n/a
563.9955	0.12	1127991	keystroke_e	e	n/a
564.0705	0.105	1128141	keystroke_s	s	n/a
565.2255	0.0745	1130451	keystroke_Key.enter	Key.enter	n/a
565.306	9.371	1130612	prompt	n/a	putting ground attribute background\n
566.2005	0.075	1132401	keystroke_p	p	n/a
566.3355	0.061	1132671	keystroke_u	u	n/a
566.4555	0.046	1132911	keystroke_t	t	n/a
566.5755	0.075	1133151	keystroke_t	t	n/a
