onset	duration	sample	value	key	prompt_text
7.1525	7.4005	14305	prompt	n/a	the quick brown fox jumps over a lazy dog\n
8.358	0.057	16716	keystroke	t	n/a
8.43	0.15	16860	keystroke	h	n/a
8.55	0.135	17100	keystroke	e	n/a
8.686	0.1495	17372	keystroke	Key.space	n/a
8.8655	0.12	17731	keystroke	q	n/a
8.9705	0.165	17941	keystroke	u	n/a
9.1205	0.135	18241	keystroke	i	n/a
9.3005	0.135	18601	keystroke	c	n/a
9.5555	0.165	19111	keystroke	k	n/a
9.6905	0.1495	19381	keystroke	Key.space	n/a
9.885	0.1355	19770	keystroke	b	n/a
10.0055	0.12	20011	keystroke	r	n/a
10.1555	0.12	20311	keystroke	o	n/a
10.2905	0.105	20581	keystroke	w	n/a
10.4105	0.105	20821	keystroke	n	n/a
10.5305	0.15	21061	keystroke	Key.space	n/a
10.6505	0.1205	21301	keystroke	f	n/a
10.786	0.179	21572	keystroke	o	n/a
10.935	0.18	21870	keystroke	x	n/a
11.07	0.12	22140	keystroke	Key.space	n/a
11.235	0.075	22470	keystroke	j	n/a
11.385	0.09	22770	keystroke	u	n/a
11.6255	0.075	23251	keystroke	m	n/a
11.8355	0.135	23671	keystroke	p	n/a
11.9555	0.105	23911	keystroke	s	n/a
12.0905	0.135	24181	keystroke	Key.space	n/a
12.2255	0.165	24451	keystroke	o	n/a
12.3455	0.105	24691	keystroke	v	n/a
12.5405	0.135	25081	keystroke	e	n/a
12.6605	0.12	25321	keystroke	r	n/a
12.7655	0.12	25531	keystroke	Key.space	n/a
12.9005	0.135	25801	keystroke	a	n/a
13.0205	0.105	26041	keystroke	Key.space	n/a
13.1555	0.165	26311	keystroke	l	n/a
13.2755	0.075	26551	keystroke	a	n/a
13.4855	0.075	26971	keystroke	z	n/a
13.7105	0.09	27421	keystroke	y	n/a
13.8155	0.12	27631	keystroke	Key.space	n/a
13.9505	0.15	27901	keystroke	d	n/a
14.0855	0.105	28171	keystroke	o	n/a
14.2655	0.12	28531	keystroke	g	n/a
14.4755	0.075	28951	keystroke	Key.enter	n/a
14.559	5.3335	29118	prompt	n/a	join nails guitars quality\n
15.2705	0.15	30541	keystroke	j	n/a
15.4505	0.12	30901	keystroke	o	n/a
15.5855	0.18	31171	keystroke	i	n/a
15.8705	0.21	31741	keystroke	n	n/a
16.0955	0.135	32191	keystroke	Key.space	n/a
16.2155	0.12	32431	keystroke	n	n/a
16.3655	0.12	32731	keystroke	a	n/a
16.4855	0.135	32971	keystroke	i	n/a
16.5755	0.165	33151	keystroke	l	n/a
16.7555	0.15	33511	keystroke	s	n/a
16.951	0.135	33902	keystroke	Key.space	n/a
17.266	0.12	34532	keystroke	g	n/a
17.416	0.1345	34832	keystroke	u	n/a
17.5055	0.165	35011	keystroke	i	n/a
17.6255	0.09	35251	keystroke	t	n/a
17.8355	0.135	35671	keystroke	a	n/a
17.9855	0.105	35971	keystroke	r	n/a
18.2255	0.135	36451	keystroke	s	n/a
18.4355	0.135	36871	keystroke	Key.space	n/a
18.7055	0.075	37411	keystroke	q	n/a
18.7955	0.1205	37591	keystroke	u	n/a
18.961	0.105	37922	keystroke	a	n/a
19.066	0.1945	38132	keystroke	l	n/a
19.2005	0.1655	38401	keystroke	i	n/a
19.306	0.089	38612	keystroke	t	n/a
19.515	0.091	39030	keystroke	y	n/a
19.83	0.061	39660	keystroke	Key.enter	n/a
19.8955	9.042	39791	prompt	n/a	relating plumbing near commonly\n
20.5205	0.12	41041	keystroke	r	n/a
20.6105	0.135	41221	keystroke	e	n/a
20.7605	0.105	41521	keystroke	l	n/a
20.8805	0.105	41761	keystroke	a	n/a
21.0455	0.09	42091	keystroke	t	n/a
21.1505	0.105	42301	keystroke	i	n/a
21.3305	0.105	42661	keystroke	v	n/a
22.0955	0.075	44191	keystroke	Key.backspace	n/a
22.4105	0.12	44821	keystroke	n	n/a
22.605	0.1055	45210	keystroke	g	n/a
23.0255	0.135	46051	keystroke	Key.space	n/a
23.3855	0.075	46771	keystroke	p	n/a
23.6255	0.075	47251	keystroke	l	n/a
23.8205	0.09	47641	keystroke	u	n/a
24.195	0.105	48390	keystroke	b	n/a
24.705	0.0755	49410	keystroke	Key.backspace	n/a
25.0355	0.06	50071	keystroke	m	n/a
25.1555	0.105	50311	keystroke	b	n/a
25.3955	0.105	50791	keystroke	i	n/a
25.5155	0.165	51031	keystroke	n	n/a
25.7105	0.105	51421	keystroke	g	n/a
25.8455	0.135	51691	keystroke	Key.space	n/a
26.1305	0.135	52261	keystroke	n	n/a
26.2205	0.09	52441	keystroke	e	n/a
26.4605	0.135	52921	keystroke	a	n/a
26.5205	0.135	53041	keystroke	r	n/a
26.6855	0.135	53371	keystroke	Key.space	n/a
26.881	0.1495	53762	keystroke	c	n/a
26.9705	0.12	53941	keystroke	o	n/a
27.1055	0.09	54211	keystroke	m	n/a
27.2855	0.09	54571	keystroke	m	n/a
27.4055	0.1495	54811	keystroke	o	n/a
27.525	0.1055	55050	keystroke	n	n/a
27.7355	0.12	55471	keystroke	l	n/a
27.8705	0.045	55741	keystroke	u	n/a
28.4405	0.09	56881	keystroke	Key.backspace	n/a
28.6205	0.075	57241	keystroke	y	n/a
28.875	0.0605	57750	keystroke	Key.enter	n/a
28.9435	5.7985	57887	prompt	n/a	indicate theme charger optimize\n
29.49	0.106	58980	keystroke	i	n/a
29.655	0.121	59310	keystroke	n	n/a
29.79	0.1505	59580	keystroke	d	n/a
29.9415	0.074	59883	keystroke	i	n/a
30.0755	0.105	60151	keystroke	c	n/a
30.1955	0.105	60391	keystroke	a	n/a
30.4505	0.09	60901	keystroke	t	n/a
30.4955	0.165	60991	keystroke	e	n/a
30.6905	0.105	61381	keystroke	Key.space	n/a
30.8105	0.09	61621	keystroke	t	n/a
30.9155	0.12	61831	keystroke	h	n/a
31.0655	0.06	62131	keystroke	e	n/a
31.2305	0.105	62461	keystroke	m	n/a
31.3365	0.119	62673	keystroke	e	n/a
31.5005	0.15	63001	keystroke	Key.space	n/a
31.8605	0.1205	63721	keystroke	c	n/a
31.996	0.12	63992	keystroke	h	n/a
32.101	0.165	64202	keystroke	a	n/a
32.206	0.09	64412	keystroke	r	n/a
32.446	0.09	64892	keystroke	g	n/a
32.581	0.195	65162	keystroke	e	n/a
32.716	0.135	65432	keystroke	r	n/a
32.866	0.12	65732	keystroke	Key.space	n/a
33.061	0.09	66122	keystroke	o	n/a
33.316	0.105	66632	keystroke	p	n/a
33.496	0.105	66992	keystroke	t	n/a
33.646	0.105	67292	keystroke	i	n/a
33.886	0.15	67772	keystroke	m	n/a
33.991	0.12	67982	keystroke	i	n/a
34.126	0.105	68252	keystroke	z	n/a
34.396	0.09	68792	keystroke	e	n/a
34.666	0.075	69332	keystroke	Key.enter	n/a
34.746	6.6265	69492	prompt	n/a	reviewed peru unlikely bernard\n
35.3705	0.12	70741	keystroke	r	n/a
35.4605	0.135	70921	keystroke	e	n/a
35.7455	0.105	71491	keystroke	v	n/a
35.8355	0.105	71671	keystroke	i	n/a
36.0305	0.195	72061	keystroke	e	n/a
36.1805	0.12	72361	keystroke	w	n/a
36.3905	0.09	72781	keystroke	e	n/a
36.615	0.105	73230	keystroke	d	n/a
36.75	0.1205	73500	keystroke	Key.space	n/a
36.9005	0.15	73801	keystroke	p	n/a
37.0055	0.195	74011	keystroke	e	n/a
37.1255	0.165	74251	keystroke	r	n/a
37.3505	0.1505	74701	keystroke	u	n/a
37.561	0.135	75122	keystroke	Key.space	n/a
37.831	0.09	75662	keystroke	u	n/a
37.951	0.18	75902	keystroke	n	n/a
38.236	0.195	76472	keystroke	l	n/a
38.371	0.12	76742	keystroke	i	n/a
38.611	0.12	77222	keystroke	k	n/a
38.701	0.12	77402	keystroke	e	n/a
38.881	0.15	77762	keystroke	l	n/a
39.046	0.105	78092	keystroke	y	n/a
39.2855	0.12	78571	keystroke	Key.space	n/a
39.5855	0.12	79171	keystroke	b	n/a
39.6455	0.105	79291	keystroke	e	n/a
40.2455	0.105	80491	keystroke	r	n/a
40.5005	0.1345	81001	keystroke	n	n/a
40.696	0.075	81392	keystroke	a	n/a
40.8305	0.105	81661	keystroke	r	n/a
41.0705	0.12	82141	keystroke	d	n/a
41.3105	0.06	82621	keystroke	Key.enter	n/a
41.3755	4.902	82751	prompt	n/a	produced card buyer would\n
42.0305	0.09	84061	keystroke	p	n/a
42.1355	0.105	84271	keystroke	r	n/a
42.2255	0.12	84451	keystroke	o	n/a
42.3605	0.135	84721	keystroke	d	n/a
42.5105	0.105	85021	keystroke	u	n/a
42.5855	0.135	85171	keystroke	c	n/a
42.8405	0.105	85681	keystroke	e	n/a
43.0505	0.105	86101	keystroke	d	n/a
43.1855	0.135	86371	keystroke	Key.space	n/a
43.4855	0.12	86971	keystroke	c	n/a
43.6205	0.135	87241	keystroke	a	n/a
43.8305	0.105	87661	keystroke	r	n/a
44.1755	0.12	88351	keystroke	d	n/a
44.3705	0.12	88741	keystroke	Key.space	n/a
44.5655	0.1205	89131	keystroke	b	n/a
44.716	0.135	89432	keystroke	u	n/a
44.851	0.09	89702	keystroke	y	n/a
45.076	0.15	90152	keystroke	e	n/a
45.181	0.15	90362	keystroke	r	n/a
45.346	0.105	90692	keystroke	Key.space	n/a
45.466	0.12	90932	keystroke	w	n/a
45.556	0.135	91112	keystroke	o	n/a
45.646	0.09	91292	keystroke	u	n/a
45.871	0.105	91742	keystroke	l	n/a
45.946	0.12	91892	keystroke	d	n/a
46.201	0.075	92402	keystroke	Key.enter	n/a
46.2805	7.648	92561	prompt	n/a	drunk extraordinary omaha harvey\n
46.9205	0.12	93841	keystroke	d	n/a
47.1755	0.15	94351	keystroke	r	n/a
47.3855	0.075	94771	keystroke	u	n/a
47.5505	0.18	95101	keystroke	n	n/a
47.6855	0.15	95371	keystroke	k	n/a
47.8505	0.105	95701	keystroke	Key.space	n/a
48.1955	0.0755	96391	keystroke	e	n/a
48.436	0.075	96872	keystroke	x	n/a
48.646	0.09	97292	keystroke	t	n/a
48.841	0.135	97682	keystroke	r	n/a
49.171	0.12	98342	keystroke	a	n/a
49.366	0.105	98732	keystroke	o	n/a
49.681	0.104	99362	keystroke	r	n/a
49.905	0.136	99810	keystroke	d	n/a
50.056	0.12	100112	keystroke	i	n/a
50.146	0.164	100292	keystroke	n	n/a
50.341	0.135	100682	keystroke	a	n/a
50.551	0.09	101102	keystroke	r	n/a
50.806	0.0895	101612	keystroke	y	n/a
50.9405	0.1345	101881	keystroke	Key.space	n/a
51.136	0.09	102272	keystroke	o	n/a
51.405	0.09	102810	keystroke	m	n/a
51.736	0.105	103472	keystroke	a	n/a
51.826	0.15	103652	keystroke	h	n/a
52.006	0.105	104012	keystroke	a	n/a
52.291	0.135	104582	keystroke	Key.space	n/a
52.651	0.12	105302	keystroke	h	n/a
52.816	0.12	105632	keystroke	a	n/a
52.891	0.105	105782	keystroke	r	n/a
53.176	0.09	106352	keystroke	v	n/a
53.311	0.105	106622	keystroke	e	n/a
53.536	0.105	107072	keystroke	y	n/a
53.851	0.075	107702	keystroke	Key.enter	n/a
53.941	9.8115	107882	prompt	n/a	tripadvisor specials grow from\n
54.661	0.09	109322	keystroke	t	n/a
54.886	0.12	109772	keystroke	r	n/a
54.991	0.09	109982	keystroke	i	n/a
55.216	0.1195	110432	keystroke	p	n/a
55.3505	0.165	110701	keystroke	a	n/a
55.4855	0.105	110971	keystroke	d	n/a
55.7405	0.12	111481	keystroke	v	n/a
55.8455	0.105	111691	keystroke	i	n/a
57.1355	0.12	114271	keystroke	s	n/a
57.3755	0.135	114751	keystroke	o	n/a
57.4955	0.105	114991	keystroke	r	n/a
57.7955	0.12	115591	keystroke	Key.space	n/a
58.0955	0.12	116191	keystroke	s	n/a
58.2005	0.105	116401	keystroke	p	n/a
58.3505	0.09	116701	keystroke	e	n/a
58.7555	0.09	117511	keystroke	Key.backspace	n/a
58.9505	0.06	117901	keystroke	Key.backspace	n/a
59.1755	0.075	118351	keystroke	e	n/a
59.5955	0.09	119191	keystroke	Key.backspace	n/a
59.9705	0.15	119941	keystroke	p	n/a
60.1655	0.06	120331	keystroke	e	n/a
60.3905	0.12	120781	keystroke	c	n/a
60.4955	0.105	120991	keystroke	i	n/a
60.6155	0.15	121231	keystroke	a	n/a
61.0205	0.12	122041	keystroke	l	n/a
61.3505	0.12	122701	keystroke	s	n/a
61.7855	0.075	123571	keystroke	Key.space	n/a
62.1155	0.075	124231	keystroke	g	n/a
62.3705	0.105	124741	keystroke	r	n/a
62.5505	0.15	125101	keystroke	o	n/a
62.6855	0.135	125371	keystroke	w	n/a
62.8805	0.135	125761	keystroke	Key.space	n/a
63.0165	0.074	126033	keystroke	f	n/a
63.2105	0.106	126421	keystroke	r	n/a
63.2855	0.15	126571	keystroke	o	n/a
63.3755	0.135	126751	keystroke	m	n/a
63.6755	0.075	127351	keystroke	Key.enter	n/a
63.7635	5.7635	127527	prompt	n/a	frank indeed petite conf\n
64.2455	0.075	128491	keystroke	t	n/a
64.5455	0.09	129091	keystroke	Key.backspace	n/a
64.6205	0.075	129241	keystroke	f	n/a
64.8305	0.075	129661	keystroke	r	n/a
64.9655	0.15	129931	keystroke	a	n/a
65.0855	0.105	130171	keystroke	n	n/a
65.2055	0.15	130411	keystroke	k	n/a
65.3855	0.12	130771	keystroke	Key.space	n/a
65.6555	0.09	131311	keystroke	i	n/a
65.8055	0.135	131611	keystroke	n	n/a
65.9705	0.12	131941	keystroke	d	n/a
66.2105	0.075	132421	keystroke	e	n/a
66.3905	0.06	132781	keystroke	e	n/a
66.5855	0.12	133171	keystroke	d	n/a
66.6905	0.105	133381	keystroke	Key.space	n/a
66.8705	0.15	133741	keystroke	p	n/a
66.9455	0.06	133891	keystroke	e	n/a
67.6205	0.09	135241	keystroke	t	n/a
67.8005	0.1055	135601	keystroke	i	n/a
67.921	0.105	135842	keystroke	t	n/a
68.281	0.105	136562	keystroke	e	n/a
68.491	0.12	136982	keystroke	Key.space	n/a
68.776	0.105	137552	keystroke	c	n/a
68.896	0.1945	137792	keystroke	o	n/a
69.0755	0.12	138151	keystroke	n	n/a
69.2255	0.105	138451	keystroke	f	n/a
69.4655	0.06	138931	keystroke	Key.enter	n/a
69.532	6.2505	139064	prompt	n/a	structure attending pursuit flood\n
70.1705	0.09	140341	keystroke	s	n/a
70.3355	0.09	140671	keystroke	t	n/a
70.5605	0.075	141121	keystroke	r	n/a
70.6205	0.09	141241	keystroke	u	n/a
70.8165	0.12	141633	keystroke	c	n/a
71.0865	0.09	142173	keystroke	t	n/a
71.2065	0.135	142413	keystroke	u	n/a
71.3565	0.135	142713	keystroke	r	n/a
71.4615	0.135	142923	keystroke	e	n/a
71.5815	0.135	143163	keystroke	Key.space	n/a
71.7465	0.105	143493	keystroke	a	n/a
71.9265	0.075	143853	keystroke	t	n/a
72.1205	0.076	144241	keystroke	t	n/a
72.3015	0.09	144603	keystroke	e	n/a
72.4215	0.104	144843	keystroke	n	n/a
72.5405	0.106	145081	keystroke	d	n/a
72.6905	0.15	145381	keystroke	i	n/a
72.8105	0.165	145621	keystroke	n	n/a
73.0205	0.12	146041	keystroke	g	n/a
73.2305	0.1055	146461	keystroke	Key.space	n/a
73.3955	0.15	146791	keystroke	p	n/a
73.6655	0.105	147331	keystroke	u	n/a
73.7555	0.09	147511	keystroke	r	n/a
73.9955	0.135	147991	keystroke	s	n/a
74.0855	0.135	148171	keystroke	u	n/a
74.1905	0.18	148381	keystroke	i	n/a
74.3255	0.105	148651	keystroke	t	n/a
74.4605	0.105	148921	keystroke	Key.space	n/a
74.6555	0.075	149311	keystroke	f	n/a
74.7155	0.105	149431	keystroke	l	n/a
75.1055	0.105	150211	keystroke	o	n/a
75.2855	0.09	150571	keystroke	o	n/a
75.4505	0.135	150901	keystroke	d	n/a
75.7505	0.03	151501	keystroke	Key.enter	n/a
75.785	7.978	151570	prompt	n/a	party chancellor inquiry counter\n
76.396	0.135	152792	keystroke	p	n/a
76.486	0.165	152972	keystroke	a	n/a
76.576	0.105	153152	keystroke	r	n/a
76.831	0.075	153662	keystroke	t	n/a
77.041	0.075	154082	keystroke	y	n/a
77.236	0.105	154472	keystroke	Key.space	n/a
77.416	0.105	154832	keystroke	c	n/a
77.536	0.09	155072	keystroke	h	n/a
77.656	0.135	155312	keystroke	a	n/a
77.806	0.12	155612	keystroke	n	n/a
78.001	0.12	156002	keystroke	c	n/a
78.181	0.105	156362	keystroke	e	n/a
78.301	0.075	156602	keystroke	l	n/a
78.481	0.06	156962	keystroke	l	n/a
78.586	0.135	157172	keystroke	o	n/a
78.706	0.12	157412	keystroke	r	n/a
78.99	0.076	157980	keystroke	Key.space	n/a
79.201	0.12	158402	keystroke	i	n/a
79.336	0.12	158672	keystroke	n	n/a
79.891	0.105	159782	keystroke	w	n/a
80.086	0.1495	160172	keystroke	u	n/a
80.5055	0.075	161011	keystroke	Key.backspace	n/a
80.6555	0.09	161311	keystroke	Key.backspace	n/a
80.7605	0.0905	161521	keystroke	q	n/a
80.956	0.15	161912	keystroke	u	n/a
81.286	0.135	162572	keystroke	i	n/a
81.646	0.06	163292	keystroke	a	n/a
81.961	0.105	163922	keystroke	Key.backspace	n/a
82.051	0.09	164102	keystroke	r	n/a
82.276	0.105	164552	keystroke	y	n/a
82.441	0.105	164882	keystroke	Key.space	n/a
82.711	0.12	165422	keystroke	c	n/a
82.801	0.105	165602	keystroke	o	n/a
82.876	0.21	165752	keystroke	u	n/a
83.011	0.1645	166022	keystroke	n	n/a
83.116	0.075	166232	keystroke	t	n/a
83.326	0.165	166652	keystroke	e	n/a
83.431	0.135	166862	keystroke	r	n/a
83.671	0.09	167342	keystroke	Key.enter	n/a
83.775	8.013	167550	prompt	n/a	gratis vietnamese sheets strengthen\n
84.481	0.105	168962	keystroke	g	n/a
84.721	0.09	169442	keystroke	r	n/a
84.871	0.18	169742	keystroke	a	n/a
85.066	0.105	170132	keystroke	t	n/a
85.156	0.15	170312	keystroke	i	n/a
85.321	0.15	170642	keystroke	s	n/a
85.486	0.135	170972	keystroke	Key.space	n/a
85.651	0.12	171302	keystroke	v	n/a
85.861	0.09	171722	keystroke	e	n/a
86.236	0.075	172472	keystroke	Key.backspace	n/a
86.491	0.135	172982	keystroke	i	n/a
86.61	0.106	173220	keystroke	e	n/a
86.926	0.105	173852	keystroke	t	n/a
87.27	0.106	174540	keystroke	n	n/a
87.42	0.106	174840	keystroke	a	n/a
87.511	0.134	175022	keystroke	m	n/a
87.811	0.21	175622	keystroke	e	n/a
88.005	0.241	176010	keystroke	s	n/a
88.186	0.089	176372	keystroke	e	n/a
88.4105	0.105	176821	keystroke	Key.space	n/a
88.5605	0.12	177121	keystroke	s	n/a
88.6965	0.104	177393	keystroke	h	n/a
88.8305	0.091	177661	keystroke	e	n/a
89.0105	0.09	178021	keystroke	e	n/a
89.2055	0.105	178411	keystroke	t	n/a
89.4455	0.12	178891	keystroke	s	n/a
89.6255	0.15	179251	keystroke	Key.space	n/a
89.8205	0.12	179641	keystroke	s	n/a
90.121	0.074	180242	keystroke	t	n/a
90.316	0.105	180632	keystroke	r	n/a
90.511	0.12	181022	keystroke	e	n/a
90.676	0.12	181352	keystroke	n	n/a
90.811	0.105	181622	keystroke	g	n/a
91.035	0.091	182070	keystroke	t	n/a
91.141	0.105	182282	keystroke	h	n/a
91.246	0.105	182492	keystroke	e	n/a
91.426	0.09	182852	keystroke	n	n/a
91.711	0.075	183422	keystroke	Key.enter	n/a
91.798	6.469	183596	prompt	n/a	easier thanks wanted mechanism\n
92.386	0.0895	184772	keystroke	e	n/a
92.6105	0.12	185221	keystroke	a	n/a
92.8505	0.075	185701	keystroke	s	n/a
92.9105	0.135	185821	keystroke	i	n/a
93.136	0.164	186272	keystroke	e	n/a
93.211	0.119	186422	keystroke	r	n/a
93.36	0.12	186720	keystroke	Key.space	n/a
93.466	0.1045	186932	keystroke	t	n/a
93.691	0.09	187382	keystroke	a	n/a
94.0505	0.09	188101	keystroke	Key.backspace	n/a
94.3205	0.106	188641	keystroke	h	n/a
94.4705	0.12	188941	keystroke	a	n/a
94.5755	0.12	189151	keystroke	n	n/a
94.6505	0.181	189301	keystroke	k	n/a
94.8165	0.119	189633	keystroke	s	n/a
94.9365	0.119	189873	keystroke	Key.space	n/a
95.1005	0.135	190201	keystroke	w	n/a
95.2655	0.12	190531	keystroke	a	n/a
95.4005	0.12	190801	keystroke	n	n/a
95.5065	0.104	191013	keystroke	t	n/a
95.7005	0.075	191401	keystroke	e	n/a
95.9255	0.09	191851	keystroke	d	n/a
96.0305	0.09	192061	keystroke	Key.space	n/a
96.1805	0.18	192361	keystroke	m	n/a
96.5405	0.09	193081	keystroke	e	n/a
96.8255	0.12	193651	keystroke	c	n/a
97.0055	0.135	194011	keystroke	h	n/a
97.2155	0.105	194431	keystroke	a	n/a
97.3055	0.12	194611	keystroke	n	n/a
97.5155	0.12	195031	keystroke	i	n/a
97.6505	0.105	195301	keystroke	s	n/a
97.8755	0.105	195751	keystroke	m	n/a
98.2055	0.06	196411	keystroke	Key.enter	n/a
98.271	6.566	196542	prompt	n/a	bass armed annual starsmerchant\n
98.8665	0.104	197733	keystroke	b	n/a
98.9405	0.106	197881	keystroke	a	n/a
99.1515	0.074	198303	keystroke	s	n/a
99.3305	0.076	198661	keystroke	s	n/a
99.4655	0.12	198931	keystroke	Key.space	n/a
99.5715	0.164	199143	keystroke	a	n/a
99.7665	0.104	199533	keystroke	r	n/a
99.9155	0.12	199831	keystroke	m	n/a
100.0515	0.089	200103	keystroke	e	n/a
100.2455	0.1355	200491	keystroke	d	n/a
100.411	0.12	200822	keystroke	Key.space	n/a
100.546	0.135	201092	keystroke	a	n/a
100.696	0.075	201392	keystroke	n	n/a
100.8605	0.135	201721	keystroke	n	n/a
100.9965	0.104	201993	keystroke	u	n/a
101.1305	0.165	202261	keystroke	a	n/a
101.2805	0.15	202561	keystroke	l	n/a
101.5055	0.12	203011	keystroke	Key.space	n/a
101.7755	0.09	203551	keystroke	s	n/a
101.9555	0.09	203911	keystroke	t	n/a
102.2255	0.105	204451	keystroke	a	n/a
102.5405	0.105	205081	keystroke	r	n/a
102.8255	0.12	205651	keystroke	s	n/a
103.0655	0.12	206131	keystroke	m	n/a
103.2305	0.105	206461	keystroke	e	n/a
103.4705	0.105	206941	keystroke	r	n/a
103.7405	0.135	207481	keystroke	c	n/a
103.8305	0.105	207661	keystroke	h	n/a
103.9805	0.12	207961	keystroke	a	n/a
104.0855	0.105	208171	keystroke	n	n/a
104.2655	0.12	208531	keystroke	t	n/a
104.761	0.0755	209522	keystroke	Key.enter	n/a
104.8405	5.952	209681	prompt	n/a	funded rescue chronic donna\n
105.466	0.12	210932	keystroke	f	n/a
105.706	0.105	211412	keystroke	u	n/a
105.796	0.15	211592	keystroke	n	n/a
106.036	0.0745	212072	keystroke	e	n/a
106.4855	0.09	212971	keystroke	Key.backspace	n/a
106.5605	0.105	213121	keystroke	d	n/a
106.8155	0.06	213631	keystroke	e	n/a
107.0105	0.09	214021	keystroke	d	n/a
107.1305	0.15	214261	keystroke	Key.space	n/a
107.2955	0.105	214591	keystroke	r	n/a
107.3705	0.195	214741	keystroke	e	n/a
107.5355	0.135	215071	keystroke	s	n/a
107.9705	0.12	215941	keystroke	c	n/a
108.1055	0.105	216211	keystroke	u	n/a
108.3005	0.105	216601	keystroke	e	n/a
108.4805	0.135	216961	keystroke	Key.space	n/a
108.7805	0.12	217561	keystroke	c	n/a
108.9155	0.09	217831	keystroke	h	n/a
109.0655	0.105	218131	keystroke	r	n/a
109.2605	0.105	218521	keystroke	o	n/a
109.3505	0.165	218701	keystroke	n	n/a
109.4855	0.135	218971	keystroke	i	n/a
109.6805	0.12	219361	keystroke	c	n/a
109.8155	0.105	219631	keystroke	Key.space	n/a
109.9505	0.15	219901	keystroke	d	n/a
110.0555	0.1505	220111	keystroke	o	n/a
110.176	0.09	220352	keystroke	n	n/a
110.341	0.09	220682	keystroke	n	n/a
110.476	0.12	220952	keystroke	a	n/a
110.716	0.075	221432	keystroke	Key.enter	n/a
110.796	6.132	221592	prompt	n/a	robert talked actors surfaces\n
111.451	0.1045	222902	keystroke	r	n/a
111.5255	0.09	223051	keystroke	o	n/a
111.7055	0.1205	223411	keystroke	b	n/a
111.856	0.135	223712	keystroke	e	n/a
111.961	0.105	223922	keystroke	r	n/a
112.216	0.105	224432	keystroke	t	n/a
112.5465	0.104	225093	keystroke	Key.space	n/a
112.6805	0.075	225361	keystroke	t	n/a
112.8755	0.135	225751	keystroke	a	n/a
113.0115	0.12	226023	keystroke	l	n/a
113.1605	0.1355	226321	keystroke	k	n/a
113.311	0.09	226622	keystroke	e	n/a
113.536	0.135	227072	keystroke	d	n/a
113.686	0.12	227372	keystroke	Key.space	n/a
113.821	0.105	227642	keystroke	a	n/a
114.046	0.105	228092	keystroke	c	n/a
114.286	0.09	228572	keystroke	t	n/a
114.421	0.135	228842	keystroke	o	n/a
114.526	0.12	229052	keystroke	r	n/a
114.796	0.135	229592	keystroke	s	n/a
114.901	0.12	229802	keystroke	Key.space	n/a
115.066	0.105	230132	keystroke	s	n/a
115.156	0.12	230312	keystroke	u	n/a
115.516	0.075	231032	keystroke	r	n/a
115.846	0.09	231692	keystroke	f	n/a
115.996	0.15	231992	keystroke	a	n/a
116.281	0.135	232562	keystroke	c	n/a
116.446	0.195	232892	keystroke	e	n/a
116.581	0.12	233162	keystroke	s	n/a
116.851	0.075	233702	keystroke	Key.enter	n/a
116.9385	5.914	233877	prompt	n/a	plain disability shade walking\n
117.5405	0.105	235081	keystroke	p	n/a
117.7655	0.09	235531	keystroke	l	n/a
117.9005	0.135	235801	keystroke	a	n/a
118.0805	0.09	236161	keystroke	i	n/a
118.1255	0.18	236251	keystroke	n	n/a
118.3205	0.105	236641	keystroke	Key.space	n/a
118.4705	0.135	236941	keystroke	d	n/a
118.7405	0.12	237481	keystroke	i	n/a
119.1455	0.1055	238291	keystroke	s	n/a
119.4005	0.105	238801	keystroke	a	n/a
119.5805	0.09	239161	keystroke	b	n/a
119.851	0.1195	239702	keystroke	i	n/a
119.956	0.1795	239912	keystroke	l	n/a
120.0905	0.15	240181	keystroke	i	n/a
120.1805	0.09	240361	keystroke	t	n/a
120.4055	0.09	240811	keystroke	y	n/a
120.601	0.1195	241202	keystroke	Key.space	n/a
120.796	0.135	241592	keystroke	s	n/a
120.946	0.105	241892	keystroke	h	n/a
121.066	0.09	242132	keystroke	a	n/a
121.201	0.09	242402	keystroke	d	n/a
121.411	0.075	242822	keystroke	e	n/a
121.546	0.12	243092	keystroke	Key.space	n/a
121.621	0.165	243242	keystroke	w	n/a
121.801	0.15	243602	keystroke	a	n/a
121.966	0.135	243932	keystroke	l	n/a
122.026	0.15	244052	keystroke	k	n/a
122.266	0.15	244532	keystroke	i	n/a
122.371	0.135	244742	keystroke	n	n/a
122.521	0.105	245042	keystroke	g	n/a
122.761	0.0905	245522	keystroke	Key.enter	n/a
122.8555	4.737	245711	prompt	n/a	overhead greater rise cliff\n
123.5265	0.105	247053	keystroke	o	n/a
123.6465	0.105	247293	keystroke	v	n/a
123.8405	0.181	247681	keystroke	e	n/a
123.9465	0.135	247893	keystroke	r	n/a
124.0955	0.105	248191	keystroke	h	n/a
124.1865	0.09	248373	keystroke	e	n/a
124.3665	0.149	248733	keystroke	a	n/a
124.4855	0.105	248971	keystroke	d	n/a
124.6355	0.12	249271	keystroke	Key.space	n/a
124.7715	0.105	249543	keystroke	g	n/a
125.0105	0.105	250021	keystroke	r	n/a
125.2065	0.089	250413	keystroke	e	n/a
125.416	0.135	250832	keystroke	a	n/a
125.536	0.105	251072	keystroke	t	n/a
125.686	0.165	251372	keystroke	e	n/a
125.791	0.15	251582	keystroke	r	n/a
125.896	0.135	251792	keystroke	Key.space	n/a
126.046	0.105	252092	keystroke	r	n/a
126.211	0.15	252422	keystroke	i	n/a
126.376	0.1645	252752	keystroke	s	n/a
126.5105	0.105	253021	keystroke	e	n/a
126.6305	0.15	253261	keystroke	Key.space	n/a
126.7955	0.135	253591	keystroke	c	n/a
126.8555	0.1955	253711	keystroke	l	n/a
126.9755	0.1505	253951	keystroke	i	n/a
127.111	0.105	254222	keystroke	f	n/a
127.3065	0.105	254613	keystroke	f	n/a
127.531	0.0605	255062	keystroke	Key.enter	n/a
127.598	6.1445	255196	prompt	n/a	establish operation affiliates dumb\n
128.116	0.075	256232	keystroke	e	n/a
128.296	0.12	256592	keystroke	s	n/a
128.476	0.105	256952	keystroke	t	n/a
128.626	0.135	257252	keystroke	a	n/a
128.776	0.0905	257552	keystroke	b	n/a
128.9705	0.135	257941	keystroke	l	n/a
129.1215	0.119	258243	keystroke	i	n/a
129.2255	0.135	258451	keystroke	s	n/a
129.3305	0.135	258661	keystroke	h	n/a
129.5105	0.09	259021	keystroke	Key.space	n/a
129.6155	0.196	259231	keystroke	o	n/a
129.7805	0.12	259561	keystroke	p	n/a
129.8855	0.135	259771	keystroke	e	n/a
130.0055	0.106	260011	keystroke	r	n/a
130.1415	0.1645	260283	keystroke	a	n/a
130.2755	0.135	260551	keystroke	t	n/a
130.4255	0.135	260851	keystroke	i	n/a
130.5155	0.165	261031	keystroke	o	n/a
130.6205	0.1655	261241	keystroke	n	n/a
130.8005	0.12	261601	keystroke	Key.space	n/a
130.9955	0.12	261991	keystroke	a	n/a
131.1905	0.045	262381	keystroke	f	n/a
131.3555	0.105	262711	keystroke	f	n/a
131.5205	0.135	263041	keystroke	i	n/a
131.7005	0.15	263401	keystroke	l	n/a
131.8055	0.1655	263611	keystroke	i	n/a
132.016	0.12	264032	keystroke	a	n/a
132.136	0.12	264272	keystroke	t	n/a
132.361	0.225	264722	keystroke	e	n/a
132.541	0.135	265082	keystroke	s	n/a
132.691	0.15	265382	keystroke	Key.space	n/a
132.9015	0.1795	265803	keystroke	d	n/a
133.0065	0.09	266013	keystroke	u	n/a
133.231	0.1055	266462	keystroke	m	n/a
133.3815	0.105	266763	keystroke	b	n/a
133.666	0.075	267332	keystroke	Key.enter	n/a
133.7585	5.864	267517	prompt	n/a	newbie lately relatively trying\n
134.4015	0.15	268803	keystroke	n	n/a
134.5215	0.195	269043	keystroke	e	n/a
134.6715	0.105	269343	keystroke	w	n/a
134.971	0.09	269942	keystroke	b	n/a
135.181	0.12	270362	keystroke	i	n/a
135.316	0.1195	270632	keystroke	e	n/a
135.4805	0.105	270961	keystroke	Key.space	n/a
135.6755	0.165	271351	keystroke	l	n/a
135.7655	0.09	271531	keystroke	a	n/a
135.9605	0.0905	271921	keystroke	t	n/a
136.036	0.135	272072	keystroke	e	n/a
136.156	0.12	272312	keystroke	l	n/a
136.306	0.09	272612	keystroke	y	n/a
136.516	0.135	273032	keystroke	Key.space	n/a
136.711	0.1355	273422	keystroke	r	n/a
136.8615	0.12	273723	keystroke	e	n/a
137.0265	0.105	274053	keystroke	l	n/a
137.1615	0.075	274323	keystroke	a	n/a
137.2965	0.09	274593	keystroke	t	n/a
137.431	0.135	274862	keystroke	i	n/a
137.626	0.09	275252	keystroke	v	n/a
137.791	0.105	275582	keystroke	e	n/a
137.941	0.15	275882	keystroke	l	n/a
138.076	0.105	276152	keystroke	y	n/a
138.226	0.1505	276452	keystroke	Key.space	n/a
138.3915	0.105	276783	keystroke	t	n/a
138.6015	0.09	277203	keystroke	r	n/a
138.826	0.09	277652	keystroke	y	n/a
138.961	0.1345	277922	keystroke	i	n/a
139.0205	0.18	278041	keystroke	n	n/a
139.2305	0.12	278461	keystroke	g	n/a
139.5755	0.045	279151	keystroke	Key.enter	n/a
139.6255	7.0625	279251	prompt	n/a	trading we'd've downloaded projects\n
140.311	0.075	280622	keystroke	t	n/a
140.491	0.135	280982	keystroke	r	n/a
140.611	0.15	281222	keystroke	a	n/a
140.8055	0.135	281611	keystroke	d	n/a
140.9705	0.165	281941	keystroke	i	n/a
141.1055	0.21	282211	keystroke	n	n/a
141.2855	0.105	282571	keystroke	g	n/a
141.4055	0.1205	282811	keystroke	Key.space	n/a
141.541	0.165	283082	keystroke	w	n/a
141.631	0.18	283262	keystroke	e	n/a
141.796	0.135	283592	keystroke	'	n/a
142.021	0.12	284042	keystroke	d	n/a
142.216	0.12	284432	keystroke	'	n/a
142.546	0.09	285092	keystroke	v	n/a
142.756	0.12	285512	keystroke	e	n/a
142.966	0.135	285932	keystroke	Key.space	n/a
143.356	0.1055	286712	keystroke	d	n/a
143.476	0.105	286952	keystroke	o	n/a
143.611	0.1355	287222	keystroke	w	n/a
143.761	0.12	287522	keystroke	n	n/a
144.016	0.12	288032	keystroke	l	n/a
144.2265	0.12	288453	keystroke	o	n/a
144.3015	0.12	288603	keystroke	a	n/a
144.4365	0.075	288873	keystroke	d	n/a
144.5715	0.105	289143	keystroke	e	n/a
144.7955	0.105	289591	keystroke	d	n/a
144.9605	0.135	289921	keystroke	Key.space	n/a
145.2755	0.121	290551	keystroke	p	n/a
145.3815	0.105	290763	keystroke	r	n/a
145.4865	0.104	290973	keystroke	o	n/a
145.7405	0.12	291481	keystroke	j	n/a
145.7855	0.09	291571	keystroke	e	n/a
146.0105	0.075	292021	keystroke	c	n/a
146.2355	0.105	292471	keystroke	t	n/a
146.3855	0.135	292771	keystroke	s	n/a
146.6255	0.06	293251	keystroke	Key.enter	n/a
146.699	7.2935	293398	prompt	n/a	ultimate leeds booth declare\n
147.3755	0.09	294751	keystroke	u	n/a
147.6155	0.151	295231	keystroke	l	n/a
147.8265	0.104	295653	keystroke	t	n/a
147.9315	0.089	295863	keystroke	i	n/a
148.1705	0.105	296341	keystroke	m	n/a
148.2905	0.0605	296581	keystroke	a	n/a
148.561	0.015	297122	keystroke	t	n/a
148.591	0.135	297182	keystroke	e	n/a
148.786	0.15	297572	keystroke	Key.space	n/a
149.146	0.1355	298292	keystroke	l	n/a
149.311	0.075	298622	keystroke	e	n/a
149.506	0.06	299012	keystroke	e	n/a
149.6865	0.165	299373	keystroke	d	n/a
149.8665	0.135	299733	keystroke	s	n/a
149.9865	0.135	299973	keystroke	Key.space	n/a
150.1965	0.09	300393	keystroke	b	n/a
150.4365	0.03	300873	keystroke	o	n/a
150.8715	0.135	301743	keystroke	o	n/a
151.1265	0.09	302253	keystroke	t	n/a
151.2015	0.135	302403	keystroke	h	n/a
151.9965	0.105	303993	keystroke	Key.space	n/a
152.3265	0.12	304653	keystroke	d	n/a
152.5515	0.075	305103	keystroke	e	n/a
152.7615	0.1345	305523	keystroke	c	n/a
152.881	0.12	305762	keystroke	l	n/a
152.956	0.15	305912	keystroke	a	n/a
153.107	0.149	306214	keystroke	r	n/a
153.436	0.105	306872	keystroke	e	n/a
153.946	0.045	307892	keystroke	Key.enter	n/a
153.995	8.368	307990	prompt	n/a	conferences massage wichita fancy\n
154.6205	0.135	309241	keystroke	c	n/a
154.7255	0.1205	309451	keystroke	o	n/a
154.816	0.15	309632	keystroke	n	n/a
154.981	0.09	309962	keystroke	f	n/a
155.191	0.165	310382	keystroke	e	n/a
155.341	0.15	310682	keystroke	r	n/a
155.506	0.105	311012	keystroke	e	n/a
155.626	0.12	311252	keystroke	n	n/a
155.776	0.18	311552	keystroke	c	n/a
155.926	0.21	311852	keystroke	e	n/a
156.121	0.105	312242	keystroke	s	n/a
156.181	0.12	312362	keystroke	Key.space	n/a
156.406	0.1655	312812	keystroke	m	n/a
156.4815	0.119	312963	keystroke	a	n/a
156.7815	0.105	313563	keystroke	s	n/a
156.9915	0.059	313983	keystroke	s	n/a
157.1715	0.09	314343	keystroke	a	n/a
157.3955	0.136	314791	keystroke	g	n/a
157.5155	0.136	315031	keystroke	e	n/a
157.6355	0.15	315271	keystroke	Key.space	n/a
157.8155	0.1205	315631	keystroke	w	n/a
157.981	0.045	315962	keystroke	h	n/a
158.326	0.0895	316652	keystroke	Key.backspace	n/a
158.6105	0.12	317221	keystroke	i	n/a
158.8505	0.12	317701	keystroke	c	n/a
159.3605	0.12	318721	keystroke	h	n/a
159.7505	0.12	319501	keystroke	i	n/a
160.2605	0.09	320521	keystroke	t	n/a
160.5305	0.106	321061	keystroke	a	n/a
160.816	0.135	321632	keystroke	Key.space	n/a
161.206	0.09	322412	keystroke	f	n/a
161.326	0.15	322652	keystroke	a	n/a
161.626	0.12	323252	keystroke	n	n/a
161.761	0.135	323522	keystroke	c	n/a
162.0605	0.09	324121	keystroke	y	n/a
162.2855	0.075	324571	keystroke	Key.enter	n/a
162.374	5.5085	324748	prompt	n/a	eastern isle dressed removal\n
162.9755	0.105	325951	keystroke	e	n/a
163.2905	0.0155	326581	keystroke	a	n/a
163.3805	0.165	326761	keystroke	s	n/a
163.5305	0.12	327061	keystroke	t	n/a
163.9815	0.104	327963	keystroke	e	n/a
164.116	0.15	328232	keystroke	r	n/a
164.281	0.12	328562	keystroke	n	n/a
164.491	0.105	328982	keystroke	Key.space	n/a
164.686	0.15	329372	keystroke	i	n/a
164.821	0.105	329642	keystroke	s	n/a
164.971	0.12	329942	keystroke	l	n/a
165.1205	0.12	330241	keystroke	e	n/a
165.2855	0.105	330571	keystroke	Key.space	n/a
165.4805	0.12	330961	keystroke	d	n/a
165.7205	0.135	331441	keystroke	r	n/a
165.8405	0.12	331681	keystroke	e	n/a
166.0355	0.09	332071	keystroke	s	n/a
166.2305	0.12	332461	keystroke	s	n/a
166.3205	0.105	332641	keystroke	e	n/a
166.5455	0.136	333091	keystroke	d	n/a
166.6205	0.105	333241	keystroke	Key.space	n/a
166.8305	0.15	333661	keystroke	r	n/a
166.921	0.15	333842	keystroke	e	n/a
167.0555	0.15	334111	keystroke	m	n/a
167.1605	0.15	334321	keystroke	o	n/a
167.2505	0.12	334501	keystroke	v	n/a
167.431	0.135	334862	keystroke	a	n/a
167.491	0.15	334982	keystroke	l	n/a
167.8055	0.0755	335611	keystroke	Key.enter	n/a
167.886	6.4765	335772	prompt	n/a	defeat would beside organisations\n
168.511	0.105	337022	keystroke	d	n/a
168.736	0.0905	337472	keystroke	e	n/a
168.9465	0.1195	337893	keystroke	f	n/a
169.096	0.09	338192	keystroke	e	n/a
169.306	0.09	338612	keystroke	a	n/a
169.471	0.12	338942	keystroke	t	n/a
169.576	0.135	339152	keystroke	Key.space	n/a
169.756	0.135	339512	keystroke	w	n/a
169.876	0.105	339752	keystroke	o	n/a
169.951	0.09	339902	keystroke	u	n/a
170.146	0.15	340292	keystroke	l	n/a
170.236	0.15	340472	keystroke	d	n/a
170.371	0.165	340742	keystroke	Key.space	n/a
170.686	0.12	341372	keystroke	b	n/a
170.776	0.09	341552	keystroke	e	n/a
171.001	0.105	342002	keystroke	s	n/a
171.121	0.135	342242	keystroke	i	n/a
171.226	0.105	342452	keystroke	d	n/a
171.451	0.105	342902	keystroke	e	n/a
171.586	0.12	343172	keystroke	Key.space	n/a
171.721	0.165	343442	keystroke	o	n/a
171.871	0.09	343742	keystroke	r	n/a
172.111	0.105	344222	keystroke	g	n/a
172.351	0.12	344702	keystroke	a	n/a
172.426	0.09	344852	keystroke	n	n/a
172.606	0.135	345212	keystroke	i	n/a
172.726	0.075	345452	keystroke	s	n/a
172.906	0.09	345812	keystroke	a	n/a
173.116	0.105	346232	keystroke	t	n/a
173.206	0.12	346412	keystroke	i	n/a
173.296	0.165	346592	keystroke	o	n/a
173.386	0.165	346772	keystroke	n	n/a
173.506	0.105	347012	keystroke	a	n/a
173.971	0.105	347942	keystroke	Key.backspace	n/a
174.091	0.105	348182	keystroke	s	n/a
174.286	0.075	348572	keystroke	Key.enter	n/a
174.3655	7.6325	348731	prompt	n/a	novelty tools cooperative pioneer\n
174.946	0.135	349892	keystroke	n	n/a
175.096	0.045	350192	keystroke	n	n/a
175.186	0.09	350372	keystroke	o	n/a
175.531	0.105	351062	keystroke	v	n/a
175.966	0.075	351932	keystroke	Key.backspace	n/a
176.131	0.075	352262	keystroke	Key.backspace	n/a
176.311	0.045	352622	keystroke	Key.backspace	n/a
176.611	0.105	353222	keystroke	o	n/a
176.701	0.075	353402	keystroke	v	n/a
176.851	0.15	353702	keystroke	e	n/a
176.986	0.105	353972	keystroke	l	n/a
177.256	0.09	354512	keystroke	t	n/a
177.466	0.105	354932	keystroke	y	n/a
177.616	0.135	355232	keystroke	Key.space	n/a
177.766	0.105	355532	keystroke	t	n/a
177.916	0.09	355832	keystroke	o	n/a
178.081	0.075	356162	keystroke	o	n/a
178.261	0.135	356522	keystroke	l	n/a
178.381	0.12	356762	keystroke	s	n/a
178.546	0.12	357092	keystroke	Key.space	n/a
178.726	0.135	357452	keystroke	c	n/a
178.876	0.075	357752	keystroke	o	n/a
179.056	0.0605	358112	keystroke	o	n/a
179.236	0.105	358472	keystroke	p	n/a
179.2965	0.1495	358593	keystroke	e	n/a
179.4015	0.1195	358803	keystroke	r	n/a
179.536	0.165	359072	keystroke	a	n/a
179.671	0.105	359342	keystroke	t	n/a
179.806	0.1505	359612	keystroke	i	n/a
179.9715	0.0745	359943	keystroke	v	n/a
180.121	0.105	360242	keystroke	e	n/a
180.241	0.12	360482	keystroke	Key.space	n/a
180.451	0.105	360902	keystroke	p	n/a
180.601	0.12	361202	keystroke	i	n/a
180.9465	0.1045	361893	keystroke	o	n/a
181.1865	0.105	362373	keystroke	n	n/a
181.4115	0.075	362823	keystroke	e	n/a
181.5915	0.165	363183	keystroke	e	n/a
181.6815	0.165	363363	keystroke	r	n/a
181.9215	0.075	363843	keystroke	Key.enter	n/a
182.0085	5.989	364017	prompt	n/a	bubble austria andy grill\n
182.5815	0.12	365163	keystroke	b	n/a
182.7315	0.12	365463	keystroke	u	n/a
182.8665	0.105	365733	keystroke	b	n/a
183.0465	0.075	366093	keystroke	b	n/a
183.2265	0.165	366453	keystroke	l	n/a
183.3615	0.105	366723	keystroke	e	n/a
183.4815	0.15	366963	keystroke	Key.space	n/a
183.6165	0.12	367233	keystroke	a	n/a
183.8415	0.12	367683	keystroke	u	n/a
183.9765	0.105	367953	keystroke	s	n/a
184.1865	0.075	368373	keystroke	t	n/a
184.3665	0.1195	368733	keystroke	r	n/a
184.546	0.135	369092	keystroke	i	n/a
184.846	0.105	369692	keystroke	a	n/a
184.966	0.12	369932	keystroke	Key.space	n/a
185.221	0.12	370442	keystroke	a	n/a
185.356	0.1195	370712	keystroke	n	n/a
185.491	0.105	370982	keystroke	d	n/a
185.761	0.135	371522	keystroke	y	n/a
186.061	0.135	372122	keystroke	Key.space	n/a
186.976	0.09	373952	keystroke	g	n/a
187.216	0.09	374432	keystroke	r	n/a
187.336	0.105	374672	keystroke	i	n/a
187.4715	0.105	374943	keystroke	l	n/a
187.6665	0.075	375333	keystroke	l	n/a
187.9215	0.075	375843	keystroke	Key.enter	n/a
188.0005	6.6425	376001	prompt	n/a	o'clock talk legend touch\n
188.6565	0.075	377313	keystroke	o	n/a
188.9115	0.12	377823	keystroke	'	n/a
189.2565	0.12	378513	keystroke	c	n/a
189.4365	0.135	378873	keystroke	l	n/a
189.6305	0.106	379261	keystroke	o	n/a
189.8715	0.1345	379743	keystroke	c	n/a
189.9915	0.179	379983	keystroke	k	n/a
190.1555	0.105	380311	keystroke	Key.space	n/a
190.3205	0.105	380641	keystroke	t	n/a
190.4715	0.15	380943	keystroke	a	n/a
190.5765	0.134	381153	keystroke	l	n/a
190.6655	0.1955	381331	keystroke	k	n/a
190.816	0.12	381632	keystroke	Key.space	n/a
190.966	0.135	381932	keystroke	l	n/a
191.056	0.09	382112	keystroke	e	n/a
191.236	0.12	382472	keystroke	g	n/a
191.416	0.105	382832	keystroke	n	n/a
191.536	0.09	383072	keystroke	e	n/a
191.836	0.075	383672	keystroke	Key.backspace	n/a
191.986	0.06	383972	keystroke	Key.backspace	n/a
192.076	0.12	384152	keystroke	e	n/a
192.241	0.15	384482	keystroke	n	n/a
192.421	0.075	384842	keystroke	t	n/a
192.751	0.0905	385502	keystroke	Key.backspace	n/a
192.8715	0.135	385743	keystroke	d	n/a
193.0365	0.135	386073	keystroke	Key.space	n/a
193.1865	0.09	386373	keystroke	t	n/a
193.2465	0.165	386493	keystroke	o	n/a
193.3815	0.135	386763	keystroke	u	n/a
193.6815	0.09	387363	keystroke	h	n/a
194.0265	0.09	388053	keystroke	Key.backspace	n/a
194.1315	0.105	388263	keystroke	c	n/a
194.2965	0.105	388593	keystroke	h	n/a
194.5815	0.06	389163	keystroke	Key.enter	n/a
194.6555	5.807	389311	prompt	n/a	crash clock rank webmasters\n
195.3165	0.075	390633	keystroke	c	n/a
195.5715	0.075	391143	keystroke	r	n/a
195.6915	0.15	391383	keystroke	a	n/a
196.0215	0.09	392043	keystroke	s	n/a
196.1115	0.12	392223	keystroke	h	n/a
196.2765	0.12	392553	keystroke	Key.space	n/a
196.5015	0.135	393003	keystroke	c	n/a
196.6665	0.12	393333	keystroke	l	n/a
196.8015	0.12	393603	keystroke	o	n/a
196.9365	0.135	393873	keystroke	c	n/a
197.0715	0.15	394143	keystroke	k	n/a
197.1915	0.135	394383	keystroke	Key.space	n/a
197.3115	0.09	394623	keystroke	r	n/a
197.4765	0.18	394953	keystroke	a	n/a
197.6115	0.165	395223	keystroke	n	n/a
197.7315	0.18	395463	keystroke	k	n/a
197.9115	0.135	395823	keystroke	Key.space	n/a
198.0615	0.135	396123	keystroke	w	n/a
198.1665	0.15	396333	keystroke	e	n/a
198.3615	0.12	396723	keystroke	b	n/a
198.4965	0.15	396993	keystroke	s	n/a
198.9165	0.09	397833	keystroke	Key.backspace	n/a
199.1865	0.105	398373	keystroke	m	n/a
199.2615	0.12	398523	keystroke	a	n/a
199.4715	0.105	398943	keystroke	s	n/a
199.6815	0.09	399363	keystroke	t	n/a
199.8765	0.1495	399753	keystroke	e	n/a
199.9815	0.1195	399963	keystroke	r	n/a
200.1765	0.135	400353	keystroke	s	n/a
200.401	0.0605	400802	keystroke	Key.enter	n/a
200.465	6.853	400930	prompt	n/a	o'clock unlike frederick performing\n
201.091	0.0755	402182	keystroke	o	n/a
201.376	0.1205	402752	keystroke	'	n/a
201.7365	0.135	403473	keystroke	c	n/a
201.8265	0.195	403653	keystroke	l	n/a
202.0065	0.105	404013	keystroke	o	n/a
202.1265	0.135	404253	keystroke	c	n/a
202.2315	0.135	404463	keystroke	k	n/a
202.3215	0.165	404643	keystroke	Key.space	n/a
202.5015	0.15	405003	keystroke	u	n/a
202.6665	0.15	405333	keystroke	n	n/a
202.8615	0.195	405723	keystroke	l	n/a
203.0265	0.12	406053	keystroke	i	n/a
203.2515	0.135	406503	keystroke	k	n/a
203.3715	0.135	406743	keystroke	e	n/a
203.4915	0.135	406983	keystroke	Key.space	n/a
203.7465	0.09	407493	keystroke	f	n/a
204.0015	0.075	408003	keystroke	r	n/a
204.0465	0.105	408093	keystroke	e	n/a
204.2715	0.06	408543	keystroke	d	n/a
204.466	0.135	408932	keystroke	e	n/a
204.571	0.12	409142	keystroke	r	n/a
204.7955	0.12	409591	keystroke	i	n/a
204.9005	0.165	409801	keystroke	c	n/a
205.1705	0.18	410341	keystroke	k	n/a
205.3655	0.12	410731	keystroke	Key.space	n/a
205.666	0.105	411332	keystroke	p	n/a
205.756	0.15	411512	keystroke	e	n/a
205.846	0.09	411692	keystroke	r	n/a
206.056	0.12	412112	keystroke	f	n/a
206.161	0.0905	412322	keystroke	o	n/a
206.2965	0.105	412593	keystroke	r	n/a
206.4165	0.12	412833	keystroke	m	n/a
206.6865	0.12	413373	keystroke	i	n/a
206.8215	0.135	413643	keystroke	n	n/a
207.0165	0.105	414033	keystroke	g	n/a
207.2415	0.075	414483	keystroke	Key.enter	n/a
207.329	6.5435	414658	prompt	n/a	revisions optimization silent libs\n
207.9915	0.075	415983	keystroke	r	n/a
208.0515	0.105	416103	keystroke	e	n/a
208.3065	0.104	416613	keystroke	v	n/a
208.3815	0.09	416763	keystroke	i	n/a
208.5765	0.135	417153	keystroke	s	n/a
208.6665	0.15	417333	keystroke	i	n/a
208.8015	0.15	417603	keystroke	o	n/a
208.8915	0.165	417783	keystroke	n	n/a
209.0265	0.12	418053	keystroke	s	n/a
209.1915	0.12	418383	keystroke	Key.space	n/a
209.5215	0.149	419043	keystroke	o	n/a
209.6855	0.135	419371	keystroke	p	n/a
209.8355	0.12	419671	keystroke	t	n/a
210.0305	0.1205	420061	keystroke	i	n/a
210.166	0.1345	420332	keystroke	m	n/a
210.4955	0.105	420991	keystroke	i	n/a
210.706	0.105	421412	keystroke	z	n/a
210.931	0.105	421862	keystroke	a	n/a
211.171	0.12	422342	keystroke	t	n/a
211.306	0.12	422612	keystroke	i	n/a
211.396	0.225	422792	keystroke	o	n/a
211.516	0.15	423032	keystroke	n	n/a
211.651	0.135	423302	keystroke	Key.space	n/a
211.756	0.135	423512	keystroke	s	n/a
212.056	0.105	424112	keystroke	i	n/a
212.266	0.12	424532	keystroke	l	n/a
212.341	0.12	424682	keystroke	e	n/a
212.596	0.12	425192	keystroke	n	n/a
212.686	0.12	425372	keystroke	t	n/a
212.881	0.105	425762	keystroke	Key.space	n/a
213.031	0.18	426062	keystroke	l	n/a
213.151	0.15	426302	keystroke	i	n/a
213.421	0.12	426842	keystroke	b	n/a
213.526	0.15	427052	keystroke	s	n/a
213.811	0.06	427622	keystroke	Key.enter	n/a
213.8765	9.0865	427753	prompt	n/a	outcome college geological tramadol\n
214.501	0.12	429002	keystroke	o	n/a
214.696	0.105	429392	keystroke	u	n/a
214.816	0.09	429632	keystroke	t	n/a
215.086	0.12	430172	keystroke	c	n/a
215.131	0.165	430262	keystroke	o	n/a
215.236	0.18	430472	keystroke	m	n/a
215.401	0.105	430802	keystroke	e	n/a
215.536	0.1205	431072	keystroke	Key.space	n/a
215.6715	0.135	431343	keystroke	c	n/a
215.7315	0.09	431463	keystroke	o	n/a
215.9565	0.06	431913	keystroke	l	n/a
216.0915	0.12	432183	keystroke	l	n/a
216.2265	0.075	432453	keystroke	e	n/a
216.6615	0.12	433323	keystroke	g	n/a
216.9015	0.105	433803	keystroke	e	n/a
217.0655	0.12	434131	keystroke	Key.space	n/a
217.3355	0.09	434671	keystroke	g	n/a
217.5755	0.135	435151	keystroke	e	n/a
217.6955	0.121	435391	keystroke	o	n/a
218.1165	0.12	436233	keystroke	g	n/a
219.3015	0.075	438603	keystroke	Key.backspace	n/a
219.5415	0.15	439083	keystroke	l	n/a
219.7065	0.09	439413	keystroke	o	n/a
219.8265	0.105	439653	keystroke	g	n/a
219.9465	0.12	439893	keystroke	i	n/a
220.2765	0.12	440553	keystroke	c	n/a
220.4865	0.165	440973	keystroke	a	n/a
220.5915	0.15	441183	keystroke	l	n/a
220.7565	0.1495	441513	keystroke	Key.space	n/a
220.951	0.075	441902	keystroke	t	n/a
221.131	0.105	442262	keystroke	r	n/a
221.296	0.1355	442592	keystroke	a	n/a
221.4165	0.134	442833	keystroke	m	n/a
221.5665	0.12	443133	keystroke	a	n/a
221.9105	0.136	443821	keystroke	d	n/a
222.4505	0.09	444901	keystroke	o	n/a
222.6605	0.105	445321	keystroke	l	n/a
222.916	0.045	445832	keystroke	Key.enter	n/a
222.974	7.564	445948	prompt	n/a	where's rated advertiser webshots\n
223.531	0.075	447062	keystroke	w	n/a
223.741	0.105	447482	keystroke	h	n/a
223.816	0.12	447632	keystroke	e	n/a
223.921	0.18	447842	keystroke	r	n/a
224.056	0.135	448112	keystroke	e	n/a
224.176	0.12	448352	keystroke	'	n/a
224.356	0.15	448712	keystroke	s	n/a
224.536	0.15	449072	keystroke	Key.space	n/a
224.731	0.1345	449462	keystroke	r	n/a
224.8365	0.105	449673	keystroke	e	n/a
225.0615	0.105	450123	keystroke	a	n/a
225.3915	0.075	450783	keystroke	Key.backspace	n/a
225.5555	0.076	451111	keystroke	Key.backspace	n/a
225.6165	0.06	451233	keystroke	a	n/a
225.7665	0.09	451533	keystroke	t	n/a
225.9315	0.105	451863	keystroke	e	n/a
226.1415	0.135	452283	keystroke	d	n/a
226.2315	0.135	452463	keystroke	Key.space	n/a
226.4565	0.15	452913	keystroke	a	n/a
226.6215	0.09	453243	keystroke	d	n/a
226.8465	0.105	453693	keystroke	v	n/a
227.1015	0.165	454203	keystroke	e	n/a
227.2365	0.12	454473	keystroke	r	n/a
227.4465	0.12	454893	keystroke	t	n/a
227.5515	0.135	455103	keystroke	i	n/a
227.6865	0.21	455373	keystroke	s	n/a
227.8815	0.165	455763	keystroke	e	n/a
228.0015	0.165	456003	keystroke	r	n/a
228.4365	0.135	456873	keystroke	Key.space	n/a
228.751	0.12	457502	keystroke	w	n/a
229.111	0.105	458222	keystroke	e	n/a
229.306	0.12	458612	keystroke	b	n/a
229.486	0.1505	458972	keystroke	s	n/a
229.8155	0.105	459631	keystroke	h	n/a
229.9805	0.135	459961	keystroke	o	n/a
230.1005	0.075	460201	keystroke	t	n/a
230.251	0.1495	460502	keystroke	s	n/a
230.446	0.09	460892	keystroke	Key.enter	n/a
230.5425	6.671	461085	prompt	n/a	events authentic practical toll\n
231.106	0.075	462212	keystroke	w	n/a
231.466	0.09	462932	keystroke	Key.backspace	n/a
231.541	0.075	463082	keystroke	e	n/a
231.766	0.105	463532	keystroke	v	n/a
231.931	0.12	463862	keystroke	e	n/a
232.081	0.12	464162	keystroke	n	n/a
232.186	0.12	464372	keystroke	t	n/a
232.366	0.15	464732	keystroke	s	n/a
232.501	0.12	465002	keystroke	Key.space	n/a
232.711	0.135	465422	keystroke	a	n/a
232.906	0.0905	465812	keystroke	u	n/a
233.071	0.105	466142	keystroke	t	n/a
233.161	0.12	466322	keystroke	h	n/a
233.461	0.09	466922	keystroke	e	n/a
233.686	0.15	467372	keystroke	n	n/a
233.881	0.09	467762	keystroke	t	n/a
233.986	0.135	467972	keystroke	i	n/a
234.181	0.1205	468362	keystroke	c	n/a
234.3165	0.12	468633	keystroke	Key.space	n/a
234.4815	0.12	468963	keystroke	p	n/a
234.5865	0.105	469173	keystroke	r	n/a
234.8265	0.12	469653	keystroke	a	n/a
235.0215	0.135	470043	keystroke	c	n/a
235.3215	0.09	470643	keystroke	t	n/a
235.4415	0.12	470883	keystroke	i	n/a
235.6365	0.12	471273	keystroke	c	n/a
235.8015	0.15	471603	keystroke	a	n/a
235.9215	0.165	471843	keystroke	l	n/a
236.0715	0.15	472143	keystroke	Key.space	n/a
236.2365	0.105	472473	keystroke	t	n/a
236.3565	0.105	472713	keystroke	o	n/a
236.5815	0.105	473163	keystroke	l	n/a
236.7015	0.135	473403	keystroke	l	n/a
237.1515	0.06	474303	keystroke	Key.enter	n/a
237.2245	6.1085	474449	prompt	n/a	tennessee south situations says\n
237.8715	0.09	475743	keystroke	t	n/a
238.0515	0.12	476103	keystroke	e	n/a
238.1865	0.06	476373	keystroke	n	n/a
238.3515	0.105	476703	keystroke	n	n/a
238.7265	0.12	477453	keystroke	e	n/a
238.9365	0.09	477873	keystroke	s	n/a
239.1315	0.075	478263	keystroke	s	n/a
239.2815	0.09	478563	keystroke	e	n/a
239.4765	0.09	478953	keystroke	e	n/a
239.6415	0.12	479283	keystroke	Key.space	n/a
239.8065	0.12	479613	keystroke	s	n/a
239.9415	0.135	479883	keystroke	o	n/a
240.0315	0.12	480063	keystroke	u	n/a
240.2715	0.09	480543	keystroke	t	n/a
240.4365	0.12	480873	keystroke	h	n/a
240.7065	0.119	481413	keystroke	Key.space	n/a
240.9765	0.1505	481953	keystroke	s	n/a
241.112	0.12	482224	keystroke	i	n/a
241.292	0.1045	482584	keystroke	t	n/a
241.4565	0.1205	482913	keystroke	u	n/a
241.562	0.1645	483124	keystroke	a	n/a
241.6965	0.1195	483393	keystroke	t	n/a
241.7865	0.1655	483573	keystroke	i	n/a
241.921	0.166	483842	keystroke	o	n/a
241.982	0.18	483964	keystroke	n	n/a
242.131	0.166	484262	keystroke	s	n/a
242.281	0.105	484562	keystroke	Key.space	n/a
242.432	0.059	484864	keystroke	s	n/a
242.596	0.09	485192	keystroke	a	n/a
242.8215	0.09	485643	keystroke	y	n/a
243.0465	0.105	486093	keystroke	s	n/a
243.2265	0.105	486453	keystroke	Key.enter	n/a
243.336	6.852	486672	prompt	n/a	deserve belly analyze sacred\n
243.9315	0.105	487863	keystroke	d	n/a
244.1715	0.105	488343	keystroke	e	n/a
244.4715	0.165	488943	keystroke	s	n/a
244.5915	0.135	489183	keystroke	e	n/a
244.7865	0.09	489573	keystroke	r	n/a
245.0265	0.105	490053	keystroke	v	n/a
245.2215	0.09	490443	keystroke	e	n/a
245.3265	0.105	490653	keystroke	Key.space	n/a
245.5065	0.12	491013	keystroke	b	n/a
245.5965	0.105	491193	keystroke	e	n/a
245.7615	0.09	491523	keystroke	l	n/a
245.9565	0.105	491913	keystroke	l	n/a
246.0765	0.09	492153	keystroke	y	n/a
246.2115	0.12	492423	keystroke	Key.space	n/a
246.3765	0.12	492753	keystroke	a	n/a
246.5115	0.12	493023	keystroke	n	n/a
246.6315	0.105	493263	keystroke	a	n/a
246.7965	0.165	493593	keystroke	l	n/a
246.9465	0.09	493893	keystroke	z	n/a
247.3365	0.09	494673	keystroke	Key.backspace	n/a
247.4115	0.105	494823	keystroke	y	n/a
247.6815	0.105	495363	keystroke	z	n/a
248.0415	0.09	496083	keystroke	e	n/a
248.2965	0.135	496593	keystroke	Key.space	n/a
248.5365	0.105	497073	keystroke	s	n/a
248.9415	0.09	497883	keystroke	a	n/a
249.2265	0.12	498453	keystroke	c	n/a
249.4965	0.075	498993	keystroke	r	n/a
249.6615	0.09	499323	keystroke	e	n/a
249.8715	0.105	499743	keystroke	d	n/a
250.0965	0.09	500193	keystroke	Key.enter	n/a
250.1975	5.945	500395	prompt	n/a	berlin enemy turner configure\n
250.8615	0.105	501723	keystroke	b	n/a
250.9965	0.12	501993	keystroke	e	n/a
251.1915	0.12	502383	keystroke	r	n/a
251.3565	0.15	502713	keystroke	l	n/a
251.4615	0.15	502923	keystroke	i	n/a
251.5665	0.165	503133	keystroke	n	n/a
251.7465	0.135	503493	keystroke	Key.space	n/a
251.8515	0.09	503703	keystroke	e	n/a
252.0165	0.165	504033	keystroke	n	n/a
252.1215	0.105	504243	keystroke	e	n/a
252.3465	0.135	504693	keystroke	m	n/a
252.4965	0.09	504993	keystroke	y	n/a
252.6015	0.165	505203	keystroke	Key.space	n/a
252.8415	0.075	505683	keystroke	t	n/a
253.6065	0.09	507213	keystroke	u	n/a
253.7115	0.105	507423	keystroke	r	n/a
253.8465	0.15	507693	keystroke	n	n/a
254.072	0.135	508144	keystroke	e	n/a
254.222	0.12	508444	keystroke	r	n/a
254.432	0.12	508864	keystroke	Key.space	n/a
254.747	0.135	509494	keystroke	c	n/a
254.807	0.089	509614	keystroke	o	n/a
254.957	0.135	509914	keystroke	n	n/a
255.107	0.12	510214	keystroke	f	n/a
255.242	0.105	510484	keystroke	i	n/a
255.392	0.104	510784	keystroke	g	n/a
255.526	0.105	511052	keystroke	u	n/a
255.676	0.12	511352	keystroke	r	n/a
255.841	0.105	511682	keystroke	e	n/a
256.066	0.075	512132	keystroke	Key.enter	n/a
256.1595	6.9135	512319	prompt	n/a	scenes scoop grammar swedish\n
256.696	0.0905	513392	keystroke	s	n/a
256.9215	0.105	513843	keystroke	c	n/a
257.1315	0.075	514263	keystroke	e	n/a
257.2215	0.15	514443	keystroke	n	n/a
257.3415	0.09	514683	keystroke	e	n/a
257.5365	0.105	515073	keystroke	s	n/a
257.6265	0.15	515253	keystroke	Key.space	n/a
257.8065	0.105	515613	keystroke	s	n/a
258.0315	0.1355	516063	keystroke	c	n/a
258.122	0.09	516244	keystroke	o	n/a
258.302	0.15	516604	keystroke	o	n/a
258.422	0.18	516844	keystroke	p	n/a
258.572	0.1495	517144	keystroke	Key.space	n/a
258.8265	0.075	517653	keystroke	g	n/a
259.0515	0.105	518103	keystroke	r	n/a
259.2015	0.135	518403	keystroke	a	n/a
259.3215	0.075	518643	keystroke	m	n/a
259.4865	0.12	518973	keystroke	m	n/a
259.6515	0.105	519303	keystroke	a	n/a
259.8765	0.105	519753	keystroke	r	n/a
260.0265	0.135	520053	keystroke	Key.space	n/a
260.3715	0.12	520743	keystroke	s	n/a
260.6565	0.06	521313	keystroke	q	n/a
261.4215	0.0745	522843	keystroke	Key.backspace	n/a
261.466	0.075	522932	keystroke	w	n/a
261.826	0.09	523652	keystroke	e	n/a
262.126	0.105	524252	keystroke	d	n/a
262.411	0.135	524822	keystroke	i	n/a
262.651	0.12	525302	keystroke	s	n/a
262.726	0.09	525452	keystroke	h	n/a
262.996	0.075	525992	keystroke	Key.enter	n/a
263.0775	8.306	526155	prompt	n/a	slideshow operators grows satisfactory\n
263.686	0.105	527372	keystroke	s	n/a
264.046	0.195	528092	keystroke	l	n/a
264.181	0.15	528362	keystroke	i	n/a
264.451	0.09	528902	keystroke	d	n/a
264.706	0.165	529412	keystroke	e	n/a
264.841	0.12	529682	keystroke	s	n/a
264.991	0.12	529982	keystroke	h	n/a
265.126	0.165	530252	keystroke	o	n/a
265.276	0.09	530552	keystroke	w	n/a
265.426	0.12	530852	keystroke	Key.space	n/a
265.636	0.165	531272	keystroke	o	n/a
265.771	0.1505	531542	keystroke	p	n/a
265.876	0.1205	531752	keystroke	e	n/a
266.0265	0.12	532053	keystroke	r	n/a
266.1615	0.1495	532323	keystroke	a	n/a
266.3265	0.12	532653	keystroke	t	n/a
266.461	0.1505	532922	keystroke	o	n/a
266.8215	0.105	533643	keystroke	r	n/a
267.2415	0.135	534483	keystroke	s	n/a
267.4515	0.135	534903	keystroke	Key.space	n/a
267.6015	0.0905	535203	keystroke	g	n/a
267.827	0.12	535654	keystroke	r	n/a
268.067	0.1195	536134	keystroke	o	n/a
268.2465	0.105	536493	keystroke	w	n/a
268.5615	0.12	537123	keystroke	s	n/a
268.7115	0.135	537423	keystroke	Key.space	n/a
268.9665	0.075	537933	keystroke	s	n/a
269.1765	0.045	538353	keystroke	a	n/a
269.4165	0.105	538833	keystroke	t	n/a
269.5815	0.12	539163	keystroke	i	n/a
269.7765	0.105	539553	keystroke	s	n/a
269.9865	0.09	539973	keystroke	f	n/a
270.1515	0.105	540303	keystroke	a	n/a
270.3615	0.105	540723	keystroke	c	n/a
270.6015	0.105	541203	keystroke	t	n/a
270.7365	0.12	541473	keystroke	o	n/a
270.8265	0.09	541653	keystroke	r	n/a
271.0515	0.105	542103	keystroke	y	n/a
271.2915	0.09	542583	keystroke	Key.enter	n/a
271.394	6.334	542788	prompt	n/a	herald produces temple learning\n
271.9965	0.135	543993	keystroke	h	n/a
272.1765	0.09	544353	keystroke	e	n/a
272.4165	0.12	544833	keystroke	r	n/a
272.6715	0.12	545343	keystroke	a	n/a
272.7465	0.12	545493	keystroke	l	n/a
272.9715	0.15	545943	keystroke	d	n/a
273.1065	0.135	546213	keystroke	Key.space	n/a
273.3165	0.12	546633	keystroke	p	n/a
273.3915	0.09	546783	keystroke	r	n/a
273.5115	0.135	547023	keystroke	o	n/a
273.6165	0.135	547233	keystroke	d	n/a
273.8415	0.105	547683	keystroke	u	n/a
273.9165	0.12	547833	keystroke	c	n/a
274.5765	0.165	549153	keystroke	e	n/a
274.7565	0.15	549513	keystroke	s	n/a
274.9365	0.1505	549873	keystroke	Key.space	n/a
275.087	0.09	550174	keystroke	t	n/a
275.267	0.18	550534	keystroke	e	n/a
275.387	0.165	550774	keystroke	m	n/a
275.537	0.09	551074	keystroke	p	n/a
275.747	0.1645	551494	keystroke	l	n/a
275.8665	0.135	551733	keystroke	e	n/a
276.0165	0.1345	552033	keystroke	Key.space	n/a
276.347	0.135	552694	keystroke	l	n/a
276.4365	0.0745	552873	keystroke	e	n/a
276.647	0.105	553294	keystroke	a	n/a
276.857	0.105	553714	keystroke	r	n/a
276.976	0.075	553952	keystroke	n	n/a
277.127	0.164	554254	keystroke	i	n/a
277.262	0.135	554524	keystroke	n	n/a
277.457	0.105	554914	keystroke	g	n/a
277.651	0.075	555302	keystroke	Key.enter	n/a
277.732	7.782	555464	prompt	n/a	hiking validation moves warehouse\n
278.2965	0.135	556593	keystroke	h	n/a
278.4165	0.105	556833	keystroke	i	n/a
278.6415	0.075	557283	keystroke	k	n/a
278.851	0.15	557702	keystroke	i	n/a
279.016	0.15	558032	keystroke	n	n/a
279.151	0.105	558302	keystroke	g	n/a
279.286	0.15	558572	keystroke	Key.space	n/a
279.496	0.105	558992	keystroke	v	n/a
279.7515	0.1045	559503	keystroke	a	n/a
279.857	0.074	559714	keystroke	l	n/a
281.491	0.12	562982	keystroke	i	n/a
281.716	0.105	563432	keystroke	d	n/a
281.896	0.135	563792	keystroke	a	n/a
282.151	0.105	564302	keystroke	t	n/a
282.346	0.135	564692	keystroke	i	n/a
282.496	0.195	564992	keystroke	o	n/a
282.631	0.181	565262	keystroke	n	n/a
282.812	0.15	565624	keystroke	Key.space	n/a
283.022	0.1645	566044	keystroke	m	n/a
283.172	0.15	566344	keystroke	o	n/a
283.277	0.09	566554	keystroke	v	n/a
283.472	0.15	566944	keystroke	e	n/a
283.607	0.135	567214	keystroke	s	n/a
283.697	0.15	567394	keystroke	Key.space	n/a
284.207	0.165	568414	keystroke	w	n/a
284.342	0.12	568684	keystroke	a	n/a
284.522	0.15	569044	keystroke	r	n/a
284.627	0.15	569254	keystroke	e	n/a
284.7915	0.1055	569583	keystroke	h	n/a
284.912	0.15	569824	keystroke	o	n/a
284.987	0.135	569974	keystroke	u	n/a
285.107	0.165	570214	keystroke	s	n/a
285.212	0.12	570424	keystroke	e	n/a
285.452	0.06	570904	keystroke	Key.enter	n/a
285.5265	9.212	571053	prompt	n/a	mistake identifier battlefield brandon\n
286.1865	0.075	572373	keystroke	m	n/a
286.4115	0.105	572823	keystroke	i	n/a
286.5315	0.09	573063	keystroke	s	n/a
287.0715	0.06	574143	keystroke	t	n/a
287.341	0.135	574682	keystroke	k	n/a
287.491	0.06	574982	keystroke	a	n/a
287.776	0.075	575552	keystroke	Key.backspace	n/a
287.941	0.06	575882	keystroke	Key.backspace	n/a
288.091	0.1355	576182	keystroke	a	n/a
288.2415	0.15	576483	keystroke	k	n/a
288.4065	0.105	576813	keystroke	e	n/a
288.5415	0.1645	577083	keystroke	Key.space	n/a
289.2165	0.12	578433	keystroke	i	n/a
289.3515	0.105	578703	keystroke	d	n/a
289.5765	0.1355	579153	keystroke	e	n/a
289.6965	0.135	579393	keystroke	n	n/a
289.907	0.105	579814	keystroke	t	n/a
290.027	0.09	580054	keystroke	i	n/a
290.402	0.1345	580804	keystroke	f	n/a
290.6565	0.1505	581313	keystroke	i	n/a
290.852	0.12	581704	keystroke	e	n/a
291.047	0.135	582094	keystroke	r	n/a
291.197	0.12	582394	keystroke	Key.space	n/a
291.377	0.135	582754	keystroke	b	n/a
291.467	0.09	582934	keystroke	a	n/a
291.707	0.09	583414	keystroke	t	n/a
291.887	0.09	583774	keystroke	t	n/a
292.037	0.12	584074	keystroke	l	n/a
292.142	0.105	584284	keystroke	e	n/a
292.412	0.12	584824	keystroke	f	n/a
292.562	0.12	585124	keystroke	i	n/a
292.757	0.074	585514	keystroke	e	n/a
292.891	0.15	585782	keystroke	l	n/a
293.026	0.09	586052	keystroke	d	n/a
293.131	0.15	586262	keystroke	Key.space	n/a
293.387	0.089	586774	keystroke	b	n/a
293.431	0.105	586862	keystroke	r	n/a
293.686	0.09	587372	keystroke	a	n/a
293.746	0.12	587492	keystroke	n	n/a
293.896	0.15	587792	keystroke	d	n/a
294.031	0.165	588062	keystroke	o	n/a
294.166	0.1205	588332	keystroke	n	n/a
294.661	0.0755	589322	keystroke	Key.enter	n/a
294.749	6.364	589498	prompt	n/a	orange ministries actually beats\n
295.3365	0.135	590673	keystroke	o	n/a
295.3965	0.09	590793	keystroke	r	n/a
295.696	0.105	591392	keystroke	a	n/a
295.906	0.135	591812	keystroke	n	n/a
295.981	0.105	591962	keystroke	g	n/a
296.191	0.135	592382	keystroke	e	n/a
296.266	0.135	592532	keystroke	Key.space	n/a
296.491	0.105	592982	keystroke	m	n/a
296.717	0.1195	593434	keystroke	i	n/a
296.8515	0.165	593703	keystroke	n	n/a
297.0915	0.09	594183	keystroke	i	n/a
297.2565	0.105	594513	keystroke	s	n/a
297.4815	0.09	594963	keystroke	t	n/a
297.6765	0.135	595353	keystroke	r	n/a
297.7965	0.15	595593	keystroke	i	n/a
297.9615	0.2105	595923	keystroke	e	n/a
298.157	0.105	596314	keystroke	s	n/a
298.2465	0.1805	596493	keystroke	Key.space	n/a
298.412	0.06	596824	keystroke	a	n/a
298.607	0.045	597214	keystroke	c	n/a
299.147	0.12	598294	keystroke	t	n/a
299.282	0.09	598564	keystroke	u	n/a
299.431	0.1205	598862	keystroke	a	n/a
299.5065	0.09	599013	keystroke	l	n/a
299.687	0.15	599374	keystroke	l	n/a
299.852	0.075	599704	keystroke	y	n/a
299.957	0.149	599914	keystroke	Key.space	n/a
300.092	0.165	600184	keystroke	b	n/a
300.182	0.12	600364	keystroke	e	n/a
300.437	0.045	600874	keystroke	a	n/a
300.602	0.104	601204	keystroke	t	n/a
300.826	0.121	601652	keystroke	s	n/a
301.021	0.09	602042	keystroke	Key.enter	n/a
301.116	7.528	602232	prompt	n/a	senator churches parental cleaners\n
301.726	0.181	603452	keystroke	s	n/a
301.862	0.164	603724	keystroke	e	n/a
302.072	0.104	604144	keystroke	n	n/a
302.236	0.076	604472	keystroke	a	n/a
302.4465	0.09	604893	keystroke	t	n/a
302.5665	0.1655	605133	keystroke	o	n/a
302.6565	0.1345	605313	keystroke	r	n/a
302.836	0.15	605672	keystroke	Key.space	n/a
303.001	0.12	606002	keystroke	c	n/a
303.181	0.15	606362	keystroke	h	n/a
303.346	0.12	606692	keystroke	r	n/a
303.481	0.15	606962	keystroke	u	n/a
303.691	0.1355	607382	keystroke	c	n/a
303.811	0.15	607622	keystroke	h	n/a
303.991	0.21	607982	keystroke	e	n/a
304.126	0.15	608252	keystroke	s	n/a
304.306	0.1355	608612	keystroke	Key.space	n/a
304.5165	0.105	609033	keystroke	p	n/a
304.7265	0.1645	609453	keystroke	a	n/a
304.906	0.12	609812	keystroke	r	n/a
305.131	0.09	610262	keystroke	a	n/a
305.552	0.105	611104	keystroke	Key.backspace	n/a
306.137	0.135	612274	keystroke	e	n/a
306.287	0.165	612574	keystroke	n	n/a
306.422	0.105	612844	keystroke	t	n/a
306.692	0.135	613384	keystroke	a	n/a
306.812	0.165	613624	keystroke	l	n/a
306.947	0.18	613894	keystroke	Key.space	n/a
307.142	0.12	614284	keystroke	c	n/a
307.307	0.12	614614	keystroke	l	n/a
307.382	0.09	614764	keystroke	e	n/a
307.577	0.12	615154	keystroke	a	n/a
307.892	0.12	615784	keystroke	n	n/a
308.102	0.135	616204	keystroke	e	n/a
308.207	0.12	616414	keystroke	r	n/a
308.402	0.135	616804	keystroke	s	n/a
308.552	0.09	617104	keystroke	Key.enter	n/a
308.6545	5.119	617309	prompt	n/a	stud regression wake steve\n
309.332	0.135	618664	keystroke	s	n/a
309.497	0.09	618994	keystroke	t	n/a
309.572	0.164	619144	keystroke	u	n/a
309.722	0.164	619444	keystroke	d	n/a
309.871	0.166	619742	keystroke	Key.space	n/a
310.052	0.09	620104	keystroke	r	n/a
310.097	0.135	620194	keystroke	e	n/a
310.321	0.106	620642	keystroke	g	n/a
310.591	0.12	621182	keystroke	r	n/a
310.726	0.0905	621452	keystroke	e	n/a
310.9215	0.105	621843	keystroke	s	n/a
311.1315	0.105	622263	keystroke	s	n/a
311.2965	0.21	622593	keystroke	i	n/a
311.3865	0.195	622773	keystroke	o	n/a
311.4915	0.21	622983	keystroke	n	n/a
311.6115	0.18	623223	keystroke	Key.space	n/a
311.7765	0.1205	623553	keystroke	w	n/a
311.927	0.12	623854	keystroke	a	n/a
312.062	0.165	624124	keystroke	k	n/a
312.407	0.12	624814	keystroke	e	n/a
312.602	0.165	625204	keystroke	Key.space	n/a
312.737	0.06	625474	keystroke	s	n/a
312.917	0.09	625834	keystroke	t	n/a
313.052	0.12	626104	keystroke	e	n/a
313.307	0.105	626614	keystroke	v	n/a
313.532	0.12	627064	keystroke	e	n/a
313.652	0.12	627304	keystroke	Key.enter	n/a
313.776	8.2175	627552	prompt	n/a	nano luggage accommodation availability\n
314.537	0.134	629074	keystroke	n	n/a
315.002	0.134	630004	keystroke	a	n/a
315.122	0.105	630244	keystroke	n	n/a
315.301	0.165	630602	keystroke	o	n/a
315.451	0.135	630902	keystroke	Key.space	n/a
315.647	0.165	631294	keystroke	l	n/a
315.961	0.12	631922	keystroke	u	n/a
316.051	0.106	632102	keystroke	g	n/a
316.2465	0.1045	632493	keystroke	g	n/a
316.471	0.09	632942	keystroke	a	n/a
316.696	0.075	633392	keystroke	g	n/a
316.801	0.136	633602	keystroke	e	n/a
316.966	0.135	633932	keystroke	Key.space	n/a
317.116	0.105	634232	keystroke	a	n/a
317.326	0.09	634652	keystroke	c	n/a
317.507	0.119	635014	keystroke	c	n/a
317.596	0.165	635192	keystroke	o	n/a
317.986	0.12	635972	keystroke	m	n/a
318.241	0.09	636482	keystroke	m	n/a
318.421	0.135	636842	keystroke	o	n/a
318.496	0.105	636992	keystroke	d	n/a
318.7065	0.105	637413	keystroke	a	n/a
318.9015	0.15	637803	keystroke	t	n/a
319.0215	0.15	638043	keystroke	i	n/a
319.1265	0.18	638253	keystroke	o	n/a
319.3365	0.225	638673	keystroke	n	n/a
319.6965	0.15	639393	keystroke	Key.space	n/a
319.8765	0.075	639753	keystroke	a	n/a
320.0715	0.09	640143	keystroke	v	n/a
320.2965	0.12	640593	keystroke	a	n/a
320.4015	0.135	640803	keystroke	i	n/a
320.4765	0.15	640953	keystroke	l	n/a
320.6715	0.135	641343	keystroke	a	n/a
320.7925	0.12	641585	keystroke	b	n/a
321.0765	0.075	642153	keystroke	i	n/a
321.2715	0.15	642543	keystroke	l	n/a
321.3475	0.209	642695	keystroke	i	n/a
321.4675	0.075	642935	keystroke	t	n/a
321.6775	0.089	643355	keystroke	y	n/a
321.8865	0.105	643773	keystroke	Key.enter	n/a
322.0045	5.8535	644009	prompt	n/a	courage animals mali panama\n
323.041	0.1355	646082	keystroke	c	n/a
323.1615	0.1345	646323	keystroke	o	n/a
323.251	0.151	646502	keystroke	u	n/a
323.341	0.105	646682	keystroke	r	n/a
323.581	0.09	647162	keystroke	a	n/a
323.791	0.09	647582	keystroke	g	n/a
323.9265	0.1045	647853	keystroke	e	n/a
324.046	0.1205	648092	keystroke	Key.space	n/a
324.2115	0.12	648423	keystroke	a	n/a
324.3165	0.09	648633	keystroke	n	n/a
324.4515	0.09	648903	keystroke	i	n/a
324.6765	0.105	649353	keystroke	m	n/a
324.827	0.135	649654	keystroke	a	n/a
324.992	0.15	649984	keystroke	l	n/a
325.127	0.09	650254	keystroke	s	n/a
325.232	0.135	650464	keystroke	Key.space	n/a
325.487	0.105	650974	keystroke	m	n/a
325.636	0.136	651272	keystroke	a	n/a
325.802	0.165	651604	keystroke	l	n/a
325.982	0.18	651964	keystroke	i	n/a
326.177	0.135	652354	keystroke	Key.space	n/a
326.387	0.105	652774	keystroke	p	n/a
326.477	0.15	652954	keystroke	a	n/a
326.702	0.12	653404	keystroke	n	n/a
326.777	0.12	653554	keystroke	a	n/a
326.927	0.195	653854	keystroke	m	n/a
327.107	0.12	654214	keystroke	a	n/a
327.767	0.09	655534	keystroke	Key.enter	n/a
327.8615	7.242	655723	prompt	n/a	correction xhtml capitol consistent\n
328.397	0.15	656794	keystroke	c	n/a
328.517	0.134	657034	keystroke	o	n/a
328.666	0.106	657332	keystroke	r	n/a
328.876	0.121	657752	keystroke	r	n/a
329.011	0.105	658022	keystroke	e	n/a
329.222	0.12	658444	keystroke	c	n/a
329.477	0.15	658954	keystroke	t	n/a
329.611	0.166	659222	keystroke	i	n/a
329.731	0.135	659462	keystroke	o	n/a
329.777	0.209	659554	keystroke	n	n/a
329.942	0.18	659884	keystroke	Key.space	n/a
330.212	0.21	660424	keystroke	x	n/a
330.482	0.164	660964	keystroke	h	n/a
330.631	0.105	661262	keystroke	t	n/a
331.111	0.105	662222	keystroke	m	n/a
331.381	0.121	662762	keystroke	l	n/a
331.531	0.15	663062	keystroke	Key.space	n/a
331.666	0.09	663332	keystroke	c	n/a
331.816	0.105	663632	keystroke	a	n/a
332.102	0.104	664204	keystroke	p	n/a
332.506	0.105	665012	keystroke	i	n/a
332.596	0.105	665192	keystroke	t	n/a
332.881	0.09	665762	keystroke	o	n/a
333.107	0.15	666214	keystroke	l	n/a
333.287	0.135	666574	keystroke	Key.space	n/a
333.452	0.135	666904	keystroke	c	n/a
333.557	0.135	667114	keystroke	o	n/a
333.707	0.165	667414	keystroke	n	n/a
333.857	0.12	667714	keystroke	s	n/a
333.992	0.135	667984	keystroke	i	n/a
334.127	0.105	668254	keystroke	s	n/a
334.292	0.105	668584	keystroke	t	n/a
334.532	0.09	669064	keystroke	e	n/a
334.622	0.12	669244	keystroke	n	n/a
334.757	0.12	669514	keystroke	t	n/a
335.012	0.09	670024	keystroke	Key.enter	n/a
335.116	6.257	670232	prompt	n/a	lock distinct chile medline\n
335.852	0.12	671704	keystroke	l	n/a
336.001	0.121	672002	keystroke	o	n/a
336.196	0.136	672392	keystroke	c	n/a
336.317	0.18	672634	keystroke	k	n/a
336.482	0.135	672964	keystroke	Key.space	n/a
336.752	0.09	673504	keystroke	d	n/a
336.857	0.12	673714	keystroke	i	n/a
336.992	0.105	673984	keystroke	s	n/a
337.232	0.075	674464	keystroke	t	n/a
337.502	0.12	675004	keystroke	i	n/a
337.637	0.135	675274	keystroke	n	n/a
337.787	0.12	675574	keystroke	c	n/a
338.1315	0.135	676263	keystroke	t	n/a
338.3265	0.135	676653	keystroke	Key.space	n/a
338.5965	0.12	677193	keystroke	c	n/a
338.6565	0.1205	677313	keystroke	h	n/a
338.792	0.105	677584	keystroke	i	n/a
338.987	0.15	677974	keystroke	l	n/a
339.092	0.104	678184	keystroke	e	n/a
339.197	0.134	678394	keystroke	Key.space	n/a
339.391	0.15	678782	keystroke	m	n/a
339.526	0.06	679052	keystroke	e	n/a
339.736	0.12	679472	keystroke	d	n/a
340.471	0.195	680942	keystroke	l	n/a
340.667	0.1795	681334	keystroke	i	n/a
340.7865	0.165	681573	keystroke	n	n/a
341.0265	0.12	682053	keystroke	e	n/a
341.2515	0.12	682503	keystroke	Key.enter	n/a
341.3755	8.428	682751	prompt	n/a	recorder vanilla flesh novels\n
342.017	0.135	684034	keystroke	r	n/a
342.137	0.105	684274	keystroke	e	n/a
342.377	0.105	684754	keystroke	c	n/a
342.452	0.4195	684904	keystroke	o	n/a
342.632	0.1195	685264	keystroke	r	n/a
342.8875	0.089	685775	keystroke	d	n/a
343.1115	0.135	686223	keystroke	e	n/a
343.1865	0.135	686373	keystroke	r	n/a
343.3515	0.135	686703	keystroke	Key.space	n/a
343.5165	0.09	687033	keystroke	v	n/a
343.7865	0.12	687573	keystroke	a	n/a
343.9215	0.12	687843	keystroke	n	n/a
344.5815	0.0755	689163	keystroke	i	n/a
344.7765	0.0755	689553	keystroke	l	n/a
344.957	0.105	689914	keystroke	l	n/a
345.047	0.09	690094	keystroke	a	n/a
345.167	0.12	690334	keystroke	Key.space	n/a
345.272	0.0895	690544	keystroke	f	n/a
345.4215	0.1805	690843	keystroke	l	n/a
345.587	0.0895	691174	keystroke	e	n/a
345.9165	0.135	691833	keystroke	s	n/a
346.1265	0.12	692253	keystroke	h	n/a
346.2765	0.15	692553	keystroke	Key.space	n/a
346.6515	0.06	693303	keystroke	m	n/a
346.7415	0.15	693483	keystroke	p	n/a
346.9665	0.135	693933	keystroke	v	n/a
347.402	0.105	694804	keystroke	Key.backspace	n/a
347.597	0.075	695194	keystroke	Key.backspace	n/a
347.792	0.045	695584	keystroke	Key.backspace	n/a
348.467	0.075	696934	keystroke	n	n/a
348.662	0.1045	697324	keystroke	o	n/a
348.7675	0.119	697535	keystroke	v	n/a
348.9915	0.09	697983	keystroke	e	n/a
349.0665	0.135	698133	keystroke	l	n/a
349.2615	0.12	698523	keystroke	s	n/a
349.6965	0.105	699393	keystroke	Key.enter	n/a
349.814	5.419	699628	prompt	n/a	fold clerk wagner accessed\n
350.462	0.105	700924	keystroke	f	n/a
350.687	0.1045	701374	keystroke	o	n/a
350.927	0.12	701854	keystroke	l	n/a
350.9865	0.15	701973	keystroke	d	n/a
351.122	0.15	702244	keystroke	Key.space	n/a
351.332	0.09	702664	keystroke	c	n/a
351.602	0.165	703204	keystroke	l	n/a
351.812	0.135	703624	keystroke	e	n/a
351.917	0.135	703834	keystroke	r	n/a
352.037	0.135	704074	keystroke	k	n/a
352.157	0.165	704314	keystroke	Key.space	n/a
352.262	0.15	704524	keystroke	w	n/a
352.427	0.12	704854	keystroke	a	n/a
352.742	0.12	705484	keystroke	g	n/a
352.892	0.15	705784	keystroke	n	n/a
353.087	0.105	706174	keystroke	e	n/a
353.252	0.105	706504	keystroke	r	n/a
353.417	0.09	706834	keystroke	Key.space	n/a
353.582	0.12	707164	keystroke	a	n/a
353.867	0.09	707734	keystroke	c	n/a
354.092	0.0745	708184	keystroke	c	n/a
354.1815	0.1345	708363	keystroke	e	n/a
354.391	0.0905	708782	keystroke	s	n/a
354.586	0.136	709172	keystroke	s	n/a
354.737	0.045	709474	keystroke	e	n/a
354.887	0.15	709774	keystroke	d	n/a
355.112	0.12	710224	keystroke	Key.enter	n/a
355.2425	6.5305	710485	prompt	n/a	proceed newton rational encountered\n
355.9065	0.105	711813	keystroke	p	n/a
356.0265	0.09	712053	keystroke	r	n/a
356.1175	0.164	712235	keystroke	o	n/a
356.2965	0.105	712593	keystroke	c	n/a
356.4615	0.075	712923	keystroke	e	n/a
356.6715	0.075	713343	keystroke	e	n/a
356.881	0.106	713762	keystroke	d	n/a
357.001	0.136	714002	keystroke	Key.space	n/a
357.272	0.179	714544	keystroke	n	n/a
357.332	0.134	714664	keystroke	e	n/a
357.496	0.12	714992	keystroke	w	n/a
357.661	0.165	715322	keystroke	t	n/a
357.841	0.151	715682	keystroke	o	n/a
357.961	0.1955	715922	keystroke	n	n/a
358.1575	0.164	716315	keystroke	Key.space	n/a
358.2765	0.135	716553	keystroke	r	n/a
358.4865	0.105	716973	keystroke	a	n/a
358.7115	0.12	717423	keystroke	t	n/a
358.7865	0.165	717573	keystroke	i	n/a
358.8915	0.18	717783	keystroke	o	n/a
358.9815	0.165	717963	keystroke	n	n/a
359.1765	0.09	718353	keystroke	a	n/a
359.4615	0.15	718923	keystroke	l	n/a
359.7165	0.165	719433	keystroke	Key.space	n/a
359.8515	0.105	719703	keystroke	e	n/a
360.0315	0.12	720063	keystroke	n	n/a
360.2715	0.135	720543	keystroke	c	n/a
360.3915	0.1505	720783	keystroke	o	n/a
360.4665	0.1955	720933	keystroke	u	n/a
360.557	0.1945	721114	keystroke	n	n/a
360.662	0.1045	721324	keystroke	t	n/a
360.9015	0.12	721803	keystroke	e	n/a
360.9615	0.135	721923	keystroke	r	n/a
361.1865	0.105	722373	keystroke	e	n/a
361.3965	0.12	722793	keystroke	d	n/a
361.6665	0.105	723333	keystroke	Key.enter	n/a
361.776	6.898	723552	prompt	n/a	rica conditional rentals cincinnati\n
362.417	0.09	724834	keystroke	r	n/a
362.522	0.135	725044	keystroke	i	n/a
362.672	0.1345	725344	keystroke	c	n/a
363.0015	0.12	726003	keystroke	a	n/a
363.1665	0.135	726333	keystroke	Key.space	n/a
363.3465	0.12	726693	keystroke	c	n/a
363.4365	0.15	726873	keystroke	o	n/a
363.5115	0.18	727023	keystroke	n	n/a
363.977	0.15	727954	keystroke	d	n/a
364.307	0.135	728614	keystroke	i	n/a
364.442	0.105	728884	keystroke	t	n/a
364.562	0.105	729124	keystroke	i	n/a
364.652	0.1795	729304	keystroke	o	n/a
364.7865	0.135	729573	keystroke	n	n/a
364.9665	0.12	729933	keystroke	a	n/a
365.0715	0.15	730143	keystroke	l	n/a
365.2365	0.15	730473	keystroke	Key.space	n/a
365.3565	0.105	730713	keystroke	r	n/a
365.4625	0.119	730925	keystroke	e	n/a
365.6265	0.1505	731253	keystroke	n	n/a
365.732	0.105	731464	keystroke	t	n/a
365.927	0.12	731854	keystroke	a	n/a
366.032	0.165	732064	keystroke	l	n/a
366.212	0.12	732424	keystroke	s	n/a
366.347	0.135	732694	keystroke	Key.space	n/a
366.542	0.15	733084	keystroke	c	n/a
366.782	0.1045	733564	keystroke	i	n/a
367.0215	0.12	734043	keystroke	n	n/a
367.2165	0.165	734433	keystroke	c	n/a
367.3665	0.105	734733	keystroke	i	n/a
367.6065	0.09	735213	keystroke	n	n/a
367.802	0.105	735604	keystroke	n	n/a
367.937	0.105	735874	keystroke	a	n/a
368.1775	0.149	736355	keystroke	t	n/a
368.2965	0.135	736593	keystroke	i	n/a
368.5665	0.105	737133	keystroke	Key.enter	n/a
368.677	6.912	737354	prompt	n/a	satisfy soonest advantage florida\n
369.2265	0.09	738453	keystroke	s	n/a
369.4365	0.075	738873	keystroke	a	n/a
369.6165	0.12	739233	keystroke	t	n/a
369.7215	0.166	739443	keystroke	i	n/a
369.9015	0.135	739803	keystroke	s	n/a
370.097	0.12	740194	keystroke	f	n/a
370.397	0.1055	740794	keystroke	y	n/a
370.5465	0.12	741093	keystroke	Key.space	n/a
370.6815	0.165	741363	keystroke	s	n/a
370.8165	0.075	741633	keystroke	o	n/a
370.9815	0.09	741963	keystroke	n	n/a
371.1615	0.09	742323	keystroke	n	n/a
371.282	0.195	742564	keystroke	e	n/a
371.447	0.105	742894	keystroke	s	n/a
371.612	0.135	743224	keystroke	t	n/a
371.762	0.1345	743524	keystroke	Key.space	n/a
371.882	0.1795	743764	keystroke	a	n/a
372.032	0.12	744064	keystroke	d	n/a
372.301	0.091	744602	keystroke	v	n/a
372.512	0.12	745024	keystroke	a	n/a
372.647	0.1355	745294	keystroke	n	n/a
372.7525	0.105	745505	keystroke	t	n/a
372.9765	0.091	745953	keystroke	a	n/a
373.232	0.12	746464	keystroke	g	n/a
373.457	0.105	746914	keystroke	e	n/a
373.577	0.105	747154	keystroke	Key.space	n/a
373.727	0.12	747454	keystroke	f	n/a
373.848	0.149	747696	keystroke	l	n/a
373.952	0.165	747904	keystroke	o	n/a
374.102	0.12	748204	keystroke	r	n/a
374.282	0.15	748564	keystroke	i	n/a
375.002	0.135	750004	keystroke	d	n/a
375.272	0.135	750544	keystroke	a	n/a
375.497	0.09	750994	keystroke	Key.enter	n/a
375.6005	4.908	751201	prompt	n/a	salad dept tribune infants\n
376.1865	0.09	752373	keystroke	s	n/a
376.3815	0.12	752763	keystroke	a	n/a
376.4865	0.135	752973	keystroke	l	n/a
376.5915	0.105	753183	keystroke	a	n/a
376.7865	0.15	753573	keystroke	d	n/a
376.9215	0.12	753843	keystroke	Key.space	n/a
377.0565	0.105	754113	keystroke	d	n/a
377.2815	0.1055	754563	keystroke	e	n/a
377.642	0.135	755284	keystroke	p	n/a
377.837	0.12	755674	keystroke	t	n/a
378.002	0.135	756004	keystroke	Key.space	n/a
378.152	0.105	756304	keystroke	t	n/a
378.362	0.135	756724	keystroke	r	n/a
378.512	0.105	757024	keystroke	i	n/a
378.7515	0.1205	757503	keystroke	b	n/a
378.887	0.09	757774	keystroke	u	n/a
379.022	0.195	758044	keystroke	n	n/a
379.202	0.0895	758404	keystroke	e	n/a
379.2925	0.134	758585	keystroke	Key.space	n/a
379.4415	0.135	758883	keystroke	i	n/a
379.5615	0.135	759123	keystroke	n	n/a
379.6515	0.1205	759303	keystroke	f	n/a
379.877	0.12	759754	keystroke	a	n/a
380.012	0.1345	760024	keystroke	n	n/a
380.1615	0.12	760323	keystroke	t	n/a
380.4165	0.09	760833	keystroke	Key.enter	n/a
380.522	9.0615	761044	prompt	n/a	msgstr simulations melissa discussions\n
381.527	0.12	763054	keystroke	m	n/a
381.632	0.09	763264	keystroke	s	n/a
381.812	0.105	763624	keystroke	g	n/a
382.292	0.075	764584	keystroke	s	n/a
382.427	0.105	764854	keystroke	t	n/a
382.757	0.03	765514	keystroke	r	n/a
383.0265	0.105	766053	keystroke	Key.space	n/a
383.1475	0.179	766295	keystroke	s	n/a
383.2825	0.104	766565	keystroke	i	n/a
383.3565	0.135	766713	keystroke	m	n/a
383.6115	0.106	767223	keystroke	u	n/a
383.8365	0.135	767673	keystroke	l	n/a
383.9265	0.075	767853	keystroke	a	n/a
384.0915	0.105	768183	keystroke	t	n/a
384.2115	0.135	768423	keystroke	i	n/a
384.3765	0.09	768753	keystroke	n	n/a
385.127	0.105	770254	keystroke	Key.backspace	n/a
385.397	0.2395	770794	keystroke	o	n/a
385.5915	0.18	771183	keystroke	n	n/a
385.8165	0.225	771633	keystroke	s	n/a
386.2365	0.12	772473	keystroke	Key.space	n/a
386.612	0.135	773224	keystroke	m	n/a
386.807	0.135	773614	keystroke	e	n/a
386.927	0.15	773854	keystroke	l	n/a
387.092	0.135	774184	keystroke	i	n/a
387.212	0.12	774424	keystroke	s	n/a
387.407	0.075	774814	keystroke	s	n/a
387.602	0.075	775204	keystroke	a	n/a
387.692	0.12	775384	keystroke	Key.space	n/a
387.827	0.12	775654	keystroke	d	n/a
387.962	0.135	775924	keystroke	i	n/a
388.082	0.105	776164	keystroke	s	n/a
388.322	0.105	776644	keystroke	c	n/a
388.4415	0.1355	776883	keystroke	u	n/a
388.5615	0.105	777123	keystroke	s	n/a
388.772	0.1195	777544	keystroke	s	n/a
388.8765	0.151	777753	keystroke	i	n/a
389.0115	0.135	778023	keystroke	o	n/a
389.0575	0.18	778115	keystroke	n	n/a
389.1765	0.165	778353	keystroke	s	n/a
389.5365	0.0455	779073	keystroke	Key.enter	n/a
389.594	6.289	779188	prompt	n/a	furnished bullet database checkout\n
390.182	0.12	780364	keystroke	f	n/a
390.347	0.1045	780694	keystroke	u	n/a
390.7975	0.12	781595	keystroke	r	n/a
390.9465	0.12	781893	keystroke	n	n/a
391.1265	0.12	782253	keystroke	i	n/a
391.2015	0.135	782403	keystroke	s	n/a
391.3375	0.1345	782675	keystroke	h	n/a
391.502	0.09	783004	keystroke	e	n/a
391.712	0.105	783424	keystroke	d	n/a
391.832	0.09	783664	keystroke	Key.space	n/a
392.027	0.105	784054	keystroke	b	n/a
392.162	0.12	784324	keystroke	u	n/a
392.402	0.12	784804	keystroke	l	n/a
392.597	0.105	785194	keystroke	l	n/a
392.672	0.105	785344	keystroke	e	n/a
392.8515	0.12	785703	keystroke	t	n/a
392.9865	0.135	785973	keystroke	Key.space	n/a
393.0915	0.105	786183	keystroke	d	n/a
393.2865	0.105	786573	keystroke	a	n/a
393.4815	0.105	786963	keystroke	t	n/a
393.6615	0.105	787323	keystroke	a	n/a
393.7815	0.15	787563	keystroke	b	n/a
393.9165	0.09	787833	keystroke	a	n/a
394.1415	0.15	788283	keystroke	s	n/a
394.2765	0.12	788553	keystroke	e	n/a
394.4715	0.12	788943	keystroke	Key.space	n/a
394.6065	0.12	789213	keystroke	c	n/a
394.7115	0.1355	789423	keystroke	h	n/a
394.817	0.075	789634	keystroke	e	n/a
395.012	0.135	790024	keystroke	c	n/a
395.087	0.12	790174	keystroke	k	n/a
395.342	0.15	790684	keystroke	o	n/a
395.417	0.135	790834	keystroke	u	n/a
395.507	0.135	791014	keystroke	t	n/a
395.807	0.075	791614	keystroke	Key.enter	n/a
395.8855	4.858	791771	prompt	n/a	ending annually chrome moved\n
396.482	0.105	792964	keystroke	e	n/a
396.632	0.105	793264	keystroke	n	n/a
396.752	0.1345	793504	keystroke	d	n/a
396.8715	0.1505	793743	keystroke	i	n/a
397.097	0.165	794194	keystroke	n	n/a
397.247	0.09	794494	keystroke	g	n/a
397.382	0.135	794764	keystroke	Key.space	n/a
397.547	0.12	795094	keystroke	a	n/a
397.6975	0.059	795395	keystroke	n	n/a
397.8615	0.09	795723	keystroke	n	n/a
398.0115	0.09	796023	keystroke	u	n/a
398.1315	0.12	796263	keystroke	a	n/a
398.2665	0.105	796533	keystroke	l	n/a
398.4465	0.135	796893	keystroke	l	n/a
398.5365	0.105	797073	keystroke	y	n/a
398.6565	0.136	797313	keystroke	Key.space	n/a
398.8525	0.165	797705	keystroke	c	n/a
399.0025	0.12	798005	keystroke	h	n/a
399.182	0.135	798364	keystroke	r	n/a
399.332	0.165	798664	keystroke	o	n/a
399.437	0.195	798874	keystroke	m	n/a
399.587	0.12	799174	keystroke	e	n/a
399.692	0.135	799384	keystroke	Key.space	n/a
399.797	0.195	799594	keystroke	m	n/a
399.962	0.15	799924	keystroke	o	n/a
400.037	0.12	800074	keystroke	v	n/a
400.232	0.09	800464	keystroke	e	n/a
400.427	0.12	800854	keystroke	d	n/a
400.622	0.12	801244	keystroke	Key.enter	n/a
400.7475	7.1515	801495	prompt	n/a	spirits shepherd regions rather\n
401.2815	0.12	802563	keystroke	s	n/a
401.4315	0.1205	802863	keystroke	p	n/a
401.597	0.105	803194	keystroke	r	n/a
401.717	0.105	803434	keystroke	i	n/a
402.047	0.06	804094	keystroke	Key.backspace	n/a
402.182	0.075	804364	keystroke	Key.backspace	n/a
402.437	0.09	804874	keystroke	i	n/a
402.512	0.09	805024	keystroke	r	n/a
402.647	0.12	805294	keystroke	i	n/a
402.857	0.09	805714	keystroke	t	n/a
403.067	0.12	806134	keystroke	s	n/a
403.202	0.1495	806404	keystroke	Key.space	n/a
403.3365	0.15	806673	keystroke	s	n/a
403.4715	0.1205	806943	keystroke	h	n/a
403.6215	0.1355	807243	keystroke	e	n/a
403.772	0.135	807544	keystroke	p	n/a
404.1615	0.1205	808323	keystroke	h	n/a
404.462	0.0895	808924	keystroke	e	n/a
404.7165	0.09	809433	keystroke	r	n/a
404.9415	0.135	809883	keystroke	d	n/a
405.1065	0.15	810213	keystroke	Key.space	n/a
405.5115	0.105	811023	keystroke	r	n/a
405.6765	0.105	811353	keystroke	e	n/a
405.9015	0.1205	811803	keystroke	g	n/a
405.962	0.18	811924	keystroke	i	n/a
406.127	0.12	812254	keystroke	o	n/a
406.187	0.18	812374	keystroke	n	n/a
406.322	0.1345	812644	keystroke	s	n/a
406.472	0.12	812944	keystroke	Key.space	n/a
406.907	0.105	813814	keystroke	r	n/a
407.027	0.135	814054	keystroke	a	n/a
407.222	0.12	814444	keystroke	t	n/a
407.357	0.1355	814714	keystroke	h	n/a
407.507	0.12	815014	keystroke	e	n/a
407.582	0.12	815164	keystroke	r	n/a
407.807	0.09	815614	keystroke	Key.enter	n/a
407.9095	6.6945	815819	prompt	n/a	missouri enjoyed parcel child\n
408.587	0.1045	817174	keystroke	m	n/a
408.827	0.09	817654	keystroke	i	n/a
408.917	0.09	817834	keystroke	s	n/a
409.127	0.105	818254	keystroke	s	n/a
409.217	0.09	818434	keystroke	o	n/a
409.382	0.1355	818764	keystroke	u	n/a
409.5325	0.12	819065	keystroke	r	n/a
409.682	0.1655	819364	keystroke	i	n/a
409.8775	0.12	819755	keystroke	Key.space	n/a
410.0415	0.105	820083	keystroke	e	n/a
410.2665	0.091	820533	keystroke	n	n/a
410.6275	0.03	821255	keystroke	h	n/a
410.9865	0.091	821973	keystroke	Key.backspace	n/a
411.3165	0.12	822633	keystroke	j	n/a
411.5265	0.21	823053	keystroke	o	n/a
411.6465	0.105	823293	keystroke	y	n/a
411.9465	0.105	823893	keystroke	e	n/a
412.2015	0.12	824403	keystroke	d	n/a
412.3065	0.1205	824613	keystroke	Key.space	n/a
412.472	0.1355	824944	keystroke	p	n/a
412.562	0.1505	825124	keystroke	a	n/a
412.6825	0.104	825365	keystroke	r	n/a
412.9965	0.12	825993	keystroke	c	n/a
413.2975	0.105	826595	keystroke	e	n/a
413.4175	0.1795	826835	keystroke	l	n/a
413.581	0.1505	827162	keystroke	Key.space	n/a
413.777	0.119	827554	keystroke	c	n/a
413.8365	0.1055	827673	keystroke	h	n/a
413.9565	0.1045	827913	keystroke	i	n/a
414.1515	0.151	828303	keystroke	l	n/a
414.2565	0.135	828513	keystroke	d	n/a
414.5265	0.075	829053	keystroke	Key.enter	n/a
414.6075	6.9565	829215	prompt	n/a	strange unions ment appliances\n
415.1715	0.105	830343	keystroke	s	n/a
415.3815	0.06	830763	keystroke	t	n/a
415.5465	0.105	831093	keystroke	r	n/a
415.862	0.105	831724	keystroke	a	n/a
415.952	0.105	831904	keystroke	n	n/a
416.222	0.105	832444	keystroke	g	n/a
416.432	0.1195	832864	keystroke	e	n/a
416.5365	0.135	833073	keystroke	Key.space	n/a
416.7315	0.09	833463	keystroke	u	n/a
416.9115	0.135	833823	keystroke	n	n/a
417.1515	0.15	834303	keystroke	i	n/a
417.2715	0.165	834543	keystroke	o	n/a
417.3315	0.195	834663	keystroke	n	n/a
417.4665	0.165	834933	keystroke	s	n/a
417.6165	0.12	835233	keystroke	Key.space	n/a
417.8415	0.135	835683	keystroke	m	n/a
417.9775	0.104	835955	keystroke	e	n/a
418.0965	0.15	836193	keystroke	n	n/a
418.2915	0.12	836583	keystroke	t	n/a
418.4415	0.09	836883	keystroke	Key.space	n/a
418.8325	0.164	837665	keystroke	a	n/a
419.3565	0.09	838713	keystroke	p	n/a
419.5365	0.09	839073	keystroke	p	n/a
419.7765	0.18	839553	keystroke	l	n/a
419.9115	0.165	839823	keystroke	i	n/a
420.0615	0.105	840123	keystroke	c	n/a
420.4515	0.075	840903	keystroke	Key.backspace	n/a
420.6615	0.075	841323	keystroke	a	n/a
420.7375	0.1645	841475	keystroke	n	n/a
420.902	0.12	841804	keystroke	c	n/a
421.052	0.18	842104	keystroke	e	n/a
421.202	0.195	842404	keystroke	s	n/a
421.457	0.1045	842914	keystroke	Key.enter	n/a
421.5745	4.879	843149	prompt	n/a	andy lisa implement durham\n
422.192	0.1345	844384	keystroke	a	n/a
422.3115	0.166	844623	keystroke	n	n/a
422.4165	0.135	844833	keystroke	d	n/a
422.6565	0.12	845313	keystroke	y	n/a
422.7915	0.135	845583	keystroke	Key.space	n/a
422.9275	0.2095	845855	keystroke	l	n/a
423.0465	0.1805	846093	keystroke	i	n/a
423.197	0.1045	846394	keystroke	s	n/a
423.4215	0.105	846843	keystroke	a	n/a
423.5565	0.135	847113	keystroke	Key.space	n/a
423.7215	0.1505	847443	keystroke	i	n/a
423.857	0.165	847714	keystroke	m	n/a
424.037	0.09	848074	keystroke	p	n/a
424.247	0.105	848494	keystroke	l	n/a
424.382	0.09	848764	keystroke	e	n/a
424.517	0.135	849034	keystroke	m	n/a
424.607	0.105	849214	keystroke	e	n/a
424.757	0.135	849514	keystroke	n	n/a
424.832	0.12	849664	keystroke	t	n/a
424.997	0.1045	849994	keystroke	Key.space	n/a
425.1315	0.105	850263	keystroke	d	n/a
425.3115	0.12	850623	keystroke	u	n/a
425.4615	0.12	850923	keystroke	r	n/a
425.747	0.105	851494	keystroke	h	n/a
425.852	0.135	851704	keystroke	a	n/a
426.002	0.12	852004	keystroke	m	n/a
426.347	0.1045	852694	keystroke	Key.enter	n/a
426.456	7.5725	852912	prompt	n/a	tubes usgs usps scotland\n
427.0815	0.12	854163	keystroke	t	n/a
427.8015	0.1055	855603	keystroke	u	n/a
428.027	0.165	856054	keystroke	b	n/a
428.237	0.195	856474	keystroke	e	n/a
428.402	0.1345	856804	keystroke	s	n/a
428.5375	0.119	857075	keystroke	Key.space	n/a
428.6865	0.1055	857373	keystroke	s	n/a
429.077	0.0595	858154	keystroke	Key.backspace	n/a
429.3315	0.12	858663	keystroke	u	n/a
429.4365	0.105	858873	keystroke	s	n/a
429.6465	0.075	859293	keystroke	g	n/a
429.8115	0.135	859623	keystroke	s	n/a
430.0065	0.12	860013	keystroke	Key.space	n/a
430.5765	0.135	861153	keystroke	u	n/a
431.087	0.12	862174	keystroke	p	n/a
431.657	0.075	863314	keystroke	Key.backspace	n/a
431.762	0.15	863524	keystroke	s	n/a
431.912	0.15	863824	keystroke	p	n/a
432.077	0.12	864154	keystroke	s	n/a
432.212	0.15	864424	keystroke	Key.space	n/a
432.482	0.09	864964	keystroke	s	n/a
432.797	0.15	865594	keystroke	c	n/a
432.962	0.15	865924	keystroke	o	n/a
433.127	0.105	866254	keystroke	t	n/a
433.337	0.105	866674	keystroke	l	n/a
433.412	0.12	866824	keystroke	a	n/a
433.562	0.12	867124	keystroke	n	n/a
433.712	0.105	867424	keystroke	d	n/a
433.967	0.06	867934	keystroke	Key.enter	n/a
434.0395	5.659	868079	prompt	n/a	slot resort votes procedure\n
434.567	0.15	869134	keystroke	s	n/a
434.7915	0.1205	869583	keystroke	l	n/a
434.927	0.165	869854	keystroke	o	n/a
435.047	0.105	870094	keystroke	t	n/a
435.1665	0.1655	870333	keystroke	Key.space	n/a
435.347	0.105	870694	keystroke	r	n/a
435.437	0.105	870874	keystroke	e	n/a
435.647	0.135	871294	keystroke	s	n/a
435.812	0.1655	871624	keystroke	o	n/a
435.9615	0.076	871923	keystroke	r	n/a
436.1575	0.089	872315	keystroke	t	n/a
436.2765	0.135	872553	keystroke	Key.space	n/a
436.4865	0.105	872973	keystroke	v	n/a
436.6365	0.15	873273	keystroke	o	n/a
436.8315	0.105	873663	keystroke	t	n/a
437.0565	0.18	874113	keystroke	e	n/a
437.1915	0.12	874383	keystroke	s	n/a
437.2965	0.15	874593	keystroke	Key.space	n/a
437.5515	0.135	875103	keystroke	p	n/a
437.6565	0.105	875313	keystroke	r	n/a
437.8815	0.12	875763	keystroke	o	n/a
438.1215	0.135	876243	keystroke	c	n/a
438.2715	0.075	876543	keystroke	u	n/a
438.632	0.075	877264	keystroke	Key.backspace	n/a
438.737	0.075	877474	keystroke	e	n/a
438.917	0.12	877834	keystroke	d	n/a
439.022	0.12	878044	keystroke	u	n/a
439.202	0.135	878404	keystroke	r	n/a
439.367	0.09	878734	keystroke	e	n/a
439.622	0.075	879244	keystroke	Key.enter	n/a
439.701	6.3425	879402	prompt	n/a	basket addressing alloy symptoms\n
440.3425	0.105	880685	keystroke	b	n/a
440.4325	0.134	880865	keystroke	a	n/a
440.657	0.105	881314	keystroke	s	n/a
440.777	0.135	881554	keystroke	k	n/a
440.957	0.12	881914	keystroke	e	n/a
441.182	0.105	882364	keystroke	t	n/a
441.362	0.1195	882724	keystroke	Key.space	n/a
441.5565	0.105	883113	keystroke	a	n/a
441.7965	0.075	883593	keystroke	d	n/a
442.0065	0.075	884013	keystroke	d	n/a
442.2465	0.105	884493	keystroke	r	n/a
442.3365	0.21	884673	keystroke	e	n/a
442.5015	0.12	885003	keystroke	s	n/a
442.7265	0.09	885453	keystroke	s	n/a
442.8015	0.15	885603	keystroke	i	n/a
442.8915	0.21	885783	keystroke	n	n/a
443.0415	0.135	886083	keystroke	g	n/a
443.1615	0.12	886323	keystroke	Key.space	n/a
443.2965	0.135	886593	keystroke	a	n/a
443.4015	0.09	886803	keystroke	l	n/a
443.5665	0.12	887133	keystroke	l	n/a
443.6565	0.165	887313	keystroke	o	n/a
443.8365	0.075	887673	keystroke	y	n/a
443.9565	0.135	887913	keystroke	Key.space	n/a
444.2565	0.09	888513	keystroke	s	n/a
444.5115	0.09	889023	keystroke	y	n/a
444.7215	0.1055	889443	keystroke	m	n/a
444.962	0.12	889924	keystroke	p	n/a
445.097	0.12	890194	keystroke	t	n/a
445.247	0.195	890494	keystroke	o	n/a
445.457	0.15	890914	keystroke	m	n/a
445.667	0.15	891334	keystroke	s	n/a
445.952	0.09	891904	keystroke	Key.enter	n/a
446.0465	5.877	892093	prompt	n/a	student extremely saver gang\n
446.672	0.09	893344	keystroke	s	n/a
446.8365	0.105	893673	keystroke	t	n/a
447.0165	0.12	894033	keystroke	u	n/a
447.1215	0.105	894243	keystroke	d	n/a
447.3465	0.075	894693	keystroke	e	n/a
447.4065	0.15	894813	keystroke	n	n/a
447.5415	0.105	895083	keystroke	t	n/a
447.7065	0.135	895413	keystroke	Key.space	n/a
447.7965	0.06	895593	keystroke	e	n/a
448.0215	0.09	896043	keystroke	x	n/a
448.2465	0.075	896493	keystroke	t	n/a
448.4565	0.09	896913	keystroke	r	n/a
448.7425	0.0895	897485	keystroke	e	n/a
449.027	0.15	898054	keystroke	m	n/a
449.507	0.09	899014	keystroke	e	n/a
449.672	0.135	899344	keystroke	l	n/a
449.777	0.105	899554	keystroke	y	n/a
449.897	0.15	899794	keystroke	Key.space	n/a
450.062	0.075	900124	keystroke	s	n/a
450.227	0.075	900454	keystroke	a	n/a
450.422	0.105	900844	keystroke	v	n/a
450.647	0.15	901294	keystroke	e	n/a
450.737	0.15	901474	keystroke	r	n/a
450.872	0.135	901744	keystroke	Key.space	n/a
451.037	0.105	902074	keystroke	g	n/a
451.247	0.09	902494	keystroke	a	n/a
451.292	0.135	902584	keystroke	n	n/a
451.547	0.12	903094	keystroke	g	n/a
451.847	0.075	903694	keystroke	Key.enter	n/a
451.928	7.556	903856	prompt	n/a	eastern chance grades ratios\n
452.507	0.09	905014	keystroke	e	n/a
452.717	0.1045	905434	keystroke	a	n/a
452.9715	0.075	905943	keystroke	s	n/a
453.1515	0.09	906303	keystroke	t	n/a
453.3015	0.18	906603	keystroke	e	n/a
453.4215	0.15	906843	keystroke	r	n/a
453.5865	0.15	907173	keystroke	n	n/a
453.7215	0.12	907443	keystroke	Key.space	n/a
453.8875	0.119	907775	keystroke	c	n/a
453.9925	0.104	907985	keystroke	h	n/a
454.1125	0.119	908225	keystroke	a	n/a
454.2325	0.135	908465	keystroke	n	n/a
454.3815	0.106	908763	keystroke	g	n/a
454.5775	0.12	909155	keystroke	e	n/a
454.9225	0.059	909845	keystroke	Key.backspace	n/a
455.0865	0.09	910173	keystroke	Key.backspace	n/a
455.1925	0.119	910385	keystroke	c	n/a
455.3425	0.119	910685	keystroke	e	n/a
455.5065	0.135	911013	keystroke	Key.space	n/a
456.2715	0.09	912543	keystroke	g	n/a
456.5415	0.09	913083	keystroke	r	n/a
456.6765	0.15	913353	keystroke	a	n/a
456.9315	0.15	913863	keystroke	d	n/a
457.3515	0.105	914703	keystroke	e	n/a
457.5765	0.105	915153	keystroke	s	n/a
457.6965	0.135	915393	keystroke	Key.space	n/a
457.8765	0.105	915753	keystroke	r	n/a
458.1025	0.089	916205	keystroke	a	n/a
458.6115	0.105	917223	keystroke	t	n/a
458.7465	0.151	917493	keystroke	i	n/a
458.8975	0.165	917795	keystroke	o	n/a
459.137	0.12	918274	keystroke	s	n/a
459.437	0.045	918874	keystroke	Key.enter	n/a
459.495	4.6085	918990	prompt	n/a	beyond norm waiver bean\n
460.1275	0.12	920255	keystroke	b	n/a
460.2625	0.105	920525	keystroke	e	n/a
460.502	0.105	921004	keystroke	y	n/a
460.652	0.135	921304	keystroke	o	n/a
460.742	0.195	921484	keystroke	n	n/a
460.922	0.135	921844	keystroke	d	n/a
461.117	0.135	922234	keystroke	Key.space	n/a
461.417	0.12	922834	keystroke	n	n/a
461.552	0.09	923104	keystroke	o	n/a
461.627	0.135	923254	keystroke	r	n/a
461.777	0.165	923554	keystroke	m	n/a
461.927	0.15	923854	keystroke	Key.space	n/a
462.062	0.105	924124	keystroke	w	n/a
462.3025	0.075	924605	keystroke	a	n/a
462.4675	0.135	924935	keystroke	i	n/a
462.677	0.0605	925354	keystroke	v	n/a
462.842	0.15	925684	keystroke	e	n/a
462.962	0.135	925924	keystroke	r	n/a
463.112	0.1355	926224	keystroke	Key.space	n/a
463.3675	0.12	926735	keystroke	b	n/a
463.4425	0.09	926885	keystroke	e	n/a
463.6375	0.1195	927275	keystroke	a	n/a
463.742	0.105	927484	keystroke	n	n/a
464.012	0.09	928024	keystroke	Key.enter	n/a
464.108	5.5905	928216	prompt	n/a	worship asking values diabetes\n
464.7465	0.0905	929493	keystroke	w	n/a
464.882	0.12	929764	keystroke	o	n/a
465.003	0.104	930006	keystroke	r	n/a
465.242	0.12	930484	keystroke	s	n/a
465.302	0.12	930604	keystroke	h	n/a
465.407	0.12	930814	keystroke	i	n/a
465.632	0.15	931264	keystroke	p	n/a
465.767	0.135	931534	keystroke	Key.space	n/a
465.872	0.09	931744	keystroke	a	n/a
466.067	0.12	932134	keystroke	s	n/a
466.142	0.105	932284	keystroke	k	n/a
466.352	0.12	932704	keystroke	i	n/a
466.427	0.195	932854	keystroke	n	n/a
466.607	0.09	933214	keystroke	g	n/a
466.682	0.1355	933364	keystroke	Key.space	n/a
466.8625	0.1195	933725	keystroke	v	n/a
467.0875	0.1045	934175	keystroke	a	n/a
467.147	0.105	934294	keystroke	l	n/a
467.3275	0.135	934655	keystroke	u	n/a
467.4325	0.165	934865	keystroke	e	n/a
467.5675	0.135	935135	keystroke	s	n/a
467.7175	0.12	935435	keystroke	Key.space	n/a
467.8675	0.105	935735	keystroke	d	n/a
468.0775	0.105	936155	keystroke	i	n/a
468.3025	0.105	936605	keystroke	a	n/a
468.782	0.1045	937564	keystroke	b	n/a
468.9015	0.105	937803	keystroke	e	n/a
469.0965	0.09	938193	keystroke	t	n/a
469.2315	0.09	938463	keystroke	e	n/a
469.4115	0.135	938823	keystroke	s	n/a
469.6065	0.09	939213	keystroke	Key.enter	n/a
469.7055	6.188	939411	prompt	n/a	simon strain billy departments\n
470.4025	0.105	940805	keystroke	s	n/a
470.6125	0.165	941225	keystroke	i	n/a
470.7325	0.1945	941465	keystroke	m	n/a
470.972	0.165	941944	keystroke	o	n/a
471.152	0.15	942304	keystroke	n	n/a
471.4225	0.12	942845	keystroke	Key.space	n/a
471.5875	0.15	943175	keystroke	s	n/a
471.7675	0.09	943535	keystroke	t	n/a
472.0375	0.105	944075	keystroke	r	n/a
472.2775	0.105	944555	keystroke	a	n/a
472.3675	0.12	944735	keystroke	i	n/a
472.502	0.15	945004	keystroke	n	n/a
472.6675	0.0895	945335	keystroke	Key.space	n/a
472.802	0.12	945604	keystroke	b	n/a
472.997	0.105	945994	keystroke	i	n/a
473.207	0.105	946414	keystroke	l	n/a
473.387	0.12	946774	keystroke	l	n/a
473.492	0.09	946984	keystroke	y	n/a
473.597	0.18	947194	keystroke	Key.space	n/a
473.762	0.06	947524	keystroke	d	n/a
473.9575	0.12	947915	keystroke	e	n/a
474.0925	0.165	948185	keystroke	p	n/a
474.5875	0.105	949175	keystroke	a	n/a
474.7075	0.075	949415	keystroke	r	n/a
474.9025	0.09	949805	keystroke	t	n/a
475.1275	0.12	950255	keystroke	m	n/a
475.2325	0.105	950465	keystroke	e	n/a
475.3525	0.1345	950705	keystroke	n	n/a
475.442	0.105	950884	keystroke	t	n/a
475.6525	0.105	951305	keystroke	s	n/a
475.8325	0.059	951665	keystroke	Key.enter	n/a
475.8965	8.173	951793	prompt	n/a	ethernet concept breathing installations\n
476.6125	0.09	953225	keystroke	e	n/a
476.837	0.105	953674	keystroke	t	n/a
476.957	0.135	953914	keystroke	h	n/a
477.077	0.195	954154	keystroke	e	n/a
477.227	0.1355	954454	keystroke	r	n/a
477.4075	0.12	954815	keystroke	n	n/a
477.4975	0.12	954995	keystroke	e	n/a
477.6925	0.105	955385	keystroke	t	n/a
477.8125	0.12	955625	keystroke	Key.space	n/a
478.0075	0.135	956015	keystroke	c	n/a
478.0825	0.12	956165	keystroke	o	n/a
478.1575	0.21	956315	keystroke	n	n/a
478.2925	0.09	956585	keystroke	e	n/a
478.907	0.105	957814	keystroke	Key.backspace	n/a
479.027	0.09	958054	keystroke	c	n/a
479.177	0.105	958354	keystroke	e	n/a
479.327	0.18	958654	keystroke	p	n/a
479.477	0.12	958954	keystroke	t	n/a
479.612	0.15	959224	keystroke	Key.space	n/a
479.942	0.12	959884	keystroke	b	n/a
480.062	0.135	960124	keystroke	r	n/a
480.212	0.075	960424	keystroke	e	n/a
480.407	0.105	960814	keystroke	a	n/a
480.632	0.12	961264	keystroke	t	n/a
480.8115	0.151	961623	keystroke	h	n/a
481.0075	0.164	962015	keystroke	i	n/a
481.1275	0.194	962255	keystroke	n	n/a
481.2925	0.119	962585	keystroke	g	n/a
481.4415	0.12	962883	keystroke	Key.space	n/a
481.6215	0.1805	963243	keystroke	i	n/a
481.7425	0.1645	963485	keystroke	n	n/a
482.057	0.12	964114	keystroke	s	n/a
482.267	0.105	964534	keystroke	t	n/a
482.447	0.135	964894	keystroke	a	n/a
482.837	0.105	965674	keystroke	l	n/a
483.017	0.12	966034	keystroke	l	n/a
483.122	0.09	966244	keystroke	a	n/a
483.302	0.105	966604	keystroke	t	n/a
483.377	0.195	966754	keystroke	i	n/a
483.512	0.1345	967024	keystroke	o	n/a
483.557	0.1655	967114	keystroke	n	n/a
483.7075	0.15	967415	keystroke	s	n/a
483.9765	0.091	967953	keystroke	Key.enter	n/a
484.08	4.3235	968160	prompt	n/a	as qualification site wife\n
484.6815	0.075	969363	keystroke	a	n/a
484.877	0.09	969754	keystroke	s	n/a
484.982	0.12	969964	keystroke	Key.space	n/a
485.147	0.105	970294	keystroke	q	n/a
485.267	0.075	970534	keystroke	u	n/a
485.387	0.1205	970774	keystroke	a	n/a
485.4925	0.195	970985	keystroke	l	n/a
485.6275	0.105	971255	keystroke	i	n/a
485.7775	0.105	971555	keystroke	f	n/a
485.8375	0.135	971675	keystroke	i	n/a
486.0325	0.12	972065	keystroke	c	n/a
486.1825	0.12	972365	keystroke	a	n/a
486.3775	0.1195	972755	keystroke	t	n/a
486.4525	0.1645	972905	keystroke	i	n/a
486.557	0.15	973114	keystroke	o	n/a
486.632	0.1805	973264	keystroke	n	n/a
486.8275	0.06	973655	keystroke	Key.space	n/a
486.8575	0.12	973715	keystroke	s	n/a
486.9775	0.18	973955	keystroke	i	n/a
487.0975	0.12	974195	keystroke	t	n/a
487.2475	0.1045	974495	keystroke	e	n/a
487.353	0.134	974706	keystroke	Key.space	n/a
487.472	0.12	974944	keystroke	w	n/a
487.607	0.135	975214	keystroke	i	n/a
487.772	0.045	975544	keystroke	f	n/a
488.117	0.09	976234	keystroke	e	n/a
488.297	0.105	976594	keystroke	Key.enter	n/a
488.4075	7.0765	976815	prompt	n/a	security transit battlefield passive\n
489.152	0.18	978304	keystroke	s	n/a
489.302	0.09	978604	keystroke	e	n/a
489.527	0.135	979054	keystroke	c	n/a
489.677	0.12	979354	keystroke	u	n/a
489.827	0.09	979654	keystroke	r	n/a
489.962	0.135	979924	keystroke	i	n/a
490.082	0.075	980164	keystroke	t	n/a
490.337	0.09	980674	keystroke	y	n/a
490.5325	0.12	981065	keystroke	Key.space	n/a
490.8765	0.09	981753	keystroke	t	n/a
491.1015	0.09	982203	keystroke	r	n/a
491.2515	0.166	982503	keystroke	a	n/a
491.4015	0.105	982803	keystroke	n	n/a
491.5215	0.12	983043	keystroke	s	n/a
491.6865	0.1505	983373	keystroke	i	n/a
491.7915	0.1055	983583	keystroke	t	n/a
492.002	0.09	984004	keystroke	e	n/a
492.107	0.1205	984214	keystroke	Key.space	n/a
492.347	0.135	984694	keystroke	b	n/a
492.422	0.105	984844	keystroke	a	n/a
492.632	0.075	985264	keystroke	t	n/a
492.812	0.09	985624	keystroke	t	n/a
492.947	0.15	985894	keystroke	l	n/a
493.037	0.105	986074	keystroke	e	n/a
493.3525	0.104	986705	keystroke	f	n/a
493.4725	0.104	986945	keystroke	i	n/a
493.6365	0.09	987273	keystroke	e	n/a
493.7565	0.135	987513	keystroke	l	n/a
493.8615	0.15	987723	keystroke	d	n/a
494.0125	0.134	988025	keystroke	Key.space	n/a
494.2965	0.12	988593	keystroke	p	n/a
494.3565	0.09	988713	keystroke	a	n/a
494.567	0.06	989134	keystroke	s	n/a
494.7325	0.09	989465	keystroke	s	n/a
494.8525	0.12	989705	keystroke	i	n/a
494.9875	0.12	989975	keystroke	v	n/a
495.2125	0.075	990425	keystroke	e	n/a
495.4075	0.075	990815	keystroke	Key.enter	n/a
495.489	7.675	990978	prompt	n/a	quizzes lectures revolution tomatoes\n
496.1875	0.06	992375	keystroke	q	n/a
496.2625	0.18	992525	keystroke	u	n/a
496.3825	0.18	992765	keystroke	i	n/a
496.5775	0.09	993155	keystroke	z	n/a
496.8325	0.045	993665	keystroke	z	n/a
497.492	0.03	994984	keystroke	e	n/a
497.657	0.15	995314	keystroke	s	n/a
497.867	0.12	995734	keystroke	Key.space	n/a
498.107	0.075	996214	keystroke	l	n/a
498.137	0.075	996274	keystroke	e	n/a
498.362	0.12	996724	keystroke	c	n/a
498.872	0.105	997744	keystroke	t	n/a
499.007	0.135	998014	keystroke	u	n/a
499.172	0.105	998344	keystroke	r	n/a
499.247	0.24	998494	keystroke	e	n/a
499.442	0.105	998884	keystroke	s	n/a
499.577	0.105	999154	keystroke	Key.space	n/a
499.7425	0.12	999485	keystroke	r	n/a
499.8025	0.15	999605	keystroke	e	n/a
500.0875	0.135	1000175	keystroke	v	n/a
500.2075	0.09	1000415	keystroke	o	n/a
500.4475	0.09	1000895	keystroke	l	n/a
500.6125	0.105	1001225	keystroke	u	n/a
500.8975	0.09	1001795	keystroke	t	n/a
501.0475	0.12	1002095	keystroke	i	n/a
501.2115	0.166	1002423	keystroke	o	n/a
501.3315	0.195	1002663	keystroke	n	n/a
501.5115	0.12	1003023	keystroke	Key.space	n/a
501.5865	0.09	1003173	keystroke	t	n/a
501.7665	0.135	1003533	keystroke	o	n/a
502.0665	0.135	1004133	keystroke	m	n/a
502.1865	0.076	1004373	keystroke	a	n/a
502.382	0.105	1004764	keystroke	t	n/a
502.5325	0.15	1005065	keystroke	o	n/a
502.7125	0.21	1005425	keystroke	e	n/a
502.8775	0.105	1005755	keystroke	s	n/a
503.0575	0.105	1006115	keystroke	Key.enter	n/a
503.175	7.6395	1006350	prompt	n/a	composer participant flights counting\n
503.7625	0.15	1007525	keystroke	c	n/a
503.8075	0.12	1007615	keystroke	o	n/a
504.2125	0.119	1008425	keystroke	m	n/a
504.4215	0.18	1008843	keystroke	p	n/a
504.5865	0.135	1009173	keystroke	o	n/a
504.7815	0.15	1009563	keystroke	s	n/a
504.9165	0.15	1009833	keystroke	e	n/a
505.0365	0.12	1010073	keystroke	r	n/a
505.1865	0.135	1010373	keystroke	Key.space	n/a
505.4275	0.1495	1010855	keystroke	p	n/a
505.562	0.165	1011124	keystroke	a	n/a
505.667	0.09	1011334	keystroke	r	n/a
505.862	0.0895	1011724	keystroke	t	n/a
505.9365	0.105	1011873	keystroke	i	n/a
506.1315	0.12	1012263	keystroke	c	n/a
506.2525	0.119	1012505	keystroke	i	n/a
506.7025	0.09	1013405	keystroke	p	n/a
506.8525	0.105	1013705	keystroke	a	n/a
507.002	0.1505	1014004	keystroke	n	n/a
507.1375	0.12	1014275	keystroke	t	n/a
507.2875	0.1345	1014575	keystroke	Key.space	n/a
507.482	0.135	1014964	keystroke	f	n/a
508.217	0.18	1016434	keystroke	l	n/a
508.337	0.135	1016674	keystroke	i	n/a
508.457	0.09	1016914	keystroke	g	n/a
508.577	0.15	1017154	keystroke	h	n/a
508.712	0.09	1017424	keystroke	t	n/a
508.907	0.1355	1017814	keystroke	s	n/a
509.1325	0.1345	1018265	keystroke	Key.space	n/a
509.5225	0.1495	1019045	keystroke	c	n/a
509.597	0.15	1019194	keystroke	o	n/a
509.702	0.15	1019404	keystroke	u	n/a
509.897	0.15	1019794	keystroke	n	n/a
510.092	0.09	1020184	keystroke	t	n/a
510.212	0.12	1020424	keystroke	i	n/a
510.302	0.15	1020604	keystroke	n	n/a
510.467	0.135	1020934	keystroke	g	n/a
510.737	0.0755	1021474	keystroke	Key.enter	n/a
510.825	6.4835	1021650	prompt	n/a	occurrence tenant allah kissing\n
511.3375	0.12	1022675	keystroke	c	n/a
