onset	duration	sample	value	key	prompt_text
1.6285	24.264	3257	prompt	n/a	the quick brown fox jumps over a lazy dog\n
3.0015	0.028	6003	keystroke_t	t	n/a
3.1195	0.06	6239	keystroke_h	h	n/a
3.2995	0.105	6599	keystroke_e	e	n/a
3.4645	0.075	6929	keystroke_Key.space	Key.space	n/a
7.911	0.408	15822	keystroke_Key.ctrl_l	Key.ctrl_l	n/a
8.388	0.3865	16776	keystroke_Key.ctrl_l	Key.ctrl_l	n/a
14.072	0.043	28144	keystroke_q	q	n/a
14.175	0.03	28350	keystroke_u	u	n/a
14.445	0.075	28890	keystroke_i	i	n/a
14.5945	0.12	29189	keystroke_c	c	n/a
14.6695	0.105	29339	keystroke_k	k	n/a
14.8495	0.12	29699	keystroke_Key.space	Key.space	n/a
15.2995	0.06	30599	keystroke_b	b	n/a
15.5845	0.09	31169	keystroke_r	r	n/a
15.7045	0.075	31409	keystroke_o	o	n/a
15.8395	0.105	31679	keystroke_w	w	n/a
15.9595	0.12	31919	keystroke_n	n	n/a
16.0645	0.12	32129	keystroke_Key.space	Key.space	n/a
16.1995	0.105	32399	keystroke_f	f	n/a
16.32	0.075	32640	keystroke_o	o	n/a
16.68	0.0745	33360	keystroke_x	x	n/a
17.37	0.12	34740	keystroke_Key.space	Key.space	n/a
18.1655	0.075	36331	keystroke_j	j	n/a
18.3605	0.06	36721	keystroke_u	u	n/a
18.5255	0.09	37051	keystroke_m	m	n/a
18.6905	0.09	37381	keystroke_p	p	n/a
18.8855	0.09	37771	keystroke_s	s	n/a
19.1855	0.105	38371	keystroke_Key.space	Key.space	n/a
19.4255	0.075	38851	keystroke_o	o	n/a
19.6055	0.135	39211	keystroke_v	v	n/a
19.7555	0.165	39511	keystroke_e	e	n/a
19.8605	0.12	39721	keystroke_r	r	n/a
19.9655	0.105	39931	keystroke_Key.space	Key.space	n/a
20.1005	0.12	40201	keystroke_a	a	n/a
20.2055	0.12	40411	keystroke_Key.space	Key.space	n/a
20.4455	0.09	40891	keystroke_l	l	n/a
20.5655	0.105	41131	keystroke_a	a	n/a
20.7905	0.135	41581	keystroke_z	z	n/a
20.8805	0.105	41761	keystroke_y	y	n/a
21.0155	0.09	42031	keystroke_Key.space	Key.space	n/a
21.2255	0.075	42451	keystroke_f	f	n/a
21.7205	0.075	43441	keystroke_Key.backspace	Key.backspace	n/a
21.8105	0.06	43621	keystroke_g	g	n/a
21.9305	0.075	43861	keystroke_o	o	n/a
22.0655	0.105	44131	keystroke_d	d	n/a
22.3505	0.075	44701	keystroke_Key.backspace	Key.backspace	n/a
22.4855	0.06	44971	keystroke_Key.backspace	Key.backspace	n/a
22.6355	0.06	45271	keystroke_Key.backspace	Key.backspace	n/a
23.2655	0.06	46531	keystroke_g	g	n/a
23.4155	0.075	46831	keystroke_o	o	n/a
23.5205	0.105	47041	keystroke_d	d	n/a
23.9555	0.06	47911	keystroke_Key.backspace	Key.backspace	n/a
24.1205	0.06	48241	keystroke_Key.backspace	Key.backspace	n/a
24.2705	0.075	48541	keystroke_Key.backspace	Key.backspace	n/a
24.7955	0.105	49591	keystroke_d	d	n/a
24.9305	0.09	49861	keystroke_o	o	n/a
25.0805	0.075	50161	keystroke_g	g	n/a
25.815	0.075	51630	keystroke_Key.enter	Key.enter	n/a
25.896	5.3355	51792	prompt	n/a	has means lloyd rivers\n
26.88	0.0755	53760	keystroke_h	h	n/a
27.0905	0.12	54181	keystroke_a	a	n/a
27.2555	0.105	54511	keystroke_s	s	n/a
27.3755	0.075	54751	keystroke_Key.space	Key.space	n/a
27.5405	0.0895	55081	keystroke_m	m	n/a
27.615	0.105	55230	keystroke_e	e	n/a
27.81	0.105	55620	keystroke_a	a	n/a
27.9	0.075	55800	keystroke_n	n	n/a
28.0795	0.09	56159	keystroke_s	s	n/a
28.2145	0.09	56429	keystroke_Key.space	Key.space	n/a
28.47	0.06	56940	keystroke_l	l	n/a
28.6045	0.09	57209	keystroke_l	l	n/a
28.8595	0.0905	57719	keystroke_o	o	n/a
29.1295	0.06	58259	keystroke_y	y	n/a
29.4145	0.135	58829	keystroke_d	d	n/a
29.5795	0.105	59159	keystroke_Key.space	Key.space	n/a
29.8795	0.105	59759	keystroke_r	r	n/a
29.9695	0.105	59939	keystroke_i	i	n/a
30.1195	0.18	60239	keystroke_v	v	n/a
30.2695	0.18	60539	keystroke_e	e	n/a
30.3745	0.15	60749	keystroke_r	r	n/a
30.6145	0.12	61229	keystroke_s	s	n/a
31.1545	0.075	62309	keystroke_Key.enter	Key.enter	n/a
31.234	13.276	62468	prompt	n/a	publication parental msgstr resolution\n
32.1455	0.074	64291	keystroke_p	p	n/a
32.4	0.075	64800	keystroke_u	u	n/a
32.595	0.075	65190	keystroke_b	b	n/a
32.82	0.09	65640	keystroke_l	l	n/a
33.075	0.075	66150	keystroke_i	i	n/a
33.21	0.105	66420	keystroke_c	c	n/a
33.375	0.105	66750	keystroke_a	a	n/a
33.6	0.105	67200	keystroke_t	t	n/a
33.69	0.06	67380	keystroke_i	i	n/a
33.855	0.06	67710	keystroke_o	o	n/a
34.0195	0.105	68039	keystroke_n	n	n/a
34.1395	0.105	68279	keystroke_Key.space	Key.space	n/a
34.3495	0.106	68699	keystroke_p	p	n/a
34.5	0.105	69000	keystroke_a	a	n/a
34.71	0.165	69420	keystroke_r	r	n/a
34.83	0.135	69660	keystroke_e	e	n/a
34.995	0.09	69990	keystroke_n	n	n/a
35.175	0.075	70350	keystroke_t	t	n/a
35.4305	0.1045	70861	keystroke_a	a	n/a
35.55	0.12	71100	keystroke_l	l	n/a
35.655	0.1045	71310	keystroke_Key.space	Key.space	n/a
35.9395	0.105	71879	keystroke_m	m	n/a
36.1495	0.075	72299	keystroke_s	s	n/a
36.42	0.135	72840	keystroke_g	g	n/a
36.72	0.105	73440	keystroke_s	s	n/a
36.945	0.105	73890	keystroke_t	t	n/a
37.5	0.105	75000	keystroke_r	r	n/a
37.62	0.09	75240	keystroke_Key.space	Key.space	n/a
37.86	0.15	75720	keystroke_r	r	n/a
37.98	0.135	75960	keystroke_e	e	n/a
39.1795	0.12	78359	keystroke_s	s	n/a
39.3595	0.06	78719	keystroke_o	o	n/a
39.5395	0.06	79079	keystroke_l	l	n/a
39.7345	0.06	79469	keystroke_u	u	n/a
39.8995	0.09	79799	keystroke_t	t	n/a
40.0045	0.075	80009	keystroke_i	i	n/a
40.1845	0.075	80369	keystroke_o	o	n/a
40.4245	0.09	80849	keystroke_n	n	n/a
44.5075	0	89015	keystroke_Key.enter	Key.enter	n/a
44.5125	7.044	89025	prompt	n/a	elephant rule bodies deputy\n
45.2405	0.1195	90481	keystroke_e	e	n/a
45.42	0.09	90840	keystroke_l	l	n/a
45.495	0.12	90990	keystroke_e	e	n/a
45.675	0.075	91350	keystroke_p	p	n/a
46.59	0.045	93180	keystroke_h	h	n/a
46.665	0.105	93330	keystroke_a	a	n/a
46.815	0.09	93630	keystroke_n	n	n/a
46.966	0.089	93932	keystroke_t	t	n/a
47.07	0.135	94140	keystroke_Key.space	Key.space	n/a
47.265	0.105	94530	keystroke_r	r	n/a
47.4	0.06	94800	keystroke_u	u	n/a
47.61	0.09	95220	keystroke_l	l	n/a
47.745	0.09	95490	keystroke_e	e	n/a
47.865	0.09	95730	keystroke_Key.space	Key.space	n/a
48.0905	0.075	96181	keystroke_b	b	n/a
48.2705	0.09	96541	keystroke_o	o	n/a
48.4205	0.12	96841	keystroke_d	d	n/a
48.5705	0.09	97141	keystroke_i	i	n/a
48.6755	0.075	97351	keystroke_e	e	n/a
48.8405	0.12	97681	keystroke_s	s	n/a
48.9005	0.1195	97801	keystroke_Key.space	Key.space	n/a
49.275	0.1205	98550	keystroke_d	d	n/a
49.38	0.105	98760	keystroke_e	e	n/a
49.77	0.09	99540	keystroke_p	p	n/a
49.995	0.075	99990	keystroke_u	u	n/a
50.145	0.09	100290	keystroke_t	t	n/a
50.805	0.09	101610	keystroke_y	y	n/a
51.48	0.075	102960	keystroke_Key.enter	Key.enter	n/a
51.5595	6.357	103119	prompt	n/a	force fuel control criminal\n
52.14	0.12	104280	keystroke_f	f	n/a
52.32	0.105	104640	keystroke_o	o	n/a
52.41	0.12	104820	keystroke_r	r	n/a
52.89	0.09	105780	keystroke_c	c	n/a
53.04	0.106	106080	keystroke_e	e	n/a
53.175	0.12	106350	keystroke_Key.space	Key.space	n/a
53.31	0.105	106620	keystroke_f	f	n/a
53.49	0.075	106980	keystroke_u	u	n/a
53.79	0.09	107580	keystroke_e	e	n/a
53.94	0.12	107880	keystroke_l	l	n/a
54.075	0.105	108150	keystroke_Key.space	Key.space	n/a
54.225	0.1055	108450	keystroke_c	c	n/a
54.3455	0.06	108691	keystroke_o	o	n/a
54.5105	0.09	109021	keystroke_n	n	n/a
54.5705	0.105	109141	keystroke_t	t	n/a
54.7505	0.09	109501	keystroke_r	r	n/a
54.9005	0.075	109801	keystroke_o	o	n/a
55.1105	0.03	110221	keystroke_k	k	n/a
55.2905	0.09	110581	keystroke_l	l	n/a
55.6055	0.045	111211	keystroke_Key.backspace	Key.backspace	n/a
55.7255	0.075	111451	keystroke_Key.backspace	Key.backspace	n/a
55.935	0.105	111870	keystroke_l	l	n/a
56.07	0.105	112140	keystroke_Key.space	Key.space	n/a
56.235	0.12	112470	keystroke_c	c	n/a
56.46	0.105	112920	keystroke_r	r	n/a
56.55	0.06	113100	keystroke_i	i	n/a
56.715	0.09	113430	keystroke_m	m	n/a
56.925	0.045	113850	keystroke_i	i	n/a
57.0605	0.09	114121	keystroke_n	n	n/a
57.1805	0.135	114361	keystroke_a	a	n/a
57.3005	0.09	114601	keystroke_l	l	n/a
57.8405	0.075	115681	keystroke_Key.enter	Key.enter	n/a
57.92	6.897	115840	prompt	n/a	funk marvel designer tropical\n
58.6655	0.105	117331	keystroke_f	f	n/a
58.8455	0.075	117691	keystroke_u	u	n/a
59.04	0.09	118080	keystroke_n	n	n/a
59.205	0.09	118410	keystroke_k	k	n/a
59.325	0.105	118650	keystroke_Key.space	Key.space	n/a
59.505	0.105	119010	keystroke_m	m	n/a
59.58	0.135	119160	keystroke_a	a	n/a
59.745	0.09	119490	keystroke_r	r	n/a
60.3	0.18	120600	keystroke_v	v	n/a
60.525	0.12	121050	keystroke_e	e	n/a
60.615	0.09	121230	keystroke_l	l	n/a
60.78	0.15	121560	keystroke_Key.space	Key.space	n/a
61.05	0.105	122100	keystroke_d	d	n/a
61.156	0.104	122312	keystroke_e	e	n/a
61.47	0.12	122940	keystroke_s	s	n/a
61.605	0.0905	123210	keystroke_i	i	n/a
61.7255	0.12	123451	keystroke_g	g	n/a
61.8605	0.075	123721	keystroke_n	n	n/a
61.9805	0.21	123961	keystroke_e	e	n/a
62.1455	0.15	124291	keystroke_r	r	n/a
62.3105	0.12	124621	keystroke_Key.space	Key.space	n/a
62.9405	0.12	125881	keystroke_t	t	n/a
63.1055	0.135	126211	keystroke_r	r	n/a
63.2105	0.075	126421	keystroke_o	o	n/a
63.4505	0.075	126901	keystroke_p	p	n/a
63.6755	0.075	127351	keystroke_i	i	n/a
63.8105	0.09	127621	keystroke_c	c	n/a
63.9605	0.15	127921	keystroke_a	a	n/a
64.0355	0.105	128071	keystroke_l	l	n/a
64.74	0.075	129480	keystroke_Key.enter	Key.enter	n/a
64.8195	5.9825	129639	prompt	n/a	highlight require diet bass\n
65.5955	0.075	131191	keystroke_h	h	n/a
65.7755	0.09	131551	keystroke_i	i	n/a
65.8805	0.105	131761	keystroke_g	g	n/a
66.0155	0.075	132031	keystroke_h	h	n/a
66.2105	0.09	132421	keystroke_l	l	n/a
66.4505	0.075	132901	keystroke_i	i	n/a
66.6605	0.045	133321	keystroke_g	g	n/a
66.7955	0.09	133591	keystroke_h	h	n/a
66.9005	0.105	133801	keystroke_t	t	n/a
67.0355	0.09	134071	keystroke_Key.space	Key.space	n/a
67.3355	0.225	134671	keystroke_r	r	n/a
67.5155	0.135	135031	keystroke_e	e	n/a
67.83	0.135	135660	keystroke_q	q	n/a
67.905	0.075	135810	keystroke_u	u	n/a
68.07	0.105	136140	keystroke_i	i	n/a
68.16	0.195	136320	keystroke_r	r	n/a
68.325	0.15	136650	keystroke_e	e	n/a
68.4905	0.105	136981	keystroke_Key.space	Key.space	n/a
68.9105	0.104	137821	keystroke_d	d	n/a
69.0155	0.075	138031	keystroke_i	i	n/a
69.3305	0.104	138661	keystroke_e	e	n/a
69.5405	0.12	139081	keystroke_t	t	n/a
69.6305	0.09	139261	keystroke_Key.space	Key.space	n/a
69.8405	0.09	139681	keystroke_b	b	n/a
69.9005	0.09	139801	keystroke_a	a	n/a
70.1105	0.09	140221	keystroke_s	s	n/a
70.2605	0.09	140521	keystroke_s	s	n/a
70.7095	0.09	141419	keystroke_Key.enter	Key.enter	n/a
70.806	6.0705	141612	prompt	n/a	henry meant healthy reception\n
71.505	0.075	143010	keystroke_h	h	n/a
71.655	0.105	143310	keystroke_e	e	n/a
71.925	0.105	143850	keystroke_n	n	n/a
72.5395	0.09	145079	keystroke_r	r	n/a
72.6445	0.075	145289	keystroke_y	y	n/a
72.7045	0.121	145409	keystroke_Key.space	Key.space	n/a
72.9605	0.104	145921	keystroke_m	m	n/a
73.0795	0.09	146159	keystroke_e	e	n/a
73.2595	0.105	146519	keystroke_a	a	n/a
73.3795	0.09	146759	keystroke_n	n	n/a
73.5295	0.136	147059	keystroke_t	t	n/a
73.6655	0.104	147331	keystroke_Key.space	Key.space	n/a
73.8745	0.09	147749	keystroke_h	h	n/a
73.9495	0.09	147899	keystroke_e	e	n/a
74.1295	0.105	148259	keystroke_a	a	n/a
74.1895	0.105	148379	keystroke_l	l	n/a
74.3845	0.09	148769	keystroke_t	t	n/a
74.4595	0.091	148919	keystroke_h	h	n/a
74.6395	0.12	149279	keystroke_y	y	n/a
74.7745	0.105	149549	keystroke_Key.space	Key.space	n/a
74.9555	0.194	149911	keystroke_r	r	n/a
75.0895	0.135	150179	keystroke_e	e	n/a
75.3295	0.09	150659	keystroke_c	c	n/a
75.4345	0.136	150869	keystroke_e	e	n/a
75.5395	0.091	151079	keystroke_p	p	n/a
76.0945	0.12	152189	keystroke_t	t	n/a
76.1995	0.105	152399	keystroke_i	i	n/a
76.3345	0.09	152669	keystroke_o	o	n/a
76.6195	0.016	153239	keystroke_n	n	n/a
76.7395	0.135	153479	keystroke_Key.enter	Key.enter	n/a
76.879	8.5475	153758	prompt	n/a	mails anonymous harris sorts\n
77.565	0.105	155130	keystroke_m	m	n/a
77.685	0.135	155370	keystroke_a	a	n/a
77.805	0.06	155610	keystroke_i	i	n/a
77.985	0.09	155970	keystroke_l	l	n/a
78.105	0.12	156210	keystroke_s	s	n/a
78.165	0.135	156330	keystroke_Key.space	Key.space	n/a
78.7645	0.105	157529	keystroke_a	a	n/a
78.8395	0.09	157679	keystroke_n	n	n/a
79.0195	0.075	158039	keystroke_o	o	n/a
79.1845	0.09	158369	keystroke_m	m	n/a
79.6345	0.105	159269	keystroke_Key.backspace	Key.backspace	n/a
79.9655	0.074	159931	keystroke_n	n	n/a
80.6545	0.075	161309	keystroke_y	y	n/a
80.865	0.105	161730	keystroke_m	m	n/a
81.045	0.105	162090	keystroke_o	o	n/a
81.195	0.105	162390	keystroke_s	s	n/a
81.675	0.075	163350	keystroke_Key.backspace	Key.backspace	n/a
81.945	0.075	163890	keystroke_u	u	n/a
82.065	0.135	164130	keystroke_s	s	n/a
82.275	0.1205	164550	keystroke_Key.space	Key.space	n/a
82.8155	0.075	165631	keystroke_h	h	n/a
82.9205	0.105	165841	keystroke_a	a	n/a
83.1455	0.09	166291	keystroke_r	r	n/a
83.3405	0.075	166681	keystroke_r	r	n/a
83.4455	0.105	166891	keystroke_i	i	n/a
83.5955	0.12	167191	keystroke_s	s	n/a
83.6855	0.12	167371	keystroke_Key.space	Key.space	n/a
83.91	0.12	167820	keystroke_s	s	n/a
84.045	0.075	168090	keystroke_o	o	n/a
84.18	0.105	168360	keystroke_r	r	n/a
84.3755	0.09	168751	keystroke_t	t	n/a
84.6005	0.105	169201	keystroke_s	s	n/a
85.335	0.09	170670	keystroke_Key.enter	Key.enter	n/a
85.43	6.372	170860	prompt	n/a	profits laid champions initially\n
86.19	0.075	172380	keystroke_p	p	n/a
86.3255	0.105	172651	keystroke_r	r	n/a
86.4605	0.09	172921	keystroke_o	o	n/a
86.5805	0.105	173161	keystroke_f	f	n/a
86.7305	0.09	173461	keystroke_i	i	n/a
86.8355	0.075	173671	keystroke_t	t	n/a
87.03	0.12	174060	keystroke_s	s	n/a
87.09	0.09	174180	keystroke_Key.space	Key.space	n/a
87.285	0.105	174570	keystroke_l	l	n/a
87.391	0.104	174782	keystroke_a	a	n/a
87.585	0.075	175170	keystroke_i	i	n/a
87.69	0.12	175380	keystroke_d	d	n/a
87.825	0.135	175650	keystroke_Key.space	Key.space	n/a
88.17	0.09	176340	keystroke_c	c	n/a
88.275	0.075	176550	keystroke_h	h	n/a
88.485	0.105	176970	keystroke_a	a	n/a
88.575	0.075	177150	keystroke_m	m	n/a
88.77	0.06	177540	keystroke_p	p	n/a
88.965	0.075	177930	keystroke_i	i	n/a
89.16	0.09	178320	keystroke_o	o	n/a
89.355	0.105	178710	keystroke_n	n	n/a
89.52	0.135	179040	keystroke_s	s	n/a
89.685	0.12	179370	keystroke_Key.space	Key.space	n/a
89.955	0.06	179910	keystroke_i	i	n/a
90.135	0.09	180270	keystroke_n	n	n/a
90.3305	0.09	180661	keystroke_i	i	n/a
90.4805	0.105	180961	keystroke_t	t	n/a
90.6455	0.075	181291	keystroke_i	i	n/a
90.7805	0.105	181561	keystroke_a	a	n/a
90.9005	0.06	181801	keystroke_l	l	n/a
91.0355	0.075	182071	keystroke_l	l	n/a
91.0955	0.135	182191	keystroke_y	y	n/a
91.7255	0.075	183451	keystroke_Key.enter	Key.enter	n/a
91.807	11.6795	183614	prompt	n/a	establishment polymer pets listen\n
92.535	0.09	185070	keystroke_e	e	n/a
92.745	0.09	185490	keystroke_s	s	n/a
92.865	0.075	185730	keystroke_p	p	n/a
93.1505	0.075	186301	keystroke_Key.backspace	Key.backspace	n/a
93.2405	0.09	186481	keystroke_t	t	n/a
93.4805	0.105	186961	keystroke_a	a	n/a
93.9005	0.06	187801	keystroke_h	h	n/a
94.2005	0.075	188401	keystroke_l	l	n/a
94.5155	0.03	189031	keystroke_Key.backspace	Key.backspace	n/a
94.6055	0.105	189211	keystroke_Key.backspace	Key.backspace	n/a
95.1905	0.075	190381	keystroke_b	b	n/a
95.4155	0.06	190831	keystroke_l	l	n/a
95.6255	0.06	191251	keystroke_i	i	n/a
95.6405	0.03	191281	keystroke_u	u	n/a
95.745	0.135	191490	keystroke_s	s	n/a
96.24	0.045	192480	keystroke_Key.backspace	Key.backspace	n/a
96.3755	0.075	192751	keystroke_Key.backspace	Key.backspace	n/a
96.7205	0.135	193441	keystroke_s	s	n/a
96.8255	0.105	193651	keystroke_h	h	n/a
97.4855	0.075	194971	keystroke_m	m	n/a
97.5905	0.09	195181	keystroke_e	e	n/a
97.7705	0.06	195541	keystroke_n	n	n/a
97.8755	0.12	195751	keystroke_t	t	n/a
98.0105	0.09	196021	keystroke_Key.space	Key.space	n/a
98.2205	0.075	196441	keystroke_p	p	n/a
98.4305	0.045	196861	keystroke_i	i	n/a
98.9255	0.06	197851	keystroke_Key.backspace	Key.backspace	n/a
99.1355	0.06	198271	keystroke_o	o	n/a
99.3305	0.105	198661	keystroke_l	l	n/a
99.6605	0.06	199321	keystroke_y	y	n/a
99.885	0.105	199770	keystroke_m	m	n/a
100.02	0.09	200040	keystroke_e	e	n/a
100.23	0.09	200460	keystroke_r	r	n/a
100.335	0.075	200670	keystroke_Key.space	Key.space	n/a
100.53	0.075	201060	keystroke_p	p	n/a
100.65	0.12	201300	keystroke_e	e	n/a
100.845	0.105	201690	keystroke_t	t	n/a
101.085	0.1205	202170	keystroke_s	s	n/a
101.175	0.0905	202350	keystroke_Key.space	Key.space	n/a
101.4155	0.09	202831	keystroke_l	l	n/a
101.6555	0.06	203311	keystroke_i	i	n/a
101.7005	0.09	203401	keystroke_s	s	n/a
101.8805	0.105	203761	keystroke_t	t	n/a
102.0155	0.135	204031	keystroke_e	e	n/a
102.1205	0.075	204241	keystroke_n	n	n/a
103.395	0.09	206790	keystroke_Key.enter	Key.enter	n/a
103.4895	10.947	206979	prompt	n/a	podcast liverpool smoking replies\n
104.28	0.06	208560	keystroke_p	p	n/a
104.4755	0.09	208951	keystroke_o	o	n/a
104.6105	0.12	209221	keystroke_d	d	n/a
104.8805	0.105	209761	keystroke_c	c	n/a
105.0455	0.105	210091	keystroke_a	a	n/a
105.2555	0.075	210511	keystroke_s	s	n/a
105.4205	0.09	210841	keystroke_t	t	n/a
105.5255	0.09	211051	keystroke_Key.space	Key.space	n/a
105.6905	0.105	211381	keystroke_l	l	n/a
105.915	0.075	211830	keystroke_i	i	n/a
106.005	0.15	212010	keystroke_v	v	n/a
106.14	0.1955	212280	keystroke_e	e	n/a
106.275	0.1355	212550	keystroke_r	r	n/a
106.725	0.075	213450	keystroke_p	p	n/a
106.935	0.06	213870	keystroke_o	o	n/a
107.1755	0.06	214351	keystroke_o	o	n/a
107.3705	0.105	214741	keystroke_l	l	n/a
107.5505	0.12	215101	keystroke_Key.space	Key.space	n/a
107.79	0.12	215580	keystroke_s	s	n/a
108.1505	0.075	216301	keystroke_m	m	n/a
108.405	0.075	216810	keystroke_p	p	n/a
108.66	0.105	217320	keystroke_k	k	n/a
108.99	0.06	217980	keystroke_Key.backspace	Key.backspace	n/a
109.155	0.06	218310	keystroke_Key.backspace	Key.backspace	n/a
109.98	0.075	219960	keystroke_o	o	n/a
110.16	0.075	220320	keystroke_k	k	n/a
110.325	0.06	220650	keystroke_i	i	n/a
110.34	0.015	220680	keystroke_o	o	n/a
110.4895	0.076	220979	keystroke_n	n	n/a
110.6395	0.105	221279	keystroke_g	g	n/a
110.7595	0.105	221519	keystroke_Key.space	Key.space	n/a
111.2245	0.061	222449	keystroke_Key.backspace	Key.backspace	n/a
111.3895	0.045	222779	keystroke_Key.backspace	Key.backspace	n/a
111.5545	0.045	223109	keystroke_Key.backspace	Key.backspace	n/a
111.6745	0.061	223349	keystroke_Key.backspace	Key.backspace	n/a
111.9895	0.075	223979	keystroke_n	n	n/a
112.1395	0.09	224279	keystroke_g	g	n/a
112.2745	0.075	224549	keystroke_Key.space	Key.space	n/a
112.6345	0.1505	225269	keystroke_r	r	n/a
112.755	0.15	225510	keystroke_e	e	n/a
112.965	0.09	225930	keystroke_p	p	n/a
113.145	0.09	226290	keystroke_l	l	n/a
113.3555	0.0595	226711	keystroke_i	i	n/a
113.416	0.104	226832	keystroke_e	e	n/a
113.8355	0.06	227671	keystroke_s	s	n/a
114.375	0.06	228750	keystroke_Key.enter	Key.enter	n/a
114.44	10.3015	228880	prompt	n/a	britain 'twas he'll welsh\n
115.3055	0.105	230611	keystroke_b	b	n/a
115.4855	0.075	230971	keystroke_i	i	n/a
115.5905	0.15	231181	keystroke_r	r	n/a
116.1905	0.06	232381	keystroke_Key.backspace	Key.backspace	n/a
116.31	0.09	232620	keystroke_Key.backspace	Key.backspace	n/a
116.415	0.075	232830	keystroke_r	r	n/a
116.61	0.075	233220	keystroke_i	i	n/a
116.76	0.075	233520	keystroke_t	t	n/a
116.97	0.09	233940	keystroke_a	a	n/a
117.075	0.075	234150	keystroke_i	i	n/a
117.255	0.12	234510	keystroke_n	n	n/a
117.39	0.135	234780	keystroke_Key.space	Key.space	n/a
118.1545	0.105	236309	keystroke_'	'	n/a
118.86	0.09	237720	keystroke_w	w	n/a
119.175	0.075	238350	keystroke_Key.backspace	Key.backspace	n/a
119.235	0.09	238470	keystroke_t	t	n/a
119.445	0.105	238890	keystroke_w	w	n/a
119.67	0.075	239340	keystroke_a	a	n/a
119.88	0.09	239760	keystroke_s	s	n/a
120.075	0.09	240150	keystroke_Key.space	Key.space	n/a
120.285	0.0745	240570	keystroke_h	h	n/a
120.3895	0.075	240779	keystroke_e	e	n/a
120.6605	0.044	241321	keystroke_'	'	n/a
121.3045	0.03	242609	keystroke_k	k	n/a
121.77	0.06	243540	keystroke_Key.backspace	Key.backspace	n/a
121.965	0.06	243930	keystroke_l	l	n/a
122.115	0.09	244230	keystroke_l	l	n/a
122.28	0.1205	244560	keystroke_Key.space	Key.space	n/a
122.4455	0.0895	244891	keystroke_w	w	n/a
122.64	0.0755	245280	keystroke_e	e	n/a
122.775	0.0905	245550	keystroke_l	l	n/a
122.9405	0.105	245881	keystroke_s	s	n/a
123.1055	0.0745	246211	keystroke_h	h	n/a
124.68	0.06	249360	keystroke_Key.enter	Key.enter	n/a
124.745	8.1715	249490	prompt	n/a	incentives farming mozilla groups\n
125.5055	0.075	251011	keystroke_i	i	n/a
125.6855	0.0745	251371	keystroke_n	n	n/a
125.82	0.135	251640	keystroke_c	c	n/a
126.045	0.15	252090	keystroke_e	e	n/a
126.225	0.075	252450	keystroke_n	n	n/a
126.33	0.09	252660	keystroke_t	t	n/a
126.51	0.06	253020	keystroke_i	i	n/a
126.615	0.12	253230	keystroke_v	v	n/a
126.795	0.06	253590	keystroke_e	e	n/a
126.885	0.105	253770	keystroke_Key.space	Key.space	n/a
127.17	0.12	254340	keystroke_f	f	n/a
127.485	0.075	254970	keystroke_a	a	n/a
127.665	0.09	255330	keystroke_r	r	n/a
127.77	0.09	255540	keystroke_m	m	n/a
127.9655	0.075	255931	keystroke_i	i	n/a
128.1005	0.12	256201	keystroke_n	n	n/a
128.2355	0.09	256471	keystroke_g	g	n/a
128.2805	0.09	256561	keystroke_Key.space	Key.space	n/a
128.535	0.105	257070	keystroke_m	m	n/a
128.73	0.075	257460	keystroke_o	o	n/a
129.12	0.12	258240	keystroke_z	z	n/a
129.195	0.015	258390	keystroke_i	i	n/a
129.45	0.06	258900	keystroke_l	l	n/a
129.6	0.075	259200	keystroke_l	l	n/a
129.705	0.075	259410	keystroke_a	a	n/a
130.0205	0.075	260041	keystroke_Key.space	Key.space	n/a
130.3205	0.15	260641	keystroke_g	g	n/a
130.4855	0.1195	260971	keystroke_r	r	n/a
130.665	0.09	261330	keystroke_o	o	n/a
130.875	0.09	261750	keystroke_u	u	n/a
131.07	0.12	262140	keystroke_p	p	n/a
131.445	0.12	262890	keystroke_s	s	n/a
132.8255	0.09	265651	keystroke_Key.enter	Key.enter	n/a
132.9195	8.667	265839	prompt	n/a	stylus avoid berry offered\n
133.5455	0.105	267091	keystroke_s	s	n/a
133.7105	0.105	267421	keystroke_y	y	n/a
134.1455	0.075	268291	keystroke_l	l	n/a
134.475	0.06	268950	keystroke_Key.backspace	Key.backspace	n/a
134.61	0.09	269220	keystroke_Key.backspace	Key.backspace	n/a
134.67	0.075	269340	keystroke_t	t	n/a
134.91	0.09	269820	keystroke_y	y	n/a
134.985	0.09	269970	keystroke_l	l	n/a
135.48	0.105	270960	keystroke_u	u	n/a
135.63	0.12	271260	keystroke_s	s	n/a
135.72	0.09	271440	keystroke_Key.space	Key.space	n/a
135.93	0.075	271860	keystroke_a	a	n/a
136.035	0.09	272070	keystroke_v	v	n/a
136.32	0.075	272640	keystroke_o	o	n/a
136.575	0.0605	273150	keystroke_u	u	n/a
136.6805	0.12	273361	keystroke_d	d	n/a
136.7855	0.12	273571	keystroke_Key.space	Key.space	n/a
137.37	0.06	274740	keystroke_Key.backspace	Key.backspace	n/a
137.52	0.06	275040	keystroke_Key.backspace	Key.backspace	n/a
137.655	0.075	275310	keystroke_Key.backspace	Key.backspace	n/a
137.895	0.075	275790	keystroke_i	i	n/a
138.03	0.12	276060	keystroke_d	d	n/a
138.12	0.09	276240	keystroke_Key.space	Key.space	n/a
138.315	0.0895	276630	keystroke_b	b	n/a
138.4345	0.075	276869	keystroke_e	e	n/a
138.6445	0.045	277289	keystroke_r	r	n/a
138.7805	0.059	277561	keystroke_r	r	n/a
138.8695	0.135	277739	keystroke_y	y	n/a
139.0055	0.104	278011	keystroke_Key.space	Key.space	n/a
139.3495	0.06	278699	keystroke_o	o	n/a
139.4845	0.0905	278969	keystroke_f	f	n/a
139.6645	0.12	279329	keystroke_f	f	n/a
139.7695	0.18	279539	keystroke_e	e	n/a
139.9205	0.194	279841	keystroke_r	r	n/a
140.0545	0.15	280109	keystroke_e	e	n/a
140.5945	0.06	281189	keystroke_e	e	n/a
140.82	0.09	281640	keystroke_Key.backspace	Key.backspace	n/a
140.94	0.12	281880	keystroke_d	d	n/a
141.51	0.075	283020	keystroke_Key.enter	Key.enter	n/a
141.589	9.8375	283178	prompt	n/a	subsection lamb myers complexity\n
142.215	0.09	284430	keystroke_s	s	n/a
142.5445	0.075	285089	keystroke_u	u	n/a
142.7245	0.09	285449	keystroke_b	b	n/a
142.9045	0.165	285809	keystroke_s	s	n/a
143.0545	0.09	286109	keystroke_e	e	n/a
143.2645	0.105	286529	keystroke_c	c	n/a
143.4445	0.1055	286889	keystroke_t	t	n/a
143.535	0.075	287070	keystroke_i	i	n/a
143.73	0.0445	287460	keystroke_p	p	n/a
144.135	0.045	288270	keystroke_Key.backspace	Key.backspace	n/a
144.345	0.075	288690	keystroke_o	o	n/a
144.525	0.135	289050	keystroke_n	n	n/a
144.675	0.12	289350	keystroke_Key.space	Key.space	n/a
145.0795	0.09	290159	keystroke_l	l	n/a
145.2745	0.105	290549	keystroke_a	a	n/a
145.3945	0.105	290789	keystroke_m	m	n/a
145.62	0.0745	291240	keystroke_p	p	n/a
145.9195	0.075	291839	keystroke_Key.backspace	Key.backspace	n/a
146.0095	0.105	292019	keystroke_b	b	n/a
146.55	0.09	293100	keystroke_Key.space	Key.space	n/a
146.79	0.045	293580	keystroke_m	m	n/a
147.3595	0.09	294719	keystroke_y	y	n/a
147.4945	0.135	294989	keystroke_e	e	n/a
147.5845	0.12	295169	keystroke_r	r	n/a
147.8545	0.09	295709	keystroke_s	s	n/a
147.9745	0.105	295949	keystroke_Key.space	Key.space	n/a
148.2595	0.135	296519	keystroke_c	c	n/a
148.3795	0.045	296759	keystroke_o	o	n/a
148.5295	0.075	297059	keystroke_m	m	n/a
148.71	0.0745	297420	keystroke_p	p	n/a
148.8595	0.1055	297719	keystroke_l	l	n/a
149.085	0.1055	298170	keystroke_e	e	n/a
149.82	0.12	299640	keystroke_x	x	n/a
149.955	0.075	299910	keystroke_i	i	n/a
150.27	0.12	300540	keystroke_t	t	n/a
150.36	0.135	300720	keystroke_y	y	n/a
151.335	0.09	302670	keystroke_Key.enter	Key.enter	n/a
151.429	8.5475	302858	prompt	n/a	warned segments sensor programmes\n
152.19	0.105	304380	keystroke_w	w	n/a
152.415	0.075	304830	keystroke_a	a	n/a
152.565	0.105	305130	keystroke_r	r	n/a
152.88	0.09	305760	keystroke_n	n	n/a
153	0.15	306000	keystroke_e	e	n/a
153.09	0.165	306180	keystroke_d	d	n/a
153.18	0.12	306360	keystroke_Key.space	Key.space	n/a
153.615	0.09	307230	keystroke_s	s	n/a
153.765	0.12	307530	keystroke_e	e	n/a
154.365	0.12	308730	keystroke_g	g	n/a
154.53	0.075	309060	keystroke_m	m	n/a
154.62	0.105	309240	keystroke_e	e	n/a
154.74	0.0895	309480	keystroke_n	n	n/a
154.7995	0.09	309599	keystroke_t	t	n/a
155.0395	0.0905	310079	keystroke_s	s	n/a
155.175	0.12	310350	keystroke_Key.space	Key.space	n/a
155.505	0.12	311010	keystroke_s	s	n/a
155.625	0.1355	311250	keystroke_e	e	n/a
155.7455	0.09	311491	keystroke_n	n	n/a
155.8655	0.12	311731	keystroke_s	s	n/a
155.9995	0.091	311999	keystroke_o	o	n/a
156.1355	0.12	312271	keystroke_r	r	n/a
156.2255	0.12	312451	keystroke_Key.space	Key.space	n/a
156.5705	0.12	313141	keystroke_g	g	n/a
156.7205	0.12	313441	keystroke_r	r	n/a
157.1095	0.03	314219	keystroke_Key.backspace	Key.backspace	n/a
157.1995	0.09	314399	keystroke_Key.backspace	Key.backspace	n/a
157.4095	0.09	314819	keystroke_p	p	n/a
157.5595	0.105	315119	keystroke_r	r	n/a
157.6655	0.089	315331	keystroke_o	o	n/a
157.9195	0.105	315839	keystroke_g	g	n/a
158.1295	0.12	316259	keystroke_r	r	n/a
158.4145	0.075	316829	keystroke_a	a	n/a
158.6245	0.06	317249	keystroke_m	m	n/a
158.7745	0.09	317549	keystroke_m	m	n/a
158.8795	0.09	317759	keystroke_e	e	n/a
159.2245	0.09	318449	keystroke_s	s	n/a
159.9	0.075	319800	keystroke_Key.enter	Key.enter	n/a
159.98	10.2865	319960	prompt	n/a	trend promotes johnston pleasant\n
160.5745	0.165	321149	keystroke_t	t	n/a
160.7695	0.075	321539	keystroke_e	e	n/a
161.145	0.0745	322290	keystroke_Key.backspace	Key.backspace	n/a
161.2205	0.179	322441	keystroke_r	r	n/a
161.3395	0.15	322679	keystroke_e	e	n/a
161.8945	0.075	323789	keystroke_n	n	n/a
161.9845	0.135	323969	keystroke_d	d	n/a
162.0895	0.105	324179	keystroke_Key.space	Key.space	n/a
162.36	0.075	324720	keystroke_p	p	n/a
162.45	0.105	324900	keystroke_r	r	n/a
162.57	0.075	325140	keystroke_o	o	n/a
162.72	0.09	325440	keystroke_m	m	n/a
162.9	0.075	325800	keystroke_o	o	n/a
163.08	0.12	326160	keystroke_t	t	n/a
163.305	0.09	326610	keystroke_e	e	n/a
163.515	0.105	327030	keystroke_s	s	n/a
163.575	0.12	327150	keystroke_Key.space	Key.space	n/a
163.845	0.09	327690	keystroke_j	j	n/a
164.115	0.015	328230	keystroke_u	u	n/a
164.43	0.075	328860	keystroke_Key.backspace	Key.backspace	n/a
164.655	0.105	329310	keystroke_o	o	n/a
164.88	0.09	329760	keystroke_h	h	n/a
165.105	0.09	330210	keystroke_n	n	n/a
165.375	0.075	330750	keystroke_s	s	n/a
165.6145	0.1055	331229	keystroke_t	t	n/a
165.945	0.045	331890	keystroke_o	o	n/a
166.11	0.12	332220	keystroke_n	n	n/a
166.215	0.12	332430	keystroke_Key.space	Key.space	n/a
166.47	0.09	332940	keystroke_p	p	n/a
166.7855	0.075	333571	keystroke_l	l	n/a
166.9055	0.09	333811	keystroke_e	e	n/a
167.1155	0.09	334231	keystroke_a	a	n/a
167.4155	0.09	334831	keystroke_s	s	n/a
168.0455	0.105	336091	keystroke_a	a	n/a
168.1205	0.075	336241	keystroke_n	n	n/a
168.3005	0.09	336601	keystroke_t	t	n/a
170.2045	0.06	340409	keystroke_Key.enter	Key.enter	n/a
170.271	10.2255	340542	prompt	n/a	season walter basement supplements\n
171.165	0.105	342330	keystroke_s	s	n/a
171.405	0.105	342810	keystroke_e	e	n/a
172.035	0.135	344070	keystroke_a	a	n/a
172.41	0.075	344820	keystroke_s	s	n/a
172.545	0.0905	345090	keystroke_o	o	n/a
172.7405	0.1045	345481	keystroke_n	n	n/a
172.83	0.135	345660	keystroke_Key.space	Key.space	n/a
172.966	0.104	345932	keystroke_w	w	n/a
173.16	0.09	346320	keystroke_a	a	n/a
173.205	0.105	346410	keystroke_l	l	n/a
173.43	0.0905	346860	keystroke_t	t	n/a
173.7905	0.06	347581	keystroke_Key.backspace	Key.backspace	n/a
173.8955	0.105	347791	keystroke_t	t	n/a
174.0605	0.21	348121	keystroke_e	e	n/a
174.1805	0.1795	348361	keystroke_r	r	n/a
174.33	0.105	348660	keystroke_Key.space	Key.space	n/a
174.825	0.0905	349650	keystroke_b	b	n/a
174.9305	0.12	349861	keystroke_a	a	n/a
175.6505	0.255	351301	keystroke_s	s	n/a
175.8905	0.105	351781	keystroke_e	e	n/a
176.2505	0.1045	352501	keystroke_m	m	n/a
176.37	0.09	352740	keystroke_e	e	n/a
176.505	0.09	353010	keystroke_n	n	n/a
176.61	0.105	353220	keystroke_t	t	n/a
177.57	0.105	355140	keystroke_Key.space	Key.space	n/a
177.825	0.121	355650	keystroke_s	s	n/a
177.93	0.075	355860	keystroke_u	u	n/a
178.185	0.06	356370	keystroke_p	p	n/a
178.3205	0.09	356641	keystroke_p	p	n/a
178.4705	0.0895	356941	keystroke_l	l	n/a
178.965	0.09	357930	keystroke_e	e	n/a
179.25	0.105	358500	keystroke_m	m	n/a
179.415	0.09	358830	keystroke_e	e	n/a
179.52	0.09	359040	keystroke_n	n	n/a
179.625	0.12	359250	keystroke_t	t	n/a
179.895	0.09	359790	keystroke_s	s	n/a
180.4055	0.089	360811	keystroke_Key.enter	Key.enter	n/a
180.5	7.3015	361000	prompt	n/a	acres devoted intelligent technical\n
181.1555	0.105	362311	keystroke_a	a	n/a
181.56	0.12	363120	keystroke_c	c	n/a
181.74	0.195	363480	keystroke_r	r	n/a
181.92	0.09	363840	keystroke_e	e	n/a
182.13	0.105	364260	keystroke_s	s	n/a
182.265	0.0895	364530	keystroke_Key.space	Key.space	n/a
182.6405	0.12	365281	keystroke_d	d	n/a
182.775	0.0895	365550	keystroke_e	e	n/a
182.9855	0.104	365971	keystroke_v	v	n/a
183.1205	0.075	366241	keystroke_o	o	n/a
183.7495	0.121	367499	keystroke_t	t	n/a
183.9445	0.136	367889	keystroke_e	e	n/a
184.1395	0.135	368279	keystroke_d	d	n/a
184.2445	0.105	368489	keystroke_Key.space	Key.space	n/a
184.38	0.09	368760	keystroke_i	i	n/a
184.53	0.105	369060	keystroke_n	n	n/a
184.575	0.09	369150	keystroke_t	t	n/a
184.77	0.105	369540	keystroke_e	e	n/a
184.86	0.075	369720	keystroke_l	l	n/a
185.01	0.075	370020	keystroke_l	l	n/a
185.22	0.075	370440	keystroke_i	i	n/a
185.46	0.105	370920	keystroke_g	g	n/a
185.61	0.135	371220	keystroke_e	e	n/a
185.73	0.105	371460	keystroke_n	n	n/a
185.85	0.105	371700	keystroke_t	t	n/a
185.94	0.135	371880	keystroke_Key.space	Key.space	n/a
186.12	0.105	372240	keystroke_t	t	n/a
186.3	0.12	372600	keystroke_e	e	n/a
186.525	0.12	373050	keystroke_c	c	n/a
186.6	0.075	373200	keystroke_h	h	n/a
186.795	0.09	373590	keystroke_n	n	n/a
186.93	0.105	373860	keystroke_i	i	n/a
187.1395	0.09	374279	keystroke_c	c	n/a
187.3045	0.15	374609	keystroke_a	a	n/a
187.3795	0.09	374759	keystroke_l	l	n/a
187.6945	0.105	375389	keystroke_Key.enter	Key.enter	n/a
187.8045	7.182	375609	prompt	n/a	stream fuel raid zoloft\n
188.4745	0.12	376949	keystroke_s	s	n/a
188.6395	0.075	377279	keystroke_r	r	n/a
189.1495	0.06	378299	keystroke_Key.backspace	Key.backspace	n/a
189.1945	0.12	378389	keystroke_t	t	n/a
189.4195	0.18	378839	keystroke_r	r	n/a
189.93	0.09	379860	keystroke_e	e	n/a
190.095	0.135	380190	keystroke_a	a	n/a
190.17	0.135	380340	keystroke_m	m	n/a
190.3355	0.12	380671	keystroke_Key.space	Key.space	n/a
190.5155	0.12	381031	keystroke_f	f	n/a
190.6205	0.075	381241	keystroke_u	u	n/a
190.8605	0.09	381721	keystroke_e	e	n/a
190.9505	0.12	381901	keystroke_l	l	n/a
191.0855	0.135	382171	keystroke_Key.space	Key.space	n/a
191.6405	0.105	383281	keystroke_r	r	n/a
191.8505	0.12	383701	keystroke_a	a	n/a
191.8805	0.09	383761	keystroke_i	i	n/a
192.0305	0.12	384061	keystroke_n	n	n/a
192.1355	0.12	384271	keystroke_Key.space	Key.space	n/a
192.705	0.135	385410	keystroke_z	z	n/a
192.795	0.09	385590	keystroke_o	o	n/a
193.005	0.06	386010	keystroke_l	l	n/a
193.155	0.09	386310	keystroke_o	o	n/a
193.695	0.075	387390	keystroke_f	f	n/a
194.055	0.09	388110	keystroke_t	t	n/a
194.9255	0.059	389851	keystroke_Key.enter	Key.enter	n/a
194.991	9.7305	389982	prompt	n/a	budapest crop fixtures north\n
195.855	0.12	391710	keystroke_d	d	n/a
195.976	0.119	391952	keystroke_u	u	n/a
196.47	0.045	392940	keystroke_Key.backspace	Key.backspace	n/a
196.59	0.0895	393180	keystroke_Key.backspace	Key.backspace	n/a
196.6505	0.135	393301	keystroke_b	b	n/a
196.89	0.075	393780	keystroke_u	u	n/a
197.235	0.12	394470	keystroke_d	d	n/a
197.4	0.12	394800	keystroke_a	a	n/a
197.625	0.075	395250	keystroke_p	p	n/a
197.745	0.105	395490	keystroke_e	e	n/a
197.97	0.09	395940	keystroke_s	s	n/a
198.12	0.135	396240	keystroke_t	t	n/a
198.21	0.12	396420	keystroke_Key.space	Key.space	n/a
198.555	0.12	397110	keystroke_c	c	n/a
198.75	0.12	397500	keystroke_r	r	n/a
199.02	0.06	398040	keystroke_o	o	n/a
199.185	0.09	398370	keystroke_p	p	n/a
199.3495	0.12	398699	keystroke_Key.space	Key.space	n/a
199.9345	0.091	399869	keystroke_f	f	n/a
200.0555	0.044	400111	keystroke_i	i	n/a
200.52	0.09	401040	keystroke_x	x	n/a
201.15	0.12	402300	keystroke_t	t	n/a
201.345	0.075	402690	keystroke_u	u	n/a
201.435	0.165	402870	keystroke_r	r	n/a
201.8095	0.09	403619	keystroke_e	e	n/a
202.0495	0.12	404099	keystroke_s	s	n/a
202.2145	0.09	404429	keystroke_Key.space	Key.space	n/a
202.4405	0.09	404881	keystroke_n	n	n/a
202.6795	0.075	405359	keystroke_o	o	n/a
202.95	0.105	405900	keystroke_r	r	n/a
203.13	0.09	406260	keystroke_t	t	n/a
203.205	0.075	406410	keystroke_h	h	n/a
204.615	0.105	409230	keystroke_Key.enter	Key.enter	n/a
204.724	13.647	409448	prompt	n/a	trauma surely telecharger couple\n
205.47	0.105	410940	keystroke_t	t	n/a
205.695	0.105	411390	keystroke_r	r	n/a
205.935	0.165	411870	keystroke_a	a	n/a
206.085	0.06	412170	keystroke_u	u	n/a
206.4155	0.0895	412831	keystroke_m	m	n/a
206.535	0.09	413070	keystroke_a	a	n/a
206.64	0.06	413280	keystroke_n	n	n/a
207.045	0.09	414090	keystroke_Key.backspace	Key.backspace	n/a
207.195	0.165	414390	keystroke_Key.space	Key.space	n/a
207.4955	0.119	414991	keystroke_s	s	n/a
207.6295	0.09	415259	keystroke_u	u	n/a
207.7345	0.1805	415469	keystroke_r	r	n/a
207.87	0.15	415740	keystroke_e	e	n/a
207.975	0.105	415950	keystroke_l	l	n/a
208.125	0.15	416250	keystroke_y	y	n/a
208.29	0.105	416580	keystroke_Key.space	Key.space	n/a
208.53	0.15	417060	keystroke_t	t	n/a
208.725	0.1645	417450	keystroke_e	e	n/a
208.86	0.1045	417720	keystroke_l	l	n/a
209.0245	0.135	418049	keystroke_e	e	n/a
209.475	0.105	418950	keystroke_g	g	n/a
209.655	0.105	419310	keystroke_r	r	n/a
210.18	0.045	420360	keystroke_Key.backspace	Key.backspace	n/a
210.3	0.1045	420600	keystroke_Key.backspace	Key.backspace	n/a
210.5405	0.119	421081	keystroke_c	c	n/a
210.6445	0.075	421289	keystroke_h	h	n/a
210.7505	0.104	421501	keystroke_a	a	n/a
210.9445	0.105	421889	keystroke_r	r	n/a
211.1095	0.12	422219	keystroke_g	g	n/a
211.4245	0.105	422849	keystroke_e	e	n/a
211.6195	0.105	423239	keystroke_r	r	n/a
211.7395	0.12	423479	keystroke_Key.space	Key.space	n/a
211.9645	0.106	423929	keystroke_c	c	n/a
212.0255	0.09	424051	keystroke_o	o	n/a
212.235	0.06	424470	keystroke_u	u	n/a
212.415	0.1045	424830	keystroke_p	p	n/a
212.5645	0.075	425129	keystroke_d	d	n/a
212.5795	0.12	425159	keystroke_l	l	n/a
212.9395	0.0605	425879	keystroke_Key.backspace	Key.backspace	n/a
213.06	0.075	426120	keystroke_Key.backspace	Key.backspace	n/a
213.255	0.09	426510	keystroke_l	l	n/a
213.375	0.12	426750	keystroke_d	d	n/a
216.1065	0.028	432213	keystroke_Key.backspace	Key.backspace	n/a
216.1065	0.163	432213	keystroke_e	e	n/a
218.357	0.012	436714	keystroke_Key.enter	Key.enter	n/a
218.3735	12.3725	436747	prompt	n/a	babes hierarchy nearest landing\n
219.269	0.091	438538	keystroke_b	b	n/a
219.344	0.121	438688	keystroke_a	a	n/a
219.525	0.09	439050	keystroke_b	b	n/a
219.63	0.105	439260	keystroke_e	e	n/a
219.855	0.09	439710	keystroke_r	r	n/a
220.05	0.119	440100	keystroke_s	s	n/a
220.139	0.105	440278	keystroke_Key.space	Key.space	n/a
220.784	0.075	441568	keystroke_Key.backspace	Key.backspace	n/a
220.949	0.06	441898	keystroke_Key.backspace	Key.backspace	n/a
221.114	0.06	442228	keystroke_Key.backspace	Key.backspace	n/a
221.279	0.045	442558	keystroke_Key.backspace	Key.backspace	n/a
221.444	0.045	442888	keystroke_Key.backspace	Key.backspace	n/a
222.3895	0.06	444779	keystroke_b	b	n/a
222.4945	0.09	444989	keystroke_e	e	n/a
222.7045	0.105	445409	keystroke_s	s	n/a
222.7945	0.09	445589	keystroke_Key.space	Key.space	n/a
223.049	0.075	446098	keystroke_h	h	n/a
223.334	0.09	446668	keystroke_i	i	n/a
223.559	0.09	447118	keystroke_e	e	n/a
224.3995	0.075	448799	keystroke_r	r	n/a
224.6095	0.09	449219	keystroke_a	a	n/a
225.0895	0.045	450179	keystroke_t	t	n/a
225.5245	0.075	451049	keystroke_Key.backspace	Key.backspace	n/a
225.6145	0.075	451229	keystroke_r	r	n/a
225.8395	0.12	451679	keystroke_c	c	n/a
225.9295	0.09	451859	keystroke_h	h	n/a
226.109	0.0605	452218	keystroke_y	y	n/a
226.2145	0.15	452429	keystroke_Key.space	Key.space	n/a
227.0245	0.105	454049	keystroke_n	n	n/a
227.1445	0.06	454289	keystroke_e	e	n/a
227.2945	0.09	454589	keystroke_a	a	n/a
227.4745	0.105	454949	keystroke_r	r	n/a
227.9245	0.075	455849	keystroke_e	e	n/a
228.329	0.06	456658	keystroke_s	s	n/a
228.464	0.15	456928	keystroke_t	t	n/a
228.629	0.1355	457258	keystroke_Key.space	Key.space	n/a
229.1245	0.045	458249	keystroke_l	l	n/a
229.4695	0.06	458939	keystroke_a	a	n/a
229.5595	0.09	459119	keystroke_n	n	n/a
229.6645	0.12	459329	keystroke_d	d	n/a
229.7995	0.09	459599	keystroke_i	i	n/a
229.9495	0.09	459899	keystroke_n	n	n/a
229.9645	0.12	459929	keystroke_g	g	n/a
230.6695	0.075	461339	keystroke_Key.enter	Key.enter	n/a
230.7495	11.591	461499	prompt	n/a	mustang kyle contribute born\n
231.3145	0.09	462629	keystroke_m	m	n/a
231.5245	0.06	463049	keystroke_i	i	n/a
231.5995	0.12	463199	keystroke_s	s	n/a
231.8095	0.09	463619	keystroke_t	t	n/a
232.0345	0.1045	464069	keystroke_a	a	n/a
232.379	0.045	464758	keystroke_Key.backspace	Key.backspace	n/a
232.529	0.045	465058	keystroke_Key.backspace	Key.backspace	n/a
232.664	0.045	465328	keystroke_Key.backspace	Key.backspace	n/a
232.784	0.09	465568	keystroke_Key.backspace	Key.backspace	n/a
233.069	0.06	466138	keystroke_i	i	n/a
233.174	0.105	466348	keystroke_s	s	n/a
233.4895	0.06	466979	keystroke_Key.backspace	Key.backspace	n/a
233.6245	0.09	467249	keystroke_Key.backspace	Key.backspace	n/a
234.1345	0.06	468269	keystroke_u	u	n/a
234.2245	0.1195	468449	keystroke_s	s	n/a
234.449	0.09	468898	keystroke_t	t	n/a
235.154	0.06	470308	keystroke_n	n	n/a
235.274	0.12	470548	keystroke_a	a	n/a
235.589	0.045	471178	keystroke_Key.backspace	Key.backspace	n/a
235.694	0.105	471388	keystroke_Key.backspace	Key.backspace	n/a
235.844	0.09	471688	keystroke_a	a	n/a
235.964	0.075	471928	keystroke_n	n	n/a
236.159	0.075	472318	keystroke_g	g	n/a
236.279	0.1655	472558	keystroke_Key.space	Key.space	n/a
236.8345	0.075	473669	keystroke_l	l	n/a
237.1195	0.075	474239	keystroke_u	u	n/a
237.4645	0.03	474929	keystroke_Key.backspace	Key.backspace	n/a
237.569	0.09	475138	keystroke_Key.backspace	Key.backspace	n/a
237.779	0.075	475558	keystroke_k	k	n/a
238.004	0.06	476008	keystroke_y	y	n/a
238.214	0.0905	476428	keystroke_l	l	n/a
238.3195	0.105	476639	keystroke_e	e	n/a
238.4395	0.09	476879	keystroke_Key.space	Key.space	n/a
239.069	0.09	478138	keystroke_c	c	n/a
239.174	0.075	478348	keystroke_o	o	n/a
239.369	0.06	478738	keystroke_n	n	n/a
239.519	0.105	479038	keystroke_t	t	n/a
239.699	0.105	479398	keystroke_r	r	n/a
239.759	0.09	479518	keystroke_i	i	n/a
239.984	0.09	479968	keystroke_b	b	n/a
240.164	0.075	480328	keystroke_u	u	n/a
240.3595	0.105	480719	keystroke_t	t	n/a
240.5395	0.135	481079	keystroke_e	e	n/a
240.6755	0.119	481351	keystroke_Key.space	Key.space	n/a
241.1695	0.075	482339	keystroke_b	b	n/a
241.3945	0.075	482789	keystroke_o	o	n/a
241.4995	0.0895	482999	keystroke_r	r	n/a
241.634	0.075	483268	keystroke_n	n	n/a
242.264	0.0755	484528	keystroke_Key.enter	Key.enter	n/a
242.343	10.708	484686	prompt	n/a	allah program essentials conservation\n
243.1795	0.09	486359	keystroke_a	a	n/a
243.3145	0.06	486629	keystroke_l	l	n/a
243.4645	0.09	486929	keystroke_l	l	n/a
243.5845	0.12	487169	keystroke_a	a	n/a
243.7345	0.075	487469	keystroke_h	h	n/a
243.8545	0.12	487709	keystroke_Key.space	Key.space	n/a
244.0795	0.075	488159	keystroke_p	p	n/a
244.1395	0.12	488279	keystroke_r	r	n/a
244.3045	0.0745	488609	keystroke_o	o	n/a
244.394	0.12	488788	keystroke_g	g	n/a
244.649	0.09	489298	keystroke_a	a	n/a
244.679	0.105	489358	keystroke_m	m	n/a
245.2195	0.045	490439	keystroke_Key.backspace	Key.backspace	n/a
245.3245	0.105	490649	keystroke_Key.backspace	Key.backspace	n/a
245.4145	0.18	490829	keystroke_r	r	n/a
245.5495	0.135	491099	keystroke_e	e	n/a
245.6845	0.09	491369	keystroke_m	m	n/a
245.984	0.045	491968	keystroke_Key.backspace	Key.backspace	n/a
246.09	0.089	492180	keystroke_Key.backspace	Key.backspace	n/a
246.194	0.09	492388	keystroke_a	a	n/a
246.3145	0.1045	492629	keystroke_m	m	n/a
246.42	0.134	492840	keystroke_Key.space	Key.space	n/a
247.079	0.09	494158	keystroke_e	e	n/a
247.289	0.075	494578	keystroke_s	s	n/a
247.439	0.105	494878	keystroke_s	s	n/a
247.589	0.12	495178	keystroke_e	e	n/a
247.694	0.105	495388	keystroke_n	n	n/a
247.844	0.1055	495688	keystroke_t	t	n/a
247.9795	0.075	495959	keystroke_i	i	n/a
248.1145	0.12	496229	keystroke_a	a	n/a
248.2195	0.09	496439	keystroke_l	l	n/a
248.3695	0.105	496739	keystroke_s	s	n/a
248.5045	0.105	497009	keystroke_Key.space	Key.space	n/a
249.1045	0.105	498209	keystroke_c	c	n/a
249.4645	0.09	498929	keystroke_o	o	n/a
249.6745	0.075	499349	keystroke_n	n	n/a
249.794	0.105	499588	keystroke_v	v	n/a
250.1095	0.06	500219	keystroke_Key.backspace	Key.backspace	n/a
250.2145	0.1655	500429	keystroke_s	s	n/a
250.365	0.12	500730	keystroke_e	e	n/a
250.59	0.06	501180	keystroke_r	r	n/a
250.98	0.06	501960	keystroke_r	r	n/a
251.2945	0.06	502589	keystroke_Key.backspace	Key.backspace	n/a
251.3695	0.09	502739	keystroke_v	v	n/a
251.6545	0.09	503309	keystroke_a	a	n/a
251.8795	0.09	503759	keystroke_t	t	n/a
251.9545	0.06	503909	keystroke_i	i	n/a
252.1045	0.075	504209	keystroke_o	o	n/a
252.2845	0.105	504569	keystroke_n	n	n/a
252.96	0.09	505920	keystroke_Key.enter	Key.enter	n/a
253.057	4.899	506114	prompt	n/a	works dead around provision\n
253.71	0.105	507420	keystroke_w	w	n/a
253.8	0.09	507600	keystroke_o	o	n/a
253.92	0.105	507840	keystroke_r	r	n/a
254.04	0.105	508080	keystroke_k	k	n/a
254.205	0.105	508410	keystroke_s	s	n/a
254.31	0.105	508620	keystroke_Key.space	Key.space	n/a
254.7	0.12	509400	keystroke_d	d	n/a
254.835	0.09	509670	keystroke_e	e	n/a
254.985	0.165	509970	keystroke_a	a	n/a
255.105	0.1495	510210	keystroke_d	d	n/a
255.21	0.1045	510420	keystroke_Key.space	Key.space	n/a
255.3745	0.09	510749	keystroke_a	a	n/a
255.5695	0.12	511139	keystroke_r	r	n/a
255.8395	0.06	511679	keystroke_o	o	n/a
256.0345	0.105	512069	keystroke_u	u	n/a
256.1995	0.12	512399	keystroke_n	n	n/a
256.3045	0.105	512609	keystroke_d	d	n/a
256.3945	0.075	512789	keystroke_Key.space	Key.space	n/a
256.5895	0.0905	513179	keystroke_p	p	n/a
256.65	0.105	513300	keystroke_r	r	n/a
256.8	0.09	513600	keystroke_o	o	n/a
256.965	0.12	513930	keystroke_v	v	n/a
257.07	0.105	514140	keystroke_i	i	n/a
257.235	0.12	514470	keystroke_s	s	n/a
257.31	0.09	514620	keystroke_i	i	n/a
257.505	0.06	515010	keystroke_o	o	n/a
257.67	0.105	515340	keystroke_n	n	n/a
257.835	0.12	515670	keystroke_Key.enter	Key.enter	n/a
257.9585	13.8875	515917	prompt	n/a	trauma renaissance mazda affiliation\n
258.72	0.12	517440	keystroke_t	t	n/a
258.945	0.105	517890	keystroke_r	r	n/a
259.155	0.135	518310	keystroke_a	a	n/a
259.23	0.09	518460	keystroke_u	u	n/a
259.455	0.105	518910	keystroke_m	m	n/a
259.635	0.09	519270	keystroke_a	a	n/a
259.71	0.075	519420	keystroke_n	n	n/a
260.0995	0.09	520199	keystroke_Key.backspace	Key.backspace	n/a
260.3995	0.015	520799	keystroke_Key.space	Key.space	n/a
261.21	0.209	522420	keystroke_r	r	n/a
261.359	0.165	522718	keystroke_e	e	n/a
261.525	0.089	523050	keystroke_n	n	n/a
261.674	0.105	523348	keystroke_a	a	n/a
261.944	0.075	523888	keystroke_s	s	n/a
262.109	0.075	524218	keystroke_s	s	n/a
262.3195	0.0905	524639	keystroke_a	a	n/a
262.425	0.1045	524850	keystroke_n	n	n/a
262.68	0.0895	525360	keystroke_c	c	n/a
263.01	0.06	526020	keystroke_Key.backspace	Key.backspace	n/a
263.1745	0.045	526349	keystroke_Key.backspace	Key.backspace	n/a
263.3095	0.06	526619	keystroke_Key.backspace	Key.backspace	n/a
263.4595	0.06	526919	keystroke_Key.backspace	Key.backspace	n/a
263.5795	0.09	527159	keystroke_Key.backspace	Key.backspace	n/a
263.895	0.075	527790	keystroke_i	i	n/a
264.21	0.105	528420	keystroke_s	s	n/a
264.4045	0.075	528809	keystroke_s	s	n/a
264.5845	0.075	529169	keystroke_a	a	n/a
264.6895	0.0905	529379	keystroke_n	n	n/a
264.825	0.075	529650	keystroke_c	c	n/a
264.945	0.12	529890	keystroke_e	e	n/a
265.02	0.12	530040	keystroke_Key.space	Key.space	n/a
265.815	0.09	531630	keystroke_m	m	n/a
265.935	0.09	531870	keystroke_a	a	n/a
266.16	0.12	532320	keystroke_z	z	n/a
266.7445	0.165	533489	keystroke_d	d	n/a
266.9245	0.105	533849	keystroke_a	a	n/a
266.9845	0.135	533969	keystroke_Key.space	Key.space	n/a
267.735	0.105	535470	keystroke_a	a	n/a
267.93	0.09	535860	keystroke_f	f	n/a
268.095	0.105	536190	keystroke_f	f	n/a
268.5445	0.075	537089	keystroke_i	i	n/a
268.7695	0.06	537539	keystroke_l	l	n/a
268.9645	0.075	537929	keystroke_i	i	n/a
269.5945	0.09	539189	keystroke_a	a	n/a
269.8645	0.09	539729	keystroke_t	t	n/a
269.9395	0.09	539879	keystroke_i	i	n/a
270.1045	0.09	540209	keystroke_o	o	n/a
270.2845	0.09	540569	keystroke_n	n	n/a
271.7545	0.09	543509	keystroke_Key.enter	Key.enter	n/a
271.85	12.431	543700	prompt	n/a	customize origins ridge thumbnails\n
272.58	0.12	545160	keystroke_c	c	n/a
272.775	0.105	545550	keystroke_u	u	n/a
272.9845	0.12	545969	keystroke_s	s	n/a
273.1495	0.105	546299	keystroke_t	t	n/a
273.2245	0.075	546449	keystroke_o	o	n/a
273.3895	0.12	546779	keystroke_m	m	n/a
273.7495	0.1055	547499	keystroke_i	i	n/a
273.93	0.075	547860	keystroke_s	s	n/a
274.365	0.075	548730	keystroke_Key.backspace	Key.backspace	n/a
274.65	0.12	549300	keystroke_z	z	n/a
274.875	0.12	549750	keystroke_e	e	n/a
275.01	0.135	550020	keystroke_Key.space	Key.space	n/a
275.445	0.09	550890	keystroke_o	o	n/a
275.55	0.135	551100	keystroke_r	r	n/a
275.73	0.075	551460	keystroke_i	i	n/a
275.865	0.06	551730	keystroke_g	g	n/a
275.97	0.075	551940	keystroke_i	i	n/a
276.765	0.105	553530	keystroke_n	n	n/a
277.005	0.12	554010	keystroke_s	s	n/a
277.14	0.09	554280	keystroke_Key.space	Key.space	n/a
277.41	0.105	554820	keystroke_r	r	n/a
277.53	0.075	555060	keystroke_i	i	n/a
277.845	0.075	555690	keystroke_g	g	n/a
278.19	0.075	556380	keystroke_Key.backspace	Key.backspace	n/a
278.25	0.105	556500	keystroke_d	d	n/a
278.61	0.075	557220	keystroke_e	e	n/a
278.985	0.09	557970	keystroke_Key.backspace	Key.backspace	n/a
279.045	0.15	558090	keystroke_g	g	n/a
279.18	0.15	558360	keystroke_e	e	n/a
279.255	0.135	558510	keystroke_Key.space	Key.space	n/a
279.915	0.12	559830	keystroke_t	t	n/a
280.095	0.105	560190	keystroke_h	h	n/a
280.74	0.09	561480	keystroke_m	m	n/a
281.295	0.09	562590	keystroke_Key.backspace	Key.backspace	n/a
281.61	0.075	563220	keystroke_u	u	n/a
282.045	0.075	564090	keystroke_m	m	n/a
282.285	0.075	564570	keystroke_b	b	n/a
282.5695	0.06	565139	keystroke_n	n	n/a
282.6895	0.105	565379	keystroke_a	a	n/a
282.8245	0.06	565649	keystroke_i	i	n/a
283.0045	0.075	566009	keystroke_l	l	n/a
283.0945	0.105	566189	keystroke_s	s	n/a
284.1895	0.09	568379	keystroke_Key.enter	Key.enter	n/a
284.2835	6.613	568567	prompt	n/a	jersey military meter willing\n
284.895	0.09	569790	keystroke_j	j	n/a
285.12	0.1045	570240	keystroke_e	e	n/a
285.3295	0.0905	570659	keystroke_r	r	n/a
285.7045	0.1505	571409	keystroke_s	s	n/a
285.8245	0.135	571649	keystroke_e	e	n/a
286.0945	0.135	572189	keystroke_y	y	n/a
286.2145	0.1205	572429	keystroke_Key.space	Key.space	n/a
286.455	0.105	572910	keystroke_m	m	n/a
286.6655	0.06	573331	keystroke_i	i	n/a
286.875	0.089	573750	keystroke_l	l	n/a
287.1455	0.0895	574291	keystroke_i	i	n/a
287.505	0.105	575010	keystroke_t	t	n/a
287.775	0.09	575550	keystroke_a	a	n/a
287.924	0.1205	575848	keystroke_r	r	n/a
288.015	0.1045	576030	keystroke_y	y	n/a
288.1495	0.15	576299	keystroke_Key.space	Key.space	n/a
288.7645	0.075	577529	keystroke_m	m	n/a
288.9595	0.106	577919	keystroke_e	e	n/a
289.1845	0.121	578369	keystroke_t	t	n/a
289.3645	0.18	578729	keystroke_e	e	n/a
289.4845	0.121	578969	keystroke_r	r	n/a
289.5745	0.105	579149	keystroke_Key.space	Key.space	n/a
289.7245	0.105	579449	keystroke_w	w	n/a
289.8145	0.0755	579629	keystroke_i	i	n/a
290.025	0.06	580050	keystroke_l	l	n/a
290.16	0.06	580320	keystroke_l	l	n/a
290.325	0.075	580650	keystroke_i	i	n/a
290.445	0.105	580890	keystroke_n	n	n/a
290.52	0.105	581040	keystroke_g	g	n/a
290.7595	0.135	581519	keystroke_Key.enter	Key.enter	n/a
290.899	6.777	581798	prompt	n/a	similar valuation punishment lease\n
291.9005	0.105	583801	keystroke_s	s	n/a
292.0345	0.075	584069	keystroke_i	i	n/a
292.2145	0.09	584429	keystroke_m	m	n/a
292.3945	0.06	584789	keystroke_i	i	n/a
292.5745	0.091	585149	keystroke_l	l	n/a
292.6495	0.09	585299	keystroke_a	a	n/a
292.8305	0.12	585661	keystroke_r	r	n/a
292.9345	0.12	585869	keystroke_Key.space	Key.space	n/a
293.325	0.12	586650	keystroke_v	v	n/a
293.5345	0.09	587069	keystroke_a	a	n/a
293.5795	0.075	587159	keystroke_l	l	n/a
293.7895	0.075	587579	keystroke_u	u	n/a
293.8795	0.09	587759	keystroke_a	a	n/a
294.0745	0.09	588149	keystroke_t	t	n/a
294.1655	0.089	588331	keystroke_i	i	n/a
294.2995	0.0755	588599	keystroke_o	o	n/a
294.48	0.105	588960	keystroke_n	n	n/a
294.6	0.12	589200	keystroke_Key.space	Key.space	n/a
294.915	0.09	589830	keystroke_p	p	n/a
295.155	0.075	590310	keystroke_u	u	n/a
295.305	0.09	590610	keystroke_n	n	n/a
295.455	0.105	590910	keystroke_i	i	n/a
295.575	0.105	591150	keystroke_s	s	n/a
295.68	0.09	591360	keystroke_h	h	n/a
295.89	0.105	591780	keystroke_m	m	n/a
295.98	0.105	591960	keystroke_e	e	n/a
296.13	0.105	592260	keystroke_n	n	n/a
296.22	0.09	592440	keystroke_t	t	n/a
296.3995	0.12	592799	keystroke_Key.space	Key.space	n/a
296.8795	0.045	593759	keystroke_l	l	n/a
296.9845	0.09	593969	keystroke_e	e	n/a
297.1795	0.09	594359	keystroke_a	a	n/a
297.3595	0.15	594719	keystroke_s	s	n/a
297.4495	0.15	594899	keystroke_e	e	n/a
297.5695	0.105	595139	keystroke_Key.enter	Key.enter	n/a
297.679	6.7475	595358	prompt	n/a	advanced realty residential fine\n
298.365	0.105	596730	keystroke_a	a	n/a
298.5295	0.12	597059	keystroke_d	d	n/a
298.7855	0.104	597571	keystroke_v	v	n/a
298.9945	0.15	597989	keystroke_a	a	n/a
299.1145	0.09	598229	keystroke_n	n	n/a
299.2505	0.119	598501	keystroke_c	c	n/a
299.3995	0.18	598799	keystroke_e	e	n/a
299.5345	0.18	599069	keystroke_d	d	n/a
299.5945	0.165	599189	keystroke_Key.space	Key.space	n/a
300.0895	0.09	600179	keystroke_r	r	n/a
300.3145	0.105	600629	keystroke_e	e	n/a
300.4795	0.135	600959	keystroke_a	a	n/a
300.5545	0.075	601109	keystroke_l	l	n/a
300.8245	0.15	601649	keystroke_t	t	n/a
300.9145	0.135	601829	keystroke_y	y	n/a
301.0795	0.135	602159	keystroke_Key.space	Key.space	n/a
301.3945	0.165	602789	keystroke_r	r	n/a
301.4995	0.15	602999	keystroke_e	e	n/a
301.9495	0.09	603899	keystroke_s	s	n/a
301.9945	0.105	603989	keystroke_i	i	n/a
302.3695	0.165	604739	keystroke_d	d	n/a
302.5495	0.105	605099	keystroke_e	e	n/a
302.6395	0.09	605279	keystroke_n	n	n/a
302.8495	0.1055	605699	keystroke_t	t	n/a
302.985	0.105	605970	keystroke_i	i	n/a
303.21	0.09	606420	keystroke_a	a	n/a
303.285	0.105	606570	keystroke_l	l	n/a
303.42	0.12	606840	keystroke_Key.space	Key.space	n/a
303.705	0.12	607410	keystroke_f	f	n/a
303.855	0.075	607710	keystroke_i	i	n/a
303.99	0.12	607980	keystroke_n	n	n/a
304.035	0.12	608070	keystroke_e	e	n/a
304.305	0.1195	608610	keystroke_Key.enter	Key.enter	n/a
304.4385	9.1975	608877	prompt	n/a	vessel defines complete wright\n
305.1145	0.06	610229	keystroke_c	c	n/a
305.5345	0.075	611069	keystroke_Key.backspace	Key.backspace	n/a
305.6245	0.09	611249	keystroke_v	v	n/a
306.0145	0.105	612029	keystroke_e	e	n/a
306.2395	0.06	612479	keystroke_s	s	n/a
306.39	0.074	612780	keystroke_s	s	n/a
306.539	0.105	613078	keystroke_e	e	n/a
306.689	0.09	613378	keystroke_l	l	n/a
306.854	0.12	613708	keystroke_Key.space	Key.space	n/a
307.664	0.12	615328	keystroke_d	d	n/a
307.844	0.105	615688	keystroke_e	e	n/a
307.979	0.12	615958	keystroke_f	f	n/a
308.069	0.09	616138	keystroke_i	i	n/a
308.2345	0.1195	616469	keystroke_n	n	n/a
308.369	0.15	616738	keystroke_e	e	n/a
308.6545	0.105	617309	keystroke_s	s	n/a
308.7145	0.15	617429	keystroke_Key.space	Key.space	n/a
309.1345	0.09	618269	keystroke_c	c	n/a
309.1645	0.09	618329	keystroke_o	o	n/a
309.3445	0.075	618689	keystroke_m	m	n/a
309.5095	0.105	619019	keystroke_p	p	n/a
309.9295	0.075	619859	keystroke_l	l	n/a
310.3345	0.15	620669	keystroke_e	e	n/a
310.4395	0.165	620879	keystroke_t	t	n/a
310.5895	0.165	621179	keystroke_e	e	n/a
310.7845	0.135	621569	keystroke_Key.space	Key.space	n/a
311.4595	0.12	622919	keystroke_w	w	n/a
311.6395	0.15	623279	keystroke_r	r	n/a
311.7595	0.1045	623519	keystroke_i	i	n/a
312.0445	0.12	624089	keystroke_g	g	n/a
312.2245	0.15	624449	keystroke_t	t	n/a
312.2395	0.121	624479	keystroke_h	h	n/a
313.545	0.09	627090	keystroke_Key.enter	Key.enter	n/a
313.6385	8.9525	627277	prompt	n/a	detail answering locations frost\n
314.4595	0.165	628919	keystroke_d	d	n/a
314.6395	0.12	629279	keystroke_e	e	n/a
314.8495	0.12	629699	keystroke_t	t	n/a
315.0745	0.1355	630149	keystroke_a	a	n/a
315.1195	0.105	630239	keystroke_i	i	n/a
315.2995	0.12	630599	keystroke_l	l	n/a
315.4345	0.12	630869	keystroke_Key.space	Key.space	n/a
315.6745	0.135	631349	keystroke_a	a	n/a
316.0345	0.105	632069	keystroke_s	s	n/a
316.1695	0.105	632339	keystroke_n	n	n/a
316.6345	0.06	633269	keystroke_Key.backspace	Key.backspace	n/a
316.7245	0.09	633449	keystroke_Key.backspace	Key.backspace	n/a
317.1595	0.075	634319	keystroke_n	n	n/a
317.2795	0.135	634559	keystroke_s	s	n/a
317.5945	0.195	635189	keystroke_w	w	n/a
317.7145	0.135	635429	keystroke_e	e	n/a
317.9095	0.165	635819	keystroke_r	r	n/a
318.0595	0.105	636119	keystroke_i	i	n/a
318.2245	0.18	636449	keystroke_n	n	n/a
318.3295	0.15	636659	keystroke_g	g	n/a
318.4345	0.12	636869	keystroke_Key.space	Key.space	n/a
318.7045	0.075	637409	keystroke_l	l	n/a
318.8845	0.105	637769	keystroke_o	o	n/a
319.0045	0.09	638009	keystroke_v	v	n/a
319.1695	0.09	638339	keystroke_a	a	n/a
319.5745	0.045	639149	keystroke_Key.backspace	Key.backspace	n/a
319.6795	0.12	639359	keystroke_Key.backspace	Key.backspace	n/a
319.8745	0.15	639749	keystroke_c	c	n/a
320.0395	0.12	640079	keystroke_a	a	n/a
320.2645	0.1205	640529	keystroke_t	t	n/a
320.354	0.105	640708	keystroke_i	i	n/a
320.489	0.09	640978	keystroke_o	o	n/a
320.669	0.105	641338	keystroke_n	n	n/a
320.775	0.119	641550	keystroke_s	s	n/a
320.819	0.12	641638	keystroke_Key.space	Key.space	n/a
320.969	0.151	641938	keystroke_f	f	n/a
321.15	0.164	642300	keystroke_r	r	n/a
321.284	0.09	642568	keystroke_o	o	n/a
321.494	0.105	642988	keystroke_u	u	n/a
321.615	0.119	643230	keystroke_s	s	n/a
321.944	0.045	643888	keystroke_Key.backspace	Key.backspace	n/a
322.0345	0.12	644069	keystroke_Key.backspace	Key.backspace	n/a
322.0795	0.09	644159	keystroke_s	s	n/a
322.2145	0.15	644429	keystroke_t	t	n/a
322.4845	0.105	644969	keystroke_Key.enter	Key.enter	n/a
322.5945	4.886	645189	prompt	n/a	loading rain said floral\n
323.1595	0.09	646319	keystroke_l	l	n/a
323.3845	0.12	646769	keystroke_o	o	n/a
323.5495	0.135	647099	keystroke_a	a	n/a
323.7145	0.075	647429	keystroke_d	d	n/a
323.7595	0.09	647519	keystroke_i	i	n/a
323.9095	0.135	647819	keystroke_n	n	n/a
324.0295	0.105	648059	keystroke_g	g	n/a
324.0895	0.105	648179	keystroke_Key.space	Key.space	n/a
324.3745	0.105	648749	keystroke_r	r	n/a
324.5845	0.12	649169	keystroke_a	a	n/a
324.6145	0.105	649229	keystroke_i	i	n/a
324.7795	0.045	649559	keystroke_n	n	n/a
324.7945	0.15	649589	keystroke_Key.space	Key.space	n/a
325.3495	0.21	650699	keystroke_s	s	n/a
325.5145	0.165	651029	keystroke_a	a	n/a
325.6345	0.12	651269	keystroke_i	i	n/a
325.7395	0.15	651479	keystroke_d	d	n/a
325.8295	0.15	651659	keystroke_Key.space	Key.space	n/a
326.2795	0.1195	652559	keystroke_f	f	n/a
326.384	0.075	652768	keystroke_l	l	n/a
326.549	0.105	653098	keystroke_o	o	n/a
326.939	0.06	653878	keystroke_r	r	n/a
327.134	0.09	654268	keystroke_a	a	n/a
327.194	0.105	654388	keystroke_l	l	n/a
327.359	0.12	654718	keystroke_Key.enter	Key.enter	n/a
327.4845	5.8465	654969	prompt	n/a	signed took governmental self\n
328.169	0.075	656338	keystroke_s	s	n/a
328.229	0.09	656458	keystroke_i	i	n/a
328.379	0.105	656758	keystroke_g	g	n/a
328.454	0.12	656908	keystroke_n	n	n/a
328.559	0.15	657118	keystroke_e	e	n/a
328.769	0.151	657538	keystroke_d	d	n/a
328.874	0.135	657748	keystroke_Key.space	Key.space	n/a
329.099	0.075	658198	keystroke_t	t	n/a
329.145	0.074	658290	keystroke_o	o	n/a
329.294	0.105	658588	keystroke_o	o	n/a
329.444	0.12	658888	keystroke_k	k	n/a
329.579	0.15	659158	keystroke_Key.space	Key.space	n/a
329.984	0.105	659968	keystroke_g	g	n/a
330.119	0.105	660238	keystroke_o	o	n/a
330.239	0.195	660478	keystroke_e	e	n/a
330.404	0.165	660808	keystroke_v	v	n/a
330.749	0.045	661498	keystroke_Key.backspace	Key.backspace	n/a
330.854	0.09	661708	keystroke_Key.backspace	Key.backspace	n/a
330.93	0.134	661860	keystroke_v	v	n/a
331.049	0.195	662098	keystroke_e	e	n/a
331.214	0.181	662428	keystroke_r	r	n/a
331.349	0.09	662698	keystroke_n	n	n/a
331.7095	0.09	663419	keystroke_m	m	n/a
331.8145	0.105	663629	keystroke_e	e	n/a
331.9345	0.105	663869	keystroke_n	n	n/a
332.0545	0.105	664109	keystroke_t	t	n/a
332.2945	0.135	664589	keystroke_a	a	n/a
332.3695	0.105	664739	keystroke_l	l	n/a
332.5495	0.12	665099	keystroke_Key.space	Key.space	n/a
332.6845	0.12	665369	keystroke_s	s	n/a
332.8195	0.12	665639	keystroke_e	e	n/a
332.9395	0.105	665879	keystroke_l	l	n/a
333.0595	0.135	666119	keystroke_f	f	n/a
333.2095	0.12	666419	keystroke_Key.enter	Key.enter	n/a
333.3335	9.087	666667	prompt	n/a	england reservation glasses capitol\n
334.3045	0.1045	668609	keystroke_e	e	n/a
334.394	0.09	668788	keystroke_n	n	n/a
334.559	0.09	669118	keystroke_g	g	n/a
334.694	0.09	669388	keystroke_l	l	n/a
334.964	0.12	669928	keystroke_a	a	n/a
335.069	0.075	670138	keystroke_n	n	n/a
335.159	0.135	670318	keystroke_d	d	n/a
335.279	0.09	670558	keystroke_Key.space	Key.space	n/a
336.644	0.15	673288	keystroke_r	r	n/a
336.749	0.135	673498	keystroke_e	e	n/a
337.019	0.15	674038	keystroke_s	s	n/a
337.109	0.135	674218	keystroke_e	e	n/a
337.289	0.12	674578	keystroke_r	r	n/a
337.544	0.12	675088	keystroke_v	v	n/a
337.859	0.075	675718	keystroke_a	a	n/a
338.0395	0.12	676079	keystroke_t	t	n/a
338.1145	0.075	676229	keystroke_i	i	n/a
338.2945	0.075	676589	keystroke_o	o	n/a
338.4445	0.12	676889	keystroke_n	n	n/a
338.5345	0.135	677069	keystroke_Key.space	Key.space	n/a
338.6545	0.15	677309	keystroke_g	g	n/a
338.8345	0.09	677669	keystroke_l	l	n/a
338.9695	0.075	677939	keystroke_a	a	n/a
339.1495	0.09	678299	keystroke_s	s	n/a
339.2995	0.21	678599	keystroke_s	s	n/a
339.4795	0.18	678959	keystroke_e	e	n/a
339.6445	0.135	679289	keystroke_s	s	n/a
339.7195	0.135	679439	keystroke_Key.space	Key.space	n/a
340.6345	0.075	681269	keystroke_c	c	n/a
340.7545	0.12	681509	keystroke_a	a	n/a
340.8295	0.09	681659	keystroke_p	p	n/a
341.0545	0.105	682109	keystroke_i	i	n/a
341.2045	0.06	682409	keystroke_t	t	n/a
341.654	0.075	683308	keystroke_o	o	n/a
341.819	0.105	683638	keystroke_l	l	n/a
342.329	0.09	684658	keystroke_Key.enter	Key.enter	n/a
342.426	6.79	684852	prompt	n/a	extreme advert mainly newer\n
343.0195	0.12	686039	keystroke_e	e	n/a
343.2595	0.135	686519	keystroke_x	x	n/a
343.6045	0.09	687209	keystroke_t	t	n/a
343.7995	0.195	687599	keystroke_r	r	n/a
343.9645	0.165	687929	keystroke_e	e	n/a
344.0995	0.135	688199	keystroke_m	m	n/a
344.2795	0.12	688559	keystroke_e	e	n/a
344.5795	0.135	689159	keystroke_Key.space	Key.space	n/a
345.0145	0.1795	690029	keystroke_a	a	n/a
345.2545	0.105	690509	keystroke_d	d	n/a
345.5245	0.105	691049	keystroke_v	v	n/a
345.7645	0.105	691529	keystroke_a	a	n/a
346.1245	0.09	692249	keystroke_Key.backspace	Key.backspace	n/a
346.1845	0.09	692369	keystroke_e	e	n/a
346.3795	0.09	692759	keystroke_r	r	n/a
346.5295	0.1345	693059	keystroke_t	t	n/a
346.619	0.09	693238	keystroke_Key.space	Key.space	n/a
346.784	0.105	693568	keystroke_m	m	n/a
346.904	0.12	693808	keystroke_a	a	n/a
347.009	0.075	694018	keystroke_i	i	n/a
347.129	0.09	694258	keystroke_n	n	n/a
347.309	0.12	694618	keystroke_l	l	n/a
347.43	0.119	694860	keystroke_y	y	n/a
347.519	0.12	695038	keystroke_Key.space	Key.space	n/a
347.759	0.09	695518	keystroke_n	n	n/a
347.819	0.2555	695638	keystroke_e	e	n/a
347.9995	0.27	695999	keystroke_w	w	n/a
348.2395	0.3	696479	keystroke_e	e	n/a
348.5095	0.12	697019	keystroke_r	r	n/a
349.0645	0.15	698129	keystroke_Key.enter	Key.enter	n/a
349.2195	6.8815	698439	prompt	n/a	clinton columbus cargo verified\n
349.9345	0.15	699869	keystroke_c	c	n/a
350.0995	0.09	700199	keystroke_l	l	n/a
350.2945	0.0755	700589	keystroke_i	i	n/a
350.445	0.09	700890	keystroke_n	n	n/a
350.595	0.12	701190	keystroke_t	t	n/a
350.76	0.105	701520	keystroke_o	o	n/a
350.955	0.09	701910	keystroke_n	n	n/a
351.029	0.1355	702058	keystroke_Key.space	Key.space	n/a
351.2545	0.075	702509	keystroke_c	c	n/a
351.3445	0.075	702689	keystroke_o	o	n/a
352.305	0.0595	704610	keystroke_l	l	n/a
352.484	0.075	704968	keystroke_u	u	n/a
352.679	0.09	705358	keystroke_m	m	n/a
352.8745	0.09	705749	keystroke_b	b	n/a
353.0245	0.09	706049	keystroke_u	u	n/a
353.1595	0.135	706319	keystroke_s	s	n/a
353.2195	0.135	706439	keystroke_Key.space	Key.space	n/a
353.475	0.09	706950	keystroke_c	c	n/a
353.61	0.105	707220	keystroke_a	a	n/a
353.805	0.105	707610	keystroke_r	r	n/a
354.329	0.0905	708658	keystroke_g	g	n/a
354.4345	0.105	708869	keystroke_o	o	n/a
354.5245	0.1345	709049	keystroke_Key.space	Key.space	n/a
354.7795	0.105	709559	keystroke_v	v	n/a
354.8855	0.194	709771	keystroke_e	e	n/a
355.0045	0.15	710009	keystroke_r	r	n/a
355.1995	0.09	710399	keystroke_i	i	n/a
355.4845	0.105	710969	keystroke_f	f	n/a
355.6195	0.09	711239	keystroke_i	i	n/a
355.6945	0.165	711389	keystroke_e	e	n/a
355.8445	0.165	711689	keystroke_d	d	n/a
355.9795	0.12	711959	keystroke_Key.enter	Key.enter	n/a
356.104	16.3795	712208	prompt	n/a	tear bizrate campbell indirect\n
356.745	0.09	713490	keystroke_t	t	n/a
357.105	0.105	714210	keystroke_e	e	n/a
357.255	0.18	714510	keystroke_a	a	n/a
357.48	0.15	714960	keystroke_r	r	n/a
357.645	0.074	715290	keystroke_Key.space	Key.space	n/a
357.855	0.09	715710	keystroke_b	b	n/a
358.3795	0.075	716759	keystroke_i	i	n/a
359.2645	0.105	718529	keystroke_z	z	n/a
359.7145	0.09	719429	keystroke_r	r	n/a
359.9395	0.09	719879	keystroke_a	a	n/a
360.1495	0.195	720299	keystroke_t	t	n/a
360.3295	0.15	720659	keystroke_e	e	n/a
360.464	0.1055	720928	keystroke_Key.space	Key.space	n/a
360.6895	0.105	721379	keystroke_c	c	n/a
360.7645	0.075	721529	keystroke_o	o	n/a
360.9295	0.09	721859	keystroke_m	m	n/a
361.4095	0.09	722819	keystroke_p	p	n/a
361.7245	0.03	723449	keystroke_b	b	n/a
361.9045	0.09	723809	keystroke_e	e	n/a
362.0095	0.075	724019	keystroke_l	l	n/a
362.1595	0.09	724319	keystroke_l	l	n/a
362.2645	0.12	724529	keystroke_Key.space	Key.space	n/a
362.4145	0.105	724829	keystroke_i	i	n/a
362.5945	0.09	725189	keystroke_n	n	n/a
363.029	0.105	726058	keystroke_d	d	n/a
363.179	0.076	726358	keystroke_i	i	n/a
363.344	0.18	726688	keystroke_r	r	n/a
363.494	0.151	726988	keystroke_e	e	n/a
363.69	0.134	727380	keystroke_c	c	n/a
363.885	0.12	727770	keystroke_t	t	n/a
365.144	0.075	730288	keystroke_Key.left	Key.left	n/a
365.369	0.09	730738	keystroke_Key.left	Key.left	n/a
365.579	0.06	731158	keystroke_Key.left	Key.left	n/a
365.774	0.06	731548	keystroke_Key.left	Key.left	n/a
365.969	0.075	731938	keystroke_Key.left	Key.left	n/a
366.149	0.06	732298	keystroke_Key.left	Key.left	n/a
366.329	0.06	732658	keystroke_Key.left	Key.left	n/a
366.494	0.075	732988	keystroke_Key.left	Key.left	n/a
366.674	0.06	733348	keystroke_Key.left	Key.left	n/a
366.869	0.06	733738	keystroke_Key.left	Key.left	n/a
367.034	0.075	734068	keystroke_Key.left	Key.left	n/a
367.229	0.06	734458	keystroke_Key.left	Key.left	n/a
367.394	0.06	734788	keystroke_Key.left	Key.left	n/a
367.544	0.075	735088	keystroke_Key.left	Key.left	n/a
367.724	0.075	735448	keystroke_Key.left	Key.left	n/a
368.414	0.06	736828	keystroke_Key.backspace	Key.backspace	n/a
368.549	0.135	737098	keystroke_a	a	n/a
372.4815	0	744963	keystroke_Key.enter	Key.enter	n/a
372.4865	8.7545	744973	prompt	n/a	fixed bench boundary laptop\n
373.2295	0.09	746459	keystroke_f	f	n/a
373.3345	0.09	746669	keystroke_i	i	n/a
373.4995	0.15	746999	keystroke_z	z	n/a
373.7245	0.1655	747449	keystroke_e	e	n/a
373.859	0.165	747718	keystroke_d	d	n/a
373.979	0.105	747958	keystroke_Key.space	Key.space	n/a
374.279	0.061	748558	keystroke_Key.backspace	Key.backspace	n/a
374.43	0.044	748860	keystroke_Key.backspace	Key.backspace	n/a
374.564	0.06	749128	keystroke_Key.backspace	Key.backspace	n/a
374.699	0.09	749398	keystroke_Key.backspace	Key.backspace	n/a
374.774	0.12	749548	keystroke_x	x	n/a
375.105	0.074	750210	keystroke_i	i	n/a
375.239	0.195	750478	keystroke_e	e	n/a
375.554	0.046	751108	keystroke_Key.backspace	Key.backspace	n/a
375.674	0.09	751348	keystroke_Key.backspace	Key.backspace	n/a
375.749	0.136	751498	keystroke_e	e	n/a
375.839	0.135	751678	keystroke_d	d	n/a
375.899	0.12	751798	keystroke_Key.space	Key.space	n/a
376.6045	0.075	753209	keystroke_b	b	n/a
376.7095	0.105	753419	keystroke_e	e	n/a
376.8295	0.09	753659	keystroke_n	n	n/a
376.9645	0.09	753929	keystroke_c	c	n/a
377.0695	0.075	754139	keystroke_h	h	n/a
377.1895	0.135	754379	keystroke_Key.space	Key.space	n/a
377.6845	0.075	755369	keystroke_b	b	n/a
377.924	0.075	755848	keystroke_o	o	n/a
378.164	0.045	756328	keystroke_u	u	n/a
378.299	0.09	756598	keystroke_n	n	n/a
378.494	0.12	756988	keystroke_d	d	n/a
378.644	0.135	757288	keystroke_a	a	n/a
378.855	0.104	757710	keystroke_r	r	n/a
378.974	0.09	757948	keystroke_y	y	n/a
379.079	0.105	758158	keystroke_Key.space	Key.space	n/a
379.319	0.105	758638	keystroke_l	l	n/a
379.409	0.09	758818	keystroke_a	a	n/a
379.529	0.075	759058	keystroke_p	p	n/a
379.739	0.105	759478	keystroke_t	t	n/a
380.099	0.075	760198	keystroke_o	o	n/a
380.264	0.0755	760528	keystroke_p	p	n/a
381.1645	0.075	762329	keystroke_Key.enter	Key.enter	n/a
381.246	9.1	762492	prompt	n/a	parliament alan convenience velvet\n
381.9595	0.1345	763919	keystroke_p	p	n/a
382.109	0.075	764218	keystroke_a	a	n/a
382.229	0.135	764458	keystroke_r	r	n/a
382.469	0.075	764938	keystroke_l	l	n/a
382.649	0.09	765298	keystroke_i	i	n/a
382.754	0.12	765508	keystroke_a	a	n/a
383.249	0.09	766498	keystroke_m	m	n/a
383.3545	0.105	766709	keystroke_e	e	n/a
383.4895	0.09	766979	keystroke_n	n	n/a
383.5945	0.12	767189	keystroke_t	t	n/a
383.6995	0.12	767399	keystroke_Key.space	Key.space	n/a
383.895	0.09	767790	keystroke_a	a	n/a
383.97	0.09	767940	keystroke_l	l	n/a
384.165	0.135	768330	keystroke_a	a	n/a
384.285	0.09	768570	keystroke_n	n	n/a
384.5695	0.1055	769139	keystroke_Key.space	Key.space	n/a
384.87	0.09	769740	keystroke_c	c	n/a
384.93	0.09	769860	keystroke_o	o	n/a
385.125	0.075	770250	keystroke_n	n	n/a
385.62	0.135	771240	keystroke_v	v	n/a
385.77	0.135	771540	keystroke_e	e	n/a
386.19	0.06	772380	keystroke_n	n	n/a
386.34	0.105	772680	keystroke_i	i	n/a
386.46	0.12	772920	keystroke_e	e	n/a
386.55	0.12	773100	keystroke_n	n	n/a
386.82	0.15	773640	keystroke_e	e	n/a
387.375	0.06	774750	keystroke_Key.backspace	Key.backspace	n/a
387.5245	0.15	775049	keystroke_c	c	n/a
388.41	0.075	776820	keystroke_e	e	n/a
388.635	0.09	777270	keystroke_Key.space	Key.space	n/a
388.785	0.1195	777570	keystroke_v	v	n/a
388.9345	0.12	777869	keystroke_e	e	n/a
388.9645	0.135	777929	keystroke_l	l	n/a
389.8045	0.09	779609	keystroke_v	v	n/a
389.9095	0.135	779819	keystroke_e	e	n/a
390.0895	0.135	780179	keystroke_t	t	n/a
390.2395	0.1055	780479	keystroke_Key.enter	Key.enter	n/a
390.349	16.1525	780698	prompt	n/a	arrangement indication belong boston\n
391.1095	0.09	782219	keystroke_a	a	n/a
391.4395	0.06	782879	keystroke_t	t	n/a
391.5895	0.09	783179	keystroke_t	t	n/a
391.8445	0.09	783689	keystroke_a	a	n/a
391.9495	0.075	783899	keystroke_g	g	n/a
392.0995	0.075	784199	keystroke_e	e	n/a
392.2195	0.1055	784439	keystroke_m	m	n/a
392.34	0.075	784680	keystroke_e	e	n/a
392.445	0.12	784890	keystroke_n	n	n/a
392.535	0.135	785070	keystroke_t	t	n/a
392.685	0.075	785370	keystroke_Key.space	Key.space	n/a
392.955	0.075	785910	keystroke_Key.backspace	Key.backspace	n/a
393.12	0.06	786240	keystroke_Key.backspace	Key.backspace	n/a
393.255	0.06	786510	keystroke_Key.backspace	Key.backspace	n/a
393.435	0.045	786870	keystroke_Key.backspace	Key.backspace	n/a
393.6	0.03	787200	keystroke_Key.backspace	Key.backspace	n/a
393.75	0.06	787500	keystroke_Key.backspace	Key.backspace	n/a
393.9	0.06	787800	keystroke_Key.backspace	Key.backspace	n/a
394.08	0.045	788160	keystroke_Key.backspace	Key.backspace	n/a
394.245	0.045	788490	keystroke_Key.backspace	Key.backspace	n/a
394.3945	0.06	788789	keystroke_Key.backspace	Key.backspace	n/a
394.4995	0.105	788999	keystroke_r	r	n/a
394.9045	0.09	789809	keystroke_r	r	n/a
395.1145	0.12	790229	keystroke_a	a	n/a
395.9395	0.075	791879	keystroke_n	n	n/a
396.18	0.06	792360	keystroke_g	g	n/a
396.33	0.12	792660	keystroke_e	e	n/a
396.675	0.075	793350	keystroke_m	m	n/a
396.795	0.09	793590	keystroke_e	e	n/a
396.93	0.09	793860	keystroke_n	n	n/a
397.035	0.09	794070	keystroke_t	t	n/a
397.17	0.12	794340	keystroke_Key.space	Key.space	n/a
397.62	0.09	795240	keystroke_d	d	n/a
397.755	0.075	795510	keystroke_i	i	n/a
398.025	0.045	796050	keystroke_Key.backspace	Key.backspace	n/a
398.145	0.075	796290	keystroke_Key.backspace	Key.backspace	n/a
398.385	0.06	796770	keystroke_i	i	n/a
398.52	0.105	797040	keystroke_n	n	n/a
398.67	0.105	797340	keystroke_d	d	n/a
398.79	0.075	797580	keystroke_i	i	n/a
399	0.09	798000	keystroke_c	c	n/a
399.135	0.12	798270	keystroke_a	a	n/a
399.36	0.09	798720	keystroke_t	t	n/a
399.45	0.06	798900	keystroke_i	i	n/a
399.615	0.075	799230	keystroke_o	o	n/a
399.795	0.09	799590	keystroke_n	n	n/a
399.885	0.135	799770	keystroke_Key.space	Key.space	n/a
400.215	0.06	800430	keystroke_b	b	n/a
400.3045	0.1055	800609	keystroke_e	e	n/a
400.47	0.075	800940	keystroke_l	l	n/a
400.695	0.045	801390	keystroke_o	o	n/a
401.1445	0.09	802289	keystroke_n	n	n/a
401.3395	0.12	802679	keystroke_s	s	n/a
401.8195	0.06	803639	keystroke_Key.backspace	Key.backspace	n/a
401.9995	0.09	803999	keystroke_Key.space	Key.space	n/a
402.3145	0.06	804629	keystroke_b	b	n/a
402.645	0.06	805290	keystroke_Key.backspace	Key.backspace	n/a
402.765	0.12	805530	keystroke_Key.backspace	Key.backspace	n/a
403.05	0.0755	806100	keystroke_Key.space	Key.space	n/a
403.0955	0.0745	806191	keystroke_g	g	n/a
403.379	0.061	806758	keystroke_Key.backspace	Key.backspace	n/a
403.5	0.09	807000	keystroke_Key.backspace	Key.backspace	n/a
403.6055	0.09	807211	keystroke_g	g	n/a
403.7255	0.1045	807451	keystroke_Key.space	Key.space	n/a
404.82	0.06	809640	keystroke_b	b	n/a
405.015	0.06	810030	keystroke_o	o	n/a
405.135	0.075	810270	keystroke_s	s	n/a
405.405	0.105	810810	keystroke_t	t	n/a
405.555	0.09	811110	keystroke_o	o	n/a
405.735	0.09	811470	keystroke_n	n	n/a
406.41	0.09	812820	keystroke_Key.enter	Key.enter	n/a
406.504	8.3225	813008	prompt	n/a	bright rarely elevation duncan\n
407.3395	0.06	814679	keystroke_b	b	n/a
407.4295	0.09	814859	keystroke_r	r	n/a
407.5645	0.075	815129	keystroke_i	i	n/a
407.7745	0.06	815549	keystroke_g	g	n/a
407.925	0.09	815850	keystroke_h	h	n/a
408.075	0.09	816150	keystroke_t	t	n/a
408.18	0.105	816360	keystroke_Key.space	Key.space	n/a
408.465	0.075	816930	keystroke_r	r	n/a
408.675	0.105	817350	keystroke_a	a	n/a
409.125	0.09	818250	keystroke_r	r	n/a
409.335	0.12	818670	keystroke_e	e	n/a
409.47	0.105	818940	keystroke_l	l	n/a
409.62	0.12	819240	keystroke_y	y	n/a
409.725	0.105	819450	keystroke_Key.space	Key.space	n/a
410.6395	0.12	821279	keystroke_e	e	n/a
410.7295	0.075	821459	keystroke_l	l	n/a
410.8645	0.12	821729	keystroke_e	e	n/a
411.3445	0.09	822689	keystroke_v	v	n/a
411.5845	0.105	823169	keystroke_a	a	n/a
411.8695	0.12	823739	keystroke_t	t	n/a
411.9745	0.075	823949	keystroke_i	i	n/a
412.1395	0.075	824279	keystroke_o	o	n/a
412.3345	0.105	824669	keystroke_n	n	n/a
412.4245	0.135	824849	keystroke_Key.space	Key.space	n/a
412.6355	0.119	825271	keystroke_d	d	n/a
412.7695	0.075	825539	keystroke_u	u	n/a
413.1295	0.075	826259	keystroke_n	n	n/a
413.3995	0.09	826799	keystroke_c	c	n/a
413.5495	0.12	827099	keystroke_a	a	n/a
413.7145	0.09	827429	keystroke_n	n	n/a
414.7195	0.105	829439	keystroke_Key.enter	Key.enter	n/a
414.833	13.508	829666	prompt	n/a	threats ethiopia customs extras\n
415.605	0.255	831210	keystroke_t	t	n/a
415.815	0.18	831630	keystroke_r	r	n/a
416.3095	0.09	832619	keystroke_Key.backspace	Key.backspace	n/a
416.5945	0.06	833189	keystroke_h	h	n/a
416.7295	0.195	833459	keystroke_r	r	n/a
416.9395	0.135	833879	keystroke_e	e	n/a
417.2095	0.135	834419	keystroke_a	a	n/a
417.9	0.105	835800	keystroke_t	t	n/a
418.14	0.105	836280	keystroke_s	s	n/a
418.215	0.09	836430	keystroke_Key.space	Key.space	n/a
418.5	0.105	837000	keystroke_e	e	n/a
418.65	0.03	837300	keystroke_h	h	n/a
419.685	0.15	839370	keystroke_j	j	n/a
420.12	0.06	840240	keystroke_Key.backspace	Key.backspace	n/a
420.24	0.09	840480	keystroke_Key.backspace	Key.backspace	n/a
420.3	0.12	840600	keystroke_t	t	n/a
420.495	0.09	840990	keystroke_h	h	n/a
420.63	0.105	841260	keystroke_i	i	n/a
421.17	0.06	842340	keystroke_o	o	n/a
421.335	0.09	842670	keystroke_p	p	n/a
421.56	0.075	843120	keystroke_i	i	n/a
421.695	0.1345	843390	keystroke_a	a	n/a
421.8145	0.105	843629	keystroke_Key.space	Key.space	n/a
422.4895	0.135	844979	keystroke_c	c	n/a
422.5645	0.045	845129	keystroke_o	o	n/a
422.8195	0.0755	845639	keystroke_Key.backspace	Key.backspace	n/a
423.045	0.075	846090	keystroke_u	u	n/a
423.135	0.12	846270	keystroke_s	s	n/a
423.495	0.12	846990	keystroke_t	t	n/a
423.63	0.075	847260	keystroke_o	o	n/a
423.81	0.105	847620	keystroke_m	m	n/a
423.975	0.135	847950	keystroke_e	e	n/a
424.29	0.075	848580	keystroke_Key.backspace	Key.backspace	n/a
424.38	0.12	848760	keystroke_s	s	n/a
424.515	0.105	849030	keystroke_Key.space	Key.space	n/a
424.65	0.075	849300	keystroke_e	e	n/a
424.92	0.03	849840	keystroke_c	c	n/a
425.295	0.09	850590	keystroke_Key.backspace	Key.backspace	n/a
425.445	0.135	850890	keystroke_x	x	n/a
425.6995	0.105	851399	keystroke_t	t	n/a
425.9245	0.12	851849	keystroke_r	r	n/a
426.1795	0.09	852359	keystroke_a	a	n/a
426.4345	0.15	852869	keystroke_s	s	n/a
428.2345	0.105	856469	keystroke_Key.enter	Key.enter	n/a
428.3435	10.4525	856687	prompt	n/a	favorites sensors circular carey\n
429.4345	0.135	858869	keystroke_f	f	n/a
429.6145	0.1355	859229	keystroke_a	a	n/a
429.915	0.15	859830	keystroke_v	v	n/a
430.035	0.12	860070	keystroke_o	o	n/a
430.275	0.104	860550	keystroke_r	r	n/a
430.41	0.12	860820	keystroke_i	i	n/a
430.8	0.135	861600	keystroke_t	t	n/a
430.98	0.1195	861960	keystroke_e	e	n/a
431.1895	0.135	862379	keystroke_s	s	n/a
431.3095	0.12	862619	keystroke_Key.space	Key.space	n/a
431.7445	0.165	863489	keystroke_s	s	n/a
431.8645	0.135	863729	keystroke_e	e	n/a
431.9695	0.12	863939	keystroke_n	n	n/a
432.1195	0.15	864239	keystroke_s	s	n/a
432.3745	0.105	864749	keystroke_o	o	n/a
432.4645	0.105	864929	keystroke_r	r	n/a
432.6745	0.15	865349	keystroke_s	s	n/a
432.7795	0.135	865559	keystroke_Key.space	Key.space	n/a
433.1995	0.135	866399	keystroke_c	c	n/a
433.349	0.076	866698	keystroke_i	i	n/a
433.4555	0.1035	866911	keystroke_r	r	n/a
433.68	0.1195	867360	keystroke_c	c	n/a
433.8145	0.045	867629	keystroke_l	l	n/a
434.3245	0.075	868649	keystroke_Key.backspace	Key.backspace	n/a
434.5345	0.0745	869069	keystroke_u	u	n/a
434.82	0.105	869640	keystroke_a	a	n/a
435.1345	0.045	870269	keystroke_Key.backspace	Key.backspace	n/a
435.2995	0.105	870599	keystroke_l	l	n/a
435.4195	0.105	870839	keystroke_a	a	n/a
435.6155	0.104	871231	keystroke_r	r	n/a
435.7045	0.105	871409	keystroke_Key.space	Key.space	n/a
436.1705	0.104	872341	keystroke_c	c	n/a
436.4545	0.0905	872909	keystroke_a	a	n/a
436.635	0.105	873270	keystroke_r	r	n/a
436.71	0.09	873420	keystroke_y	y	n/a
437.2795	0.105	874559	keystroke_Key.backspace	Key.backspace	n/a
437.3705	0.089	874741	keystroke_e	e	n/a
437.5795	0.136	875159	keystroke_t	t	n/a
438.045	0.06	876090	keystroke_Key.backspace	Key.backspace	n/a
438.106	0.119	876212	keystroke_y	y	n/a
438.7345	0.06	877469	keystroke_Key.enter	Key.enter	n/a
438.8025	7.4335	877605	prompt	n/a	collins surfing slow carolina\n
439.395	0.12	878790	keystroke_v	v	n/a
439.455	0.075	878910	keystroke_o	o	n/a
439.785	0.045	879570	keystroke_Key.backspace	Key.backspace	n/a
439.905	0.075	879810	keystroke_Key.backspace	Key.backspace	n/a
439.995	0.105	879990	keystroke_c	c	n/a
440.145	0.075	880290	keystroke_o	o	n/a
440.34	0.06	880680	keystroke_l	l	n/a
440.46	0.075	880920	keystroke_l	l	n/a
440.67	0.075	881340	keystroke_i	i	n/a
440.82	0.105	881640	keystroke_n	n	n/a
440.94	0.12	881880	keystroke_s	s	n/a
441	0.135	882000	keystroke_Key.space	Key.space	n/a
441.8395	0.105	883679	keystroke_s	s	n/a
441.9595	0.0905	883919	keystroke_u	u	n/a
442.065	0.12	884130	keystroke_r	r	n/a
442.6795	0.105	885359	keystroke_f	f	n/a
442.7545	0.09	885509	keystroke_i	i	n/a
442.9045	0.12	885809	keystroke_n	n	n/a
442.9645	0.12	885929	keystroke_g	g	n/a
443.0995	0.09	886199	keystroke_Key.space	Key.space	n/a
443.7595	0.09	887519	keystroke_s	s	n/a
443.8345	0.06	887669	keystroke_l	l	n/a
443.9845	0.105	887969	keystroke_o	o	n/a
444.0445	0.12	888089	keystroke_w	w	n/a
444.4345	0.105	888869	keystroke_Key.space	Key.space	n/a
444.7645	0.105	889529	keystroke_c	c	n/a
444.9145	0.1055	889829	keystroke_a	a	n/a
445.11	0.105	890220	keystroke_r	r	n/a
445.23	0.09	890460	keystroke_o	o	n/a
445.425	0.075	890850	keystroke_l	l	n/a
445.605	0.075	891210	keystroke_i	i	n/a
445.845	0.075	891690	keystroke_n	n	n/a
445.92	0.12	891840	keystroke_a	a	n/a
446.1145	0.12	892229	keystroke_Key.enter	Key.enter	n/a
446.239	12.537	892478	prompt	n/a	displayed generates items wednesday\n
446.9545	0.105	893909	keystroke_d	d	n/a
447.0445	0.105	894089	keystroke_i	i	n/a
447.21	0.1045	894420	keystroke_s	s	n/a
447.3295	0.075	894659	keystroke_p	p	n/a
447.615	0.045	895230	keystroke_l	l	n/a
447.96	0.09	895920	keystroke_a	a	n/a
448.065	0.105	896130	keystroke_y	y	n/a
448.185	0.12	896370	keystroke_e	e	n/a
448.275	0.1645	896550	keystroke_d	d	n/a
448.3945	0.135	896789	keystroke_Key.space	Key.space	n/a
449.1445	0.12	898289	keystroke_g	g	n/a
449.3245	0.18	898649	keystroke_e	e	n/a
449.4445	0.105	898889	keystroke_n	n	n/a
449.5795	0.15	899159	keystroke_e	e	n/a
449.6845	0.135	899369	keystroke_r	r	n/a
449.9395	0.0755	899879	keystroke_a	a	n/a
450.165	0.135	900330	keystroke_t	t	n/a
450.33	0.135	900660	keystroke_o	o	n/a
450.465	0.105	900930	keystroke_r	r	n/a
450.69	0.135	901380	keystroke_s	s	n/a
450.78	0.105	901560	keystroke_Key.space	Key.space	n/a
451.11	0.045	902220	keystroke_Key.backspace	Key.backspace	n/a
451.245	0.06	902490	keystroke_Key.backspace	Key.backspace	n/a
451.395	0.075	902790	keystroke_Key.backspace	Key.backspace	n/a
451.5	0.15	903000	keystroke_e	e	n/a
451.725	0.06	903450	keystroke_Key.backspace	Key.backspace	n/a
451.875	0.09	903750	keystroke_Key.backspace	Key.backspace	n/a
451.98	0.12	903960	keystroke_e	e	n/a
452.13	0.15	904260	keystroke_s	s	n/a
452.19	0.135	904380	keystroke_Key.space	Key.space	n/a
452.88	0.09	905760	keystroke_i	i	n/a
453.03	0.105	906060	keystroke_t	t	n/a
453.21	0.135	906420	keystroke_e	e	n/a
453.27	0.09	906540	keystroke_m	m	n/a
453.48	0.105	906960	keystroke_s	s	n/a
453.54	0.105	907080	keystroke_Key.space	Key.space	n/a
454.41	0.18	908820	keystroke_w	w	n/a
454.515	0.18	909030	keystroke_e	e	n/a
454.8	0.165	909600	keystroke_d	d	n/a
455.025	0.12	910050	keystroke_e	e	n/a
455.16	0.06	910320	keystroke_n	n	n/a
455.43	0.045	910860	keystroke_Key.backspace	Key.backspace	n/a
455.535	0.1045	911070	keystroke_Key.backspace	Key.backspace	n/a
455.7895	0.09	911579	keystroke_n	n	n/a
455.8645	0.135	911729	keystroke_e	e	n/a
456.0595	0.165	912119	keystroke_s	s	n/a
456.5545	0.1505	913109	keystroke_d	d	n/a
456.675	0.09	913350	keystroke_y	y	n/a
456.69	0.15	913380	keystroke_a	a	n/a
457.32	0.18	914640	keystroke_Key.backspace	Key.backspace	n/a
457.56	0.09	915120	keystroke_Key.backspace	Key.backspace	n/a
457.74	0.135	915480	keystroke_a	a	n/a
457.89	0.09	915780	keystroke_y	y	n/a
458.7	0.075	917400	keystroke_Key.enter	Key.enter	n/a
458.7785	17.9825	917557	prompt	n/a	ensemble tops ownership metals\n
459.7645	0.09	919529	keystroke_e	e	n/a
459.8845	0.06	919769	keystroke_m	m	n/a
460.3495	0.165	920699	keystroke_s	s	n/a
460.4845	0.12	920969	keystroke_e	e	n/a
460.5895	0.09	921179	keystroke_m	m	n/a
460.8595	0.075	921719	keystroke_b	b	n/a
461.0695	0.12	922139	keystroke_l	l	n/a
461.2055	0.089	922411	keystroke_e	e	n/a
461.3095	0.09	922619	keystroke_Key.space	Key.space	n/a
461.8195	0.12	923639	keystroke_t	t	n/a
461.9545	0.06	923909	keystroke_o	o	n/a
462.1045	0.09	924209	keystroke_p	p	n/a
462.2395	0.12	924479	keystroke_s	s	n/a
462.3895	0.1055	924779	keystroke_Key.space	Key.space	n/a
463.02	0.09	926040	keystroke_o	o	n/a
463.125	0.135	926250	keystroke_w	w	n/a
463.275	0.09	926550	keystroke_n	n	n/a
463.6795	0.105	927359	keystroke_e	e	n/a
463.9045	0.075	927809	keystroke_r	r	n/a
464.1145	0.09	928229	keystroke_s	s	n/a
464.1445	0.09	928289	keystroke_h	h	n/a
464.325	0.075	928650	keystroke_i	i	n/a
464.505	0.12	929010	keystroke_p	p	n/a
464.91	0.15	929820	keystroke_Key.space	Key.space	n/a
465.15	0.075	930300	keystroke_m	m	n/a
465.315	0.075	930630	keystroke_a	a	n/a
465.57	0.06	931140	keystroke_Key.backspace	Key.backspace	n/a
465.615	0.105	931230	keystroke_e	e	n/a
465.885	0.09	931770	keystroke_t	t	n/a
466.125	0.135	932250	keystroke_a	a	n/a
466.275	0.1195	932550	keystroke_l	l	n/a
466.9645	0.105	933929	keystroke_s	s	n/a
467.3095	0.075	934619	keystroke_Key.left	Key.left	n/a
467.5195	0.06	935039	keystroke_Key.left	Key.left	n/a
467.6995	0.06	935399	keystroke_Key.left	Key.left	n/a
467.8645	0.06	935729	keystroke_Key.left	Key.left	n/a
468.0295	0.06	936059	keystroke_Key.left	Key.left	n/a
468.2095	0.06	936419	keystroke_Key.left	Key.left	n/a
468.375	0.075	936750	keystroke_Key.left	Key.left	n/a
468.54	0.09	937080	keystroke_Key.left	Key.left	n/a
468.749	0.031	937498	keystroke_Key.left	Key.left	n/a
468.87	0.06	937740	keystroke_Key.left	Key.left	n/a
469.02	0.075	938040	keystroke_Key.left	Key.left	n/a
469.155	0.06	938310	keystroke_Key.left	Key.left	n/a
469.305	0.06	938610	keystroke_Key.left	Key.left	n/a
469.439	0.076	938878	keystroke_Key.left	Key.left	n/a
469.589	0.076	939178	keystroke_Key.left	Key.left	n/a
469.755	0.075	939510	keystroke_Key.left	Key.left	n/a
469.919	0.06	939838	keystroke_Key.left	Key.left	n/a
470.085	0.06	940170	keystroke_Key.left	Key.left	n/a
470.2345	0.06	940469	keystroke_Key.left	Key.left	n/a
470.37	0.075	940740	keystroke_Key.left	Key.left	n/a
470.535	0.06	941070	keystroke_Key.left	Key.left	n/a
470.6995	0.075	941399	keystroke_Key.left	Key.left	n/a
470.8645	0.076	941729	keystroke_Key.left	Key.left	n/a
471.0145	0.0595	942029	keystroke_Key.left	Key.left	n/a
471.179	0.06	942358	keystroke_Key.left	Key.left	n/a
471.329	0.075	942658	keystroke_Key.left	Key.left	n/a
471.4945	0.06	942989	keystroke_Key.left	Key.left	n/a
471.6445	0.075	943289	keystroke_Key.left	Key.left	n/a
471.825	0.045	943650	keystroke_Key.left	Key.left	n/a
471.975	0.06	943950	keystroke_Key.left	Key.left	n/a
472.14	0.045	944280	keystroke_Key.left	Key.left	n/a
472.275	0.09	944550	keystroke_Key.left	Key.left	n/a
473.3245	0.09	946649	keystroke_Key.right	Key.right	n/a
473.4745	0.09	946949	keystroke_Key.right	Key.right	n/a
473.8045	0.075	947609	keystroke_Key.backspace	Key.backspace	n/a
474.4495	0.09	948899	keystroke_b	b	n/a
475.095	0.09	950190	keystroke_Key.backspace	Key.backspace	n/a
475.425	0.075	950850	keystroke_n	n	n/a
476.6845	0.075	953369	keystroke_Key.enter	Key.enter	n/a
476.765	6.761	953530	prompt	n/a	prot i'm size producers\n
477.585	0.09	955170	keystroke_p	p	n/a
477.705	0.1045	955410	keystroke_r	r	n/a
477.8545	0.075	955709	keystroke_o	o	n/a
478.0195	0.075	956039	keystroke_t	t	n/a
478.1245	0.105	956249	keystroke_Key.space	Key.space	n/a
478.3345	0.075	956669	keystroke_i	i	n/a
478.7245	0.061	957449	keystroke_'	'	n/a
478.9795	0.09	957959	keystroke_m	m	n/a
479.1595	0.105	958319	keystroke_Key.space	Key.space	n/a
479.6095	0.12	959219	keystroke_s	s	n/a
479.7745	0.075	959549	keystroke_i	i	n/a
479.9695	0.15	959939	keystroke_z	z	n/a
480.2545	0.1055	960509	keystroke_e	e	n/a
480.375	0.06	960750	keystroke_Key.space	Key.space	n/a
480.57	0.075	961140	keystroke_p	p	n/a
480.675	0.09	961350	keystroke_r	r	n/a
480.81	0.09	961620	keystroke_o	o	n/a
481.065	0.12	962130	keystroke_d	d	n/a
481.2	0.09	962400	keystroke_u	u	n/a
481.3195	0.105	962639	keystroke_c	c	n/a
481.7395	0.18	963479	keystroke_e	e	n/a
481.8445	0.135	963689	keystroke_r	r	n/a
482.0695	0.105	964139	keystroke_s	s	n/a
483.4345	0.09	966869	keystroke_Key.enter	Key.enter	n/a
483.5285	9.0725	967057	prompt	n/a	dealing colleagues tool sacrifice\n
484.2595	0.12	968519	keystroke_d	d	n/a
484.3945	0.09	968789	keystroke_e	e	n/a
484.5595	0.105	969119	keystroke_a	a	n/a
484.6495	0.075	969299	keystroke_l	l	n/a
484.8445	0.06	969689	keystroke_i	i	n/a
484.8455	0.044	969691	keystroke_o	o	n/a
485.025	0.09	970050	keystroke_n	n	n/a
485.13	0.12	970260	keystroke_g	g	n/a
485.505	0.06	971010	keystroke_Key.backspace	Key.backspace	n/a
485.655	0.075	971310	keystroke_Key.backspace	Key.backspace	n/a
485.79	0.06	971580	keystroke_Key.backspace	Key.backspace	n/a
486.105	0.09	972210	keystroke_n	n	n/a
486.225	0.09	972450	keystroke_g	g	n/a
486.33	0.09	972660	keystroke_Key.space	Key.space	n/a
486.585	0.09	973170	keystroke_c	c	n/a
486.72	0.06	973440	keystroke_o	o	n/a
487.1995	0.06	974399	keystroke_l	l	n/a
487.3645	0.075	974729	keystroke_l	l	n/a
487.4545	0.09	974909	keystroke_e	e	n/a
488.055	0.12	976110	keystroke_a	a	n/a
488.16	0.075	976320	keystroke_g	g	n/a
488.31	0.1045	976620	keystroke_u	u	n/a
488.4295	0.09	976859	keystroke_e	e	n/a
488.6845	0.105	977369	keystroke_s	s	n/a
488.7745	0.105	977549	keystroke_Key.space	Key.space	n/a
489.0895	0.105	978179	keystroke_t	t	n/a
489.1795	0.075	978359	keystroke_o	o	n/a
489.3145	0.09	978629	keystroke_o	o	n/a
489.5095	0.09	979019	keystroke_l	l	n/a
489.6295	0.135	979259	keystroke_Key.space	Key.space	n/a
490.3345	0.075	980669	keystroke_s	s	n/a
490.5295	0.09	981059	keystroke_a	a	n/a
490.7845	0.105	981569	keystroke_c	c	n/a
490.9645	0.135	981929	keystroke_r	r	n/a
491.0845	0.09	982169	keystroke_i	i	n/a
491.5045	0.105	983009	keystroke_f	f	n/a
491.6105	0.089	983221	keystroke_i	i	n/a
491.7595	0.12	983519	keystroke_c	c	n/a
491.9395	0.135	983879	keystroke_e	e	n/a
492.525	0.075	985050	keystroke_Key.enter	Key.enter	n/a
492.6035	6.9425	985207	prompt	n/a	claimed stays come cabin\n
493.275	0.09	986550	keystroke_c	c	n/a
493.59	0.06	987180	keystroke_l	l	n/a
493.7845	0.105	987569	keystroke_a	a	n/a
493.8905	0.074	987781	keystroke_i	i	n/a
494.0545	0.105	988109	keystroke_m	m	n/a
494.1745	0.135	988349	keystroke_e	e	n/a
494.2945	0.12	988589	keystroke_d	d	n/a
494.3845	0.105	988769	keystroke_Key.space	Key.space	n/a
494.8645	0.09	989729	keystroke_s	s	n/a
495.0595	0.075	990119	keystroke_y	y	n/a
495.1945	0.105	990389	keystroke_a	a	n/a
495.5545	0.06	991109	keystroke_Key.backspace	Key.backspace	n/a
495.6895	0.105	991379	keystroke_Key.backspace	Key.backspace	n/a
496.0195	0.075	992039	keystroke_t	t	n/a
496.1245	0.12	992249	keystroke_a	a	n/a
496.2595	0.075	992519	keystroke_y	y	n/a
496.5595	0.12	993119	keystroke_s	s	n/a
496.6495	0.12	993299	keystroke_Key.space	Key.space	n/a
496.9645	0.09	993929	keystroke_c	c	n/a
497.0555	0.074	994111	keystroke_o	o	n/a
497.2345	0.105	994469	keystroke_m	m	n/a
497.3405	0.089	994681	keystroke_e	e	n/a
497.4305	0.134	994861	keystroke_Key.space	Key.space	n/a
497.7145	0.03	995429	keystroke_b	b	n/a
498.06	0.06	996120	keystroke_Key.backspace	Key.backspace	n/a
498.15	0.12	996300	keystroke_c	c	n/a
498.255	0.1045	996510	keystroke_a	a	n/a
498.4945	0.075	996989	keystroke_b	b	n/a
498.6745	0.09	997349	keystroke_i	i	n/a
498.8395	0.09	997679	keystroke_n	n	n/a
499.47	0.075	998940	keystroke_Key.enter	Key.enter	n/a
499.549	6.537	999098	prompt	n/a	member fiscal mailman harder\n
500.28	0.0745	1000560	keystroke_m	m	n/a
500.4445	0.09	1000889	keystroke_e	e	n/a
500.5795	0.105	1001159	keystroke_m	m	n/a
500.7895	0.06	1001579	keystroke_e	e	n/a
500.8945	0.075	1001789	keystroke_b	b	n/a
501.2095	0.045	1002419	keystroke_Key.backspace	Key.backspace	n/a
501.3145	0.09	1002629	keystroke_Key.backspace	Key.backspace	n/a
501.585	0.06	1003170	keystroke_b	b	n/a
501.705	0.165	1003410	keystroke_e	e	n/a
501.825	0.12	1003650	keystroke_r	r	n/a
501.915	0.105	1003830	keystroke_Key.space	Key.space	n/a
502.125	0.09	1004250	keystroke_f	f	n/a
502.23	0.075	1004460	keystroke_i	i	n/a
502.38	0.12	1004760	keystroke_s	s	n/a
502.665	0.09	1005330	keystroke_c	c	n/a
502.8145	0.1055	1005629	keystroke_a	a	n/a
502.889	0.091	1005778	keystroke_l	l	n/a
502.994	0.121	1005988	keystroke_Key.space	Key.space	n/a
503.235	0.105	1006470	keystroke_m	m	n/a
503.37	0.135	1006740	keystroke_a	a	n/a
503.52	0.045	1007040	keystroke_i	i	n/a
503.67	0.075	1007340	keystroke_l	l	n/a
503.865	0.09	1007730	keystroke_m	m	n/a
503.97	0.12	1007940	keystroke_a	a	n/a
504.12	0.075	1008240	keystroke_n	n	n/a
504.7045	0.105	1009409	keystroke_Key.space	Key.space	n/a
505.0055	0.0595	1010011	keystroke_h	h	n/a
505.08	0.105	1010160	keystroke_a	a	n/a
505.26	0.12	1010520	keystroke_r	r	n/a
505.47	0.165	1010940	keystroke_d	d	n/a
505.62	0.195	1011240	keystroke_e	e	n/a
505.755	0.135	1011510	keystroke_r	r	n/a
505.965	0.1195	1011930	keystroke_Key.enter	Key.enter	n/a
506.0885	7.3775	1012177	prompt	n/a	sept determine constitutes those\n
506.8045	0.15	1013609	keystroke_s	s	n/a
506.9245	0.12	1013849	keystroke_e	e	n/a
507.0295	0.105	1014059	keystroke_p	p	n/a
507.1795	0.09	1014359	keystroke_t	t	n/a
507.3145	0.1055	1014629	keystroke_Key.space	Key.space	n/a
507.78	0.12	1015560	keystroke_d	d	n/a
507.915	0.075	1015830	keystroke_e	e	n/a
508.095	0.12	1016190	keystroke_t	t	n/a
508.29	0.12	1016580	keystroke_e	e	n/a
508.38	0.15	1016760	keystroke_r	r	n/a
508.665	0.075	1017330	keystroke_n	n	n/a
509.2795	0.075	1018559	keystroke_Key.backspace	Key.backspace	n/a
509.5195	0.09	1019039	keystroke_m	m	n/a
509.7145	0.075	1019429	keystroke_i	i	n/a
509.8645	0.105	1019729	keystroke_n	n	n/a
510.0295	0.105	1020059	keystroke_e	e	n/a
510.1195	0.12	1020239	keystroke_Key.space	Key.space	n/a
510.4645	0.105	1020929	keystroke_c	c	n/a
510.5245	0.075	1021049	keystroke_o	o	n/a
510.7195	0.09	1021439	keystroke_n	n	n/a
510.8695	0.09	1021739	keystroke_s	s	n/a
511.0645	0.105	1022129	keystroke_t	t	n/a
511.1545	0.09	1022309	keystroke_i	i	n/a
511.5895	0.09	1023179	keystroke_t	t	n/a
511.7095	0.075	1023419	keystroke_u	u	n/a
511.9645	0.09	1023929	keystroke_t	t	n/a
512.1145	0.12	1024229	keystroke_e	e	n/a
512.34	0.135	1024680	keystroke_s	s	n/a
512.415	0.135	1024830	keystroke_Key.space	Key.space	n/a
512.82	0.105	1025640	keystroke_t	t	n/a
512.91	0.075	1025820	keystroke_h	h	n/a
513.09	0.105	1026180	keystroke_o	o	n/a
513.15	0.165	1026300	keystroke_s	s	n/a
513.255	0.15	1026510	keystroke_e	e	n/a
513.345	0.12	1026690	keystroke_Key.enter	Key.enter	n/a
513.4685	9.6125	1026937	prompt	n/a	benefits cingular festivals canal\n
514.35	0.075	1028700	keystroke_e	e	n/a
514.47	0.06	1028940	keystroke_b	b	n/a
514.725	0.06	1029450	keystroke_Key.backspace	Key.backspace	n/a
514.845	0.105	1029690	keystroke_Key.backspace	Key.backspace	n/a
514.89	0.135	1029780	keystroke_b	b	n/a
515.04	0.12	1030080	keystroke_e	e	n/a
515.145	0.09	1030290	keystroke_n	n	n/a
515.295	0.105	1030590	keystroke_e	e	n/a
515.52	0.1045	1031040	keystroke_f	f	n/a
515.5945	0.105	1031189	keystroke_i	i	n/a
515.7595	0.12	1031519	keystroke_t	t	n/a
516.0295	0.09	1032059	keystroke_s	s	n/a
516.0745	0.105	1032149	keystroke_Key.space	Key.space	n/a
516.63	0.09	1033260	keystroke_c	c	n/a
516.705	0.06	1033410	keystroke_i	i	n/a
516.855	0.105	1033710	keystroke_n	n	n/a
517.32	0.045	1034640	keystroke_d	d	n/a
517.35	0.105	1034700	keystroke_u	u	n/a
517.665	0.06	1035330	keystroke_l	l	n/a
517.935	0.03	1035870	keystroke_Key.backspace	Key.backspace	n/a
518.055	0.06	1036110	keystroke_Key.backspace	Key.backspace	n/a
518.175	0.105	1036350	keystroke_Key.backspace	Key.backspace	n/a
518.265	0.105	1036530	keystroke_g	g	n/a
518.475	0.06	1036950	keystroke_u	u	n/a
518.7	0.105	1037400	keystroke_l	l	n/a
518.76	0.105	1037520	keystroke_a	a	n/a
518.94	0.105	1037880	keystroke_r	r	n/a
519.03	0.105	1038060	keystroke_Key.space	Key.space	n/a
519.69	0.06	1039380	keystroke_f	f	n/a
519.99	0.1045	1039980	keystroke_e	e	n/a
520.1995	0.075	1040399	keystroke_s	s	n/a
520.3495	0.09	1040699	keystroke_t	t	n/a
520.4995	0.075	1040999	keystroke_i	i	n/a
520.6195	0.105	1041239	keystroke_v	v	n/a
520.8895	0.075	1041779	keystroke_a	a	n/a
520.9495	0.075	1041899	keystroke_l	l	n/a
521.28	0.09	1042560	keystroke_s	s	n/a
521.4295	0.09	1042859	keystroke_Key.space	Key.space	n/a
522.3295	0.075	1044659	keystroke_c	c	n/a
522.45	0.104	1044900	keystroke_a	a	n/a
522.509	0.09	1045018	keystroke_n	n	n/a
522.6595	0.1045	1045319	keystroke_a	a	n/a
522.75	0.105	1045500	keystroke_l	l	n/a
522.974	0.1055	1045948	keystroke_Key.enter	Key.enter	n/a
523.09	10.761	1046180	prompt	n/a	browsing horn suggestions troops\n
523.95	0.074	1047900	keystroke_b	b	n/a
524.295	0.1195	1048590	keystroke_r	r	n/a
524.4295	0.09	1048859	keystroke_o	o	n/a
524.5655	0.105	1049131	keystroke_w	w	n/a
524.7145	0.09	1049429	keystroke_i	i	n/a
524.8945	0.105	1049789	keystroke_n	n	n/a
525.3	0.045	1050600	keystroke_Key.backspace	Key.backspace	n/a
525.42	0.09	1050840	keystroke_Key.backspace	Key.backspace	n/a
525.9295	0.105	1051859	keystroke_s	s	n/a
526.0195	0.075	1052039	keystroke_i	i	n/a
526.1545	0.1355	1052309	keystroke_n	n	n/a
526.275	0.105	1052550	keystroke_g	g	n/a
526.38	0.105	1052760	keystroke_Key.space	Key.space	n/a
526.7545	0.075	1053509	keystroke_h	h	n/a
526.9495	0.105	1053899	keystroke_o	o	n/a
527.0695	0.12	1054139	keystroke_r	r	n/a
527.1745	0.105	1054349	keystroke_n	n	n/a
527.2945	0.12	1054589	keystroke_Key.space	Key.space	n/a
527.9695	0.105	1055939	keystroke_s	s	n/a
528.0595	0.075	1056119	keystroke_u	u	n/a
528.1945	0.09	1056389	keystroke_g	g	n/a
528.3595	0.105	1056719	keystroke_g	g	n/a
528.4495	0.12	1056899	keystroke_e	e	n/a
528.6745	0.075	1057349	keystroke_s	s	n/a
528.8095	0.105	1057619	keystroke_t	t	n/a
528.8845	0.09	1057769	keystroke_i	i	n/a
529.0495	0.075	1058099	keystroke_o	o	n/a
529.1995	0.135	1058399	keystroke_n	n	n/a
529.3195	0.12	1058639	keystroke_s	s	n/a
529.4095	0.135	1058819	keystroke_Key.space	Key.space	n/a
529.6795	0.135	1059359	keystroke_t	t	n/a
529.8745	0.12	1059749	keystroke_r	r	n/a
530.22	0.06	1060440	keystroke_o	o	n/a
530.4295	0.06	1060859	keystroke_p	p	n/a
530.58	0.0595	1061160	keystroke_p	p	n/a
530.8345	0.045	1061669	keystroke_Key.backspace	Key.backspace	n/a
530.9395	0.09	1061879	keystroke_Key.backspace	Key.backspace	n/a
531.1495	0.075	1062299	keystroke_i	i	n/a
531.3445	0.09	1062689	keystroke_p	p	n/a
531.6745	0.045	1063349	keystroke_Key.backspace	Key.backspace	n/a
531.7795	0.09	1063559	keystroke_Key.backspace	Key.backspace	n/a
531.99	0.075	1063980	keystroke_o	o	n/a
532.2	0.075	1064400	keystroke_p	p	n/a
532.38	0.105	1064760	keystroke_s	s	n/a
533.7745	0.075	1067549	keystroke_Key.enter	Key.enter	n/a
533.8545	7.7065	1067709	prompt	n/a	trouble items ieee contemporary\n
534.5995	0.105	1069199	keystroke_t	t	n/a
534.7945	0.105	1069589	keystroke_r	r	n/a
534.8395	0.075	1069679	keystroke_o	o	n/a
535.0495	0.0755	1070099	keystroke_u	u	n/a
535.215	0.075	1070430	keystroke_b	b	n/a
535.455	0.09	1070910	keystroke_l	l	n/a
535.725	0.105	1071450	keystroke_e	e	n/a
535.89	0.075	1071780	keystroke_Key.space	Key.space	n/a
536.025	0.075	1072050	keystroke_i	i	n/a
536.189	0.106	1072378	keystroke_t	t	n/a
536.3695	0.12	1072739	keystroke_e	e	n/a
536.4445	0.105	1072889	keystroke_m	m	n/a
536.6395	0.12	1073279	keystroke_s	s	n/a
536.7295	0.105	1073459	keystroke_Key.space	Key.space	n/a
537.0745	0.075	1074149	keystroke_i	i	n/a
537.3295	0.075	1074659	keystroke_e	e	n/a
537.4945	0.0905	1074989	keystroke_e	e	n/a
537.6295	0.1195	1075259	keystroke_e	e	n/a
538.004	0.12	1076008	keystroke_Key.space	Key.space	n/a
538.4245	0.105	1076849	keystroke_c	c	n/a
538.4995	0.0755	1076999	keystroke_o	o	n/a
538.8745	0.0745	1077749	keystroke_n	n	n/a
539.084	0.09	1078168	keystroke_t	t	n/a
539.429	0.105	1078858	keystroke_e	e	n/a
539.5195	0.0755	1079039	keystroke_m	m	n/a
539.729	0.06	1079458	keystroke_p	p	n/a
539.909	0.075	1079818	keystroke_o	o	n/a
540.029	0.09	1080058	keystroke_r	r	n/a
540.254	0.0755	1080508	keystroke_a	a	n/a
540.4495	0.09	1080899	keystroke_r	r	n/a
540.5995	0.09	1081199	keystroke_y	y	n/a
541.4845	0.075	1082969	keystroke_Key.enter	Key.enter	n/a
541.5635	6.4175	1083127	prompt	n/a	wider my bell ambassador\n
542.16	0.119	1084320	keystroke_w	w	n/a
542.264	0.0905	1084528	keystroke_i	i	n/a
542.3695	0.165	1084739	keystroke_d	d	n/a
542.55	0.1345	1085100	keystroke_e	e	n/a
542.7445	0.105	1085489	keystroke_r	r	n/a
542.8345	0.135	1085669	keystroke_Key.space	Key.space	n/a
543.1195	0.105	1086239	keystroke_m	m	n/a
543.389	0.1065	1086778	keystroke_y	y	n/a
543.479	0.12	1086958	keystroke_Key.space	Key.space	n/a
543.929	0.0905	1087858	keystroke_b	b	n/a
544.079	0.0905	1088158	keystroke_e	e	n/a
544.259	0.06	1088518	keystroke_l	l	n/a
544.364	0.12	1088728	keystroke_l	l	n/a
544.514	0.135	1089028	keystroke_Key.space	Key.space	n/a
545.099	0.09	1090198	keystroke_a	a	n/a
545.204	0.0755	1090408	keystroke_m	m	n/a
545.519	0.075	1091038	keystroke_b	b	n/a
545.7145	0.09	1091429	keystroke_a	a	n/a
545.9395	0.06	1091879	keystroke_s	s	n/a
546.0895	0.06	1092179	keystroke_s	s	n/a
546.2695	0.075	1092539	keystroke_a	a	n/a
546.5995	0.135	1093199	keystroke_d	d	n/a
546.7195	0.09	1093439	keystroke_o	o	n/a
547.1245	0.15	1094249	keystroke_r	r	n/a
547.9045	0.075	1095809	keystroke_Key.enter	Key.enter	n/a
547.9835	15.688	1095967	prompt	n/a	instrumentation rachel cubic novelty\n
548.5795	0.075	1097159	keystroke_i	i	n/a
548.7745	0.09	1097549	keystroke_n	n	n/a
549.2095	0.105	1098419	keystroke_s	s	n/a
549.4345	0.09	1098869	keystroke_t	t	n/a
549.6595	0.105	1099319	keystroke_r	r	n/a
549.7945	0.075	1099589	keystroke_u	u	n/a
550.0045	0.09	1100009	keystroke_m	m	n/a
550.1095	0.105	1100219	keystroke_e	e	n/a
550.3645	0.09	1100729	keystroke_t	t	n/a
550.6195	0.06	1101239	keystroke_a	a	n/a
550.8145	0.075	1101629	keystroke_t	t	n/a
550.8745	0.06	1101749	keystroke_i	i	n/a
551.2495	0.075	1102499	keystroke_o	o	n/a
551.4145	0.12	1102829	keystroke_n	n	n/a
551.5495	0.12	1103099	keystroke_Key.space	Key.space	n/a
552.4345	0.06	1104869	keystroke_Key.left	Key.left	n/a
552.6145	0.06	1105229	keystroke_Key.left	Key.left	n/a
552.7795	0.075	1105559	keystroke_Key.left	Key.left	n/a
552.9295	0.075	1105859	keystroke_Key.left	Key.left	n/a
553.1095	0.06	1106219	keystroke_Key.left	Key.left	n/a
553.2595	0.06	1106519	keystroke_Key.left	Key.left	n/a
553.3945	0.105	1106789	keystroke_Key.left	Key.left	n/a
554.505	0.06	1109010	keystroke_n	n	n/a
554.97	0.045	1109940	keystroke_Key.right	Key.right	n/a
555.1195	0.0605	1110239	keystroke_Key.right	Key.right	n/a
555.285	0.06	1110570	keystroke_Key.right	Key.right	n/a
555.63	0.06	1111260	keystroke_Key.right	Key.right	n/a
555.78	0.075	1111560	keystroke_Key.right	Key.right	n/a
555.945	0.075	1111890	keystroke_Key.right	Key.right	n/a
556.29	0.18	1112580	keystroke_Key.space	Key.space	n/a
556.65	0.105	1113300	keystroke_r	r	n/a
556.875	0.09	1113750	keystroke_a	a	n/a
557.025	0.12	1114050	keystroke_c	c	n/a
557.13	0.075	1114260	keystroke_h	h	n/a
557.25	0.135	1114500	keystroke_e	e	n/a
557.37	0.105	1114740	keystroke_l	l	n/a
557.49	0.15	1114980	keystroke_Key.space	Key.space	n/a
559.892	0.028	1119784	keystroke_c	c	n/a
559.95	0.075	1119900	keystroke_u	u	n/a
560.25	0.075	1120500	keystroke_b	b	n/a
560.46	0.09	1120920	keystroke_i	i	n/a
560.655	0.1645	1121310	keystroke_c	c	n/a
560.7745	0.12	1121549	keystroke_Key.space	Key.space	n/a
561.0445	0.075	1122089	keystroke_n	n	n/a
561.2695	0.075	1122539	keystroke_o	o	n/a
561.4045	0.1055	1122809	keystroke_v	v	n/a
561.555	0.135	1123110	keystroke_e	e	n/a
561.66	0.075	1123320	keystroke_l	l	n/a
561.915	0.1345	1123830	keystroke_t	t	n/a
562.2745	0.105	1124549	keystroke_y	y	n/a
563.6095	0.06	1127219	keystroke_Key.enter	Key.enter	n/a
