onset	duration	sample	value	key	prompt_text
8.41	0.101	16820	keystroke_j	j	n/a
8.579	0.1795	17158	keystroke_s	s	n/a
8.6915	0.1015	17383	keystroke_e	e	n/a
8.8605	0.1005	17721	keystroke_e	e	n/a
8.9505	0.157	17901	keystroke_l	l	n/a
9.0515	0.1015	18103	keystroke_y	y	n/a
9.2535	0.1015	18507	keystroke_Key.enter	Key.enter	n/a
16.4765	0.1685	32953	keystroke_c	c	n/a
16.7575	0.1575	33515	keystroke_c	c	n/a
18.186	0.113	36372	keystroke_Key.esc	Key.esc	n/a
18.625	0.09	37250	keystroke_Key.cmd	Key.cmd	n/a
20.38	0.214	40760	keystroke_Key.ctrl	Key.ctrl	n/a
20.515	0.09	41030	keystroke_Key.tab	Key.tab	n/a
42.791	0.201	85582	keystroke_2	2	n/a
45.548	0.1345	91096	keystroke_Key.tab	Key.tab	n/a
45.795	0.146	91590	keystroke_Key.tab	Key.tab	n/a
48.709	0.2585	97418	keystroke_w	w	n/a
50.295	0.383	100590	keystroke_Key.shift	Key.shift	n/a
50.4525	0.1465	100905	keystroke_t	t	n/a
76.5535	0.102	153107	keystroke_b	b	n/a
76.7905	0.09	153581	keystroke_e	e	n/a
76.9255	0.1455	153851	keystroke_Key.space	Key.space	n/a
77.0485	0.1685	154097	keystroke_a	a	n/a
77.15	0.113	154300	keystroke_w	w	n/a
77.2285	0.248	154457	keystroke_e	e	n/a
77.3865	0.1355	154773	keystroke_s	s	n/a
77.5215	0.112	155043	keystroke_o	o	n/a
77.578	0.1005	155156	keystroke_m	m	n/a
77.701	0.0905	155402	keystroke_e	e	n/a
77.7125	0.1805	155425	keystroke_Key.space	Key.space	n/a
77.8135	0.147	155627	keystroke_n	n	n/a
77.9375	0.101	155875	keystroke_o	o	n/a
77.9935	0.158	155987	keystroke_t	t	n/a
78.1065	0.1015	156213	keystroke_e	e	n/a
78.174	0.146	156348	keystroke_Key.space	Key.space	n/a
78.331	0.079	156662	keystroke_b	b	n/a
78.5455	0.1005	157091	keystroke_r	r	n/a
78.6685	0.147	157337	keystroke_o	o	n/a
78.736	0.135	157472	keystroke_k	k	n/a
78.883	0.079	157766	keystroke_e	e	n/a
78.9955	0.1125	157991	keystroke_Key.enter	Key.enter	n/a
81.9765	0.09	163953	keystroke_Key.backspace	Key.backspace	n/a
82.168	0.0895	164336	keystroke_Key.enter	Key.enter	n/a
85.014	0.124	170028	keystroke_j	j	n/a
85.959	0.135	171918	keystroke_j	j	n/a
89.953	0.147	179906	keystroke_j	j	n/a
96.0055	0.293	192011	keystroke_Key.cmd	Key.cmd	n/a
96.1625	0.113	192325	keystroke_w	w	n/a
96.3205	0.439	192641	keystroke_Key.cmd	Key.cmd	n/a
96.523	0.157	193046	keystroke_1	1	n/a
98.8965	0.3375	197793	keystroke_Key.ctrl	Key.ctrl	n/a
98.908	0.3035	197816	keystroke_Key.shift	Key.shift	n/a
98.9995	0.1895	197999	keystroke_Key.tab	Key.tab	n/a
101.99	0.3605	203980	keystroke_Key.ctrl	Key.ctrl	n/a
102.0015	0.3035	204003	keystroke_Key.shift	Key.shift	n/a
102.08	0.1735	204160	keystroke_Key.tab	Key.tab	n/a
105.129	0.0785	210258	keystroke_c	c	n/a
105.3205	0.101	210641	keystroke_c	c	n/a
105.8715	0.1825	211743	keystroke_1	1	n/a
115.6705	0.101	231341	keystroke_j	j	n/a
115.8055	0.1575	231611	keystroke_s	s	n/a
115.873	0.135	231746	keystroke_e	e	n/a
116.0525	0.0905	232105	keystroke_e	e	n/a
116.1765	0.113	232353	keystroke_l	l	n/a
116.2215	0.113	232443	keystroke_y	y	n/a
116.3455	0.101	232691	keystroke_Key.tab	Key.tab	n/a
116.6945	0.112	233389	keystroke_Key.down	Key.down	n/a
116.8855	0.113	233771	keystroke_Key.down	Key.down	n/a
117.459	0.124	234918	keystroke_Key.down	Key.down	n/a
117.763	0.068	235526	keystroke_Key.enter	Key.enter	n/a
118.157	0.1015	236314	keystroke_Key.tab	Key.tab	n/a
118.4945	0.2475	236989	keystroke_Key.cmd	Key.cmd	n/a
118.607	0.1245	237214	keystroke_v	v	n/a
119.113	0.1355	238226	keystroke_Key.tab	Key.tab	n/a
123.4185	6.6425	246837	prompt	n/a	the quick brown fox jumps over a lazy dog\n
124.9855	0.101	249971	keystroke_t	t	n/a
125.109	0.09	250218	keystroke_h	h	n/a
125.188	0.1125	250376	keystroke_e	e	n/a
125.3005	0.147	250601	keystroke_Key.space	Key.space	n/a
125.649	0.0785	251298	keystroke_q	q	n/a
125.739	0.1125	251478	keystroke_u	u	n/a
125.8065	0.1245	251613	keystroke_i	i	n/a
125.931	0.1005	251862	keystroke_c	c	n/a
126.054	0.135	252108	keystroke_k	k	n/a
126.144	0.124	252288	keystroke_Key.space	Key.space	n/a
126.2455	0.0895	252491	keystroke_b	b	n/a
126.4815	0.09	252963	keystroke_r	r	n/a
126.6055	0.1235	253211	keystroke_o	o	n/a
126.718	0.09	253436	keystroke_w	w	n/a
126.831	0.1235	253662	keystroke_n	n	n/a
126.864	0.135	253728	keystroke_Key.space	Key.space	n/a
126.943	0.1235	253886	keystroke_f	f	n/a
127.1005	0.101	254201	keystroke_o	o	n/a
127.179	0.102	254358	keystroke_x	x	n/a
127.314	0.169	254628	keystroke_Key.space	Key.space	n/a
127.483	0.0785	254966	keystroke_j	j	n/a
127.674	0.0675	255348	keystroke_u	u	n/a
127.854	0.124	255708	keystroke_m	m	n/a
127.956	0.1125	255912	keystroke_p	p	n/a
128.0685	0.0895	256137	keystroke_s	s	n/a
128.1585	0.1455	256317	keystroke_Key.space	Key.space	n/a
128.271	0.123	256542	keystroke_o	o	n/a
128.3715	0.079	256743	keystroke_v	v	n/a
128.5635	0.1005	257127	keystroke_e	e	n/a
128.619	0.135	257238	keystroke_r	r	n/a
128.7315	0.1015	257463	keystroke_Key.space	Key.space	n/a
128.844	0.1125	257688	keystroke_a	a	n/a
128.9455	0.146	257891	keystroke_Key.space	Key.space	n/a
129.047	0.1345	258094	keystroke_l	l	n/a
129.1365	0.09	258273	keystroke_a	a	n/a
129.339	0.147	258678	keystroke_z	z	n/a
129.464	0.1115	258928	keystroke_y	y	n/a
129.542	0.0895	259084	keystroke_Key.space	Key.space	n/a
129.6095	0.0895	259219	keystroke_d	d	n/a
129.7105	0.101	259421	keystroke_o	o	n/a
129.8235	0.1005	259647	keystroke_g	g	n/a
129.9695	0.0895	259939	keystroke_Key.enter	Key.enter	n/a
130.0645	7.084	260129	prompt	n/a	acdbentity coverage classics seem\n
130.7565	0.092	261513	keystroke_a	a	n/a
131.218	0.113	262436	keystroke_c	c	n/a
131.714	0.089	263428	keystroke_d	d	n/a
132.5005	0.09	265001	keystroke_b	b	n/a
132.7255	0.1015	265451	keystroke_e	e	n/a
132.838	0.0675	265676	keystroke_n	n	n/a
133.1425	0.089	266285	keystroke_t	t	n/a
133.2775	0.09	266555	keystroke_i	i	n/a
133.378	0.1125	266756	keystroke_t	t	n/a
133.502	0.1125	267004	keystroke_y	y	n/a
133.5925	0.1005	267185	keystroke_Key.space	Key.space	n/a
133.783	0.09	267566	keystroke_c	c	n/a
133.8955	0.1025	267791	keystroke_o	o	n/a
134.0085	0.078	268017	keystroke_v	v	n/a
134.166	0.123	268332	keystroke_e	e	n/a
134.233	0.135	268466	keystroke_r	r	n/a
134.402	0.112	268804	keystroke_a	a	n/a
134.503	0.1465	269006	keystroke_g	g	n/a
134.593	0.079	269186	keystroke_e	e	n/a
134.7055	0.1235	269411	keystroke_Key.space	Key.space	n/a
134.8975	0.09	269795	keystroke_c	c	n/a
135.032	0.135	270064	keystroke_l	l	n/a
135.1225	0.1005	270245	keystroke_a	a	n/a
135.19	0.0915	270380	keystroke_s	s	n/a
135.381	0.0785	270762	keystroke_s	s	n/a
135.482	0.1235	270964	keystroke_i	i	n/a
135.617	0.101	271234	keystroke_c	c	n/a
136.0555	0.1015	272111	keystroke_s	s	n/a
136.181	0.134	272362	keystroke_Key.space	Key.space	n/a
136.4275	0.1455	272855	keystroke_s	s	n/a
136.5395	0.112	273079	keystroke_e	e	n/a
136.731	0.112	273462	keystroke_e	e	n/a
136.866	0.0895	273732	keystroke_m	m	n/a
137.0455	0.102	274091	keystroke_Key.enter	Key.enter	n/a
137.152	4.6195	274304	prompt	n/a	represent contrary codes anthony\n
137.7775	0.1345	275555	keystroke_r	r	n/a
137.8675	0.113	275735	keystroke_e	e	n/a
138.0245	0.135	276049	keystroke_p	p	n/a
138.1145	0.1685	276229	keystroke_r	r	n/a
138.205	0.1115	276410	keystroke_e	e	n/a
138.295	0.202	276590	keystroke_s	s	n/a
138.441	0.0895	276882	keystroke_e	e	n/a
138.5755	0.101	277151	keystroke_n	n	n/a
138.666	0.0895	277332	keystroke_t	t	n/a
138.767	0.1345	277534	keystroke_Key.space	Key.space	n/a
139.06	0.0105	278120	keystroke_c	c	n/a
139.082	0.124	278164	keystroke_o	o	n/a
139.1385	0.112	278277	keystroke_n	n	n/a
139.228	0.1025	278456	keystroke_t	t	n/a
139.4425	0.123	278885	keystroke_r	r	n/a
139.5775	0.1345	279155	keystroke_a	a	n/a
139.6675	0.1005	279335	keystroke_r	r	n/a
139.781	0.0995	279562	keystroke_y	y	n/a
139.802	0.1235	279604	keystroke_Key.space	Key.space	n/a
139.9365	0.1015	279873	keystroke_c	c	n/a
140.0385	0.112	280077	keystroke_o	o	n/a
140.173	0.079	280346	keystroke_d	d	n/a
140.353	0.1465	280706	keystroke_e	e	n/a
140.4435	0.101	280887	keystroke_s	s	n/a
140.5555	0.0785	281111	keystroke_Key.space	Key.space	n/a
140.6455	0.124	281291	keystroke_a	a	n/a
140.758	0.0905	281516	keystroke_n	n	n/a
140.9155	0.1015	281831	keystroke_t	t	n/a
140.983	0.1125	281966	keystroke_h	h	n/a
141.107	0.146	282214	keystroke_o	o	n/a
141.1975	0.101	282395	keystroke_n	n	n/a
141.4335	0.0785	282867	keystroke_y	y	n/a
141.658	0.1125	283316	keystroke_Key.enter	Key.enter	n/a
141.775	4.4515	283550	prompt	n/a	contrast clause include holidays\n
142.515	0.077	285030	keystroke_c	c	n/a
142.6145	0.1125	285229	keystroke_o	o	n/a
142.682	0.135	285364	keystroke_n	n	n/a
142.783	0.1015	285566	keystroke_t	t	n/a
142.997	0.1125	285994	keystroke_r	r	n/a
143.1205	0.1015	286241	keystroke_a	a	n/a
143.189	0.112	286378	keystroke_s	s	n/a
143.267	0.1235	286534	keystroke_t	t	n/a
143.3805	0.123	286761	keystroke_Key.space	Key.space	n/a
143.5145	0.09	287029	keystroke_c	c	n/a
143.616	0.1015	287232	keystroke_l	l	n/a
143.7175	0.113	287435	keystroke_a	a	n/a
143.864	0.089	287728	keystroke_u	u	n/a
143.9645	0.101	287929	keystroke_s	s	n/a
143.9985	0.0895	287997	keystroke_e	e	n/a
144.077	0.124	288154	keystroke_Key.space	Key.space	n/a
144.1895	0.1125	288379	keystroke_i	i	n/a
144.257	0.1235	288514	keystroke_n	n	n/a
144.336	0.101	288672	keystroke_c	c	n/a
144.4485	0.157	288897	keystroke_l	l	n/a
144.55	0.123	289100	keystroke_u	u	n/a
144.6395	0.101	289279	keystroke_d	d	n/a
144.8645	0.0565	289729	keystroke_e	e	n/a
144.9655	0.135	289931	keystroke_Key.space	Key.space	n/a
145.067	0.114	290134	keystroke_h	h	n/a
145.157	0.079	290314	keystroke_o	o	n/a
145.348	0.1465	290696	keystroke_l	l	n/a
145.416	0.146	290832	keystroke_i	i	n/a
145.5395	0.1245	291079	keystroke_d	d	n/a
145.6975	0.123	291395	keystroke_a	a	n/a
145.843	0.1015	291686	keystroke_y	y	n/a
145.978	0.124	291956	keystroke_s	s	n/a
146.1245	0.101	292249	keystroke_Key.enter	Key.enter	n/a
146.23	3.4955	292460	prompt	n/a	advance ring wonder who\n
146.9355	0.123	293871	keystroke_a	a	n/a
147.0695	0.102	294139	keystroke_d	d	n/a
147.25	0.1235	294500	keystroke_v	v	n/a
147.362	0.1125	294724	keystroke_a	a	n/a
147.4855	0.124	294971	keystroke_n	n	n/a
147.587	0.0785	295174	keystroke_c	c	n/a
147.7895	0.045	295579	keystroke_e	e	n/a
147.88	0.1345	295760	keystroke_Key.space	Key.space	n/a
147.9695	0.124	295939	keystroke_r	r	n/a
148.105	0.123	296210	keystroke_i	i	n/a
148.1605	0.103	296321	keystroke_n	n	n/a
148.2635	0.0885	296527	keystroke_g	g	n/a
148.341	0.1235	296682	keystroke_Key.space	Key.space	n/a
148.476	0.101	296952	keystroke_w	w	n/a
148.577	0.124	297154	keystroke_o	o	n/a
148.6335	0.1235	297267	keystroke_n	n	n/a
148.724	0.1005	297448	keystroke_d	d	n/a
148.937	0.124	297874	keystroke_e	e	n/a
149.005	0.112	298010	keystroke_r	r	n/a
149.106	0.091	298212	keystroke_Key.space	Key.space	n/a
149.197	0.111	298394	keystroke_w	w	n/a
149.275	0.123	298550	keystroke_h	h	n/a
149.376	0.0895	298752	keystroke_o	o	n/a
149.6345	0.09	299269	keystroke_Key.enter	Key.enter	n/a
149.73	3.9105	299460	prompt	n/a	how's next worcester hill\n
150.3885	0.1015	300777	keystroke_h	h	n/a
150.456	0.1015	300912	keystroke_o	o	n/a
150.535	0.1005	301070	keystroke_w	w	n/a
150.67	0.0895	301340	keystroke_'	'	n/a
150.7595	0.101	301519	keystroke_s	s	n/a
150.861	0.1365	301722	keystroke_Key.space	Key.space	n/a
150.962	0.1355	301924	keystroke_n	n	n/a
151.0525	0.0895	302105	keystroke_e	e	n/a
151.266	0.157	302532	keystroke_x	x	n/a
151.3895	0.135	302779	keystroke_t	t	n/a
151.5355	0.1125	303071	keystroke_Key.space	Key.space	n/a
151.6375	0.1005	303275	keystroke_w	w	n/a
151.75	0.123	303500	keystroke_o	o	n/a
151.828	0.09	303656	keystroke_r	r	n/a
152.0195	0.0795	304039	keystroke_c	c	n/a
152.2	0.0675	304400	keystroke_e	e	n/a
152.4355	0.135	304871	keystroke_s	s	n/a
152.548	0.1015	305096	keystroke_t	t	n/a
152.695	0.1125	305390	keystroke_e	e	n/a
152.763	0.112	305526	keystroke_r	r	n/a
152.8405	0.124	305681	keystroke_Key.space	Key.space	n/a
152.9875	0.113	305975	keystroke_h	h	n/a
153.0545	0.135	306109	keystroke_i	i	n/a
153.1675	0.0675	306335	keystroke_l	l	n/a
153.347	0.101	306694	keystroke_l	l	n/a
153.55	0.089	307100	keystroke_Key.enter	Key.enter	n/a
153.6455	4.765	307291	prompt	n/a	someone's showcase vaccine stevens\n
154.3595	0.124	308719	keystroke_s	s	n/a
154.483	0.1355	308966	keystroke_o	o	n/a
154.5395	0.1125	309079	keystroke_m	m	n/a
154.63	0.09	309260	keystroke_e	e	n/a
154.7425	0.1125	309485	keystroke_o	o	n/a
154.8095	0.0905	309619	keystroke_n	n	n/a
154.8545	0.113	309709	keystroke_e	e	n/a
154.978	0.102	309956	keystroke_'	'	n/a
155.091	0.0895	310182	keystroke_s	s	n/a
155.1695	0.135	310339	keystroke_Key.space	Key.space	n/a
155.2935	0.101	310587	keystroke_s	s	n/a
155.383	0.124	310766	keystroke_h	h	n/a
155.473	0.124	310946	keystroke_o	o	n/a
155.541	0.0785	311082	keystroke_w	w	n/a
155.777	0.1125	311554	keystroke_c	c	n/a
155.98	0.101	311960	keystroke_a	a	n/a
156.047	0.135	312094	keystroke_s	s	n/a
156.126	0.0785	312252	keystroke_e	e	n/a
156.2385	0.1235	312477	keystroke_Key.space	Key.space	n/a
156.3395	0.124	312679	keystroke_v	v	n/a
156.4635	0.09	312927	keystroke_a	a	n/a
156.6545	0.079	313309	keystroke_c	c	n/a
156.823	0.0935	313646	keystroke_c	c	n/a
156.9245	0.1235	313849	keystroke_i	i	n/a
156.981	0.124	313962	keystroke_n	n	n/a
157.1045	0.045	314209	keystroke_e	e	n/a
157.1605	0.17	314321	keystroke_Key.space	Key.space	n/a
157.307	0.112	314614	keystroke_s	s	n/a
157.408	0.1125	314816	keystroke_t	t	n/a
157.532	0.101	315064	keystroke_e	e	n/a
157.7345	0.101	315469	keystroke_v	v	n/a
157.8245	0.135	315649	keystroke_e	e	n/a
158.027	0.1125	316054	keystroke_n	n	n/a
158.163	0.1225	316326	keystroke_s	s	n/a
158.308	0.1015	316616	keystroke_Key.enter	Key.enter	n/a
158.4135	4.812	316827	prompt	n/a	depend universal smaller tunnel\n
159.0295	0.0775	318059	keystroke_d	d	n/a
159.22	0.0675	318440	keystroke_e	e	n/a
159.332	0.1125	318664	keystroke_p	p	n/a
159.433	0.1015	318866	keystroke_e	e	n/a
159.5575	0.1115	319115	keystroke_n	n	n/a
159.658	0.1125	319316	keystroke_d	d	n/a
159.782	0.1575	319564	keystroke_Key.space	Key.space	n/a
160.198	0.09	320396	keystroke_u	u	n/a
160.4125	0.1115	320825	keystroke_n	n	n/a
160.491	0.1345	320982	keystroke_i	i	n/a
160.581	0.0785	321162	keystroke_v	v	n/a
160.7155	0.1125	321431	keystroke_e	e	n/a
160.797	0.155	321594	keystroke_r	r	n/a
160.918	0.09	321836	keystroke_s	s	n/a
161.0985	0.1015	322197	keystroke_a	a	n/a
161.188	0.135	322376	keystroke_l	l	n/a
161.313	0.089	322626	keystroke_Key.space	Key.space	n/a
161.4695	0.101	322939	keystroke_s	s	n/a
161.582	0.09	323164	keystroke_m	m	n/a
161.683	0.1135	323366	keystroke_a	a	n/a
161.7845	0.056	323569	keystroke_l	l	n/a
161.9535	0.146	323907	keystroke_l	l	n/a
162.0435	0.136	324087	keystroke_Key.space	Key.space	n/a
162.28	0.101	324560	keystroke_t	t	n/a
162.3815	0.067	324763	keystroke_u	u	n/a
162.561	0.056	325122	keystroke_n	n	n/a
162.707	0.079	325414	keystroke_n	n	n/a
162.8195	0.09	325639	keystroke_e	e	n/a
162.921	0.067	325842	keystroke_l	l	n/a
163.1235	0.101	326247	keystroke_Key.enter	Key.enter	n/a
163.2285	4.6995	326457	prompt	n/a	anywhere solution spears cycle\n
163.922	0.1125	327844	keystroke_a	a	n/a
164.0465	0.0665	328093	keystroke_n	n	n/a
164.248	0.079	328496	keystroke_y	y	n/a
164.372	0.1015	328744	keystroke_w	w	n/a
164.496	0.09	328992	keystroke_h	h	n/a
164.5745	0.135	329149	keystroke_e	e	n/a
164.676	0.18	329352	keystroke_r	r	n/a
164.777	0.09	329554	keystroke_e	e	n/a
164.8785	0.1015	329757	keystroke_Key.space	Key.space	n/a
164.9795	0.124	329959	keystroke_s	s	n/a
165.092	0.09	330184	keystroke_o	o	n/a
165.306	0.1345	330612	keystroke_l	l	n/a
165.3965	0.1005	330793	keystroke_u	u	n/a
165.542	0.1125	331084	keystroke_t	t	n/a
165.6435	0.191	331287	keystroke_i	i	n/a
165.711	0.1355	331422	keystroke_o	o	n/a
165.767	0.1125	331534	keystroke_n	n	n/a
165.891	0.0895	331782	keystroke_s	s	n/a
165.947	0.124	331894	keystroke_Key.space	Key.space	n/a
166.1045	0.101	332209	keystroke_s	s	n/a
166.217	0.1465	332434	keystroke_p	p	n/a
166.3185	0.135	332637	keystroke_e	e	n/a
166.476	0.1575	332952	keystroke_a	a	n/a
166.5995	0.1575	333199	keystroke_r	r	n/a
166.701	0.101	333402	keystroke_s	s	n/a
166.836	0.056	333672	keystroke_Key.space	Key.space	n/a
166.9715	0.0895	333943	keystroke_c	c	n/a
167.072	0.0785	334144	keystroke_y	y	n/a
167.1735	0.0785	334347	keystroke_c	c	n/a
167.3195	0.1125	334639	keystroke_l	l	n/a
167.4545	0.079	334909	keystroke_e	e	n/a
167.804	0.123	335608	keystroke_Key.enter	Key.enter	n/a
167.9315	5.071	335863	prompt	n/a	skilled gratis foto impacts\n
168.524	0.1005	337048	keystroke_s	s	n/a
168.613	0.0675	337226	keystroke_k	k	n/a
168.7935	0.146	337587	keystroke_i	i	n/a
168.895	0.0895	337790	keystroke_l	l	n/a
169.086	0.1235	338172	keystroke_l	l	n/a
169.255	0.101	338510	keystroke_e	e	n/a
169.4795	0.0675	338959	keystroke_d	d	n/a
169.603	0.18	339206	keystroke_Key.space	Key.space	n/a
169.772	0.0785	339544	keystroke_g	g	n/a
169.963	0.135	339926	keystroke_r	r	n/a
170.1095	0.1365	340219	keystroke_a	a	n/a
170.2	0.1465	340400	keystroke_t	t	n/a
170.335	0.112	340670	keystroke_i	i	n/a
170.436	0.101	340872	keystroke_s	s	n/a
170.5705	0.126	341141	keystroke_Key.space	Key.space	n/a
170.6835	0.101	341367	keystroke_f	f	n/a
170.7735	0.0895	341547	keystroke_o	o	n/a
170.9085	0.1235	341817	keystroke_t	t	n/a
170.9985	0.0895	341997	keystroke_o	o	n/a
171.1555	0.135	342311	keystroke_Key.space	Key.space	n/a
171.302	0.191	342604	keystroke_i	i	n/a
171.3925	0.135	342785	keystroke_m	m	n/a
171.505	0.112	343010	keystroke_p	p	n/a
171.7185	0.079	343437	keystroke_c	c	n/a
172.067	0.079	344134	keystroke_Key.backspace	Key.backspace	n/a
172.2245	0.1125	344449	keystroke_a	a	n/a
172.427	0.1125	344854	keystroke_c	c	n/a
172.641	0.1345	345282	keystroke_t	t	n/a
172.742	0.1125	345484	keystroke_s	s	n/a
172.877	0.124	345754	keystroke_Key.enter	Key.enter	n/a
173.005	6.162	346010	prompt	n/a	limited harassment detected read\n
173.7095	0.011	347419	keystroke_i	i	n/a
174.1035	0.101	348207	keystroke_Key.backspace	Key.backspace	n/a
174.5195	0.147	349039	keystroke_l	l	n/a
174.5765	0.1455	349153	keystroke_i	i	n/a
174.7	0.157	349400	keystroke_m	m	n/a
174.8235	0.146	349647	keystroke_i	i	n/a
174.959	0.123	349918	keystroke_t	t	n/a
175.0485	0.0785	350097	keystroke_e	e	n/a
175.2395	0.0675	350479	keystroke_d	d	n/a
175.3295	0.101	350659	keystroke_Key.space	Key.space	n/a
175.5095	0.137	351019	keystroke_h	h	n/a
175.611	0.124	351222	keystroke_a	a	n/a
175.6895	0.1125	351379	keystroke_r	r	n/a
175.9485	0.124	351897	keystroke_a	a	n/a
176.0385	0.0905	352077	keystroke_s	s	n/a
176.2185	0.1235	352437	keystroke_s	s	n/a
176.387	0.101	352774	keystroke_m	m	n/a
176.5335	0.1015	353067	keystroke_e	e	n/a
176.646	0.0785	353292	keystroke_n	n	n/a
176.725	0.1005	353450	keystroke_t	t	n/a
176.8485	0.1475	353697	keystroke_Key.space	Key.space	n/a
176.996	0.0885	353992	keystroke_d	d	n/a
177.1975	0.123	354395	keystroke_e	e	n/a
177.2875	0.159	354575	keystroke_t	t	n/a
177.4555	0.0905	354911	keystroke_e	e	n/a
177.681	0.0565	355362	keystroke_c	c	n/a
177.862	0.1005	355724	keystroke_t	t	n/a
177.917	0.1125	355834	keystroke_e	e	n/a
178.131	0.067	356262	keystroke_d	d	n/a
178.266	0.1235	356532	keystroke_Key.space	Key.space	n/a
178.379	0.168	356758	keystroke_r	r	n/a
178.48	0.202	356960	keystroke_e	e	n/a
178.671	0.135	357342	keystroke_a	a	n/a
178.806	0.1345	357612	keystroke_d	d	n/a
179.0645	0.1015	358129	keystroke_Key.enter	Key.enter	n/a
179.1715	4.6305	358343	prompt	n/a	threat perry points citation\n
179.8525	0.113	359705	keystroke_t	t	n/a
179.965	0.1125	359930	keystroke_h	h	n/a
180.122	0.169	360244	keystroke_r	r	n/a
180.2235	0.1465	360447	keystroke_e	e	n/a
180.381	0.135	360762	keystroke_a	a	n/a
180.471	0.112	360942	keystroke_t	t	n/a
180.596	0.1225	361192	keystroke_Key.space	Key.space	n/a
180.7635	0.1715	361527	keystroke_p	p	n/a
180.831	0.1235	361662	keystroke_e	e	n/a
180.921	0.0895	361842	keystroke_r	r	n/a
181.1005	0.113	362201	keystroke_r	r	n/a
181.247	0.1355	362494	keystroke_y	y	n/a
181.326	0.1345	362652	keystroke_Key.space	Key.space	n/a
181.517	0.1355	363034	keystroke_p	p	n/a
181.776	0.214	363552	keystroke_o	o	n/a
181.8545	0.1805	363709	keystroke_i	i	n/a
181.9335	0.157	363867	keystroke_n	n	n/a
182.0685	0.1235	364137	keystroke_t	t	n/a
182.147	0.09	364294	keystroke_s	s	n/a
182.2825	0.1235	364565	keystroke_Key.space	Key.space	n/a
182.406	0.067	364812	keystroke_c	c	n/a
182.5305	0.0775	365061	keystroke_i	i	n/a
182.6315	0.1345	365263	keystroke_t	t	n/a
182.822	0.158	365644	keystroke_a	a	n/a
182.9235	0.1235	365847	keystroke_t	t	n/a
183.0585	0.2365	366117	keystroke_i	i	n/a
183.1375	0.191	366275	keystroke_o	o	n/a
183.2285	0.1335	366457	keystroke_n	n	n/a
183.666	0.135	367332	keystroke_Key.enter	Key.enter	n/a
183.8055	5.116	367611	prompt	n/a	explain inquiries cleaner sierra\n
184.5095	0.1025	369019	keystroke_e	e	n/a
184.7345	0.113	369469	keystroke_x	x	n/a
184.8475	0.1235	369695	keystroke_p	p	n/a
185.062	0.123	370124	keystroke_l	l	n/a
185.1955	0.1015	370391	keystroke_a	a	n/a
185.3085	0.1465	370617	keystroke_i	i	n/a
185.376	0.124	370752	keystroke_n	n	n/a
185.4435	0.1355	370887	keystroke_Key.space	Key.space	n/a
185.6235	0.1465	371247	keystroke_i	i	n/a
185.691	0.1345	371382	keystroke_n	n	n/a
185.996	0.1115	371992	keystroke_q	q	n/a
186.108	0.123	372216	keystroke_u	u	n/a
186.186	0.135	372372	keystroke_i	i	n/a
186.332	0.1135	372664	keystroke_r	r	n/a
186.456	0.1125	372912	keystroke_i	i	n/a
186.546	0.1575	373092	keystroke_e	e	n/a
186.636	0.1125	373272	keystroke_s	s	n/a
186.7375	0.146	373475	keystroke_Key.space	Key.space	n/a
186.8955	0.0895	373791	keystroke_c	c	n/a
187.008	0.1345	374016	keystroke_l	l	n/a
187.12	0.1685	374240	keystroke_e	e	n/a
187.312	0.134	374624	keystroke_a	a	n/a
187.468	0.1245	374936	keystroke_n	n	n/a
187.6035	0.169	375207	keystroke_e	e	n/a
187.729	0.1215	375458	keystroke_r	r	n/a
187.829	0.123	375658	keystroke_Key.space	Key.space	n/a
187.9295	0.1015	375859	keystroke_s	s	n/a
188.065	0.1135	376130	keystroke_i	i	n/a
188.155	0.1575	376310	keystroke_e	e	n/a
188.256	0.112	376512	keystroke_r	r	n/a
188.492	0.1465	376984	keystroke_r	r	n/a
188.616	0.1345	377232	keystroke_a	a	n/a
188.796	0.124	377592	keystroke_Key.enter	Key.enter	n/a
188.925	6.228	377850	prompt	n/a	sara auckland marathon salaries\n
189.617	0.0905	379234	keystroke_s	s	n/a
189.8535	0.101	379707	keystroke_a	a	n/a
189.9435	0.1795	379887	keystroke_r	r	n/a
190.09	0.1345	380180	keystroke_a	a	n/a
190.236	0.079	380472	keystroke_Key.space	Key.space	n/a
190.315	0.112	380630	keystroke_a	a	n/a
190.461	0.0895	380922	keystroke_u	u	n/a
190.585	0.09	381170	keystroke_c	c	n/a
190.708	0.124	381416	keystroke_l	l	n/a
190.855	0.101	381710	keystroke_a	a	n/a
190.956	0.1125	381912	keystroke_n	n	n/a
191.046	0.101	382092	keystroke_d	d	n/a
191.1585	0.1685	382317	keystroke_Key.space	Key.space	n/a
191.2935	0.146	382587	keystroke_m	m	n/a
191.3955	0.1225	382791	keystroke_a	a	n/a
191.507	0.158	383014	keystroke_r	r	n/a
191.665	0.1125	383330	keystroke_a	a	n/a
191.8895	0.124	383779	keystroke_t	t	n/a
191.9905	0.135	383981	keystroke_h	h	n/a
192.1595	0.146	384319	keystroke_o	o	n/a
192.2495	0.135	384499	keystroke_n	n	n/a
193.4195	0.1465	386839	keystroke_Key.space	Key.space	n/a
193.712	0.09	387424	keystroke_s	s	n/a
193.9145	0.09	387829	keystroke_a	a	n/a
194.1735	0.191	388347	keystroke_l	l	n/a
194.3195	0.1805	388639	keystroke_a	a	n/a
194.489	0.1125	388978	keystroke_r	r	n/a
194.646	0.112	389292	keystroke_i	i	n/a
194.7355	0.1995	389471	keystroke_e	e	n/a
194.8485	0.1465	389697	keystroke_s	s	n/a
195.0395	0.1125	390079	keystroke_Key.enter	Key.enter	n/a
195.156	6.826	390312	prompt	n/a	concentrations textbooks dicke secretary\n
195.974	0.0895	391948	keystroke_c	c	n/a
196.042	0.1225	392084	keystroke_o	o	n/a
196.12	0.112	392240	keystroke_n	n	n/a
196.2095	0.09	392419	keystroke_c	c	n/a
196.435	0.067	392870	keystroke_e	e	n/a
196.5245	0.1125	393049	keystroke_n	n	n/a
196.6715	0.0675	393343	keystroke_t	t	n/a
196.851	0.1125	393702	keystroke_r	r	n/a
196.9745	0.1465	393949	keystroke_a	a	n/a
197.0765	0.135	394153	keystroke_t	t	n/a
197.222	0.214	394444	keystroke_i	i	n/a
197.312	0.1465	394624	keystroke_o	o	n/a
197.369	0.123	394738	keystroke_n	n	n/a
197.4695	0.079	394939	keystroke_s	s	n/a
197.5595	0.18	395119	keystroke_Key.space	Key.space	n/a
197.807	0.18	395614	keystroke_t	t	n/a
197.9315	0.1135	395863	keystroke_e	e	n/a
198.179	0.168	396358	keystroke_x	x	n/a
198.325	0.101	396650	keystroke_t	t	n/a
198.651	0.09	397302	keystroke_b	b	n/a
198.955	0.0785	397910	keystroke_o	o	n/a
199.157	0.124	398314	keystroke_o	o	n/a
199.2355	0.1355	398471	keystroke_k	k	n/a
199.36	0.09	398720	keystroke_s	s	n/a
199.45	0.1465	398900	keystroke_Key.space	Key.space	n/a
199.6075	0.0895	399215	keystroke_d	d	n/a
199.7315	0.1005	399463	keystroke_i	i	n/a
199.8445	0.0885	399689	keystroke_c	c	n/a
199.9565	0.089	399913	keystroke_k	k	n/a
200.0685	0.067	400137	keystroke_e	e	n/a
200.1585	0.1805	400317	keystroke_Key.space	Key.space	n/a
200.328	0.078	400656	keystroke_s	s	n/a
200.462	0.124	400924	keystroke_e	e	n/a
200.721	0.0675	401442	keystroke_c	c	n/a
200.9345	0.1465	401869	keystroke_r	r	n/a
201.025	0.112	402050	keystroke_e	e	n/a
201.228	0.1005	402456	keystroke_t	t	n/a
201.3625	0.157	402725	keystroke_a	a	n/a
201.509	0.1005	403018	keystroke_r	r	n/a
201.587	0.1125	403174	keystroke_y	y	n/a
201.891	0.09	403782	keystroke_Key.enter	Key.enter	n/a
201.9855	4.9355	403971	prompt	n/a	violation council crash enrolled\n
202.791	0.101	405582	keystroke_v	v	n/a
202.881	0.191	405762	keystroke_i	i	n/a
203.0045	0.101	406009	keystroke_o	o	n/a
203.2295	0.124	406459	keystroke_l	l	n/a
203.387	0.1125	406774	keystroke_a	a	n/a
203.4775	0.112	406955	keystroke_t	t	n/a
203.5565	0.2355	407113	keystroke_i	i	n/a
203.6345	0.135	407269	keystroke_o	o	n/a
203.702	0.1465	407404	keystroke_n	n	n/a
203.7815	0.146	407563	keystroke_Key.space	Key.space	n/a
203.9165	0.1005	407833	keystroke_c	c	n/a
204.028	0.1355	408056	keystroke_o	o	n/a
204.1295	0.09	408259	keystroke_u	u	n/a
204.311	0.0885	408622	keystroke_n	n	n/a
204.411	0.101	408822	keystroke_c	c	n/a
204.5235	0.1575	409047	keystroke_i	i	n/a
204.602	0.1575	409204	keystroke_l	l	n/a
204.6925	0.124	409385	keystroke_Key.space	Key.space	n/a
204.884	0.0895	409768	keystroke_c	c	n/a
205.0745	0.1245	410149	keystroke_r	r	n/a
205.187	0.124	410374	keystroke_a	a	n/a
205.266	0.101	410532	keystroke_s	s	n/a
205.379	0.123	410758	keystroke_h	h	n/a
205.457	0.1125	410914	keystroke_Key.space	Key.space	n/a
205.559	0.1005	411118	keystroke_e	e	n/a
205.661	0.1005	411322	keystroke_n	n	n/a
205.8055	0.113	411611	keystroke_r	r	n/a
205.907	0.079	411814	keystroke_o	o	n/a
206.1095	0.0685	412219	keystroke_l	l	n/a
206.279	0.1115	412558	keystroke_l	l	n/a
206.4135	0.101	412827	keystroke_e	e	n/a
206.6615	0.078	413323	keystroke_d	d	n/a
206.7965	0.123	413593	keystroke_Key.enter	Key.enter	n/a
206.9265	3.6285	413853	prompt	n/a	virus studio votes nerve\n
207.6175	0.101	415235	keystroke_v	v	n/a
207.752	0.056	415504	keystroke_i	i	n/a
207.8425	0.112	415685	keystroke_r	r	n/a
207.944	0.0895	415888	keystroke_u	u	n/a
208.045	0.0895	416090	keystroke_s	s	n/a
208.1465	0.1345	416293	keystroke_Key.space	Key.space	n/a
208.292	0.102	416584	keystroke_s	s	n/a
208.3485	0.113	416697	keystroke_t	t	n/a
208.4495	0.1125	416899	keystroke_u	u	n/a
208.619	0.0895	417238	keystroke_d	d	n/a
208.697	0.147	417394	keystroke_i	i	n/a
208.799	0.134	417598	keystroke_o	o	n/a
208.9225	0.146	417845	keystroke_Key.space	Key.space	n/a
209.024	0.1005	418048	keystroke_v	v	n/a
209.147	0.1135	418294	keystroke_o	o	n/a
209.2715	0.179	418543	keystroke_t	t	n/a
209.3725	0.146	418745	keystroke_e	e	n/a
209.4845	0.09	418969	keystroke_s	s	n/a
209.5635	0.101	419127	keystroke_Key.space	Key.space	n/a
209.721	0.101	419442	keystroke_n	n	n/a
209.7995	0.1465	419599	keystroke_e	e	n/a
209.901	0.101	419802	keystroke_r	r	n/a
210.1375	0.1345	420275	keystroke_v	v	n/a
210.2385	0.1125	420477	keystroke_e	e	n/a
210.4525	0.1015	420905	keystroke_Key.enter	Key.enter	n/a
210.5585	5.3175	421117	prompt	n/a	botswana federal piano toner\n
211.4195	0.079	422839	keystroke_b	b	n/a
211.532	0.101	423064	keystroke_o	o	n/a
211.6445	0.079	423289	keystroke_t	t	n/a
212.3195	0.0915	424639	keystroke_s	s	n/a
212.6125	0.146	425225	keystroke_w	w	n/a
212.702	0.1465	425404	keystroke_a	a	n/a
212.861	0.111	425722	keystroke_n	n	n/a
212.9945	0.1125	425989	keystroke_a	a	n/a
213.0965	0.157	426193	keystroke_Key.space	Key.space	n/a
213.2425	0.0895	426485	keystroke_f	f	n/a
213.3545	0.124	426709	keystroke_e	e	n/a
213.5915	0.0665	427183	keystroke_d	d	n/a
213.7605	0.1115	427521	keystroke_e	e	n/a
213.839	0.1565	427678	keystroke_r	r	n/a
213.9845	0.101	427969	keystroke_a	a	n/a
214.0745	0.103	428149	keystroke_l	l	n/a
214.1535	0.1125	428307	keystroke_Key.space	Key.space	n/a
214.2885	0.1345	428577	keystroke_p	p	n/a
214.412	0.158	428824	keystroke_i	i	n/a
214.6035	0.135	429207	keystroke_a	a	n/a
214.7495	0.113	429499	keystroke_n	n	n/a
214.8285	0.1345	429657	keystroke_o	o	n/a
214.975	0.1355	429950	keystroke_Key.space	Key.space	n/a
215.166	0.0895	430332	keystroke_t	t	n/a
215.2335	0.135	430467	keystroke_o	o	n/a
215.301	0.1345	430602	keystroke_n	n	n/a
215.4135	0.0675	430827	keystroke_d	d	n/a
215.594	0.1115	431188	keystroke_e	e	n/a
215.661	0.124	431322	keystroke_r	r	n/a
215.7735	0.1015	431547	keystroke_Key.enter	Key.enter	n/a
215.881	5.541	431762	prompt	n/a	recipes cholesterol armstrong parish\n
216.6285	0.146	433257	keystroke_r	r	n/a
216.752	0.1015	433504	keystroke_e	e	n/a
216.9775	0.1235	433955	keystroke_c	c	n/a
217.135	0.1685	434270	keystroke_i	i	n/a
217.2585	0.136	434517	keystroke_p	p	n/a
217.361	0.1675	434722	keystroke_e	e	n/a
217.461	0.113	434922	keystroke_s	s	n/a
217.5965	0.09	435193	keystroke_Key.space	Key.space	n/a
217.7315	0.123	435463	keystroke_c	c	n/a
217.8105	0.1005	435621	keystroke_h	h	n/a
217.8995	0.102	435799	keystroke_o	o	n/a
218.237	0.0115	436474	keystroke_l	l	n/a
218.2605	0.1005	436521	keystroke_e	e	n/a
218.451	0.146	436902	keystroke_s	s	n/a
218.586	0.1245	437172	keystroke_t	t	n/a
218.755	0.112	437510	keystroke_e	e	n/a
218.834	0.1455	437668	keystroke_r	r	n/a
219.0245	0.0795	438049	keystroke_o	o	n/a
219.2155	0.124	438431	keystroke_l	l	n/a
219.306	0.135	438612	keystroke_Key.space	Key.space	n/a
219.509	0.1015	439018	keystroke_a	a	n/a
219.5645	0.135	439129	keystroke_r	r	n/a
219.689	0.168	439378	keystroke_m	m	n/a
219.846	0.1235	439692	keystroke_s	s	n/a
219.9135	0.101	439827	keystroke_t	t	n/a
220.127	0.09	440254	keystroke_r	r	n/a
220.206	0.1125	440412	keystroke_o	o	n/a
220.274	0.112	440548	keystroke_n	n	n/a
220.3745	0.1025	440749	keystroke_g	g	n/a
220.477	0.1565	440954	keystroke_Key.space	Key.space	n/a
220.5775	0.1235	441155	keystroke_p	p	n/a
220.6895	0.1125	441379	keystroke_a	a	n/a
220.757	0.1125	441514	keystroke_r	r	n/a
220.881	0.09	441762	keystroke_i	i	n/a
220.9945	0.1225	441989	keystroke_s	s	n/a
221.095	0.078	442190	keystroke_h	h	n/a
221.3195	0.101	442639	keystroke_Key.enter	Key.enter	n/a
221.425	4.0145	442850	prompt	n/a	kinds stuck myrtle libs\n
222.13	0.0785	444260	keystroke_k	k	n/a
222.332	0.1015	444664	keystroke_i	i	n/a
222.377	0.1125	444754	keystroke_n	n	n/a
222.456	0.1795	444912	keystroke_d	d	n/a
222.591	0.124	445182	keystroke_s	s	n/a
222.9735	0.135	445947	keystroke_Key.space	Key.space	n/a
223.2545	0.113	446509	keystroke_s	s	n/a
223.311	0.112	446622	keystroke_t	t	n/a
223.4125	0.0785	446825	keystroke_u	u	n/a
223.5245	0.0905	447049	keystroke_c	c	n/a
223.6265	0.112	447253	keystroke_k	k	n/a
223.705	0.1235	447410	keystroke_Key.space	Key.space	n/a
223.851	0.079	447702	keystroke_m	m	n/a
224.0875	0.0785	448175	keystroke_y	y	n/a
224.1775	0.09	448355	keystroke_r	r	n/a
224.346	0.1015	448692	keystroke_t	t	n/a
224.4135	0.1135	448827	keystroke_l	l	n/a
224.56	0.0675	449120	keystroke_e	e	n/a
224.6385	0.157	449277	keystroke_Key.space	Key.space	n/a
224.7625	0.157	449525	keystroke_l	l	n/a
224.853	0.1235	449706	keystroke_i	i	n/a
224.9765	0.067	449953	keystroke_b	b	n/a
225.168	0.0895	450336	keystroke_s	s	n/a
225.3135	0.124	450627	keystroke_Key.enter	Key.enter	n/a
225.442	4.6875	450884	prompt	n/a	baking discounted prison listing\n
226.2135	0.101	452427	keystroke_b	b	n/a
226.4045	0.1015	452809	keystroke_a	a	n/a
226.5395	0.079	453079	keystroke_k	k	n/a
226.731	0.09	453462	keystroke_i	i	n/a
226.777	0.1	453554	keystroke_n	n	n/a
226.8885	0.0675	453777	keystroke_g	g	n/a
226.934	0.1455	453868	keystroke_Key.space	Key.space	n/a
227.1135	0.124	454227	keystroke_d	d	n/a
227.2035	0.1015	454407	keystroke_i	i	n/a
227.3275	0.0895	454655	keystroke_s	s	n/a
227.5295	0.101	455059	keystroke_c	c	n/a
227.62	0.146	455240	keystroke_o	o	n/a
227.6985	0.1125	455397	keystroke_u	u	n/a
227.9125	0.101	455825	keystroke_n	n	n/a
227.98	0.113	455960	keystroke_t	t	n/a
228.06	0.0995	456120	keystroke_e	e	n/a
228.2385	0.09	456477	keystroke_d	d	n/a
228.3395	0.158	456679	keystroke_Key.space	Key.space	n/a
228.441	0.124	456882	keystroke_p	p	n/a
228.5765	0.101	457153	keystroke_r	r	n/a
228.655	0.146	457310	keystroke_i	i	n/a
228.8345	0.102	457669	keystroke_s	s	n/a
228.9475	0.146	457895	keystroke_o	o	n/a
229.0265	0.157	458053	keystroke_n	n	n/a
229.116	0.135	458232	keystroke_Key.space	Key.space	n/a
229.262	0.1575	458524	keystroke_l	l	n/a
229.375	0.1355	458750	keystroke_i	i	n/a
229.4985	0.124	458997	keystroke_s	s	n/a
229.5775	0.1355	459155	keystroke_t	t	n/a
229.701	0.1125	459402	keystroke_i	i	n/a
229.7575	0.1235	459515	keystroke_n	n	n/a
229.881	0.09	459762	keystroke_g	g	n/a
230.016	0.1125	460032	keystroke_Key.enter	Key.enter	n/a
230.1325	4.373	460265	prompt	n/a	seasons getting livecam commit\n
230.7605	0.088	461521	keystroke_s	s	n/a
230.961	0.124	461922	keystroke_e	e	n/a
231.1075	0.1575	462215	keystroke_a	a	n/a
231.2085	0.1125	462417	keystroke_s	s	n/a
231.332	0.1355	462664	keystroke_o	o	n/a
231.3995	0.124	462799	keystroke_n	n	n/a
231.501	0.101	463002	keystroke_s	s	n/a
231.6135	0.1575	463227	keystroke_Key.space	Key.space	n/a
231.715	0.0895	463430	keystroke_g	g	n/a
231.85	0.1345	463700	keystroke_e	e	n/a
231.9395	0.0905	463879	keystroke_t	t	n/a
232.131	0.0675	464262	keystroke_t	t	n/a
232.21	0.112	464420	keystroke_i	i	n/a
232.277	0.1015	464554	keystroke_n	n	n/a
232.3335	0.09	464667	keystroke_g	g	n/a
232.4345	0.1465	464869	keystroke_Key.space	Key.space	n/a
232.5025	0.1915	465005	keystroke_l	l	n/a
232.5935	0.1225	465187	keystroke_i	i	n/a
232.682	0.102	465364	keystroke_v	v	n/a
232.8175	0.079	465635	keystroke_e	e	n/a
233.065	0.0895	466130	keystroke_c	c	n/a
233.2115	0.101	466423	keystroke_a	a	n/a
233.2895	0.135	466579	keystroke_m	m	n/a
233.38	0.113	466760	keystroke_Key.space	Key.space	n/a
233.504	0.123	467008	keystroke_c	c	n/a
233.6045	0.214	467209	keystroke_o	o	n/a
233.751	0.113	467502	keystroke_m	m	n/a
233.9765	0.078	467953	keystroke_m	m	n/a
234.1	0.124	468200	keystroke_i	i	n/a
234.269	0.1005	468538	keystroke_t	t	n/a
234.381	0.1235	468762	keystroke_Key.enter	Key.enter	n/a
234.509	5.5655	469018	prompt	n/a	expiration suicide rhode incredible\n
235.2245	0.079	470449	keystroke_e	e	n/a
235.439	0.09	470878	keystroke_x	x	n/a
235.5285	0.146	471057	keystroke_p	p	n/a
235.7095	0.0775	471419	keystroke_i	i	n/a
235.7985	0.135	471597	keystroke_r	r	n/a
235.956	0.1355	471912	keystroke_a	a	n/a
236.069	0.1345	472138	keystroke_t	t	n/a
236.1695	0.236	472339	keystroke_i	i	n/a
236.2375	0.157	472475	keystroke_o	o	n/a
236.3045	0.1465	472609	keystroke_n	n	n/a
236.3835	0.1125	472767	keystroke_Key.space	Key.space	n/a
236.4735	0.09	472947	keystroke_s	s	n/a
236.5865	0.1345	473173	keystroke_u	u	n/a
236.6765	0.112	473353	keystroke_i	i	n/a
236.8675	0.0785	473735	keystroke_c	c	n/a
236.957	0.101	473914	keystroke_i	i	n/a
237.1035	0.0785	474207	keystroke_d	d	n/a
237.306	0.0675	474612	keystroke_e	e	n/a
237.407	0.101	474814	keystroke_Key.space	Key.space	n/a
237.543	0.089	475086	keystroke_r	r	n/a
237.9245	0.1025	475849	keystroke_h	h	n/a
238.15	0.112	476300	keystroke_o	o	n/a
238.3185	0.0675	476637	keystroke_d	d	n/a
238.4985	0.079	476997	keystroke_e	e	n/a
238.6	0.1125	477200	keystroke_Key.space	Key.space	n/a
238.7015	0.1455	477403	keystroke_i	i	n/a
238.78	0.1515	477560	keystroke_n	n	n/a
238.87	0.0675	477740	keystroke_c	c	n/a
239.0385	0.1575	478077	keystroke_r	r	n/a
239.1395	0.1015	478279	keystroke_e	e	n/a
239.3535	0.0785	478707	keystroke_d	d	n/a
239.4885	0.1015	478977	keystroke_i	i	n/a
239.5785	0.101	479157	keystroke_b	b	n/a
239.713	0.102	479426	keystroke_l	l	n/a
239.8145	0.079	479629	keystroke_e	e	n/a
239.961	0.1125	479922	keystroke_Key.enter	Key.enter	n/a
240.0785	4.7325	480157	prompt	n/a	burton account effort quoted\n
240.7485	0.1125	481497	keystroke_b	b	n/a
240.8835	0.1235	481767	keystroke_u	u	n/a
240.996	0.0805	481992	keystroke_r	r	n/a
241.2095	0.0905	482419	keystroke_t	t	n/a
241.356	0.135	482712	keystroke_o	o	n/a
241.4125	0.157	482825	keystroke_n	n	n/a
241.502	0.135	483004	keystroke_Key.space	Key.space	n/a
241.671	0.1125	483342	keystroke_a	a	n/a
241.896	0.0805	483792	keystroke_c	c	n/a
242.1545	0.011	484309	keystroke_c	c	n/a
242.1775	0.0895	484355	keystroke_o	o	n/a
242.211	0.1015	484422	keystroke_u	u	n/a
242.391	0.1125	484782	keystroke_n	n	n/a
242.5265	0.1015	485053	keystroke_t	t	n/a
242.65	0.1575	485300	keystroke_Key.space	Key.space	n/a
242.8745	0.124	485749	keystroke_e	e	n/a
243.01	0.101	486020	keystroke_f	f	n/a
243.213	0.123	486426	keystroke_f	f	n/a
243.347	0.1235	486694	keystroke_o	o	n/a
243.46	0.0895	486920	keystroke_r	r	n/a
243.651	0.09	487302	keystroke_t	t	n/a
243.73	0.135	487460	keystroke_Key.space	Key.space	n/a
243.955	0.1005	487910	keystroke_q	q	n/a
244.0675	0.1685	488135	keystroke_u	u	n/a
244.191	0.135	488382	keystroke_o	o	n/a
244.247	0.158	488494	keystroke_t	t	n/a
244.36	0.101	488720	keystroke_e	e	n/a
244.563	0.068	489126	keystroke_d	d	n/a
244.7095	0.1	489419	keystroke_Key.enter	Key.enter	n/a
244.815	3.2585	489630	prompt	n/a	mail portal socks rooms\n
245.462	0.09	490924	keystroke_m	m	n/a
245.586	0.1125	491172	keystroke_a	a	n/a
245.6535	0.1575	491307	keystroke_i	i	n/a
245.7435	0.1015	491487	keystroke_l	l	n/a
245.8225	0.137	491645	keystroke_Key.space	Key.space	n/a
245.9575	0.157	491915	keystroke_p	p	n/a
246.07	0.168	492140	keystroke_o	o	n/a
246.1825	0.0895	492365	keystroke_r	r	n/a
246.3735	0.1125	492747	keystroke_t	t	n/a
246.4635	0.1015	492927	keystroke_a	a	n/a
246.5425	0.1455	493085	keystroke_l	l	n/a
246.6435	0.101	493287	keystroke_Key.space	Key.space	n/a
246.711	0.1125	493422	keystroke_s	s	n/a
246.835	0.0895	493670	keystroke_o	o	n/a
246.936	0.0905	493872	keystroke_c	c	n/a
247.0375	0.093	494075	keystroke_k	k	n/a
247.1385	0.1125	494277	keystroke_s	s	n/a
247.2285	0.135	494457	keystroke_Key.space	Key.space	n/a
247.3635	0.1015	494727	keystroke_r	r	n/a
247.4425	0.067	494885	keystroke_o	o	n/a
247.6225	0.1575	495245	keystroke_o	o	n/a
247.7125	0.123	495425	keystroke_m	m	n/a
247.8245	0.113	495649	keystroke_s	s	n/a
247.9595	0.113	495919	keystroke_Key.enter	Key.enter	n/a
248.0765	4.3055	496153	prompt	n/a	cake circular texture greatest\n
248.882	0.0675	497764	keystroke_c	c	n/a
249.0175	0.1125	498035	keystroke_a	a	n/a
249.1185	0.1235	498237	keystroke_k	k	n/a
249.2535	0.056	498507	keystroke_e	e	n/a
249.332	0.124	498664	keystroke_Key.space	Key.space	n/a
249.445	0.101	498890	keystroke_c	c	n/a
249.557	0.102	499114	keystroke_i	i	n/a
249.6695	0.09	499339	keystroke_r	r	n/a
249.872	0.0675	499744	keystroke_c	c	n/a
249.951	0.112	499902	keystroke_u	u	n/a
250.0525	0.123	500105	keystroke_l	l	n/a
250.1535	0.1125	500307	keystroke_a	a	n/a
250.221	0.0895	500442	keystroke_r	r	n/a
250.2885	0.1465	500577	keystroke_Key.space	Key.space	n/a
250.4125	0.1235	500825	keystroke_t	t	n/a
250.4795	0.09	500959	keystroke_e	e	n/a
250.6825	0.09	501365	keystroke_x	x	n/a
250.8395	0.1015	501679	keystroke_t	t	n/a
250.986	0.091	501972	keystroke_u	u	n/a
251.0535	0.1125	502107	keystroke_r	r	n/a
251.121	0.101	502242	keystroke_e	e	n/a
251.222	0.1575	502444	keystroke_Key.space	Key.space	n/a
251.3235	0.09	502647	keystroke_g	g	n/a
251.5145	0.1465	503029	keystroke_r	r	n/a
251.6045	0.1465	503209	keystroke_e	e	n/a
251.717	0.1235	503434	keystroke_a	a	n/a
251.8185	0.192	503637	keystroke_t	t	n/a
251.9315	0.168	503863	keystroke_e	e	n/a
252.032	0.169	504064	keystroke_s	s	n/a
252.156	0.101	504312	keystroke_t	t	n/a
252.2795	0.1015	504559	keystroke_Key.enter	Key.enter	n/a
252.3845	4.16	504769	prompt	n/a	config discipline wasn't para\n
253.2285	0.075	506457	keystroke_c	c	n/a
253.259	0.1345	506518	keystroke_o	o	n/a
253.3375	0.113	506675	keystroke_n	n	n/a
253.4285	0.1	506857	keystroke_f	f	n/a
253.5395	0.091	507079	keystroke_i	i	n/a
253.6445	0.0645	507289	keystroke_g	g	n/a
253.731	0.135	507462	keystroke_Key.space	Key.space	n/a
253.866	0.09	507732	keystroke_d	d	n/a
253.967	0.1015	507934	keystroke_i	i	n/a
254.08	0.113	508160	keystroke_s	s	n/a
254.2935	0.112	508587	keystroke_c	c	n/a
254.372	0.1575	508744	keystroke_i	i	n/a
254.5185	0.101	509037	keystroke_p	p	n/a
254.7435	0.169	509487	keystroke_l	l	n/a
254.8335	0.1125	509667	keystroke_i	i	n/a
254.901	0.1125	509802	keystroke_n	n	n/a
254.957	0.1125	509914	keystroke_e	e	n/a
255.081	0.146	510162	keystroke_Key.space	Key.space	n/a
255.182	0.124	510364	keystroke_w	w	n/a
255.317	0.1465	510634	keystroke_a	a	n/a
255.4075	0.112	510815	keystroke_s	s	n/a
255.497	0.079	510994	keystroke_n	n	n/a
255.632	0.1015	511264	keystroke_'	'	n/a
255.7445	0.09	511489	keystroke_t	t	n/a
255.7895	0.1695	511579	keystroke_Key.space	Key.space	n/a
255.9475	0.1345	511895	keystroke_p	p	n/a
256.015	0.1235	512030	keystroke_a	a	n/a
256.1165	0.1795	512233	keystroke_r	r	n/a
256.274	0.1015	512548	keystroke_a	a	n/a
256.4315	0.112	512863	keystroke_Key.enter	Key.enter	n/a
256.548	6.3645	513096	prompt	n/a	intelligence copyrights sacrifice penn\n
257.2425	0.1115	514485	keystroke_i	i	n/a
257.2975	0.146	514595	keystroke_n	n	n/a
257.421	0.1235	514842	keystroke_t	t	n/a
257.511	0.101	515022	keystroke_e	e	n/a
257.6235	0.056	515247	keystroke_l	l	n/a
257.8035	0.146	515607	keystroke_l	l	n/a
257.882	0.124	515764	keystroke_i	i	n/a
257.9385	0.1235	515877	keystroke_g	g	n/a
258.096	0.0675	516192	keystroke_e	e	n/a
258.175	0.112	516350	keystroke_n	n	n/a
258.321	0.09	516642	keystroke_c	c	n/a
258.5345	0.079	517069	keystroke_e	e	n/a
258.647	0.0905	517294	keystroke_Key.space	Key.space	n/a
258.771	0.1125	517542	keystroke_c	c	n/a
258.8725	0.1575	517745	keystroke_o	o	n/a
258.996	0.169	517992	keystroke_p	p	n/a
259.12	0.112	518240	keystroke_y	y	n/a
259.266	0.124	518532	keystroke_r	r	n/a
259.401	0.0785	518802	keystroke_i	i	n/a
259.492	0.089	518984	keystroke_g	g	n/a
259.6035	0.101	519207	keystroke_h	h	n/a
259.6935	0.135	519387	keystroke_t	t	n/a
259.7725	0.0895	519545	keystroke_s	s	n/a
259.8735	0.1465	519747	keystroke_Key.space	Key.space	n/a
260.065	0.1235	520130	keystroke_a	a	n/a
260.4925	0.079	520985	keystroke_Key.backspace	Key.backspace	n/a
260.605	0.09	521210	keystroke_s	s	n/a
260.7735	0.1125	521547	keystroke_a	a	n/a
260.965	0.0785	521930	keystroke_c	c	n/a
261.145	0.09	522290	keystroke_r	r	n/a
261.2685	0.0785	522537	keystroke_i	i	n/a
261.381	0.1125	522762	keystroke_f	f	n/a
261.5045	0.0905	523009	keystroke_i	i	n/a
261.606	0.1125	523212	keystroke_c	c	n/a
261.91	0.0895	523820	keystroke_e	e	n/a
262.0335	0.1235	524067	keystroke_Key.space	Key.space	n/a
262.2135	0.1235	524427	keystroke_p	p	n/a
262.3145	0.09	524629	keystroke_e	e	n/a
262.4275	0.067	524855	keystroke_n	n	n/a
262.5845	0.079	525169	keystroke_n	n	n/a
262.81	0.1015	525620	keystroke_Key.enter	Key.enter	n/a
262.925	5.4675	525850	prompt	n/a	dominican breakdown location reactions\n
263.6315	0.078	527263	keystroke_d	d	n/a
263.7435	0.113	527487	keystroke_o	o	n/a
263.8115	0.113	527623	keystroke_m	m	n/a
263.9685	0.135	527937	keystroke_i	i	n/a
264.0585	0.113	528117	keystroke_n	n	n/a
264.2045	0.124	528409	keystroke_i	i	n/a
264.396	0.1355	528792	keystroke_c	c	n/a
264.542	0.124	529084	keystroke_a	a	n/a
264.6435	0.146	529287	keystroke_n	n	n/a
264.7335	0.1355	529467	keystroke_Key.space	Key.space	n/a
265.004	0.1005	530008	keystroke_b	b	n/a
265.23	0.1675	530460	keystroke_r	r	n/a
265.296	0.1355	530592	keystroke_e	e	n/a
265.3865	0.123	530773	keystroke_a	a	n/a
265.4995	0.1005	530999	keystroke_k	k	n/a
265.622	0.104	531244	keystroke_d	d	n/a
265.735	0.101	531470	keystroke_o	o	n/a
265.8255	0.0895	531651	keystroke_w	w	n/a
265.926	0.1355	531852	keystroke_n	n	n/a
265.9935	0.135	531987	keystroke_Key.space	Key.space	n/a
266.106	0.0905	532212	keystroke_l	l	n/a
266.2975	0.0895	532595	keystroke_o	o	n/a
266.432	0.09	532864	keystroke_c	c	n/a
266.59	0.157	533180	keystroke_a	a	n/a
266.692	0.1115	533384	keystroke_t	t	n/a
266.781	0.2025	533562	keystroke_i	i	n/a
266.8375	0.1465	533675	keystroke_o	o	n/a
266.8935	0.169	533787	keystroke_n	n	n/a
266.9725	0.136	533945	keystroke_Key.space	Key.space	n/a
267.0625	0.146	534125	keystroke_r	r	n/a
267.1415	0.168	534283	keystroke_e	e	n/a
267.2875	0.1575	534575	keystroke_a	a	n/a
267.5235	0.09	535047	keystroke_c	c	n/a
267.6925	0.1235	535385	keystroke_t	t	n/a
267.827	0.2155	535654	keystroke_i	i	n/a
267.895	0.1575	535790	keystroke_o	o	n/a
267.9735	0.124	535947	keystroke_n	n	n/a
268.086	0.1015	536172	keystroke_s	s	n/a
268.2885	0.1025	536577	keystroke_Key.enter	Key.enter	n/a
268.3955	4.743	536791	prompt	n/a	jack tracy lithuania how'd\n
269.0085	0.1235	538017	keystroke_j	j	n/a
269.1095	0.113	538219	keystroke_a	a	n/a
269.312	0.079	538624	keystroke_c	c	n/a
269.402	0.135	538804	keystroke_k	k	n/a
269.481	0.1235	538962	keystroke_Key.space	Key.space	n/a
269.571	0.09	539142	keystroke_t	t	n/a
269.751	0.1235	539502	keystroke_r	r	n/a
269.8295	0.0795	539659	keystroke_a	a	n/a
270.0435	0.0905	540087	keystroke_c	c	n/a
270.2015	0.1345	540403	keystroke_y	y	n/a
270.3025	0.112	540605	keystroke_Key.space	Key.space	n/a
270.482	0.1465	540964	keystroke_l	l	n/a
270.5615	0.135	541123	keystroke_i	i	n/a
270.7085	0.1005	541417	keystroke_t	t	n/a
270.797	0.0675	541594	keystroke_h	h	n/a
270.977	0.079	541954	keystroke_u	u	n/a
271.067	0.1245	542134	keystroke_a	a	n/a
271.202	0.102	542404	keystroke_n	n	n/a
271.315	0.112	542630	keystroke_i	i	n/a
271.4165	0.0895	542833	keystroke_a	a	n/a
271.506	0.1235	543012	keystroke_Key.space	Key.space	n/a
271.6415	0.112	543283	keystroke_h	h	n/a
271.7085	0.1235	543417	keystroke_o	o	n/a
271.787	0.1245	543574	keystroke_w	w	n/a
271.9565	0.1355	543913	keystroke_'	'	n/a
272.204	0.067	544408	keystroke_'	'	n/a
272.5745	0.079	545149	keystroke_Key.backspace	Key.backspace	n/a
272.8335	0.1125	545667	keystroke_d	d	n/a
273.036	0.1015	546072	keystroke_Key.enter	Key.enter	n/a
273.142	5.081	546284	prompt	n/a	highland missions downloading receipt\n
273.8685	0.1125	547737	keystroke_h	h	n/a
273.9695	0.079	547939	keystroke_i	i	n/a
274.0595	0.1015	548119	keystroke_g	g	n/a
274.1495	0.079	548299	keystroke_h	h	n/a
274.296	0.102	548592	keystroke_l	l	n/a
274.4085	0.101	548817	keystroke_a	a	n/a
274.4985	0.0675	548997	keystroke_n	n	n/a
274.5885	0.09	549177	keystroke_d	d	n/a
274.6335	0.1685	549267	keystroke_Key.space	Key.space	n/a
274.701	0.146	549402	keystroke_m	m	n/a
274.8135	0.1235	549627	keystroke_i	i	n/a
274.8925	0.079	549785	keystroke_s	s	n/a
275.072	0.079	550144	keystroke_s	s	n/a
275.1625	0.214	550325	keystroke_i	i	n/a
275.2415	0.1455	550483	keystroke_o	o	n/a
275.2865	0.1345	550573	keystroke_n	n	n/a
275.4095	0.1125	550819	keystroke_s	s	n/a
275.556	0.146	551112	keystroke_Key.space	Key.space	n/a
275.7695	0.09	551539	keystroke_d	d	n/a
275.8715	0.09	551743	keystroke_o	o	n/a
275.9835	0.101	551967	keystroke_w	w	n/a
276.075	0.1225	552150	keystroke_n	n	n/a
276.186	0.0905	552372	keystroke_l	l	n/a
276.389	0.0675	552778	keystroke_o	o	n/a
276.4785	0.101	552957	keystroke_a	a	n/a
276.5575	0.0785	553115	keystroke_d	d	n/a
276.6245	0.1245	553249	keystroke_i	i	n/a
276.692	0.1015	553384	keystroke_n	n	n/a
276.771	0.0905	553542	keystroke_g	g	n/a
276.872	0.1465	553744	keystroke_Key.space	Key.space	n/a
276.9845	0.113	553969	keystroke_r	r	n/a
277.064	0.078	554128	keystroke_e	e	n/a
277.277	0.0795	554554	keystroke_c	c	n/a
277.4915	0.09	554983	keystroke_e	e	n/a
277.637	0.147	555274	keystroke_i	i	n/a
277.8285	0.1125	555657	keystroke_p	p	n/a
277.952	0.0795	555904	keystroke_t	t	n/a
278.1095	0.1125	556219	keystroke_Key.enter	Key.enter	n/a
278.2285	4.1345	556457	prompt	n/a	foods declare commons volvo\n
278.796	0.101	557592	keystroke_f	f	n/a
278.9085	0.0675	557817	keystroke_o	o	n/a
279.0885	0.09	558177	keystroke_o	o	n/a
279.1675	0.1685	558335	keystroke_d	d	n/a
279.2685	0.1125	558537	keystroke_s	s	n/a
279.3695	0.1465	558739	keystroke_Key.space	Key.space	n/a
279.5045	0.09	559009	keystroke_d	d	n/a
279.696	0.0675	559392	keystroke_e	e	n/a
279.8875	0.0785	559775	keystroke_c	c	n/a
279.9885	0.1465	559977	keystroke_l	l	n/a
280.124	0.1005	560248	keystroke_a	a	n/a
280.2025	0.1575	560405	keystroke_r	r	n/a
280.3145	0.113	560629	keystroke_e	e	n/a
280.461	0.101	560922	keystroke_Key.space	Key.space	n/a
280.5745	0.1115	561149	keystroke_c	c	n/a
280.6415	0.135	561283	keystroke_o	o	n/a
280.731	0.101	561462	keystroke_m	m	n/a
280.9335	0.091	561867	keystroke_m	m	n/a
281.102	0.1465	562204	keystroke_o	o	n/a
281.1585	0.1125	562317	keystroke_n	n	n/a
281.2375	0.101	562475	keystroke_s	s	n/a
281.361	0.124	562722	keystroke_Key.space	Key.space	n/a
281.496	0.08	562992	keystroke_v	v	n/a
281.5755	0.078	563151	keystroke_o	o	n/a
281.766	0.09	563532	keystroke_l	l	n/a
281.9345	0.1015	563869	keystroke_v	v	n/a
282.047	0.068	564094	keystroke_o	o	n/a
282.261	0.101	564522	keystroke_Key.enter	Key.enter	n/a
282.366	4.5875	564732	prompt	n/a	excited greatest naturals milton\n
283.0935	0.0785	566187	keystroke_e	e	n/a
283.296	0.1125	566592	keystroke_x	x	n/a
283.465	0.1125	566930	keystroke_c	c	n/a
283.611	0.1015	567222	keystroke_i	i	n/a
283.724	0.112	567448	keystroke_t	t	n/a
283.791	0.09	567582	keystroke_e	e	n/a
283.971	0.0675	567942	keystroke_d	d	n/a
284.0955	0.157	568191	keystroke_Key.space	Key.space	n/a
284.1625	0.101	568325	keystroke_g	g	n/a
284.3535	0.1575	568707	keystroke_r	r	n/a
284.421	0.135	568842	keystroke_e	e	n/a
284.545	0.1235	569090	keystroke_a	a	n/a
284.635	0.191	569270	keystroke_t	t	n/a
284.736	0.1575	569472	keystroke_e	e	n/a
284.8485	0.1685	569697	keystroke_s	s	n/a
284.9725	0.0785	569945	keystroke_t	t	n/a
285.0625	0.1235	570125	keystroke_Key.space	Key.space	n/a
285.141	0.124	570282	keystroke_n	n	n/a
285.242	0.1015	570484	keystroke_a	a	n/a
285.332	0.1015	570664	keystroke_t	t	n/a
285.4675	0.0565	570935	keystroke_u	u	n/a
285.546	0.1575	571092	keystroke_r	r	n/a
285.647	0.1015	571294	keystroke_a	a	n/a
285.726	0.135	571452	keystroke_l	l	n/a
285.8725	0.09	571745	keystroke_s	s	n/a
285.951	0.1125	571902	keystroke_Key.space	Key.space	n/a
286.0075	0.146	572015	keystroke_m	m	n/a
286.1425	0.135	572285	keystroke_i	i	n/a
286.221	0.135	572442	keystroke_l	l	n/a
286.367	0.113	572734	keystroke_t	t	n/a
286.491	0.1125	572982	keystroke_o	o	n/a
286.5475	0.1235	573095	keystroke_n	n	n/a
286.851	0.1015	573702	keystroke_Key.enter	Key.enter	n/a
286.9565	5.374	573913	prompt	n/a	vary europe prepare underwear\n
287.6385	0.0785	575277	keystroke_v	v	n/a
287.774	0.1345	575548	keystroke_a	a	n/a
287.8635	0.1125	575727	keystroke_r	r	n/a
287.9425	0.112	575885	keystroke_y	y	n/a
288.0095	0.1015	576019	keystroke_Key.space	Key.space	n/a
288.291	0.1125	576582	keystroke_e	e	n/a
288.483	0.022	576966	keystroke_u	u	n/a
288.5735	0.089	577147	keystroke_u	u	n/a
288.831	0.135	577662	keystroke_r	r	n/a
289.191	0.0675	578382	keystroke_Key.backspace	Key.backspace	n/a
289.36	0.101	578720	keystroke_Key.backspace	Key.backspace	n/a
289.507	0.1225	579014	keystroke_r	r	n/a
289.6975	0.18	579395	keystroke_o	o	n/a
289.7875	0.146	579575	keystroke_p	p	n/a
289.911	0.09	579822	keystroke_e	e	n/a
290.012	0.135	580024	keystroke_Key.space	Key.space	n/a
290.192	0.124	580384	keystroke_p	p	n/a
290.2825	0.135	580565	keystroke_r	r	n/a
290.3505	0.09	580701	keystroke_e	e	n/a
290.451	0.135	580902	keystroke_p	p	n/a
290.553	0.112	581106	keystroke_a	a	n/a
290.6425	0.146	581285	keystroke_r	r	n/a
290.721	0.1125	581442	keystroke_e	e	n/a
290.811	0.1465	581622	keystroke_Key.space	Key.space	n/a
290.9685	0.0335	581937	keystroke_u	u	n/a
291.1035	0.101	582207	keystroke_n	n	n/a
291.1935	0.056	582387	keystroke_d	d	n/a
291.351	0.1125	582702	keystroke_e	e	n/a
291.4295	0.1015	582859	keystroke_r	r	n/a
291.6545	0.137	583309	keystroke_w	w	n/a
291.8015	0.191	583603	keystroke_e	e	n/a
291.9815	0.157	583963	keystroke_a	a	n/a
292.0935	0.1125	584187	keystroke_r	r	n/a
292.217	0.1125	584434	keystroke_Key.enter	Key.enter	n/a
292.334	5.881	584668	prompt	n/a	further vampire complete physically\n
293.0045	0.1015	586009	keystroke_f	f	n/a
293.151	0.0785	586302	keystroke_u	u	n/a
293.252	0.102	586504	keystroke_r	r	n/a
293.421	0.1025	586842	keystroke_t	t	n/a
293.4995	0.0905	586999	keystroke_h	h	n/a
293.5785	0.135	587157	keystroke_e	e	n/a
293.6685	0.0785	587337	keystroke_r	r	n/a
293.7585	0.146	587517	keystroke_Key.space	Key.space	n/a
293.871	0.146	587742	keystroke_v	v	n/a
294.0285	0.101	588057	keystroke_a	a	n/a
294.152	0.1575	588304	keystroke_m	m	n/a
294.242	0.1465	588484	keystroke_p	p	n/a
294.49	0.1235	588980	keystroke_i	i	n/a
294.602	0.1465	589204	keystroke_r	r	n/a
294.692	0.124	589384	keystroke_e	e	n/a
294.8275	0.18	589655	keystroke_Key.space	Key.space	n/a
295.401	0.1235	590802	keystroke_c	c	n/a
295.536	0.271	591072	keystroke_o	o	n/a
295.626	0.191	591252	keystroke_m	m	n/a
295.6825	0.2025	591365	keystroke_p	p	n/a
296.0645	0.124	592129	keystroke_l	l	n/a
296.1885	0.1245	592377	keystroke_e	e	n/a
296.2785	0.1915	592557	keystroke_t	t	n/a
296.4135	0.1015	592827	keystroke_e	e	n/a
296.5485	0.101	593097	keystroke_Key.space	Key.space	n/a
296.7285	0.1465	593457	keystroke_p	p	n/a
296.8305	0.0555	593661	keystroke_h	h	n/a
296.9985	0.09	593997	keystroke_y	y	n/a
297.145	0.101	594290	keystroke_s	s	n/a
297.235	0.1125	594470	keystroke_i	i	n/a
297.381	0.1125	594762	keystroke_c	c	n/a
297.46	0.135	594920	keystroke_a	a	n/a
297.574	0.0665	595148	keystroke_l	l	n/a
297.7635	0.135	595527	keystroke_l	l	n/a
297.831	0.101	595662	keystroke_y	y	n/a
298.101	0.1125	596202	keystroke_Key.enter	Key.enter	n/a
298.218	5.0815	596436	prompt	n/a	action sound totals extraordinary\n
298.8095	0.1355	597619	keystroke_a	a	n/a
299.035	0.0895	598070	keystroke_c	c	n/a
299.226	0.102	598452	keystroke_t	t	n/a
299.316	0.225	598632	keystroke_i	i	n/a
299.4065	0.1345	598813	keystroke_o	o	n/a
299.417	0.158	598834	keystroke_n	n	n/a
299.5415	0.157	599083	keystroke_Key.space	Key.space	n/a
299.6425	0.101	599285	keystroke_s	s	n/a
299.755	0.146	599510	keystroke_o	o	n/a
299.857	0.1005	599714	keystroke_u	u	n/a
300.0585	0.09	600117	keystroke_n	n	n/a
300.16	0.0785	600320	keystroke_d	d	n/a
300.2505	0.1235	600501	keystroke_Key.space	Key.space	n/a
300.408	0.089	600816	keystroke_t	t	n/a
300.5085	0.1125	601017	keystroke_o	o	n/a
300.61	0.1355	601220	keystroke_t	t	n/a
300.711	0.1245	601422	keystroke_a	a	n/a
300.801	0.124	601602	keystroke_l	l	n/a
300.9585	0.079	601917	keystroke_s	s	n/a
301.0265	0.18	602053	keystroke_Key.space	Key.space	n/a
301.2405	0.112	602481	keystroke_e	e	n/a
301.532	0.1015	603064	keystroke_x	x	n/a
301.746	0.056	603492	keystroke_t	t	n/a
301.9035	0.124	603807	keystroke_r	r	n/a
301.9935	0.1135	603987	keystroke_a	a	n/a
302.151	0.1125	604302	keystroke_o	o	n/a
302.241	0.1235	604482	keystroke_r	r	n/a
302.387	0.1015	604774	keystroke_d	d	n/a
302.4775	0.157	604955	keystroke_i	i	n/a
302.5785	0.1235	605157	keystroke_n	n	n/a
302.68	0.146	605360	keystroke_a	a	n/a
302.8035	0.124	605607	keystroke_r	r	n/a
302.916	0.091	605832	keystroke_y	y	n/a
303.1975	0.101	606395	keystroke_Key.enter	Key.enter	n/a
303.3025	4.7455	606605	prompt	n/a	russian rocket princess needn't\n
303.951	0.113	607902	keystroke_r	r	n/a
304.0865	0.1005	608173	keystroke_u	u	n/a
304.1985	0.068	608397	keystroke_s	s	n/a
304.379	0.0675	608758	keystroke_s	s	n/a
304.4465	0.1235	608893	keystroke_i	i	n/a
304.604	0.1455	609208	keystroke_a	a	n/a
304.705	0.1575	609410	keystroke_n	n	n/a
304.795	0.1125	609590	keystroke_Key.space	Key.space	n/a
304.8845	0.1015	609769	keystroke_r	r	n/a
304.9975	0.1125	609995	keystroke_o	o	n/a
305.132	0.0795	610264	keystroke_c	c	n/a
305.234	0.1235	610468	keystroke_k	k	n/a
305.3465	0.123	610693	keystroke_e	e	n/a
305.425	0.112	610850	keystroke_t	t	n/a
305.504	0.169	611008	keystroke_Key.space	Key.space	n/a
305.616	0.1125	611232	keystroke_p	p	n/a
305.684	0.113	611368	keystroke_r	r	n/a
305.7965	0.1455	611593	keystroke_i	i	n/a
305.864	0.1345	611728	keystroke_n	n	n/a
305.9315	0.078	611863	keystroke_c	c	n/a
306.123	0.123	612246	keystroke_e	e	n/a
306.19	0.101	612380	keystroke_s	s	n/a
306.381	0.0905	612762	keystroke_s	s	n/a
306.482	0.135	612964	keystroke_Key.space	Key.space	n/a
306.573	0.146	613146	keystroke_n	n	n/a
306.685	0.079	613370	keystroke_e	e	n/a
306.8535	0.0785	613707	keystroke_e	e	n/a
307.0445	0.0795	614089	keystroke_d	d	n/a
307.1345	0.09	614269	keystroke_n	n	n/a
307.304	0.09	614608	keystroke_'	'	n/a
307.6865	0.1005	615373	keystroke_t	t	n/a
307.934	0.1125	615868	keystroke_Key.enter	Key.enter	n/a
308.051	4.9345	616102	prompt	n/a	publications knock hispanic lessons\n
308.7435	0.135	617487	keystroke_p	p	n/a
309.104	0.1125	618208	keystroke_u	u	n/a
309.2395	0.089	618479	keystroke_b	b	n/a
309.3515	0.1575	618703	keystroke_l	l	n/a
309.441	0.124	618882	keystroke_i	i	n/a
309.5195	0.09	619039	keystroke_c	c	n/a
309.7115	0.135	619423	keystroke_a	a	n/a
309.79	0.1235	619580	keystroke_t	t	n/a
309.88	0.2135	619760	keystroke_i	i	n/a
309.925	0.191	619850	keystroke_o	o	n/a
310.004	0.1355	620008	keystroke_n	n	n/a
310.1045	0.0795	620209	keystroke_s	s	n/a
310.1945	0.135	620389	keystroke_Key.space	Key.space	n/a
310.274	0.1685	620548	keystroke_k	k	n/a
310.364	0.1345	620728	keystroke_n	n	n/a
310.454	0.1355	620908	keystroke_o	o	n/a
310.6685	0.1	621337	keystroke_c	c	n/a
310.77	0.1225	621540	keystroke_k	k	n/a
310.825	0.136	621650	keystroke_Key.space	Key.space	n/a
311.0615	0.123	622123	keystroke_h	h	n/a
311.1515	0.123	622303	keystroke_i	i	n/a
311.252	0.079	622504	keystroke_s	s	n/a
311.4325	0.1465	622865	keystroke_p	p	n/a
311.6015	0.112	623203	keystroke_a	a	n/a
311.6915	0.123	623383	keystroke_n	n	n/a
311.7925	0.0895	623585	keystroke_i	i	n/a
311.8715	0.0895	623743	keystroke_c	c	n/a
311.9835	0.146	623967	keystroke_Key.space	Key.space	n/a
312.085	0.1345	624170	keystroke_l	l	n/a
312.152	0.1465	624304	keystroke_e	e	n/a
312.2425	0.101	624485	keystroke_s	s	n/a
312.445	0.09	624890	keystroke_s	s	n/a
312.5345	0.124	625069	keystroke_o	o	n/a
312.602	0.124	625204	keystroke_n	n	n/a
312.7035	0.113	625407	keystroke_s	s	n/a
312.872	0.1125	625744	keystroke_Key.enter	Key.enter	n/a
312.989	5.1495	625978	prompt	n/a	hartford weapons charlie inflation\n
313.784	0.123	627568	keystroke_h	h	n/a
313.896	0.1235	627792	keystroke_a	a	n/a
313.9745	0.102	627949	keystroke_r	r	n/a
314.1775	0.0895	628355	keystroke_t	t	n/a
314.4025	0.09	628805	keystroke_f	f	n/a
314.526	0.1015	629052	keystroke_o	o	n/a
314.606	0.1565	629212	keystroke_r	r	n/a
314.7285	0.1125	629457	keystroke_d	d	n/a
314.852	0.113	629704	keystroke_Key.space	Key.space	n/a
314.965	0.191	629930	keystroke_w	w	n/a
315.145	0.2245	630290	keystroke_e	e	n/a
315.3245	0.1575	630649	keystroke_a	a	n/a
315.471	0.1125	630942	keystroke_p	p	n/a
315.651	0.1575	631302	keystroke_o	o	n/a
315.73	0.1235	631460	keystroke_n	n	n/a
315.8195	0.09	631639	keystroke_s	s	n/a
315.9435	0.124	631887	keystroke_Key.space	Key.space	n/a
316.0785	0.09	632157	keystroke_c	c	n/a
316.1795	0.1015	632359	keystroke_h	h	n/a
316.27	0.112	632540	keystroke_a	a	n/a
316.3485	0.0915	632697	keystroke_r	r	n/a
316.427	0.1355	632854	keystroke_l	l	n/a
316.5065	0.112	633013	keystroke_i	i	n/a
316.596	0.101	633192	keystroke_e	e	n/a
316.7085	0.135	633417	keystroke_Key.space	Key.space	n/a
316.9	0.135	633800	keystroke_i	i	n/a
316.979	0.1235	633958	keystroke_n	n	n/a
317.0345	0.1015	634069	keystroke_f	f	n/a
317.192	0.135	634384	keystroke_l	l	n/a
317.3165	0.1235	634633	keystroke_a	a	n/a
317.4845	0.113	634969	keystroke_t	t	n/a
317.609	0.214	635218	keystroke_i	i	n/a
317.676	0.1685	635352	keystroke_o	o	n/a
317.7775	0.1235	635555	keystroke_n	n	n/a
318.036	0.101	636072	keystroke_Key.enter	Key.enter	n/a
318.1415	3.8675	636283	prompt	n/a	tears lexington reply hayes\n
318.7905	0.1005	637581	keystroke_t	t	n/a
318.936	0.1465	637872	keystroke_e	e	n/a
319.071	0.146	638142	keystroke_a	a	n/a
319.161	0.1575	638322	keystroke_r	r	n/a
319.2735	0.1015	638547	keystroke_s	s	n/a
319.3635	0.1575	638727	keystroke_Key.space	Key.space	n/a
319.4535	0.135	638907	keystroke_l	l	n/a
319.5325	0.101	639065	keystroke_e	e	n/a
319.735	0.09	639470	keystroke_x	x	n/a
319.8245	0.1355	639649	keystroke_i	i	n/a
319.892	0.136	639784	keystroke_n	n	n/a
319.9825	0.0785	639965	keystroke_g	g	n/a
320.1735	0.09	640347	keystroke_t	t	n/a
320.275	0.1235	640550	keystroke_o	o	n/a
320.3195	0.1465	640639	keystroke_n	n	n/a
320.421	0.124	640842	keystroke_Key.space	Key.space	n/a
320.556	0.135	641112	keystroke_r	r	n/a
320.6575	0.101	641315	keystroke_e	e	n/a
320.747	0.1015	641494	keystroke_p	p	n/a
320.9835	0.135	641967	keystroke_l	l	n/a
321.0625	0.135	642125	keystroke_y	y	n/a
321.13	0.1235	642260	keystroke_Key.space	Key.space	n/a
321.2875	0.102	642575	keystroke_h	h	n/a
321.445	0.1015	642890	keystroke_a	a	n/a
321.535	0.0785	643070	keystroke_y	y	n/a
321.636	0.1805	643272	keystroke_e	e	n/a
321.7375	0.1355	643475	keystroke_s	s	n/a
321.9175	0.09	643835	keystroke_Key.enter	Key.enter	n/a
322.0125	4.665	644025	prompt	n/a	graphical she ipod ottawa\n
322.6725	0.089	645345	keystroke_g	g	n/a
322.8625	0.1465	645725	keystroke_r	r	n/a
322.964	0.1345	645928	keystroke_a	a	n/a
323.065	0.169	646130	keystroke_p	p	n/a
323.155	0.1465	646310	keystroke_h	h	n/a
323.279	0.1345	646558	keystroke_i	i	n/a
323.38	0.1345	646760	keystroke_c	c	n/a
323.4925	0.113	646985	keystroke_a	a	n/a
323.594	0.1455	647188	keystroke_l	l	n/a
323.6725	0.124	647345	keystroke_Key.space	Key.space	n/a
323.751	0.113	647502	keystroke_s	s	n/a
323.8975	0.09	647795	keystroke_h	h	n/a
323.9985	0.135	647997	keystroke_e	e	n/a
324.0895	0.1225	648179	keystroke_Key.space	Key.space	n/a
324.19	0.1235	648380	keystroke_i	i	n/a
324.3815	0.135	648763	keystroke_p	p	n/a
324.539	0.146	649078	keystroke_o	o	n/a
324.6965	0.1005	649393	keystroke_d	d	n/a
324.786	0.1465	649572	keystroke_Key.space	Key.space	n/a
324.9435	0.124	649887	keystroke_o	o	n/a
325.079	0.0785	650158	keystroke_t	t	n/a
325.259	0.113	650518	keystroke_t	t	n/a
325.495	0.135	650990	keystroke_o	o	n/a
325.889	0.067	651778	keystroke_Key.backspace	Key.backspace	n/a
326.035	0.101	652070	keystroke_a	a	n/a
326.215	0.2025	652430	keystroke_w	w	n/a
326.3165	0.1685	652633	keystroke_a	a	n/a
326.564	0.1125	653128	keystroke_Key.enter	Key.enter	n/a
326.681	4.7105	653362	prompt	n/a	diagnostic registry beth atom\n
327.385	0.0675	654770	keystroke_d	d	n/a
327.4975	0.1235	654995	keystroke_i	i	n/a
327.689	0.09	655378	keystroke_a	a	n/a
327.925	0.0785	655850	keystroke_g	g	n/a
328.15	0.0785	656300	keystroke_n	n	n/a
328.3075	0.1245	656615	keystroke_o	o	n/a
328.4555	0.1445	656911	keystroke_s	s	n/a
328.5435	0.1125	657087	keystroke_t	t	n/a
328.6675	0.079	657335	keystroke_i	i	n/a
328.78	0.101	657560	keystroke_c	c	n/a
328.8815	0.1685	657763	keystroke_Key.space	Key.space	n/a
329.0055	0.123	658011	keystroke_r	r	n/a
329.095	0.0785	658190	keystroke_e	e	n/a
329.2525	0.101	658505	keystroke_g	g	n/a
329.354	0.0895	658708	keystroke_i	i	n/a
329.444	0.101	658888	keystroke_s	s	n/a
329.5	0.1235	659000	keystroke_t	t	n/a
329.725	0.0905	659450	keystroke_r	r	n/a
329.826	0.1015	659652	keystroke_y	y	n/a
329.872	0.137	659744	keystroke_Key.space	Key.space	n/a
330.13	0.0785	660260	keystroke_b	b	n/a
330.289	0.134	660578	keystroke_e	e	n/a
330.4455	0.112	660891	keystroke_t	t	n/a
330.546	0.1355	661092	keystroke_h	h	n/a
330.636	0.1125	661272	keystroke_Key.space	Key.space	n/a
330.681	0.1255	661362	keystroke_a	a	n/a
330.76	0.1235	661520	keystroke_t	t	n/a
330.9175	0.146	661835	keystroke_o	o	n/a
331.0075	0.1235	662015	keystroke_m	m	n/a
331.3	0.0905	662600	keystroke_Key.enter	Key.enter	n/a
331.395	6.735	662790	prompt	n/a	inventory suites administered rare\n
332.2335	0.1125	664467	keystroke_i	i	n/a
332.301	0.158	664602	keystroke_n	n	n/a
332.425	0.056	664850	keystroke_v	v	n/a
332.5035	0.0795	665007	keystroke_e	e	n/a
332.616	0.1015	665232	keystroke_n	n	n/a
332.7395	0.1135	665479	keystroke_t	t	n/a
332.8755	0.078	665751	keystroke_o	o	n/a
332.9985	0.1125	665997	keystroke_r	r	n/a
333.0775	0.1235	666155	keystroke_y	y	n/a
333.1675	0.0785	666335	keystroke_Key.space	Key.space	n/a
333.4385	0.01	666877	keystroke_s	s	n/a
333.4605	0.1345	666921	keystroke_u	u	n/a
333.5505	0.123	667101	keystroke_i	i	n/a
333.64	0.1685	667280	keystroke_t	t	n/a
333.7525	0.146	667505	keystroke_e	e	n/a
333.8425	0.101	667685	keystroke_s	s	n/a
333.922	0.134	667844	keystroke_Key.space	Key.space	n/a
334.09	0.1235	668180	keystroke_a	a	n/a
334.293	0.1005	668586	keystroke_d	d	n/a
334.416	0.1125	668832	keystroke_m	m	n/a
335.44	0.0905	670880	keystroke_i	i	n/a
335.6535	0.1125	671307	keystroke_n	n	n/a
335.7885	0.135	671577	keystroke_i	i	n/a
335.9125	0.101	671825	keystroke_s	s	n/a
335.991	0.1125	671982	keystroke_t	t	n/a
336.1385	0.1115	672277	keystroke_e	e	n/a
336.228	0.1795	672456	keystroke_r	r	n/a
336.34	0.1125	672680	keystroke_e	e	n/a
336.5425	0.0675	673085	keystroke_d	d	n/a
336.655	0.158	673310	keystroke_Key.space	Key.space	n/a
336.7905	0.123	673581	keystroke_a	a	n/a
336.8805	0.1455	673761	keystroke_r	r	n/a
337.2965	0.0895	674593	keystroke_Key.backspace	Key.backspace	n/a
337.4655	0.0905	674931	keystroke_Key.backspace	Key.backspace	n/a
337.5325	0.146	675065	keystroke_r	r	n/a
337.69	0.124	675380	keystroke_a	a	n/a
337.7685	0.18	675537	keystroke_r	r	n/a
337.893	0.1125	675786	keystroke_e	e	n/a
338.0275	0.101	676055	keystroke_Key.enter	Key.enter	n/a
338.133	4.655	676266	prompt	n/a	revelation disney value transport\n
338.8035	0.138	677607	keystroke_r	r	n/a
338.8935	0.1125	677787	keystroke_e	e	n/a
339.1755	0.09	678351	keystroke_v	v	n/a
339.3885	0.0795	678777	keystroke_e	e	n/a
339.5235	0.124	679047	keystroke_l	l	n/a
339.6585	0.1245	679317	keystroke_a	a	n/a
339.7485	0.135	679497	keystroke_t	t	n/a
339.861	0.225	679722	keystroke_i	i	n/a
339.94	0.135	679880	keystroke_o	o	n/a
340.0075	0.1575	680015	keystroke_n	n	n/a
340.12	0.079	680240	keystroke_Key.space	Key.space	n/a
340.1885	0.089	680377	keystroke_d	d	n/a
340.2885	0.09	680577	keystroke_i	i	n/a
340.379	0.1235	680758	keystroke_s	s	n/a
340.491	0.1015	680982	keystroke_n	n	n/a
340.6385	0.089	681277	keystroke_e	e	n/a
340.75	0.1125	681500	keystroke_y	y	n/a
340.8285	0.114	681657	keystroke_Key.space	Key.space	n/a
340.964	0.135	681928	keystroke_v	v	n/a
341.0985	0.079	682197	keystroke_a	a	n/a
341.166	0.1355	682332	keystroke_l	l	n/a
341.234	0.1125	682468	keystroke_u	u	n/a
341.335	0.0785	682670	keystroke_e	e	n/a
341.4475	0.1245	682895	keystroke_Key.space	Key.space	n/a
341.526	0.0905	683052	keystroke_t	t	n/a
341.7285	0.124	683457	keystroke_r	r	n/a
341.819	0.1125	683638	keystroke_a	a	n/a
341.909	0.1345	683818	keystroke_n	n	n/a
342.0555	0.101	684111	keystroke_s	s	n/a
342.1675	0.146	684335	keystroke_p	p	n/a
342.2465	0.146	684493	keystroke_o	o	n/a
342.37	0.079	684740	keystroke_r	r	n/a
342.55	0.1015	685100	keystroke_t	t	n/a
342.6745	0.112	685349	keystroke_Key.enter	Key.enter	n/a
342.791	4.565	685582	prompt	n/a	drew injured suspect collect\n
343.405	0.101	686810	keystroke_d	d	n/a
343.5965	0.2135	687193	keystroke_r	r	n/a
343.6865	0.191	687373	keystroke_e	e	n/a
343.7765	0.135	687553	keystroke_w	w	n/a
343.9115	0.101	687823	keystroke_Key.space	Key.space	n/a
344.0235	0.1465	688047	keystroke_i	i	n/a
344.1135	0.1015	688227	keystroke_n	n	n/a
344.3165	0.0675	688633	keystroke_j	j	n/a
344.5075	0.09	689015	keystroke_u	u	n/a
344.5975	0.1575	689195	keystroke_r	r	n/a
344.71	0.1015	689420	keystroke_e	e	n/a
344.9125	0.079	689825	keystroke_d	d	n/a
345.036	0.0905	690072	keystroke_Key.space	Key.space	n/a
345.1265	0.09	690253	keystroke_s	s	n/a
345.2275	0.09	690455	keystroke_u	u	n/a
345.34	0.1125	690680	keystroke_s	s	n/a
345.475	0.147	690950	keystroke_p	p	n/a
345.599	0.0785	691198	keystroke_e	e	n/a
345.79	0.0675	691580	keystroke_c	c	n/a
345.936	0.103	691872	keystroke_t	t	n/a
346.06	0.124	692120	keystroke_Key.space	Key.space	n/a
346.1725	0.0675	692345	keystroke_c	c	n/a
346.2625	0.079	692525	keystroke_o	o	n/a
346.4765	0.056	692953	keystroke_l	l	n/a
346.645	0.09	693290	keystroke_l	l	n/a
346.724	0.0335	693448	keystroke_e	e	n/a
346.904	0.0785	693808	keystroke_c	c	n/a
347.1285	0.079	694257	keystroke_t	t	n/a
347.2525	0.1025	694505	keystroke_Key.enter	Key.enter	n/a
347.359	4.4975	694718	prompt	n/a	nickname sometimes myrtle voices\n
348.186	0.1125	696372	keystroke_n	n	n/a
348.2765	0.112	696553	keystroke_i	i	n/a
348.4335	0.1015	696867	keystroke_c	c	n/a
348.5235	0.079	697047	keystroke_k	k	n/a
348.715	0.0785	697430	keystroke_n	n	n/a
348.85	0.1125	697700	keystroke_a	a	n/a
348.929	0.0675	697858	keystroke_m	m	n/a
349.0415	0.0785	698083	keystroke_e	e	n/a
349.0975	0.146	698195	keystroke_Key.space	Key.space	n/a
349.255	0.124	698510	keystroke_s	s	n/a
349.3565	0.135	698713	keystroke_o	o	n/a
349.424	0.1235	698848	keystroke_m	m	n/a
349.5135	0.1465	699027	keystroke_e	e	n/a
349.649	0.09	699298	keystroke_t	t	n/a
349.7385	0.124	699477	keystroke_i	i	n/a
349.795	0.135	699590	keystroke_m	m	n/a
349.851	0.158	699702	keystroke_e	e	n/a
349.9415	0.1235	699883	keystroke_s	s	n/a
350.02	0.135	700040	keystroke_Key.space	Key.space	n/a
350.0765	0.1125	700153	keystroke_m	m	n/a
350.335	0.0785	700670	keystroke_y	y	n/a
350.4475	0.057	700895	keystroke_r	r	n/a
350.5825	0.101	701165	keystroke_t	t	n/a
350.661	0.1125	701322	keystroke_l	l	n/a
350.785	0.0675	701570	keystroke_e	e	n/a
350.8415	0.157	701683	keystroke_Key.space	Key.space	n/a
350.9885	0.1115	701977	keystroke_v	v	n/a
351.0885	0.169	702177	keystroke_o	o	n/a
351.2015	0.1235	702403	keystroke_i	i	n/a
351.235	0.101	702470	keystroke_c	c	n/a
351.4715	0.135	702943	keystroke_e	e	n/a
351.55	0.1235	703100	keystroke_s	s	n/a
351.741	0.1135	703482	keystroke_Key.enter	Key.enter	n/a
351.8595	7.8035	703719	prompt	n/a	hills zambia leasing specialties\n
352.484	0.09	704968	keystroke_h	h	n/a
352.551	0.169	705102	keystroke_i	i	n/a
352.675	0.09	705350	keystroke_l	l	n/a
352.8435	0.135	705687	keystroke_l	l	n/a
352.99	0.079	705980	keystroke_s	s	n/a
353.1925	0.135	706385	keystroke_Key.space	Key.space	n/a
353.519	0.0895	707038	keystroke_z	z	n/a
353.7325	0.1125	707465	keystroke_a	a	n/a
353.834	0.09	707668	keystroke_m	m	n/a
353.969	0.1025	707938	keystroke_b	b	n/a
354.0715	0.0885	708143	keystroke_i	i	n/a
354.205	0.135	708410	keystroke_a	a	n/a
354.351	0.1125	708702	keystroke_Key.space	Key.space	n/a
354.4975	0.146	708995	keystroke_l	l	n/a
354.5985	0.124	709197	keystroke_e	e	n/a
354.7565	0.112	709513	keystroke_a	a	n/a
354.8235	0.1125	709647	keystroke_s	s	n/a
354.925	0.124	709850	keystroke_o	o	n/a
354.9815	0.135	709963	keystroke_n	n	n/a
355.24	0.1015	710480	keystroke_s	s	n/a
355.6115	0.0675	711223	keystroke_Key.backspace	Key.backspace	n/a
355.949	0.101	711898	keystroke_g	g	n/a
356.0725	0.1685	712145	keystroke_Key.space	Key.space	n/a
356.624	0.0785	713248	keystroke_Key.backspace	Key.backspace	n/a
356.8485	0.0565	713697	keystroke_Key.backspace	Key.backspace	n/a
357.029	0.0675	714058	keystroke_Key.backspace	Key.backspace	n/a
357.22	0.0785	714440	keystroke_Key.backspace	Key.backspace	n/a
357.5465	0.135	715093	keystroke_i	i	n/a
357.625	0.124	715250	keystroke_n	n	n/a
357.7265	0.0785	715453	keystroke_g	g	n/a
357.839	0.1235	715678	keystroke_Key.space	Key.space	n/a
357.951	0.09	715902	keystroke_s	s	n/a
358.075	0.135	716150	keystroke_p	p	n/a
358.165	0.0675	716330	keystroke_e	e	n/a
358.3795	0.078	716759	keystroke_c	c	n/a
358.469	0.1125	716938	keystroke_i	i	n/a
358.5925	0.09	717185	keystroke_a	a	n/a
358.6935	0.1465	717387	keystroke_l	l	n/a
358.885	0.09	717770	keystroke_t	t	n/a
359.1775	0.102	718355	keystroke_i	i	n/a
359.29	0.181	718580	keystroke_e	e	n/a
359.391	0.1355	718782	keystroke_s	s	n/a
359.5375	0.124	719075	keystroke_Key.enter	Key.enter	n/a
359.6655	5.734	719331	prompt	n/a	enabling special sussex ignore\n
360.314	0.068	720628	keystroke_e	e	n/a
360.3715	0.111	720743	keystroke_n	n	n/a
360.595	0.18	721190	keystroke_a	a	n/a
361.5175	0.1015	723035	keystroke_b	b	n/a
361.6645	0.213	723329	keystroke_l	l	n/a
361.7545	0.1455	723509	keystroke_i	i	n/a
361.81	0.135	723620	keystroke_n	n	n/a
361.8775	0.09	723755	keystroke_g	g	n/a
362.002	0.123	724004	keystroke_Key.space	Key.space	n/a
362.1365	0.1125	724273	keystroke_s	s	n/a
362.305	0.135	724610	keystroke_p	p	n/a
362.373	0.101	724746	keystroke_e	e	n/a
362.8225	0.09	725645	keystroke_c	c	n/a
362.9695	0.123	725939	keystroke_i	i	n/a
363.127	0.112	726254	keystroke_a	a	n/a
363.2165	0.158	726433	keystroke_l	l	n/a
363.3175	0.1125	726635	keystroke_Key.space	Key.space	n/a
363.4645	0.078	726929	keystroke_s	s	n/a
363.599	0.0785	727198	keystroke_u	u	n/a
363.689	0.09	727378	keystroke_s	s	n/a
363.914	0.0785	727828	keystroke_s	s	n/a
364.0495	0.1005	728099	keystroke_e	e	n/a
364.2745	0.078	728549	keystroke_x	x	n/a
364.375	0.1125	728750	keystroke_Key.space	Key.space	n/a
364.555	0.1575	729110	keystroke_i	i	n/a
364.7575	0.1235	729515	keystroke_g	g	n/a
364.9035	0.113	729807	keystroke_n	n	n/a
365.005	0.1125	730010	keystroke_o	o	n/a
365.084	0.135	730168	keystroke_r	r	n/a
365.174	0.0895	730348	keystroke_e	e	n/a
365.2975	0.101	730595	keystroke_Key.enter	Key.enter	n/a
365.4025	6.4435	730805	prompt	n/a	pole vision production activity\n
366.04	0.1475	732080	keystroke_p	p	n/a
366.1875	0.1115	732375	keystroke_o	o	n/a
366.4225	0.079	732845	keystroke_l	l	n/a
366.524	0.0785	733048	keystroke_e	e	n/a
366.625	0.1235	733250	keystroke_Key.space	Key.space	n/a
366.738	0.101	733476	keystroke_v	v	n/a
366.8505	0.0785	733701	keystroke_i	i	n/a
366.942	0.077	733884	keystroke_s	s	n/a
367.064	0.214	734128	keystroke_i	i	n/a
367.143	0.157	734286	keystroke_o	o	n/a
367.2215	0.1465	734443	keystroke_n	n	n/a
367.289	0.101	734578	keystroke_Key.space	Key.space	n/a
367.424	0.1235	734848	keystroke_p	p	n/a
367.5375	0.112	735075	keystroke_r	r	n/a
367.649	0.09	735298	keystroke_o	o	n/a
367.773	0.0895	735546	keystroke_d	d	n/a
367.8735	0.0905	735747	keystroke_u	u	n/a
367.986	0.0795	735972	keystroke_c	c	n/a
368.1665	0.079	736333	keystroke_t	t	n/a
368.2005	0.202	736401	keystroke_i	i	n/a
368.279	0.1345	736558	keystroke_o	o	n/a
368.324	0.1575	736648	keystroke_n	n	n/a
368.4705	0.1575	736941	keystroke_Key.space	Key.space	n/a
368.5155	0.101	737031	keystroke_a	a	n/a
368.684	0.079	737368	keystroke_c	c	n/a
368.8415	0.082	737683	keystroke_t	t	n/a
369.044	0.135	738088	keystroke_v	v	n/a
369.1905	0.1135	738381	keystroke_i	i	n/a
369.494	0.1235	738988	keystroke_t	t	n/a
369.9665	0.09	739933	keystroke_Key.backspace	Key.backspace	n/a
370.1805	0.067	740361	keystroke_Key.backspace	Key.backspace	n/a
370.878	0.045	741756	keystroke_Key.backspace	Key.backspace	n/a
371.0805	0.0785	742161	keystroke_i	i	n/a
371.2155	0.124	742431	keystroke_v	v	n/a
371.339	0.0785	742678	keystroke_i	i	n/a
371.474	0.1015	742948	keystroke_t	t	n/a
371.554	0.089	743108	keystroke_y	y	n/a
371.756	0.089	743512	keystroke_Key.enter	Key.enter	n/a
371.8495	10.8755	743699	prompt	n/a	who's consumers canyon guide\n
372.7675	0.079	745535	keystroke_w	w	n/a
372.858	0.1135	745716	keystroke_h	h	n/a
372.9425	0.084	745885	keystroke_o	o	n/a
374.287	0.112	748574	keystroke_'	'	n/a
374.455	0.0675	748910	keystroke_s	s	n/a
374.579	0.135	749158	keystroke_Key.space	Key.space	n/a
374.725	0.09	749450	keystroke_c	c	n/a
374.804	0.146	749608	keystroke_o	o	n/a
374.8825	0.1125	749765	keystroke_n	n	n/a
375.0175	0.1125	750035	keystroke_s	s	n/a
375.164	0.0675	750328	keystroke_u	u	n/a
375.3665	0.0895	750733	keystroke_m	m	n/a
375.49	0.135	750980	keystroke_e	e	n/a
375.592	0.1905	751184	keystroke_r	r	n/a
375.7375	0.1125	751475	keystroke_s	s	n/a
375.8725	0.135	751745	keystroke_Key.space	Key.space	n/a
381.273	0.101	762546	keystroke_c	c	n/a
381.3965	0.1125	762793	keystroke_a	a	n/a
381.4975	0.079	762995	keystroke_n	n	n/a
381.6895	0.078	763379	keystroke_y	y	n/a
381.8015	0.146	763603	keystroke_o	o	n/a
381.892	0.113	763784	keystroke_n	n	n/a
381.9925	0.0795	763985	keystroke_Key.space	Key.space	n/a
382.06	0.1015	764120	keystroke_g	g	n/a
382.1725	0.1125	764345	keystroke_u	u	n/a
382.2625	0.1015	764525	keystroke_i	i	n/a
382.3205	0.077	764641	keystroke_d	d	n/a
382.5215	0.056	765043	keystroke_e	e	n/a
382.645	0.079	765290	keystroke_Key.enter	Key.enter	n/a
382.728	4.7445	765456	prompt	n/a	showcase middle died thou\n
383.298	0.0895	766596	keystroke_s	s	n/a
383.399	0.101	766798	keystroke_h	h	n/a
383.4665	0.1125	766933	keystroke_o	o	n/a
383.523	0.0785	767046	keystroke_w	w	n/a
383.748	0.1015	767496	keystroke_c	c	n/a
383.8945	0.123	767789	keystroke_a	a	n/a
383.973	0.135	767946	keystroke_s	s	n/a
384.0515	0.1025	768103	keystroke_e	e	n/a
384.12	0.157	768240	keystroke_Key.space	Key.space	n/a
384.232	0.1345	768464	keystroke_m	m	n/a
384.3325	0.1125	768665	keystroke_i	i	n/a
384.4115	0.0785	768823	keystroke_d	d	n/a
384.57	0.0775	769140	keystroke_d	d	n/a
384.6815	0.1125	769363	keystroke_l	l	n/a
384.7825	0.079	769565	keystroke_e	e	n/a
384.9065	0.1135	769813	keystroke_Key.space	Key.space	n/a
385.244	0.101	770488	keystroke_d	d	n/a
385.3795	0.1125	770759	keystroke_i	i	n/a
385.47	0.1	770940	keystroke_e	e	n/a
385.672	0.078	771344	keystroke_d	d	n/a
385.7725	0.124	771545	keystroke_Key.space	Key.space	n/a
385.92	0.1115	771840	keystroke_t	t	n/a
386.009	0.1125	772018	keystroke_h	h	n/a
386.144	0.158	772288	keystroke_o	o	n/a
386.268	0.112	772536	keystroke_u	u	n/a
386.662	0.078	773324	keystroke_h	h	n/a
387.0665	0.068	774133	keystroke_Key.backspace	Key.backspace	n/a
387.3815	0.0905	774763	keystroke_Key.enter	Key.enter	n/a
387.4765	4.2485	774953	prompt	n/a	oils transition pencil gather\n
388.158	0.1795	776316	keystroke_o	o	n/a
388.2925	0.102	776585	keystroke_i	i	n/a
388.4955	0.091	776991	keystroke_l	l	n/a
388.597	0.078	777194	keystroke_s	s	n/a
388.6975	0.135	777395	keystroke_Key.space	Key.space	n/a
388.8215	0.079	777643	keystroke_t	t	n/a
389.024	0.135	778048	keystroke_r	r	n/a
389.125	0.1015	778250	keystroke_a	a	n/a
389.2375	0.09	778475	keystroke_n	n	n/a
389.339	0.09	778678	keystroke_s	s	n/a
389.463	0.067	778926	keystroke_i	i	n/a
389.5535	0.1115	779107	keystroke_t	t	n/a
389.6765	0.2025	779353	keystroke_i	i	n/a
389.744	0.1465	779488	keystroke_o	o	n/a
389.8	0.158	779600	keystroke_n	n	n/a
389.924	0.113	779848	keystroke_Key.space	Key.space	n/a
390.025	0.124	780050	keystroke_p	p	n/a
390.16	0.124	780320	keystroke_e	e	n/a
390.2735	0.0895	780547	keystroke_n	n	n/a
390.4655	0.078	780931	keystroke_c	c	n/a
390.509	0.169	781018	keystroke_i	i	n/a
390.599	0.1685	781198	keystroke_l	l	n/a
390.7005	0.146	781401	keystroke_Key.space	Key.space	n/a
390.869	0.124	781738	keystroke_g	g	n/a
391.038	0.146	782076	keystroke_a	a	n/a
391.128	0.135	782256	keystroke_t	t	n/a
391.2865	0.1015	782573	keystroke_h	h	n/a
391.364	0.1575	782728	keystroke_e	e	n/a
391.4765	0.135	782953	keystroke_r	r	n/a
391.634	0.09	783268	keystroke_Key.enter	Key.enter	n/a
391.73	7.0715	783460	prompt	n/a	participation remedies packaging peripheral\n
392.4215	0.1575	784843	keystroke_p	p	n/a
392.624	0.1915	785248	keystroke_a	a	n/a
392.7815	0.1125	785563	keystroke_r	r	n/a
393.0065	0.1015	786013	keystroke_t	t	n/a
393.1415	0.079	786283	keystroke_i	i	n/a
393.2765	0.1015	786553	keystroke_c	c	n/a
393.378	0.09	786756	keystroke_i	i	n/a
393.5465	0.1915	787093	keystroke_p	p	n/a
393.7265	0.124	787453	keystroke_a	a	n/a
393.828	0.125	787656	keystroke_t	t	n/a
393.963	0.236	787926	keystroke_i	i	n/a
394.0305	0.1575	788061	keystroke_o	o	n/a
394.109	0.1575	788218	keystroke_n	n	n/a
394.21	0.1245	788420	keystroke_Key.space	Key.space	n/a
394.334	0.18	788668	keystroke_r	r	n/a
394.47	0.168	788940	keystroke_e	e	n/a
394.6715	0.135	789343	keystroke_m	m	n/a
394.796	0.126	789592	keystroke_e	e	n/a
395.054	0.0785	790108	keystroke_d	d	n/a
395.1665	0.1125	790333	keystroke_i	i	n/a
395.2695	0.122	790539	keystroke_e	e	n/a
395.3365	0.1225	790673	keystroke_s	s	n/a
395.403	0.146	790806	keystroke_Key.space	Key.space	n/a
395.6055	0.146	791211	keystroke_p	p	n/a
395.7065	0.101	791413	keystroke_a	a	n/a
395.8755	0.101	791751	keystroke_c	c	n/a
395.9655	0.1235	791931	keystroke_k	k	n/a
396.078	0.1235	792156	keystroke_a	a	n/a
396.17	0.1105	792340	keystroke_g	g	n/a
396.2915	0.146	792583	keystroke_i	i	n/a
396.359	0.135	792718	keystroke_n	n	n/a
396.4715	0.1015	792943	keystroke_g	g	n/a
396.584	0.136	793168	keystroke_Key.space	Key.space	n/a
396.708	0.135	793416	keystroke_p	p	n/a
396.809	0.1235	793618	keystroke_e	e	n/a
396.8765	0.1235	793753	keystroke_r	r	n/a
397.1015	0.1015	794203	keystroke_i	i	n/a
397.2705	0.112	794541	keystroke_f	f	n/a
397.698	0.056	795396	keystroke_Key.backspace	Key.backspace	n/a
397.9345	0.1575	795869	keystroke_p	p	n/a
398.013	0.1795	796026	keystroke_h	h	n/a
398.1255	0.124	796251	keystroke_e	e	n/a
398.204	0.1685	796408	keystroke_r	r	n/a
398.3615	0.1255	796723	keystroke_a	a	n/a
398.474	0.0905	796948	keystroke_l	l	n/a
398.699	0.101	797398	keystroke_Key.enter	Key.enter	n/a
398.8055	6.15	797611	prompt	n/a	transmit geographic profiles dimensional\n
399.4305	0.0895	798861	keystroke_t	t	n/a
399.622	0.1345	799244	keystroke_r	r	n/a
399.723	0.1015	799446	keystroke_a	a	n/a
399.847	0.09	799694	keystroke_n	n	n/a
399.937	0.1005	799874	keystroke_s	s	n/a
400.0605	0.124	800121	keystroke_m	m	n/a
400.162	0.1245	800324	keystroke_i	i	n/a
400.253	0.1	800506	keystroke_t	t	n/a
400.353	0.146	800706	keystroke_Key.space	Key.space	n/a
400.5215	0.079	801043	keystroke_g	g	n/a
400.668	0.068	801336	keystroke_e	e	n/a
400.7805	0.124	801561	keystroke_o	o	n/a
400.9155	0.09	801831	keystroke_g	g	n/a
401.1065	0.158	802213	keystroke_r	r	n/a
401.2195	0.123	802439	keystroke_a	a	n/a
401.2975	0.1805	802595	keystroke_p	p	n/a
401.388	0.1575	802776	keystroke_h	h	n/a
401.523	0.1235	803046	keystroke_i	i	n/a
401.603	0.0885	803206	keystroke_c	c	n/a
401.714	0.146	803428	keystroke_Key.space	Key.space	n/a
401.872	0.123	803744	keystroke_p	p	n/a
401.9845	0.1125	803969	keystroke_r	r	n/a
402.0865	0.1115	804173	keystroke_o	o	n/a
402.209	0.135	804418	keystroke_f	f	n/a
402.3215	0.191	804643	keystroke_i	i	n/a
402.423	0.124	804846	keystroke_l	l	n/a
402.4905	0.101	804981	keystroke_e	e	n/a
402.648	0.1575	805296	keystroke_Key.space	Key.space	n/a
403.1095	0.0675	806219	keystroke_Key.backspace	Key.backspace	n/a
403.233	0.1125	806466	keystroke_s	s	n/a
403.357	0.1125	806714	keystroke_Key.space	Key.space	n/a
403.4915	0.101	806983	keystroke_d	d	n/a
403.5815	0.1355	807163	keystroke_i	i	n/a
403.6605	0.1255	807321	keystroke_m	m	n/a
403.773	0.113	807546	keystroke_e	e	n/a
403.897	0.101	807794	keystroke_n	n	n/a
404.0095	0.112	808019	keystroke_s	s	n/a
404.133	0.2365	808266	keystroke_i	i	n/a
404.2115	0.1685	808423	keystroke_o	o	n/a
404.3245	0.1345	808649	keystroke_n	n	n/a
404.47	0.102	808940	keystroke_a	a	n/a
404.595	0.1	809190	keystroke_l	l	n/a
404.842	0.1125	809684	keystroke_Key.enter	Key.enter	n/a
404.959	4.395	809918	prompt	n/a	monkey export hungary trademark\n
405.539	0.135	811078	keystroke_m	m	n/a
405.663	0.1345	811326	keystroke_o	o	n/a
405.764	0.124	811528	keystroke_n	n	n/a
405.899	0.079	811798	keystroke_k	k	n/a
406.034	0.0685	812068	keystroke_e	e	n/a
406.1025	0.1115	812205	keystroke_y	y	n/a
406.1805	0.0785	812361	keystroke_Key.space	Key.space	n/a
406.2255	0.0785	812451	keystroke_e	e	n/a
406.4165	0.1015	812833	keystroke_x	x	n/a
406.529	0.079	813058	keystroke_p	p	n/a
406.698	0.1235	813396	keystroke_o	o	n/a
406.822	0.09	813644	keystroke_r	r	n/a
407.024	0.0675	814048	keystroke_t	t	n/a
407.092	0.1685	814184	keystroke_Key.space	Key.space	n/a
407.1935	0.112	814387	keystroke_h	h	n/a
407.3845	0.0785	814769	keystroke_u	u	n/a
407.5415	0.1015	815083	keystroke_n	n	n/a
407.665	0.0565	815330	keystroke_g	g	n/a
407.778	0.135	815556	keystroke_a	a	n/a
407.879	0.091	815758	keystroke_r	r	n/a
407.924	0.101	815848	keystroke_y	y	n/a
407.9915	0.1015	815983	keystroke_Key.space	Key.space	n/a
408.104	0.1015	816208	keystroke_t	t	n/a
408.3065	0.1135	816613	keystroke_r	r	n/a
408.408	0.1235	816816	keystroke_a	a	n/a
408.521	0.067	817042	keystroke_d	d	n/a
408.7005	0.0685	817401	keystroke_e	e	n/a
408.8025	0.1125	817605	keystroke_m	m	n/a
408.9145	0.1235	817829	keystroke_a	a	n/a
408.993	0.1125	817986	keystroke_r	r	n/a
409.061	0.0895	818122	keystroke_k	k	n/a
409.252	0.101	818504	keystroke_Key.enter	Key.enter	n/a
409.3575	6.8595	818715	prompt	n/a	chapters controllers wheels mitsubishi\n
410.264	0.0795	820528	keystroke_c	c	n/a
410.3435	0.1005	820687	keystroke_h	h	n/a
410.4665	0.136	820933	keystroke_a	a	n/a
410.6135	0.1005	821227	keystroke_p	p	n/a
410.6695	0.112	821339	keystroke_t	t	n/a
410.838	0.113	821676	keystroke_e	e	n/a
410.917	0.17	821834	keystroke_r	r	n/a
411.0405	0.09	822081	keystroke_s	s	n/a
411.1415	0.135	822283	keystroke_Key.space	Key.space	n/a
411.288	0.113	822576	keystroke_c	c	n/a
411.403	0.121	822806	keystroke_o	o	n/a
411.479	0.1125	822958	keystroke_n	n	n/a
411.581	0.09	823162	keystroke_t	t	n/a
411.7835	0.078	823567	keystroke_r	r	n/a
411.8505	0.069	823701	keystroke_o	o	n/a
412.042	0.056	824084	keystroke_l	l	n/a
412.1885	0.1115	824377	keystroke_l	l	n/a
412.2555	0.135	824511	keystroke_e	e	n/a
412.3235	0.1565	824647	keystroke_r	r	n/a
412.436	0.1115	824872	keystroke_s	s	n/a
412.5365	0.102	825073	keystroke_Key.space	Key.space	n/a
412.7735	0.1345	825547	keystroke_w	w	n/a
412.9415	0.1015	825883	keystroke_h	h	n/a
413.088	0.101	826176	keystroke_e	e	n/a
413.2905	0.0895	826581	keystroke_e	e	n/a
413.3915	0.113	826783	keystroke_l	l	n/a
413.5155	0.0905	827031	keystroke_s	s	n/a
413.606	0.123	827212	keystroke_Key.space	Key.space	n/a
413.7065	0.1575	827413	keystroke_m	m	n/a
413.8415	0.124	827683	keystroke_i	i	n/a
413.9655	0.0905	827931	keystroke_t	t	n/a
414.224	0.0115	828448	keystroke_u	u	n/a
414.6405	0.09	829281	keystroke_Key.backspace	Key.backspace	n/a
414.854	0.1125	829708	keystroke_s	s	n/a
415.0115	0.0675	830023	keystroke_u	u	n/a
415.4165	0.057	830833	keystroke_b	b	n/a
415.5065	0.1125	831013	keystroke_i	i	n/a
415.631	0.1005	831262	keystroke_s	s	n/a
415.766	0.1005	831532	keystroke_h	h	n/a
415.8555	0.09	831711	keystroke_i	i	n/a
416.148	0.0675	832296	keystroke_Key.enter	Key.enter	n/a
416.22	4.2605	832440	prompt	n/a	sellers class specially tribe\n
416.778	0.0785	833556	keystroke_s	s	n/a
416.958	0.0675	833916	keystroke_e	e	n/a
417.0595	0.067	834119	keystroke_l	l	n/a
417.228	0.112	834456	keystroke_l	l	n/a
417.2955	0.1345	834591	keystroke_e	e	n/a
417.3965	0.191	834793	keystroke_r	r	n/a
417.509	0.101	835018	keystroke_s	s	n/a
417.6215	0.135	835243	keystroke_Key.space	Key.space	n/a
417.769	0.0775	835538	keystroke_c	c	n/a
417.869	0.1125	835738	keystroke_l	l	n/a
417.9705	0.101	835941	keystroke_a	a	n/a
418.004	0.1015	836008	keystroke_s	s	n/a
418.184	0.1125	836368	keystroke_s	s	n/a
418.2855	0.101	836571	keystroke_Key.space	Key.space	n/a
418.4315	0.09	836863	keystroke_s	s	n/a
418.544	0.135	837088	keystroke_p	p	n/a
418.6565	0.0565	837313	keystroke_e	e	n/a
418.848	0.0785	837696	keystroke_c	c	n/a
418.949	0.1125	837898	keystroke_i	i	n/a
419.085	0.0775	838170	keystroke_a	a	n/a
419.174	0.0675	838348	keystroke_l	l	n/a
419.3765	0.1465	838753	keystroke_l	l	n/a
419.433	0.1355	838866	keystroke_y	y	n/a
419.502	0.122	839004	keystroke_Key.space	Key.space	n/a
419.6015	0.0785	839203	keystroke_t	t	n/a
419.782	0.09	839564	keystroke_r	r	n/a
419.905	0.115	839810	keystroke_i	i	n/a
419.9955	0.1015	839991	keystroke_b	b	n/a
420.2315	0.079	840463	keystroke_e	e	n/a
420.378	0.1015	840756	keystroke_Key.enter	Key.enter	n/a
420.4845	6.218	840969	prompt	n/a	reservations oscar murray challenge\n
421.3685	0.1345	842737	keystroke_r	r	n/a
421.469	0.124	842938	keystroke_e	e	n/a
421.6945	0.101	843389	keystroke_s	s	n/a
421.8745	0.112	843749	keystroke_e	e	n/a
421.953	0.0785	843906	keystroke_r	r	n/a
422.1555	0.1015	844311	keystroke_v	v	n/a
422.3245	0.123	844649	keystroke_a	a	n/a
422.403	0.112	844806	keystroke_t	t	n/a
422.5045	0.236	845009	keystroke_i	i	n/a
422.583	0.169	845166	keystroke_o	o	n/a
422.662	0.1345	845324	keystroke_n	n	n/a
422.774	0.113	845548	keystroke_s	s	n/a
422.898	0.135	845796	keystroke_Key.space	Key.space	n/a
423.3255	0.1235	846651	keystroke_o	o	n/a
423.4605	0.1125	846921	keystroke_s	s	n/a
423.708	0.09	847416	keystroke_c	c	n/a
423.888	0.135	847776	keystroke_a	a	n/a
423.978	0.101	847956	keystroke_r	r	n/a
424.0455	0.135	848091	keystroke_Key.space	Key.space	n/a
424.1915	0.09	848383	keystroke_m	m	n/a
424.4055	0.056	848811	keystroke_u	u	n/a
424.5295	0.101	849059	keystroke_r	r	n/a
424.8215	0.158	849643	keystroke_r	r	n/a
425.0805	0.1125	850161	keystroke_a	a	n/a
425.249	0.136	850498	keystroke_y	y	n/a
425.328	0.1125	850656	keystroke_Key.space	Key.space	n/a
425.4965	0.1015	850993	keystroke_c	c	n/a
425.587	0.0895	851174	keystroke_h	h	n/a
425.7215	0.1135	851443	keystroke_a	a	n/a
425.802	0.077	851604	keystroke_l	l	n/a
425.9805	0.079	851961	keystroke_l	l	n/a
426.0595	0.101	852119	keystroke_e	e	n/a
426.183	0.102	852366	keystroke_n	n	n/a
426.2955	0.1465	852591	keystroke_g	g	n/a
426.419	0.1015	852838	keystroke_e	e	n/a
426.5995	0.101	853199	keystroke_Key.enter	Key.enter	n/a
426.7055	5.0695	853411	prompt	n/a	unix scsi tagged bathroom\n
427.398	0.0675	854796	keystroke_u	u	n/a
427.5785	0.112	855157	keystroke_n	n	n/a
427.6795	0.0895	855359	keystroke_i	i	n/a
427.803	0.0675	855606	keystroke_x	x	n/a
427.893	0.1685	855786	keystroke_Key.space	Key.space	n/a
428.1185	0.1005	856237	keystroke_s	s	n/a
428.4785	0.1125	856957	keystroke_c	c	n/a
428.759	0.1245	857518	keystroke_s	s	n/a
428.9735	0.112	857947	keystroke_i	i	n/a
429.108	0.158	858216	keystroke_Key.space	Key.space	n/a
429.446	0.1005	858892	keystroke_t	t	n/a
429.569	0.1245	859138	keystroke_a	a	n/a
429.716	0.1005	859432	keystroke_g	g	n/a
429.9185	0.123	859837	keystroke_g	g	n/a
430.031	0.09	860062	keystroke_e	e	n/a
430.2445	0.0675	860489	keystroke_d	d	n/a
430.4015	0.135	860803	keystroke_Key.space	Key.space	n/a
430.481	0.135	860962	keystroke_b	b	n/a
430.685	0.1335	861370	keystroke_a	a	n/a
430.785	0.1235	861570	keystroke_t	t	n/a
430.8745	0.1345	861749	keystroke_h	h	n/a
431.032	0.112	862064	keystroke_r	r	n/a
431.167	0.079	862334	keystroke_o	o	n/a
431.3695	0.1345	862739	keystroke_o	o	n/a
431.471	0.1125	862942	keystroke_m	m	n/a
431.673	0.101	863346	keystroke_Key.enter	Key.enter	n/a
431.778	4.565	863556	prompt	n/a	bacterial but produces further\n
432.4715	0.1245	864943	keystroke_b	b	n/a
432.6515	0.102	865303	keystroke_a	a	n/a
432.8315	0.09	865663	keystroke_c	c	n/a
433.035	0.1115	866070	keystroke_t	t	n/a
433.203	0.1235	866406	keystroke_e	e	n/a
433.2935	0.1125	866587	keystroke_r	r	n/a
433.4395	0.1235	866879	keystroke_i	i	n/a
433.5855	0.1125	867171	keystroke_a	a	n/a
433.6865	0.124	867373	keystroke_l	l	n/a
433.766	0.135	867532	keystroke_Key.space	Key.space	n/a
433.8895	0.0895	867779	keystroke_b	b	n/a
434.024	0.0675	868048	keystroke_u	u	n/a
434.1145	0.0895	868229	keystroke_t	t	n/a
434.2155	0.09	868431	keystroke_Key.space	Key.space	n/a
434.3615	0.1125	868723	keystroke_p	p	n/a
434.4635	0.123	868927	keystroke_r	r	n/a
434.5755	0.0905	869151	keystroke_o	o	n/a
434.6655	0.124	869331	keystroke_d	d	n/a
434.8115	0.079	869623	keystroke_u	u	n/a
434.902	0.0895	869804	keystroke_c	c	n/a
435.1045	0.147	870209	keystroke_e	e	n/a
435.183	0.1235	870366	keystroke_s	s	n/a
435.273	0.124	870546	keystroke_Key.space	Key.space	n/a
435.408	0.1125	870816	keystroke_f	f	n/a
435.554	0.1015	871108	keystroke_u	u	n/a
435.633	0.102	871266	keystroke_r	r	n/a
435.813	0.1015	871626	keystroke_t	t	n/a
435.9145	0.0785	871829	keystroke_h	h	n/a
435.9705	0.191	871941	keystroke_e	e	n/a
436.118	0.1225	872236	keystroke_r	r	n/a
436.241	0.101	872482	keystroke_Key.enter	Key.enter	n/a
436.346	4.002	872692	prompt	n/a	think challenging shipped html\n
436.972	0.113	873944	keystroke_t	t	n/a
437.073	0.1125	874146	keystroke_h	h	n/a
437.1405	0.09	874281	keystroke_i	i	n/a
437.31	0.1005	874620	keystroke_n	n	n/a
437.3655	0.136	874731	keystroke_k	k	n/a
437.4555	0.1015	874911	keystroke_Key.space	Key.space	n/a
437.568	0.1015	875136	keystroke_c	c	n/a
437.658	0.0785	875316	keystroke_h	h	n/a
437.7705	0.1125	875541	keystroke_a	a	n/a
437.838	0.08	875676	keystroke_l	l	n/a
438.0065	0.079	876013	keystroke_l	l	n/a
438.0965	0.1015	876193	keystroke_e	e	n/a
438.2095	0.101	876419	keystroke_n	n	n/a
438.333	0.09	876666	keystroke_g	g	n/a
438.412	0.1125	876824	keystroke_i	i	n/a
438.4795	0.101	876959	keystroke_n	n	n/a
438.558	0.0785	877116	keystroke_g	g	n/a
438.648	0.101	877296	keystroke_Key.space	Key.space	n/a
438.7605	0.1015	877521	keystroke_s	s	n/a
438.8175	0.123	877635	keystroke_h	h	n/a
438.9205	0.11	877841	keystroke_i	i	n/a
439.0195	0.056	878039	keystroke_p	p	n/a
439.177	0.128	878354	keystroke_p	p	n/a
439.2895	0.067	878579	keystroke_e	e	n/a
439.458	0.0785	878916	keystroke_d	d	n/a
439.537	0.146	879074	keystroke_Key.space	Key.space	n/a
439.6155	0.1465	879231	keystroke_h	h	n/a
439.728	0.1125	879456	keystroke_t	t	n/a
439.8745	0.1235	879749	keystroke_m	m	n/a
439.953	0.1125	879906	keystroke_l	l	n/a
440.257	0.09	880514	keystroke_Key.enter	Key.enter	n/a
440.351	3.192	880702	prompt	n/a	maritime alike wish shed\n
440.9655	0.09	881931	keystroke_m	m	n/a
441.069	0.11	882138	keystroke_a	a	n/a
441.123	0.1015	882246	keystroke_r	r	n/a
441.2245	0.0895	882449	keystroke_i	i	n/a
441.337	0.101	882674	keystroke_t	t	n/a
441.449	0.124	882898	keystroke_i	i	n/a
441.528	0.1125	883056	keystroke_m	m	n/a
441.618	0.079	883236	keystroke_e	e	n/a
441.708	0.1125	883416	keystroke_Key.space	Key.space	n/a
441.832	0.112	883664	keystroke_a	a	n/a
441.9345	0.122	883869	keystroke_l	l	n/a
442.012	0.0905	884024	keystroke_i	i	n/a
442.203	0.09	884406	keystroke_k	k	n/a
442.282	0.09	884564	keystroke_e	e	n/a
442.383	0.102	884766	keystroke_Key.space	Key.space	n/a
442.4955	0.09	884991	keystroke_w	w	n/a
442.5965	0.079	885193	keystroke_i	i	n/a
442.698	0.101	885396	keystroke_s	s	n/a
442.777	0.101	885554	keystroke_h	h	n/a
442.833	0.09	885666	keystroke_Key.space	Key.space	n/a
442.9125	0.112	885825	keystroke_s	s	n/a
443.047	0.0785	886094	keystroke_h	h	n/a
443.1255	0.101	886251	keystroke_e	e	n/a
443.3395	0.067	886679	keystroke_d	d	n/a
443.4405	0.1015	886881	keystroke_Key.enter	Key.enter	n/a
443.546	5.577	887092	prompt	n/a	stars exchange door infection\n
444.1505	0.1115	888301	keystroke_s	s	n/a
444.273	0.1015	888546	keystroke_t	t	n/a
444.3855	0.135	888771	keystroke_a	a	n/a
444.4755	0.1465	888951	keystroke_r	r	n/a
444.5995	0.09	889199	keystroke_s	s	n/a
444.723	0.135	889446	keystroke_Key.space	Key.space	n/a
444.813	0.09	889626	keystroke_e	e	n/a
445.005	0.0895	890010	keystroke_x	x	n/a
445.173	0.1355	890346	keystroke_h	h	n/a
445.3875	0.101	890775	keystroke_a	a	n/a
445.5225	0.123	891045	keystroke_n	n	n/a
445.6575	0.079	891315	keystroke_g	g	n/a
445.8595	0.0675	891719	keystroke_Key.backspace	Key.backspace	n/a
446.0395	0.068	892079	keystroke_Key.backspace	Key.backspace	n/a
446.2305	0.0675	892461	keystroke_Key.backspace	Key.backspace	n/a
446.3995	0.0785	892799	keystroke_Key.backspace	Key.backspace	n/a
446.625	0.078	893250	keystroke_c	c	n/a
446.7255	0.079	893451	keystroke_h	h	n/a
446.8605	0.1015	893721	keystroke_a	a	n/a
446.9285	0.079	893857	keystroke_n	n	n/a
447.018	0.1015	894036	keystroke_g	g	n/a
447.0855	0.09	894171	keystroke_e	e	n/a
447.1645	0.113	894329	keystroke_Key.space	Key.space	n/a
447.2655	0.0785	894531	keystroke_d	d	n/a
447.378	0.057	894756	keystroke_o	o	n/a
447.5475	0.078	895095	keystroke_o	o	n/a
447.6145	0.1125	895229	keystroke_r	r	n/a
447.7155	0.1245	895431	keystroke_Key.space	Key.space	n/a
447.819	0.122	895638	keystroke_i	i	n/a
447.885	0.1235	895770	keystroke_n	n	n/a
447.975	0.1005	895950	keystroke_f	f	n/a
448.087	0.101	896174	keystroke_e	e	n/a
448.312	0.0675	896624	keystroke_c	c	n/a
448.492	0.0785	896984	keystroke_t	t	n/a
448.582	0.191	897164	keystroke_i	i	n/a
448.6605	0.1575	897321	keystroke_o	o	n/a
448.751	0.1235	897502	keystroke_n	n	n/a
449.021	0.101	898042	keystroke_Key.enter	Key.enter	n/a
449.127	3.428	898254	prompt	n/a	dumb tail failed greek\n
449.8085	0.101	899617	keystroke_d	d	n/a
449.944	0.078	899888	keystroke_u	u	n/a
450.1345	0.0565	900269	keystroke_m	m	n/a
450.2135	0.0785	900427	keystroke_b	b	n/a
450.3035	0.124	900607	keystroke_Key.space	Key.space	n/a
450.4385	0.147	900877	keystroke_t	t	n/a
450.574	0.123	901148	keystroke_a	a	n/a
450.6405	0.1465	901281	keystroke_i	i	n/a
450.72	0.1345	901440	keystroke_l	l	n/a
450.8095	0.146	901619	keystroke_Key.space	Key.space	n/a
450.945	0.1235	901890	keystroke_f	f	n/a
451.046	0.1125	902092	keystroke_a	a	n/a
451.136	0.1575	902272	keystroke_i	i	n/a
451.2145	0.1375	902429	keystroke_l	l	n/a
451.3045	0.09	902609	keystroke_e	e	n/a
451.496	0.0785	902992	keystroke_d	d	n/a
451.6195	0.1235	903239	keystroke_Key.space	Key.space	n/a
451.698	0.079	903396	keystroke_g	g	n/a
451.868	0.1345	903736	keystroke_r	r	n/a
451.969	0.0675	903938	keystroke_e	e	n/a
452.137	0.09	904274	keystroke_e	e	n/a
452.2385	0.09	904477	keystroke_k	k	n/a
452.4635	0.09	904927	keystroke_Key.enter	Key.enter	n/a
452.5585	4.5075	905117	prompt	n/a	david letting designer beneath\n
453.1845	0.0675	906369	keystroke_d	d	n/a
453.3635	0.101	906727	keystroke_a	a	n/a
453.4755	0.0905	906951	keystroke_v	v	n/a
453.589	0.079	907178	keystroke_i	i	n/a
453.668	0.1005	907336	keystroke_d	d	n/a
453.7795	0.124	907559	keystroke_Key.space	Key.space	n/a
453.8475	0.146	907695	keystroke_l	l	n/a
453.982	0.0785	907964	keystroke_e	e	n/a
454.118	0.089	908236	keystroke_t	t	n/a
454.297	0.09	908594	keystroke_t	t	n/a
454.3985	0.102	908797	keystroke_i	i	n/a
454.4545	0.1015	908909	keystroke_n	n	n/a
454.522	0.124	909044	keystroke_g	g	n/a
454.612	0.1575	909224	keystroke_Key.space	Key.space	n/a
454.747	0.0675	909494	keystroke_d	d	n/a
454.8935	0.124	909787	keystroke_e	e	n/a
455.051	0.135	910102	keystroke_s	s	n/a
455.197	0.09	910394	keystroke_i	i	n/a
455.299	0.102	910598	keystroke_g	g	n/a
455.4105	0.113	910821	keystroke_n	n	n/a
455.512	0.124	911024	keystroke_e	e	n/a
455.5915	0.1115	911183	keystroke_r	r	n/a
455.692	0.135	911384	keystroke_Key.space	Key.space	n/a
455.8385	0.079	911677	keystroke_b	b	n/a
456.007	0.0785	912014	keystroke_e	e	n/a
456.097	0.124	912194	keystroke_n	n	n/a
456.2095	0.1125	912419	keystroke_e	e	n/a
456.3445	0.1575	912689	keystroke_a	a	n/a
456.4685	0.1125	912937	keystroke_t	t	n/a
456.7615	0.067	913523	keystroke_h	h	n/a
456.9745	0.09	913949	keystroke_Key.enter	Key.enter	n/a
457.0695	5.4865	914139	prompt	n/a	peoples frequently industries summer\n
457.751	0.1235	915502	keystroke_p	p	n/a
457.942	0.079	915884	keystroke_e	e	n/a
458.032	0.169	916064	keystroke_o	o	n/a
458.122	0.135	916244	keystroke_p	p	n/a
458.336	0.112	916672	keystroke_l	l	n/a
458.4595	0.1915	916919	keystroke_e	e	n/a
458.5945	0.1235	917189	keystroke_s	s	n/a
458.696	0.1575	917392	keystroke_Key.space	Key.space	n/a
458.831	0.068	917662	keystroke_f	f	n/a
459.022	0.124	918044	keystroke_r	r	n/a
459.0895	0.1125	918179	keystroke_e	e	n/a
459.337	0.1015	918674	keystroke_q	q	n/a
459.484	0.0785	918968	keystroke_u	u	n/a
459.562	0.1015	919124	keystroke_e	e	n/a
459.686	0.09	919372	keystroke_n	n	n/a
459.798	0.069	919596	keystroke_t	t	n/a
459.888	0.158	919776	keystroke_l	l	n/a
459.9895	0.1125	919979	keystroke_y	y	n/a
460.057	0.1015	920114	keystroke_Key.space	Key.space	n/a
460.2145	0.1465	920429	keystroke_i	i	n/a
460.294	0.123	920588	keystroke_n	n	n/a
460.372	0.09	920744	keystroke_d	d	n/a
460.7435	0.057	921487	keystroke_u	u	n/a
460.8565	0.123	921713	keystroke_s	s	n/a
460.957	0.1015	921914	keystroke_t	t	n/a
461.1705	0.09	922341	keystroke_r	r	n/a
461.284	0.123	922568	keystroke_i	i	n/a
461.3965	0.157	922793	keystroke_e	e	n/a
461.497	0.1015	922994	keystroke_s	s	n/a
461.6095	0.1125	923219	keystroke_Key.space	Key.space	n/a
461.7105	0.1125	923421	keystroke_s	s	n/a
461.8345	0.0565	923669	keystroke_u	u	n/a
462.0145	0.0335	924029	keystroke_m	m	n/a
462.1505	0.0665	924301	keystroke_m	m	n/a
462.2285	0.157	924457	keystroke_e	e	n/a
462.3405	0.1015	924681	keystroke_r	r	n/a
462.4535	0.101	924907	keystroke_Key.enter	Key.enter	n/a
462.5605	3.618	925121	prompt	n/a	tone oaks newest leaves\n
463.1845	0.1125	926369	keystroke_t	t	n/a
463.2745	0.135	926549	keystroke_o	o	n/a
463.342	0.1235	926684	keystroke_n	n	n/a
463.477	0.0675	926954	keystroke_e	e	n/a
463.522	0.135	927044	keystroke_Key.space	Key.space	n/a
463.6345	0.1235	927269	keystroke_o	o	n/a
463.792	0.101	927584	keystroke_a	a	n/a
463.8835	0.1115	927767	keystroke_k	k	n/a
464.0055	0.079	928011	keystroke_s	s	n/a
464.1295	0.1235	928259	keystroke_Key.space	Key.space	n/a
464.4675	0.1125	928935	keystroke_n	n	n/a
464.5575	0.1905	929115	keystroke_e	e	n/a
464.658	0.135	929316	keystroke_w	w	n/a
464.8725	0.1345	929745	keystroke_e	e	n/a
465.052	0.1575	930104	keystroke_s	s	n/a
465.1755	0.1015	930351	keystroke_t	t	n/a
465.243	0.135	930486	keystroke_Key.space	Key.space	n/a
465.3445	0.1355	930689	keystroke_l	l	n/a
465.435	0.123	930870	keystroke_e	e	n/a
465.5695	0.1125	931139	keystroke_a	a	n/a
465.693	0.135	931386	keystroke_v	v	n/a
465.8395	0.1685	931679	keystroke_e	e	n/a
465.9295	0.146	931859	keystroke_s	s	n/a
466.11	0.0675	932220	keystroke_Key.enter	Key.enter	n/a
466.1815	5.2725	932363	prompt	n/a	principle particle amazing locked\n
466.852	0.1235	933704	keystroke_p	p	n/a
467.2235	0.1125	934447	keystroke_r	r	n/a
467.325	0.123	934650	keystroke_i	i	n/a
467.403	0.1015	934806	keystroke_n	n	n/a
467.5505	0.134	935101	keystroke_c	c	n/a
