onset	duration	sample	value	key	prompt_text
11.034	13.9985	22068	prompt	n/a	the quick brown fox jumps over a lazy dog\n
15.6855	0.117	31371	keystroke_t	t	n/a
15.7885	0.135	31577	keystroke_h	h	n/a
16.3735	0.135	32747	keystroke_e	e	n/a
16.5675	0.105	33135	keystroke_Key.space	Key.space	n/a
16.9575	0.136	33915	keystroke_q	q	n/a
17.0935	0.045	34187	keystroke_u	u	n/a
17.2425	0.061	34485	keystroke_i	i	n/a
17.3485	0.09	34697	keystroke_c	c	n/a
17.4535	0.075	34907	keystroke_k	k	n/a
17.5875	0.12	35175	keystroke_Key.space	Key.space	n/a
18.3835	0.06	36767	keystroke_b	b	n/a
18.5625	0.091	37125	keystroke_r	r	n/a
18.6685	0.075	37337	keystroke_o	o	n/a
18.7585	0.15	37517	keystroke_w	w	n/a
18.8935	0.075	37787	keystroke_n	n	n/a
18.9835	0.119	37967	keystroke_Key.space	Key.space	n/a
19.7325	0.06	39465	keystroke_f	f	n/a
19.8075	0.105	39615	keystroke_o	o	n/a
20.0625	0.09	40125	keystroke_x	x	n/a
20.1975	0.105	40395	keystroke_Key.space	Key.space	n/a
20.4385	0.059	40877	keystroke_j	j	n/a
20.6035	0.045	41207	keystroke_u	u	n/a
20.7525	0.0755	41505	keystroke_m	m	n/a
20.888	0.075	41776	keystroke_p	p	n/a
21.098	0.0895	42196	keystroke_Key.space	Key.space	n/a
22.328	0.09	44656	keystroke_Key.backspace	Key.backspace	n/a
22.434	0.104	44868	keystroke_s	s	n/a
22.524	0.119	45048	keystroke_Key.space	Key.space	n/a
22.838	0.105	45676	keystroke_o	o	n/a
22.928	0.06	45856	keystroke_v	v	n/a
23.033	0.1205	46066	keystroke_e	e	n/a
23.108	0.0905	46216	keystroke_r	r	n/a
23.1835	0.12	46367	keystroke_Key.space	Key.space	n/a
23.438	0.1355	46876	keystroke_a	a	n/a
23.5435	0.105	47087	keystroke_Key.space	Key.space	n/a
23.6635	0.0895	47327	keystroke_l	l	n/a
23.888	0.075	47776	keystroke_a	a	n/a
24.083	0.135	48166	keystroke_z	z	n/a
24.188	0.075	48376	keystroke_y	y	n/a
24.338	0.0905	48676	keystroke_Key.space	Key.space	n/a
24.5335	0.075	49067	keystroke_d	d	n/a
24.6225	0.091	49245	keystroke_o	o	n/a
24.7585	0.075	49517	keystroke_g	g	n/a
24.9535	0.075	49907	keystroke_Key.enter	Key.enter	n/a
25.043	5.72	50086	prompt	n/a	sticker interim switched kills\n
25.9435	0.119	51887	keystroke_s	s	n/a
26.2285	0.045	52457	keystroke_t	t	n/a
26.3025	0.061	52605	keystroke_i	i	n/a
26.4525	0.075	52905	keystroke_c	c	n/a
26.5435	0.075	53087	keystroke_k	k	n/a
26.663	0.1205	53326	keystroke_e	e	n/a
26.7385	0.105	53477	keystroke_r	r	n/a
26.8575	0.0755	53715	keystroke_Key.space	Key.space	n/a
27.0535	0.105	54107	keystroke_i	i	n/a
27.1285	0.075	54257	keystroke_n	n	n/a
27.2185	0.06	54437	keystroke_t	t	n/a
27.2935	0.135	54587	keystroke_e	e	n/a
27.3985	0.09	54797	keystroke_r	r	n/a
27.8185	0.09	55637	keystroke_i	i	n/a
27.9385	0.09	55877	keystroke_m	m	n/a
28.0875	0.106	56175	keystroke_Key.space	Key.space	n/a
28.4485	0.105	56897	keystroke_s	s	n/a
28.7035	0.1195	57407	keystroke_w	w	n/a
28.8385	0.075	57677	keystroke_i	i	n/a
28.9285	0.09	57857	keystroke_t	t	n/a
29.1985	0.09	58397	keystroke_c	c	n/a
29.2735	0.075	58547	keystroke_h	h	n/a
29.3935	0.075	58787	keystroke_e	e	n/a
29.5735	0.1045	59147	keystroke_d	d	n/a
29.6635	0.1045	59327	keystroke_Key.space	Key.space	n/a
29.874	0.074	59748	keystroke_k	k	n/a
30.053	0.06	60106	keystroke_i	i	n/a
30.248	0.075	60496	keystroke_l	l	n/a
30.398	0.09	60796	keystroke_l	l	n/a
30.473	0.12	60946	keystroke_s	s	n/a
30.653	0.105	61306	keystroke_Key.enter	Key.enter	n/a
30.77	8.3155	61540	prompt	n/a	scenes wait entertaining within\n
31.403	0.06	62806	keystroke_s	s	n/a
31.703	0.075	63406	keystroke_c	c	n/a
31.898	0.06	63796	keystroke_e	e	n/a
32.003	0.09	64006	keystroke_n	n	n/a
32.108	0.045	64216	keystroke_e	e	n/a
32.333	0.09	64666	keystroke_s	s	n/a
32.543	0.09	65086	keystroke_Key.space	Key.space	n/a
33.143	0.06	66286	keystroke_w	w	n/a
33.338	0.135	66676	keystroke_a	a	n/a
33.443	0.075	66886	keystroke_t	t	n/a
33.563	0.105	67126	keystroke_i	i	n/a
34.733	0.06	69466	keystroke_Key.backspace	Key.backspace	n/a
34.868	0.105	69736	keystroke_Key.backspace	Key.backspace	n/a
35.123	0.09	70246	keystroke_i	i	n/a
35.213	0.06	70426	keystroke_t	t	n/a
35.318	0.06	70636	keystroke_Key.space	Key.space	n/a
36.113	0.105	72226	keystroke_e	e	n/a
36.278	0.09	72556	keystroke_n	n	n/a
36.398	0.105	72796	keystroke_t	t	n/a
36.593	0.195	73186	keystroke_e	e	n/a
36.728	0.105	73456	keystroke_r	r	n/a
37.028	0.09	74056	keystroke_t	t	n/a
37.119	0.149	74238	keystroke_a	a	n/a
37.223	0.09	74446	keystroke_i	i	n/a
37.314	0.074	74628	keystroke_n	n	n/a
37.448	0.12	74896	keystroke_i	i	n/a
37.538	0.09	75076	keystroke_n	n	n/a
37.613	0.09	75226	keystroke_g	g	n/a
37.688	0.075	75376	keystroke_Key.space	Key.space	n/a
37.973	0.12	75946	keystroke_w	w	n/a
38.093	0.075	76186	keystroke_i	i	n/a
38.198	0.09	76396	keystroke_t	t	n/a
38.289	0.044	76578	keystroke_h	h	n/a
38.378	0.135	76756	keystroke_i	i	n/a
38.483	0.09	76966	keystroke_n	n	n/a
38.978	0.105	77956	keystroke_Key.enter	Key.enter	n/a
39.09	4.7655	78180	prompt	n/a	viewers ears donald robert\n
39.698	0.075	79396	keystroke_v	v	n/a
40.253	0.075	80506	keystroke_i	i	n/a
40.298	0.09	80596	keystroke_e	e	n/a
40.538	0.105	81076	keystroke_w	w	n/a
40.733	0.12	81466	keystroke_e	e	n/a
40.823	0.12	81646	keystroke_r	r	n/a
41.078	0.12	82156	keystroke_s	s	n/a
41.213	0.075	82426	keystroke_Key.space	Key.space	n/a
41.393	0.195	82786	keystroke_e	e	n/a
41.513	0.135	83026	keystroke_a	a	n/a
41.603	0.105	83206	keystroke_r	r	n/a
41.768	0.105	83536	keystroke_s	s	n/a
41.858	0.12	83716	keystroke_Key.space	Key.space	n/a
42.488	0.105	84976	keystroke_d	d	n/a
42.608	0.06	85216	keystroke_o	o	n/a
42.803	0.06	85606	keystroke_n	n	n/a
42.878	0.12	85756	keystroke_a	a	n/a
42.983	0.09	85966	keystroke_l	l	n/a
43.463	0.09	86926	keystroke_d	d	n/a
43.763	0.09	87526	keystroke_Key.enter	Key.enter	n/a
43.8605	14.4865	87721	prompt	n/a	automobiles carefully opera often\n
44.948	0.15	89896	keystroke_a	a	n/a
45.398	0.06	90796	keystroke_u	u	n/a
45.519	0.074	91038	keystroke_t	t	n/a
45.623	0.105	91246	keystroke_o	o	n/a
45.983	0.06	91966	keystroke_m	m	n/a
46.088	0.09	92176	keystroke_o	o	n/a
46.298	0.06	92596	keystroke_b	b	n/a
46.313	0.03	92626	keystroke_n	n	n/a
46.418	0.075	92836	keystroke_i	i	n/a
46.599	0.0895	93198	keystroke_l	l	n/a
46.658	0.0755	93316	keystroke_e	e	n/a
46.8085	0.135	93617	keystroke_s	s	n/a
46.9135	0.089	93827	keystroke_Key.space	Key.space	n/a
47.2135	0.149	94427	keystroke_c	c	n/a
48.7425	0.106	97485	keystroke_Key.backspace	Key.backspace	n/a
48.9235	0.089	97847	keystroke_Key.backspace	Key.backspace	n/a
49.1035	0.09	98207	keystroke_Key.backspace	Key.backspace	n/a
49.2835	0.105	98567	keystroke_Key.backspace	Key.backspace	n/a
49.4775	0.09	98955	keystroke_Key.backspace	Key.backspace	n/a
49.6735	0.105	99347	keystroke_Key.backspace	Key.backspace	n/a
49.8685	0.119	99737	keystroke_Key.backspace	Key.backspace	n/a
51.0085	0.059	102017	keystroke_i	i	n/a
51.1735	0.089	102347	keystroke_l	l	n/a
51.2475	0.076	102495	keystroke_e	e	n/a
51.4285	0.12	102857	keystroke_s	s	n/a
51.5635	0.105	103127	keystroke_Key.space	Key.space	n/a
52.0435	0.135	104087	keystroke_c	c	n/a
52.2085	0.18	104417	keystroke_a	a	n/a
52.3735	0.15	104747	keystroke_r	r	n/a
52.4785	0.12	104957	keystroke_e	e	n/a
52.7035	0.105	105407	keystroke_f	f	n/a
52.8235	0.06	105647	keystroke_u	u	n/a
53.0035	0.06	106007	keystroke_l	l	n/a
53.1375	0.076	106275	keystroke_l	l	n/a
53.3185	0.045	106637	keystroke_y	y	n/a
53.4085	0.105	106817	keystroke_Key.space	Key.space	n/a
53.5735	0.09	107147	keystroke_o	o	n/a
53.7835	0.105	107567	keystroke_p	p	n/a
53.9335	0.135	107867	keystroke_e	e	n/a
54.1885	0.135	108377	keystroke_r	r	n/a
54.2035	0.09	108407	keystroke_e	e	n/a
54.2935	0.15	108587	keystroke_a	a	n/a
54.4885	0.105	108977	keystroke_Key.space	Key.space	n/a
54.7435	0.12	109487	keystroke_o	o	n/a
55.5985	0.09	111197	keystroke_Key.backspace	Key.backspace	n/a
55.8985	0.075	111797	keystroke_Key.backspace	Key.backspace	n/a
56.0935	0.09	112187	keystroke_Key.backspace	Key.backspace	n/a
56.3035	0.09	112607	keystroke_Key.backspace	Key.backspace	n/a
56.4535	0.135	112907	keystroke_a	a	n/a
56.6335	0.09	113267	keystroke_Key.space	Key.space	n/a
57.0985	0.09	114197	keystroke_o	o	n/a
57.2635	0.075	114527	keystroke_f	f	n/a
57.5035	0.075	115007	keystroke_t	t	n/a
57.6385	0.135	115277	keystroke_e	e	n/a
57.8035	0.09	115607	keystroke_n	n	n/a
58.2385	0.105	116477	keystroke_Key.enter	Key.enter	n/a
58.3535	9.473	116707	prompt	n/a	joyce card accommodate vessels\n
59.0185	0.045	118037	keystroke_u	u	n/a
59.9935	0.075	119987	keystroke_Key.backspace	Key.backspace	n/a
60.2635	0.06	120527	keystroke_j	j	n/a
60.3535	0.12	120707	keystroke_o	o	n/a
60.5335	0.075	121067	keystroke_y	y	n/a
60.8335	0.075	121667	keystroke_c	c	n/a
60.9985	0.09	121997	keystroke_e	e	n/a
61.1185	0.09	122237	keystroke_Key.space	Key.space	n/a
61.9135	0.12	123827	keystroke_c	c	n/a
62.0485	0.225	124097	keystroke_a	a	n/a
62.3485	0.105	124697	keystroke_r	r	n/a
62.6185	0.09	125237	keystroke_d	d	n/a
62.7685	0.105	125537	keystroke_Key.space	Key.space	n/a
63.3835	0.105	126767	keystroke_a	a	n/a
63.6385	0.075	127277	keystroke_c	c	n/a
63.7735	0.09	127547	keystroke_c	c	n/a
63.8785	0.09	127757	keystroke_o	o	n/a
64.0135	0.09	128027	keystroke_m	m	n/a
64.4035	0.09	128807	keystroke_m	m	n/a
64.6135	0.09	129227	keystroke_o	o	n/a
65.2735	0.105	130547	keystroke_d	d	n/a
65.3635	0.195	130727	keystroke_a	a	n/a
65.5135	0.105	131027	keystroke_t	t	n/a
65.5735	0.12	131147	keystroke_e	e	n/a
65.8435	0.12	131687	keystroke_Key.space	Key.space	n/a
66.3835	0.075	132767	keystroke_v	v	n/a
66.5635	0.075	133127	keystroke_e	e	n/a
66.7735	0.06	133547	keystroke_s	s	n/a
66.8935	0.12	133787	keystroke_s	s	n/a
67.0145	0.089	134029	keystroke_e	e	n/a
67.1635	0.12	134327	keystroke_l	l	n/a
67.2535	0.105	134507	keystroke_s	s	n/a
67.7185	0.105	135437	keystroke_Key.enter	Key.enter	n/a
67.835	8.6175	135670	prompt	n/a	rows stated pamela knows\n
68.5435	0.09	137087	keystroke_r	r	n/a
68.6635	0.12	137327	keystroke_o	o	n/a
68.7685	0.09	137537	keystroke_w	w	n/a
68.9785	0.105	137957	keystroke_s	s	n/a
69.1285	0.09	138257	keystroke_Key.space	Key.space	n/a
69.6835	0.12	139367	keystroke_s	s	n/a
69.8635	0.12	139727	keystroke_t	t	n/a
69.9685	0.135	139937	keystroke_a	a	n/a
70.0885	0.135	140177	keystroke_t	t	n/a
70.1785	0.09	140357	keystroke_e	e	n/a
70.3735	0.12	140747	keystroke_d	d	n/a
70.4485	0.09	140897	keystroke_Key.space	Key.space	n/a
70.9885	0.12	141977	keystroke_p	p	n/a
71.0935	0.15	142187	keystroke_a	a	n/a
71.6335	0.105	143267	keystroke_m	m	n/a
71.7235	0.09	143447	keystroke_e	e	n/a
71.8735	0.12	143747	keystroke_l	l	n/a
71.9785	0.135	143957	keystroke_a	a	n/a
72.1435	0.09	144287	keystroke_Key.space	Key.space	n/a
72.4135	0.09	144827	keystroke_k	k	n/a
72.5935	0.075	145187	keystroke_n	n	n/a
72.6985	0.18	145397	keystroke_o	o	n/a
73.3735	0.105	146747	keystroke_w	w	n/a
73.7935	0.105	147587	keystroke_s	s	n/a
74.0035	0.09	148007	keystroke_Key.space	Key.space	n/a
75.1135	0.09	150227	keystroke_Key.backspace	Key.backspace	n/a
76.3435	0.105	152687	keystroke_Key.enter	Key.enter	n/a
76.4635	10.2025	152927	prompt	n/a	select invasion reaching equally\n
77.2135	0.105	154427	keystroke_s	s	n/a
77.3935	0.06	154787	keystroke_e	e	n/a
78.0985	0.105	156197	keystroke_l	l	n/a
78.1885	0.06	156377	keystroke_e	e	n/a
78.3835	0.105	156767	keystroke_c	c	n/a
78.5335	0.09	157067	keystroke_t	t	n/a
78.6385	0.105	157277	keystroke_Key.space	Key.space	n/a
79.2085	0.075	158417	keystroke_i	i	n/a
79.3135	0.09	158627	keystroke_n	n	n/a
79.8985	0.105	159797	keystroke_v	v	n/a
80.0185	0.15	160037	keystroke_a	a	n/a
80.4695	0.149	160939	keystroke_s	s	n/a
80.5735	0.09	161147	keystroke_i	i	n/a
80.7085	0.12	161417	keystroke_o	o	n/a
80.7835	0.105	161567	keystroke_n	n	n/a
80.9335	0.105	161867	keystroke_Key.space	Key.space	n/a
81.6985	0.135	163397	keystroke_r	r	n/a
81.7735	0.105	163547	keystroke_e	e	n/a
81.9985	0.105	163997	keystroke_a	a	n/a
82.5385	0.105	165077	keystroke_c	c	n/a
82.5985	0.06	165197	keystroke_h	h	n/a
82.7035	0.12	165407	keystroke_i	i	n/a
82.7935	0.09	165587	keystroke_n	n	n/a
82.8685	0.075	165737	keystroke_g	g	n/a
82.9285	0.09	165857	keystroke_Key.space	Key.space	n/a
83.6785	0.045	167357	keystroke_e	e	n/a
83.8735	0.12	167747	keystroke_a	a	n/a
84.5785	0.09	169157	keystroke_Key.backspace	Key.backspace	n/a
84.6835	0.12	169367	keystroke_q	q	n/a
84.7885	0.09	169577	keystroke_u	u	n/a
84.9535	0.135	169907	keystroke_a	a	n/a
85.6585	0.09	171317	keystroke_l	l	n/a
85.8385	0.09	171677	keystroke_l	l	n/a
86.0485	0.06	172097	keystroke_y	y	n/a
86.5585	0.105	173117	keystroke_Key.enter	Key.enter	n/a
86.672	13.044	173344	prompt	n/a	locale bedford brooklyn entries\n
87.3685	0.09	174737	keystroke_l	l	n/a
87.5785	0.06	175157	keystroke_o	o	n/a
87.6395	0.134	175279	keystroke_c	c	n/a
87.7435	0.12	175487	keystroke_a	a	n/a
87.8785	0.075	175757	keystroke_l	l	n/a
87.9685	0.09	175937	keystroke_e	e	n/a
88.1485	0.09	176297	keystroke_Key.space	Key.space	n/a
89.1385	0.06	178277	keystroke_b	b	n/a
89.2435	0.076	178487	keystroke_e	e	n/a
89.4695	0.059	178939	keystroke_d	d	n/a
90.1735	0.075	180347	keystroke_f	f	n/a
90.2785	0.105	180557	keystroke_o	o	n/a
90.5035	0.06	181007	keystroke_r	r	n/a
90.6835	0.075	181367	keystroke_d	d	n/a
90.8185	0.105	181637	keystroke_Key.space	Key.space	n/a
92.1835	0.075	184367	keystroke_b	b	n/a
92.5285	0.075	185057	keystroke_r	r	n/a
92.9785	0.06	185957	keystroke_o	o	n/a
93.1135	0.075	186227	keystroke_o	o	n/a
93.3085	0.06	186617	keystroke_k	k	n/a
93.5485	0.075	187097	keystroke_l	l	n/a
93.7285	0.03	187457	keystroke_u	u	n/a
93.9235	0.075	187847	keystroke_n	n	n/a
94.1335	0.105	188267	keystroke_Key.space	Key.space	n/a
94.5835	0.09	189167	keystroke_Key.backspace	Key.backspace	n/a
94.7935	0.09	189587	keystroke_Key.backspace	Key.backspace	n/a
95.0935	0.09	190187	keystroke_Key.backspace	Key.backspace	n/a
95.679	0.044	191358	keystroke_y	y	n/a
95.903	0.06	191806	keystroke_n	n	n/a
96.233	0.09	192466	keystroke_Key.space	Key.space	n/a
96.7285	0.105	193457	keystroke_e	e	n/a
96.8785	0.0895	193757	keystroke_n	n	n/a
96.9835	0.0895	193967	keystroke_t	t	n/a
97.1335	0.0745	194267	keystroke_i	i	n/a
98.498	0.12	196996	keystroke_Key.backspace	Key.backspace	n/a
98.723	0.075	197446	keystroke_r	r	n/a
98.828	0.091	197656	keystroke_i	i	n/a
98.888	0.0905	197776	keystroke_e	e	n/a
99.098	0.105	198196	keystroke_s	s	n/a
99.608	0.105	199216	keystroke_Key.enter	Key.enter	n/a
99.721	7.1045	199442	prompt	n/a	extra numbers moderate scanners\n
100.328	0.075	200656	keystroke_e	e	n/a
100.584	0.104	201168	keystroke_x	x	n/a
100.763	0.09	201526	keystroke_t	t	n/a
100.958	0.12	201916	keystroke_r	r	n/a
101.183	0.136	202366	keystroke_a	a	n/a
101.348	0.09	202696	keystroke_Key.space	Key.space	n/a
101.633	0.06	203266	keystroke_n	n	n/a
101.814	0.044	203628	keystroke_u	u	n/a
101.964	0.074	203928	keystroke_m	m	n/a
102.143	0.06	204286	keystroke_b	b	n/a
102.218	0.091	204436	keystroke_e	e	n/a
102.278	0.091	204556	keystroke_r	r	n/a
102.518	0.09	205036	keystroke_s	s	n/a
102.728	0.075	205456	keystroke_Key.space	Key.space	n/a
103.463	0.075	206926	keystroke_m	m	n/a
103.613	0.105	207226	keystroke_o	o	n/a
103.748	0.06	207496	keystroke_d	d	n/a
103.913	0.136	207826	keystroke_e	e	n/a
104.003	0.06	208006	keystroke_r	r	n/a
104.483	0.151	208966	keystroke_a	a	n/a
104.619	0.089	209238	keystroke_t	t	n/a
104.679	0.104	209358	keystroke_e	e	n/a
104.933	0.105	209866	keystroke_Key.space	Key.space	n/a
105.444	0.089	210888	keystroke_s	s	n/a
105.654	0.089	211308	keystroke_c	c	n/a
105.864	0.105	211728	keystroke_a	a	n/a
106.104	0.059	212208	keystroke_n	n	n/a
106.239	0.074	212478	keystroke_n	n	n/a
106.344	0.119	212688	keystroke_e	e	n/a
106.418	0.076	212836	keystroke_r	r	n/a
106.613	0.075	213226	keystroke_s	s	n/a
106.733	0.09	213466	keystroke_Key.enter	Key.enter	n/a
106.8305	7.66	213661	prompt	n/a	routing cambodia distributor cooper\n
107.663	0.09	215326	keystroke_r	r	n/a
107.724	0.105	215448	keystroke_o	o	n/a
107.813	0.076	215626	keystroke_u	u	n/a
107.918	0.105	215836	keystroke_t	t	n/a
108.038	0.105	216076	keystroke_i	i	n/a
108.099	0.089	216198	keystroke_n	n	n/a
108.203	0.045	216406	keystroke_g	g	n/a
108.263	0.075	216526	keystroke_Key.space	Key.space	n/a
108.653	0.136	217306	keystroke_c	c	n/a
108.804	0.135	217608	keystroke_a	a	n/a
109.058	0.09	218116	keystroke_m	m	n/a
109.419	0.075	218838	keystroke_b	b	n/a
109.584	0.09	219168	keystroke_o	o	n/a
109.719	0.075	219438	keystroke_d	d	n/a
109.809	0.089	219618	keystroke_i	i	n/a
109.944	0.134	219888	keystroke_a	a	n/a
110.108	0.105	220216	keystroke_Key.space	Key.space	n/a
111.249	0.104	222498	keystroke_d	d	n/a
111.413	0.091	222826	keystroke_i	i	n/a
111.563	0.09	223126	keystroke_s	s	n/a
111.729	0.075	223458	keystroke_t	t	n/a
111.923	0.091	223846	keystroke_r	r	n/a
111.998	0.075	223996	keystroke_i	i	n/a
112.149	0.06	224298	keystroke_b	b	n/a
112.344	0.059	224688	keystroke_u	u	n/a
112.478	0.091	224956	keystroke_t	t	n/a
112.583	0.091	225166	keystroke_o	o	n/a
112.688	0.091	225376	keystroke_r	r	n/a
112.838	0.105	225676	keystroke_Key.space	Key.space	n/a
113.198	0.091	226396	keystroke_c	c	n/a
113.349	0.074	226698	keystroke_o	o	n/a
113.514	0.074	227028	keystroke_o	o	n/a
113.694	0.09	227388	keystroke_p	p	n/a
113.784	0.164	227568	keystroke_e	e	n/a
114.159	0.074	228318	keystroke_r	r	n/a
114.398	0.09	228796	keystroke_Key.enter	Key.enter	n/a
114.496	5.7395	228992	prompt	n/a	goto concerning quizzes bomb\n
115.194	0.059	230388	keystroke_g	g	n/a
115.298	0.09	230596	keystroke_o	o	n/a
115.433	0.076	230866	keystroke_t	t	n/a
115.569	0.089	231138	keystroke_o	o	n/a
115.688	0.091	231376	keystroke_Key.space	Key.space	n/a
116.019	0.089	232038	keystroke_c	c	n/a
116.123	0.076	232246	keystroke_o	o	n/a
116.244	0.089	232488	keystroke_n	n	n/a
116.363	0.076	232726	keystroke_c	c	n/a
116.573	0.18	233146	keystroke_e	e	n/a
116.709	0.089	233418	keystroke_r	r	n/a
116.919	0.06	233838	keystroke_n	n	n/a
117.009	0.12	234018	keystroke_i	i	n/a
117.099	0.09	234198	keystroke_n	n	n/a
117.174	0.12	234348	keystroke_g	g	n/a
117.279	0.059	234558	keystroke_Key.space	Key.space	n/a
117.623	0.106	235246	keystroke_q	q	n/a
117.729	0.06	235458	keystroke_u	u	n/a
117.894	0.075	235788	keystroke_i	i	n/a
118.059	0.09	236118	keystroke_z	z	n/a
118.208	0.121	236416	keystroke_z	z	n/a
118.388	0.076	236776	keystroke_e	e	n/a
118.569	0.09	237138	keystroke_s	s	n/a
118.703	0.09	237406	keystroke_Key.space	Key.space	n/a
118.9735	0.06	237947	keystroke_b	b	n/a
119.1235	0.105	238247	keystroke_o	o	n/a
119.3185	0.075	238637	keystroke_m	m	n/a
119.5735	0.075	239147	keystroke_b	b	n/a
120.1285	0.105	240257	keystroke_Key.enter	Key.enter	n/a
120.241	9.264	240482	prompt	n/a	namibia vocabulary devices work\n
121.838	0.075	243676	keystroke_n	n	n/a
121.943	0.12	243886	keystroke_a	a	n/a
122.063	0.06	244126	keystroke_m	m	n/a
122.198	0.09	244396	keystroke_i	i	n/a
123.773	0.06	247546	keystroke_b	b	n/a
123.893	0.105	247786	keystroke_i	i	n/a
124.013	0.12	248026	keystroke_a	a	n/a
124.148	0.09	248296	keystroke_Key.space	Key.space	n/a
124.388	0.09	248776	keystroke_v	v	n/a
124.463	0.105	248926	keystroke_o	o	n/a
124.628	0.105	249256	keystroke_c	c	n/a
124.763	0.135	249526	keystroke_a	a	n/a
125.003	0.06	250006	keystroke_b	b	n/a
125.198	0.06	250396	keystroke_u	u	n/a
125.378	0.09	250756	keystroke_l	l	n/a
125.483	0.135	250966	keystroke_a	a	n/a
125.603	0.105	251206	keystroke_r	r	n/a
125.723	0.06	251446	keystroke_y	y	n/a
125.873	0.09	251746	keystroke_Key.space	Key.space	n/a
126.578	0.06	253156	keystroke_d	d	n/a
126.743	0.045	253486	keystroke_e	e	n/a
126.923	0.105	253846	keystroke_v	v	n/a
127.088	0.105	254176	keystroke_i	i	n/a
127.208	0.075	254416	keystroke_c	c	n/a
127.403	0.06	254806	keystroke_e	e	n/a
127.613	0.105	255226	keystroke_s	s	n/a
127.823	0.09	255646	keystroke_Key.space	Key.space	n/a
128.843	0.075	257686	keystroke_w	w	n/a
128.948	0.09	257896	keystroke_o	o	n/a
129.053	0.09	258106	keystroke_r	r	n/a
129.173	0.075	258346	keystroke_k	k	n/a
129.413	0.09	258826	keystroke_Key.enter	Key.enter	n/a
129.5105	6.7745	259021	prompt	n/a	implications gallery rings ensuring\n
130.163	0.06	260326	keystroke_i	i	n/a
130.328	0.075	260656	keystroke_m	m	n/a
130.508	0.06	261016	keystroke_p	p	n/a
130.703	0.075	261406	keystroke_l	l	n/a
130.853	0.09	261706	keystroke_i	i	n/a
130.958	0.15	261916	keystroke_c	c	n/a
131.094	0.134	262188	keystroke_a	a	n/a
131.168	0.12	262336	keystroke_t	t	n/a
131.289	0.074	262578	keystroke_i	i	n/a
131.333	0.165	262666	keystroke_o	o	n/a
131.469	0.104	262938	keystroke_n	n	n/a
131.543	0.12	263086	keystroke_s	s	n/a
131.633	0.105	263266	keystroke_Key.space	Key.space	n/a
132.773	0.075	265546	keystroke_g	g	n/a
133.133	0.135	266266	keystroke_a	a	n/a
133.448	0.075	266896	keystroke_l	l	n/a
133.598	0.105	267196	keystroke_l	l	n/a
133.673	0.165	267346	keystroke_e	e	n/a
133.808	0.09	267616	keystroke_r	r	n/a
133.928	0.06	267856	keystroke_y	y	n/a
134.048	0.09	268096	keystroke_Key.space	Key.space	n/a
134.289	0.075	268578	keystroke_r	r	n/a
134.364	0.089	268728	keystroke_i	i	n/a
134.409	0.119	268818	keystroke_n	n	n/a
134.513	0.06	269026	keystroke_g	g	n/a
134.603	0.136	269206	keystroke_s	s	n/a
134.753	0.105	269506	keystroke_Key.space	Key.space	n/a
135.068	0.091	270136	keystroke_e	e	n/a
135.248	0.075	270496	keystroke_n	n	n/a
135.383	0.12	270766	keystroke_s	s	n/a
135.519	0.0585	271038	keystroke_u	u	n/a
135.653	0.1055	271306	keystroke_r	r	n/a
135.7725	0.1055	271545	keystroke_i	i	n/a
135.803	0.1195	271606	keystroke_n	n	n/a
135.9075	0.09	271815	keystroke_g	g	n/a
136.1925	0.0905	272385	keystroke_Key.enter	Key.enter	n/a
136.29	14.395	272580	prompt	n/a	traveller disturbed indonesia algebra\n
137.004	0.1185	274008	keystroke_t	t	n/a
137.2275	0.106	274455	keystroke_r	r	n/a
137.3175	0.105	274635	keystroke_a	a	n/a
137.5575	0.091	275115	keystroke_v	v	n/a
137.6635	0.089	275327	keystroke_e	e	n/a
137.8575	0.075	275715	keystroke_l	l	n/a
138.0225	0.075	276045	keystroke_l	l	n/a
138.0675	0.18	276135	keystroke_e	e	n/a
138.1725	0.091	276345	keystroke_r	r	n/a
138.3075	0.1055	276615	keystroke_Key.space	Key.space	n/a
141.9715	0.056	283943	keystroke_d	d	n/a
142.1925	0.09	284385	keystroke_i	i	n/a
142.3735	0.104	284747	keystroke_s	s	n/a
142.5385	0.089	285077	keystroke_t	t	n/a
142.7035	0.059	285407	keystroke_u	u	n/a
143.4225	0.016	286845	keystroke_r	r	n/a
143.5435	0.059	287087	keystroke_b	b	n/a
143.6635	0.06	287327	keystroke_e	e	n/a
143.8435	0.075	287687	keystroke_d	d	n/a
143.9325	0.105	287865	keystroke_Key.space	Key.space	n/a
144.3235	0.075	288647	keystroke_i	i	n/a
144.4285	0.089	288857	keystroke_n	n	n/a
144.6075	0.091	289215	keystroke_c	c	n/a
146.1675	0.075	292335	keystroke_Key.backspace	Key.backspace	n/a
147.1575	0.106	294315	keystroke_d	d	n/a
147.2475	0.076	294495	keystroke_o	o	n/a
147.4285	0.089	294857	keystroke_n	n	n/a
147.5025	0.061	295005	keystroke_e	e	n/a
147.6985	0.09	295397	keystroke_s	s	n/a
147.8025	0.075	295605	keystroke_i	i	n/a
147.9075	0.12	295815	keystroke_a	a	n/a
148.0425	0.105	296085	keystroke_Key.space	Key.space	n/a
148.2985	0.134	296597	keystroke_a	a	n/a
148.4175	0.105	296835	keystroke_l	l	n/a
148.6575	0.076	297315	keystroke_g	g	n/a
148.8225	0.105	297645	keystroke_e	e	n/a
150.1585	0.074	300317	keystroke_b	b	n/a
150.2485	0.09	300497	keystroke_r	r	n/a
150.3235	0.12	300647	keystroke_a	a	n/a
150.5775	0.105	301155	keystroke_Key.enter	Key.enter	n/a
150.6895	6.3105	301379	prompt	n/a	launches detailed principle river\n
151.3725	0.105	302745	keystroke_l	l	n/a
151.5075	0.136	303015	keystroke_a	a	n/a
151.6725	0.061	303345	keystroke_u	u	n/a
151.8975	0.075	303795	keystroke_n	n	n/a
152.0775	0.09	304155	keystroke_c	c	n/a
152.1535	0.059	304307	keystroke_h	h	n/a
152.4535	0.06	304907	keystroke_e	e	n/a
152.6185	0.105	305237	keystroke_s	s	n/a
152.7525	0.091	305505	keystroke_Key.space	Key.space	n/a
153.4125	0.076	306825	keystroke_d	d	n/a
153.5625	0.076	307125	keystroke_e	e	n/a
153.6985	0.12	307397	keystroke_t	t	n/a
153.8035	0.165	307607	keystroke_a	a	n/a
153.9235	0.059	307847	keystroke_i	i	n/a
154.0575	0.106	308115	keystroke_l	l	n/a
154.1035	0.075	308207	keystroke_e	e	n/a
154.2835	0.119	308567	keystroke_d	d	n/a
154.3875	0.091	308775	keystroke_Key.space	Key.space	n/a
154.5685	0.075	309137	keystroke_p	p	n/a
154.8685	0.089	309737	keystroke_r	r	n/a
154.9435	0.105	309887	keystroke_i	i	n/a
155.0025	0.091	310005	keystroke_n	n	n/a
155.2735	0.09	310547	keystroke_c	c	n/a
155.4085	0.06	310817	keystroke_i	i	n/a
155.6485	0.06	311297	keystroke_p	p	n/a
155.8275	0.091	311655	keystroke_l	l	n/a
155.9025	0.091	311805	keystroke_e	e	n/a
156.0075	0.09	312015	keystroke_Key.space	Key.space	n/a
156.2185	0.075	312437	keystroke_r	r	n/a
156.2785	0.09	312557	keystroke_i	i	n/a
156.3985	0.105	312797	keystroke_v	v	n/a
156.4885	0.15	312977	keystroke_e	e	n/a
156.5935	0.104	313187	keystroke_r	r	n/a
156.8935	0.104	313787	keystroke_Key.enter	Key.enter	n/a
157.0045	6.2505	314009	prompt	n/a	rush glenn mistakes noble\n
157.8685	0.105	315737	keystroke_r	r	n/a
157.9735	0.06	315947	keystroke_u	u	n/a
158.0935	0.12	316187	keystroke_s	s	n/a
158.1985	0.074	316397	keystroke_h	h	n/a
158.3325	0.075	316665	keystroke_Key.space	Key.space	n/a
158.6185	0.075	317237	keystroke_g	g	n/a
159.2035	0.12	318407	keystroke_l	l	n/a
159.3235	0.074	318647	keystroke_e	e	n/a
159.5185	0.06	319037	keystroke_n	n	n/a
159.6385	0.09	319277	keystroke_n	n	n/a
159.7885	0.089	319577	keystroke_Key.space	Key.space	n/a
160.1025	0.076	320205	keystroke_m	m	n/a
160.2535	0.09	320507	keystroke_i	i	n/a
160.3285	0.105	320657	keystroke_s	s	n/a
160.5085	0.105	321017	keystroke_t	t	n/a
160.5985	0.134	321197	keystroke_a	a	n/a
160.7935	0.105	321587	keystroke_k	k	n/a
160.8685	0.075	321737	keystroke_e	e	n/a
161.0485	0.105	322097	keystroke_s	s	n/a
161.2575	0.091	322515	keystroke_Key.space	Key.space	n/a
162.0235	0.06	324047	keystroke_n	n	n/a
162.1285	0.09	324257	keystroke_o	o	n/a
162.3235	0.06	324647	keystroke_b	b	n/a
162.5335	0.09	325067	keystroke_l	l	n/a
162.9835	0.075	325967	keystroke_e	e	n/a
163.1335	0.12	326267	keystroke_Key.enter	Key.enter	n/a
163.2605	5.5445	326521	prompt	n/a	butter spirits chick outline\n
163.9135	0.06	327827	keystroke_b	b	n/a
164.1235	0.06	328247	keystroke_u	u	n/a
164.3035	0.045	328607	keystroke_t	t	n/a
164.4085	0.06	328817	keystroke_t	t	n/a
164.5285	0.194	329057	keystroke_e	e	n/a
164.6635	0.09	329327	keystroke_r	r	n/a
164.7385	0.09	329477	keystroke_Key.space	Key.space	n/a
165.2335	0.15	330467	keystroke_s	s	n/a
165.6085	0.105	331217	keystroke_p	p	n/a
165.8785	0.09	331757	keystroke_i	i	n/a
166.1335	0.075	332267	keystroke_r	r	n/a
166.2385	0.09	332477	keystroke_i	i	n/a
166.3435	0.075	332687	keystroke_t	t	n/a
166.5535	0.105	333107	keystroke_s	s	n/a
166.6585	0.105	333317	keystroke_Key.space	Key.space	n/a
166.9435	0.12	333887	keystroke_c	c	n/a
167.0185	0.06	334037	keystroke_h	h	n/a
167.1085	0.09	334217	keystroke_i	i	n/a
167.3335	0.105	334667	keystroke_c	c	n/a
167.4085	0.075	334817	keystroke_k	k	n/a
167.4985	0.105	334997	keystroke_Key.space	Key.space	n/a
167.7085	0.135	335417	keystroke_o	o	n/a
167.8285	0.06	335657	keystroke_u	u	n/a
167.8735	0.09	335747	keystroke_t	t	n/a
168.0085	0.075	336017	keystroke_l	l	n/a
168.0985	0.09	336197	keystroke_i	i	n/a
168.248	0.0905	336496	keystroke_n	n	n/a
168.3385	0.0745	336677	keystroke_e	e	n/a
168.698	0.1055	337396	keystroke_Key.enter	Key.enter	n/a
168.8095	6.6405	337619	prompt	n/a	spyware boss responsible dear\n
169.553	0.1055	339106	keystroke_s	s	n/a
169.7035	0.12	339407	keystroke_p	p	n/a
169.958	0.06	339916	keystroke_y	y	n/a
170.363	0.075	340726	keystroke_w	w	n/a
170.543	0.135	341086	keystroke_a	a	n/a
170.693	0.1205	341386	keystroke_r	r	n/a
170.753	0.135	341506	keystroke_e	e	n/a
170.903	0.06	341806	keystroke_Key.space	Key.space	n/a
171.218	0.06	342436	keystroke_b	b	n/a
171.353	0.12	342706	keystroke_o	o	n/a
171.608	0.06	343216	keystroke_s	s	n/a
171.758	0.075	343516	keystroke_s	s	n/a
171.863	0.105	343726	keystroke_Key.space	Key.space	n/a
172.103	0.105	344206	keystroke_r	r	n/a
172.178	0.12	344356	keystroke_e	e	n/a
172.478	0.105	344956	keystroke_s	s	n/a
172.643	0.135	345286	keystroke_p	p	n/a
172.823	0.105	345646	keystroke_o	o	n/a
173.033	0.075	346066	keystroke_n	n	n/a
173.303	0.135	346606	keystroke_s	s	n/a
173.453	0.06	346906	keystroke_i	i	n/a
173.618	0.06	347236	keystroke_b	b	n/a
173.753	0.09	347506	keystroke_l	l	n/a
173.873	0.075	347746	keystroke_e	e	n/a
174.233	0.105	348466	keystroke_Key.space	Key.space	n/a
174.668	0.075	349336	keystroke_d	d	n/a
174.833	0.075	349666	keystroke_e	e	n/a
174.998	0.135	349996	keystroke_a	a	n/a
175.088	0.105	350176	keystroke_r	r	n/a
175.343	0.105	350686	keystroke_Key.enter	Key.enter	n/a
175.459	7.6565	350918	prompt	n/a	supported browsing tags fraction\n
176.093	0.12	352186	keystroke_s	s	n/a
176.243	0.075	352486	keystroke_u	u	n/a
176.438	0.06	352876	keystroke_p	p	n/a
176.573	0.105	353146	keystroke_p	p	n/a
176.753	0.12	353506	keystroke_o	o	n/a
176.948	0.105	353896	keystroke_r	r	n/a
177.203	0.165	354406	keystroke_t	t	n/a
177.353	0.12	354706	keystroke_e	e	n/a
177.638	0.12	355276	keystroke_d	d	n/a
178.178	0.105	356356	keystroke_Key.space	Key.space	n/a
178.568	0.075	357136	keystroke_b	b	n/a
178.748	0.105	357496	keystroke_r	r	n/a
178.883	0.105	357766	keystroke_o	o	n/a
179.003	0.105	358006	keystroke_w	w	n/a
179.573	0.105	359146	keystroke_s	s	n/a
179.679	0.134	359358	keystroke_i	i	n/a
179.768	0.09	359536	keystroke_n	n	n/a
179.858	0.075	359716	keystroke_g	g	n/a
179.948	0.075	359896	keystroke_Key.space	Key.space	n/a
180.608	0.09	361216	keystroke_t	t	n/a
180.743	0.135	361486	keystroke_a	a	n/a
180.938	0.09	361876	keystroke_g	g	n/a
181.073	0.12	362146	keystroke_s	s	n/a
181.223	0.105	362446	keystroke_Key.space	Key.space	n/a
181.643	0.06	363286	keystroke_f	f	n/a
181.823	0.09	363646	keystroke_r	r	n/a
181.883	0.09	363766	keystroke_a	a	n/a
182.108	0.09	364216	keystroke_c	c	n/a
182.258	0.105	364516	keystroke_t	t	n/a
182.378	0.09	364756	keystroke_i	i	n/a
182.483	0.18	364966	keystroke_o	o	n/a
182.603	0.09	365206	keystroke_n	n	n/a
183.023	0.09	366046	keystroke_Key.enter	Key.enter	n/a
183.12	9.2655	366240	prompt	n/a	probably stomach works design\n
183.788	0.09	367576	keystroke_p	p	n/a
184.133	0.105	368266	keystroke_r	r	n/a
184.193	0.09	368386	keystroke_o	o	n/a
184.388	0.075	368776	keystroke_b	b	n/a
184.478	0.12	368956	keystroke_a	a	n/a
184.643	0.06	369286	keystroke_b	b	n/a
184.853	0.075	369706	keystroke_l	l	n/a
185.063	0.045	370126	keystroke_y	y	n/a
185.228	0.105	370456	keystroke_Key.space	Key.space	n/a
185.828	0.12	371656	keystroke_s	s	n/a
186.203	0.105	372406	keystroke_t	t	n/a
186.353	0.09	372706	keystroke_o	o	n/a
186.593	0.09	373186	keystroke_m	m	n/a
186.908	0.105	373816	keystroke_a	a	n/a
187.133	0.105	374266	keystroke_c	c	n/a
187.223	0.09	374446	keystroke_k	k	n/a
187.883	0.06	375766	keystroke_Key.backspace	Key.backspace	n/a
189.068	0.045	378136	keystroke_h	h	n/a
190.163	0.09	380326	keystroke_Key.space	Key.space	n/a
190.373	0.105	380746	keystroke_w	w	n/a
190.463	0.105	380926	keystroke_o	o	n/a
190.553	0.105	381106	keystroke_r	r	n/a
190.748	0.09	381496	keystroke_k	k	n/a
190.823	0.105	381646	keystroke_s	s	n/a
190.943	0.105	381886	keystroke_Key.space	Key.space	n/a
191.168	0.06	382336	keystroke_d	d	n/a
191.288	0.06	382576	keystroke_e	e	n/a
191.468	0.12	382936	keystroke_s	s	n/a
191.558	0.075	383116	keystroke_i	i	n/a
191.663	0.09	383326	keystroke_g	g	n/a
191.783	0.105	383566	keystroke_n	n	n/a
192.308	0.075	384616	keystroke_Key.enter	Key.enter	n/a
192.3895	11.2605	384779	prompt	n/a	usgs inspired desirable makers\n
193.133	0.075	386266	keystroke_u	u	n/a
193.358	0.135	386716	keystroke_s	s	n/a
193.538	0.105	387076	keystroke_p	p	n/a
193.718	0.09	387436	keystroke_g	g	n/a
193.973	0.105	387946	keystroke_Key.space	Key.space	n/a
194.693	0.09	389386	keystroke_Key.backspace	Key.backspace	n/a
194.903	0.075	389806	keystroke_Key.backspace	Key.backspace	n/a
195.143	0.09	390286	keystroke_s	s	n/a
195.428	0.105	390856	keystroke_Key.space	Key.space	n/a
196.058	0.105	392116	keystroke_Key.backspace	Key.backspace	n/a
196.268	0.105	392536	keystroke_Key.backspace	Key.backspace	n/a
196.493	0.09	392986	keystroke_Key.backspace	Key.backspace	n/a
196.673	0.075	393346	keystroke_g	g	n/a
196.838	0.105	393676	keystroke_s	s	n/a
197.018	0.105	394036	keystroke_Key.space	Key.space	n/a
197.723	0.075	395446	keystroke_i	i	n/a
197.903	0.075	395806	keystroke_n	n	n/a
198.008	0.135	396016	keystroke_s	s	n/a
198.488	0.075	396976	keystroke_p	p	n/a
198.653	0.09	397306	keystroke_i	i	n/a
198.728	0.135	397456	keystroke_r	r	n/a
198.818	0.09	397636	keystroke_e	e	n/a
199.028	0.12	398056	keystroke_d	d	n/a
199.163	0.09	398326	keystroke_Key.space	Key.space	n/a
199.388	0.06	398776	keystroke_d	d	n/a
199.538	0.06	399076	keystroke_e	e	n/a
199.688	0.12	399376	keystroke_s	s	n/a
199.793	0.09	399586	keystroke_i	i	n/a
199.958	0.135	399916	keystroke_r	r	n/a
200.108	0.12	400216	keystroke_a	a	n/a
200.318	0.075	400636	keystroke_b	b	n/a
200.933	0.105	401866	keystroke_l	l	n/a
201.278	0.045	402556	keystroke_e	e	n/a
201.488	0.075	402976	keystroke_Key.space	Key.space	n/a
202.178	0.09	404356	keystroke_m	m	n/a
202.298	0.12	404596	keystroke_a	a	n/a
202.778	0.12	405556	keystroke_k	k	n/a
203.063	0.135	406126	keystroke_e	e	n/a
203.153	0.105	406306	keystroke_r	r	n/a
203.379	0.104	406758	keystroke_s	s	n/a
203.543	0.105	407086	keystroke_Key.enter	Key.enter	n/a
203.6555	10.539	407311	prompt	n/a	airports moments xerox ratios\n
204.323	0.12	408646	keystroke_a	a	n/a
204.518	0.0895	409036	keystroke_i	i	n/a
204.5925	0.075	409185	keystroke_r	r	n/a
204.8025	0.075	409605	keystroke_p	p	n/a
204.9975	0.09	409995	keystroke_o	o	n/a
205.1175	0.06	410235	keystroke_r	r	n/a
205.2975	0.075	410595	keystroke_t	t	n/a
205.4325	0.135	410865	keystroke_s	s	n/a
205.9575	0.105	411915	keystroke_Key.space	Key.space	n/a
206.2725	0.075	412545	keystroke_m	m	n/a
206.3925	0.105	412785	keystroke_o	o	n/a
206.5425	0.09	413085	keystroke_m	m	n/a
206.6775	0.105	413355	keystroke_e	e	n/a
206.8425	0.105	413685	keystroke_t	t	n/a
206.9625	0.075	413925	keystroke_n	n	n/a
207.0825	0.12	414165	keystroke_s	s	n/a
207.2775	0.15	414555	keystroke_Key.space	Key.space	n/a
207.9075	0.09	415815	keystroke_Key.backspace	Key.backspace	n/a
208.0725	0.105	416145	keystroke_Key.backspace	Key.backspace	n/a
208.5675	0.075	417135	keystroke_Key.backspace	Key.backspace	n/a
208.8975	0.105	417795	keystroke_Key.backspace	Key.backspace	n/a
209.1825	0.075	418365	keystroke_n	n	n/a
209.6925	0.075	419385	keystroke_t	t	n/a
209.8275	0.105	419655	keystroke_s	s	n/a
209.9925	0.105	419985	keystroke_Key.space	Key.space	n/a
210.9075	0.12	421815	keystroke_x	x	n/a
211.1335	0.119	422267	keystroke_e	e	n/a
211.6725	0.105	423345	keystroke_r	r	n/a
211.7935	0.104	423587	keystroke_o	o	n/a
212.0025	0.105	424005	keystroke_x	x	n/a
212.1825	0.09	424365	keystroke_Key.space	Key.space	n/a
212.4835	0.104	424967	keystroke_r	r	n/a
212.5885	0.12	425177	keystroke_a	a	n/a
212.7525	0.09	425505	keystroke_t	t	n/a
212.8575	0.09	425715	keystroke_i	i	n/a
212.9775	0.12	425955	keystroke_o	o	n/a
213.3975	0.105	426795	keystroke_s	s	n/a
214.0875	0.106	428175	keystroke_Key.enter	Key.enter	n/a
214.1985	9.387	428397	prompt	n/a	donald redhead accidents membrane\n
214.9575	0.075	429915	keystroke_d	d	n/a
215.0335	0.089	430067	keystroke_o	o	n/a
215.2285	0.074	430457	keystroke_n	n	n/a
215.3185	0.119	430637	keystroke_a	a	n/a
215.4075	0.091	430815	keystroke_l	l	n/a
215.5575	0.105	431115	keystroke_d	d	n/a
215.6635	0.104	431327	keystroke_Key.space	Key.space	n/a
215.9335	0.119	431867	keystroke_r	r	n/a
216.0085	0.104	432017	keystroke_e	e	n/a
216.3225	0.105	432645	keystroke_d	d	n/a
216.5775	0.091	433155	keystroke_h	h	n/a
216.7125	0.12	433425	keystroke_e	e	n/a
216.9225	0.12	433845	keystroke_a	a	n/a
217.8525	0.09	435705	keystroke_d	d	n/a
218.0175	0.091	436035	keystroke_Key.space	Key.space	n/a
218.3325	0.091	436665	keystroke_a	a	n/a
218.5735	0.075	437147	keystroke_c	c	n/a
218.7085	0.104	437417	keystroke_c	c	n/a
218.8725	0.12	437745	keystroke_i	i	n/a
219.0075	0.046	438015	keystroke_d	d	n/a
219.1425	0.106	438285	keystroke_e	e	n/a
219.6075	0.106	439215	keystroke_n	n	n/a
219.6975	0.076	439395	keystroke_t	t	n/a
219.8335	0.119	439667	keystroke_s	s	n/a
219.9975	0.09	439995	keystroke_Key.space	Key.space	n/a
220.3275	0.09	440655	keystroke_m	m	n/a
220.4475	0.106	440895	keystroke_e	e	n/a
220.5675	0.075	441135	keystroke_m	m	n/a
220.7775	0.075	441555	keystroke_b	b	n/a
221.767	0.1365	443534	keystroke_r	r	n/a
221.858	0.164	443716	keystroke_a	a	n/a
222.9225	0.0905	445845	keystroke_n	n	n/a
223.073	0.0745	446146	keystroke_e	e	n/a
223.4775	0.1045	446955	keystroke_Key.enter	Key.enter	n/a
223.591	11.274	447182	prompt	n/a	electoral large liechtenstein palestine\n
224.2275	0.0755	448455	keystroke_e	e	n/a
224.422	0.106	448844	keystroke_l	l	n/a
224.512	0.06	449024	keystroke_e	e	n/a
224.722	0.09	449444	keystroke_c	c	n/a
224.872	0.091	449744	keystroke_t	t	n/a
225.098	0.119	450196	keystroke_r	r	n/a
225.7125	0.135	451425	keystroke_Key.backspace	Key.backspace	n/a
226.0275	0.105	452055	keystroke_o	o	n/a
226.3275	0.12	452655	keystroke_r	r	n/a
226.4175	0.135	452835	keystroke_a	a	n/a
226.5975	0.105	453195	keystroke_l	l	n/a
226.7175	0.105	453435	keystroke_Key.space	Key.space	n/a
226.9125	0.12	453825	keystroke_l	l	n/a
227.0025	0.165	454005	keystroke_a	a	n/a
227.1375	0.075	454275	keystroke_r	r	n/a
227.3625	0.135	454725	keystroke_g	g	n/a
227.4525	0.15	454905	keystroke_e	e	n/a
227.5875	0.105	455175	keystroke_Key.space	Key.space	n/a
227.8575	0.09	455715	keystroke_l	l	n/a
228.1125	0.09	456225	keystroke_i	i	n/a
228.3225	0.075	456645	keystroke_e	e	n/a
228.6525	0.12	457305	keystroke_c	c	n/a
228.7735	0.074	457547	keystroke_h	h	n/a
229.3125	0.12	458625	keystroke_t	t	n/a
229.3875	0.12	458775	keystroke_e	e	n/a
229.5525	0.09	459105	keystroke_n	n	n/a
229.8075	0.09	459615	keystroke_s	s	n/a
230.0635	0.149	460127	keystroke_t	t	n/a
230.1825	0.06	460365	keystroke_e	e	n/a
230.6625	0.105	461325	keystroke_i	i	n/a
230.7375	0.09	461475	keystroke_n	n	n/a
230.8875	0.1045	461775	keystroke_Key.space	Key.space	n/a
231.098	0.104	462196	keystroke_p	p	n/a
231.547	0.135	463094	keystroke_a	a	n/a
231.713	0.12	463426	keystroke_l	l	n/a
231.817	0.076	463634	keystroke_e	e	n/a
232.0575	0.0905	464115	keystroke_s	s	n/a
232.268	0.105	464536	keystroke_t	t	n/a
232.388	0.135	464776	keystroke_i	i	n/a
232.493	0.09	464986	keystroke_n	n	n/a
232.657	0.106	465314	keystroke_e	e	n/a
234.728	0.135	469456	keystroke_Key.enter	Key.enter	n/a
234.8695	5.0055	469739	prompt	n/a	she'll codes libs trade\n
235.703	0.12	471406	keystroke_s	s	n/a
235.792	0.091	471584	keystroke_h	h	n/a
235.913	0.089	471826	keystroke_e	e	n/a
236.168	0.12	472336	keystroke_'	'	n/a
236.408	0.075	472816	keystroke_l	l	n/a
236.558	0.09	473116	keystroke_l	l	n/a
237.022	0.106	474044	keystroke_Key.space	Key.space	n/a
237.338	0.09	474676	keystroke_c	c	n/a
237.413	0.12	474826	keystroke_o	o	n/a
237.563	0.06	475126	keystroke_d	d	n/a
237.713	0.045	475426	keystroke_e	e	n/a
237.863	0.105	475726	keystroke_s	s	n/a
237.983	0.089	475966	keystroke_Key.space	Key.space	n/a
238.133	0.105	476266	keystroke_l	l	n/a
238.283	0.089	476566	keystroke_i	i	n/a
238.448	0.075	476896	keystroke_b	b	n/a
238.628	0.09	477256	keystroke_s	s	n/a
238.762	0.09	477524	keystroke_Key.space	Key.space	n/a
238.988	0.06	477976	keystroke_t	t	n/a
239.138	0.09	478276	keystroke_r	r	n/a
239.213	0.12	478426	keystroke_a	a	n/a
239.393	0.09	478786	keystroke_d	d	n/a
239.558	0.12	479116	keystroke_e	e	n/a
239.753	0.12	479506	keystroke_Key.enter	Key.enter	n/a
239.8795	6.61	479759	prompt	n/a	hotmail anna his shaft\n
240.518	0.06	481036	keystroke_h	h	n/a
240.638	0.105	481276	keystroke_o	o	n/a
240.758	0.09	481516	keystroke_t	t	n/a
241.058	0.06	482116	keystroke_m	m	n/a
241.133	0.135	482266	keystroke_a	a	n/a
241.253	0.045	482506	keystroke_i	i	n/a
241.388	0.09	482776	keystroke_l	l	n/a
241.613	0.105	483226	keystroke_Key.space	Key.space	n/a
241.898	0.105	483796	keystroke_a	a	n/a
242.393	0.075	484786	keystroke_n	n	n/a
242.543	0.075	485086	keystroke_n	n	n/a
242.663	0.12	485326	keystroke_a	a	n/a
242.993	0.09	485986	keystroke_Key.space	Key.space	n/a
243.518	0.06	487036	keystroke_i	i	n/a
244.298	0.075	488596	keystroke_Key.backspace	Key.backspace	n/a
244.808	0.075	489616	keystroke_h	h	n/a
244.943	0.12	489886	keystroke_i	i	n/a
245.078	0.12	490156	keystroke_s	s	n/a
245.198	0.09	490396	keystroke_Key.space	Key.space	n/a
245.453	0.12	490906	keystroke_s	s	n/a
245.558	0.09	491116	keystroke_h	h	n/a
245.768	0.165	491536	keystroke_a	a	n/a
246.053	0.075	492106	keystroke_f	f	n/a
246.218	0.09	492436	keystroke_t	t	n/a
246.368	0.12	492736	keystroke_Key.enter	Key.enter	n/a
246.4955	6.6995	492991	prompt	n/a	worried compared devices enter\n
247.238	0.12	494476	keystroke_w	w	n/a
247.373	0.12	494746	keystroke_o	o	n/a
247.643	0.045	495286	keystroke_r	r	n/a
247.763	0.105	495526	keystroke_r	r	n/a
247.913	0.09	495826	keystroke_i	i	n/a
247.988	0.105	495976	keystroke_e	e	n/a
248.228	0.09	496456	keystroke_d	d	n/a
248.303	0.12	496606	keystroke_Key.space	Key.space	n/a
249.443	0.09	498886	keystroke_c	c	n/a
249.653	0.12	499306	keystroke_o	o	n/a
249.833	0.105	499666	keystroke_m	m	n/a
250.133	0.09	500266	keystroke_p	p	n/a
250.238	0.195	500476	keystroke_a	a	n/a
250.418	0.135	500836	keystroke_r	r	n/a
250.493	0.105	500986	keystroke_e	e	n/a
250.673	0.135	501346	keystroke_d	d	n/a
250.763	0.12	501526	keystroke_Key.space	Key.space	n/a
251.093	0.075	502186	keystroke_d	d	n/a
251.258	0.045	502516	keystroke_e	e	n/a
251.423	0.105	502846	keystroke_v	v	n/a
251.558	0.105	503116	keystroke_i	i	n/a
251.664	0.089	503328	keystroke_c	c	n/a
251.873	0.075	503746	keystroke_e	e	n/a
252.098	0.105	504196	keystroke_s	s	n/a
252.218	0.09	504436	keystroke_Key.space	Key.space	n/a
252.413	0.105	504826	keystroke_e	e	n/a
252.533	0.09	505066	keystroke_n	n	n/a
252.638	0.06	505276	keystroke_t	t	n/a
252.713	0.15	505426	keystroke_e	e	n/a
252.818	0.075	505636	keystroke_r	r	n/a
253.103	0.09	506206	keystroke_Key.enter	Key.enter	n/a
253.2005	9.309	506401	prompt	n/a	forum organizations alaska supervision\n
254.018	0.075	508036	keystroke_f	f	n/a
254.123	0.09	508246	keystroke_o	o	n/a
254.288	0.105	508576	keystroke_r	r	n/a
254.378	0.045	508756	keystroke_u	u	n/a
254.543	0.075	509086	keystroke_m	m	n/a
254.708	0.075	509416	keystroke_Key.space	Key.space	n/a
255.173	0.09	510346	keystroke_o	o	n/a
255.278	0.075	510556	keystroke_r	r	n/a
255.518	0.075	511036	keystroke_g	g	n/a
255.608	0.135	511216	keystroke_a	a	n/a
255.788	0.075	511576	keystroke_n	n	n/a
255.908	0.105	511816	keystroke_i	i	n/a
256.028	0.09	512056	keystroke_z	z	n/a
256.238	0.105	512476	keystroke_a	a	n/a
256.373	0.12	512746	keystroke_t	t	n/a
256.508	0.105	513016	keystroke_i	i	n/a
256.598	0.165	513196	keystroke_o	o	n/a
256.703	0.09	513406	keystroke_n	n	n/a
256.778	0.15	513556	keystroke_s	s	n/a
256.883	0.105	513766	keystroke_Key.space	Key.space	n/a
257.213	0.09	514426	keystroke_l	l	n/a
258.068	0.09	516136	keystroke_Key.backspace	Key.backspace	n/a
258.323	0.12	516646	keystroke_a	a	n/a
258.413	0.12	516826	keystroke_l	l	n/a
258.548	0.12	517096	keystroke_a	a	n/a
258.833	0.105	517666	keystroke_s	s	n/a
259.283	0.105	518566	keystroke_k	k	n/a
259.373	0.15	518746	keystroke_a	a	n/a
259.508	0.105	519016	keystroke_Key.space	Key.space	n/a
259.808	0.09	519616	keystroke_s	s	n/a
259.8985	0.059	519797	keystroke_u	u	n/a
261.053	0.1045	522106	keystroke_p	p	n/a
261.1875	0.12	522375	keystroke_e	e	n/a
261.2625	0.09	522525	keystroke_r	r	n/a
261.5325	0.09	523065	keystroke_v	v	n/a
261.6075	0.09	523215	keystroke_i	i	n/a
261.7425	0.105	523485	keystroke_s	s	n/a
261.8325	0.075	523665	keystroke_i	i	n/a
261.9375	0.15	523875	keystroke_o	o	n/a
262.028	0.0895	524056	keystroke_n	n	n/a
262.4175	0.09	524835	keystroke_Key.enter	Key.enter	n/a
262.5145	6.325	525029	prompt	n/a	knock richard sixth broken\n
263.3025	0.075	526605	keystroke_k	k	n/a
263.4975	0.06	526995	keystroke_n	n	n/a
263.5725	0.12	527145	keystroke_o	o	n/a
263.8575	0.09	527715	keystroke_c	c	n/a
264.0675	0.09	528135	keystroke_k	k	n/a
264.2325	0.09	528465	keystroke_Key.space	Key.space	n/a
264.5475	0.06	529095	keystroke_r	r	n/a
264.6225	0.075	529245	keystroke_i	i	n/a
264.7725	0.09	529545	keystroke_c	c	n/a
264.8475	0.09	529695	keystroke_h	h	n/a
264.9675	0.165	529935	keystroke_a	a	n/a
265.0875	0.09	530175	keystroke_r	r	n/a
265.2975	0.09	530595	keystroke_d	d	n/a
265.3725	0.105	530745	keystroke_Key.space	Key.space	n/a
265.9575	0.12	531915	keystroke_s	s	n/a
266.1075	0.105	532215	keystroke_i	i	n/a
266.4525	0.12	532905	keystroke_x	x	n/a
267.2625	0.105	534525	keystroke_t	t	n/a
267.3685	0.059	534737	keystroke_h	h	n/a
267.4725	0.09	534945	keystroke_Key.space	Key.space	n/a
267.7425	0.06	535485	keystroke_b	b	n/a
267.9225	0.09	535845	keystroke_r	r	n/a
267.9825	0.105	535965	keystroke_o	o	n/a
268.2075	0.105	536415	keystroke_k	k	n/a
268.3135	0.074	536627	keystroke_e	e	n/a
268.4475	0.09	536895	keystroke_n	n	n/a
268.7325	0.105	537465	keystroke_Key.enter	Key.enter	n/a
268.847	10.1775	537694	prompt	n/a	saudi shopper slide prices\n
269.5575	0.105	539115	keystroke_s	s	n/a
269.7675	0.135	539535	keystroke_a	a	n/a
269.9775	0.075	539955	keystroke_u	u	n/a
270.2325	0.105	540465	keystroke_d	d	n/a
270.3525	0.075	540705	keystroke_i	i	n/a
270.4725	0.09	540945	keystroke_Key.space	Key.space	n/a
270.7875	0.12	541575	keystroke_s	s	n/a
270.8625	0.075	541725	keystroke_h	h	n/a
271.0125	0.09	542025	keystroke_o	o	n/a
271.2225	0.09	542445	keystroke_p	p	n/a
271.3725	0.105	542745	keystroke_p	p	n/a
271.4925	0.165	542985	keystroke_e	e	n/a
271.5675	0.12	543135	keystroke_r	r	n/a
271.7025	0.075	543405	keystroke_Key.space	Key.space	n/a
272.0025	0.12	544005	keystroke_s	s	n/a
272.0625	0.09	544125	keystroke_l	l	n/a
272.1975	0.105	544395	keystroke_i	i	n/a
272.3325	0.105	544665	keystroke_d	d	n/a
272.3475	0.06	544695	keystroke_f	f	n/a
272.6325	0.09	545265	keystroke_e	e	n/a
272.7975	0.105	545595	keystroke_Key.space	Key.space	n/a
273.1875	0.12	546375	keystroke_p	p	n/a
273.9675	0.09	547935	keystroke_Key.backspace	Key.backspace	n/a
274.2225	0.09	548445	keystroke_Key.backspace	Key.backspace	n/a
274.4325	0.105	548865	keystroke_Key.backspace	Key.backspace	n/a
275.2425	0.105	550485	keystroke_Key.backspace	Key.backspace	n/a
275.9475	0.075	551895	keystroke_d	d	n/a
276.1425	0.12	552285	keystroke_Key.space	Key.space	n/a
276.7575	0.06	553515	keystroke_Key.backspace	Key.backspace	n/a
276.9525	0.105	553905	keystroke_Key.backspace	Key.backspace	n/a
277.2375	0.09	554475	keystroke_e	e	n/a
277.5225	0.12	555045	keystroke_Key.space	Key.space	n/a
278.0175	0.09	556035	keystroke_p	p	n/a
278.1675	0.06	556335	keystroke_r	r	n/a
278.2575	0.09	556515	keystroke_i	i	n/a
278.3625	0.075	556725	keystroke_c	c	n/a
278.5425	0.045	557085	keystroke_e	e	n/a
278.6775	0.1045	557355	keystroke_s	s	n/a
278.932	0.0905	557864	keystroke_Key.enter	Key.enter	n/a
279.0295	7.1205	558059	prompt	n/a	using amount threatening patch\n
279.667	0.0605	559334	keystroke_u	u	n/a
279.802	0.1355	559604	keystroke_s	s	n/a
279.952	0.105	559904	keystroke_i	i	n/a
279.9975	0.12	559995	keystroke_n	n	n/a
280.087	0.091	560174	keystroke_g	g	n/a
280.162	0.075	560324	keystroke_Key.space	Key.space	n/a
280.387	0.12	560774	keystroke_a	a	n/a
280.492	0.075	560984	keystroke_m	m	n/a
280.5975	0.1345	561195	keystroke_o	o	n/a
280.747	0.06	561494	keystroke_u	u	n/a
281.287	0.075	562574	keystroke_n	n	n/a
281.377	0.06	562754	keystroke_t	t	n/a
281.542	0.075	563084	keystroke_Key.space	Key.space	n/a
282.337	0.045	564674	keystroke_t	t	n/a
282.983	0.09	565966	keystroke_h	h	n/a
283.298	0.135	566596	keystroke_r	r	n/a
283.387	0.091	566774	keystroke_e	e	n/a
283.597	0.136	567194	keystroke_a	a	n/a
283.808	0.09	567616	keystroke_t	t	n/a
284.048	0.12	568096	keystroke_e	e	n/a
284.258	0.075	568516	keystroke_n	n	n/a
284.348	0.135	568696	keystroke_i	i	n/a
284.438	0.074	568876	keystroke_n	n	n/a
284.528	0.0895	569056	keystroke_g	g	n/a
284.6025	0.105	569205	keystroke_Key.space	Key.space	n/a
284.8575	0.1055	569715	keystroke_p	p	n/a
284.993	0.105	569986	keystroke_a	a	n/a
285.143	0.075	570286	keystroke_t	t	n/a
285.383	0.105	570766	keystroke_c	c	n/a
285.5025	0.0455	571005	keystroke_h	h	n/a
286.0425	0.1055	572085	keystroke_Key.enter	Key.enter	n/a
286.1555	6.414	572311	prompt	n/a	ensures forge engineer reliance\n
286.9275	0.075	573855	keystroke_e	e	n/a
287.0625	0.09	574125	keystroke_n	n	n/a
287.3475	0.12	574695	keystroke_s	s	n/a
287.4375	0.06	574875	keystroke_u	u	n/a
287.5275	0.105	575055	keystroke_r	r	n/a
287.6025	0.075	575205	keystroke_e	e	n/a
287.8125	0.12	575625	keystroke_s	s	n/a
287.9475	0.09	575895	keystroke_Key.space	Key.space	n/a
288.1875	0.075	576375	keystroke_f	f	n/a
288.2775	0.09	576555	keystroke_o	o	n/a
288.3675	0.09	576735	keystroke_r	r	n/a
288.7425	0.075	577485	keystroke_g	g	n/a
288.8025	0.135	577605	keystroke_e	e	n/a
288.9525	0.105	577905	keystroke_Key.space	Key.space	n/a
289.2075	0.075	578415	keystroke_e	e	n/a
289.3125	0.075	578625	keystroke_n	n	n/a
289.4325	0.09	578865	keystroke_g	g	n/a
289.5375	0.105	579075	keystroke_i	i	n/a
289.6275	0.075	579255	keystroke_n	n	n/a
289.7325	0.09	579465	keystroke_e	e	n/a
290.0775	0.075	580155	keystroke_e	e	n/a
290.2725	0.06	580545	keystroke_r	r	n/a
290.3775	0.09	580755	keystroke_Key.space	Key.space	n/a
290.798	0.105	581596	keystroke_r	r	n/a
290.933	0.12	581866	keystroke_e	e	n/a
291.113	0.09	582226	keystroke_l	l	n/a
291.578	0.074	583156	keystroke_i	i	n/a
291.788	0.09	583576	keystroke_a	a	n/a
291.908	0.075	583816	keystroke_n	n	n/a
291.997	0.061	583994	keystroke_c	c	n/a
292.163	0.09	584326	keystroke_e	e	n/a
292.493	0.075	584986	keystroke_Key.enter	Key.enter	n/a
292.5755	8.3495	585151	prompt	n/a	canon immunology officials thirty\n
293.393	0.135	586786	keystroke_c	c	n/a
293.513	0.12	587026	keystroke_a	a	n/a
293.678	0.09	587356	keystroke_n	n	n/a
293.858	0.09	587716	keystroke_o	o	n/a
293.993	0.09	587986	keystroke_n	n	n/a
294.113	0.119	588226	keystroke_Key.space	Key.space	n/a
294.2925	0.0755	588585	keystroke_i	i	n/a
294.488	0.06	588976	keystroke_m	m	n/a
294.638	0.045	589276	keystroke_m	m	n/a
294.8175	0.045	589635	keystroke_u	u	n/a
295.0125	0.0755	590025	keystroke_n	n	n/a
295.133	0.06	590266	keystroke_o	o	n/a
295.298	0.06	590596	keystroke_l	l	n/a
295.4625	0.0605	590925	keystroke_o	o	n/a
295.6125	0.105	591225	keystroke_g	g	n/a
295.7025	0.075	591405	keystroke_y	y	n/a
295.8215	0.105	591643	keystroke_Key.space	Key.space	n/a
296.1075	0.0905	592215	keystroke_o	o	n/a
296.2575	0.045	592515	keystroke_f	f	n/a
296.3475	0.09	592695	keystroke_f	f	n/a
296.4525	0.0905	592905	keystroke_i	i	n/a
296.573	0.1045	593146	keystroke_c	c	n/a
296.7075	0.09	593415	keystroke_i	i	n/a
296.8125	0.105	593625	keystroke_a	a	n/a
296.9325	0.09	593865	keystroke_l	l	n/a
297.0375	0.09	594075	keystroke_s	s	n/a
297.2325	0.09	594465	keystroke_Key.space	Key.space	n/a
297.5025	0.075	595005	keystroke_t	t	n/a
297.5925	0.045	595185	keystroke_h	h	n/a
297.6825	0.105	595365	keystroke_i	i	n/a
297.743	0.0595	595486	keystroke_r	r	n/a
298.2975	0.09	596595	keystroke_t	t	n/a
298.3725	0.06	596745	keystroke_h	h	n/a
299.4675	0.06	598935	keystroke_Key.backspace	Key.backspace	n/a
299.7225	0.06	599445	keystroke_y	y	n/a
300.8025	0.12	601605	keystroke_Key.enter	Key.enter	n/a
300.932	8.347	601864	prompt	n/a	candy tomato species whom'st\n
301.4925	0.12	602985	keystroke_c	c	n/a
301.5675	0.12	603135	keystroke_a	a	n/a
301.6875	0.09	603375	keystroke_n	n	n/a
301.8375	0.12	603675	keystroke_d	d	n/a
301.9725	0.045	603945	keystroke_y	y	n/a
302.0925	0.105	604185	keystroke_Key.space	Key.space	n/a
302.3925	0.105	604785	keystroke_t	t	n/a
302.4825	0.075	604965	keystroke_o	o	n/a
302.6475	0.09	605295	keystroke_m	m	n/a
302.7375	0.1495	605475	keystroke_a	a	n/a
302.872	0.09	605744	keystroke_t	t	n/a
302.992	0.105	605984	keystroke_o	o	n/a
303.112	0.105	606224	keystroke_Key.space	Key.space	n/a
303.667	0.12	607334	keystroke_s	s	n/a
303.817	0.12	607634	keystroke_p	p	n/a
303.967	0.075	607934	keystroke_e	e	n/a
304.267	0.06	608534	keystroke_c	c	n/a
304.342	0.09	608684	keystroke_i	i	n/a
304.462	0.06	608924	keystroke_e	e	n/a
304.627	0.105	609254	keystroke_s	s	n/a
304.747	0.09	609494	keystroke_Key.space	Key.space	n/a
305.107	0.12	610214	keystroke_w	w	n/a
305.257	0.06	610514	keystroke_h	h	n/a
305.362	0.135	610724	keystroke_o	o	n/a
305.842	0.105	611684	keystroke_m	m	n/a
306.337	0.106	612674	keystroke_'	'	n/a
306.457	0.135	612914	keystroke_s	s	n/a
306.637	0.105	613274	keystroke_t	t	n/a
309.221	0.056	618442	keystroke_Key.enter	Key.enter	n/a
309.284	11.26	618568	prompt	n/a	labeled currency parliamentary humanitarian\n
310.102	0.12	620204	keystroke_l	l	n/a
310.267	0.135	620534	keystroke_a	a	n/a
310.703	0.089	621406	keystroke_b	b	n/a
310.852	0.105	621704	keystroke_e	e	n/a
311.077	0.105	622154	keystroke_l	l	n/a
311.212	0.061	622424	keystroke_e	e	n/a
311.378	0.12	622756	keystroke_d	d	n/a
311.467	0.09	622934	keystroke_Key.space	Key.space	n/a
311.692	0.105	623384	keystroke_c	c	n/a
311.782	0.06	623564	keystroke_u	u	n/a
312.007	0.06	624014	keystroke_r	r	n/a
312.128	0.119	624256	keystroke_r	r	n/a
312.292	0.105	624584	keystroke_e	e	n/a
312.442	0.0905	624884	keystroke_n	n	n/a
312.5775	0.105	625155	keystroke_c	c	n/a
312.7875	0.06	625575	keystroke_y	y	n/a
312.9675	0.075	625935	keystroke_Key.space	Key.space	n/a
313.2675	0.09	626535	keystroke_p	p	n/a
313.5375	0.135	627075	keystroke_a	a	n/a
314.3925	0.06	628785	keystroke_r	r	n/a
314.5725	0.09	629145	keystroke_l	l	n/a
314.7225	0.09	629445	keystroke_i	i	n/a
314.8575	0.12	629715	keystroke_a	a	n/a
315.9375	0.09	631875	keystroke_m	m	n/a
316.0425	0.105	632085	keystroke_e	e	n/a
316.1775	0.09	632355	keystroke_n	n	n/a
316.2975	0.075	632595	keystroke_t	t	n/a
316.7475	0.15	633495	keystroke_a	a	n/a
316.8675	0.105	633735	keystroke_r	r	n/a
316.9875	0.06	633975	keystroke_y	y	n/a
317.1525	0.09	634305	keystroke_Key.space	Key.space	n/a
317.9775	0.06	635955	keystroke_h	h	n/a
318.1875	0.045	636375	keystroke_u	u	n/a
318.5325	0.06	637065	keystroke_m	m	n/a
318.6375	0.12	637275	keystroke_a	a	n/a
318.7425	0.075	637485	keystroke_n	n	n/a
318.9375	0.09	637875	keystroke_i	i	n/a
319.2975	0.09	638595	keystroke_t	t	n/a
319.4025	0.165	638805	keystroke_a	a	n/a
319.6875	0.12	639375	keystroke_r	r	n/a
319.7925	0.09	639585	keystroke_i	i	n/a
319.9125	0.12	639825	keystroke_a	a	n/a
320.0325	0.09	640065	keystroke_n	n	n/a
320.4375	0.105	640875	keystroke_Key.enter	Key.enter	n/a
320.548	5.817	641096	prompt	n/a	misc streets exchange tons\n
321.2475	0.075	642495	keystroke_m	m	n/a
321.3975	0.135	642795	keystroke_i	i	n/a
321.5925	0.09	643185	keystroke_s	s	n/a
321.7725	0.105	643545	keystroke_c	c	n/a
321.8775	0.105	643755	keystroke_Key.space	Key.space	n/a
322.1175	0.09	644235	keystroke_s	s	n/a
322.2825	0.075	644565	keystroke_t	t	n/a
322.4625	0.105	644925	keystroke_r	r	n/a
322.6275	0.09	645255	keystroke_e	e	n/a
322.807	0.105	645614	keystroke_e	e	n/a
322.927	0.075	645854	keystroke_t	t	n/a
323.137	0.105	646274	keystroke_s	s	n/a
323.272	0.09	646544	keystroke_Key.space	Key.space	n/a
324.233	0.059	648466	keystroke_e	e	n/a
324.442	0.09	648884	keystroke_x	x	n/a
324.802	0.09	649604	keystroke_c	c	n/a
324.908	0.059	649816	keystroke_h	h	n/a
324.982	0.135	649964	keystroke_a	a	n/a
325.087	0.09	650174	keystroke_n	n	n/a
325.193	0.089	650386	keystroke_g	g	n/a
325.237	0.121	650474	keystroke_e	e	n/a
325.432	0.105	650864	keystroke_Key.space	Key.space	n/a
325.672	0.09	651344	keystroke_t	t	n/a
325.732	0.135	651464	keystroke_o	o	n/a
325.852	0.075	651704	keystroke_n	n	n/a
325.928	0.119	651856	keystroke_s	s	n/a
326.272	0.09	652544	keystroke_Key.enter	Key.enter	n/a
326.37	7.225	652740	prompt	n/a	wheat feel cellular forests\n
327.082	0.09	654164	keystroke_w	w	n/a
327.187	0.061	654374	keystroke_h	h	n/a
327.473	0.089	654946	keystroke_e	e	n/a
327.622	0.12	655244	keystroke_a	a	n/a
327.758	0.089	655516	keystroke_t	t	n/a
328.342	0.106	656684	keystroke_Key.space	Key.space	n/a
328.657	0.105	657314	keystroke_f	f	n/a
328.898	0.044	657796	keystroke_e	e	n/a
329.003	0.12	658006	keystroke_e	e	n/a
329.137	0.12	658274	keystroke_l	l	n/a
329.258	0.074	658516	keystroke_Key.space	Key.space	n/a
329.543	0.074	659086	keystroke_c	c	n/a
329.737	0.075	659474	keystroke_e	e	n/a
329.932	0.075	659864	keystroke_l	l	n/a
330.067	0.106	660134	keystroke_l	l	n/a
330.277	0.06	660554	keystroke_u	u	n/a
330.517	0.09	661034	keystroke_l	l	n/a
330.637	0.165	661274	keystroke_a	a	n/a
330.758	0.105	661516	keystroke_r	r	n/a
330.907	0.105	661814	keystroke_Key.space	Key.space	n/a
331.8065	0.0605	663613	keystroke_f	f	n/a
331.8815	0.12	663763	keystroke_o	o	n/a
332.0165	0.076	664033	keystroke_r	r	n/a
332.243	0.09	664486	keystroke_e	e	n/a
332.467	0.1045	664934	keystroke_s	s	n/a
332.6015	0.091	665203	keystroke_t	t	n/a
332.8275	0.104	665655	keystroke_s	s	n/a
333.4865	0.105	666973	keystroke_Key.enter	Key.enter	n/a
333.5995	21.85	667199	prompt	n/a	chris institutes charlotte displays\n
334.3865	0.091	668773	keystroke_c	c	n/a
334.4475	0.075	668895	keystroke_h	h	n/a
334.7015	0.061	669403	keystroke_r	r	n/a
334.7765	0.106	669553	keystroke_i	i	n/a
334.8675	0.119	669735	keystroke_s	s	n/a
335.0025	0.074	670005	keystroke_Key.space	Key.space	n/a
335.1825	0.12	670365	keystroke_i	i	n/a
335.2565	0.091	670513	keystroke_n	n	n/a
335.4225	0.104	670845	keystroke_s	s	n/a
335.6475	0.06	671295	keystroke_t	t	n/a
335.7525	0.089	671505	keystroke_i	i	n/a
335.9465	0.091	671893	keystroke_t	t	n/a
336.0225	0.075	672045	keystroke_u	u	n/a
336.1875	0.075	672375	keystroke_e	e	n/a
336.3515	0.12	672703	keystroke_s	s	n/a
336.4865	0.105	672973	keystroke_Key.space	Key.space	n/a
336.7725	0.089	673545	keystroke_c	c	n/a
336.8775	0.074	673755	keystroke_h	h	n/a
337.6425	0.12	675285	keystroke_a	a	n/a
337.8375	0.074	675675	keystroke_r	r	n/a
338.2565	0.106	676513	keystroke_l	l	n/a
338.4665	0.091	676933	keystroke_o	o	n/a
338.7365	0.031	677473	keystroke_t	t	n/a
338.8415	0.091	677683	keystroke_t	t	n/a
339.0375	0.105	678075	keystroke_e	e	n/a
342.2655	0.027	684531	keystroke_Key.backspace	Key.backspace	n/a
342.3965	0.091	684793	keystroke_Key.backspace	Key.backspace	n/a
342.5775	0.09	685155	keystroke_Key.backspace	Key.backspace	n/a
342.7725	0.09	685545	keystroke_Key.backspace	Key.backspace	n/a
342.9665	0.105	685933	keystroke_Key.backspace	Key.backspace	n/a
343.2375	0.075	686475	keystroke_Key.backspace	Key.backspace	n/a
343.4325	0.105	686865	keystroke_Key.backspace	Key.backspace	n/a
343.6565	0.106	687313	keystroke_Key.backspace	Key.backspace	n/a
343.8975	0.105	687795	keystroke_Key.backspace	Key.backspace	n/a
344.1375	0.105	688275	keystroke_Key.backspace	Key.backspace	n/a
344.3775	0.105	688755	keystroke_Key.backspace	Key.backspace	n/a
344.6625	0.12	689325	keystroke_Key.backspace	Key.backspace	n/a
346.2375	0.075	692475	keystroke_e	e	n/a
346.4175	0.09	692835	keystroke_s	s	n/a
346.5975	0.09	693195	keystroke_Key.space	Key.space	n/a
348.2775	0.105	696555	keystroke_Key.backspace	Key.backspace	n/a
348.5025	0.075	697005	keystroke_Key.backspace	Key.backspace	n/a
348.7125	0.09	697425	keystroke_Key.backspace	Key.backspace	n/a
350.0475	0.075	700095	keystroke_t	t	n/a
350.1825	0.105	700365	keystroke_e	e	n/a
350.3775	0.105	700755	keystroke_s	s	n/a
350.4975	0.105	700995	keystroke_Key.space	Key.space	n/a
350.8275	0.12	701655	keystroke_c	c	n/a
350.9625	0.075	701925	keystroke_h	h	n/a
351.0525	0.21	702105	keystroke_a	a	n/a
351.2475	0.09	702495	keystroke_r	r	n/a
351.5475	0.09	703095	keystroke_l	l	n/a
351.7275	0.09	703455	keystroke_o	o	n/a
351.8775	0.06	703755	keystroke_t	t	n/a
352.0275	0.075	704055	keystroke_t	t	n/a
352.1925	0.105	704385	keystroke_e	e	n/a
352.3125	0.09	704625	keystroke_Key.space	Key.space	n/a
352.5525	0.075	705105	keystroke_d	d	n/a
352.6425	0.105	705285	keystroke_i	i	n/a
352.7625	0.12	705525	keystroke_s	s	n/a
352.9125	0.075	705825	keystroke_p	p	n/a
353.1075	0.075	706215	keystroke_l	l	n/a
353.3175	0.06	706635	keystroke_y	y	n/a
353.4375	0.165	706875	keystroke_a	a	n/a
354.1275	0.09	708255	keystroke_Key.backspace	Key.backspace	n/a
354.2925	0.09	708585	keystroke_Key.backspace	Key.backspace	n/a
354.4125	0.135	708825	keystroke_a	a	n/a
354.5325	0.075	709065	keystroke_y	y	n/a
354.6375	0.09	709275	keystroke_s	s	n/a
355.3425	0.105	710685	keystroke_Key.enter	Key.enter	n/a
355.4555	6.0845	710911	prompt	n/a	exposure dragon tests showcase\n
356.1225	0.06	712245	keystroke_e	e	n/a
356.3175	0.15	712635	keystroke_x	x	n/a
356.4375	0.09	712875	keystroke_p	p	n/a
356.6175	0.09	713235	keystroke_o	o	n/a
356.8125	0.12	713625	keystroke_s	s	n/a
356.9775	0.075	713955	keystroke_u	u	n/a
357.0825	0.09	714165	keystroke_r	r	n/a
357.1275	0.135	714255	keystroke_e	e	n/a
357.2925	0.09	714585	keystroke_Key.space	Key.space	n/a
357.6075	0.105	715215	keystroke_d	d	n/a
357.7875	0.12	715575	keystroke_r	r	n/a
357.8625	0.12	715725	keystroke_a	a	n/a
358.0425	0.105	716085	keystroke_g	g	n/a
358.1625	0.105	716325	keystroke_o	o	n/a
358.2975	0.105	716595	keystroke_n	n	n/a
358.4625	0.105	716925	keystroke_Key.space	Key.space	n/a
358.7475	0.12	717495	keystroke_t	t	n/a
358.8525	0.105	717705	keystroke_e	e	n/a
359.0325	0.165	718065	keystroke_s	s	n/a
359.1825	0.105	718365	keystroke_t	t	n/a
359.3475	0.12	718695	keystroke_s	s	n/a
359.5125	0.075	719025	keystroke_Key.space	Key.space	n/a
360.2325	0.12	720465	keystroke_s	s	n/a
360.3525	0.045	720705	keystroke_h	h	n/a
360.4575	0.105	720915	keystroke_o	o	n/a
360.5325	0.075	721065	keystroke_w	w	n/a
360.7575	0.105	721515	keystroke_c	c	n/a
360.8925	0.12	721785	keystroke_a	a	n/a
360.9975	0.165	721995	keystroke_s	s	n/a
361.1475	0.06	722295	keystroke_e	e	n/a
361.4625	0.075	722925	keystroke_Key.enter	Key.enter	n/a
361.5485	14.4965	723097	prompt	n/a	receptor consultants assumed hebrew\n
362.3025	0.12	724605	keystroke_r	r	n/a
362.3925	0.105	724785	keystroke_e	e	n/a
362.6475	0.06	725295	keystroke_c	c	n/a
362.8125	0.075	725625	keystroke_e	e	n/a
362.9925	0.075	725985	keystroke_p	p	n/a
363.0975	0.075	726195	keystroke_t	t	n/a
363.2325	0.12	726465	keystroke_o	o	n/a
363.3675	0.1045	726735	keystroke_r	r	n/a
363.4875	0.105	726975	keystroke_Key.space	Key.space	n/a
363.9375	0.1045	727875	keystroke_c	c	n/a
364.702	0.0905	729404	keystroke_o	o	n/a
364.822	0.09	729644	keystroke_n	n	n/a
364.9875	0.2095	729975	keystroke_s	s	n/a
365.137	0.045	730274	keystroke_u	u	n/a
365.302	0.09	730604	keystroke_l	l	n/a
365.4075	0.0895	730815	keystroke_t	t	n/a
365.512	0.165	731024	keystroke_a	a	n/a
365.647	0.12	731294	keystroke_t	t	n/a
365.782	0.075	731564	keystroke_n	n	n/a
365.9175	0.1045	731835	keystroke_s	s	n/a
366.052	0.075	732104	keystroke_Key.space	Key.space	n/a
366.247	0.12	732494	keystroke_a	a	n/a
366.472	0.075	732944	keystroke_s	s	n/a
366.607	0.225	733214	keystroke_s	s	n/a
366.682	0.06	733364	keystroke_u	u	n/a
366.937	0.015	733874	keystroke_m	m	n/a
367.432	0.12	734864	keystroke_Key.backspace	Key.backspace	n/a
367.657	0.09	735314	keystroke_Key.backspace	Key.backspace	n/a
367.882	0.09	735764	keystroke_Key.backspace	Key.backspace	n/a
368.107	0.09	736214	keystroke_Key.backspace	Key.backspace	n/a
368.332	0.09	736664	keystroke_Key.backspace	Key.backspace	n/a
368.542	0.09	737084	keystroke_Key.backspace	Key.backspace	n/a
368.752	0.105	737504	keystroke_Key.backspace	Key.backspace	n/a
368.962	0.105	737924	keystroke_Key.backspace	Key.backspace	n/a
369.337	0.09	738674	keystroke_Key.backspace	Key.backspace	n/a
370.717	0.09	741434	keystroke_n	n	n/a
370.867	0.075	741734	keystroke_t	t	n/a
371.032	0.12	742064	keystroke_s	s	n/a
371.167	0.105	742334	keystroke_Key.space	Key.space	n/a
371.527	0.09	743054	keystroke_a	a	n/a
371.767	0.06	743534	keystroke_s	s	n/a
371.902	0.195	743804	keystroke_s	s	n/a
371.992	0.06	743984	keystroke_u	u	n/a
372.202	0.09	744404	keystroke_m	m	n/a
372.367	0.12	744734	keystroke_e	e	n/a
372.667	0.075	745334	keystroke_d	d	n/a
372.817	0.105	745634	keystroke_Key.space	Key.space	n/a
373.642	0.075	747284	keystroke_h	h	n/a
373.762	0.09	747524	keystroke_e	e	n/a
373.957	0.06	747914	keystroke_b	b	n/a
374.137	0.135	748274	keystroke_r	r	n/a
374.227	0.105	748454	keystroke_e	e	n/a
374.422	0.105	748844	keystroke_s	s	n/a
375.112	0.09	750224	keystroke_Key.backspace	Key.backspace	n/a
375.307	0.09	750614	keystroke_w	w	n/a
375.952	0.09	751904	keystroke_Key.enter	Key.enter	n/a
376.0495	9.5955	752099	prompt	n/a	disorder meetings render bloom\n
376.702	0.075	753404	keystroke_d	d	n/a
376.807	0.075	753614	keystroke_i	i	n/a
376.897	0.09	753794	keystroke_s	s	n/a
377.737	0.12	755474	keystroke_o	o	n/a
377.842	0.06	755684	keystroke_r	r	n/a
378.127	0.045	756254	keystroke_d	d	n/a
378.277	0.12	756554	keystroke_e	e	n/a
378.367	0.09	756734	keystroke_r	r	n/a
378.472	0.105	756944	keystroke_Key.space	Key.space	n/a
379.282	0.09	758564	keystroke_m	m	n/a
379.507	0.06	759014	keystroke_e	e	n/a
379.657	0.075	759314	keystroke_e	e	n/a
379.822	0.09	759644	keystroke_t	t	n/a
379.927	0.12	759854	keystroke_i	i	n/a
379.972	0.105	759944	keystroke_n	n	n/a
380.812	0.075	761624	keystroke_g	g	n/a
380.932	0.12	761864	keystroke_s	s	n/a
381.202	0.105	762404	keystroke_Key.space	Key.space	n/a
381.742	0.12	763484	keystroke_r	r	n/a
381.817	0.105	763634	keystroke_e	e	n/a
381.967	0.12	763934	keystroke_n	n	n/a
382.072	0.06	764144	keystroke_d	d	n/a
382.222	0.105	764444	keystroke_e	e	n/a
382.267	0.105	764534	keystroke_r	r	n/a
382.402	0.075	764804	keystroke_Key.space	Key.space	n/a
382.627	0.075	765254	keystroke_b	b	n/a
382.912	0.09	765824	keystroke_l	l	n/a
383.152	0.06	766304	keystroke_o	o	n/a
383.287	0.075	766574	keystroke_o	o	n/a
383.467	0.075	766934	keystroke_m	m	n/a
385.619	0.024	771238	keystroke_Key.enter	Key.enter	n/a
385.65	13.7795	771300	prompt	n/a	authorization baghdad indicated user\n
386.4075	0.149	772815	keystroke_a	a	n/a
386.5425	0.06	773085	keystroke_u	u	n/a
386.6775	0.105	773355	keystroke_t	t	n/a
386.7675	0.06	773535	keystroke_h	h	n/a
386.8425	0.105	773685	keystroke_o	o	n/a
386.9625	0.105	773925	keystroke_r	r	n/a
387.0825	0.09	774165	keystroke_i	i	n/a
387.2325	0.075	774465	keystroke_z	z	n/a
387.3975	0.105	774795	keystroke_a	a	n/a
387.5775	0.149	775155	keystroke_t	t	n/a
387.6825	0.09	775365	keystroke_i	i	n/a
387.8025	0.18	775605	keystroke_o	o	n/a
387.9075	0.105	775815	keystroke_n	n	n/a
388.0425	0.12	776085	keystroke_Key.space	Key.space	n/a
388.3275	0.06	776655	keystroke_b	b	n/a
388.4325	0.105	776865	keystroke_a	a	n/a
388.6125	0.09	777225	keystroke_d	d	n/a
389.3475	0.06	778695	keystroke_h	h	n/a
389.7675	0.105	779535	keystroke_d	d	n/a
389.8575	0.105	779715	keystroke_a	a	n/a
390.0225	0.105	780045	keystroke_d	d	n/a
390.1875	0.09	780375	keystroke_Key.space	Key.space	n/a
392.0925	0.09	784185	keystroke_Key.backspace	Key.backspace	n/a
392.3625	0.12	784725	keystroke_Key.backspace	Key.backspace	n/a
392.6175	0.105	785235	keystroke_Key.backspace	Key.backspace	n/a
392.8875	0.105	785775	keystroke_Key.backspace	Key.backspace	n/a
393.1575	0.12	786315	keystroke_Key.backspace	Key.backspace	n/a
393.4275	0.09	786855	keystroke_Key.backspace	Key.backspace	n/a
393.6675	0.075	787335	keystroke_g	g	n/a
393.7875	0.06	787575	keystroke_h	h	n/a
394.5225	0.09	789045	keystroke_d	d	n/a
394.6275	0.12	789255	keystroke_a	a	n/a
394.8375	0.09	789675	keystroke_d	d	n/a
394.9875	0.105	789975	keystroke_Key.space	Key.space	n/a
396.5025	0.09	793005	keystroke_i	i	n/a
396.6075	0.09	793215	keystroke_n	n	n/a
396.8175	0.09	793635	keystroke_d	d	n/a
396.9225	0.105	793845	keystroke_i	i	n/a
397.0425	0.105	794085	keystroke_c	c	n/a
397.1325	0.18	794265	keystroke_a	a	n/a
397.2675	0.15	794535	keystroke_t	t	n/a
397.3575	0.105	794715	keystroke_e	e	n/a
397.5525	0.12	795105	keystroke_d	d	n/a
397.6575	0.09	795315	keystroke_Key.space	Key.space	n/a
397.9575	0.075	795915	keystroke_u	u	n/a
398.0625	0.21	796125	keystroke_s	s	n/a
398.2275	0.165	796455	keystroke_e	e	n/a
398.3625	0.12	796725	keystroke_r	r	n/a
399.3075	0.12	798615	keystroke_Key.enter	Key.enter	n/a
399.4335	9.8505	798867	prompt	n/a	securely thank reviewer controversial\n
400.3425	0.105	800685	keystroke_s	s	n/a
400.4925	0.075	800985	keystroke_e	e	n/a
400.7475	0.105	801495	keystroke_c	c	n/a
400.8825	0.075	801765	keystroke_u	u	n/a
401.0025	0.165	802005	keystroke_r	r	n/a
401.1075	0.12	802215	keystroke_e	e	n/a
401.2425	0.09	802485	keystroke_l	l	n/a
401.4375	0.06	802875	keystroke_y	y	n/a
401.6025	0.105	803205	keystroke_Key.space	Key.space	n/a
402.1275	0.12	804255	keystroke_t	t	n/a
402.2475	0.075	804495	keystroke_h	h	n/a
402.3375	0.135	804675	keystroke_a	a	n/a
402.4425	0.075	804885	keystroke_n	n	n/a
402.5775	0.105	805155	keystroke_k	k	n/a
402.7275	0.105	805455	keystroke_Key.space	Key.space	n/a
403.4775	0.105	806955	keystroke_r	r	n/a
403.5375	0.09	807075	keystroke_e	e	n/a
404.0325	0.135	808065	keystroke_v	v	n/a
404.3175	0.09	808635	keystroke_i	i	n/a
404.5875	0.105	809175	keystroke_e	e	n/a
404.7075	0.12	809415	keystroke_w	w	n/a
404.9925	0.135	809985	keystroke_e	e	n/a
405.3525	0.105	810705	keystroke_r	r	n/a
405.5775	0.09	811155	keystroke_Key.space	Key.space	n/a
406.3275	0.105	812655	keystroke_c	c	n/a
406.4925	0.105	812985	keystroke_o	o	n/a
406.6425	0.09	813285	keystroke_n	n	n/a
406.7775	0.075	813555	keystroke_t	t	n/a
406.9875	0.105	813975	keystroke_r	r	n/a
407.1075	0.105	814215	keystroke_o	o	n/a
407.2875	0.105	814575	keystroke_v	v	n/a
407.4675	0.135	814935	keystroke_e	e	n/a
407.5725	0.09	815145	keystroke_r	r	n/a
408.3075	0.12	816615	keystroke_s	s	n/a
408.3975	0.09	816795	keystroke_i	i	n/a
408.5325	0.15	817065	keystroke_a	a	n/a
408.6225	0.105	817245	keystroke_l	l	n/a
409.1775	0.105	818355	keystroke_Key.enter	Key.enter	n/a
409.2895	7.24	818579	prompt	n/a	talented creation kyle vertex\n
409.9575	0.09	819915	keystroke_t	t	n/a
410.1075	0.15	820215	keystroke_a	a	n/a
410.4675	0.1045	820935	keystroke_l	l	n/a
410.5575	0.105	821115	keystroke_e	e	n/a
410.692	0.0755	821384	keystroke_n	n	n/a
410.8125	0.0745	821625	keystroke_t	t	n/a
410.8575	0.1195	821715	keystroke_e	e	n/a
411.097	0.0905	822194	keystroke_d	d	n/a
411.1875	0.1045	822375	keystroke_Key.space	Key.space	n/a
411.592	0.075	823184	keystroke_c	c	n/a
411.817	0.135	823634	keystroke_r	r	n/a
411.8775	0.1345	823755	keystroke_e	e	n/a
412.1325	0.1195	824265	keystroke_a	a	n/a
412.267	0.105	824534	keystroke_t	t	n/a
412.417	0.105	824834	keystroke_i	i	n/a
412.5375	0.1795	825075	keystroke_o	o	n/a
412.657	0.09	825314	keystroke_n	n	n/a
412.7625	0.0895	825525	keystroke_Key.space	Key.space	n/a
412.942	0.09	825884	keystroke_k	k	n/a
413.392	0.06	826784	keystroke_y	y	n/a
413.692	0.105	827384	keystroke_l	l	n/a
413.812	0.09	827624	keystroke_e	e	n/a
413.947	0.075	827894	keystroke_Key.space	Key.space	n/a
414.997	0.09	829994	keystroke_v	v	n/a
415.312	0.105	830624	keystroke_e	e	n/a
415.477	0.075	830954	keystroke_r	r	n/a
415.702	0.06	831404	keystroke_t	t	n/a
415.867	0.09	831734	keystroke_e	e	n/a
416.137	0.075	832274	keystroke_x	x	n/a
416.437	0.09	832874	keystroke_Key.enter	Key.enter	n/a
416.5345	7.18	833069	prompt	n/a	even origin deviant diagram\n
417.247	0.075	834494	keystroke_e	e	n/a
417.472	0.075	834944	keystroke_v	v	n/a
417.517	0.105	835034	keystroke_e	e	n/a
417.697	0.105	835394	keystroke_n	n	n/a
417.817	0.075	835634	keystroke_Key.space	Key.space	n/a
418.012	0.09	836024	keystroke_o	o	n/a
418.103	0.074	836206	keystroke_r	r	n/a
418.222	0.075	836444	keystroke_i	i	n/a
418.327	0.09	836654	keystroke_g	g	n/a
418.447	0.105	836894	keystroke_i	i	n/a
418.507	0.105	837014	keystroke_n	n	n/a
419.362	0.105	838724	keystroke_Key.space	Key.space	n/a
419.647	0.076	839294	keystroke_d	d	n/a
420.067	0.075	840134	keystroke_e	e	n/a
420.337	0.09	840674	keystroke_v	v	n/a
420.517	0.09	841034	keystroke_i	i	n/a
420.682	0.135	841364	keystroke_a	a	n/a
420.832	0.075	841664	keystroke_n	n	n/a
420.922	0.12	841844	keystroke_t	t	n/a
421.057	0.09	842114	keystroke_Key.space	Key.space	n/a
421.402	0.105	842804	keystroke_d	d	n/a
421.537	0.09	843074	keystroke_i	i	n/a
421.642	0.135	843284	keystroke_a	a	n/a
421.822	0.09	843644	keystroke_g	g	n/a
422.602	0.12	845204	keystroke_r	r	n/a
422.692	0.135	845384	keystroke_a	a	n/a
422.947	0.105	845894	keystroke_m	m	n/a
423.622	0.09	847244	keystroke_Key.enter	Key.enter	n/a
423.719	8.155	847438	prompt	n/a	hope channel debug warned\n
424.372	0.06	848744	keystroke_h	h	n/a
424.507	0.105	849014	keystroke_o	o	n/a
424.717	0.09	849434	keystroke_p	p	n/a
424.867	0.09	849734	keystroke_e	e	n/a
425.002	0.06	850004	keystroke_Key.space	Key.space	n/a
425.257	0.09	850514	keystroke_c	c	n/a
425.348	0.059	850696	keystroke_h	h	n/a
425.512	0.12	851024	keystroke_a	a	n/a
425.662	0.06	851324	keystroke_n	n	n/a
425.797	0.075	851594	keystroke_n	n	n/a
425.947	0.105	851894	keystroke_e	e	n/a
426.067	0.105	852134	keystroke_l	l	n/a
426.187	0.09	852374	keystroke_Key.space	Key.space	n/a
426.382	0.075	852764	keystroke_d	d	n/a
426.577	0.09	853154	keystroke_e	e	n/a
426.847	0.075	853694	keystroke_b	b	n/a
427.102	0.045	854204	keystroke_u	u	n/a
427.312	0.09	854624	keystroke_t	t	n/a
428.077	0.105	856154	keystroke_Key.backspace	Key.backspace	n/a
428.272	0.06	856544	keystroke_g	g	n/a
428.587	0.09	857174	keystroke_Key.space	Key.space	n/a
429.052	0.09	858104	keystroke_w	w	n/a
429.247	0.165	858494	keystroke_a	a	n/a
429.382	0.15	858764	keystroke_r	r	n/a
429.547	0.105	859094	keystroke_n	n	n/a
430.252	0.09	860504	keystroke_d	d	n/a
430.912	0.075	861824	keystroke_Key.backspace	Key.backspace	n/a
431.003	0.074	862006	keystroke_e	e	n/a
431.182	0.09	862364	keystroke_d	d	n/a
431.782	0.09	863564	keystroke_Key.enter	Key.enter	n/a
431.8785	11.6955	863757	prompt	n/a	reactions support gerald halo\n
432.668	0.12	865336	keystroke_r	r	n/a
432.742	0.09	865484	keystroke_e	e	n/a
432.9825	0.06	865965	keystroke_c	c	n/a
433.7775	0.06	867555	keystroke_Key.backspace	Key.backspace	n/a
433.9125	0.105	867825	keystroke_a	a	n/a
434.1525	0.09	868305	keystroke_c	c	n/a
434.3475	0.12	868695	keystroke_t	t	n/a
434.4825	0.12	868965	keystroke_i	i	n/a
434.5875	0.15	869175	keystroke_o	o	n/a
434.6775	0.12	869355	keystroke_n	n	n/a
434.8425	0.12	869685	keystroke_s	s	n/a
434.9775	0.09	869955	keystroke_Key.space	Key.space	n/a
435.2775	0.135	870555	keystroke_s	s	n/a
435.3975	0.06	870795	keystroke_u	u	n/a
435.6075	0.075	871215	keystroke_p	p	n/a
435.8025	0.075	871605	keystroke_p	p	n/a
435.9825	0.09	871965	keystroke_o	o	n/a
436.1175	0.075	872235	keystroke_r	r	n/a
436.3125	0.075	872625	keystroke_t	t	n/a
436.4325	0.105	872865	keystroke_Key.space	Key.space	n/a
436.9875	0.105	873975	keystroke_g	g	n/a
437.2275	0.09	874455	keystroke_e	e	n/a
437.4075	0.135	874815	keystroke_r	r	n/a
437.5575	0.135	875115	keystroke_a	a	n/a
437.7375	0.12	875475	keystroke_l	l	n/a
437.8875	0.12	875775	keystroke_d	d	n/a
437.9925	0.105	875985	keystroke_Key.space	Key.space	n/a
442.3155	0	884631	keystroke_h	h	n/a
442.4025	0.12	884805	keystroke_a	a	n/a
442.5225	0.09	885045	keystroke_l	l	n/a
442.7475	0.075	885495	keystroke_o	o	n/a
443.4825	0.09	886965	keystroke_Key.enter	Key.enter	n/a
443.578	8.171	887156	prompt	n/a	congratulations fortune approve higher\n
444.3375	0.135	888675	keystroke_c	c	n/a
444.5625	0.09	889125	keystroke_o	o	n/a
444.6375	0.12	889275	keystroke_n	n	n/a
444.8775	0.12	889755	keystroke_g	g	n/a
445.6425	0.12	891285	keystroke_r	r	n/a
445.7325	0.15	891465	keystroke_a	a	n/a
445.9425	0.12	891885	keystroke_t	t	n/a
446.0475	0.06	892095	keystroke_u	u	n/a
446.2275	0.105	892455	keystroke_l	l	n/a
446.3025	0.165	892605	keystroke_a	a	n/a
446.4225	0.135	892845	keystroke_t	t	n/a
446.5275	0.105	893055	keystroke_i	i	n/a
446.6475	0.12	893295	keystroke_o	o	n/a
446.7225	0.105	893445	keystroke_n	n	n/a
446.8575	0.135	893715	keystroke_s	s	n/a
447.0075	0.09	894015	keystroke_Key.space	Key.space	n/a
447.7725	0.105	895545	keystroke_f	f	n/a
447.9225	0.12	895845	keystroke_o	o	n/a
448.0275	0.09	896055	keystroke_r	r	n/a
448.3575	0.12	896715	keystroke_t	t	n/a
448.4625	0.045	896925	keystroke_u	u	n/a
448.6275	0.09	897255	keystroke_n	n	n/a
448.7025	0.12	897405	keystroke_e	e	n/a
448.8225	0.105	897645	keystroke_Key.space	Key.space	n/a
449.0325	0.1345	898065	keystroke_a	a	n/a
449.152	0.075	898304	keystroke_p	p	n/a
449.3175	0.1195	898635	keystroke_p	p	n/a
449.542	0.0905	899084	keystroke_r	r	n/a
449.6025	0.12	899205	keystroke_o	o	n/a
449.827	0.1055	899654	keystroke_v	v	n/a
449.917	0.12	899834	keystroke_e	e	n/a
450.082	0.1055	900164	keystroke_Key.space	Key.space	n/a
450.472	0.09	900944	keystroke_h	h	n/a
450.5475	0.1045	901095	keystroke_i	i	n/a
450.653	0.089	901306	keystroke_g	g	n/a
450.772	0.105	901544	keystroke_h	h	n/a
451.057	0.135	902114	keystroke_e	e	n/a
451.1475	0.1045	902295	keystroke_r	r	n/a
451.642	0.105	903284	keystroke_Key.enter	Key.enter	n/a
451.7525	8.1115	903505	prompt	n/a	simplified fares brands forum\n
452.422	0.136	904844	keystroke_s	s	n/a
452.5275	0.0745	905055	keystroke_i	i	n/a
452.6625	0.1045	905325	keystroke_m	m	n/a
452.842	0.06	905684	keystroke_p	p	n/a
453.0675	0.0895	906135	keystroke_l	l	n/a
453.217	0.075	906434	keystroke_i	i	n/a
453.367	0.09	906734	keystroke_f	f	n/a
453.847	0.09	907694	keystroke_i	i	n/a
453.967	0.06	907934	keystroke_e	e	n/a
454.147	0.135	908294	keystroke_d	d	n/a
454.447	0.105	908894	keystroke_Key.space	Key.space	n/a
455.287	0.105	910574	keystroke_f	f	n/a
455.422	0.15	910844	keystroke_a	a	n/a
455.587	0.135	911174	keystroke_r	r	n/a
455.662	0.105	911324	keystroke_e	e	n/a
455.902	0.105	911804	keystroke_s	s	n/a
455.992	0.12	911984	keystroke_Key.space	Key.space	n/a
456.292	0.075	912584	keystroke_b	b	n/a
456.412	0.105	912824	keystroke_r	r	n/a
456.472	0.135	912944	keystroke_a	a	n/a
456.622	0.075	913244	keystroke_n	n	n/a
456.727	0.105	913454	keystroke_d	d	n/a
457.522	0.105	915044	keystroke_s	s	n/a
457.747	0.105	915494	keystroke_Key.space	Key.space	n/a
458.512	0.075	917024	keystroke_f	f	n/a
458.617	0.105	917234	keystroke_o	o	n/a
458.737	0.09	917474	keystroke_r	r	n/a
458.857	0.06	917714	keystroke_u	u	n/a
459.037	0.09	918074	keystroke_m	m	n/a
459.757	0.105	919514	keystroke_Key.enter	Key.enter	n/a
459.8695	6.3395	919739	prompt	n/a	logged discs anytime badly\n
460.447	0.09	920894	keystroke_l	l	n/a
460.657	0.075	921314	keystroke_o	o	n/a
461.167	0.075	922334	keystroke_g	g	n/a
461.287	0.09	922574	keystroke_g	g	n/a
461.422	0.09	922844	keystroke_e	e	n/a
461.602	0.12	923204	keystroke_d	d	n/a
461.692	0.12	923384	keystroke_Key.space	Key.space	n/a
461.977	0.09	923954	keystroke_d	d	n/a
462.082	0.09	924164	keystroke_i	i	n/a
462.202	0.105	924404	keystroke_s	s	n/a
462.427	0.09	924854	keystroke_c	c	n/a
462.622	0.105	925244	keystroke_s	s	n/a
462.7875	0.0895	925575	keystroke_Key.space	Key.space	n/a
463.072	0.135	926144	keystroke_a	a	n/a
463.162	0.06	926324	keystroke_n	n	n/a
463.357	0.045	926714	keystroke_y	y	n/a
463.507	0.09	927014	keystroke_t	t	n/a
463.612	0.12	927224	keystroke_i	i	n/a
463.717	0.09	927434	keystroke_m	m	n/a
463.837	0.105	927674	keystroke_e	e	n/a
464.032	0.09	928064	keystroke_Key.space	Key.space	n/a
464.857	0.075	929714	keystroke_b	b	n/a
465.007	0.12	930014	keystroke_a	a	n/a
465.172	0.09	930344	keystroke_d	d	n/a
465.337	0.09	930674	keystroke_l	l	n/a
465.547	0.045	931094	keystroke_y	y	n/a
466.102	0.105	932204	keystroke_Key.enter	Key.enter	n/a
466.2165	7.0275	932433	prompt	n/a	moisture battery privilege potter\n
466.927	0.075	933854	keystroke_m	m	n/a
467.077	0.12	934154	keystroke_o	o	n/a
467.347	0.075	934694	keystroke_i	i	n/a
467.512	0.105	935024	keystroke_s	s	n/a
467.677	0.09	935354	keystroke_t	t	n/a
467.827	0.06	935654	keystroke_u	u	n/a
467.917	0.1045	935834	keystroke_r	r	n/a
467.977	0.1205	935954	keystroke_e	e	n/a
468.1415	0.105	936283	keystroke_Key.space	Key.space	n/a
468.3525	0.075	936705	keystroke_b	b	n/a
468.4575	0.135	936915	keystroke_a	a	n/a
468.6965	0.075	937393	keystroke_t	t	n/a
468.8165	0.076	937633	keystroke_t	t	n/a
468.9675	0.165	937935	keystroke_e	e	n/a
469.1025	0.12	938205	keystroke_r	r	n/a
469.2675	0.089	938535	keystroke_y	y	n/a
469.3715	0.105	938743	keystroke_Key.space	Key.space	n/a
469.6125	0.104	939225	keystroke_p	p	n/a
469.8075	0.089	939615	keystroke_r	r	n/a
470.4515	0.09	940903	keystroke_i	i	n/a
470.6325	0.105	941265	keystroke_v	v	n/a
470.7825	0.09	941565	keystroke_i	i	n/a
471.1115	0.106	942223	keystroke_l	l	n/a
471.2015	0.091	942403	keystroke_e	e	n/a
471.4125	0.12	942825	keystroke_g	g	n/a
471.4875	0.15	942975	keystroke_e	e	n/a
471.6225	0.105	943245	keystroke_Key.space	Key.space	n/a
471.9075	0.105	943815	keystroke_p	p	n/a
472.0875	0.105	944175	keystroke_o	o	n/a
472.4025	0.06	944805	keystroke_t	t	n/a
472.5375	0.075	945075	keystroke_t	t	n/a
472.6725	0.135	945345	keystroke_e	e	n/a
472.7775	0.075	945555	keystroke_r	r	n/a
473.1365	0.106	946273	keystroke_Key.enter	Key.enter	n/a
473.249	10.976	946498	prompt	n/a	clearing battlefield assigned fabric\n
473.9765	0.091	947953	keystroke_c	c	n/a
474.1425	0.12	948285	keystroke_l	l	n/a
474.2775	0.135	948555	keystroke_e	e	n/a
474.3975	0.15	948795	keystroke_a	a	n/a
474.4875	0.119	948975	keystroke_r	r	n/a
474.6375	0.135	949275	keystroke_i	i	n/a
474.6975	0.09	949395	keystroke_n	n	n/a
474.8015	0.091	949603	keystroke_g	g	n/a
474.8775	0.09	949755	keystroke_Key.space	Key.space	n/a
475.2825	0.06	950565	keystroke_b	b	n/a
475.4025	0.135	950805	keystroke_a	a	n/a
475.6425	0.045	951285	keystroke_t	t	n/a
475.7475	0.105	951495	keystroke_t	t	n/a
475.9875	0.09	951975	keystroke_l	l	n/a
476.1075	0.09	952215	keystroke_e	e	n/a
476.2575	0.09	952515	keystroke_Key.space	Key.space	n/a
477.2775	0.09	954555	keystroke_Key.backspace	Key.backspace	n/a
477.6225	0.09	955245	keystroke_f	f	n/a
477.6975	0.09	955395	keystroke_i	i	n/a
477.8475	0.075	955695	keystroke_e	e	n/a
477.9825	0.105	955965	keystroke_l	l	n/a
478.1025	0.09	956205	keystroke_d	d	n/a
478.2225	0.09	956445	keystroke_Key.space	Key.space	n/a
478.4325	0.12	956865	keystroke_a	a	n/a
478.6575	0.075	957315	keystroke_s	s	n/a
478.8075	0.135	957615	keystroke_s	s	n/a
478.9275	0.09	957855	keystroke_i	i	n/a
479.0625	0.12	958125	keystroke_g	g	n/a
479.1675	0.09	958335	keystroke_n	n	n/a
479.2875	0.075	958575	keystroke_e	e	n/a
479.6325	0.075	959265	keystroke_d	d	n/a
479.7975	0.09	959595	keystroke_Key.space	Key.space	n/a
480.9225	0.135	961845	keystroke_f	f	n/a
481.1475	0.165	962295	keystroke_a	a	n/a
481.2975	0.075	962595	keystroke_b	b	n/a
481.3575	0.03	962715	keystroke_a	a	n/a
481.6125	0.075	963225	keystroke_r	r	n/a
481.6725	0.06	963345	keystroke_i	i	n/a
482.6175	0.09	965235	keystroke_Key.backspace	Key.backspace	n/a
482.8125	0.105	965625	keystroke_Key.backspace	Key.backspace	n/a
483.0675	0.105	966135	keystroke_Key.backspace	Key.backspace	n/a
483.4575	0.0895	966915	keystroke_r	r	n/a
483.592	0.1055	967184	keystroke_i	i	n/a
483.7275	0.1045	967455	keystroke_c	c	n/a
484.1175	0.1045	968235	keystroke_Key.enter	Key.enter	n/a
484.2295	9.4295	968459	prompt	n/a	couldn't quote ghana contracting\n
484.912	0.135	969824	keystroke_c	c	n/a
485.0025	0.1345	970005	keystroke_o	o	n/a
485.1075	0.0595	970215	keystroke_u	u	n/a
485.257	0.09	970514	keystroke_l	l	n/a
485.362	0.09	970724	keystroke_d	d	n/a
485.497	0.09	970994	keystroke_n	n	n/a
485.977	0.12	971954	keystroke_'	'	n/a
486.112	0.075	972224	keystroke_t	t	n/a
486.232	0.105	972464	keystroke_Key.space	Key.space	n/a
487.432	0.15	974864	keystroke_q	q	n/a
487.612	0.0605	975224	keystroke_u	u	n/a
487.852	0.09	975704	keystroke_o	o	n/a
487.972	0.12	975944	keystroke_t	t	n/a
488.0475	0.1495	976095	keystroke_e	e	n/a
488.182	0.09	976364	keystroke_Key.space	Key.space	n/a
488.857	0.12	977714	keystroke_g	g	n/a
489.157	0.075	978314	keystroke_h	h	n/a
489.277	0.135	978554	keystroke_a	a	n/a
489.427	0.09	978854	keystroke_n	n	n/a
489.532	0.135	979064	keystroke_a	a	n/a
489.668	0.104	979336	keystroke_Key.space	Key.space	n/a
490.717	0.12	981434	keystroke_c	c	n/a
490.897	0.105	981794	keystroke_o	o	n/a
491.032	0.12	982064	keystroke_n	n	n/a
491.167	0.09	982334	keystroke_t	t	n/a
491.362	0.09	982724	keystroke_r	r	n/a
492.082	0.12	984164	keystroke_a	a	n/a
492.352	0.105	984704	keystroke_c	c	n/a
492.532	0.09	985064	keystroke_t	t	n/a
492.637	0.12	985274	keystroke_i	i	n/a
492.682	0.12	985364	keystroke_n	n	n/a
492.817	0.09	985634	keystroke_g	g	n/a
493.567	0.09	987134	keystroke_Key.enter	Key.enter	n/a
493.6655	9.534	987331	prompt	n/a	chicks objective shareholders underground\n
494.542	0.135	989084	keystroke_c	c	n/a
494.678	0.059	989356	keystroke_h	h	n/a
494.827	0.075	989654	keystroke_i	i	n/a
495.187	0.09	990374	keystroke_c	c	n/a
495.307	0.09	990614	keystroke_k	k	n/a
495.442	0.105	990884	keystroke_Key.space	Key.space	n/a
496.087	0.09	992174	keystroke_o	o	n/a
496.297	0.06	992594	keystroke_b	b	n/a
497.137	0.09	994274	keystroke_j	j	n/a
497.242	0.045	994484	keystroke_e	e	n/a
497.422	0.165	994844	keystroke_c	c	n/a
497.572	0.105	995144	keystroke_t	t	n/a
497.722	0.105	995444	keystroke_i	i	n/a
497.872	0.105	995744	keystroke_v	v	n/a
497.932	0.15	995864	keystroke_e	e	n/a
498.097	0.075	996194	keystroke_Key.space	Key.space	n/a
499.027	0.12	998054	keystroke_s	s	n/a
499.162	0.075	998324	keystroke_h	h	n/a
499.267	0.18	998534	keystroke_a	a	n/a
499.432	0.15	998864	keystroke_r	r	n/a
499.507	0.135	999014	keystroke_e	e	n/a
499.762	0.06	999524	keystroke_h	h	n/a
499.882	0.09	999764	keystroke_o	o	n/a
500.062	0.105	1000124	keystroke_l	l	n/a
500.167	0.075	1000334	keystroke_d	d	n/a
500.392	0.075	1000784	keystroke_e	e	n/a
500.422	0.075	1000844	keystroke_r	r	n/a
500.632	0.09	1001264	keystroke_s	s	n/a
500.767	0.12	1001534	keystroke_Key.space	Key.space	n/a
501.292	0.06	1002584	keystroke_u	u	n/a
501.472	0.075	1002944	keystroke_n	n	n/a
501.577	0.06	1003154	keystroke_d	d	n/a
501.757	0.12	1003514	keystroke_e	e	n/a
501.817	0.09	1003634	keystroke_r	r	n/a
502.072	0.075	1004144	keystroke_g	g	n/a
502.267	0.105	1004534	keystroke_r	r	n/a
502.342	0.105	1004684	keystroke_o	o	n/a
502.432	0.06	1004864	keystroke_u	u	n/a
502.597	0.121	1005194	keystroke_n	n	n/a
502.732	0.06	1005464	keystroke_d	d	n/a
503.092	0.105	1006184	keystroke_Key.enter	Key.enter	n/a
503.2065	12.2175	1006413	prompt	n/a	typing teens ministry escape\n
503.962	0.09	1007924	keystroke_t	t	n/a
504.097	0.075	1008194	keystroke_y	y	n/a
504.217	0.09	1008434	keystroke_r	r	n/a
504.292	0.105	1008584	keystroke_p	p	n/a
504.502	0.105	1009004	keystroke_i	i	n/a
504.577	0.105	1009154	keystroke_n	n	n/a
504.697	0.09	1009394	keystroke_g	g	n/a
504.802	0.09	1009604	keystroke_Key.space	Key.space	n/a
505.267	0.075	1010534	keystroke_t	t	n/a
505.462	0.06	1010924	keystroke_e	e	n/a
505.582	0.075	1011164	keystroke_e	e	n/a
505.687	0.12	1011374	keystroke_n	n	n/a
505.837	0.12	1011674	keystroke_s	s	n/a
506.017	0.105	1012034	keystroke_Key.space	Key.space	n/a
506.362	0.09	1012724	keystroke_Key.backspace	Key.backspace	n/a
506.602	0.105	1013204	keystroke_Key.backspace	Key.backspace	n/a
506.842	0.09	1013684	keystroke_Key.backspace	Key.backspace	n/a
507.052	0.09	1014104	keystroke_Key.backspace	Key.backspace	n/a
507.277	0.105	1014554	keystroke_Key.backspace	Key.backspace	n/a
507.502	0.105	1015004	keystroke_Key.backspace	Key.backspace	n/a
507.727	0.105	1015454	keystroke_Key.backspace	Key.backspace	n/a
507.937	0.105	1015874	keystroke_Key.backspace	Key.backspace	n/a
508.177	0.09	1016354	keystroke_Key.backspace	Key.backspace	n/a
508.402	0.12	1016804	keystroke_Key.backspace	Key.backspace	n/a
508.672	0.09	1017344	keystroke_Key.backspace	Key.backspace	n/a
508.9265	0.09	1017853	keystroke_Key.backspace	Key.backspace	n/a
509.6615	0.105	1019323	keystroke_p	p	n/a
510.1865	0.105	1020373	keystroke_i	i	n/a
510.2615	0.09	1020523	keystroke_n	n	n/a
510.3965	0.105	1020793	keystroke_g	g	n/a
510.5315	0.075	1021063	keystroke_Key.space	Key.space	n/a
511.4765	0.075	1022953	keystroke_t	t	n/a
511.6715	0.075	1023343	keystroke_e	e	n/a
511.7915	0.09	1023583	keystroke_e	e	n/a
511.9125	0.104	1023825	keystroke_n	n	n/a
512.0315	0.18	1024063	keystroke_s	s	n/a
512.1515	0.135	1024303	keystroke_Key.space	Key.space	n/a
512.4215	0.075	1024843	keystroke_m	m	n/a
512.5265	0.105	1025053	keystroke_i	i	n/a
512.8425	0.074	1025685	keystroke_n	n	n/a
512.9315	0.12	1025863	keystroke_i	i	n/a
513.0365	0.165	1026073	keystroke_s	s	n/a
513.2165	0.075	1026433	keystroke_t	t	n/a
513.4265	0.105	1026853	keystroke_r	r	n/a
513.5765	0.06	1027153	keystroke_y	y	n/a
513.6665	0.105	1027333	keystroke_Key.space	Key.space	n/a
513.8765	0.075	1027753	keystroke_e	e	n/a
514.0575	0.074	1028115	keystroke_s	s	n/a
514.2665	0.121	1028533	keystroke_c	c	n/a
514.4015	0.12	1028803	keystroke_a	a	n/a
514.5525	0.119	1029105	keystroke_p	p	n/a
514.6865	0.076	1029373	keystroke_e	e	n/a
515.3015	0.12	1030603	keystroke_Key.enter	Key.enter	n/a
515.4295	10.8095	1030859	prompt	n/a	greeting terry hungarian prospect\n
516.1575	0.059	1032315	keystroke_g	g	n/a
516.3525	0.09	1032705	keystroke_r	r	n/a
516.5165	0.09	1033033	keystroke_e	e	n/a
516.7275	0.105	1033455	keystroke_e	e	n/a
516.9375	0.075	1033875	keystroke_t	t	n/a
517.0575	0.134	1034115	keystroke_i	i	n/a
517.1475	0.09	1034295	keystroke_n	n	n/a
517.2375	0.119	1034475	keystroke_g	g	n/a
517.3415	0.09	1034683	keystroke_Key.space	Key.space	n/a
517.6715	0.076	1035343	keystroke_t	t	n/a
517.8375	0.104	1035675	keystroke_e	e	n/a
518.0625	0.044	1036125	keystroke_r	r	n/a
518.1825	0.105	1036365	keystroke_r	r	n/a
518.3325	0.06	1036665	keystroke_y	y	n/a
518.4215	0.12	1036843	keystroke_Key.space	Key.space	n/a
518.7525	0.06	1037505	keystroke_h	h	n/a
518.9315	0.046	1037863	keystroke_u	u	n/a
519.1115	0.075	1038223	keystroke_n	n	n/a
519.2615	0.105	1038523	keystroke_g	g	n/a
519.4415	0.225	1038883	keystroke_a	a	n/a
519.6965	0.09	1039393	keystroke_r	r	n/a
519.9215	0.09	1039843	keystroke_i	i	n/a
520.0565	0.12	1040113	keystroke_a	a	n/a
520.1615	0.091	1040323	keystroke_n	n	n/a
520.3115	0.091	1040623	keystroke_Key.space	Key.space	n/a
522.2475	0.105	1044495	keystroke_p	p	n/a
522.4715	0.075	1044943	keystroke_r	r	n/a
522.5325	0.12	1045065	keystroke_o	o	n/a
522.7125	0.105	1045425	keystroke_s	s	n/a
522.9375	0.12	1045875	keystroke_p	p	n/a
523.0425	0.075	1046085	keystroke_e	e	n/a
523.252	0.1195	1046504	keystroke_c	c	n/a
523.4165	0.091	1046833	keystroke_t	t	n/a
526.195	0.041	1052390	keystroke_Key.enter	Key.enter	n/a
526.2435	9.7615	1052487	prompt	n/a	newfoundland fridge taylor tracker\n
527.632	0.075	1055264	keystroke_n	n	n/a
527.721	0.091	1055442	keystroke_e	e	n/a
527.902	0.09	1055804	keystroke_w	w	n/a
528.352	0.105	1056704	keystroke_f	f	n/a
528.427	0.075	1056854	keystroke_o	o	n/a
528.486	0.06	1056972	keystroke_u	u	n/a
528.682	0.075	1057364	keystroke_n	n	n/a
528.892	0.105	1057784	keystroke_d	d	n/a
529.057	0.105	1058114	keystroke_l	l	n/a
529.147	0.119	1058294	keystroke_a	a	n/a
529.252	0.0755	1058504	keystroke_n	n	n/a
529.357	0.075	1058714	keystroke_d	d	n/a
529.492	0.06	1058984	keystroke_Key.space	Key.space	n/a
530.257	0.075	1060514	keystroke_f	f	n/a
530.466	0.061	1060932	keystroke_r	r	n/a
530.541	0.091	1061082	keystroke_i	i	n/a
530.647	0.075	1061294	keystroke_d	d	n/a
530.857	0.12	1061714	keystroke_g	g	n/a
530.947	0.119	1061894	keystroke_e	e	n/a
531.082	0.089	1062164	keystroke_Key.space	Key.space	n/a
531.337	0.06	1062674	keystroke_t	t	n/a
531.786	0.136	1063572	keystroke_a	a	n/a
531.952	0.03	1063904	keystroke_y	y	n/a
532.687	0.075	1065374	keystroke_l	l	n/a
532.882	0.075	1065764	keystroke_o	o	n/a
532.972	0.075	1065944	keystroke_r	r	n/a
533.077	0.09	1066154	keystroke_Key.space	Key.space	n/a
533.407	0.06	1066814	keystroke_t	t	n/a
533.542	0.12	1067084	keystroke_r	r	n/a
533.617	0.12	1067234	keystroke_a	a	n/a
534.307	0.075	1068614	keystroke_c	c	n/a
534.397	0.09	1068794	keystroke_k	k	n/a
534.502	0.12	1069004	keystroke_e	e	n/a
534.577	0.09	1069154	keystroke_r	r	n/a
535.8965	0.105	1071793	keystroke_Key.enter	Key.enter	n/a
536.0105	8.318	1072021	prompt	n/a	surgical dark cases flow\n
536.7665	0.135	1073533	keystroke_s	s	n/a
536.9465	0.075	1073893	keystroke_u	u	n/a
537.0815	0.09	1074163	keystroke_r	r	n/a
537.3665	0.075	1074733	keystroke_g	g	n/a
537.4565	0.12	1074913	keystroke_i	i	n/a
537.6815	0.135	1075363	keystroke_c	c	n/a
537.7865	0.165	1075573	keystroke_a	a	n/a
537.9365	0.09	1075873	keystroke_l	l	n/a
538.0565	0.12	1076113	keystroke_Key.space	Key.space	n/a
538.3115	0.09	1076623	keystroke_d	d	n/a
538.4315	0.18	1076863	keystroke_a	a	n/a
538.5665	0.105	1077133	keystroke_r	r	n/a
538.7465	0.09	1077493	keystroke_k	k	n/a
539.1215	0.09	1078243	keystroke_Key.space	Key.space	n/a
539.3315	0.12	1078663	keystroke_c	c	n/a
539.4665	0.15	1078933	keystroke_a	a	n/a
539.7665	0.075	1079533	keystroke_s	s	n/a
539.8115	0.06	1079623	keystroke_e	e	n/a
540.6515	0.12	1081303	keystroke_s	s	n/a
540.7865	0.105	1081573	keystroke_Key.space	Key.space	n/a
541.3575	0.089	1082715	keystroke_f	f	n/a
541.6265	0.075	1083253	keystroke_l	l	n/a
541.7615	0.12	1083523	keystroke_w	w	n/a
541.8515	0.06	1083703	keystroke_o	o	n/a
542.8565	0.09	1085713	keystroke_Key.backspace	Key.backspace	n/a
543.0965	0.09	1086193	keystroke_Key.backspace	Key.backspace	n/a
543.8925	0.089	1087785	keystroke_o	o	n/a
543.9975	0.089	1087995	keystroke_w	w	n/a
544.2365	0.09	1088473	keystroke_Key.enter	Key.enter	n/a
544.333	10.241	1088666	prompt	n/a	championships perl either shape\n
545.0915	0.105	1090183	keystroke_c	c	n/a
545.1815	0.061	1090363	keystroke_h	h	n/a
545.3025	0.134	1090605	keystroke_a	a	n/a
545.4225	0.089	1090845	keystroke_m	m	n/a
545.7365	0.075	1091473	keystroke_p	p	n/a
545.9615	0.06	1091923	keystroke_i	i	n/a
546.2015	0.12	1092403	keystroke_o	o	n/a
546.3065	0.09	1092613	keystroke_n	n	n/a
546.5315	0.135	1093063	keystroke_s	s	n/a
546.6065	0.075	1093213	keystroke_h	h	n/a
546.7115	0.106	1093423	keystroke_i	i	n/a
546.8015	0.105	1093603	keystroke_p	p	n/a
546.9525	0.104	1093905	keystroke_s	s	n/a
547.4165	0.075	1094833	keystroke_Key.space	Key.space	n/a
547.8215	0.106	1095643	keystroke_p	p	n/a
547.9865	0.21	1095973	keystroke_e	e	n/a
548.1815	0.075	1096363	keystroke_r	r	n/a
548.3615	0.09	1096723	keystroke_l	l	n/a
548.9165	0.105	1097833	keystroke_Key.space	Key.space	n/a
549.1565	0.076	1098313	keystroke_e	e	n/a
549.5465	0.075	1099093	keystroke_i	i	n/a
549.6225	0.059	1099245	keystroke_t	t	n/a
549.7265	0.075	1099453	keystroke_h	h	n/a
549.7865	0.09	1099573	keystroke_e	e	n/a
549.7875	0.074	1099575	keystroke_r	r	n/a
549.8915	0.06	1099783	keystroke_r	r	n/a
552.2505	0.041	1104501	keystroke_Key.backspace	Key.backspace	n/a
552.4415	0.075	1104883	keystroke_Key.space	Key.space	n/a
553.4615	0.091	1106923	keystroke_s	s	n/a
553.5665	0.09	1107133	keystroke_h	h	n/a
553.6715	0.12	1107343	keystroke_a	a	n/a
553.7775	0.089	1107555	keystroke_p	p	n/a
553.8825	0.089	1107765	keystroke_e	e	n/a
554.4965	0.075	1108993	keystroke_Key.enter	Key.enter	n/a
554.578	9.356	1109156	prompt	n/a	where's eyes groundwater celebration\n
555.4415	0.12	1110883	keystroke_w	w	n/a
555.5625	0.074	1111125	keystroke_h	h	n/a
555.6965	0.1945	1111393	keystroke_e	e	n/a
555.907	0.1345	1111814	keystroke_r	r	n/a
556.012	0.1045	1112024	keystroke_e	e	n/a
556.911	0.091	1113822	keystroke_'	'	n/a
557.406	0.105	1114812	keystroke_s	s	n/a
557.5265	0.09	1115053	keystroke_Key.space	Key.space	n/a
557.947	0.089	1115894	keystroke_e	e	n/a
558.037	0.089	1116074	keystroke_y	y	n/a
558.142	0.089	1116284	keystroke_e	e	n/a
558.351	0.0905	1116702	keystroke_s	s	n/a
558.5165	0.1045	1117033	keystroke_Key.space	Key.space	n/a
559.177	0.074	1118354	keystroke_g	g	n/a
559.386	0.105	1118772	keystroke_r	r	n/a
559.476	0.105	1118952	keystroke_o	o	n/a
559.536	0.091	1119072	keystroke_u	u	n/a
560.196	0.105	1120392	keystroke_n	n	n/a
560.302	0.075	1120604	keystroke_d	d	n/a
560.721	0.09	1121442	keystroke_w	w	n/a
560.901	0.165	1121802	keystroke_a	a	n/a
561.037	0.105	1122074	keystroke_t	t	n/a
561.201	0.151	1122402	keystroke_e	e	n/a
561.307	0.12	1122614	keystroke_r	r	n/a
561.906	0.09	1123812	keystroke_Key.space	Key.space	n/a
562.146	0.075	1124292	keystroke_c	c	n/a
562.342	0.075	1124684	keystroke_e	e	n/a
562.461	0.106	1124922	keystroke_l	l	n/a
562.552	0.089	1125104	keystroke_e	e	n/a
562.702	0.075	1125404	keystroke_b	b	n/a
562.851	0.106	1125702	keystroke_r	r	n/a
562.941	0.166	1125882	keystroke_a	a	n/a
563.076	0.105	1126152	keystroke_t	t	n/a
563.182	0.089	1126364	keystroke_i	i	n/a
563.286	0.15	1126572	keystroke_o	o	n/a
563.377	0.105	1126754	keystroke_n	n	n/a
563.841	0.091	1127682	keystroke_Key.enter	Key.enter	n/a
563.939	11.1695	1127878	prompt	n/a	bible heaven mario friend\n
564.682	0.075	1129364	keystroke_b	b	n/a
564.847	0.075	1129694	keystroke_i	i	n/a
565.012	0.044	1130024	keystroke_b	b	n/a
565.027	0.015	1130054	keystroke_n	n	n/a
565.147	0.089	1130294	keystroke_l	l	n/a
565.252	0.105	1130504	keystroke_e	e	n/a
565.387	0.089	1130774	keystroke_Key.space	Key.space	n/a
565.536	0.075	1131072	keystroke_h	h	n/a
565.641	0.121	1131282	keystroke_e	e	n/a
565.762	0.12	1131524	keystroke_a	a	n/a
565.957	0.059	1131914	keystroke_v	v	n/a
566.827	0.12	1133654	keystroke_e	e	n/a
566.917	0.075	1133834	keystroke_n	n	n/a
567.531	0.091	1135062	keystroke_Key.backspace	Key.backspace	n/a
567.742	0.105	1135484	keystroke_Key.backspace	Key.backspace	n/a
567.951	0.105	1135902	keystroke_Key.backspace	Key.backspace	n/a
568.177	0.09	1136354	keystroke_Key.backspace	Key.backspace	n/a
568.386	0.106	1136772	keystroke_Key.backspace	Key.backspace	n/a
568.626	0.09	1137252	keystroke_Key.backspace	Key.backspace	n/a
568.836	0.105	1137672	keystroke_Key.backspace	Key.backspace	n/a
569.061	0.091	1138122	keystroke_Key.backspace	Key.backspace	n/a
569.272	0.105	1138544	keystroke_Key.backspace	Key.backspace	n/a
569.601	0.091	1139202	keystroke_Key.backspace	Key.backspace	n/a
570.532	0.12	1141064	keystroke_l	l	n/a
570.667	0.075	1141334	keystroke_e	e	n/a
570.772	0.104	1141544	keystroke_Key.space	Key.space	n/a
571.042	0.075	1142084	keystroke_h	h	n/a
571.177	0.105	1142354	keystroke_e	e	n/a
571.311	0.136	1142622	keystroke_a	a	n/a
571.552	0.104	1143104	keystroke_v	v	n/a
571.747	0.12	1143494	keystroke_e	e	n/a
571.896	0.106	1143792	keystroke_n	n	n/a
572.077	0.149	1144154	keystroke_Key.space	Key.space	n/a
572.391	0.091	1144782	keystroke_m	m	n/a
572.482	0.179	1144964	keystroke_a	a	n/a
572.632	0.12	1145264	keystroke_r	r	n/a
572.782	0.075	1145564	keystroke_i	i	n/a
572.902	0.135	1145804	keystroke_o	o	n/a
573.051	0.091	1146102	keystroke_Key.space	Key.space	n/a
573.291	0.076	1146582	keystroke_f	f	n/a
573.952	0.09	1147904	keystroke_r	r	n/a
574.057	0.075	1148114	keystroke_i	i	n/a
574.117	0.09	1148234	keystroke_e	e	n/a
574.236	0.091	1148472	keystroke_n	n	n/a
574.342	0.09	1148684	keystroke_d	d	n/a
575.017	0.09	1150034	keystroke_Key.enter	Key.enter	n/a
575.1165	6.4575	1150233	prompt	n/a	lows bingo mount wholesale\n
575.872	0.075	1151744	keystroke_l	l	n/a
576.052	0.105	1152104	keystroke_o	o	n/a
576.127	0.075	1152254	keystroke_w	w	n/a
576.322	0.12	1152644	keystroke_s	s	n/a
576.457	0.09	1152914	keystroke_Key.space	Key.space	n/a
576.787	0.06	1153574	keystroke_b	b	n/a
576.907	0.12	1153814	keystroke_i	i	n/a
577.012	0.075	1154024	keystroke_n	n	n/a
577.192	0.105	1154384	keystroke_g	g	n/a
577.327	0.105	1154654	keystroke_o	o	n/a
577.462	0.105	1154924	keystroke_Key.space	Key.space	n/a
577.762	0.12	1155524	keystroke_m	m	n/a
577.867	0.135	1155734	keystroke_o	o	n/a
578.002	0.06	1156004	keystroke_u	u	n/a
578.197	0.09	1156394	keystroke_n	n	n/a
578.302	0.09	1156604	keystroke_t	t	n/a
578.377	0.075	1156754	keystroke_Key.space	Key.space	n/a
578.602	0.105	1157204	keystroke_w	w	n/a
578.677	0.075	1157354	keystroke_h	h	n/a
578.812	0.075	1157624	keystroke_o	o	n/a
578.977	0.09	1157954	keystroke_l	l	n/a
579.052	0.075	1158104	keystroke_e	e	n/a
579.277	0.105	1158554	keystroke_s	s	n/a
579.412	0.135	1158824	keystroke_a	a	n/a
579.577	0.105	1159154	keystroke_l	l	n/a
579.607	0.045	1159214	keystroke_o	o	n/a
579.742	0.075	1159484	keystroke_e	e	n/a
580.477	0.105	1160954	keystroke_Key.backspace	Key.backspace	n/a
580.687	0.12	1161374	keystroke_Key.backspace	Key.backspace	n/a
580.987	0.015	1161974	keystroke_e	e	n/a
581.467	0.105	1162934	keystroke_Key.enter	Key.enter	n/a
581.579	5.574	1163158	prompt	n/a	sage cdna contains hundred\n
582.292	0.105	1164584	keystroke_s	s	n/a
582.382	0.15	1164764	keystroke_a	a	n/a
582.547	0.09	1165094	keystroke_g	g	n/a
582.607	0.135	1165214	keystroke_e	e	n/a
582.742	0.075	1165484	keystroke_Key.space	Key.space	n/a
583.2065	0.075	1166413	keystroke_c	c	n/a
583.3865	0.075	1166773	keystroke_d	d	n/a
583.5515	0.09	1167103	keystroke_n	n	n/a
583.6865	0.12	1167373	keystroke_a	a	n/a
583.8215	0.0905	1167643	keystroke_Key.space	Key.space	n/a
584.0615	0.09	1168123	keystroke_c	c	n/a
584.137	0.1345	1168274	keystroke_o	o	n/a
584.2265	0.09	1168453	keystroke_n	n	n/a
584.3615	0.135	1168723	keystroke_t	t	n/a
584.4815	0.15	1168963	keystroke_a	a	n/a
584.6015	0.12	1169203	keystroke_i	i	n/a
584.6615	0.09	1169323	keystroke_n	n	n/a
584.767	0.1045	1169534	keystroke_s	s	n/a
584.8865	0.09	1169773	keystroke_Key.space	Key.space	n/a
585.8315	0.075	1171663	keystroke_h	h	n/a
586.0115	0.06	1172023	keystroke_u	u	n/a
586.1915	0.075	1172383	keystroke_n	n	n/a
586.2815	0.075	1172563	keystroke_d	d	n/a
586.5065	0.12	1173013	keystroke_r	r	n/a
586.5665	0.105	1173133	keystroke_e	e	n/a
586.8215	0.105	1173643	keystroke_d	d	n/a
587.0615	0.09	1174123	keystroke_Key.enter	Key.enter	n/a
587.158	8.1105	1174316	prompt	n/a	tired compliance quoted generate\n
587.9165	0.075	1175833	keystroke_t	t	n/a
588.0815	0.075	1176163	keystroke_i	i	n/a
588.1415	0.135	1176283	keystroke_r	r	n/a
588.2015	0.12	1176403	keystroke_e	e	n/a
588.4565	0.105	1176913	keystroke_d	d	n/a
588.5465	0.12	1177093	keystroke_Key.space	Key.space	n/a
588.8165	0.105	1177633	keystroke_c	c	n/a
588.9515	0.105	1177903	keystroke_o	o	n/a
589.0265	0.135	1178053	keystroke_m	m	n/a
589.8965	0.09	1179793	keystroke_p	p	n/a
590.1215	0.09	1180243	keystroke_l	l	n/a
590.2865	0.075	1180573	keystroke_i	i	n/a
590.4065	0.135	1180813	keystroke_a	a	n/a
590.5565	0.075	1181113	keystroke_n	n	n/a
