onset	duration	sample	value	key	prompt_text
8.081	13.3955	16162	prompt	n/a	the quick brown fox jumps over a lazy dog\n
11.7385	0.0445	23477	keystroke_q	q	n/a
11.888	0.045	23776	keystroke_u	u	n/a
12.053	0.06	24106	keystroke_i	i	n/a
12.1725	0.06	24345	keystroke_c	c	n/a
12.413	0.075	24826	keystroke_k	k	n/a
12.608	0.06	25216	keystroke_Key.space	Key.space	n/a
12.983	0.045	25966	keystroke_b	b	n/a
13.1035	0.045	26207	keystroke_r	r	n/a
13.328	0.03	26656	keystroke_o	o	n/a
13.553	0.06	27106	keystroke_w	w	n/a
13.688	0.06	27376	keystroke_n	n	n/a
13.8525	0.0605	27705	keystroke_Key.space	Key.space	n/a
14.1825	0.03	28365	keystroke_f	f	n/a
14.2725	0.105	28545	keystroke_o	o	n/a
14.587	0.061	29174	keystroke_x	x	n/a
14.6775	0.075	29355	keystroke_Key.space	Key.space	n/a
14.978	0.059	29956	keystroke_j	j	n/a
15.1725	0.061	30345	keystroke_u	u	n/a
15.3675	0.075	30735	keystroke_m	m	n/a
15.6525	0.061	31305	keystroke_p	p	n/a
16.418	0.075	32836	keystroke_e	e	n/a
16.643	0.06	33286	keystroke_d	d	n/a
16.763	0.09	33526	keystroke_Key.space	Key.space	n/a
17.6785	0.015	35357	keystroke_o	o	n/a
17.888	0.0455	35776	keystroke_v	v	n/a
18.728	0.135	37456	keystroke_e	e	n/a
18.818	0.075	37636	keystroke_r	r	n/a
18.923	0.0905	37846	keystroke_Key.space	Key.space	n/a
19.0585	0.075	38117	keystroke_a	a	n/a
19.1635	0.075	38327	keystroke_Key.space	Key.space	n/a
19.4635	0.09	38927	keystroke_l	l	n/a
19.5985	0.075	39197	keystroke_a	a	n/a
19.8085	0.06	39617	keystroke_z	z	n/a
20.1235	0.045	40247	keystroke_y	y	n/a
20.1835	0.075	40367	keystroke_Key.space	Key.space	n/a
20.528	0.06	41056	keystroke_d	d	n/a
20.633	0.12	41266	keystroke_o	o	n/a
20.798	0.0905	41596	keystroke_g	g	n/a
21.3525	0.12	42705	keystroke_Key.enter	Key.enter	n/a
21.4815	12.369	42963	prompt	n/a	sponsorship switches supporting guaranteed\n
22.658	0.045	45316	keystroke_s	s	n/a
23.408	0.06	46816	keystroke_p	p	n/a
23.603	0.06	47206	keystroke_o	o	n/a
23.843	0.075	47686	keystroke_n	n	n/a
24.1435	0.059	48287	keystroke_s	s	n/a
24.383	0.09	48766	keystroke_o	o	n/a
24.608	0.045	49216	keystroke_r	r	n/a
24.968	0.06	49936	keystroke_s	s	n/a
25.088	0.105	50176	keystroke_h	h	n/a
25.163	0.09	50326	keystroke_i	i	n/a
25.658	0.075	51316	keystroke_p	p	n/a
25.868	0.075	51736	keystroke_Key.space	Key.space	n/a
26.6325	0.045	53265	keystroke_s	s	n/a
26.8725	0.045	53745	keystroke_w	w	n/a
27.0535	0.06	54107	keystroke_i	i	n/a
27.1875	0.06	54375	keystroke_t	t	n/a
27.4435	0.059	54887	keystroke_c	c	n/a
27.5325	0.075	55065	keystroke_h	h	n/a
27.6535	0.075	55307	keystroke_e	e	n/a
27.893	0.06	55786	keystroke_s	s	n/a
28.043	0.09	56086	keystroke_Key.space	Key.space	n/a
28.8085	0.045	57617	keystroke_s	s	n/a
29.108	0.06	58216	keystroke_u	u	n/a
29.333	0.06	58666	keystroke_p	p	n/a
29.4975	0.076	58995	keystroke_p	p	n/a
29.6325	0.075	59265	keystroke_o	o	n/a
29.8425	0.075	59685	keystroke_r	r	n/a
30.0075	0.106	60015	keystroke_t	t	n/a
30.1275	0.105	60255	keystroke_i	i	n/a
30.1425	0.105	60285	keystroke_n	n	n/a
30.2925	0.06	60585	keystroke_g	g	n/a
30.3675	0.09	60735	keystroke_Key.space	Key.space	n/a
31.4325	0.076	62865	keystroke_g	g	n/a
31.6585	0.045	63317	keystroke_u	u	n/a
31.8075	0.076	63615	keystroke_a	a	n/a
31.9735	0.074	63947	keystroke_r	r	n/a
32.1685	0.075	64337	keystroke_a	a	n/a
32.423	0.045	64846	keystroke_n	n	n/a
32.543	0.045	65086	keystroke_t	t	n/a
32.783	0.06	65566	keystroke_e	e	n/a
32.903	0.06	65806	keystroke_e	e	n/a
33.083	0.075	66166	keystroke_d	d	n/a
33.803	0.045	67606	keystroke_Key.enter	Key.enter	n/a
33.8545	7.436	67709	prompt	n/a	lanka mirror essentials late\n
35.0485	0.06	70097	keystroke_l	l	n/a
35.2135	0.06	70427	keystroke_a	a	n/a
35.3635	0.09	70727	keystroke_n	n	n/a
35.5735	0.09	71147	keystroke_k	k	n/a
35.7385	0.06	71477	keystroke_a	a	n/a
35.8135	0.06	71627	keystroke_Key.space	Key.space	n/a
36.0375	0.166	72075	keystroke_m	m	n/a
36.1735	0.105	72347	keystroke_i	i	n/a
37.3885	0.06	74777	keystroke_r	r	n/a
37.5085	0.105	75017	keystroke_r	r	n/a
37.6735	0.105	75347	keystroke_o	o	n/a
37.8235	0.075	75647	keystroke_r	r	n/a
37.9435	0.075	75887	keystroke_Key.space	Key.space	n/a
38.6485	0.06	77297	keystroke_e	e	n/a
38.8735	0.045	77747	keystroke_s	s	n/a
38.9785	0.03	77957	keystroke_s	s	n/a
39.1885	0.06	78377	keystroke_e	e	n/a
39.3535	0.075	78707	keystroke_n	n	n/a
39.4735	0.075	78947	keystroke_t	t	n/a
39.5785	0.105	79157	keystroke_i	i	n/a
39.7135	0.06	79427	keystroke_a	a	n/a
39.8485	0.075	79697	keystroke_l	l	n/a
40.0135	0.075	80027	keystroke_s	s	n/a
40.1185	0.075	80237	keystroke_Key.space	Key.space	n/a
40.3285	0.06	80657	keystroke_l	l	n/a
40.4035	0.09	80807	keystroke_a	a	n/a
40.6585	0.12	81317	keystroke_t	t	n/a
40.7635	0.09	81527	keystroke_e	e	n/a
41.2135	0.075	82427	keystroke_Key.enter	Key.enter	n/a
41.2955	10.81	82591	prompt	n/a	german code adaptive swaziland\n
42.1735	0.06	84347	keystroke_g	g	n/a
42.3685	0.135	84737	keystroke_e	e	n/a
42.4585	0.075	84917	keystroke_r	r	n/a
42.5785	0.09	85157	keystroke_m	m	n/a
42.7285	0.075	85457	keystroke_a	a	n/a
42.8635	0.045	85727	keystroke_n	n	n/a
43.0135	0.09	86027	keystroke_Key.space	Key.space	n/a
43.838	0.075	87676	keystroke_c	c	n/a
44.243	0.045	88486	keystroke_o	o	n/a
44.438	0.06	88876	keystroke_d	d	n/a
44.6035	0.075	89207	keystroke_e	e	n/a
44.6935	0.075	89387	keystroke_Key.space	Key.space	n/a
44.9335	0.074	89867	keystroke_a	a	n/a
45.4135	0.075	90827	keystroke_d	d	n/a
45.6535	0.075	91307	keystroke_a	a	n/a
45.8635	0.09	91727	keystroke_p	p	n/a
46.9435	0.06	93887	keystroke_t	t	n/a
47.1835	0.075	94367	keystroke_i	i	n/a
47.3785	0.1795	94757	keystroke_v	v	n/a
47.513	0.105	95026	keystroke_e	e	n/a
47.783	0.09	95566	keystroke_Key.space	Key.space	n/a
48.848	0.06	97696	keystroke_s	s	n/a
49.238	0.045	98476	keystroke_w	w	n/a
49.463	0.09	98926	keystroke_a	a	n/a
49.943	0.075	99886	keystroke_z	z	n/a
50.228	0.06	100456	keystroke_i	i	n/a
50.498	0.09	100996	keystroke_l	l	n/a
50.723	0.09	101446	keystroke_a	a	n/a
50.843	0.06	101686	keystroke_n	n	n/a
51.458	0.075	102916	keystroke_d	d	n/a
52.028	0.075	104056	keystroke_Key.enter	Key.enter	n/a
52.11	9.116	104220	prompt	n/a	cities filed reported cars\n
53.0935	0.06	106187	keystroke_c	c	n/a
53.3335	0.06	106667	keystroke_i	i	n/a
53.7985	0.045	107597	keystroke_t	t	n/a
54.0235	0.075	108047	keystroke_i	i	n/a
54.1885	0.06	108377	keystroke_e	e	n/a
54.413	0.03	108826	keystroke_s	s	n/a
54.458	0.075	108916	keystroke_Key.space	Key.space	n/a
55.3735	0.045	110747	keystroke_f	f	n/a
55.658	0.075	111316	keystroke_i	i	n/a
55.883	0.09	111766	keystroke_l	l	n/a
56.003	0.06	112006	keystroke_e	e	n/a
56.198	0.06	112396	keystroke_d	d	n/a
56.288	0.06	112576	keystroke_Key.space	Key.space	n/a
56.873	0.105	113746	keystroke_r	r	n/a
56.948	0.075	113896	keystroke_e	e	n/a
57.173	0.106	114346	keystroke_p	p	n/a
57.233	0.09	114466	keystroke_o	o	n/a
57.8935	0.075	115787	keystroke_r	r	n/a
58.1035	0.1495	116207	keystroke_t	t	n/a
58.193	0.09	116386	keystroke_e	e	n/a
58.388	0.12	116776	keystroke_d	d	n/a
58.493	0.06	116986	keystroke_Key.space	Key.space	n/a
59.048	0.075	118096	keystroke_c	c	n/a
60.3235	0.0895	120647	keystroke_a	a	n/a
60.6835	0.09	121367	keystroke_r	r	n/a
60.9085	0.06	121817	keystroke_s	s	n/a
61.1485	0.075	122297	keystroke_Key.enter	Key.enter	n/a
61.2295	6.761	122459	prompt	n/a	hope ordered likes hebrew\n
62.2135	0.06	124427	keystroke_h	h	n/a
62.4385	0.09	124877	keystroke_o	o	n/a
62.6485	0.0895	125297	keystroke_p	p	n/a
62.798	0.045	125596	keystroke_e	e	n/a
62.888	0.06	125776	keystroke_Key.space	Key.space	n/a
63.293	0.075	126586	keystroke_o	o	n/a
63.413	0.045	126826	keystroke_r	r	n/a
63.653	0.06	127306	keystroke_d	d	n/a
63.848	0.06	127696	keystroke_e	e	n/a
63.998	0.12	127996	keystroke_r	r	n/a
64.119	0.074	128238	keystroke_e	e	n/a
64.313	0.06	128626	keystroke_d	d	n/a
64.388	0.06	128776	keystroke_Key.space	Key.space	n/a
64.898	0.12	129796	keystroke_l	l	n/a
64.958	0.105	129916	keystroke_i	i	n/a
65.183	0.09	130366	keystroke_k	k	n/a
65.6935	0.075	131387	keystroke_e	e	n/a
65.8885	0.075	131777	keystroke_s	s	n/a
65.9935	0.12	131987	keystroke_Key.space	Key.space	n/a
66.6535	0.045	133307	keystroke_h	h	n/a
66.7285	0.045	133457	keystroke_e	e	n/a
67.1185	0.06	134237	keystroke_b	b	n/a
67.2985	0.15	134597	keystroke_r	r	n/a
67.4035	0.075	134807	keystroke_e	e	n/a
67.7635	0.075	135527	keystroke_w	w	n/a
67.8985	0.09	135797	keystroke_Key.enter	Key.enter	n/a
67.9955	6.3245	135991	prompt	n/a	surround tried kill flame\n
68.9035	0.075	137807	keystroke_s	s	n/a
69.0985	0.075	138197	keystroke_u	u	n/a
69.2785	0.06	138557	keystroke_r	r	n/a
69.3985	0.075	138797	keystroke_r	r	n/a
69.6385	0.12	139277	keystroke_o	o	n/a
69.6985	0.105	139397	keystroke_u	u	n/a
69.9535	0.06	139907	keystroke_n	n	n/a
70.0585	0.06	140117	keystroke_d	d	n/a
70.1485	0.09	140297	keystroke_Key.space	Key.space	n/a
70.8085	0.06	141617	keystroke_t	t	n/a
70.9885	0.045	141977	keystroke_r	r	n/a
71.1085	0.09	142217	keystroke_i	i	n/a
71.2435	0.06	142487	keystroke_e	e	n/a
71.4085	0.105	142817	keystroke_d	d	n/a
71.4985	0.075	142997	keystroke_Key.space	Key.space	n/a
72.1885	0.075	144377	keystroke_k	k	n/a
72.3685	0.09	144737	keystroke_i	i	n/a
72.6085	0.045	145217	keystroke_l	l	n/a
72.729	0.075	145458	keystroke_l	l	n/a
72.938	0.046	145876	keystroke_Key.space	Key.space	n/a
73.029	0.06	146058	keystroke_f	f	n/a
73.149	0.075	146298	keystroke_l	l	n/a
73.268	0.075	146536	keystroke_a	a	n/a
73.539	0.074	147078	keystroke_m	m	n/a
73.659	0.075	147318	keystroke_e	e	n/a
74.228	0.09	148456	keystroke_Key.enter	Key.enter	n/a
74.3255	9.6245	148651	prompt	n/a	encounter director correction packets\n
75.428	0.045	150856	keystroke_e	e	n/a
75.713	0.06	151426	keystroke_n	n	n/a
75.878	0.06	151756	keystroke_c	c	n/a
75.998	0.09	151996	keystroke_o	o	n/a
76.043	0.076	152086	keystroke_u	u	n/a
76.253	0.06	152506	keystroke_n	n	n/a
76.358	0.045	152716	keystroke_t	t	n/a
76.523	0.12	153046	keystroke_e	e	n/a
76.598	0.075	153196	keystroke_r	r	n/a
76.778	0.075	153556	keystroke_Key.space	Key.space	n/a
77.228	0.061	154456	keystroke_d	d	n/a
77.378	0.06	154756	keystroke_i	i	n/a
77.498	0.06	154996	keystroke_r	r	n/a
77.663	0.15	155326	keystroke_e	e	n/a
77.768	0.06	155536	keystroke_c	c	n/a
77.979	0.044	155958	keystroke_t	t	n/a
78.323	0.075	156646	keystroke_o	o	n/a
78.458	0.075	156916	keystroke_r	r	n/a
78.563	0.075	157126	keystroke_Key.space	Key.space	n/a
78.849	0.06	157698	keystroke_c	c	n/a
78.938	0.091	157876	keystroke_o	o	n/a
79.104	0.059	158208	keystroke_r	r	n/a
79.223	0.075	158446	keystroke_r	r	n/a
79.373	0.15	158746	keystroke_e	e	n/a
79.493	0.06	158986	keystroke_c	c	n/a
79.733	0.06	159466	keystroke_t	t	n/a
79.823	0.121	159646	keystroke_i	i	n/a
79.914	0.074	159828	keystroke_o	o	n/a
80.093	0.06	160186	keystroke_n	n	n/a
80.273	0.075	160546	keystroke_Key.space	Key.space	n/a
80.873	0.046	161746	keystroke_p	p	n/a
81.834	0.089	163668	keystroke_a	a	n/a
82.238	0.075	164476	keystroke_c	c	n/a
82.464	0.075	164928	keystroke_k	k	n/a
82.628	0.09	165256	keystroke_e	e	n/a
82.793	0.076	165586	keystroke_t	t	n/a
82.958	0.076	165916	keystroke_a	a	n/a
83.394	0.149	166788	keystroke_Key.backspace	Key.backspace	n/a
83.558	0.075	167116	keystroke_s	s	n/a
83.873	0.075	167746	keystroke_Key.enter	Key.enter	n/a
83.955	7.615	167910	prompt	n/a	ment leather records responding\n
84.938	0.0755	169876	keystroke_m	m	n/a
85.0585	0.06	170117	keystroke_e	e	n/a
85.2385	0.075	170477	keystroke_n	n	n/a
85.3435	0.06	170687	keystroke_t	t	n/a
85.4485	0.075	170897	keystroke_Key.space	Key.space	n/a
86.5585	0.075	173117	keystroke_l	l	n/a
87.1585	0.075	174317	keystroke_e	e	n/a
87.3385	0.105	174677	keystroke_a	a	n/a
87.4885	0.075	174977	keystroke_t	t	n/a
87.6085	0.075	175217	keystroke_h	h	n/a
87.7285	0.12	175457	keystroke_e	e	n/a
87.8185	0.09	175637	keystroke_r	r	n/a
87.9535	0.075	175907	keystroke_Key.space	Key.space	n/a
88.5835	0.09	177167	keystroke_r	r	n/a
88.6285	0.09	177257	keystroke_e	e	n/a
88.8535	0.06	177707	keystroke_c	c	n/a
88.9435	0.12	177887	keystroke_o	o	n/a
89.0935	0.06	178187	keystroke_r	r	n/a
89.2735	0.165	178547	keystroke_d	d	n/a
89.4085	0.09	178817	keystroke_s	s	n/a
89.5585	0.09	179117	keystroke_Key.space	Key.space	n/a
89.9485	0.09	179897	keystroke_r	r	n/a
89.9935	0.09	179987	keystroke_e	e	n/a
90.2335	0.045	180467	keystroke_s	s	n/a
90.3235	0.09	180647	keystroke_p	p	n/a
90.3685	0.09	180737	keystroke_o	o	n/a
90.5935	0.075	181187	keystroke_n	n	n/a
90.7435	0.075	181487	keystroke_d	d	n/a
90.8785	0.15	181757	keystroke_i	i	n/a
90.9835	0.09	181967	keystroke_n	n	n/a
91.0585	0.06	182117	keystroke_g	g	n/a
91.4935	0.075	182987	keystroke_Key.enter	Key.enter	n/a
91.5735	11.8465	183147	prompt	n/a	relations columnists contents contributed\n
92.4385	0.075	184877	keystroke_r	r	n/a
92.6485	0.06	185297	keystroke_e	e	n/a
92.7685	0.075	185537	keystroke_l	l	n/a
92.9335	0.075	185867	keystroke_a	a	n/a
93.0535	0.075	186107	keystroke_t	t	n/a
93.1885	0.12	186377	keystroke_i	i	n/a
93.2335	0.12	186467	keystroke_o	o	n/a
93.4735	0.09	186947	keystroke_n	n	n/a
93.5935	0.075	187187	keystroke_s	s	n/a
93.6985	0.09	187397	keystroke_Key.space	Key.space	n/a
94.3135	0.075	188627	keystroke_c	c	n/a
94.9285	0.075	189857	keystroke_o	o	n/a
95.2135	0.09	190427	keystroke_l	l	n/a
95.484	0.044	190968	keystroke_u	u	n/a
95.678	0.046	191356	keystroke_m	m	n/a
95.844	0.06	191688	keystroke_n	n	n/a
96.114	0.09	192228	keystroke_i	i	n/a
96.219	0.075	192438	keystroke_s	s	n/a
96.414	0.075	192828	keystroke_t	t	n/a
96.818	0.045	193636	keystroke_Key.space	Key.space	n/a
97.164	0.06	194328	keystroke_c	c	n/a
97.389	0.105	194778	keystroke_o	o	n/a
97.494	0.09	194988	keystroke_n	n	n/a
97.643	0.046	195286	keystroke_t	t	n/a
97.778	0.091	195556	keystroke_e	e	n/a
97.914	0.09	195828	keystroke_n	n	n/a
98.049	0.075	196098	keystroke_t	t	n/a
98.184	0.075	196368	keystroke_Key.space	Key.space	n/a
100.178	0.075	200356	keystroke_Key.backspace	Key.backspace	n/a
100.269	0.0745	200538	keystroke_s	s	n/a
100.523	0.061	201046	keystroke_Key.space	Key.space	n/a
101.033	0.09	202066	keystroke_c	c	n/a
101.273	0.09	202546	keystroke_o	o	n/a
101.319	0.075	202638	keystroke_n	n	n/a
101.453	0.06	202906	keystroke_t	t	n/a
101.633	0.06	203266	keystroke_r	r	n/a
101.798	0.09	203596	keystroke_i	i	n/a
102.0985	0.12	204197	keystroke_b	b	n/a
102.1735	0.12	204347	keystroke_u	u	n/a
102.548	0.135	205096	keystroke_t	t	n/a
102.623	0.09	205246	keystroke_e	e	n/a
102.818	0.0755	205636	keystroke_d	d	n/a
103.328	0.09	206656	keystroke_Key.enter	Key.enter	n/a
103.4235	6.7315	206847	prompt	n/a	abuse span breaks micro\n
104.318	0.09	208636	keystroke_a	a	n/a
104.558	0.075	209116	keystroke_b	b	n/a
104.858	0.075	209716	keystroke_u	u	n/a
104.993	0.06	209986	keystroke_s	s	n/a
105.203	0.06	210406	keystroke_e	e	n/a
105.278	0.075	210556	keystroke_Key.space	Key.space	n/a
105.624	0.074	211248	keystroke_s	s	n/a
105.818	0.075	211636	keystroke_p	p	n/a
105.953	0.105	211906	keystroke_a	a	n/a
106.133	0.076	212266	keystroke_n	n	n/a
106.343	0.06	212686	keystroke_Key.space	Key.space	n/a
107.198	0.045	214396	keystroke_b	b	n/a
107.378	0.105	214756	keystroke_r	r	n/a
107.588	0.09	215176	keystroke_e	e	n/a
107.798	0.09	215596	keystroke_a	a	n/a
108.053	0.06	216106	keystroke_k	k	n/a
108.203	0.061	216406	keystroke_s	s	n/a
108.293	0.06	216586	keystroke_Key.space	Key.space	n/a
108.878	0.12	217756	keystroke_m	m	n/a
108.953	0.105	217906	keystroke_i	i	n/a
109.163	0.075	218326	keystroke_c	c	n/a
109.508	0.045	219016	keystroke_r	r	n/a
109.598	0.09	219196	keystroke_o	o	n/a
110.048	0.105	220096	keystroke_Key.enter	Key.enter	n/a
110.1585	9.3415	220317	prompt	n/a	objectives represents arrives jeremy\n
111.2485	0.06	222497	keystroke_o	o	n/a
111.7135	0.06	223427	keystroke_b	b	n/a
111.9235	0.06	223847	keystroke_j	j	n/a
112.0285	0.135	224057	keystroke_e	e	n/a
112.1035	0.075	224207	keystroke_c	c	n/a
112.3135	0.06	224627	keystroke_t	t	n/a
112.4035	0.09	224807	keystroke_i	i	n/a
112.5685	0.105	225137	keystroke_v	v	n/a
112.6585	0.075	225317	keystroke_e	e	n/a
112.8685	0.0745	225737	keystroke_s	s	n/a
112.988	0.075	225976	keystroke_Key.space	Key.space	n/a
113.4985	0.12	226997	keystroke_r	r	n/a
113.5585	0.105	227117	keystroke_e	e	n/a
113.8135	0.075	227627	keystroke_p	p	n/a
113.9485	0.15	227897	keystroke_r	r	n/a
114.0385	0.09	228077	keystroke_e	e	n/a
114.3235	0.06	228647	keystroke_s	s	n/a
115.0585	0.06	230117	keystroke_e	e	n/a
115.1935	0.06	230387	keystroke_n	n	n/a
115.4335	0.075	230867	keystroke_t	t	n/a
115.7185	0.045	231437	keystroke_s	s	n/a
115.8235	0.09	231647	keystroke_Key.space	Key.space	n/a
116.618	0.1055	233236	keystroke_a	a	n/a
116.888	0.045	233776	keystroke_r	r	n/a
116.9935	0.0745	233987	keystroke_r	r	n/a
117.143	0.105	234286	keystroke_i	i	n/a
117.338	0.09	234676	keystroke_v	v	n/a
117.429	0.059	234858	keystroke_e	e	n/a
117.623	0.075	235246	keystroke_s	s	n/a
117.773	0.06	235546	keystroke_Key.space	Key.space	n/a
118.358	0.06	236716	keystroke_j	j	n/a
118.463	0.0755	236926	keystroke_e	e	n/a
118.688	0.045	237376	keystroke_r	r	n/a
118.853	0.075	237706	keystroke_e	e	n/a
118.988	0.0745	237976	keystroke_m	m	n/a
119.1825	0.061	238365	keystroke_y	y	n/a
119.4225	0.075	238845	keystroke_Key.enter	Key.enter	n/a
119.503	7.3015	239006	prompt	n/a	ruling wales fruit rebound\n
120.6235	0.059	241247	keystroke_r	r	n/a
120.8175	0.076	241635	keystroke_u	u	n/a
121.0275	0.1055	242055	keystroke_l	l	n/a
121.5085	0.12	243017	keystroke_i	i	n/a
121.5985	0.06	243197	keystroke_n	n	n/a
121.6725	0.061	243345	keystroke_g	g	n/a
121.7775	0.0905	243555	keystroke_Key.space	Key.space	n/a
122.0785	0.06	244157	keystroke_w	w	n/a
122.2435	0.089	244487	keystroke_a	a	n/a
122.6335	0.09	245267	keystroke_l	l	n/a
122.8875	0.076	245775	keystroke_e	e	n/a
123.0825	0.076	246165	keystroke_s	s	n/a
123.2025	0.075	246405	keystroke_Key.space	Key.space	n/a
123.6825	0.076	247365	keystroke_f	f	n/a
123.8785	0.06	247757	keystroke_r	r	n/a
124.1035	0.09	248207	keystroke_u	u	n/a
124.2235	0.105	248447	keystroke_i	i	n/a
124.3885	0.059	248777	keystroke_t	t	n/a
124.4935	0.074	248987	keystroke_Key.space	Key.space	n/a
125.0335	0.105	250067	keystroke_r	r	n/a
125.0935	0.075	250187	keystroke_e	e	n/a
125.5585	0.06	251117	keystroke_b	b	n/a
125.8885	0.135	251777	keystroke_o	o	n/a
125.9785	0.09	251957	keystroke_u	u	n/a
126.2335	0.09	252467	keystroke_n	n	n/a
126.3685	0.075	252737	keystroke_d	d	n/a
126.7135	0.09	253427	keystroke_Key.enter	Key.enter	n/a
126.81	9.16	253620	prompt	n/a	characterization prize sealed lesson\n
127.6885	0.06	255377	keystroke_c	c	n/a
128.0785	0.06	256157	keystroke_h	h	n/a
128.4235	0.06	256847	keystroke_a	a	n/a
128.5885	0.06	257177	keystroke_r	r	n/a
128.7835	0.06	257567	keystroke_a	a	n/a
129.0085	0.045	258017	keystroke_c	c	n/a
129.1885	0.075	258377	keystroke_t	t	n/a
129.3385	0.12	258677	keystroke_e	e	n/a
129.4285	0.075	258857	keystroke_r	r	n/a
129.6235	0.089	259247	keystroke_i	i	n/a
129.8785	0.06	259757	keystroke_z	z	n/a
130.0435	0.09	260087	keystroke_a	a	n/a
130.3135	0.075	260627	keystroke_t	t	n/a
130.4335	0.12	260867	keystroke_i	i	n/a
130.4785	0.105	260957	keystroke_o	o	n/a
130.7035	0.06	261407	keystroke_n	n	n/a
130.8835	0.09	261767	keystroke_Key.space	Key.space	n/a
131.2135	0.09	262427	keystroke_p	p	n/a
131.3185	0.045	262637	keystroke_r	r	n/a
131.4985	0.06	262997	keystroke_i	i	n/a
131.963	0.06	263926	keystroke_z	z	n/a
132.203	0.045	264406	keystroke_e	e	n/a
132.368	0.105	264736	keystroke_Key.space	Key.space	n/a
132.878	0.06	265756	keystroke_s	s	n/a
133.058	0.075	266116	keystroke_e	e	n/a
133.268	0.06	266536	keystroke_a	a	n/a
133.4335	0.0895	266867	keystroke_l	l	n/a
133.5535	0.0595	267107	keystroke_e	e	n/a
133.7335	0.0595	267467	keystroke_d	d	n/a
133.808	0.075	267616	keystroke_Key.space	Key.space	n/a
134.7535	0.075	269507	keystroke_l	l	n/a
134.8585	0.075	269717	keystroke_e	e	n/a
135.0835	0.03	270167	keystroke_s	s	n/a
135.2035	0.06	270407	keystroke_s	s	n/a
135.3685	0.12	270737	keystroke_o	o	n/a
135.4735	0.09	270947	keystroke_n	n	n/a
135.8785	0.09	271757	keystroke_Key.enter	Key.enter	n/a
135.973	11.8765	271946	prompt	n/a	declare bradley fisheries probability\n
136.8535	0.045	273707	keystroke_d	d	n/a
137.0335	0.06	274067	keystroke_e	e	n/a
137.2135	0.06	274427	keystroke_c	c	n/a
137.3485	0.075	274697	keystroke_l	l	n/a
137.4685	0.09	274937	keystroke_a	a	n/a
137.7235	0.105	275447	keystroke_r	r	n/a
137.7835	0.09	275567	keystroke_e	e	n/a
137.8885	0.09	275777	keystroke_Key.space	Key.space	n/a
138.549	0.044	277098	keystroke_b	b	n/a
138.683	0.045	277366	keystroke_r	r	n/a
138.848	0.075	277696	keystroke_a	a	n/a
139.043	0.045	278086	keystroke_d	d	n/a
139.148	0.106	278296	keystroke_l	l	n/a
139.268	0.105	278536	keystroke_e	e	n/a
139.508	0.061	279016	keystroke_t	t	n/a
139.583	0.136	279166	keystroke_Key.space	Key.space	n/a
140.558	0.075	281116	keystroke_Key.backspace	Key.backspace	n/a
140.753	0.075	281506	keystroke_Key.backspace	Key.backspace	n/a
140.933	0.06	281866	keystroke_y	y	n/a
141.038	0.09	282076	keystroke_Key.space	Key.space	n/a
143.245	0	286490	keystroke_f	f	n/a
143.303	0.06	286606	keystroke_i	i	n/a
143.483	0.045	286966	keystroke_s	s	n/a
143.633	0.06	287266	keystroke_h	h	n/a
143.753	0.12	287506	keystroke_e	e	n/a
143.843	0.0755	287686	keystroke_r	r	n/a
144.0535	0.074	288107	keystroke_i	i	n/a
144.218	0.0755	288436	keystroke_e	e	n/a
144.5035	0.06	289007	keystroke_s	s	n/a
144.6235	0.075	289247	keystroke_Key.space	Key.space	n/a
145.3735	0.075	290747	keystroke_p	p	n/a
145.5685	0.075	291137	keystroke_r	r	n/a
145.7185	0.075	291437	keystroke_o	o	n/a
146.0185	0.075	292037	keystroke_b	b	n/a
146.1685	0.09	292337	keystroke_a	a	n/a
146.2885	0.0895	292577	keystroke_b	b	n/a
146.693	0.09	293386	keystroke_i	i	n/a
146.933	0.15	293866	keystroke_l	l	n/a
147.023	0.105	294046	keystroke_i	i	n/a
147.143	0.06	294286	keystroke_t	t	n/a
147.323	0.075	294646	keystroke_y	y	n/a
147.758	0.09	295516	keystroke_Key.enter	Key.enter	n/a
147.8535	8.4565	295707	prompt	n/a	jefferson toronto opposed deals\n
148.7335	0.059	297467	keystroke_j	j	n/a
148.8535	0.074	297707	keystroke_e	e	n/a
149.0925	0.046	298185	keystroke_f	f	n/a
149.1825	0.09	298365	keystroke_f	f	n/a
149.3485	0.1345	298697	keystroke_e	e	n/a
149.423	0.075	298846	keystroke_r	r	n/a
149.708	0.075	299416	keystroke_s	s	n/a
149.828	0.15	299656	keystroke_o	o	n/a
149.933	0.075	299866	keystroke_n	n	n/a
150.158	0.075	300316	keystroke_Key.space	Key.space	n/a
150.6075	0.06	301215	keystroke_t	t	n/a
150.7125	0.0605	301425	keystroke_o	o	n/a
150.908	0.06	301816	keystroke_l	l	n/a
151.493	0.12	302986	keystroke_Key.backspace	Key.backspace	n/a
151.643	0.075	303286	keystroke_r	r	n/a
152.288	0.0605	304576	keystroke_o	o	n/a
152.483	0.06	304966	keystroke_n	n	n/a
152.633	0.075	305266	keystroke_t	t	n/a
152.723	0.09	305446	keystroke_o	o	n/a
152.933	0.06	305866	keystroke_Key.space	Key.space	n/a
153.7885	0.075	307577	keystroke_o	o	n/a
154.0135	0.06	308027	keystroke_p	p	n/a
154.1485	0.075	308297	keystroke_p	p	n/a
154.3135	0.075	308627	keystroke_o	o	n/a
154.4185	0.0745	308837	keystroke_s	s	n/a
154.613	0.045	309226	keystroke_e	e	n/a
154.763	0.0905	309526	keystroke_d	d	n/a
154.8385	0.06	309677	keystroke_Key.space	Key.space	n/a
155.363	0.06	310726	keystroke_d	d	n/a
155.528	0.075	311056	keystroke_e	e	n/a
155.693	0.105	311386	keystroke_a	a	n/a
155.843	0.105	311686	keystroke_l	l	n/a
155.993	0.03	311986	keystroke_s	s	n/a
156.218	0.09	312436	keystroke_Key.enter	Key.enter	n/a
156.313	13.437	312626	prompt	n/a	headquarters photographic blog delhi\n
157.3585	0.075	314717	keystroke_h	h	n/a
157.4485	0.06	314897	keystroke_e	e	n/a
157.6585	0.105	315317	keystroke_a	a	n/a
157.7485	0.09	315497	keystroke_d	d	n/a
158.5135	0.06	317027	keystroke_q	q	n/a
158.6485	0.075	317297	keystroke_u	u	n/a
159.1735	0.075	318347	keystroke_a	a	n/a
159.3835	0.045	318767	keystroke_r	r	n/a
159.5635	0.045	319127	keystroke_t	t	n/a
159.7135	0.12	319427	keystroke_e	e	n/a
159.7885	0.09	319577	keystroke_r	r	n/a
160.0135	0.06	320027	keystroke_s	s	n/a
160.1335	0.105	320267	keystroke_Key.space	Key.space	n/a
161.6935	0.075	323387	keystroke_p	p	n/a
162.0685	0.06	324137	keystroke_h	h	n/a
162.3085	0.0895	324617	keystroke_o	o	n/a
162.563	0.045	325126	keystroke_t	t	n/a
162.668	0.09	325336	keystroke_o	o	n/a
162.863	0.045	325726	keystroke_g	g	n/a
163.073	0.045	326146	keystroke_r	r	n/a
163.238	0.09	326476	keystroke_a	a	n/a
163.343	0.09	326686	keystroke_p	p	n/a
164.468	0.03	328936	keystroke_h	h	n/a
165.143	0.09	330286	keystroke_i	i	n/a
165.263	0.105	330526	keystroke_c	c	n/a
165.473	0.075	330946	keystroke_Key.space	Key.space	n/a
166.658	0.06	333316	keystroke_b	b	n/a
166.9285	0.075	333857	keystroke_l	l	n/a
167.1085	0.075	334217	keystroke_o	o	n/a
167.3935	0.06	334787	keystroke_g	g	n/a
167.4985	0.06	334997	keystroke_Key.space	Key.space	n/a
167.9485	0.06	335897	keystroke_d	d	n/a
168.1435	0.06	336287	keystroke_e	e	n/a
168.3385	0.09	336677	keystroke_l	l	n/a
169.238	0.105	338476	keystroke_h	h	n/a
169.283	0.135	338566	keystroke_i	i	n/a
169.673	0.075	339346	keystroke_Key.enter	Key.enter	n/a
169.753	11.847	339506	prompt	n/a	reporters concluded joining sonic\n
170.5275	0.121	341055	keystroke_r	r	n/a
170.6185	0.09	341237	keystroke_e	e	n/a
170.8135	0.105	341627	keystroke_p	p	n/a
170.8585	0.105	341717	keystroke_o	o	n/a
170.9925	0.061	341985	keystroke_r	r	n/a
171.1735	0.135	342347	keystroke_t	t	n/a
171.2785	0.09	342557	keystroke_e	e	n/a
172.223	0.075	344446	keystroke_r	r	n/a
172.433	0.09	344866	keystroke_s	s	n/a
172.5985	0.075	345197	keystroke_Key.space	Key.space	n/a
172.9585	0.075	345917	keystroke_c	c	n/a
173.1085	0.12	346217	keystroke_o	o	n/a
173.1985	0.09	346397	keystroke_n	n	n/a
173.5135	0.075	347027	keystroke_c	c	n/a
173.7085	0.135	347417	keystroke_l	l	n/a
173.7985	0.1045	347597	keystroke_u	u	n/a
174.113	0.03	348226	keystroke_d	d	n/a
174.803	0.075	349606	keystroke_e	e	n/a
174.983	0.0905	349966	keystroke_d	d	n/a
175.088	0.075	350176	keystroke_Key.space	Key.space	n/a
175.538	0.0605	351076	keystroke_j	j	n/a
175.7485	0.0895	351497	keystroke_o	o	n/a
175.883	0.105	351766	keystroke_i	i	n/a
176.963	0.075	353926	keystroke_n	n	n/a
177.218	0.075	354436	keystroke_g	g	n/a
177.668	0.105	355336	keystroke_=	=	n/a
178.433	0.03	356866	keystroke_Key.backspace	Key.backspace	n/a
178.5835	0.075	357167	keystroke_Key.backspace	Key.backspace	n/a
179.2735	0.09	358547	keystroke_i	i	n/a
179.3335	0.075	358667	keystroke_n	n	n/a
179.3785	0.06	358757	keystroke_g	g	n/a
179.5585	0.06	359117	keystroke_Key.space	Key.space	n/a
180.398	0.0605	360796	keystroke_s	s	n/a
180.6385	0.0755	361277	keystroke_o	o	n/a
180.878	0.061	361756	keystroke_n	n	n/a
181.089	0.09	362178	keystroke_i	i	n/a
181.209	0.09	362418	keystroke_c	c	n/a
181.523	0.075	363046	keystroke_Key.enter	Key.enter	n/a
181.605	9.49	363210	prompt	n/a	exactly cambridge blind relationships\n
182.6635	0.045	365327	keystroke_e	e	n/a
182.9185	0.075	365837	keystroke_x	x	n/a
183.1285	0.105	366257	keystroke_a	a	n/a
183.2035	0.09	366407	keystroke_c	c	n/a
183.4285	0.0745	366857	keystroke_t	t	n/a
183.548	0.105	367096	keystroke_l	l	n/a
183.668	0.075	367336	keystroke_y	y	n/a
183.803	0.075	367606	keystroke_Key.space	Key.space	n/a
184.478	0.075	368956	keystroke_c	c	n/a
184.643	0.09	369286	keystroke_a	a	n/a
184.763	0.0905	369526	keystroke_m	m	n/a
185.0635	0.06	370127	keystroke_b	b	n/a
185.2435	0.06	370487	keystroke_r	r	n/a
185.3635	0.09	370727	keystroke_i	i	n/a
185.5435	0.12	371087	keystroke_d	d	n/a
185.8735	0.135	371747	keystroke_g	g	n/a
185.9935	0.075	371987	keystroke_e	e	n/a
186.0985	0.09	372197	keystroke_Key.space	Key.space	n/a
186.5335	0.0745	373067	keystroke_b	b	n/a
187.7035	0.075	375407	keystroke_l	l	n/a
187.8835	0.06	375767	keystroke_i	i	n/a
188.1535	0.075	376307	keystroke_n	n	n/a
188.5585	0.06	377117	keystroke_d	d	n/a
188.6635	0.09	377327	keystroke_Key.space	Key.space	n/a
188.8435	0.1045	377687	keystroke_r	r	n/a
188.9185	0.0895	377837	keystroke_e	e	n/a
189.053	0.06	378106	keystroke_l	l	n/a
189.158	0.075	378316	keystroke_a	a	n/a
189.308	0.075	378616	keystroke_t	t	n/a
189.398	0.106	378796	keystroke_i	i	n/a
189.458	0.09	378916	keystroke_o	o	n/a
189.639	0.074	379278	keystroke_n	n	n/a
189.728	0.061	379456	keystroke_s	s	n/a
189.879	0.09	379758	keystroke_h	h	n/a
189.938	0.121	379876	keystroke_i	i	n/a
190.283	0.015	380566	keystroke_p	p	n/a
190.4785	0.1045	380957	keystroke_s	s	n/a
191.0325	0.06	382065	keystroke_Key.enter	Key.enter	n/a
191.099	5.711	382198	prompt	n/a	nintendo oaks team suits\n
192.008	0.045	384016	keystroke_n	n	n/a
192.158	0.105	384316	keystroke_i	i	n/a
192.278	0.075	384556	keystroke_n	n	n/a
192.4885	0.09	384977	keystroke_t	t	n/a
192.5635	0.075	385127	keystroke_e	e	n/a
192.6835	0.075	385367	keystroke_n	n	n/a
192.7885	0.09	385577	keystroke_d	d	n/a
192.9085	0.09	385817	keystroke_o	o	n/a
193.1335	0.045	386267	keystroke_Key.space	Key.space	n/a
193.4035	0.09	386807	keystroke_o	o	n/a
193.6285	0.15	387257	keystroke_a	a	n/a
193.9885	0.09	387977	keystroke_k	k	n/a
194.1235	0.075	388247	keystroke_s	s	n/a
194.2435	0.074	388487	keystroke_Key.space	Key.space	n/a
195.233	0.105	390466	keystroke_t	t	n/a
195.308	0.075	390616	keystroke_e	e	n/a
195.503	0.09	391006	keystroke_a	a	n/a
195.623	0.075	391246	keystroke_m	m	n/a
195.803	0.075	391606	keystroke_Key.space	Key.space	n/a
195.938	0.075	391876	keystroke_s	s	n/a
196.133	0.105	392266	keystroke_u	u	n/a
196.208	0.12	392416	keystroke_i	i	n/a
196.3735	0.075	392747	keystroke_t	t	n/a
196.5085	0.12	393017	keystroke_s	s	n/a
196.718	0.09	393436	keystroke_Key.enter	Key.enter	n/a
196.813	7.017	393626	prompt	n/a	concentrate stunning help variance\n
197.708	0.075	395416	keystroke_c	c	n/a
197.828	0.09	395656	keystroke_o	o	n/a
198.023	0.075	396046	keystroke_n	n	n/a
198.143	0.06	396286	keystroke_c	c	n/a
198.293	0.09	396586	keystroke_e	e	n/a
198.413	0.06	396826	keystroke_n	n	n/a
198.503	0.075	397006	keystroke_t	t	n/a
198.668	0.105	397336	keystroke_r	r	n/a
198.833	0.075	397666	keystroke_a	a	n/a
199.0585	0.105	398117	keystroke_t	t	n/a
199.1185	0.075	398237	keystroke_e	e	n/a
199.2535	0.09	398507	keystroke_Key.space	Key.space	n/a
199.5385	0.09	399077	keystroke_s	s	n/a
199.7335	0.0745	399467	keystroke_t	t	n/a
199.853	0.075	399706	keystroke_u	u	n/a
200.093	0.03	400186	keystroke_n	n	n/a
200.198	0.06	400396	keystroke_n	n	n/a
200.333	0.1205	400666	keystroke_i	i	n/a
200.4385	0.075	400877	keystroke_n	n	n/a
200.558	0.075	401116	keystroke_g	g	n/a
200.678	0.03	401356	keystroke_Key.space	Key.space	n/a
201.2485	0.045	402497	keystroke_h	h	n/a
201.3685	0.06	402737	keystroke_e	e	n/a
201.4735	0.09	402947	keystroke_l	l	n/a
201.6685	0.09	403337	keystroke_p	p	n/a
201.9235	0.06	403847	keystroke_Key.space	Key.space	n/a
202.598	0.06	405196	keystroke_v	v	n/a
202.748	0.075	405496	keystroke_a	a	n/a
202.884	0.089	405768	keystroke_r	r	n/a
203.003	0.09	406006	keystroke_i	i	n/a
203.123	0.075	406246	keystroke_a	a	n/a
203.273	0.06	406546	keystroke_n	n	n/a
203.468	0.135	406936	keystroke_c	c	n/a
203.5585	0.1045	407117	keystroke_e	e	n/a
203.7535	0.0745	407507	keystroke_Key.enter	Key.enter	n/a
203.833	8.727	407666	prompt	n/a	trim nebraska evans henderson\n
204.698	0.06	409396	keystroke_t	t	n/a
204.908	0.06	409816	keystroke_r	r	n/a
205.133	0.06	410266	keystroke_i	i	n/a
205.3585	0.06	410717	keystroke_m	m	n/a
205.5535	0.06	411107	keystroke_Key.space	Key.space	n/a
206.2135	0.045	412427	keystroke_n	n	n/a
206.3335	0.06	412667	keystroke_e	e	n/a
206.708	0.06	413416	keystroke_b	b	n/a
206.828	0.06	413656	keystroke_r	r	n/a
207.008	0.075	414016	keystroke_a	a	n/a
207.293	0.06	414586	keystroke_s	s	n/a
207.473	0.09	414946	keystroke_k	k	n/a
207.578	0.09	415156	keystroke_s	s	n/a
208.283	0.105	416566	keystroke_Key.backspace	Key.backspace	n/a
208.403	0.09	416806	keystroke_a	a	n/a
208.658	0.015	417316	keystroke_Key.space	Key.space	n/a
209.498	0.06	418996	keystroke_e	e	n/a
209.8885	0.075	419777	keystroke_v	v	n/a
210.0535	0.105	420107	keystroke_a	a	n/a
210.1735	0.09	420347	keystroke_n	n	n/a
210.3085	0.0895	420617	keystroke_s	s	n/a
210.428	0.06	420856	keystroke_Key.space	Key.space	n/a
211.1335	0.06	422267	keystroke_h	h	n/a
211.2835	0.06	422567	keystroke_e	e	n/a
211.3585	0.075	422717	keystroke_n	n	n/a
211.5085	0.075	423017	keystroke_d	d	n/a
211.6885	0.12	423377	keystroke_e	e	n/a
211.7635	0.06	423527	keystroke_r	r	n/a
211.9435	0.075	423887	keystroke_s	s	n/a
212.0635	0.105	424127	keystroke_o	o	n/a
212.1235	0.105	424247	keystroke_n	n	n/a
212.4685	0.09	424937	keystroke_Key.enter	Key.enter	n/a
212.563	8.6365	425126	prompt	n/a	boundary encouraged todd congress\n
213.5785	0.06	427157	keystroke_b	b	n/a
213.8335	0.12	427667	keystroke_o	o	n/a
213.9085	0.075	427817	keystroke_u	u	n/a
214.1185	0.075	428237	keystroke_n	n	n/a
214.2535	0.09	428507	keystroke_d	d	n/a
214.478	0.09	428956	keystroke_a	a	n/a
214.658	0.075	429316	keystroke_r	r	n/a
214.853	0.09	429706	keystroke_y	y	n/a
214.988	0.09	429976	keystroke_Key.space	Key.space	n/a
215.828	0.06	431656	keystroke_e	e	n/a
216.023	0.06	432046	keystroke_n	n	n/a
216.218	0.075	432436	keystroke_c	c	n/a
216.338	0.1205	432676	keystroke_o	o	n/a
216.3985	0.105	432797	keystroke_u	u	n/a
216.5785	0.075	433157	keystroke_r	r	n/a
216.7885	0.09	433577	keystroke_a	a	n/a
217.0585	0.075	434117	keystroke_g	g	n/a
217.2685	0.075	434537	keystroke_e	e	n/a
217.4485	0.12	434897	keystroke_d	d	n/a
217.5835	0.075	435167	keystroke_Key.space	Key.space	n/a
218.513	0.06	437026	keystroke_t	t	n/a
218.6175	0.105	437235	keystroke_o	o	n/a
219.008	0.0595	438016	keystroke_d	d	n/a
219.128	0.0755	438256	keystroke_d	d	n/a
219.3225	0.06	438645	keystroke_Key.space	Key.space	n/a
219.699	0.074	439398	keystroke_c	c	n/a
219.879	0.134	439758	keystroke_o	o	n/a
219.969	0.074	439938	keystroke_n	n	n/a
220.103	0.076	440206	keystroke_g	g	n/a
220.299	0.0745	440598	keystroke_r	r	n/a
220.4635	0.0745	440927	keystroke_e	e	n/a
220.688	0.03	441376	keystroke_s	s	n/a
220.778	0.09	441556	keystroke_s	s	n/a
221.138	0.06	442276	keystroke_Key.enter	Key.enter	n/a
221.2025	6.6575	442405	prompt	n/a	listings silence nodes stats\n
222.2335	0.075	444467	keystroke_l	l	n/a
222.3385	0.06	444677	keystroke_i	i	n/a
222.4435	0.06	444887	keystroke_s	s	n/a
222.6235	0.075	445247	keystroke_t	t	n/a
222.7285	0.12	445457	keystroke_i	i	n/a
222.7885	0.105	445577	keystroke_n	n	n/a
222.8935	0.045	445787	keystroke_g	g	n/a
223.073	0.075	446146	keystroke_s	s	n/a
223.149	0.074	446298	keystroke_Key.space	Key.space	n/a
223.7635	0.075	447527	keystroke_s	s	n/a
223.8835	0.06	447767	keystroke_i	i	n/a
224.1385	0.06	448277	keystroke_l	l	n/a
224.3335	0.0595	448667	keystroke_e	e	n/a
224.438	0.09	448876	keystroke_n	n	n/a
224.603	0.15	449206	keystroke_c	c	n/a
224.678	0.12	449356	keystroke_e	e	n/a
224.903	0.075	449806	keystroke_Key.space	Key.space	n/a
225.7135	0.075	451427	keystroke_n	n	n/a
225.8035	0.0745	451607	keystroke_o	o	n/a
225.983	0.075	451966	keystroke_d	d	n/a
226.163	0.045	452326	keystroke_e	e	n/a
226.343	0.06	452686	keystroke_s	s	n/a
226.448	0.06	452896	keystroke_Key.space	Key.space	n/a
226.688	0.0895	453376	keystroke_s	s	n/a
226.9125	0.06	453825	keystroke_t	t	n/a
227.0925	0.105	454185	keystroke_a	a	n/a
227.3175	0.09	454635	keystroke_t	t	n/a
227.4535	0.12	454907	keystroke_s	s	n/a
227.7525	0.1055	455505	keystroke_Key.enter	Key.enter	n/a
227.863	7.5115	455726	prompt	n/a	romantic approval forbes modelling\n
228.698	0.09	457396	keystroke_r	r	n/a
228.848	0.075	457696	keystroke_o	o	n/a
229.043	0.06	458086	keystroke_m	m	n/a
229.133	0.09	458266	keystroke_a	a	n/a
229.283	0.075	458566	keystroke_n	n	n/a
229.433	0.075	458866	keystroke_t	t	n/a
229.568	0.09	459136	keystroke_i	i	n/a
229.718	0.0755	459436	keystroke_c	c	n/a
229.8085	0.075	459617	keystroke_Key.space	Key.space	n/a
230.393	0.09	460786	keystroke_a	a	n/a
230.558	0.076	461116	keystroke_p	p	n/a
230.708	0.09	461416	keystroke_p	p	n/a
230.843	0.075	461686	keystroke_r	r	n/a
230.933	0.06	461866	keystroke_o	o	n/a
231.113	0.061	462226	keystroke_v	v	n/a
231.293	0.091	462586	keystroke_a	a	n/a
231.368	0.0895	462736	keystroke_l	l	n/a
231.6075	0.06	463215	keystroke_Key.space	Key.space	n/a
232.073	0.06	464146	keystroke_f	f	n/a
232.328	0.06	464656	keystroke_o	o	n/a
232.493	0.0455	464986	keystroke_r	r	n/a
232.6885	0.06	465377	keystroke_b	b	n/a
232.8385	0.075	465677	keystroke_e	e	n/a
233.0335	0.075	466067	keystroke_s	s	n/a
233.1685	0.075	466337	keystroke_Key.space	Key.space	n/a
233.8585	0.06	467717	keystroke_m	m	n/a
233.9935	0.105	467987	keystroke_o	o	n/a
234.1435	0.045	468287	keystroke_d	d	n/a
234.3085	0.06	468617	keystroke_e	e	n/a
234.3835	0.09	468767	keystroke_l	l	n/a
234.6235	0.12	469247	keystroke_i	i	n/a
234.7135	0.075	469427	keystroke_n	n	n/a
234.8035	0.075	469607	keystroke_g	g	n/a
235.2535	0.12	470507	keystroke_Key.enter	Key.enter	n/a
235.378	8.997	470756	prompt	n/a	hugo mysterious alliance easier\n
236.3035	0.06	472607	keystroke_h	h	n/a
236.4835	0.06	472967	keystroke_u	u	n/a
236.9335	0.09	473867	keystroke_g	g	n/a
237.0385	0.075	474077	keystroke_o	o	n/a
237.2335	0.06	474467	keystroke_Key.space	Key.space	n/a
237.5035	0.06	475007	keystroke_m	m	n/a
238.0885	0.09	476177	keystroke_y	y	n/a
238.2385	0.075	476477	keystroke_s	s	n/a
238.433	0.075	476866	keystroke_t	t	n/a
238.583	0.1495	477166	keystroke_e	e	n/a
238.6885	0.075	477377	keystroke_r	r	n/a
239.0635	0.09	478127	keystroke_i	i	n/a
239.3185	0.015	478637	keystroke_i	i	n/a
239.8435	0.075	479687	keystroke_Key.backspace	Key.backspace	n/a
240.2785	0.15	480557	keystroke_o	o	n/a
240.3835	0.105	480767	keystroke_u	u	n/a
240.4735	0.075	480947	keystroke_s	s	n/a
240.6385	0.06	481277	keystroke_Key.space	Key.space	n/a
241.193	0.09	482386	keystroke_a	a	n/a
241.448	0.06	482896	keystroke_l	l	n/a
241.613	0.06	483226	keystroke_l	l	n/a
241.763	0.09	483526	keystroke_i	i	n/a
242.003	0.0755	484006	keystroke_a	a	n/a
242.1085	0.075	484217	keystroke_n	n	n/a
242.2885	0.1495	484577	keystroke_c	c	n/a
242.393	0.12	484786	keystroke_e	e	n/a
242.873	0.075	485746	keystroke_Key.space	Key.space	n/a
243.113	0.075	486226	keystroke_e	e	n/a
243.308	0.135	486616	keystroke_a	a	n/a
243.398	0.0905	486796	keystroke_s	s	n/a
243.5925	0.09	487185	keystroke_i	i	n/a
243.7275	0.091	487455	keystroke_e	e	n/a
243.7875	0.091	487575	keystroke_r	r	n/a
244.3125	0.061	488625	keystroke_Key.enter	Key.enter	n/a
244.3785	11.5315	488757	prompt	n/a	turned asthma payable directory\n
245.288	0.045	490576	keystroke_t	t	n/a
245.348	0.105	490696	keystroke_u	u	n/a
245.663	0.06	491326	keystroke_r	r	n/a
245.768	0.075	491536	keystroke_n	n	n/a
245.873	0.075	491746	keystroke_e	e	n/a
246.038	0.075	492076	keystroke_d	d	n/a
246.143	0.09	492286	keystroke_Key.space	Key.space	n/a
246.623	0.09	493246	keystroke_a	a	n/a
246.8485	0.06	493697	keystroke_s	s	n/a
247.0435	0.0745	494087	keystroke_t	t	n/a
247.148	0.09	494296	keystroke_h	h	n/a
247.388	0.075	494776	keystroke_m	m	n/a
247.5375	0.06	495075	keystroke_a	a	n/a
247.6725	0.09	495345	keystroke_Key.space	Key.space	n/a
248.3785	0.06	496757	keystroke_p	p	n/a
248.8285	0.0895	497657	keystroke_a	a	n/a
249.068	0.045	498136	keystroke_t	t	n/a
249.518	0.03	499036	keystroke_Key.backspace	Key.backspace	n/a
249.743	0.06	499486	keystroke_y	y	n/a
249.938	0.075	499876	keystroke_a	a	n/a
250.4025	0.046	500805	keystroke_a	a	n/a
250.7925	0.105	501585	keystroke_Key.backspace	Key.backspace	n/a
251.1675	0.075	502335	keystroke_b	b	n/a
251.4975	0.076	502995	keystroke_e	e	n/a
252.2485	0.09	504497	keystroke_Key.backspace	Key.backspace	n/a
253.373	0.06	506746	keystroke_l	l	n/a
253.463	0.075	506926	keystroke_e	e	n/a
253.583	0.075	507166	keystroke_Key.space	Key.space	n/a
254.4985	0.075	508997	keystroke_d	d	n/a
254.6335	0.045	509267	keystroke_i	i	n/a
254.7235	0.075	509447	keystroke_r	r	n/a
254.9185	0.12	509837	keystroke_e	e	n/a
255.0235	0.06	510047	keystroke_c	c	n/a
255.2035	0.06	510407	keystroke_t	t	n/a
255.3085	0.09	510617	keystroke_o	o	n/a
255.4135	0.105	510827	keystroke_r	r	n/a
255.6235	0.0595	511247	keystroke_y	y	n/a
255.8335	0.075	511667	keystroke_Key.enter	Key.enter	n/a
255.9125	12.2375	511825	prompt	n/a	speaks suspension rochester entertaining\n
256.7035	0.06	513407	keystroke_s	s	n/a
256.8235	0.09	513647	keystroke_p	p	n/a
256.9735	0.06	513947	keystroke_e	e	n/a
257.1385	0.075	514277	keystroke_a	a	n/a
257.3635	0.075	514727	keystroke_k	k	n/a
257.4685	0.075	514937	keystroke_s	s	n/a
257.5735	0.075	515147	keystroke_Key.space	Key.space	n/a
257.9035	0.06	515807	keystroke_s	s	n/a
258.1135	0.075	516227	keystroke_u	u	n/a
258.2335	0.075	516467	keystroke_s	s	n/a
258.4435	0.045	516887	keystroke_p	p	n/a
258.5785	0.06	517157	keystroke_e	e	n/a
258.7285	0.075	517457	keystroke_n	n	n/a
259.4185	0.06	518837	keystroke_s	s	n/a
259.5085	0.12	519017	keystroke_i	i	n/a
259.5985	0.075	519197	keystroke_o	o	n/a
259.7785	0.06	519557	keystroke_n	n	n/a
259.9585	0.075	519917	keystroke_Key.space	Key.space	n/a
260.483	0.06	520966	keystroke_r	r	n/a
260.558	0.105	521116	keystroke_o	o	n/a
260.723	0.06	521446	keystroke_c	c	n/a
261.1435	0.06	522287	keystroke_h	h	n/a
261.7735	0.075	523547	keystroke_c	c	n/a
261.8935	0.045	523787	keystroke_h	h	n/a
262.958	0.075	525916	keystroke_Key.backspace	Key.backspace	n/a
263.2585	0.075	526517	keystroke_Key.backspace	Key.backspace	n/a
264.2785	0.045	528557	keystroke_e	e	n/a
264.4585	0.045	528917	keystroke_s	s	n/a
264.6385	0.06	529277	keystroke_t	t	n/a
264.8035	0.105	529607	keystroke_e	e	n/a
264.8785	0.09	529757	keystroke_r	r	n/a
264.9835	0.075	529967	keystroke_Key.space	Key.space	n/a
265.4925	0.076	530985	keystroke_e	e	n/a
265.7485	0.075	531497	keystroke_n	n	n/a
266.0175	0.061	532035	keystroke_t	t	n/a
266.2285	0.105	532457	keystroke_e	e	n/a
266.3035	0.075	532607	keystroke_r	r	n/a
266.4835	0.06	532967	keystroke_t	t	n/a
266.6485	0.09	533297	keystroke_a	a	n/a
266.7085	0.165	533417	keystroke_i	i	n/a
266.7985	0.12	533597	keystroke_n	n	n/a
267.5635	0.12	535127	keystroke_i	i	n/a
267.6535	0.045	535307	keystroke_n	n	n/a
267.6685	0.045	535337	keystroke_g	g	n/a
268.0585	0.09	536117	keystroke_Key.enter	Key.enter	n/a
268.1525	6.928	536305	prompt	n/a	society findings attitude action\n
269.0035	0.09	538007	keystroke_s	s	n/a
269.1085	0.075	538217	keystroke_o	o	n/a
269.2285	0.075	538457	keystroke_c	c	n/a
269.3485	0.06	538697	keystroke_i	i	n/a
269.4685	0.0745	538937	keystroke_e	e	n/a
269.663	0.06	539326	keystroke_t	t	n/a
269.828	0.075	539656	keystroke_y	y	n/a
269.963	0.075	539926	keystroke_Key.space	Key.space	n/a
270.563	0.075	541126	keystroke_f	f	n/a
270.6685	0.06	541337	keystroke_i	i	n/a
270.8485	0.06	541697	keystroke_n	n	n/a
270.9535	0.075	541907	keystroke_d	d	n/a
271.0735	0.12	542147	keystroke_i	i	n/a
271.1485	0.09	542297	keystroke_n	n	n/a
271.2835	0.03	542567	keystroke_g	g	n/a
271.4785	0.06	542957	keystroke_s	s	n/a
271.5535	0.09	543107	keystroke_Key.space	Key.space	n/a
271.973	0.105	543946	keystroke_a	a	n/a
272.213	0.075	544426	keystroke_t	t	n/a
272.348	0.09	544696	keystroke_t	t	n/a
272.468	0.09	544936	keystroke_i	i	n/a
272.603	0.0905	545206	keystroke_t	t	n/a
272.7685	0.105	545537	keystroke_u	u	n/a
273.1885	0.06	546377	keystroke_d	d	n/a
273.3525	0.0755	546705	keystroke_e	e	n/a
273.458	0.06	546916	keystroke_Key.space	Key.space	n/a
273.938	0.045	547876	keystroke_a	a	n/a
274.118	0.09	548236	keystroke_c	c	n/a
274.328	0.075	548656	keystroke_t	t	n/a
274.448	0.12	548896	keystroke_i	i	n/a
274.508	0.12	549016	keystroke_o	o	n/a
274.688	0.1055	549376	keystroke_n	n	n/a
275.003	0.0755	550006	keystroke_Key.enter	Key.enter	n/a
275.0855	8.2745	550171	prompt	n/a	candidates billion execute files\n
276.2185	0.06	552437	keystroke_c	c	n/a
276.353	0.0755	552706	keystroke_a	a	n/a
276.4585	0.06	552917	keystroke_n	n	n/a
276.6235	0.075	553247	keystroke_d	d	n/a
276.7135	0.075	553427	keystroke_i	i	n/a
276.8035	0.09	553607	keystroke_d	d	n/a
276.9685	0.09	553937	keystroke_a	a	n/a
277.163	0.105	554326	keystroke_t	t	n/a
277.223	0.09	554446	keystroke_e	e	n/a
277.433	0.0905	554866	keystroke_s	s	n/a
277.5385	0.075	555077	keystroke_Key.space	Key.space	n/a
278.1535	0.12	556307	keystroke_b	b	n/a
278.2285	0.1345	556457	keystroke_i	i	n/a
278.528	0.0595	557056	keystroke_l	l	n/a
278.6625	0.06	557325	keystroke_l	l	n/a
278.8425	0.105	557685	keystroke_i	i	n/a
278.9775	0.0605	557955	keystroke_o	o	n/a
279.2335	0.089	558467	keystroke_n	n	n/a
279.473	0.0595	558946	keystroke_Key.space	Key.space	n/a
280.4935	0.06	560987	keystroke_e	e	n/a
280.7335	0.075	561467	keystroke_x	x	n/a
281.0035	0.075	562007	keystroke_e	e	n/a
281.1835	0.075	562367	keystroke_c	c	n/a
281.4235	0.09	562847	keystroke_u	u	n/a
281.5735	0.075	563147	keystroke_t	t	n/a
281.6785	0.09	563357	keystroke_e	e	n/a
281.7985	0.075	563597	keystroke_Key.space	Key.space	n/a
282.443	0.015	564886	keystroke_f	f	n/a
282.503	0.03	565006	keystroke_i	i	n/a
282.683	0.06	565366	keystroke_l	l	n/a
282.818	0.045	565636	keystroke_e	e	n/a
282.998	0.045	565996	keystroke_s	s	n/a
283.298	0.06	566596	keystroke_Key.enter	Key.enter	n/a
283.364	8.231	566728	prompt	n/a	enjoying objective menu none\n
284.1685	0.0595	568337	keystroke_e	e	n/a
284.378	0.045	568756	keystroke_n	n	n/a
284.574	0.059	569148	keystroke_j	j	n/a
284.768	0.105	569536	keystroke_o	o	n/a
285.038	0.06	570076	keystroke_y	y	n/a
285.278	0.12	570556	keystroke_i	i	n/a
285.368	0.075	570736	keystroke_n	n	n/a
285.458	0.06	570916	keystroke_g	g	n/a
285.563	0.075	571126	keystroke_Key.space	Key.space	n/a
286.088	0.075	572176	keystroke_o	o	n/a
286.343	0.06	572686	keystroke_b	b	n/a
286.538	0.075	573076	keystroke_j	j	n/a
286.628	0.12	573256	keystroke_e	e	n/a
286.688	0.0755	573376	keystroke_c	c	n/a
286.8985	0.06	573797	keystroke_t	t	n/a
286.9885	0.09	573977	keystroke_i	i	n/a
287.1835	0.12	574367	keystroke_v	v	n/a
287.2885	0.03	574577	keystroke_e	e	n/a
287.4535	0.105	574907	keystroke_Key.space	Key.space	n/a
287.9785	0.09	575957	keystroke_m	m	n/a
288.0835	0.09	576167	keystroke_e	e	n/a
288.2185	0.09	576437	keystroke_n	n	n/a
288.3385	0.06	576677	keystroke_t	t	n/a
288.4435	0.09	576887	keystroke_Key.space	Key.space	n/a
288.983	0.06	577966	keystroke_Key.backspace	Key.backspace	n/a
289.118	0.105	578236	keystroke_Key.backspace	Key.backspace	n/a
289.298	0.075	578596	keystroke_y	y	n/a
289.853	0.09	579706	keystroke_Key.backspace	Key.backspace	n/a
289.928	0.106	579856	keystroke_u	u	n/a
290.243	0.06	580486	keystroke_n	n	n/a
290.9785	0.045	581957	keystroke_n	n	n/a
291.1285	0.12	582257	keystroke_o	o	n/a
291.2035	0.09	582407	keystroke_n	n	n/a
291.3385	0.09	582677	keystroke_e	e	n/a
291.5035	0.09	583007	keystroke_Key.enter	Key.enter	n/a
291.6005	9.3395	583201	prompt	n/a	starring seven education suburban\n
292.8985	0.09	585797	keystroke_s	s	n/a
293.078	0.075	586156	keystroke_t	t	n/a
293.258	0.09	586516	keystroke_a	a	n/a
293.483	0.045	586966	keystroke_r	r	n/a
293.588	0.09	587176	keystroke_r	r	n/a
293.858	0.135	587716	keystroke_i	i	n/a
293.933	0.09	587866	keystroke_n	n	n/a
294.038	0.06	588076	keystroke_g	g	n/a
294.143	0.09	588286	keystroke_Key.space	Key.space	n/a
294.623	0.06	589246	keystroke_s	s	n/a
294.788	0.06	589576	keystroke_e	e	n/a
294.983	0.06	589966	keystroke_v	v	n/a
295.493	0.075	590986	keystroke_e	e	n/a
295.583	0.075	591166	keystroke_n	n	n/a
295.763	0.09	591526	keystroke_Key.space	Key.space	n/a
296.003	0.09	592006	keystroke_e	e	n/a
296.753	0.075	593506	keystroke_d	d	n/a
296.918	0.06	593836	keystroke_u	u	n/a
297.113	0.09	594226	keystroke_c	c	n/a
297.218	0.075	594436	keystroke_a	a	n/a
297.428	0.06	594856	keystroke_t	t	n/a
297.503	0.105	595006	keystroke_i	i	n/a
297.548	0.12	595096	keystroke_o	o	n/a
297.758	0.075	595516	keystroke_n	n	n/a
297.953	0.06	595906	keystroke_Key.space	Key.space	n/a
298.553	0.06	597106	keystroke_s	s	n/a
298.688	0.06	597376	keystroke_u	u	n/a
298.913	0.075	597826	keystroke_b	b	n/a
299.213	0.075	598426	keystroke_u	u	n/a
299.393	0.06	598786	keystroke_r	r	n/a
299.558	0.075	599116	keystroke_b	b	n/a
299.798	0.03	599596	keystroke_a	a	n/a
300.4135	0.075	600827	keystroke_n	n	n/a
300.8635	0.075	601727	keystroke_Key.enter	Key.enter	n/a
300.943	8.712	601886	prompt	n/a	locale greek exhibit plastics\n
301.6735	0.09	603347	keystroke_l	l	n/a
301.8985	0.06	603797	keystroke_o	o	n/a
302.0635	0.075	604127	keystroke_c	c	n/a
302.1535	0.12	604307	keystroke_a	a	n/a
302.348	0.105	604696	keystroke_l	l	n/a
302.498	0.045	604996	keystroke_e	e	n/a
302.723	0.06	605446	keystroke_Key.space	Key.space	n/a
303.3385	0.0595	606677	keystroke_g	g	n/a
303.533	0.06	607066	keystroke_r	r	n/a
303.713	0.03	607426	keystroke_e	e	n/a
303.818	0.12	607636	keystroke_e	e	n/a
304.553	0.06	609106	keystroke_k	k	n/a
304.733	0.045	609466	keystroke_Key.space	Key.space	n/a
304.973	0.06	609946	keystroke_e	e	n/a
305.213	0.06	610426	keystroke_x	x	n/a
305.4835	0.06	610967	keystroke_h	h	n/a
305.6475	0.091	611295	keystroke_i	i	n/a
305.9785	0.074	611957	keystroke_b	b	n/a
306.158	0.105	612316	keystroke_i	i	n/a
306.308	0.06	612616	keystroke_t	t	n/a
306.413	0.06	612826	keystroke_Key.space	Key.space	n/a
306.983	0.105	613966	keystroke_p	p	n/a
307.058	0.075	614116	keystroke_l	l	n/a
307.3435	0.105	614687	keystroke_a	a	n/a
307.583	0.075	615166	keystroke_s	s	n/a
307.973	0.075	615946	keystroke_t	t	n/a
308.483	0.09	616966	keystroke_i	i	n/a
309.0835	0.09	618167	keystroke_c	c	n/a
309.2935	0.105	618587	keystroke_s	s	n/a
309.5485	0.105	619097	keystroke_Key.enter	Key.enter	n/a
309.658	9.0865	619316	prompt	n/a	he've weblog foul demanding\n
310.6435	0.075	621287	keystroke_h	h	n/a
310.7485	0.06	621497	keystroke_e	e	n/a
311.0185	0.045	622037	keystroke_'	'	n/a
311.3335	0.09	622667	keystroke_v	v	n/a
311.4835	0.0895	622967	keystroke_e	e	n/a
311.6025	0.105	623205	keystroke_Key.space	Key.space	n/a
312.608	0.151	625216	keystroke_w	w	n/a
312.744	0.059	625488	keystroke_e	e	n/a
313.418	0.06	626836	keystroke_b	b	n/a
313.643	0.105	627286	keystroke_l	l	n/a
313.853	0.075	627706	keystroke_o	o	n/a
314.213	0.075	628426	keystroke_g	g	n/a
314.363	0.075	628726	keystroke_Key.space	Key.space	n/a
315.2785	0.075	630557	keystroke_f	f	n/a
315.4735	0.15	630947	keystroke_o	o	n/a
315.5635	0.12	631127	keystroke_u	u	n/a
315.9225	0.091	631845	keystroke_l	l	n/a
316.1625	0.061	632325	keystroke_Key.space	Key.space	n/a
317.228	0.105	634456	keystroke_d	d	n/a
317.378	0.06	634756	keystroke_e	e	n/a
317.498	0.06	634996	keystroke_m	m	n/a
317.588	0.075	635176	keystroke_a	a	n/a
317.738	0.075	635476	keystroke_n	n	n/a
317.993	0.1055	635986	keystroke_d	d	n/a
318.1285	0.15	636257	keystroke_i	i	n/a
318.2185	0.105	636437	keystroke_n	n	n/a
318.3385	0.09	636677	keystroke_g	g	n/a
318.6685	0.075	637337	keystroke_Key.enter	Key.enter	n/a
318.748	8.607	637496	prompt	n/a	conclusion shanghai aids receivers\n
319.568	0.075	639136	keystroke_c	c	n/a
319.658	0.075	639316	keystroke_o	o	n/a
319.868	0.06	639736	keystroke_n	n	n/a
319.943	0.075	639886	keystroke_c	c	n/a
320.288	0.135	640576	keystroke_l	l	n/a
320.378	0.12	640756	keystroke_u	u	n/a
320.693	0.06	641386	keystroke_s	s	n/a
320.873	0.12	641746	keystroke_i	i	n/a
320.933	0.12	641866	keystroke_o	o	n/a
321.1435	0.075	642287	keystroke_n	n	n/a
321.3675	0.075	642735	keystroke_Key.space	Key.space	n/a
321.6985	0.06	643397	keystroke_s	s	n/a
321.9985	0.06	643997	keystroke_h	h	n/a
322.1935	0.0895	644387	keystroke_a	a	n/a
322.328	0.075	644656	keystroke_n	n	n/a
322.5235	0.075	645047	keystroke_g	g	n/a
323.1385	0.045	646277	keystroke_h	h	n/a
323.2735	0.075	646547	keystroke_a	a	n/a
324.2935	0.06	648587	keystroke_i	i	n/a
324.4885	0.06	648977	keystroke_Key.space	Key.space	n/a
324.6385	0.075	649277	keystroke_a	a	n/a
324.7435	0.075	649487	keystroke_i	i	n/a
324.9085	0.075	649817	keystroke_d	d	n/a
325.1185	0.06	650237	keystroke_s	s	n/a
325.2235	0.075	650447	keystroke_Key.space	Key.space	n/a
325.7485	0.12	651497	keystroke_r	r	n/a
325.8235	0.105	651647	keystroke_e	e	n/a
326.0635	0.075	652127	keystroke_c	c	n/a
326.2135	0.09	652427	keystroke_e	e	n/a
326.3335	0.0895	652667	keystroke_i	i	n/a
326.468	0.06	652936	keystroke_v	v	n/a
326.6485	0.135	653297	keystroke_e	e	n/a
326.7535	0.09	653507	keystroke_r	r	n/a
326.9635	0.06	653927	keystroke_s	s	n/a
327.2485	0.105	654497	keystroke_Key.enter	Key.enter	n/a
327.358	6.462	654716	prompt	n/a	major parent ghana cent\n
328.1635	0.045	656327	keystroke_m	m	n/a
328.2535	0.09	656507	keystroke_a	a	n/a
328.3585	0.105	656717	keystroke_j	j	n/a
328.5385	0.105	657077	keystroke_o	o	n/a
329.3185	0.075	658637	keystroke_r	r	n/a
329.4085	0.075	658817	keystroke_Key.space	Key.space	n/a
329.9335	0.09	659867	keystroke_p	p	n/a
330.0535	0.09	660107	keystroke_a	a	n/a
330.2485	0.045	660497	keystroke_r	r	n/a
330.4285	0.09	660857	keystroke_e	e	n/a
330.5635	0.09	661127	keystroke_n	n	n/a
330.7285	0.06	661457	keystroke_t	t	n/a
330.8185	0.09	661637	keystroke_Key.space	Key.space	n/a
331.6285	0.075	663257	keystroke_g	g	n/a
331.7485	0.06	663497	keystroke_h	h	n/a
331.8835	0.075	663767	keystroke_a	a	n/a
332.0035	0.075	664007	keystroke_n	n	n/a
332.138	0.075	664276	keystroke_a	a	n/a
332.258	0.075	664516	keystroke_Key.space	Key.space	n/a
332.9035	0.09	665807	keystroke_c	c	n/a
333.1585	0.089	666317	keystroke_e	e	n/a
333.3085	0.074	666617	keystroke_n	n	n/a
333.458	0.09	666916	keystroke_t	t	n/a
333.728	0.09	667456	keystroke_Key.enter	Key.enter	n/a
333.823	10.332	667646	prompt	n/a	ownership emails gasoline farmers\n
334.8535	0.06	669707	keystroke_o	o	n/a
335.0335	0.06	670067	keystroke_w	w	n/a
335.3485	0.045	670697	keystroke_n	n	n/a
335.4535	0.075	670907	keystroke_d	d	n/a
335.8285	0.09	671657	keystroke_Key.backspace	Key.backspace	n/a
335.9635	0.165	671927	keystroke_e	e	n/a
336.1135	0.075	672227	keystroke_r	r	n/a
336.3085	0.075	672617	keystroke_s	s	n/a
336.5185	0.09	673037	keystroke_h	h	n/a
336.5935	0.12	673187	keystroke_i	i	n/a
336.8635	0.105	673727	keystroke_p	p	n/a
337.1485	0.045	674297	keystroke_Key.space	Key.space	n/a
337.8085	0.06	675617	keystroke_e	e	n/a
337.8835	0.075	675767	keystroke_m	m	n/a
338.0035	0.09	676007	keystroke_a	a	n/a
338.1085	0.075	676217	keystroke_i	i	n/a
338.378	0.12	676756	keystroke_l	l	n/a
338.528	0.09	677056	keystroke_s	s	n/a
338.648	0.075	677296	keystroke_Key.space	Key.space	n/a
339.683	0.015	679366	keystroke_g	g	n/a
339.758	0.075	679516	keystroke_a	a	n/a
340.628	0.075	681256	keystroke_s	s	n/a
340.9725	0.12	681945	keystroke_o	o	n/a
341.2425	0.075	682485	keystroke_l	l	n/a
341.6325	0.151	683265	keystroke_i	i	n/a
341.7225	0.121	683445	keystroke_n	n	n/a
341.8725	0.075	683745	keystroke_e	e	n/a
341.9925	0.09	683985	keystroke_Key.space	Key.space	n/a
342.983	0.075	685966	keystroke_f	f	n/a
343.148	0.075	686296	keystroke_a	a	n/a
343.238	0.075	686476	keystroke_r	r	n/a
343.403	0.075	686806	keystroke_m	m	n/a
343.508	0.12	687016	keystroke_e	e	n/a
343.598	0.076	687196	keystroke_r	r	n/a
343.793	0.06	687586	keystroke_s	s	n/a
344.0475	0.105	688095	keystroke_Key.enter	Key.enter	n/a
344.1575	6.102	688315	prompt	n/a	sealed wrote details hotel\n
344.949	0.059	689898	keystroke_s	s	n/a
345.188	0.06	690376	keystroke_e	e	n/a
345.353	0.075	690706	keystroke_a	a	n/a
345.563	0.1055	691126	keystroke_l	l	n/a
345.7135	0.06	691427	keystroke_e	e	n/a
345.8785	0.075	691757	keystroke_d	d	n/a
345.9835	0.06	691967	keystroke_Key.space	Key.space	n/a
346.6585	0.09	693317	keystroke_w	w	n/a
346.8525	0.061	693705	keystroke_r	r	n/a
347.0185	0.09	694037	keystroke_o	o	n/a
347.1835	0.1345	694367	keystroke_t	t	n/a
347.288	0.09	694576	keystroke_e	e	n/a
347.423	0.075	694846	keystroke_Key.space	Key.space	n/a
347.903	0.075	695806	keystroke_d	d	n/a
348.068	0.06	696136	keystroke_e	e	n/a
348.218	0.06	696436	keystroke_t	t	n/a
348.368	0.075	696736	keystroke_a	a	n/a
348.413	0.105	696826	keystroke_i	i	n/a
348.623	0.09	697246	keystroke_l	l	n/a
348.728	0.06	697456	keystroke_s	s	n/a
348.848	0.09	697696	keystroke_Key.space	Key.space	n/a
349.268	0.09	698536	keystroke_h	h	n/a
349.328	0.09	698656	keystroke_o	o	n/a
349.673	0.06	699346	keystroke_t	t	n/a
349.8085	0.09	699617	keystroke_e	e	n/a
349.9435	0.105	699887	keystroke_l	l	n/a
350.1385	0.12	700277	keystroke_Key.enter	Key.enter	n/a
350.263	22.362	700526	prompt	n/a	became substantially about horrible\n
351.683	0.0455	703366	keystroke_b	b	n/a
351.7735	0.075	703547	keystroke_e	e	n/a
352.0585	0.195	704117	keystroke_c	c	n/a
353.1985	0.075	706397	keystroke_a	a	n/a
353.5885	0.06	707177	keystroke_m	m	n/a
353.6935	0.06	707387	keystroke_e	e	n/a
353.7985	0.0745	707597	keystroke_Key.space	Key.space	n/a
354.7735	0.06	709547	keystroke_s	s	n/a
355.0125	0.075	710025	keystroke_u	u	n/a
355.418	0.045	710836	keystroke_n	n	n/a
355.553	0.075	711106	keystroke_s	s	n/a
355.778	0.075	711556	keystroke_t	t	n/a
355.973	0.09	711946	keystroke_a	a	n/a
356.093	0.075	712186	keystroke_n	n	n/a
356.228	0.075	712456	keystroke_t	t	n/a
356.288	0.105	712576	keystroke_i	i	n/a
356.453	0.105	712906	keystroke_a	a	n/a
356.573	0.06	713146	keystroke_l	l	n/a
356.723	0.09	713446	keystroke_l	l	n/a
356.828	0.09	713656	keystroke_y	y	n/a
356.948	0.075	713896	keystroke_Key.space	Key.space	n/a
359.063	0.0455	718126	keystroke_Key.backspace	Key.backspace	n/a
359.228	0.075	718456	keystroke_Key.backspace	Key.backspace	n/a
359.408	0.045	718816	keystroke_Key.backspace	Key.backspace	n/a
359.5575	0.045	719115	keystroke_Key.backspace	Key.backspace	n/a
359.6925	0.0605	719385	keystroke_Key.backspace	Key.backspace	n/a
359.843	0.0745	719686	keystroke_Key.backspace	Key.backspace	n/a
360.0075	0.06	720015	keystroke_Key.backspace	Key.backspace	n/a
360.158	0.0595	720316	keystroke_Key.backspace	Key.backspace	n/a
360.3075	0.0605	720615	keystroke_Key.backspace	Key.backspace	n/a
360.458	0.0745	720916	keystroke_Key.backspace	Key.backspace	n/a
361.178	0.045	722356	keystroke_b	b	n/a
361.358	0.061	722716	keystroke_s	s	n/a
361.553	0.045	723106	keystroke_t	t	n/a
361.673	0.105	723346	keystroke_a	a	n/a
362.3935	0.06	724787	keystroke_n	n	n/a
362.8585	0.09	725717	keystroke_t	t	n/a
362.9635	0.09	725927	keystroke_i	i	n/a
363.248	0.075	726496	keystroke_a	a	n/a
363.338	0.0605	726676	keystroke_l	l	n/a
363.4885	0.09	726977	keystroke_l	l	n/a
363.5935	0.09	727187	keystroke_y	y	n/a
363.7285	0.075	727457	keystroke_Key.space	Key.space	n/a
364.373	0.09	728746	keystroke_a	a	n/a
364.643	0.045	729286	keystroke_b	b	n/a
364.8985	0.105	729797	keystroke_o	o	n/a
364.9285	0.105	729857	keystroke_u	u	n/a
365.0635	0.06	730127	keystroke_t	t	n/a
365.2135	0.045	730427	keystroke_Key.space	Key.space	n/a
365.783	0.12	731566	keystroke_h	h	n/a
365.888	0.075	731776	keystroke_o	o	n/a
365.918	0.015	731836	keystroke_i	i	n/a
366.4585	0.045	732917	keystroke_r	r	n/a
366.5635	0.105	733127	keystroke_r	r	n/a
366.7285	0.135	733457	keystroke_i	i	n/a
366.8785	0.06	733757	keystroke_b	b	n/a
367.298	0.075	734596	keystroke_Key.backspace	Key.backspace	n/a
367.493	0.06	734986	keystroke_Key.backspace	Key.backspace	n/a
367.643	0.09	735286	keystroke_Key.backspace	Key.backspace	n/a
367.823	0.09	735646	keystroke_Key.backspace	Key.backspace	n/a
369.2335	0.075	738467	keystroke_Key.backspace	Key.backspace	n/a
369.7585	0.045	739517	keystroke_r	r	n/a
369.8485	0.075	739697	keystroke_r	r	n/a
370.0285	0.09	740057	keystroke_i	i	n/a
370.208	0.06	740416	keystroke_b	b	n/a
370.4185	0.09	740837	keystroke_l	l	n/a
370.5235	0.075	741047	keystroke_e	e	n/a
372.5185	0.105	745037	keystroke_Key.enter	Key.enter	n/a
372.628	6.672	745256	prompt	n/a	apply revolution clara mime\n
373.6285	0.075	747257	keystroke_a	a	n/a
373.7635	0.075	747527	keystroke_p	p	n/a
373.9285	0.075	747857	keystroke_p	p	n/a
374.1085	0.075	748217	keystroke_l	l	n/a
374.2285	0.09	748457	keystroke_y	y	n/a
374.6035	0.09	749207	keystroke_Key.space	Key.space	n/a
375.2635	0.105	750527	keystroke_r	r	n/a
375.3235	0.09	750647	keystroke_e	e	n/a
375.5635	0.06	751127	keystroke_v	v	n/a
375.653	0.09	751306	keystroke_o	o	n/a
375.893	0.135	751786	keystroke_l	l	n/a
375.998	0.09	751996	keystroke_u	u	n/a
376.148	0.075	752296	keystroke_t	t	n/a
376.238	0.135	752476	keystroke_i	i	n/a
376.328	0.075	752656	keystroke_o	o	n/a
376.493	0.075	752986	keystroke_n	n	n/a
376.643	0.105	753286	keystroke_Key.space	Key.space	n/a
377.168	0.06	754336	keystroke_c	c	n/a
377.273	0.0905	754546	keystroke_l	l	n/a
377.4085	0.105	754817	keystroke_a	a	n/a
377.5435	0.09	755087	keystroke_r	r	n/a
377.7235	0.075	755447	keystroke_a	a	n/a
377.8435	0.075	755687	keystroke_Key.space	Key.space	n/a
378.2785	0.09	756557	keystroke_m	m	n/a
378.4135	0.12	756827	keystroke_i	i	n/a
378.5485	0.12	757097	keystroke_m	m	n/a
378.7135	0.075	757427	keystroke_e	e	n/a
379.2235	0.0745	758447	keystroke_Key.enter	Key.enter	n/a
379.3055	8.589	758611	prompt	n/a	machinery armstrong arrest peers\n
380.438	0.06	760876	keystroke_m	m	n/a
380.528	0.09	761056	keystroke_a	a	n/a
380.693	0.075	761386	keystroke_c	c	n/a
380.828	0.075	761656	keystroke_h	h	n/a
381.008	0.075	762016	keystroke_i	i	n/a
381.2035	0.06	762407	keystroke_n	n	n/a
381.3235	0.105	762647	keystroke_e	e	n/a
381.9835	0.045	763967	keystroke_r	r	n/a
382.1935	0.091	764387	keystroke_y	y	n/a
382.3285	0.075	764657	keystroke_Key.space	Key.space	n/a
382.9135	0.075	765827	keystroke_a	a	n/a
383.3335	0.0445	766667	keystroke_r	r	n/a
383.498	0.06	766996	keystroke_m	m	n/a
383.768	0.06	767536	keystroke_s	s	n/a
383.948	0.06	767896	keystroke_t	t	n/a
384.1435	0.06	768287	keystroke_r	r	n/a
384.3085	0.1195	768617	keystroke_o	o	n/a
384.398	0.09	768796	keystroke_n	n	n/a
384.638	0.075	769276	keystroke_g	g	n/a
384.743	0.075	769486	keystroke_Key.space	Key.space	n/a
385.568	0.075	771136	keystroke_a	a	n/a
385.778	0.03	771556	keystroke_r	r	n/a
385.868	0.09	771736	keystroke_r	r	n/a
386.018	0.09	772036	keystroke_e	e	n/a
386.243	0.1205	772486	keystroke_s	s	n/a
386.318	0.0755	772636	keystroke_t	t	n/a
386.4385	0.075	772877	keystroke_Key.space	Key.space	n/a
386.7235	0.075	773447	keystroke_p	p	n/a
386.8585	0.075	773717	keystroke_e	e	n/a
386.978	0.12	773956	keystroke_e	e	n/a
387.3375	0.106	774675	keystroke_r	r	n/a
387.4725	0.105	774945	keystroke_s	s	n/a
387.8175	0.075	775635	keystroke_Key.enter	Key.enter	n/a
387.8975	12.342	775795	prompt	n/a	suspension liabilities muscles commented\n
388.913	0.06	777826	keystroke_s	s	n/a
389.108	0.06	778216	keystroke_u	u	n/a
389.228	0.045	778456	keystroke_s	s	n/a
389.393	0.0895	778786	keystroke_p	p	n/a
389.5125	0.06	779025	keystroke_e	e	n/a
389.633	0.0595	779266	keystroke_n	n	n/a
390.2785	0.075	780557	keystroke_s	s	n/a
390.3985	0.12	780797	keystroke_i	i	n/a
390.4735	0.09	780947	keystroke_o	o	n/a
390.668	0.075	781336	keystroke_n	n	n/a
390.863	0.075	781726	keystroke_Key.space	Key.space	n/a
391.193	0.075	782386	keystroke_m	m	n/a
391.613	0.12	783226	keystroke_Key.backspace	Key.backspace	n/a
391.988	0.045	783976	keystroke_l	l	n/a
392.183	0.045	784366	keystroke_i	i	n/a
392.318	0.1205	784636	keystroke_a	a	n/a
392.4685	0.075	784937	keystroke_n	n	n/a
393.0535	0.075	786107	keystroke_Key.backspace	Key.backspace	n/a
393.3235	0.06	786647	keystroke_b	b	n/a
393.7135	0.075	787427	keystroke_i	i	n/a
394.0885	0.075	788177	keystroke_l	l	n/a
394.5085	0.06	789017	keystroke_i	i	n/a
394.6735	0.06	789347	keystroke_t	t	n/a
394.7635	0.105	789527	keystroke_i	i	n/a
394.9735	0.075	789947	keystroke_e	e	n/a
395.1685	0.075	790337	keystroke_s	s	n/a
395.2735	0.074	790547	keystroke_Key.space	Key.space	n/a
396.203	0.015	792406	keystroke_m	m	n/a
396.383	0.06	792766	keystroke_u	u	n/a
396.488	0.075	792976	keystroke_s	s	n/a
396.668	0.075	793336	keystroke_c	c	n/a
396.968	0.09	793936	keystroke_l	l	n/a
397.088	0.075	794176	keystroke_e	e	n/a
397.268	0.0755	794536	keystroke_s	s	n/a
397.4185	0.0745	794837	keystroke_Key.space	Key.space	n/a
398.168	0.075	796336	keystroke_c	c	n/a
398.288	0.075	796576	keystroke_o	o	n/a
398.528	0.03	797056	keystroke_m	m	n/a
398.633	0.09	797266	keystroke_m	m	n/a
398.753	0.0905	797506	keystroke_e	e	n/a
398.8585	0.075	797717	keystroke_n	n	n/a
398.9785	0.15	797957	keystroke_t	t	n/a
399.0835	0.075	798167	keystroke_e	e	n/a
399.2635	0.105	798527	keystroke_d	d	n/a
400.178	0.06	800356	keystroke_Key.enter	Key.enter	n/a
400.2425	8.1725	800485	prompt	n/a	adopt aircraft case eligible\n
400.973	0.09	801946	keystroke_a	a	n/a
401.513	0.0755	803026	keystroke_d	d	n/a
401.6025	0.091	803205	keystroke_o	o	n/a
402.2635	0.089	804527	keystroke_p	p	n/a
402.413	0.06	804826	keystroke_t	t	n/a
402.593	0.045	805186	keystroke_Key.space	Key.space	n/a
403.1485	0.075	806297	keystroke_a	a	n/a
403.2685	0.075	806537	keystroke_i	i	n/a
403.4035	0.06	806807	keystroke_r	r	n/a
403.7785	0.075	807557	keystroke_c	c	n/a
403.9735	0.075	807947	keystroke_r	r	n/a
404.1535	0.12	808307	keystroke_a	a	n/a
404.2435	0.09	808487	keystroke_f	f	n/a
404.438	0.09	808876	keystroke_t	t	n/a
404.558	0.09	809116	keystroke_Key.space	Key.space	n/a
405.173	0.09	810346	keystroke_c	c	n/a
405.248	0.105	810496	keystroke_a	a	n/a
405.503	0.075	811006	keystroke_s	s	n/a
405.728	0.06	811456	keystroke_e	e	n/a
405.878	0.09	811756	keystroke_Key.space	Key.space	n/a
406.238	0.03	812476	keystroke_e	e	n/a
406.8385	0.075	813677	keystroke_l	l	n/a
406.9585	0.105	813917	keystroke_i	i	n/a
407.3035	0.06	814607	keystroke_g	g	n/a
407.4235	0.09	814847	keystroke_i	i	n/a
407.6935	0.06	815387	keystroke_b	b	n/a
407.8885	0.105	815777	keystroke_l	l	n/a
407.9785	0.075	815957	keystroke_e	e	n/a
408.3235	0.0895	816647	keystroke_Key.enter	Key.enter	n/a
408.4185	8.247	816837	prompt	n/a	parish choosing deployment guam\n
409.283	0.075	818566	keystroke_p	p	n/a
409.388	0.09	818776	keystroke_a	a	n/a
409.583	0.06	819166	keystroke_r	r	n/a
409.673	0.105	819346	keystroke_i	i	n/a
410.1085	0.075	820217	keystroke_s	s	n/a
410.1985	0.075	820397	keystroke_h	h	n/a
410.4225	0.061	820845	keystroke_Key.space	Key.space	n/a
411.4285	0.0895	822857	keystroke_c	c	n/a
411.653	0.045	823306	keystroke_h	h	n/a
411.863	0.06	823726	keystroke_o	o	n/a
412.013	0.075	824026	keystroke_o	o	n/a
412.118	0.09	824236	keystroke_s	s	n/a
412.268	0.12	824536	keystroke_i	i	n/a
412.373	0.075	824746	keystroke_n	n	n/a
412.463	0.045	824926	keystroke_g	g	n/a
412.598	0.06	825196	keystroke_Key.space	Key.space	n/a
413.138	0.045	826276	keystroke_d	d	n/a
413.3035	0.06	826607	keystroke_e	e	n/a
413.5585	0.075	827117	keystroke_p	p	n/a
413.6935	0.09	827387	keystroke_l	l	n/a
413.918	0.09	827836	keystroke_o	o	n/a
414.128	0.045	828256	keystroke_y	y	n/a
414.293	0.0745	828586	keystroke_m	m	n/a
414.4125	0.075	828825	keystroke_e	e	n/a
414.5175	0.091	829035	keystroke_n	n	n/a
414.6235	0.075	829247	keystroke_t	t	n/a
414.7575	0.075	829515	keystroke_Key.space	Key.space	n/a
415.748	0.075	831496	keystroke_g	g	n/a
415.898	0.075	831796	keystroke_u	u	n/a
416.093	0.0905	832186	keystroke_a	a	n/a
416.213	0.075	832426	keystroke_m	m	n/a
416.5735	0.09	833147	keystroke_Key.enter	Key.enter	n/a
416.6685	8.906	833337	prompt	n/a	chicks island instrumental diameter\n
417.668	0.03	835336	keystroke_c	c	n/a
417.758	0.045	835516	keystroke_h	h	n/a
417.908	0.075	835816	keystroke_i	i	n/a
418.148	0.075	836296	keystroke_c	c	n/a
418.283	0.075	836566	keystroke_k	k	n/a
418.478	0.075	836956	keystroke_s	s	n/a
418.613	0.075	837226	keystroke_Key.space	Key.space	n/a
419.078	0.06	838156	keystroke_n	n	n/a
419.648	0.06	839296	keystroke_Key.backspace	Key.backspace	n/a
420.233	0.075	840466	keystroke_i	i	n/a
420.3535	0.075	840707	keystroke_s	s	n/a
420.4735	0.09	840947	keystroke_l	l	n/a
420.623	0.075	841246	keystroke_a	a	n/a
420.728	0.105	841456	keystroke_n	n	n/a
420.893	0.075	841786	keystroke_d	d	n/a
420.983	0.075	841966	keystroke_Key.space	Key.space	n/a
421.538	0.135	843076	keystroke_i	i	n/a
421.628	0.09	843256	keystroke_n	n	n/a
421.9885	0.0745	843977	keystroke_s	s	n/a
422.168	0.06	844336	keystroke_t	t	n/a
422.333	0.06	844666	keystroke_r	r	n/a
422.4825	0.075	844965	keystroke_u	u	n/a
422.7075	0.0455	845415	keystroke_m	m	n/a
422.798	0.075	845596	keystroke_e	e	n/a
422.9025	0.0605	845805	keystroke_n	n	n/a
422.993	0.06	845986	keystroke_t	t	n/a
423.128	0.105	846256	keystroke_a	a	n/a
423.218	0.09	846436	keystroke_l	l	n/a
423.428	0.06	846856	keystroke_Key.space	Key.space	n/a
423.953	0.06	847906	keystroke_d	d	n/a
424.043	0.075	848086	keystroke_i	i	n/a
424.148	0.075	848296	keystroke_a	a	n/a
424.313	0.0605	848626	keystroke_m	m	n/a
424.4485	0.06	848897	keystroke_e	e	n/a
424.6285	0.06	849257	keystroke_t	t	n/a
424.7935	0.12	849587	keystroke_e	e	n/a
424.8835	0.09	849767	keystroke_r	r	n/a
425.483	0.09	850966	keystroke_Key.enter	Key.enter	n/a
425.5775	6.6575	851155	prompt	n/a	workforce tags gazette plans\n
426.5325	0.09	853065	keystroke_w	w	n/a
426.6375	0.09	853275	keystroke_o	o	n/a
426.7725	0.06	853545	keystroke_r	r	n/a
427.2375	0.06	854475	keystroke_k	k	n/a
427.4175	0.06	854835	keystroke_f	f	n/a
427.5525	0.0755	855105	keystroke_o	o	n/a
427.853	0.06	855706	keystroke_r	r	n/a
428.123	0.15	856246	keystroke_c	c	n/a
428.243	0.0905	856486	keystroke_e	e	n/a
428.393	0.075	856786	keystroke_Key.space	Key.space	n/a
429.0835	0.03	858167	keystroke_g	g	n/a
429.2485	0.075	858497	keystroke_a	a	n/a
429.7885	0.075	859577	keystroke_z	z	n/a
430.0285	0.09	860057	keystroke_e	e	n/a
430.2385	0.045	860477	keystroke_t	t	n/a
430.343	0.075	860686	keystroke_t	t	n/a
430.628	0.06	861256	keystroke_e	e	n/a
430.763	0.105	861526	keystroke_Key.space	Key.space	n/a
431.288	0.105	862576	keystroke_p	p	n/a
431.318	0.09	862636	keystroke_l	l	n/a
431.468	0.0755	862936	keystroke_a	a	n/a
431.6335	0.09	863267	keystroke_n	n	n/a
431.7685	0.09	863537	keystroke_s	s	n/a
432.143	0.09	864286	keystroke_Key.enter	Key.enter	n/a
432.2385	16.541	864477	prompt	n/a	lion baltimore swim snowboard\n
433.028	0.06	866056	keystroke_l	l	n/a
433.223	0.06	866446	keystroke_i	i	n/a
433.373	0.045	866746	keystroke_o	o	n/a
433.568	0.075	867136	keystroke_n	n	n/a
433.748	0.075	867496	keystroke_Key.space	Key.space	n/a
434.303	0.0595	868606	keystroke_s	s	n/a
434.5425	0.045	869085	keystroke_w	w	n/a
434.6475	0.076	869295	keystroke_i	i	n/a
434.8575	0.0605	869715	keystroke_m	m	n/a
435.053	0.06	870106	keystroke_Key.space	Key.space	n/a
436.1475	0.075	872295	keystroke_s	s	n/a
436.2825	0.06	872565	keystroke_n	n	n/a
436.4785	0.0895	872957	keystroke_o	o	n/a
436.6435	0.0595	873287	keystroke_w	w	n/a
436.883	0.06	873766	keystroke_b	b	n/a
437.0635	0.075	874127	keystroke_o	o	n/a
437.1685	0.104	874337	keystroke_a	a	n/a
437.2285	0.075	874457	keystroke_r	r	n/a
437.4235	0.075	874847	keystroke_d	d	n/a
439.84	0.073	879680	keystroke_Key.backspace	Key.backspace	n/a
440.018	0.135	880036	keystroke_Key.backspace	Key.backspace	n/a
440.273	0.045	880546	keystroke_Key.backspace	Key.backspace	n/a
440.408	0.075	880816	keystroke_Key.backspace	Key.backspace	n/a
440.558	0.075	881116	keystroke_Key.backspace	Key.backspace	n/a
440.708	0.06	881416	keystroke_Key.backspace	Key.backspace	n/a
440.858	0.06	881716	keystroke_Key.backspace	Key.backspace	n/a
441.008	0.0595	882016	keystroke_Key.backspace	Key.backspace	n/a
441.1725	0.06	882345	keystroke_Key.backspace	Key.backspace	n/a
441.3075	0.075	882615	keystroke_Key.backspace	Key.backspace	n/a
441.4725	0.06	882945	keystroke_Key.backspace	Key.backspace	n/a
441.6225	0.06	883245	keystroke_Key.backspace	Key.backspace	n/a
441.788	0.045	883576	keystroke_Key.backspace	Key.backspace	n/a
442.193	0.075	884386	keystroke_Key.backspace	Key.backspace	n/a
442.8535	0.09	885707	keystroke_b	b	n/a
442.9585	0.0445	885917	keystroke_a	a	n/a
443.063	0.105	886126	keystroke_l	l	n/a
443.573	0.06	887146	keystroke_t	t	n/a
443.738	0.0595	887476	keystroke_i	i	n/a
443.9785	0.059	887957	keystroke_m	m	n/a
444.1585	0.09	888317	keystroke_o	o	n/a
444.2635	0.149	888527	keystroke_r	r	n/a
444.3675	0.09	888735	keystroke_e	e	n/a
444.4425	0.075	888885	keystroke_Key.space	Key.space	n/a
444.7575	0.075	889515	keystroke_s	s	n/a
445.6275	0.06	891255	keystroke_w	w	n/a
445.7475	0.045	891495	keystroke_i	i	n/a
446.0325	0.06	892065	keystroke_m	m	n/a
446.2125	0.06	892425	keystroke_Key.space	Key.space	n/a
446.843	0.075	893686	keystroke_s	s	n/a
446.948	0.06	893896	keystroke_n	n	n/a
447.218	0.075	894436	keystroke_o	o	n/a
447.488	0.06	894976	keystroke_w	w	n/a
447.938	0.015	895876	keystroke_b	b	n/a
448.043	0.075	896086	keystroke_o	o	n/a
448.178	0.075	896356	keystroke_a	a	n/a
448.223	0.075	896446	keystroke_r	r	n/a
448.4185	0.09	896837	keystroke_d	d	n/a
448.7035	0.075	897407	keystroke_Key.enter	Key.enter	n/a
448.784	7.826	897568	prompt	n/a	specifications responsibility their zones\n
449.558	0.06	899116	keystroke_s	s	n/a
449.663	0.105	899326	keystroke_p	p	n/a
449.843	0.12	899686	keystroke_e	e	n/a
450.068	0.09	900136	keystroke_c	c	n/a
450.188	0.09	900376	keystroke_i	i	n/a
450.308	0.075	900616	keystroke_f	f	n/a
450.413	0.09	900826	keystroke_i	i	n/a
450.488	0.105	900976	keystroke_c	c	n/a
450.668	0.075	901336	keystroke_a	a	n/a
450.863	0.06	901726	keystroke_t	t	n/a
450.968	0.105	901936	keystroke_i	i	n/a
451.013	0.105	902026	keystroke_o	o	n/a
451.193	0.075	902386	keystroke_n	n	n/a
451.328	0.06	902656	keystroke_s	s	n/a
451.403	0.09	902806	keystroke_Key.space	Key.space	n/a
451.898	0.1055	903796	keystroke_r	r	n/a
451.9735	0.059	903947	keystroke_e	e	n/a
452.1525	0.06	904305	keystroke_s	s	n/a
452.2575	0.0905	904515	keystroke_p	p	n/a
452.3325	0.0605	904665	keystroke_o	o	n/a
452.528	0.075	905056	keystroke_n	n	n/a
452.663	0.09	905326	keystroke_s	s	n/a
452.768	0.09	905536	keystroke_i	i	n/a
453.098	0.06	906196	keystroke_b	b	n/a
453.263	0.0755	906526	keystroke_i	i	n/a
453.4725	0.135	906945	keystroke_l	l	n/a
453.5625	0.09	907125	keystroke_i	i	n/a
453.6225	0.075	907245	keystroke_t	t	n/a
453.818	0.075	907636	keystroke_y	y	n/a
453.923	0.075	907846	keystroke_Key.space	Key.space	n/a
454.328	0.075	908656	keystroke_t	t	n/a
454.433	0.06	908866	keystroke_h	h	n/a
454.553	0.09	909106	keystroke_e	e	n/a
454.673	0.09	909346	keystroke_i	i	n/a
454.793	0.075	909586	keystroke_r	r	n/a
454.928	0.06	909856	keystroke_Key.space	Key.space	n/a
455.678	0.075	911356	keystroke_z	z	n/a
455.783	0.09	911566	keystroke_o	o	n/a
456.008	0.06	912016	keystroke_n	n	n/a
456.113	0.06	912226	keystroke_e	e	n/a
456.293	0.06	912586	keystroke_s	s	n/a
456.533	0.075	913066	keystroke_Key.enter	Key.enter	n/a
456.613	7.7665	913226	prompt	n/a	corp weights dust stone\n
457.5825	0.045	915165	keystroke_c	c	n/a
457.6435	0.074	915287	keystroke_o	o	n/a
457.8525	0.061	915705	keystroke_r	r	n/a
457.9725	0.0905	915945	keystroke_p	p	n/a
458.213	0.06	916426	keystroke_Key.space	Key.space	n/a
459.908	0.09	919816	keystroke_w	w	n/a
460.013	0.075	920026	keystroke_e	e	n/a
460.148	0.105	920296	keystroke_i	i	n/a
460.5085	0.075	921017	keystroke_g	g	n/a
460.6285	0.06	921257	keystroke_h	h	n/a
460.7335	0.06	921467	keystroke_t	t	n/a
460.9285	0.09	921857	keystroke_s	s	n/a
461.0485	0.06	922097	keystroke_Key.space	Key.space	n/a
461.948	0.06	923896	keystroke_d	d	n/a
462.098	0.075	924196	keystroke_u	u	n/a
462.653	0.12	925306	keystroke_s	s	n/a
462.743	0.06	925486	keystroke_t	t	n/a
462.893	0.075	925786	keystroke_Key.space	Key.space	n/a
463.2235	0.075	926447	keystroke_s	s	n/a
463.4035	0.075	926807	keystroke_t	t	n/a
463.5235	0.105	927047	keystroke_o	o	n/a
463.7635	0.06	927527	keystroke_n	n	n/a
463.8535	0.09	927707	keystroke_e	e	n/a
464.3035	0.075	928607	keystroke_Key.enter	Key.enter	n/a
464.3825	10.5725	928765	prompt	n/a	convertible reprints compilation obesity\n
465.263	0.09	930526	keystroke_c	c	n/a
465.368	0.075	930736	keystroke_o	o	n/a
465.548	0.0605	931096	keystroke_n	n	n/a
465.6835	0.06	931367	keystroke_v	v	n/a
465.8335	0.105	931667	keystroke_e	e	n/a
465.9235	0.075	931847	keystroke_r	r	n/a
466.1035	0.075	932207	keystroke_t	t	n/a
466.2385	0.165	932477	keystroke_i	i	n/a
466.3435	0.12	932687	keystroke_b	b	n/a
466.5835	0.105	933167	keystroke_l	l	n/a
466.7185	0.075	933437	keystroke_e	e	n/a
466.8075	0.091	933615	keystroke_Key.space	Key.space	n/a
467.003	0.165	934006	keystroke_r	r	n/a
467.108	0.105	934216	keystroke_e	e	n/a
467.633	0.045	935266	keystroke_p	p	n/a
467.693	0.105	935386	keystroke_r	r	n/a
468.113	0.09	936226	keystroke_i	i	n/a
468.503	0.075	937006	keystroke_n	n	n/a
468.638	0.075	937276	keystroke_t	t	n/a
468.818	0.09	937636	keystroke_s	s	n/a
468.953	0.075	937906	keystroke_Key.space	Key.space	n/a
469.238	0.09	938476	keystroke_c	c	n/a
469.358	0.135	938716	keystroke_o	o	n/a
469.433	0.105	938866	keystroke_m	m	n/a
469.8835	0.105	939767	keystroke_p	p	n/a
470.0785	0.075	940157	keystroke_i	i	n/a
470.3035	0.0895	940607	keystroke_l	l	n/a
470.513	0.15	941026	keystroke_a	a	n/a
470.633	0.09	941266	keystroke_t	t	n/a
470.768	0.12	941536	keystroke_i	i	n/a
470.813	0.12	941626	keystroke_o	o	n/a
471.038	0.06	942076	keystroke_n	n	n/a
471.203	0.075	942406	keystroke_Key.space	Key.space	n/a
472.043	0.075	944086	keystroke_o	o	n/a
472.5235	0.015	945047	keystroke_b	b	n/a
472.5835	0.06	945167	keystroke_e	e	n/a
472.7485	0.06	945497	keystroke_s	s	n/a
472.9585	0.045	945917	keystroke_t	t	n/a
473.0185	0.1195	946037	keystroke_i	i	n/a
473.6625	0.075	947325	keystroke_Key.backspace	Key.backspace	n/a
473.8285	0.1045	947657	keystroke_Key.backspace	Key.backspace	n/a
474.038	0.075	948076	keystroke_i	i	n/a
474.1585	0.075	948317	keystroke_t	t	n/a
474.338	0.0905	948676	keystroke_y	y	n/a
474.9085	0.045	949817	keystroke_Key.enter	Key.enter	n/a
474.9585	14.0215	949917	prompt	n/a	technological regard halloween ladder\n
475.8835	0.105	951767	keystroke_t	t	n/a
476.0185	0.075	952037	keystroke_e	e	n/a
476.2585	0.09	952517	keystroke_c	c	n/a
477.1885	0.09	954377	keystroke_h	h	n/a
477.5935	0.045	955187	keystroke_n	n	n/a
477.878	0.09	955756	keystroke_o	o	n/a
478.493	0.075	956986	keystroke_l	l	n/a
478.688	0.06	957376	keystroke_o	o	n/a
478.913	0.045	957826	keystroke_f	f	n/a
479.228	0.12	958456	keystroke_Key.backspace	Key.backspace	n/a
479.378	0.075	958756	keystroke_g	g	n/a
479.483	0.1205	958966	keystroke_o	o	n/a
480.1585	0.104	960317	keystroke_Key.backspace	Key.backspace	n/a
480.533	0.06	961066	keystroke_i	i	n/a
480.953	0.12	961906	keystroke_c	c	n/a
481.148	0.12	962296	keystroke_a	a	n/a
481.343	0.06	962686	keystroke_l	l	n/a
481.823	0.075	963646	keystroke_Key.space	Key.space	n/a
482.528	0.15	965056	keystroke_r	r	n/a
482.663	0.03	965326	keystroke_e	e	n/a
482.813	0.075	965626	keystroke_g	g	n/a
483.023	0.105	966046	keystroke_a	a	n/a
483.083	0.09	966166	keystroke_r	r	n/a
483.278	0.0755	966556	keystroke_d	d	n/a
483.3985	0.075	966797	keystroke_Key.space	Key.space	n/a
484.0435	0.045	968087	keystroke_h	h	n/a
484.1335	0.09	968267	keystroke_a	a	n/a
484.2685	0.06	968537	keystroke_l	l	n/a
484.403	0.09	968806	keystroke_l	l	n/a
484.598	0.09	969196	keystroke_o	o	n/a
484.763	0.0905	969526	keystroke_w	w	n/a
485.003	0.045	970006	keystroke_e	e	n/a
485.108	0.105	970216	keystroke_e	e	n/a
485.258	0.12	970516	keystroke_n	n	n/a
485.528	0.075	971056	keystroke_Key.space	Key.space	n/a
485.948	0.09	971896	keystroke_l	l	n/a
486.233	0.105	972466	keystroke_a	a	n/a
486.443	0.045	972886	keystroke_d	d	n/a
486.5485	0.09	973097	keystroke_d	d	n/a
486.8035	0.12	973607	keystroke_e	e	n/a
486.8785	0.09	973757	keystroke_r	r	n/a
488.933	0.045	977866	keystroke_Key.enter	Key.enter	n/a
488.983	9.357	977966	prompt	n/a	contemporary allows happening technique\n
489.9225	0.061	979845	keystroke_c	c	n/a
490.0285	0.09	980057	keystroke_o	o	n/a
490.2685	0.06	980537	keystroke_n	n	n/a
490.463	0.045	980926	keystroke_t	t	n/a
490.628	0.06	981256	keystroke_e	e	n/a
491.0635	0.045	982127	keystroke_m	m	n/a
491.2585	0.075	982517	keystroke_p	p	n/a
491.4385	0.075	982877	keystroke_o	o	n/a
491.5585	0.045	983117	keystroke_r	r	n/a
491.7535	0.135	983507	keystroke_a	a	n/a
491.8285	0.12	983657	keystroke_r	r	n/a
492.0835	0.09	984167	keystroke_y	y	n/a
492.2185	0.06	984437	keystroke_Key.space	Key.space	n/a
492.653	0.046	985306	keystroke_a	a	n/a
492.804	0.045	985608	keystroke_l	l	n/a
492.924	0.075	985848	keystroke_l	l	n/a
493.104	0.06	986208	keystroke_o	o	n/a
493.284	0.06	986568	keystroke_w	w	n/a
493.464	0.075	986928	keystroke_s	s	n/a
493.598	0.06	987196	keystroke_Key.space	Key.space	n/a
494.288	0.06	988576	keystroke_h	h	n/a
494.394	0.045	988788	keystroke_a	a	n/a
494.574	0.015	989148	keystroke_p	p	n/a
494.649	0.045	989298	keystroke_p	p	n/a
494.784	0.045	989568	keystroke_e	e	n/a
494.859	0.06	989718	keystroke_n	n	n/a
495.024	0.105	990048	keystroke_i	i	n/a
495.084	0.09	990168	keystroke_n	n	n/a
495.189	0.075	990378	keystroke_g	g	n/a
495.294	0.074	990588	keystroke_Key.space	Key.space	n/a
495.998	0.075	991996	keystroke_t	t	n/a
496.133	0.09	992266	keystroke_e	e	n/a
496.388	0.075	992776	keystroke_c	c	n/a
496.493	0.06	992986	keystroke_h	h	n/a
496.673	0.0905	993346	keystroke_n	n	n/a
496.7785	0.105	993557	keystroke_i	i	n/a
497.4235	0.09	994847	keystroke_q	q	n/a
497.5285	0.09	995057	keystroke_u	u	n/a
497.8735	0.09	995747	keystroke_e	e	n/a
498.2485	0.09	996497	keystroke_Key.enter	Key.enter	n/a
498.345	8.095	996690	prompt	n/a	knows potatoes mechanics metals\n
499.3285	0.105	998657	keystroke_k	k	n/a
499.3735	0.105	998747	keystroke_n	n	n/a
499.6135	0.0755	999227	keystroke_o	o	n/a
499.764	0.06	999528	keystroke_w	w	n/a
499.989	0.044	999978	keystroke_s	s	n/a
500.063	0.075	1000126	keystroke_Key.space	Key.space	n/a
500.3785	0.1345	1000757	keystroke_p	p	n/a
500.4835	0.0895	1000967	keystroke_o	o	n/a
500.648	0.0605	1001296	keystroke_t	t	n/a
501.339	0.105	1002678	keystroke_a	a	n/a
501.594	0.0595	1003188	keystroke_t	t	n/a
501.954	0.09	1003908	keystroke_o	o	n/a
502.2985	0.09	1004597	keystroke_e	e	n/a
502.5385	0.06	1005077	keystroke_d	d	n/a
503.0035	0.09	1006007	keystroke_Key.backspace	Key.backspace	n/a
503.1085	0.09	1006217	keystroke_s	s	n/a
503.3785	0.06	1006757	keystroke_Key.space	Key.space	n/a
503.6935	0.075	1007387	keystroke_m	m	n/a
503.7835	0.06	1007567	keystroke_e	e	n/a
504.0385	0.06	1008077	keystroke_c	c	n/a
504.1285	0.06	1008257	keystroke_h	h	n/a
504.2185	0.06	1008437	keystroke_a	a	n/a
504.3385	0.06	1008677	keystroke_n	n	n/a
504.5035	0.09	1009007	keystroke_i	i	n/a
504.6535	0.075	1009307	keystroke_c	c	n/a
504.8185	0.075	1009637	keystroke_s	s	n/a
504.9235	0.075	1009847	keystroke_Key.space	Key.space	n/a
505.3135	0.06	1010627	keystroke_m	m	n/a
505.3885	0.075	1010777	keystroke_e	e	n/a
505.5535	0.06	1011107	keystroke_t	t	n/a
505.7185	0.075	1011437	keystroke_a	a	n/a
505.8385	0.105	1011677	keystroke_l	l	n/a
505.9735	0.09	1011947	keystroke_s	s	n/a
506.3485	0.09	1012697	keystroke_Key.enter	Key.enter	n/a
506.4425	8.0825	1012885	prompt	n/a	housewives apple keep footage\n
507.3535	0.06	1014707	keystroke_h	h	n/a
507.5185	0.12	1015037	keystroke_o	o	n/a
507.5785	0.105	1015157	keystroke_u	u	n/a
507.7585	0.06	1015517	keystroke_s	s	n/a
507.9385	0.06	1015877	keystroke_e	e	n/a
508.1635	0.03	1016327	keystroke_w	w	n/a
508.2385	0.09	1016477	keystroke_i	i	n/a
508.643	0.06	1017286	keystroke_v	v	n/a
509.7085	0.075	1019417	keystroke_e	e	n/a
509.9335	0.045	1019867	keystroke_s	s	n/a
510.0235	0.105	1020047	keystroke_Key.space	Key.space	n/a
510.3385	0.075	1020677	keystroke_a	a	n/a
510.4585	0.075	1020917	keystroke_p	p	n/a
510.5935	0.0595	1021187	keystroke_p	p	n/a
510.8485	0.09	1021697	keystroke_l	l	n/a
510.968	0.0905	1021936	keystroke_e	e	n/a
511.1185	0.075	1022237	keystroke_Key.space	Key.space	n/a
512.048	0.075	1024096	keystroke_k	k	n/a
512.183	0.06	1024366	keystroke_e	e	n/a
512.303	0.09	1024606	keystroke_e	e	n/a
512.408	0.105	1024816	keystroke_p	p	n/a
512.633	0.06	1025266	keystroke_Key.space	Key.space	n/a
513.143	0.06	1026286	keystroke_f	f	n/a
513.2785	0.045	1026557	keystroke_o	o	n/a
513.413	0.0905	1026826	keystroke_o	o	n/a
513.5185	0.06	1027037	keystroke_t	t	n/a
513.7135	0.09	1027427	keystroke_a	a	n/a
513.923	0.12	1027846	keystroke_g	g	n/a
514.013	0.1505	1028026	keystroke_e	e	n/a
514.418	0.105	1028836	keystroke_Key.enter	Key.enter	n/a
514.5295	6.5955	1029059	prompt	n/a	resistant we're goat brass\n
515.348	0.12	1030696	keystroke_r	r	n/a
515.438	0.075	1030876	keystroke_e	e	n/a
515.633	0.06	1031266	keystroke_s	s	n/a
515.798	0.075	1031596	keystroke_i	i	n/a
515.978	0.0755	1031956	keystroke_s	s	n/a
516.1285	0.0595	1032257	keystroke_t	t	n/a
516.339	0.014	1032678	keystroke_a	a	n/a
516.413	0.075	1032826	keystroke_n	n	n/a
516.548	0.075	1033096	keystroke_t	t	n/a
516.638	0.075	1033276	keystroke_Key.space	Key.space	n/a
517.208	0.135	1034416	keystroke_w	w	n/a
517.283	0.075	1034566	keystroke_e	e	n/a
517.4335	0.105	1034867	keystroke_'	'	n/a
517.6435	0.15	1035287	keystroke_r	r	n/a
517.7335	0.12	1035467	keystroke_e	e	n/a
517.8685	0.06	1035737	keystroke_Key.space	Key.space	n/a
518.6935	0.045	1037387	keystroke_g	g	n/a
518.7985	0.0605	1037597	keystroke_o	o	n/a
518.9635	0.1195	1037927	keystroke_a	a	n/a
519.068	0.105	1038136	keystroke_t	t	n/a
519.218	0.075	1038436	keystroke_Key.space	Key.space	n/a
519.9535	0.075	1039907	keystroke_b	b	n/a
520.1035	0.06	1040207	keystroke_r	r	n/a
520.4785	0.09	1040957	keystroke_a	a	n/a
520.7035	0.03	1041407	keystroke_s	s	n/a
520.8085	0.09	1041617	keystroke_s	s	n/a
521.0485	0.075	1042097	keystroke_Key.enter	Key.enter	n/a
521.128	12.012	1042256	prompt	n/a	fill critical feelings treo\n
522.024	0.06	1044048	keystroke_f	f	n/a
522.129	0.075	1044258	keystroke_i	i	n/a
522.489	0.06	1044978	keystroke_l	l	n/a
523.673	0.06	1047346	keystroke_l	l	n/a
523.913	0.045	1047826	keystroke_Key.space	Key.space	n/a
524.408	0.06	1048816	keystroke_c	c	n/a
524.843	0.045	1049686	keystroke_r	r	n/a
525.008	0.075	1050016	keystroke_i	i	n/a
525.218	0.09	1050436	keystroke_t	t	n/a
525.473	0.06	1050946	keystroke_i	i	n/a
525.563	0.045	1051126	keystroke_t	t	n/a
526.2685	0.1045	1052537	keystroke_Key.backspace	Key.backspace	n/a
526.448	0.135	1052896	keystroke_c	c	n/a
526.568	0.09	1053136	keystroke_a	a	n/a
526.703	0.12	1053406	keystroke_l	l	n/a
526.9885	0.06	1053977	keystroke_Key.space	Key.space	n/a
528.593	0.0605	1057186	keystroke_f	f	n/a
528.7735	0.06	1057547	keystroke_e	e	n/a
528.878	0.06	1057756	keystroke_e	e	n/a
528.983	0.09	1057966	keystroke_l	l	n/a
529.4035	0.0595	1058807	keystroke_n	n	n/a
529.763	0.0905	1059526	keystroke_Key.backspace	Key.backspace	n/a
530.1835	0.12	1060367	keystroke_i	i	n/a
530.2585	0.09	1060517	keystroke_n	n	n/a
530.3635	0.06	1060727	keystroke_g	g	n/a
530.5735	0.075	1061147	keystroke_s	s	n/a
530.6635	0.075	1061327	keystroke_Key.space	Key.space	n/a
531.3685	0.06	1062737	keystroke_r	r	n/a
531.6835	0.075	1063367	keystroke_Key.backspace	Key.backspace	n/a
531.7735	0.09	1063547	keystroke_t	t	n/a
531.9835	0.15	1063967	keystroke_r	r	n/a
532.0735	0.105	1064147	keystroke_e	e	n/a
532.6285	0.045	1065257	keystroke_o	o	n/a
533.0635	0.075	1066127	keystroke_Key.enter	Key.enter	n/a
533.1435	12.0265	1066287	prompt	n/a	opposed davidson oklahoma surprising\n
534.0985	0.075	1068197	keystroke_o	o	n/a
534.3085	0.0445	1068617	keystroke_p	p	n/a
534.443	0.09	1068886	keystroke_p	p	n/a
534.593	0.105	1069186	keystroke_o	o	n/a
534.713	0.075	1069426	keystroke_s	s	n/a
534.893	0.06	1069786	keystroke_e	e	n/a
535.0585	0.075	1070117	keystroke_d	d	n/a
535.1635	0.045	1070327	keystroke_Key.space	Key.space	n/a
535.6885	0.075	1071377	keystroke_d	d	n/a
535.8085	0.09	1071617	keystroke_a	a	n/a
536.0635	0.06	1072127	keystroke_v	v	n/a
536.1535	0.09	1072307	keystroke_i	i	n/a
536.498	0.075	1072996	keystroke_d	d	n/a
536.7535	0.0595	1073507	keystroke_s	s	n/a
536.873	0.09	1073746	keystroke_o	o	n/a
537.068	0.06	1074136	keystroke_n	n	n/a
537.263	0.075	1074526	keystroke_Key.space	Key.space	n/a
538.164	0.074	1076328	keystroke_o	o	n/a
538.9135	0.045	1077827	keystroke_k	k	n/a
539.1085	0.075	1078217	keystroke_l	l	n/a
539.3185	0.075	1078637	keystroke_a	a	n/a
539.5135	0.045	1079027	keystroke_h	h	n/a
539.6935	0.075	1079387	keystroke_o	o	n/a
539.9185	0.0895	1079837	keystroke_m	m	n/a
540.188	0.075	1080376	keystroke_a	a	n/a
540.323	0.0755	1080646	keystroke_Key.space	Key.space	n/a
540.6835	0.075	1081367	keystroke_s	s	n/a
542.273	0.06	1084546	keystroke_u	u	n/a
543.383	0.045	1086766	keystroke_r	r	n/a
543.653	0.09	1087306	keystroke_p	p	n/a
543.923	0.06	1087846	keystroke_r	r	n/a
544.088	0.06	1088176	keystroke_i	i	n/a
544.238	0.045	1088476	keystroke_s	s	n/a
544.313	0.135	1088626	keystroke_i	i	n/a
544.388	0.105	1088776	keystroke_n	n	n/a
544.5385	0.0595	1089077	keystroke_g	g	n/a
545.1085	0.06	1090217	keystroke_Key.enter	Key.enter	n/a
545.173	7.752	1090346	prompt	n/a	string things staffing photographer\n
545.8885	0.1045	1091777	keystroke_s	s	n/a
546.0985	0.06	1092197	keystroke_t	t	n/a
546.2785	0.045	1092557	keystroke_r	r	n/a
546.413	0.09	1092826	keystroke_i	i	n/a
546.458	0.105	1092916	keystroke_n	n	n/a
546.683	0.075	1093366	keystroke_g	g	n/a
546.788	0.075	1093576	keystroke_Key.space	Key.space	n/a
547.418	0.06	1094836	keystroke_t	t	n/a
547.568	0.09	1095136	keystroke_h	h	n/a
547.673	0.09	1095346	keystroke_i	i	n/a
547.793	0.105	1095586	keystroke_n	n	n/a
547.973	0.09	1095946	keystroke_g	g	n/a
548.183	0.075	1096366	keystroke_s	s	n/a
548.303	0.09	1096606	keystroke_Key.space	Key.space	n/a
548.8735	0.09	1097747	keystroke_s	s	n/a
549.0685	0.059	1098137	keystroke_t	t	n/a
549.2025	0.091	1098405	keystroke_a	a	n/a
549.3985	0.059	1098797	keystroke_f	f	n/a
549.5035	0.075	1099007	keystroke_f	f	n/a
549.6235	0.135	1099247	keystroke_i	i	n/a
549.6985	0.09	1099397	keystroke_n	n	n/a
549.8035	0.105	1099607	keystroke_g	g	n/a
549.9385	0.059	1099877	keystroke_Key.space	Key.space	n/a
550.6885	0.075	1101377	keystroke_p	p	n/a
550.9735	0.045	1101947	keystroke_h	h	n/a
551.1685	0.09	1102337	keystroke_o	o	n/a
551.3335	0.075	1102667	keystroke_t	t	n/a
551.4685	0.0745	1102937	keystroke_o	o	n/a
551.618	0.06	1103236	keystroke_g	g	n/a
551.828	0.09	1103656	keystroke_r	r	n/a
552.023	0.105	1104046	keystroke_a	a	n/a
552.173	0.09	1104346	keystroke_p	p	n/a
552.383	0.075	1104766	keystroke_h	h	n/a
552.473	0.135	1104946	keystroke_e	e	n/a
552.578	0.105	1105156	keystroke_r	r	n/a
552.848	0.075	1105696	keystroke_Key.enter	Key.enter	n/a
552.928	8.4575	1105856	prompt	n/a	deleted encoding customized killed\n
553.823	0.06	1107646	keystroke_d	d	n/a
554.018	0.045	1108036	keystroke_e	e	n/a
554.093	0.105	1108186	keystroke_l	l	n/a
554.243	0.075	1108486	keystroke_e	e	n/a
554.4685	0.135	1108937	keystroke_t	t	n/a
554.5735	0.075	1109147	keystroke_e	e	n/a
554.7835	0.075	1109567	keystroke_d	d	n/a
554.8885	0.06	1109777	keystroke_Key.space	Key.space	n/a
555.2635	0.075	1110527	keystroke_e	e	n/a
555.6535	0.045	1111307	keystroke_n	n	n/a
555.7585	0.075	1111517	keystroke_c	c	n/a
556.2385	0.105	1112477	keystroke_o	o	n/a
556.6285	0.075	1113257	keystroke_d	d	n/a
556.7185	0.12	1113437	keystroke_i	i	n/a
556.8085	0.075	1113617	keystroke_n	n	n/a
556.928	0.0905	1113856	keystroke_g	g	n/a
557.0485	0.0745	1114097	keystroke_Key.space	Key.space	n/a
557.738	0.0595	1115476	keystroke_c	c	n/a
557.918	0.0595	1115836	keystroke_u	u	n/a
558.0375	0.045	1116075	keystroke_s	s	n/a
558.2475	0.06	1116495	keystroke_t	t	n/a
558.353	0.135	1116706	keystroke_o	o	n/a
558.428	0.075	1116856	keystroke_m	m	n/a
558.638	0.09	1117276	keystroke_i	i	n/a
558.908	0.06	1117816	keystroke_z	z	n/a
559.148	0.06	1118296	keystroke_e	e	n/a
559.373	0.075	1118746	keystroke_d	d	n/a
559.523	0.06	1119046	keystroke_Key.space	Key.space	n/a
560.333	0.045	1120666	keystroke_k	k	n/a
560.498	0.09	1120996	keystroke_i	i	n/a
560.708	0.045	1121416	keystroke_l	l	n/a
560.843	0.045	1121686	keystroke_l	l	n/a
560.948	0.075	1121896	keystroke_e	e	n/a
561.1435	0.075	1122287	keystroke_d	d	n/a
561.2935	0.09	1122587	keystroke_Key.enter	Key.enter	n/a
561.389	6.4155	1122778	prompt	n/a	beat into examines duncan\n
562.463	0.075	1124926	keystroke_b	b	n/a
562.583	0.075	1125166	keystroke_e	e	n/a
562.808	0.12	1125616	keystroke_a	a	n/a
562.943	0.075	1125886	keystroke_t	t	n/a
563.078	0.105	1126156	keystroke_Key.space	Key.space	n/a
563.648	0.1205	1127296	keystroke_i	i	n/a
563.723	0.0905	1127446	keystroke_n	n	n/a
563.9485	0.06	1127897	keystroke_t	t	n/a
564.0385	0.06	1128077	keystroke_o	o	n/a
564.2035	0.075	1128407	keystroke_Key.space	Key.space	n/a
564.3685	0.075	1128737	keystroke_e	e	n/a
565.0285	0.06	1130057	keystroke_x	x	n/a
565.208	0.075	1130416	keystroke_a	a	n/a
565.343	0.075	1130686	keystroke_m	m	n/a
565.538	0.135	1131076	keystroke_i	i	n/a
565.628	0.075	1131256	keystroke_n	n	n/a
565.748	0.045	1131496	keystroke_e	e	n/a
565.928	0.06	1131856	keystroke_s	s	n/a
566.048	0.06	1132096	keystroke_Key.space	Key.space	n/a
566.6035	0.06	1133207	keystroke_d	d	n/a
566.7385	0.075	1133477	keystroke_u	u	n/a
566.9485	0.06	1133897	keystroke_n	n	n/a
567.0385	0.075	1134077	keystroke_c	c	n/a
567.2185	0.0895	1134437	keystroke_a	a	n/a
567.323	0.075	1134646	keystroke_n	n	n/a
567.713	0.09	1135426	keystroke_Key.enter	Key.enter	n/a
567.809	7.406	1135618	prompt	n/a	beginners scope plays presentation\n
568.7635	0.06	1137527	keystroke_b	b	n/a
568.8535	0.06	1137707	keystroke_e	e	n/a
569.0935	0.045	1138187	keystroke_g	g	n/a
569.2285	0.075	1138457	keystroke_i	i	n/a
569.4385	0.045	1138877	keystroke_n	n	n/a
569.5585	0.09	1139117	keystroke_n	n	n/a
569.6335	0.12	1139267	keystroke_e	e	n/a
569.7385	0.06	1139477	keystroke_r	r	n/a
569.9185	0.06	1139837	keystroke_s	s	n/a
569.9935	0.075	1139987	keystroke_Key.space	Key.space	n/a
570.2935	0.0595	1140587	keystroke_s	s	n/a
570.473	0.075	1140946	keystroke_c	c	n/a
570.578	0.09	1141156	keystroke_o	o	n/a
571.223	0.09	1142446	keystroke_p	p	n/a
571.328	0.06	1142656	keystroke_e	e	n/a
571.463	0.06	1142926	keystroke_Key.space	Key.space	n/a
571.883	0.12	1143766	keystroke_p	p	n/a
571.988	0.09	1143976	keystroke_l	l	n/a
572.0935	0.09	1144187	keystroke_a	a	n/a
572.2885	0.0745	1144577	keystroke_y	y	n/a
572.528	0.06	1145056	keystroke_s	s	n/a
572.633	0.06	1145266	keystroke_Key.space	Key.space	n/a
573.4585	0.0895	1146917	keystroke_p	p	n/a
573.608	0.12	1147216	keystroke_r	r	n/a
573.698	0.075	1147396	keystroke_e	e	n/a
573.878	0.06	1147756	keystroke_s	s	n/a
574.043	0.075	1148086	keystroke_e	e	n/a
574.163	0.06	1148326	keystroke_n	n	n/a
574.253	0.06	1148506	keystroke_t	t	n/a
574.4185	0.09	1148837	keystroke_a	a	n/a
574.5085	0.075	1149017	keystroke_t	t	n/a
574.5685	0.1195	1149137	keystroke_i	i	n/a
574.6435	0.1045	1149287	keystroke_o	o	n/a
574.808	0.075	1149616	keystroke_n	n	n/a
575.138	0.075	1150276	keystroke_Key.enter	Key.enter	n/a
575.218	7.5565	1150436	prompt	n/a	their holly wellington second\n
576.023	0.0605	1152046	keystroke_t	t	n/a
576.0975	0.061	1152195	keystroke_h	h	n/a
576.2635	0.104	1152527	keystroke_e	e	n/a
576.5485	0.09	1153097	keystroke_i	i	n/a
576.6675	0.075	1153335	keystroke_r	r	n/a
576.7875	0.075	1153575	keystroke_Key.space	Key.space	n/a
577.373	0.0755	1154746	keystroke_h	h	n/a
577.4635	0.09	1154927	keystroke_o	o	n/a
577.6885	0.045	1155377	keystroke_l	l	n/a
577.8235	0.075	1155647	keystroke_l	l	n/a
577.9285	0.09	1155857	keystroke_y	y	n/a
578.603	0.12	1157206	keystroke_Key.space	Key.space	n/a
579.3985	0.015	1158797	keystroke_w	w	n/a
579.4285	0.03	1158857	keystroke_e	e	n/a
579.5185	0.075	1159037	keystroke_l	l	n/a
579.668	0.075	1159336	keystroke_l	l	n/a
579.893	0.09	1159786	keystroke_i	i	n/a
580.013	0.075	1160026	keystroke_n	n	n/a
580.1485	0.09	1160297	keystroke_g	g	n/a
580.6585	0.06	1161317	keystroke_t	t	n/a
580.9735	0.12	1161947	keystroke_o	o	n/a
581.0485	0.09	1162097	keystroke_n	n	n/a
581.3635	0.06	1162727	keystroke_Key.space	Key.space	n/a
581.678	0.045	1163356	keystroke_s	s	n/a
581.858	0.045	1163716	keystroke_e	e	n/a
582.053	0.075	1164106	keystroke_c	c	n/a
582.173	0.1955	1164346	keystroke_o	o	n/a
582.3085	0.09	1164617	keystroke_n	n	n/a
582.4285	0.075	1164857	keystroke_d	d	n/a
582.6685	0.105	1165337	keystroke_Key.enter	Key.enter	n/a
582.778	6.717	1165556	prompt	n/a	dressing bride ballot credit\n
583.628	0.09	1167256	keystroke_d	d	n/a
583.898	0.135	1167796	keystroke_r	r	n/a
584.018	0.09	1168036	keystroke_e	e	n/a
584.258	0.045	1168516	keystroke_s	s	n/a
584.3635	0.09	1168727	keystroke_s	s	n/a
584.4835	0.135	1168967	keystroke_i	i	n/a
584.5735	0.09	1169147	keystroke_n	n	n/a
584.6485	0.075	1169297	keystroke_g	g	n/a
584.7835	0.075	1169567	keystroke_Key.space	Key.space	n/a
585.5485	0.0595	1171097	keystroke_b	b	n/a
585.7285	0.03	1171457	keystroke_r	r	n/a
585.8185	0.105	1171637	keystroke_i	i	n/a
586.133	0.045	1172266	keystroke_d	d	n/a
586.283	0.0895	1172566	keystroke_e	e	n/a
586.4175	0.075	1172835	keystroke_Key.space	Key.space	n/a
586.9125	0.0605	1173825	keystroke_b	b	n/a
587.003	0.09	1174006	keystroke_a	a	n/a
587.198	0.015	1174396	keystroke_l	l	n/a
587.318	0.06	1174636	keystroke_l	l	n/a
587.513	0.075	1175026	keystroke_o	o	n/a
587.618	0.075	1175236	keystroke_t	t	n/a
587.753	0.06	1175506	keystroke_Key.space	Key.space	n/a
588.278	0.06	1176556	keystroke_c	c	n/a
588.473	0.135	1176946	keystroke_r	r	n/a
588.548	0.09	1177096	keystroke_e	e	n/a
588.743	0.075	1177486	keystroke_d	d	n/a
588.863	0.12	1177726	keystroke_i	i	n/a
588.998	0.075	1177996	keystroke_t	t	n/a
589.418	0.075	1178836	keystroke_Key.enter	Key.enter	n/a
589.4995	12.1305	1178999	prompt	n/a	show qualify expedia lauren\n
590.513	0.075	1181026	keystroke_s	s	n/a
590.648	0.06	1181296	keystroke_h	h	n/a
590.813	0.09	1181626	keystroke_o	o	n/a
590.948	0.0755	1181896	keystroke_w	w	n/a
591.0675	0.075	1182135	keystroke_Key.space	Key.space	n/a
591.878	0.015	1183756	keystroke_q	q	n/a
592.853	0.045	1185706	keystroke_u	u	n/a
592.973	0.105	1185946	keystroke_a	a	n/a
593.108	0.09	1186216	keystroke_l	l	n/a
593.6185	0.075	1187237	keystroke_i	i	n/a
593.7085	0.09	1187417	keystroke_f	f	n/a
593.9785	0.06	1187957	keystroke_y	y	n/a
594.0685	0.09	1188137	keystroke_Key.space	Key.space	n/a
594.8635	0.06	1189727	keystroke_e	e	n/a
595.148	0.06	1190296	keystroke_x	x	n/a
595.268	0.075	1190536	keystroke_p	p	n/a
595.463	0.12	1190926	keystroke_e	e	n/a
595.568	0.06	1191136	keystroke_r	r	n/a
595.928	0.105	1191856	keystroke_Key.backspace	Key.backspace	n/a
596.198	0.09	1192396	keystroke_o	o	n/a
596.363	0.06	1192726	keystroke_d	d	n/a
596.678	0.06	1193356	keystroke_Key.backspace	Key.backspace	n/a
596.828	0.075	1193656	keystroke_Key.backspace	Key.backspace	n/a
596.963	0.09	1193926	keystroke_d	d	n/a
597.038	0.09	1194076	keystroke_o	o	n/a
597.308	0.105	1194616	keystroke_a	a	n/a
597.668	0.06	1195336	keystroke_Key.backspace	Key.backspace	n/a
597.803	0.0905	1195606	keystroke_Key.backspace	Key.backspace	n/a
598.1635	0.06	1196327	keystroke_i	i	n/a
598.2835	0.09	1196567	keystroke_a	a	n/a
598.4185	0.06	1196837	keystroke_Key.space	Key.space	n/a
600.068	0.075	1200136	keystroke_l	l	n/a
600.188	0.075	1200376	keystroke_a	a	n/a
600.3985	0.09	1200797	keystroke_u	u	n/a
600.6835	0.134	1201367	keystroke_r	r	n/a
600.7575	0.105	1201515	keystroke_e	e	n/a
601.0275	0.06	1202055	keystroke_n	n	n/a
601.5525	0.075	1203105	keystroke_Key.enter	Key.enter	n/a
601.633	8.1415	1203266	prompt	n/a	to understand trying linked\n
602.483	0.0755	1204966	keystroke_t	t	n/a
602.5735	0.0595	1205147	keystroke_o	o	n/a
602.7685	0.0595	1205537	keystroke_Key.space	Key.space	n/a
604.0585	0.03	1208117	keystroke_u	u	n/a
604.2385	0.045	1208477	keystroke_n	n	n/a
604.3135	0.075	1208627	keystroke_d	d	n/a
604.4935	0.105	1208987	keystroke_e	e	n/a
604.5835	0.0745	1209167	keystroke_r	r	n/a
604.7935	0.075	1209587	keystroke_s	s	n/a
604.9585	0.045	1209917	keystroke_t	t	n/a
605.1535	0.105	1210307	keystroke_a	a	n/a
605.6785	0.075	1211357	keystroke_n	n	n/a
605.8435	0.09	1211687	keystroke_d	d	n/a
606.2635	0.1045	1212527	keystroke_Key.space	Key.space	n/a
606.863	0.045	1213726	keystroke_t	t	n/a
607.028	0.075	1214056	keystroke_r	r	n/a
607.298	0.06	1214596	keystroke_y	y	n/a
607.403	0.135	1214806	keystroke_i	i	n/a
607.493	0.075	1214986	keystroke_n	n	n/a
607.643	0.06	1215286	keystroke_g	g	n/a
607.718	0.075	1215436	keystroke_Key.space	Key.space	n/a
608.303	0.135	1216606	keystroke_l	l	n/a
608.363	0.105	1216726	keystroke_i	i	n/a
608.768	0.0905	1217536	keystroke_n	n	n/a
608.978	0.075	1217956	keystroke_k	k	n/a
609.248	0.075	1218496	keystroke_e	e	n/a
609.443	0.09	1218886	keystroke_d	d	n/a
609.7135	0.06	1219427	keystroke_Key.enter	Key.enter	n/a
609.778	9.507	1219556	prompt	n/a	threshold reasoning hardwood engines\n
610.6135	0.06	1221227	keystroke_t	t	n/a
610.7035	0.075	1221407	keystroke_h	h	n/a
611.2735	0.12	1222547	keystroke_r	r	n/a
611.3635	0.09	1222727	keystroke_e	e	n/a
611.5735	0.06	1223147	keystroke_s	s	n/a
611.7685	0.075	1223537	keystroke_h	h	n/a
611.9935	0.075	1223987	keystroke_o	o	n/a
612.2035	0.09	1224407	keystroke_l	l	n/a
612.3835	0.075	1224767	keystroke_d	d	n/a
612.5035	0.09	1225007	keystroke_Key.space	Key.space	n/a
613.268	0.09	1226536	keystroke_r	r	n/a
613.298	0.105	1226596	keystroke_e	e	n/a
613.508	0.105	1227016	keystroke_a	a	n/a
613.583	0.09	1227166	keystroke_s	s	n/a
613.718	0.165	1227436	keystroke_o	o	n/a
613.853	0.105	1227706	keystroke_n	n	n/a
614.078	0.15	1228156	keystroke_i	i	n/a
614.183	0.105	1228366	keystroke_n	n	n/a
614.243	0.12	1228486	keystroke_g	g	n/a
614.423	0.075	1228846	keystroke_Key.space	Key.space	n/a
615.473	0.045	1230946	keystroke_h	h	n/a
615.5485	0.075	1231097	keystroke_a	a	n/a
615.7435	0.06	1231487	keystroke_r	r	n/a
615.9235	0.075	1231847	keystroke_d	d	n/a
616.1185	0.075	1232237	keystroke_w	w	n/a
616.2385	0.06	1232477	keystroke_o	o	n/a
616.3885	0.09	1232777	keystroke_o	o	n/a
616.9585	0.06	1233917	keystroke_d	d	n/a
617.0785	0.09	1234157	keystroke_Key.space	Key.space	n/a
617.9035	0.075	1235807	keystroke_e	e	n/a
618.0235	0.075	1236047	keystroke_n	n	n/a
618.2785	0.045	1236557	keystroke_g	g	n/a
618.3535	0.15	1236707	keystroke_i	i	n/a
618.4285	0.105	1236857	keystroke_n	n	n/a
618.5935	0.045	1237187	keystroke_e	e	n/a
618.7585	0.06	1237517	keystroke_s	s	n/a
619.2385	0.045	1238477	keystroke_Key.enter	Key.enter	n/a
619.2875	9.1925	1238575	prompt	n/a	ne'er property registrar chef\n
620.2735	0.06	1240547	keystroke_n	n	n/a
620.4385	0.075	1240877	keystroke_e	e	n/a
620.663	0.09	1241326	keystroke_'	'	n/a
620.933	0.1345	1241866	keystroke_e	e	n/a
621.0525	0.09	1242105	keystroke_r	r	n/a
621.2025	0.09	1242405	keystroke_Key.space	Key.space	n/a
621.8625	0.091	1243725	keystroke_p	p	n/a
622.1175	0.075	1244235	keystroke_r	r	n/a
622.3135	0.0745	1244627	keystroke_o	o	n/a
622.523	0.06	1245046	keystroke_p	p	n/a
622.613	0.1195	1245226	keystroke_e	e	n/a
