onset	duration	sample	value	key	prompt_text
10.2705	8.795	20541	prompt	n/a	the quick brown fox jumps over a lazy dog\n
11.6705	0.0275	23341	keystroke_t	t	n/a
11.7285	0.1045	23457	keystroke_h	h	n/a
11.8625	0.1505	23725	keystroke_e	e	n/a
12.013	0.12	24026	keystroke_Key.space	Key.space	n/a
12.643	0.0895	25286	keystroke_q	q	n/a
12.7485	0.09	25497	keystroke_u	u	n/a
12.988	0.105	25976	keystroke_i	i	n/a
13.198	0.09	26396	keystroke_c	c	n/a
13.3185	0.105	26637	keystroke_k	k	n/a
13.4535	0.0895	26907	keystroke_Key.space	Key.space	n/a
13.6785	0.0595	27357	keystroke_b	b	n/a
13.798	0.105	27596	keystroke_r	r	n/a
13.9335	0.0745	27867	keystroke_o	o	n/a
14.0835	0.1045	28167	keystroke_w	w	n/a
14.1735	0.09	28347	keystroke_n	n	n/a
14.2485	0.1045	28497	keystroke_Key.space	Key.space	n/a
14.4135	0.1195	28827	keystroke_f	f	n/a
14.578	0.0755	29156	keystroke_o	o	n/a
15.028	0.12	30056	keystroke_x	x	n/a
15.313	0.09	30626	keystroke_Key.space	Key.space	n/a
15.4935	0.075	30987	keystroke_j	j	n/a
15.7185	0.0595	31437	keystroke_u	u	n/a
15.9425	0.076	31885	keystroke_m	m	n/a
16.123	0.075	32246	keystroke_p	p	n/a
16.2135	0.12	32427	keystroke_s	s	n/a
16.288	0.1045	32576	keystroke_Key.space	Key.space	n/a
16.4085	0.0895	32817	keystroke_o	o	n/a
16.813	0.03	33626	keystroke_v	v	n/a
16.993	0.1055	33986	keystroke_e	e	n/a
17.0835	0.09	34167	keystroke_r	r	n/a
17.1435	0.135	34287	keystroke_Key.space	Key.space	n/a
17.2935	0.12	34587	keystroke_a	a	n/a
17.398	0.1205	34796	keystroke_Key.space	Key.space	n/a
17.6535	0.075	35307	keystroke_l	l	n/a
17.713	0.1055	35426	keystroke_a	a	n/a
18.028	0.046	36056	keystroke_z	z	n/a
18.2235	0.0745	36447	keystroke_y	y	n/a
18.343	0.105	36686	keystroke_Key.space	Key.space	n/a
18.5385	0.1045	37077	keystroke_d	d	n/a
18.6735	0.075	37347	keystroke_o	o	n/a
18.793	0.09	37586	keystroke_g	g	n/a
18.958	0.105	37916	keystroke_Key.enter	Key.enter	n/a
19.0705	7.2995	38141	prompt	n/a	fold indicated machine trademarks\n
19.7085	0.0895	39417	keystroke_f	f	n/a
19.8435	0.075	39687	keystroke_o	o	n/a
20.008	0.09	40016	keystroke_l	l	n/a
20.0835	0.1345	40167	keystroke_d	d	n/a
20.188	0.09	40376	keystroke_Key.space	Key.space	n/a
20.383	0.09	40766	keystroke_i	i	n/a
20.458	0.09	40916	keystroke_n	n	n/a
20.608	0.105	41216	keystroke_d	d	n/a
20.7735	0.075	41547	keystroke_i	i	n/a
20.9235	0.104	41847	keystroke_c	c	n/a
21.148	0.0905	42296	keystroke_a	a	n/a
21.3585	0.105	42717	keystroke_t	t	n/a
21.4925	0.1055	42985	keystroke_e	e	n/a
21.733	0.075	43466	keystroke_d	d	n/a
21.853	0.135	43706	keystroke_Key.space	Key.space	n/a
22.124	0.074	44248	keystroke_m	m	n/a
22.213	0.0755	44426	keystroke_a	a	n/a
22.3925	0.1055	44785	keystroke_c	c	n/a
22.5735	0.0295	45147	keystroke_h	h	n/a
22.7985	0.165	45597	keystroke_i	i	n/a
22.9185	0.09	45837	keystroke_n	n	n/a
22.978	0.12	45956	keystroke_e	e	n/a
23.0375	0.121	46075	keystroke_Key.space	Key.space	n/a
23.2785	0.1045	46557	keystroke_t	t	n/a
23.398	0.12	46796	keystroke_r	r	n/a
23.608	0.1195	47216	keystroke_a	a	n/a
24.0585	0.105	48117	keystroke_d	d	n/a
24.2235	0.1195	48447	keystroke_e	e	n/a
24.3735	0.0745	48747	keystroke_m	m	n/a
24.478	0.0905	48956	keystroke_e	e	n/a
24.6135	0.0595	49227	keystroke_n	n	n/a
24.988	0.075	49976	keystroke_Key.backspace	Key.backspace	n/a
25.123	0.0755	50246	keystroke_Key.backspace	Key.backspace	n/a
25.2135	0.0895	50427	keystroke_a	a	n/a
25.4235	0.0895	50847	keystroke_r	r	n/a
25.5435	0.09	51087	keystroke_k	k	n/a
25.679	0.119	51358	keystroke_s	s	n/a
26.293	0.075	52586	keystroke_Key.enter	Key.enter	n/a
26.3755	6.3395	52751	prompt	n/a	varieties forgot cialis entity\n
27.043	0.1055	54086	keystroke_v	v	n/a
27.2235	0.1045	54447	keystroke_a	a	n/a
27.418	0.0905	54836	keystroke_r	r	n/a
27.568	0.0755	55136	keystroke_i	i	n/a
27.703	0.0905	55406	keystroke_e	e	n/a
27.9885	0.09	55977	keystroke_t	t	n/a
28.1685	0.09	56337	keystroke_i	i	n/a
28.288	0.165	56576	keystroke_e	e	n/a
28.438	0.1205	56876	keystroke_s	s	n/a
28.543	0.1205	57086	keystroke_Key.space	Key.space	n/a
28.8735	0.0895	57747	keystroke_f	f	n/a
29.0085	0.09	58017	keystroke_o	o	n/a
29.114	0.074	58228	keystroke_r	r	n/a
29.3085	0.075	58617	keystroke_g	g	n/a
29.4585	0.075	58917	keystroke_o	o	n/a
29.563	0.1205	59126	keystroke_t	t	n/a
29.653	0.09	59306	keystroke_Key.space	Key.space	n/a
30.1185	0.12	60237	keystroke_c	c	n/a
30.283	0.0755	60566	keystroke_i	i	n/a
30.4485	0.09	60897	keystroke_a	a	n/a
30.763	0.0745	61526	keystroke_l	l	n/a
30.9735	0.0595	61947	keystroke_i	i	n/a
31.0635	0.105	62127	keystroke_s	s	n/a
31.1825	0.09	62365	keystroke_Key.space	Key.space	n/a
31.4235	0.089	62847	keystroke_e	e	n/a
31.5425	0.06	63085	keystroke_n	n	n/a
31.8135	0.075	63627	keystroke_t	t	n/a
32.143	0.075	64286	keystroke_i	i	n/a
32.248	0.09	64496	keystroke_t	t	n/a
32.488	0.0755	64976	keystroke_y	y	n/a
32.623	0.09	65246	keystroke_Key.enter	Key.enter	n/a
32.72	7.9755	65440	prompt	n/a	damages performing italic authority\n
33.3435	0.0895	66687	keystroke_d	d	n/a
33.5085	0.09	67017	keystroke_a	a	n/a
33.6285	0.0745	67257	keystroke_m	m	n/a
33.703	0.0905	67406	keystroke_a	a	n/a
34.0485	0.105	68097	keystroke_g	g	n/a
34.348	0.165	68696	keystroke_s	s	n/a
34.813	0.075	69626	keystroke_Key.backspace	Key.backspace	n/a
34.918	0.15	69836	keystroke_e	e	n/a
35.038	0.1205	70076	keystroke_s	s	n/a
35.128	0.105	70256	keystroke_Key.space	Key.space	n/a
35.608	0.0755	71216	keystroke_p	p	n/a
35.728	0.15	71456	keystroke_e	e	n/a
35.893	0.09	71786	keystroke_r	r	n/a
36.1035	0.0895	72207	keystroke_f	f	n/a
36.298	0.0905	72596	keystroke_o	o	n/a
36.478	0.0755	72956	keystroke_r	r	n/a
36.8985	0.0895	73797	keystroke_m	m	n/a
37.228	0.1055	74456	keystroke_i	i	n/a
37.303	0.106	74606	keystroke_n	n	n/a
37.4235	0.12	74847	keystroke_g	g	n/a
37.483	0.12	74966	keystroke_Key.space	Key.space	n/a
37.7835	0.0745	75567	keystroke_i	i	n/a
37.9785	0.06	75957	keystroke_t	t	n/a
38.1575	0.106	76315	keystroke_a	a	n/a
38.2785	0.09	76557	keystroke_l	l	n/a
38.5485	0.075	77097	keystroke_i	i	n/a
38.6385	0.105	77277	keystroke_c	c	n/a
38.8325	0.0755	77665	keystroke_Key.space	Key.space	n/a
38.9975	0.1055	77995	keystroke_a	a	n/a
39.148	0.075	78296	keystroke_u	u	n/a
39.298	0.09	78596	keystroke_t	t	n/a
39.433	0.0455	78866	keystroke_h	h	n/a
39.628	0.09	79256	keystroke_o	o	n/a
39.7485	0.09	79497	keystroke_r	r	n/a
39.973	0.1055	79946	keystroke_i	i	n/a
40.2735	0.075	80547	keystroke_t	t	n/a
40.4675	0.061	80935	keystroke_y	y	n/a
40.6035	0.0895	81207	keystroke_Key.enter	Key.enter	n/a
40.7005	6.5195	81401	prompt	n/a	microphone joint horse viruses\n
41.2635	0.075	82527	keystroke_m	m	n/a
41.443	0.0755	82886	keystroke_i	i	n/a
41.5335	0.074	83067	keystroke_c	c	n/a
41.7435	0.1045	83487	keystroke_r	r	n/a
41.863	0.0755	83726	keystroke_o	o	n/a
42.2375	0.076	84475	keystroke_p	p	n/a
42.4925	0.06	84985	keystroke_h	h	n/a
42.7485	0.074	85497	keystroke_o	o	n/a
42.8235	0.105	85647	keystroke_n	n	n/a
42.9735	0.104	85947	keystroke_e	e	n/a
43.0335	0.104	86067	keystroke_Key.space	Key.space	n/a
43.349	0.09	86698	keystroke_j	j	n/a
43.543	0.06	87086	keystroke_o	o	n/a
43.769	0.12	87538	keystroke_i	i	n/a
43.844	0.1045	87688	keystroke_n	n	n/a
43.9935	0.12	87987	keystroke_t	t	n/a
44.0525	0.121	88105	keystroke_Key.space	Key.space	n/a
44.3085	0.045	88617	keystroke_h	h	n/a
44.5185	0.0745	89037	keystroke_o	o	n/a
44.9835	0.089	89967	keystroke_r	r	n/a
45.2685	0.105	90537	keystroke_s	s	n/a
45.4475	0.105	90895	keystroke_e	e	n/a
45.5375	0.105	91075	keystroke_Key.space	Key.space	n/a
45.8075	0.106	91615	keystroke_v	v	n/a
45.9735	0.09	91947	keystroke_i	i	n/a
46.1985	0.09	92397	keystroke_r	r	n/a
46.4225	0.045	92845	keystroke_u	u	n/a
46.5125	0.12	93025	keystroke_s	s	n/a
46.7675	0.1355	93535	keystroke_e	e	n/a
46.918	0.135	93836	keystroke_s	s	n/a
47.1135	0.1045	94227	keystroke_Key.enter	Key.enter	n/a
47.2255	8.0495	94451	prompt	n/a	there'll podcast nationwide check\n
47.8925	0.076	95785	keystroke_t	t	n/a
47.9685	0.0895	95937	keystroke_h	h	n/a
48.0725	0.135	96145	keystroke_e	e	n/a
48.223	0.1065	96446	keystroke_r	r	n/a
48.3135	0.12	96627	keystroke_e	e	n/a
48.5385	0.12	97077	keystroke_'	'	n/a
49.0485	0.075	98097	keystroke_l	l	n/a
49.213	0.106	98426	keystroke_l	l	n/a
49.468	0.1195	98936	keystroke_Key.space	Key.space	n/a
49.8885	0.0895	99777	keystroke_p	p	n/a
50.0835	0.075	100167	keystroke_o	o	n/a
50.1735	0.105	100347	keystroke_d	d	n/a
50.5185	0.075	101037	keystroke_c	c	n/a
50.6535	0.105	101307	keystroke_a	a	n/a
50.878	0.09	101756	keystroke_s	s	n/a
51.088	0.09	102176	keystroke_t	t	n/a
51.163	0.0905	102326	keystroke_Key.space	Key.space	n/a
51.433	0.075	102866	keystroke_n	n	n/a
51.493	0.09	102986	keystroke_a	a	n/a
51.7485	0.06	103497	keystroke_t	t	n/a
51.853	0.06	103706	keystroke_i	i	n/a
52.063	0.09	104126	keystroke_o	o	n/a
52.1385	0.1045	104277	keystroke_n	n	n/a
52.528	0.09	105056	keystroke_s	s	n/a
52.693	0.075	105386	keystroke_i	i	n/a
52.813	0.09	105626	keystroke_d	d	n/a
53.113	0.06	106226	keystroke_Key.backspace	Key.backspace	n/a
53.2475	0.0455	106495	keystroke_Key.backspace	Key.backspace	n/a
53.3675	0.075	106735	keystroke_Key.backspace	Key.backspace	n/a
53.548	0.0905	107096	keystroke_w	w	n/a
53.6985	0.09	107397	keystroke_i	i	n/a
53.833	0.09	107666	keystroke_d	d	n/a
54.043	0.09	108086	keystroke_e	e	n/a
54.118	0.09	108236	keystroke_Key.space	Key.space	n/a
54.4185	0.09	108837	keystroke_c	c	n/a
54.538	0.0755	109076	keystroke_h	h	n/a
54.673	0.075	109346	keystroke_e	e	n/a
54.8835	0.089	109767	keystroke_c	c	n/a
54.9875	0.0755	109975	keystroke_k	k	n/a
55.198	0.075	110396	keystroke_Key.enter	Key.enter	n/a
55.28	6.595	110560	prompt	n/a	referred economies twice seal\n
56.023	0.135	112046	keystroke_r	r	n/a
56.173	0.09	112346	keystroke_e	e	n/a
56.3675	0.076	112735	keystroke_f	f	n/a
56.5625	0.061	113125	keystroke_e	e	n/a
56.728	0.0755	113456	keystroke_r	r	n/a
56.8785	0.06	113757	keystroke_r	r	n/a
56.9835	0.12	113967	keystroke_e	e	n/a
57.2085	0.135	114417	keystroke_d	d	n/a
57.3435	0.09	114687	keystroke_Key.space	Key.space	n/a
57.5085	0.105	115017	keystroke_e	e	n/a
57.7785	0.074	115557	keystroke_c	c	n/a
58.0025	0.106	116005	keystroke_o	o	n/a
58.0935	0.1345	116187	keystroke_n	n	n/a
58.2435	0.119	116487	keystroke_o	o	n/a
58.4985	0.075	116997	keystroke_m	m	n/a
58.768	0.075	117536	keystroke_i	i	n/a
58.9925	0.1655	117985	keystroke_e	e	n/a
59.1435	0.119	118287	keystroke_s	s	n/a
59.233	0.1045	118466	keystroke_Key.space	Key.space	n/a
59.3975	0.0905	118795	keystroke_t	t	n/a
59.638	0.09	119276	keystroke_w	w	n/a
59.908	0.015	119816	keystroke_i	i	n/a
59.9685	0.0895	119937	keystroke_c	c	n/a
60.193	0.1045	120386	keystroke_e	e	n/a
60.2825	0.105	120565	keystroke_Key.space	Key.space	n/a
60.5825	0.09	121165	keystroke_d	d	n/a
61.0935	0.075	122187	keystroke_Key.backspace	Key.backspace	n/a
61.1835	0.075	122367	keystroke_s	s	n/a
61.3785	0.134	122757	keystroke_e	e	n/a
61.4985	0.12	122997	keystroke_a	a	n/a
61.588	0.0905	123176	keystroke_l	l	n/a
61.7825	0.09	123565	keystroke_Key.enter	Key.enter	n/a
61.8825	5.9175	123765	prompt	n/a	venues shipped handles frank\n
62.713	0.075	125426	keystroke_v	v	n/a
62.923	0.075	125846	keystroke_e	e	n/a
63.0435	0.09	126087	keystroke_n	n	n/a
63.4935	0.105	126987	keystroke_u	u	n/a
63.6285	0.134	127257	keystroke_e	e	n/a
63.7485	0.119	127497	keystroke_s	s	n/a
63.8385	0.105	127677	keystroke_Key.space	Key.space	n/a
64.0935	0.09	128187	keystroke_s	s	n/a
64.2285	0.06	128457	keystroke_h	h	n/a
64.4085	0.075	128817	keystroke_i	i	n/a
64.6635	0.03	129327	keystroke_p	p	n/a
64.7685	0.09	129537	keystroke_p	p	n/a
64.8875	0.061	129775	keystroke_e	e	n/a
65.0835	0.105	130167	keystroke_d	d	n/a
65.2025	0.106	130405	keystroke_Key.space	Key.space	n/a
65.6385	0.09	131277	keystroke_h	h	n/a
65.788	0.09	131576	keystroke_a	a	n/a
65.908	0.105	131816	keystroke_n	n	n/a
66.0285	0.105	132057	keystroke_d	d	n/a
66.283	0.09	132566	keystroke_l	l	n/a
66.403	0.135	132806	keystroke_e	e	n/a
66.538	0.105	133076	keystroke_s	s	n/a
66.628	0.09	133256	keystroke_Key.space	Key.space	n/a
66.8535	0.0745	133707	keystroke_f	f	n/a
67.0485	0.1045	134097	keystroke_r	r	n/a
67.198	0.105	134396	keystroke_a	a	n/a
67.2885	0.0895	134577	keystroke_n	n	n/a
67.483	0.09	134966	keystroke_k	k	n/a
67.708	0.09	135416	keystroke_Key.enter	Key.enter	n/a
67.8045	8.095	135609	prompt	n/a	stroke internal referenced expected\n
68.5635	0.075	137127	keystroke_s	s	n/a
68.7435	0.105	137487	keystroke_t	t	n/a
68.8335	0.12	137667	keystroke_r	r	n/a
68.9835	0.075	137967	keystroke_o	o	n/a
69.1775	0.106	138355	keystroke_k	k	n/a
69.2985	0.09	138597	keystroke_e	e	n/a
69.3735	0.105	138747	keystroke_Key.space	Key.space	n/a
69.5685	0.105	139137	keystroke_i	i	n/a
69.6585	0.074	139317	keystroke_n	n	n/a
69.7485	0.06	139497	keystroke_t	t	n/a
69.868	0.18	139736	keystroke_e	e	n/a
70.0325	0.091	140065	keystroke_r	r	n/a
70.423	0.0905	140846	keystroke_n	n	n/a
70.573	0.09	141146	keystroke_a	a	n/a
70.738	0.1045	141476	keystroke_l	l	n/a
70.8575	0.076	141715	keystroke_Key.space	Key.space	n/a
71.068	0.06	142136	keystroke_r	r	n/a
71.7875	0.105	143575	keystroke_e	e	n/a
72.2075	0.121	144415	keystroke_f	f	n/a
72.5085	0.1045	145017	keystroke_e	e	n/a
72.628	0.1355	145256	keystroke_r	r	n/a
72.748	0.105	145496	keystroke_e	e	n/a
72.958	0.09	145916	keystroke_n	n	n/a
73.2435	0.105	146487	keystroke_c	c	n/a
73.4835	0.075	146967	keystroke_e	e	n/a
73.6785	0.089	147357	keystroke_d	d	n/a
73.7525	0.091	147505	keystroke_Key.space	Key.space	n/a
73.9485	0.089	147897	keystroke_e	e	n/a
74.173	0.12	148346	keystroke_x	x	n/a
74.4135	0.1045	148827	keystroke_p	p	n/a
74.5635	0.09	149127	keystroke_e	e	n/a
74.818	0.1055	149636	keystroke_c	c	n/a
75.1185	0.0895	150237	keystroke_t	t	n/a
75.2985	0.06	150597	keystroke_e	e	n/a
75.4935	0.09	150987	keystroke_d	d	n/a
75.8225	0.0755	151645	keystroke_Key.enter	Key.enter	n/a
75.9045	8.425	151809	prompt	n/a	amendment myanmar palestinian murder\n
76.4985	0.0895	152997	keystroke_a	a	n/a
76.663	0.075	153326	keystroke_m	m	n/a
76.798	0.09	153596	keystroke_e	e	n/a
76.933	0.0755	153866	keystroke_n	n	n/a
77.0385	0.0895	154077	keystroke_d	d	n/a
77.3835	0.075	154767	keystroke_m	m	n/a
77.488	0.105	154976	keystroke_e	e	n/a
77.6235	0.0755	155247	keystroke_n	n	n/a
77.8335	0.09	155667	keystroke_t	t	n/a
77.938	0.1055	155876	keystroke_Key.space	Key.space	n/a
78.509	0.104	157018	keystroke_m	m	n/a
79.0925	0.0755	158185	keystroke_y	y	n/a
79.333	0.0755	158666	keystroke_a	a	n/a
79.4985	0.136	158997	keystroke_n	n	n/a
80.0685	0.075	160137	keystroke_m	m	n/a
80.173	0.09	160346	keystroke_a	a	n/a
80.383	0.12	160766	keystroke_r	r	n/a
80.4735	0.1195	160947	keystroke_Key.space	Key.space	n/a
80.7135	0.0895	161427	keystroke_p	p	n/a
80.863	0.1055	161726	keystroke_a	a	n/a
81.0135	0.1045	162027	keystroke_l	l	n/a
81.178	0.15	162356	keystroke_e	e	n/a
81.313	0.12	162626	keystroke_s	s	n/a
81.5985	0.105	163197	keystroke_t	t	n/a
81.7635	0.105	163527	keystroke_i	i	n/a
81.9285	0.09	163857	keystroke_n	n	n/a
82.3635	0.075	164727	keystroke_i	i	n/a
82.5425	0.106	165085	keystroke_a	a	n/a
82.679	0.0885	165358	keystroke_n	n	n/a
82.7535	0.0895	165507	keystroke_Key.space	Key.space	n/a
82.9935	0.0445	165987	keystroke_m	m	n/a
83.473	0.03	166946	keystroke_u	u	n/a
83.5185	0.09	167037	keystroke_r	r	n/a
83.773	0.09	167546	keystroke_d	d	n/a
83.983	0.12	167966	keystroke_e	e	n/a
84.0585	0.1045	168117	keystroke_r	r	n/a
84.238	0.0905	168476	keystroke_Key.enter	Key.enter	n/a
84.3395	5.9755	168679	prompt	n/a	immune marble display respondents\n
84.9435	0.075	169887	keystroke_i	i	n/a
85.1535	0.06	170307	keystroke_m	m	n/a
85.274	0.0745	170548	keystroke_m	m	n/a
85.5585	0.1345	171117	keystroke_u	u	n/a
85.6635	0.089	171327	keystroke_n	n	n/a
85.7675	0.135	171535	keystroke_e	e	n/a
85.8725	0.12	171745	keystroke_Key.space	Key.space	n/a
86.1575	0.0755	172315	keystroke_m	m	n/a
86.2635	0.1045	172527	keystroke_a	a	n/a
86.4885	0.1045	172977	keystroke_r	r	n/a
86.743	0.075	173486	keystroke_b	b	n/a
86.9535	0.1195	173907	keystroke_l	l	n/a
87.058	0.1055	174116	keystroke_e	e	n/a
87.1485	0.0745	174297	keystroke_Key.space	Key.space	n/a
87.328	0.1055	174656	keystroke_d	d	n/a
87.4485	0.0895	174897	keystroke_i	i	n/a
87.553	0.0755	175106	keystroke_s	s	n/a
87.763	0.135	175526	keystroke_p	p	n/a
87.868	0.105	175736	keystroke_l	l	n/a
88.003	0.1055	176006	keystroke_a	a	n/a
88.2285	0.075	176457	keystroke_y	y	n/a
88.318	0.1055	176636	keystroke_Key.space	Key.space	n/a
88.5435	0.105	177087	keystroke_r	r	n/a
88.6635	0.135	177327	keystroke_e	e	n/a
88.888	0.105	177776	keystroke_s	s	n/a
88.9485	0.09	177897	keystroke_p	p	n/a
89.2485	0.045	178497	keystroke_o	o	n/a
89.2785	0.105	178557	keystroke_n	n	n/a
89.4585	0.075	178917	keystroke_d	d	n/a
89.6535	0.09	179307	keystroke_e	e	n/a
89.7585	0.074	179517	keystroke_n	n	n/a
89.9085	0.1195	179817	keystroke_t	t	n/a
90.043	0.1205	180086	keystroke_s	s	n/a
90.223	0.09	180446	keystroke_Key.enter	Key.enter	n/a
90.32	6.1445	180640	prompt	n/a	britney october lies virtue\n
91.1985	0.0895	182397	keystroke_b	b	n/a
91.2735	0.09	182547	keystroke_r	r	n/a
91.4225	0.09	182845	keystroke_i	i	n/a
91.5275	0.09	183055	keystroke_t	t	n/a
91.7525	0.09	183505	keystroke_n	n	n/a
91.8875	0.091	183775	keystroke_e	e	n/a
92.0825	0.076	184165	keystroke_y	y	n/a
92.1585	0.0745	184317	keystroke_Key.space	Key.space	n/a
92.518	0.0605	185036	keystroke_o	o	n/a
93.028	0.0455	186056	keystroke_c	c	n/a
93.2535	0.0895	186507	keystroke_t	t	n/a
93.4035	0.0895	186807	keystroke_o	o	n/a
93.718	0.075	187436	keystroke_b	b	n/a
93.9725	0.12	187945	keystroke_e	e	n/a
94.1235	0.104	188247	keystroke_r	r	n/a
94.2425	0.105	188485	keystroke_Key.space	Key.space	n/a
94.5585	0.09	189117	keystroke_l	l	n/a
94.753	0.0905	189506	keystroke_i	i	n/a
94.828	0.165	189656	keystroke_e	e	n/a
94.978	0.1205	189956	keystroke_s	s	n/a
95.038	0.1055	190076	keystroke_Key.space	Key.space	n/a
95.2635	0.105	190527	keystroke_v	v	n/a
95.4285	0.075	190857	keystroke_i	i	n/a
95.5635	0.075	191127	keystroke_r	r	n/a
95.8035	0.06	191607	keystroke_t	t	n/a
95.9385	0.075	191877	keystroke_u	u	n/a
96.1935	0.12	192387	keystroke_e	e	n/a
96.3885	0.075	192777	keystroke_Key.enter	Key.enter	n/a
96.469	6.881	192938	prompt	n/a	decline magic sunday untitled\n
97.1085	0.09	194217	keystroke_d	d	n/a
97.303	0.0755	194606	keystroke_e	e	n/a
97.4975	0.1055	194995	keystroke_c	c	n/a
97.588	0.0755	195176	keystroke_l	l	n/a
97.829	0.089	195658	keystroke_i	i	n/a
97.903	0.0905	195806	keystroke_n	n	n/a
97.949	0.1495	195898	keystroke_e	e	n/a
98.068	0.12	196136	keystroke_Key.space	Key.space	n/a
98.293	0.06	196586	keystroke_m	m	n/a
98.413	0.09	196826	keystroke_a	a	n/a
98.8475	0.091	197695	keystroke_g	g	n/a
98.9975	0.076	197995	keystroke_i	i	n/a
99.1175	0.136	198235	keystroke_c	c	n/a
99.2675	0.1205	198535	keystroke_Key.space	Key.space	n/a
99.4035	0.105	198807	keystroke_s	s	n/a
99.553	0.1355	199106	keystroke_u	u	n/a
99.643	0.105	199286	keystroke_n	n	n/a
100.0785	0.149	200157	keystroke_d	d	n/a
100.2425	0.105	200485	keystroke_a	a	n/a
100.4975	0.0755	200995	keystroke_y	y	n/a
100.618	0.09	201236	keystroke_Key.space	Key.space	n/a
101.0085	0.15	202017	keystroke_u	u	n/a
101.1285	0.135	202257	keystroke_n	n	n/a
101.4285	0.09	202857	keystroke_t	t	n/a
101.5785	0.075	203157	keystroke_i	i	n/a
101.8335	0.105	203667	keystroke_l	l	n/a
102.0585	0.075	204117	keystroke_i	i	n/a
102.1635	0.15	204327	keystroke_t	t	n/a
102.2985	0.12	204597	keystroke_e	e	n/a
102.4185	0.15	204837	keystroke_s	s	n/a
102.9885	0.075	205977	keystroke_Key.backspace	Key.backspace	n/a
103.0785	0.12	206157	keystroke_d	d	n/a
103.259	0.09	206518	keystroke_Key.enter	Key.enter	n/a
103.3545	9.4615	206709	prompt	n/a	hudson egyptian forbes vocals\n
104.1735	0.0595	208347	keystroke_h	h	n/a
104.3685	0.105	208737	keystroke_d	d	n/a
104.713	0.0605	209426	keystroke_Key.backspace	Key.backspace	n/a
104.9685	0.0895	209937	keystroke_u	u	n/a
105.073	0.0755	210146	keystroke_d	d	n/a
105.6135	0.105	211227	keystroke_s	s	n/a
105.7485	0.135	211497	keystroke_o	o	n/a
105.8535	0.12	211707	keystroke_n	n	n/a
105.988	0.075	211976	keystroke_Key.space	Key.space	n/a
106.468	0.12	212936	keystroke_e	e	n/a
106.813	0.0895	213626	keystroke_g	g	n/a
107.3085	0.075	214617	keystroke_y	y	n/a
107.8035	0.12	215607	keystroke_p	p	n/a
108.2085	0.09	216417	keystroke_t	t	n/a
108.359	0.0895	216718	keystroke_i	i	n/a
108.6585	0.105	217317	keystroke_a	a	n/a
108.778	0.0905	217556	keystroke_n	n	n/a
108.883	0.09	217766	keystroke_Key.space	Key.space	n/a
109.213	0.09	218426	keystroke_f	f	n/a
109.4985	0.105	218997	keystroke_o	o	n/a
109.6485	0.105	219297	keystroke_r	r	n/a
109.8885	0.075	219777	keystroke_b	b	n/a
110.0085	0.135	220017	keystroke_e	e	n/a
110.1275	0.166	220255	keystroke_s	s	n/a
110.278	0.09	220556	keystroke_Key.space	Key.space	n/a
110.6535	0.105	221307	keystroke_c	c	n/a
110.8785	0.075	221757	keystroke_o	o	n/a
111.3585	0.06	222717	keystroke_Key.backspace	Key.backspace	n/a
111.4785	0.075	222957	keystroke_Key.backspace	Key.backspace	n/a
111.6585	0.089	223317	keystroke_v	v	n/a
111.7785	0.0745	223557	keystroke_o	o	n/a
112.003	0.105	224006	keystroke_c	c	n/a
112.1385	0.1045	224277	keystroke_a	a	n/a
112.273	0.0895	224546	keystroke_l	l	n/a
112.408	0.0905	224816	keystroke_s	s	n/a
112.7085	0.1045	225417	keystroke_Key.enter	Key.enter	n/a
112.8315	5.114	225663	prompt	n/a	blog lease tells festivals\n
113.728	0.09	227456	keystroke_b	b	n/a
113.8335	0.0745	227667	keystroke_l	l	n/a
113.998	0.075	227996	keystroke_o	o	n/a
114.088	0.1205	228176	keystroke_g	g	n/a
114.1785	0.09	228357	keystroke_Key.space	Key.space	n/a
114.4035	0.09	228807	keystroke_l	l	n/a
114.4785	0.105	228957	keystroke_e	e	n/a
114.5985	0.09	229197	keystroke_a	a	n/a
114.8235	0.12	229647	keystroke_s	s	n/a
114.9735	0.12	229947	keystroke_e	e	n/a
115.0485	0.105	230097	keystroke_Key.space	Key.space	n/a
115.393	0.105	230786	keystroke_t	t	n/a
115.5285	0.104	231057	keystroke_e	e	n/a
115.6785	0.075	231357	keystroke_l	l	n/a
115.8135	0.09	231627	keystroke_l	l	n/a
115.8885	0.135	231777	keystroke_s	s	n/a
115.9785	0.1195	231957	keystroke_Key.space	Key.space	n/a
116.1725	0.106	232345	keystroke_f	f	n/a
116.3535	0.134	232707	keystroke_e	e	n/a
116.4575	0.12	232915	keystroke_s	s	n/a
116.6375	0.09	233275	keystroke_t	t	n/a
116.789	0.0735	233578	keystroke_i	i	n/a
116.938	0.105	233876	keystroke_v	v	n/a
117.2835	0.0895	234567	keystroke_a	a	n/a
117.388	0.0755	234776	keystroke_l	l	n/a
117.508	0.105	235016	keystroke_s	s	n/a
117.838	0.105	235676	keystroke_Key.enter	Key.enter	n/a
117.9495	7.8855	235899	prompt	n/a	accessing creek linked federation\n
118.6035	0.0895	237207	keystroke_a	a	n/a
119.023	0.09	238046	keystroke_c	c	n/a
119.1585	0.1195	238317	keystroke_c	c	n/a
119.6085	0.09	239217	keystroke_e	e	n/a
119.8185	0.06	239637	keystroke_s	s	n/a
119.9535	0.075	239907	keystroke_s	s	n/a
120.163	0.1355	240326	keystroke_i	i	n/a
120.254	0.119	240508	keystroke_n	n	n/a
120.3885	0.1045	240777	keystroke_g	g	n/a
120.478	0.105	240956	keystroke_Key.space	Key.space	n/a
120.7485	0.075	241497	keystroke_c	c	n/a
120.9885	0.105	241977	keystroke_r	r	n/a
121.0785	0.0895	242157	keystroke_e	e	n/a
121.2735	0.0755	242547	keystroke_e	e	n/a
121.483	0.09	242966	keystroke_k	k	n/a
121.558	0.09	243116	keystroke_Key.space	Key.space	n/a
122.2485	0.09	244497	keystroke_l	l	n/a
122.6075	0.121	245215	keystroke_i	i	n/a
122.6975	0.135	245395	keystroke_n	n	n/a
122.9075	0.12	245815	keystroke_k	k	n/a
123.3585	0.0745	246717	keystroke_e	e	n/a
123.553	0.1055	247106	keystroke_d	d	n/a
123.673	0.09	247346	keystroke_Key.space	Key.space	n/a
123.883	0.105	247766	keystroke_f	f	n/a
124.0785	0.0745	248157	keystroke_e	e	n/a
124.288	0.0755	248576	keystroke_d	d	n/a
124.498	0.1495	248996	keystroke_e	e	n/a
124.6335	0.104	249267	keystroke_r	r	n/a
124.7975	0.1055	249595	keystroke_a	a	n/a
125.023	0.06	250046	keystroke_t	t	n/a
125.143	0.09	250286	keystroke_i	i	n/a
125.368	0.1205	250736	keystroke_o	o	n/a
125.4585	0.105	250917	keystroke_n	n	n/a
125.7435	0.09	251487	keystroke_Key.enter	Key.enter	n/a
125.8405	7.029	251681	prompt	n/a	retired annotation validation plaza\n
126.434	0.1195	252868	keystroke_r	r	n/a
126.5535	0.089	253107	keystroke_e	e	n/a
126.7485	0.0745	253497	keystroke_t	t	n/a
126.8835	0.089	253767	keystroke_i	i	n/a
126.9885	0.09	253977	keystroke_r	r	n/a
127.1535	0.075	254307	keystroke_e	e	n/a
127.3635	0.135	254727	keystroke_d	d	n/a
127.4835	0.0745	254967	keystroke_Key.space	Key.space	n/a
127.6785	0.105	255357	keystroke_a	a	n/a
127.8125	0.046	255625	keystroke_n	n	n/a
127.9185	0.0745	255837	keystroke_n	n	n/a
128.1135	0.1045	256227	keystroke_o	o	n/a
128.263	0.0755	256526	keystroke_t	t	n/a
128.383	0.1205	256766	keystroke_a	a	n/a
128.5185	0.0895	257037	keystroke_t	t	n/a
128.6685	0.0595	257337	keystroke_i	i	n/a
128.848	0.105	257696	keystroke_o	o	n/a
128.938	0.0905	257876	keystroke_n	n	n/a
129.043	0.09	258086	keystroke_Key.space	Key.space	n/a
129.253	0.0905	258506	keystroke_v	v	n/a
129.3885	0.12	258777	keystroke_a	a	n/a
129.4785	0.09	258957	keystroke_l	l	n/a
129.7035	0.075	259407	keystroke_i	i	n/a
130.1985	0.074	260397	keystroke_d	d	n/a
130.5585	0.105	261117	keystroke_a	a	n/a
130.7985	0.074	261597	keystroke_t	t	n/a
130.9185	0.0745	261837	keystroke_i	i	n/a
131.098	0.0905	262196	keystroke_o	o	n/a
131.1735	0.089	262347	keystroke_n	n	n/a
131.2485	0.09	262497	keystroke_Key.space	Key.space	n/a
131.4425	0.1355	262885	keystroke_p	p	n/a
131.5185	0.1195	263037	keystroke_l	l	n/a
131.6085	0.0895	263217	keystroke_a	a	n/a
131.893	0.105	263786	keystroke_z	z	n/a
132.2385	0.09	264477	keystroke_a	a	n/a
132.7485	0.1195	265497	keystroke_Key.enter	Key.enter	n/a
132.874	5.0355	265748	prompt	n/a	paper spray edge king\n
133.588	0.0755	267176	keystroke_p	p	n/a
133.8285	0.1045	267657	keystroke_a	a	n/a
133.963	0.1055	267926	keystroke_p	p	n/a
134.308	0.09	268616	keystroke_e	e	n/a
134.7885	0.089	269577	keystroke_r	r	n/a
134.893	0.12	269786	keystroke_Key.space	Key.space	n/a
135.1635	0.1045	270327	keystroke_s	s	n/a
135.343	0.0905	270686	keystroke_p	p	n/a
135.553	0.12	271106	keystroke_r	r	n/a
135.658	0.135	271316	keystroke_a	a	n/a
135.868	0.075	271736	keystroke_y	y	n/a
135.9585	0.0895	271917	keystroke_Key.space	Key.space	n/a
136.183	0.0755	272366	keystroke_e	e	n/a
136.3935	0.0745	272787	keystroke_d	d	n/a
136.7385	0.045	273477	keystroke_g	g	n/a
136.888	0.0905	273776	keystroke_e	e	n/a
136.963	0.1055	273926	keystroke_Key.space	Key.space	n/a
137.2335	0.09	274467	keystroke_k	k	n/a
137.4585	0.12	274917	keystroke_i	i	n/a
137.5485	0.09	275097	keystroke_n	n	n/a
137.653	0.075	275306	keystroke_g	g	n/a
137.8175	0.0905	275635	keystroke_Key.enter	Key.enter	n/a
137.915	5.6495	275830	prompt	n/a	icons roster total packs\n
138.748	0.0745	277496	keystroke_i	i	n/a
138.8985	0.09	277797	keystroke_c	c	n/a
139.0785	0.105	278157	keystroke_o	o	n/a
139.1685	0.09	278337	keystroke_n	n	n/a
139.3025	0.09	278605	keystroke_s	s	n/a
139.4075	0.105	278815	keystroke_Key.space	Key.space	n/a
139.5885	0.1045	279177	keystroke_r	r	n/a
139.7385	0.0895	279477	keystroke_o	o	n/a
139.843	0.105	279686	keystroke_s	s	n/a
140.068	0.06	280136	keystroke_t	t	n/a
140.188	0.135	280376	keystroke_e	e	n/a
140.293	0.12	280586	keystroke_r	r	n/a
140.383	0.105	280766	keystroke_Key.space	Key.space	n/a
140.698	0.09	281396	keystroke_t	t	n/a
140.8335	0.105	281667	keystroke_o	o	n/a
140.968	0.105	281936	keystroke_t	t	n/a
141.313	0.12	282626	keystroke_a	a	n/a
141.628	0.06	283256	keystroke_Key.space	Key.space	n/a
142.288	0.0745	284576	keystroke_Key.backspace	Key.backspace	n/a
142.513	0.1055	285026	keystroke_l	l	n/a
142.6025	0.0905	285205	keystroke_Key.space	Key.space	n/a
142.783	0.0745	285566	keystroke_p	p	n/a
142.8425	0.1205	285685	keystroke_a	a	n/a
143.0985	0.0895	286197	keystroke_c	c	n/a
143.203	0.105	286406	keystroke_k	k	n/a
143.3385	0.1045	286677	keystroke_s	s	n/a
143.473	0.09	286946	keystroke_Key.enter	Key.enter	n/a
143.569	17.995	287138	prompt	n/a	stanford conducted boxes responsibility\n
144.3125	0.09	288625	keystroke_s	s	n/a
144.5235	0.09	289047	keystroke_t	t	n/a
144.6435	0.135	289287	keystroke_a	a	n/a
144.8385	0.074	289677	keystroke_n	n	n/a
144.958	0.0905	289916	keystroke_d	d	n/a
145.2585	0.0745	290517	keystroke_f	f	n/a
145.393	0.0905	290786	keystroke_o	o	n/a
145.528	0.075	291056	keystroke_r	r	n/a
145.738	0.105	291476	keystroke_d	d	n/a
145.813	0.1045	291626	keystroke_Key.space	Key.space	n/a
146.1275	0.1055	292255	keystroke_c	c	n/a
146.2175	0.1055	292435	keystroke_o	o	n/a
146.293	0.09	292586	keystroke_n	n	n/a
146.9225	0.105	293845	keystroke_d	d	n/a
147.3125	0.0605	294625	keystroke_Key.backspace	Key.backspace	n/a
147.4775	0.0305	294955	keystroke_Key.backspace	Key.backspace	n/a
147.6125	0.045	295225	keystroke_Key.backspace	Key.backspace	n/a
147.748	0.0445	295496	keystroke_Key.backspace	Key.backspace	n/a
147.8675	0.0605	295735	keystroke_Key.backspace	Key.backspace	n/a
148.0025	0.075	296005	keystroke_Key.backspace	Key.backspace	n/a
148.153	0.06	296306	keystroke_Key.backspace	Key.backspace	n/a
148.2875	0.06	296575	keystroke_Key.backspace	Key.backspace	n/a
148.4225	0.075	296845	keystroke_Key.backspace	Key.backspace	n/a
148.6025	0.0605	297205	keystroke_Key.backspace	Key.backspace	n/a
148.843	0.0895	297686	keystroke_d	d	n/a
149.1125	0.015	298225	keystroke_o	o	n/a
149.1735	0.075	298347	keystroke_r	r	n/a
149.503	0.0595	299006	keystroke_Key.backspace	Key.backspace	n/a
149.6375	0.045	299275	keystroke_Key.backspace	Key.backspace	n/a
149.7725	0.06	299545	keystroke_Key.backspace	Key.backspace	n/a
149.8635	0.1045	299727	keystroke_f	f	n/a
150.0275	0.075	300055	keystroke_o	o	n/a
150.1185	0.0895	300237	keystroke_r	r	n/a
150.3435	0.089	300687	keystroke_d	d	n/a
150.4775	0.105	300955	keystroke_Key.space	Key.space	n/a
151.4825	0.105	302965	keystroke_c	c	n/a
151.6325	0.105	303265	keystroke_o	o	n/a
151.7075	0.12	303415	keystroke_n	n	n/a
152.338	0.0455	304676	keystroke_d	d	n/a
152.803	0.0755	305606	keystroke_c	c	n/a
152.8935	0.0745	305787	keystroke_u	u	n/a
153.1775	0.045	306355	keystroke_=	=	n/a
153.4475	0.075	306895	keystroke_Key.backspace	Key.backspace	n/a
153.5825	0.09	307165	keystroke_Key.backspace	Key.backspace	n/a
154.1975	0.075	308395	keystroke_Key.backspace	Key.backspace	n/a
154.4835	0.059	308967	keystroke_u	u	n/a
154.5885	0.089	309177	keystroke_c	c	n/a
154.7375	0.075	309475	keystroke_t	t	n/a
154.9025	0.075	309805	keystroke_e	e	n/a
155.0975	0.105	310195	keystroke_d	d	n/a
155.1875	0.0905	310375	keystroke_Key.space	Key.space	n/a
155.548	0.0605	311096	keystroke_b	b	n/a
155.7285	0.0895	311457	keystroke_o	o	n/a
155.833	0.105	311666	keystroke_x	x	n/a
156.133	0.105	312266	keystroke_e	e	n/a
156.5075	0.105	313015	keystroke_s	s	n/a
156.658	0.1045	313316	keystroke_Key.space	Key.space	n/a
157.033	0.105	314066	keystroke_r	r	n/a
157.1085	0.1495	314217	keystroke_e	e	n/a
157.258	0.1355	314516	keystroke_s	s	n/a
157.4225	0.0905	314845	keystroke_o	o	n/a
157.7075	0.106	315415	keystroke_i	i	n/a
157.8285	0.1045	315657	keystroke_b	b	n/a
158.263	0.075	316526	keystroke_Key.backspace	Key.backspace	n/a
158.413	0.06	316826	keystroke_Key.backspace	Key.backspace	n/a
158.563	0.06	317126	keystroke_Key.backspace	Key.backspace	n/a
159.0275	0.105	318055	keystroke_p	p	n/a
159.2975	0.09	318595	keystroke_o	o	n/a
159.448	0.1045	318896	keystroke_n	n	n/a
159.598	0.1055	319196	keystroke_s	s	n/a
159.898	0.015	319796	keystroke_i	i	n/a
160.078	0.09	320156	keystroke_b	b	n/a
160.288	0.1055	320576	keystroke_i	i	n/a
160.5585	0.0895	321117	keystroke_l	l	n/a
160.7835	0.074	321567	keystroke_i	i	n/a
161.023	0.075	322046	keystroke_t	t	n/a
161.233	0.06	322466	keystroke_y	y	n/a
161.458	0.105	322916	keystroke_Key.enter	Key.enter	n/a
161.5685	6.371	323137	prompt	n/a	enable contact uploaded inkjet\n
162.2535	0.09	324507	keystroke_e	e	n/a
162.358	0.075	324716	keystroke_n	n	n/a
162.493	0.105	324986	keystroke_a	a	n/a
162.672	0.091	325344	keystroke_b	b	n/a
162.838	0.105	325676	keystroke_l	l	n/a
162.928	0.0895	325856	keystroke_e	e	n/a
162.9875	0.09	325975	keystroke_Key.space	Key.space	n/a
163.198	0.0905	326396	keystroke_c	c	n/a
163.2885	0.105	326577	keystroke_o	o	n/a
163.363	0.09	326726	keystroke_n	n	n/a
163.498	0.0905	326996	keystroke_t	t	n/a
163.6025	0.0905	327205	keystroke_a	a	n/a
163.8425	0.0905	327685	keystroke_c	c	n/a
164.098	0.0745	328196	keystroke_t	t	n/a
164.143	0.1195	328286	keystroke_Key.space	Key.space	n/a
164.3525	0.0755	328705	keystroke_u	u	n/a
164.5625	0.075	329125	keystroke_p	p	n/a
164.7575	0.0755	329515	keystroke_l	l	n/a
164.923	0.0895	329846	keystroke_o	o	n/a
165.0575	0.121	330115	keystroke_a	a	n/a
165.1635	0.119	330327	keystroke_d	d	n/a
165.4175	0.075	330835	keystroke_e	e	n/a
165.613	0.1055	331226	keystroke_d	d	n/a
165.703	0.09	331406	keystroke_Key.space	Key.space	n/a
165.898	0.0745	331796	keystroke_i	i	n/a
165.9425	0.106	331885	keystroke_n	n	n/a
166.153	0.1055	332306	keystroke_k	k	n/a
166.318	0.09	332636	keystroke_e	e	n/a
167.023	0.27	334046	keystroke_Key.backspace	Key.backspace	n/a
167.3535	0.09	334707	keystroke_j	j	n/a
167.4735	0.089	334947	keystroke_e	e	n/a
167.6985	0.06	335397	keystroke_t	t	n/a
167.8635	0.075	335727	keystroke_Key.enter	Key.enter	n/a
167.946	9.5935	335892	prompt	n/a	different already pipe deeper\n
168.5685	0.1045	337137	keystroke_d	d	n/a
168.6875	0.0905	337375	keystroke_i	i	n/a
168.8085	0.075	337617	keystroke_f	f	n/a
168.9585	0.074	337917	keystroke_f	f	n/a
169.138	0.09	338276	keystroke_e	e	n/a
169.213	0.12	338426	keystroke_r	r	n/a
169.348	0.105	338696	keystroke_e	e	n/a
169.498	0.09	338996	keystroke_n	n	n/a
169.618	0.0905	339236	keystroke_t	t	n/a
169.692	0.136	339384	keystroke_Key.space	Key.space	n/a
169.873	0.105	339746	keystroke_a	a	n/a
169.9935	0.09	339987	keystroke_l	l	n/a
170.188	0.15	340376	keystroke_r	r	n/a
170.323	0.12	340646	keystroke_e	e	n/a
170.548	0.06	341096	keystroke_a	a	n/a
170.653	0.09	341306	keystroke_a	a	n/a
170.8025	0.075	341605	keystroke_d	d	n/a
170.998	0.0745	341996	keystroke_y	y	n/a
171.0875	0.1055	342175	keystroke_Key.space	Key.space	n/a
171.328	0.075	342656	keystroke_p	p	n/a
171.538	0.09	343076	keystroke_i	i	n/a
171.7935	0.09	343587	keystroke_p	p	n/a
171.9285	0.1045	343857	keystroke_e	e	n/a
171.988	0.105	343976	keystroke_Key.space	Key.space	n/a
172.2125	0.0755	344425	keystroke_d	d	n/a
172.7375	0.0605	345475	keystroke_Key.backspace	Key.backspace	n/a
172.9035	0.0445	345807	keystroke_Key.backspace	Key.backspace	n/a
173.023	0.06	346046	keystroke_Key.backspace	Key.backspace	n/a
173.158	0.06	346316	keystroke_Key.backspace	Key.backspace	n/a
173.293	0.0745	346586	keystroke_Key.backspace	Key.backspace	n/a
173.4275	0.0755	346855	keystroke_Key.backspace	Key.backspace	n/a
173.563	0.06	347126	keystroke_Key.backspace	Key.backspace	n/a
173.698	0.06	347396	keystroke_Key.backspace	Key.backspace	n/a
173.833	0.075	347666	keystroke_Key.backspace	Key.backspace	n/a
174.268	0.06	348536	keystroke_Key.backspace	Key.backspace	n/a
174.433	0.0905	348866	keystroke_d	d	n/a
174.853	0.0745	349706	keystroke_Key.space	Key.space	n/a
175.2575	0.075	350515	keystroke_Key.backspace	Key.backspace	n/a
175.3785	0.104	350757	keystroke_y	y	n/a
175.4825	0.09	350965	keystroke_Key.space	Key.space	n/a
175.6925	0.09	351385	keystroke_p	p	n/a
175.9185	0.0745	351837	keystroke_i	i	n/a
176.1435	0.089	352287	keystroke_p	p	n/a
176.2935	0.119	352587	keystroke_e	e	n/a
176.3675	0.105	352735	keystroke_Key.space	Key.space	n/a
176.5785	0.0745	353157	keystroke_d	d	n/a
176.7735	0.0445	353547	keystroke_e	e	n/a
176.908	0.0595	353816	keystroke_e	e	n/a
177.013	0.09	354026	keystroke_p	p	n/a
177.148	0.1495	354296	keystroke_e	e	n/a
177.2835	0.1045	354567	keystroke_r	r	n/a
177.4325	0.1055	354865	keystroke_Key.enter	Key.enter	n/a
177.545	7.3895	355090	prompt	n/a	infrared estimation machines bizarre\n
178.1235	0.1195	356247	keystroke_i	i	n/a
178.1825	0.12	356365	keystroke_n	n	n/a
178.348	0.0905	356696	keystroke_f	f	n/a
178.573	0.105	357146	keystroke_r	r	n/a
178.693	0.135	357386	keystroke_a	a	n/a
178.8435	0.1495	357687	keystroke_r	r	n/a
179.023	0.1205	358046	keystroke_e	e	n/a
179.2775	0.135	358555	keystroke_d	d	n/a
179.3975	0.09	358795	keystroke_Key.space	Key.space	n/a
179.7585	0.0895	359517	keystroke_e	e	n/a
180.028	0.06	360056	keystroke_s	s	n/a
180.178	0.09	360356	keystroke_t	t	n/a
180.373	0.105	360746	keystroke_i	i	n/a
180.583	0.1055	361166	keystroke_m	m	n/a
180.703	0.09	361406	keystroke_a	a	n/a
180.913	0.0905	361826	keystroke_t	t	n/a
181.0325	0.061	362065	keystroke_i	i	n/a
181.2135	0.12	362427	keystroke_o	o	n/a
181.2885	0.09	362577	keystroke_n	n	n/a
181.3475	0.105	362695	keystroke_Key.space	Key.space	n/a
181.5425	0.061	363085	keystroke_m	m	n/a
181.588	0.09	363176	keystroke_a	a	n/a
181.7685	0.0895	363537	keystroke_c	c	n/a
181.8885	0.0745	363777	keystroke_h	h	n/a
182.098	0.12	364196	keystroke_i	i	n/a
182.203	0.075	364406	keystroke_n	n	n/a
182.233	0.135	364466	keystroke_e	e	n/a
182.353	0.105	364706	keystroke_s	s	n/a
182.413	0.12	364826	keystroke_Key.space	Key.space	n/a
182.593	0.075	365186	keystroke_b	b	n/a
182.8035	0.075	365607	keystroke_i	i	n/a
182.983	0.0905	365966	keystroke_z	z	n/a
183.298	0.075	366596	keystroke_a	a	n/a
183.4925	0.105	366985	keystroke_r	r	n/a
183.6725	0.075	367345	keystroke_e	e	n/a
183.8535	0.0445	367707	keystroke_e	e	n/a
184.258	0.075	368516	keystroke_Key.backspace	Key.backspace	n/a
184.3925	0.09	368785	keystroke_Key.backspace	Key.backspace	n/a
184.4975	0.106	368995	keystroke_r	r	n/a
184.6185	0.119	369237	keystroke_e	e	n/a
184.843	0.0895	369686	keystroke_Key.enter	Key.enter	n/a
184.9375	10.618	369875	prompt	n/a	communist pledge southampton workshop\n
185.623	0.0895	371246	keystroke_c	c	n/a
185.7135	0.074	371427	keystroke_o	o	n/a
185.8935	0.0745	371787	keystroke_m	m	n/a
185.9985	0.1045	371997	keystroke_m	m	n/a
186.3885	0.1345	372777	keystroke_u	u	n/a
186.478	0.12	372956	keystroke_n	n	n/a
186.718	0.105	373436	keystroke_i	i	n/a
187.0185	0.0895	374037	keystroke_s	s	n/a
187.228	0.09	374456	keystroke_t	t	n/a
187.303	0.105	374606	keystroke_Key.space	Key.space	n/a
187.483	0.1495	374966	keystroke_p	p	n/a
187.5885	0.104	375177	keystroke_l	l	n/a
187.663	0.0745	375326	keystroke_e	e	n/a
187.9185	0.09	375837	keystroke_d	d	n/a
188.1735	0.075	376347	keystroke_g	g	n/a
188.3385	0.105	376677	keystroke_e	e	n/a
188.413	0.1055	376826	keystroke_Key.space	Key.space	n/a
188.8785	0.104	377757	keystroke_s	s	n/a
188.968	0.0895	377936	keystroke_o	o	n/a
189.238	0.0745	378476	keystroke_u	u	n/a
189.4025	0.0905	378805	keystroke_t	t	n/a
189.5685	0.0745	379137	keystroke_h	h	n/a
190.393	0.1045	380786	keystroke_a	a	n/a
190.5575	0.0755	381115	keystroke_m	m	n/a
191.008	0.105	382016	keystroke_p	p	n/a
191.2035	0.09	382407	keystroke_t	t	n/a
191.3835	0.0895	382767	keystroke_i	i	n/a
191.7575	0.075	383515	keystroke_o	o	n/a
192.178	0.03	384356	keystroke_Key.backspace	Key.backspace	n/a
192.283	0.075	384566	keystroke_Key.backspace	Key.backspace	n/a
192.5525	0.06	385105	keystroke_o	o	n/a
192.793	0.0745	385586	keystroke_n	n	n/a
192.943	0.105	385886	keystroke_Key.space	Key.space	n/a
193.618	0.12	387236	keystroke_w	w	n/a
193.723	0.075	387446	keystroke_o	o	n/a
193.858	0.0755	387716	keystroke_r	r	n/a
193.9625	0.106	387925	keystroke_k	k	n/a
194.3985	0.09	388797	keystroke_s	s	n/a
194.608	0.0455	389216	keystroke_h	h	n/a
195.0585	0.06	390117	keystroke_o	o	n/a
195.2685	0.0745	390537	keystroke_p	p	n/a
195.463	0.09	390926	keystroke_Key.enter	Key.enter	n/a
195.5605	6.3395	391121	prompt	n/a	requiring remember modelling remainder\n
196.198	0.12	392396	keystroke_r	r	n/a
196.288	0.105	392576	keystroke_e	e	n/a
196.543	0.075	393086	keystroke_q	q	n/a
196.678	0.06	393356	keystroke_u	u	n/a
196.8575	0.076	393715	keystroke_i	i	n/a
196.9775	0.0755	393955	keystroke_r	r	n/a
197.128	0.15	394256	keystroke_i	i	n/a
197.248	0.0905	394496	keystroke_n	n	n/a
197.3525	0.1055	394705	keystroke_g	g	n/a
197.4425	0.1055	394885	keystroke_Key.space	Key.space	n/a
197.593	0.12	395186	keystroke_r	r	n/a
197.698	0.09	395396	keystroke_e	e	n/a
197.818	0.09	395636	keystroke_m	m	n/a
197.938	0.09	395876	keystroke_e	e	n/a
198.058	0.1055	396116	keystroke_m	m	n/a
198.418	0.0905	396836	keystroke_b	b	n/a
198.523	0.1345	397046	keystroke_e	e	n/a
198.6435	0.1045	397287	keystroke_r	r	n/a
198.718	0.12	397436	keystroke_Key.space	Key.space	n/a
198.943	0.0755	397886	keystroke_m	m	n/a
199.123	0.06	398246	keystroke_o	o	n/a
199.1985	0.0905	398397	keystroke_d	d	n/a
199.408	0.09	398816	keystroke_e	e	n/a
199.513	0.06	399026	keystroke_l	l	n/a
199.648	0.0905	399296	keystroke_l	l	n/a
199.903	0.1055	399806	keystroke_i	i	n/a
199.9625	0.105	399925	keystroke_n	n	n/a
200.0375	0.12	400075	keystroke_g	g	n/a
200.1125	0.121	400225	keystroke_Key.space	Key.space	n/a
200.308	0.1195	400616	keystroke_r	r	n/a
200.4125	0.1065	400825	keystroke_e	e	n/a
200.593	0.09	401186	keystroke_m	m	n/a
200.7585	0.1045	401517	keystroke_a	a	n/a
200.9225	0.135	401845	keystroke_i	i	n/a
201.028	0.09	402056	keystroke_n	n	n/a
201.3125	0.061	402625	keystroke_d	d	n/a
201.5085	0.1645	403017	keystroke_e	e	n/a
201.658	0.0895	403316	keystroke_r	r	n/a
201.7925	0.105	403585	keystroke_Key.enter	Key.enter	n/a
201.9045	9.0555	403809	prompt	n/a	poems factory language approaches\n
202.558	0.0755	405116	keystroke_p	p	n/a
202.753	0.06	405506	keystroke_o	o	n/a
202.888	0.0905	405776	keystroke_e	e	n/a
203.083	0.075	406166	keystroke_m	m	n/a
203.218	0.105	406436	keystroke_s	s	n/a
203.338	0.105	406676	keystroke_Key.space	Key.space	n/a
203.833	0.0595	407666	keystroke_f	f	n/a
204.073	0.105	408146	keystroke_a	a	n/a
204.3125	0.0755	408625	keystroke_c	c	n/a
204.568	0.0605	409136	keystroke_t	t	n/a
204.7185	0.0895	409437	keystroke_o	o	n/a
204.823	0.0905	409646	keystroke_r	r	n/a
205.1385	0.1045	410277	keystroke_e	e	n/a
205.663	0.0745	411326	keystroke_Key.backspace	Key.backspace	n/a
205.843	0.105	411686	keystroke_y	y	n/a
205.933	0.09	411866	keystroke_Key.space	Key.space	n/a
206.113	0.0905	412226	keystroke_l	l	n/a
206.2035	0.105	412407	keystroke_a	a	n/a
206.368	0.075	412736	keystroke_n	n	n/a
206.518	0.09	413036	keystroke_g	g	n/a
206.803	0.09	413606	keystroke_u	u	n/a
207.0725	0.09	414145	keystroke_a	a	n/a
207.3425	0.075	414685	keystroke_g	g	n/a
207.7785	0.0895	415557	keystroke_e	e	n/a
207.8975	0.12	415795	keystroke_Key.space	Key.space	n/a
208.723	0.12	417446	keystroke_a	a	n/a
208.783	0.09	417566	keystroke_p	p	n/a
208.933	0.1045	417866	keystroke_p	p	n/a
209.068	0.1195	418136	keystroke_r	r	n/a
209.7425	0.105	419485	keystroke_o	o	n/a
210.0135	0.104	420027	keystroke_a	a	n/a
210.2525	0.09	420505	keystroke_c	c	n/a
210.4035	0.0745	420807	keystroke_h	h	n/a
210.538	0.165	421076	keystroke_e	e	n/a
210.688	0.1355	421376	keystroke_s	s	n/a
210.8675	0.0905	421735	keystroke_Key.enter	Key.enter	n/a
210.9645	7.63	421929	prompt	n/a	manuals hitachi belkin rainbow\n
211.5585	0.074	423117	keystroke_m	m	n/a
211.6335	0.104	423267	keystroke_a	a	n/a
211.7525	0.09	423505	keystroke_n	n	n/a
211.963	0.075	423926	keystroke_u	u	n/a
212.068	0.0905	424136	keystroke_a	a	n/a
212.263	0.09	424526	keystroke_l	l	n/a
212.368	0.12	424736	keystroke_s	s	n/a
212.473	0.105	424946	keystroke_Key.space	Key.space	n/a
213.103	0.075	426206	keystroke_h	h	n/a
213.268	0.09	426536	keystroke_i	i	n/a
213.433	0.0755	426866	keystroke_t	t	n/a
213.613	0.105	427226	keystroke_a	a	n/a
213.8685	0.09	427737	keystroke_c	c	n/a
214.0485	0.075	428097	keystroke_h	h	n/a
214.2135	0.09	428427	keystroke_i	i	n/a
214.3185	0.105	428637	keystroke_Key.space	Key.space	n/a
214.588	0.075	429176	keystroke_b	b	n/a
214.693	0.09	429386	keystroke_e	e	n/a
214.843	0.09	429686	keystroke_l	l	n/a
215.218	0.075	430436	keystroke_k	k	n/a
215.443	0.105	430886	keystroke_e	e	n/a
215.8185	0.0595	431637	keystroke_Key.backspace	Key.backspace	n/a
216.133	0.12	432266	keystroke_i	i	n/a
216.238	0.09	432476	keystroke_n	n	n/a
216.403	0.135	432806	keystroke_Key.space	Key.space	n/a
217.213	0.18	434426	keystroke_r	r	n/a
217.558	0.12	435116	keystroke_a	a	n/a
217.7085	0.1195	435417	keystroke_i	i	n/a
217.7835	0.12	435567	keystroke_n	n	n/a
218.068	0.045	436136	keystroke_b	b	n/a
218.2185	0.09	436437	keystroke_o	o	n/a
218.323	0.09	436646	keystroke_w	w	n/a
218.473	0.12	436946	keystroke_Key.enter	Key.enter	n/a
218.598	9.8665	437196	prompt	n/a	industries solve omissions appropriations\n
219.283	0.075	438566	keystroke_i	i	n/a
219.448	0.075	438896	keystroke_n	n	n/a
219.808	0.09	439616	keystroke_d	d	n/a
220.0175	0.06	440035	keystroke_u	u	n/a
220.0935	0.089	440187	keystroke_s	s	n/a
220.483	0.09	440966	keystroke_t	t	n/a
220.558	0.1495	441116	keystroke_r	r	n/a
220.7975	0.0905	441595	keystroke_i	i	n/a
221.0075	0.136	442015	keystroke_e	e	n/a
221.158	0.12	442316	keystroke_s	s	n/a
221.2625	0.0905	442525	keystroke_Key.space	Key.space	n/a
221.593	0.03	443186	keystroke_d	d	n/a
221.833	0.0895	443666	keystroke_o	o	n/a
222.238	0.0745	444476	keystroke_Key.backspace	Key.backspace	n/a
222.358	0.0745	444716	keystroke_Key.backspace	Key.backspace	n/a
222.448	0.12	444896	keystroke_s	s	n/a
222.6285	0.059	445257	keystroke_o	o	n/a
222.7775	0.09	445555	keystroke_l	l	n/a
222.898	0.0895	445796	keystroke_v	v	n/a
223.183	0.1205	446366	keystroke_e	e	n/a
223.2725	0.135	446545	keystroke_Key.space	Key.space	n/a
223.7675	0.0755	447535	keystroke_o	o	n/a
224.0375	0.06	448075	keystroke_m	m	n/a
224.203	0.0745	448406	keystroke_i	i	n/a
224.263	0.0595	448526	keystroke_s	s	n/a
224.413	0.075	448826	keystroke_s	s	n/a
224.5035	0.075	449007	keystroke_i	i	n/a
224.7125	0.0605	449425	keystroke_o	o	n/a
224.7885	0.0745	449577	keystroke_n	n	n/a
224.893	0.1355	449786	keystroke_s	s	n/a
225.013	0.09	450026	keystroke_Key.space	Key.space	n/a
225.3425	0.0755	450685	keystroke_a	a	n/a
225.4625	0.06	450925	keystroke_p	p	n/a
225.5825	0.075	451165	keystroke_p	p	n/a
225.703	0.1195	451406	keystroke_r	r	n/a
225.8375	0.075	451675	keystroke_o	o	n/a
226.108	0.0755	452216	keystroke_p	p	n/a
226.603	0.0755	453206	keystroke_i	i	n/a
226.978	0.0445	453956	keystroke_Key.backspace	Key.backspace	n/a
227.0825	0.105	454165	keystroke_r	r	n/a
227.2625	0.076	454525	keystroke_i	i	n/a
227.3985	0.0895	454797	keystroke_a	a	n/a
227.623	0.09	455246	keystroke_t	t	n/a
227.7435	0.0745	455487	keystroke_i	i	n/a
227.938	0.12	455876	keystroke_o	o	n/a
228.028	0.09	456056	keystroke_n	n	n/a
228.148	0.1055	456296	keystroke_s	s	n/a
228.373	0.09	456746	keystroke_Key.enter	Key.enter	n/a
228.471	6.264	456942	prompt	n/a	clearance pull quiet airlines\n
229.1985	0.0895	458397	keystroke_c	c	n/a
229.318	0.1045	458636	keystroke_l	l	n/a
229.4525	0.135	458905	keystroke_e	e	n/a
229.5725	0.09	459145	keystroke_a	a	n/a
229.7075	0.1205	459415	keystroke_r	r	n/a
230.0535	0.1345	460107	keystroke_a	a	n/a
230.203	0.12	460406	keystroke_n	n	n/a
230.3525	0.0905	460705	keystroke_c	c	n/a
230.5775	0.0905	461155	keystroke_e	e	n/a
230.623	0.1195	461246	keystroke_Key.space	Key.space	n/a
230.803	0.075	461606	keystroke_p	p	n/a
231.043	0.045	462086	keystroke_u	u	n/a
231.2685	0.06	462537	keystroke_l	l	n/a
231.387	0.076	462774	keystroke_l	l	n/a
231.4475	0.0905	462895	keystroke_Key.space	Key.space	n/a
231.973	0.0455	463946	keystroke_q	q	n/a
232.0485	0.0895	464097	keystroke_u	u	n/a
232.258	0.09	464516	keystroke_i	i	n/a
232.378	0.105	464756	keystroke_e	e	n/a
232.603	0.105	465206	keystroke_t	t	n/a
232.693	0.09	465386	keystroke_Key.space	Key.space	n/a
232.9485	0.044	465897	keystroke_e	e	n/a
233.323	0.075	466646	keystroke_Key.backspace	Key.backspace	n/a
233.4275	0.105	466855	keystroke_a	a	n/a
233.5925	0.075	467185	keystroke_i	i	n/a
233.7125	0.105	467425	keystroke_r	r	n/a
233.923	0.0745	467846	keystroke_l	l	n/a
234.178	0.104	468356	keystroke_i	i	n/a
234.238	0.105	468476	keystroke_n	n	n/a
234.358	0.135	468716	keystroke_e	e	n/a
234.478	0.135	468956	keystroke_s	s	n/a
234.673	0.06	469346	keystroke_Key.enter	Key.enter	n/a
234.739	5.876	469478	prompt	n/a	plots venture consumer plays\n
235.363	0.075	470726	keystroke_p	p	n/a
235.588	0.12	471176	keystroke_l	l	n/a
236.083	0.105	472166	keystroke_o	o	n/a
236.233	0.12	472466	keystroke_t	t	n/a
236.413	0.12	472826	keystroke_s	s	n/a
236.488	0.135	472976	keystroke_Key.space	Key.space	n/a
237.133	0.075	474266	keystroke_v	v	n/a
237.313	0.09	474626	keystroke_e	e	n/a
237.418	0.074	474836	keystroke_n	n	n/a
237.568	0.09	475136	keystroke_t	t	n/a
237.733	0.09	475466	keystroke_u	u	n/a
237.852	0.121	475704	keystroke_r	r	n/a
237.958	0.135	475916	keystroke_e	e	n/a
238.078	0.09	476156	keystroke_Key.space	Key.space	n/a
238.393	0.0895	476786	keystroke_c	c	n/a
238.483	0.0595	476966	keystroke_o	o	n/a
238.6485	0.0595	477297	keystroke_n	n	n/a
238.7535	0.0895	477507	keystroke_s	s	n/a
238.872	0.09	477744	keystroke_u	u	n/a
239.113	0.0905	478226	keystroke_m	m	n/a
239.2625	0.0745	478525	keystroke_e	e	n/a
239.323	0.135	478646	keystroke_r	r	n/a
239.427	0.105	478854	keystroke_Key.space	Key.space	n/a
239.623	0.1355	479246	keystroke_p	p	n/a
239.7275	0.0905	479455	keystroke_l	l	n/a
239.8185	0.104	479637	keystroke_a	a	n/a
240.148	0.09	480296	keystroke_y	y	n/a
240.313	0.1195	480626	keystroke_s	s	n/a
240.5225	0.09	481045	keystroke_Key.enter	Key.enter	n/a
240.6195	6.5355	481239	prompt	n/a	mounting announce descriptions logical\n
241.258	0.075	482516	keystroke_m	m	n/a
241.438	0.075	482876	keystroke_o	o	n/a
241.648	0.0905	483296	keystroke_u	u	n/a
241.7085	0.0895	483417	keystroke_n	n	n/a
241.8135	0.0895	483627	keystroke_t	t	n/a
241.947	0.106	483894	keystroke_i	i	n/a
242.023	0.09	484046	keystroke_n	n	n/a
242.128	0.12	484256	keystroke_g	g	n/a
242.188	0.135	484376	keystroke_Key.space	Key.space	n/a
242.4575	0.09	484915	keystroke_a	a	n/a
242.5925	0.06	485185	keystroke_n	n	n/a
242.7125	0.0905	485425	keystroke_n	n	n/a
242.9225	0.0605	485845	keystroke_o	o	n/a
243.148	0.0905	486296	keystroke_u	u	n/a
243.1935	0.119	486387	keystroke_n	n	n/a
243.3275	0.09	486655	keystroke_c	c	n/a
243.5375	0.09	487075	keystroke_e	e	n/a
243.5825	0.1355	487165	keystroke_Key.space	Key.space	n/a
244.0485	0.1045	488097	keystroke_d	d	n/a
244.258	0.12	488516	keystroke_e	e	n/a
244.363	0.09	488726	keystroke_s	s	n/a
244.573	0.09	489146	keystroke_c	c	n/a
244.768	0.105	489536	keystroke_r	r	n/a
244.9035	0.0595	489807	keystroke_i	i	n/a
245.098	0.0895	490196	keystroke_p	p	n/a
245.248	0.0745	490496	keystroke_t	t	n/a
245.353	0.0895	490706	keystroke_i	i	n/a
245.563	0.135	491126	keystroke_o	o	n/a
245.6825	0.0605	491365	keystroke_n	n	n/a
245.7725	0.1205	491545	keystroke_s	s	n/a
245.863	0.1045	491726	keystroke_Key.space	Key.space	n/a
246.0575	0.0605	492115	keystroke_l	l	n/a
246.223	0.0595	492446	keystroke_o	o	n/a
246.3135	0.089	492627	keystroke_g	g	n/a
246.448	0.09	492896	keystroke_i	i	n/a
246.5985	0.0895	493197	keystroke_c	c	n/a
246.748	0.1205	493496	keystroke_a	a	n/a
246.853	0.09	493706	keystroke_l	l	n/a
247.033	0.12	494066	keystroke_Key.enter	Key.enter	n/a
247.1595	5.2	494319	prompt	n/a	scary vista carlos becomes\n
247.933	0.105	495866	keystroke_s	s	n/a
248.143	0.09	496286	keystroke_c	c	n/a
248.2785	0.09	496557	keystroke_a	a	n/a
248.473	0.0755	496946	keystroke_r	r	n/a
248.593	0.059	497186	keystroke_y	y	n/a
248.6535	0.1045	497307	keystroke_Key.space	Key.space	n/a
249.043	0.12	498086	keystroke_v	v	n/a
249.238	0.105	498476	keystroke_i	i	n/a
249.328	0.105	498656	keystroke_s	s	n/a
249.613	0.105	499226	keystroke_t	t	n/a
249.763	0.12	499526	keystroke_a	a	n/a
249.898	0.105	499796	keystroke_Key.space	Key.space	n/a
250.213	0.075	500426	keystroke_c	c	n/a
250.393	0.09	500786	keystroke_a	a	n/a
250.558	0.09	501116	keystroke_r	r	n/a
250.723	0.09	501446	keystroke_l	l	n/a
250.918	0.0605	501836	keystroke_o	o	n/a
250.963	0.1045	501926	keystroke_s	s	n/a
251.052	0.121	502104	keystroke_Key.space	Key.space	n/a
251.293	0.06	502586	keystroke_b	b	n/a
251.3685	0.0895	502737	keystroke_e	e	n/a
251.608	0.1055	503216	keystroke_c	c	n/a
251.743	0.1195	503486	keystroke_o	o	n/a
251.833	0.09	503666	keystroke_m	m	n/a
251.9525	0.1505	503905	keystroke_e	e	n/a
252.0875	0.1355	504175	keystroke_s	s	n/a
252.268	0.09	504536	keystroke_Key.enter	Key.enter	n/a
252.3645	6.505	504729	prompt	n/a	markets olympus spank everyone\n
252.973	0.074	505946	keystroke_m	m	n/a
253.033	0.075	506066	keystroke_a	a	n/a
253.183	0.1055	506366	keystroke_r	r	n/a
253.272	0.0915	506544	keystroke_k	k	n/a
253.3775	0.091	506755	keystroke_e	e	n/a
253.6025	0.075	507205	keystroke_t	t	n/a
253.693	0.1045	507386	keystroke_s	s	n/a
253.7675	0.105	507535	keystroke_Key.space	Key.space	n/a
254.0675	0.075	508135	keystroke_o	o	n/a
254.353	0.0745	508706	keystroke_l	l	n/a
254.743	0.0605	509486	keystroke_y	y	n/a
255.493	0.0595	510986	keystroke_m	m	n/a
255.823	0.075	511646	keystroke_p	p	n/a
256.0775	0.09	512155	keystroke_u	u	n/a
256.183	0.09	512366	keystroke_s	s	n/a
256.2275	0.1205	512455	keystroke_Key.space	Key.space	n/a
256.5275	0.09	513055	keystroke_s	s	n/a
256.6325	0.09	513265	keystroke_p	p	n/a
256.783	0.0895	513566	keystroke_a	a	n/a
256.948	0.074	513896	keystroke_n	n	n/a
257.128	0.09	514256	keystroke_k	k	n/a
257.2325	0.105	514465	keystroke_Key.space	Key.space	n/a
257.383	0.0895	514766	keystroke_e	e	n/a
257.593	0.09	515186	keystroke_v	v	n/a
257.788	0.105	515576	keystroke_e	e	n/a
257.863	0.105	515726	keystroke_r	r	n/a
258.028	0.075	516056	keystroke_y	y	n/a
258.313	0.15	516626	keystroke_o	o	n/a
258.448	0.0905	516896	keystroke_n	n	n/a
258.568	0.105	517136	keystroke_e	e	n/a
258.763	0.1045	517526	keystroke_Key.enter	Key.enter	n/a
258.8735	7.556	517747	prompt	n/a	champion carolina ignore optimal\n
259.543	0.1195	519086	keystroke_c	c	n/a
259.6775	0.075	519355	keystroke_h	h	n/a
259.7675	0.09	519535	keystroke_a	a	n/a
259.9335	0.074	519867	keystroke_m	m	n/a
260.143	0.0745	520286	keystroke_p	p	n/a
260.443	0.09	520886	keystroke_i	i	n/a
260.968	0.075	521936	keystroke_o	o	n/a
261.163	0.075	522326	keystroke_n	n	n/a
261.253	0.1045	522506	keystroke_Key.space	Key.space	n/a
261.478	0.1045	522956	keystroke_c	c	n/a
261.613	0.105	523226	keystroke_a	a	n/a
261.808	0.09	523616	keystroke_r	r	n/a
261.9275	0.0905	523855	keystroke_o	o	n/a
262.1375	0.0755	524275	keystroke_l	l	n/a
262.4225	0.09	524845	keystroke_i	i	n/a
262.4985	0.104	524997	keystroke_n	n	n/a
262.6485	0.119	525297	keystroke_a	a	n/a
262.7525	0.1055	525505	keystroke_Key.space	Key.space	n/a
263.008	0.0745	526016	keystroke_i	i	n/a
263.1725	0.0755	526345	keystroke_r	r	n/a
263.4425	0.045	526885	keystroke_g	g	n/a
263.7125	0.0905	527425	keystroke_Key.backspace	Key.backspace	n/a
263.8475	0.0605	527695	keystroke_Key.backspace	Key.backspace	n/a
263.938	0.0895	527876	keystroke_g	g	n/a
264.1025	0.075	528205	keystroke_n	n	n/a
264.2825	0.076	528565	keystroke_o	o	n/a
264.3885	0.1195	528777	keystroke_r	r	n/a
264.5525	0.1205	529105	keystroke_e	e	n/a
264.658	0.12	529316	keystroke_Key.space	Key.space	n/a
265.0025	0.0755	530005	keystroke_o	o	n/a
265.198	0.075	530396	keystroke_p	p	n/a
265.318	0.075	530636	keystroke_t	t	n/a
265.498	0.075	530996	keystroke_i	i	n/a
265.753	0.075	531506	keystroke_m	m	n/a
265.978	0.0755	531956	keystroke_a	a	n/a
266.083	0.09	532166	keystroke_l	l	n/a
266.323	0.105	532646	keystroke_Key.enter	Key.enter	n/a
266.4335	9.371	532867	prompt	n/a	restriction concluded bunch parliamentary\n
267.0885	0.12	534177	keystroke_r	r	n/a
267.1785	0.149	534357	keystroke_e	e	n/a
267.313	0.09	534626	keystroke_s	s	n/a
267.478	0.12	534956	keystroke_t	t	n/a
267.583	0.135	535166	keystroke_r	r	n/a
267.778	0.0905	535556	keystroke_i	i	n/a
267.898	0.105	535796	keystroke_c	c	n/a
268.153	0.0745	536306	keystroke_t	t	n/a
268.258	0.0445	536516	keystroke_i	i	n/a
268.423	0.09	536846	keystroke_o	o	n/a
268.513	0.075	537026	keystroke_n	n	n/a
268.5725	0.0905	537145	keystroke_Key.space	Key.space	n/a
268.858	0.105	537716	keystroke_o	o	n/a
269.218	0.06	538436	keystroke_Key.backspace	Key.backspace	n/a
269.338	0.09	538676	keystroke_c	c	n/a
269.533	0.09	539066	keystroke_o	o	n/a
269.608	0.075	539216	keystroke_n	n	n/a
269.7875	0.0905	539575	keystroke_c	c	n/a
269.9385	0.0745	539877	keystroke_l	l	n/a
270.1925	0.075	540385	keystroke_u	u	n/a
270.3135	0.1045	540627	keystroke_d	d	n/a
270.5835	0.0745	541167	keystroke_e	e	n/a
270.8085	0.1045	541617	keystroke_d	d	n/a
270.898	0.1195	541796	keystroke_Key.space	Key.space	n/a
271.183	0.0745	542366	keystroke_b	b	n/a
271.3775	0.0905	542755	keystroke_u	u	n/a
271.6335	0.105	543267	keystroke_n	n	n/a
271.753	0.105	543506	keystroke_c	c	n/a
271.888	0.075	543776	keystroke_h	h	n/a
271.978	0.1045	543956	keystroke_Key.space	Key.space	n/a
272.2475	0.09	544495	keystroke_p	p	n/a
272.3975	0.091	544795	keystroke_a	a	n/a
272.938	0.105	545876	keystroke_r	r	n/a
273.328	0.09	546656	keystroke_l	l	n/a
273.553	0.075	547106	keystroke_i	i	n/a
273.6875	0.09	547375	keystroke_a	a	n/a
273.8375	0.076	547675	keystroke_m	m	n/a
274.018	0.09	548036	keystroke_e	e	n/a
274.138	0.09	548276	keystroke_n	n	n/a
274.3925	0.0905	548785	keystroke_t	t	n/a
274.603	0.09	549206	keystroke_a	a	n/a
274.738	0.105	549476	keystroke_r	r	n/a
275.098	0.0745	550196	keystroke_y	y	n/a
275.2175	0.1355	550435	keystroke_Key.space	Key.space	n/a
275.533	0.0745	551066	keystroke_Key.backspace	Key.backspace	n/a
275.728	0.0745	551456	keystroke_Key.enter	Key.enter	n/a
275.808	6.6565	551616	prompt	n/a	unexpected shades midi connect\n
276.568	0.135	553136	keystroke_u	u	n/a
276.673	0.105	553346	keystroke_n	n	n/a
276.898	0.075	553796	keystroke_e	e	n/a
277.1525	0.0905	554305	keystroke_x	x	n/a
277.333	0.105	554666	keystroke_p	p	n/a
277.468	0.075	554936	keystroke_e	e	n/a
277.7825	0.1055	555565	keystroke_c	c	n/a
278.098	0.09	556196	keystroke_t	t	n/a
278.248	0.09	556496	keystroke_e	e	n/a
278.473	0.1045	556946	keystroke_d	d	n/a
278.5785	0.089	557157	keystroke_Key.space	Key.space	n/a
279.1775	0.1205	558355	keystroke_s	s	n/a
279.3285	0.104	558657	keystroke_h	h	n/a
279.4475	0.075	558895	keystroke_a	a	n/a
279.7175	0.09	559435	keystroke_d	d	n/a
279.9575	0.1205	559915	keystroke_e	e	n/a
280.0625	0.12	560125	keystroke_s	s	n/a
280.1525	0.1345	560305	keystroke_Key.space	Key.space	n/a
280.332	0.076	560664	keystroke_m	m	n/a
280.498	0.0745	560996	keystroke_i	i	n/a
280.648	0.1045	561296	keystroke_d	d	n/a
280.858	0.06	561716	keystroke_i	i	n/a
280.9635	0.119	561927	keystroke_Key.space	Key.space	n/a
281.3225	0.09	562645	keystroke_c	c	n/a
281.3975	0.06	562795	keystroke_o	o	n/a
281.5625	0.0605	563125	keystroke_n	n	n/a
281.6825	0.0605	563365	keystroke_n	n	n/a
281.7725	0.0905	563545	keystroke_e	e	n/a
281.9825	0.09	563965	keystroke_c	c	n/a
282.2525	0.075	564505	keystroke_t	t	n/a
282.3725	0.09	564745	keystroke_Key.enter	Key.enter	n/a
282.4695	7.5105	564939	prompt	n/a	bare powered biodiversity academic\n
283.153	0.0895	566306	keystroke_a	a	n/a
283.4825	0.075	566965	keystroke_Key.backspace	Key.backspace	n/a
283.7375	0.09	567475	keystroke_b	b	n/a
283.8425	0.075	567685	keystroke_a	a	n/a
283.993	0.1345	567986	keystroke_r	r	n/a
284.098	0.12	568196	keystroke_e	e	n/a
284.1725	0.105	568345	keystroke_Key.space	Key.space	n/a
284.3375	0.06	568675	keystroke_p	p	n/a
284.5025	0.09	569005	keystroke_o	o	n/a
284.608	0.09	569216	keystroke_w	w	n/a
285.0275	0.0905	570055	keystroke_e	e	n/a
285.2385	0.0895	570477	keystroke_r	r	n/a
285.433	0.089	570866	keystroke_e	e	n/a
285.673	0.1055	571346	keystroke_d	d	n/a
285.838	0.105	571676	keystroke_Key.space	Key.space	n/a
286.1975	0.09	572395	keystroke_b	b	n/a
286.4075	0.075	572815	keystroke_i	i	n/a
286.603	0.075	573206	keystroke_o	o	n/a
286.798	0.09	573596	keystroke_d	d	n/a
286.9325	0.0905	573865	keystroke_i	i	n/a
287.083	0.09	574166	keystroke_v	v	n/a
287.323	0.105	574646	keystroke_e	e	n/a
287.3825	0.1205	574765	keystroke_r	r	n/a
287.593	0.09	575186	keystroke_s	s	n/a
287.7135	0.0895	575427	keystroke_i	i	n/a
287.848	0.06	575696	keystroke_t	t	n/a
288.058	0.09	576116	keystroke_y	y	n/a
288.149	0.089	576298	keystroke_Key.space	Key.space	n/a
288.358	0.09	576716	keystroke_a	a	n/a
288.5525	0.09	577105	keystroke_c	c	n/a
288.7475	0.1055	577495	keystroke_a	a	n/a
289.033	0.09	578066	keystroke_d	d	n/a
289.258	0.075	578516	keystroke_e	e	n/a
289.393	0.075	578786	keystroke_m	m	n/a
289.558	0.09	579116	keystroke_i	i	n/a
289.693	0.09	579386	keystroke_c	c	n/a
289.888	0.09	579776	keystroke_Key.enter	Key.enter	n/a
289.984	12.1455	579968	prompt	n/a	physicians tourist pontiac disabilities\n
290.5625	0.09	581125	keystroke_p	p	n/a
290.8025	0.0755	581605	keystroke_h	h	n/a
290.937	0.091	581874	keystroke_y	y	n/a
291.058	0.089	582116	keystroke_s	s	n/a
291.313	0.09	582626	keystroke_i	i	n/a
292.408	0.0745	584816	keystroke_c	c	n/a
292.527	0.076	585054	keystroke_i	i	n/a
292.677	0.106	585354	keystroke_a	a	n/a
292.798	0.09	585596	keystroke_n	n	n/a
292.917	0.106	585834	keystroke_s	s	n/a
293.007	0.09	586014	keystroke_Key.space	Key.space	n/a
293.412	0.076	586824	keystroke_t	t	n/a
293.488	0.074	586976	keystroke_o	o	n/a
293.6985	0.0595	587397	keystroke_u	u	n/a
293.758	0.09	587516	keystroke_r	r	n/a
293.938	0.075	587876	keystroke_i	i	n/a
294.042	0.106	588084	keystroke_s	s	n/a
294.2525	0.09	588505	keystroke_t	t	n/a
294.3125	0.105	588625	keystroke_Key.space	Key.space	n/a
294.5225	0.0755	589045	keystroke_p	p	n/a
294.7775	0.06	589555	keystroke_n	n	n/a
295.0475	0.0755	590095	keystroke_t	t	n/a
295.168	0.09	590336	keystroke_i	i	n/a
295.468	0.0595	590936	keystroke_a	a	n/a
295.7975	0.0605	591595	keystroke_Key.backspace	Key.backspace	n/a
295.918	0.075	591836	keystroke_Key.backspace	Key.backspace	n/a
296.068	0.06	592136	keystroke_Key.backspace	Key.backspace	n/a
296.173	0.06	592346	keystroke_Key.backspace	Key.backspace	n/a
296.413	0.09	592826	keystroke_o	o	n/a
296.593	0.075	593186	keystroke_n	n	n/a
296.833	0.075	593666	keystroke_t	t	n/a
297.0125	0.0745	594025	keystroke_i	i	n/a
297.117	0.0755	594234	keystroke_a	a	n/a
297.658	0.1195	595316	keystroke_Key.space	Key.space	n/a
298.063	0.0745	596126	keystroke_Key.backspace	Key.backspace	n/a
298.198	0.0745	596396	keystroke_Key.backspace	Key.backspace	n/a
298.318	0.12	596636	keystroke_c	c	n/a
298.678	0.06	597356	keystroke_Key.backspace	Key.backspace	n/a
298.873	0.105	597746	keystroke_a	a	n/a
299.053	0.105	598106	keystroke_c	c	n/a
299.233	0.105	598466	keystroke_Key.space	Key.space	n/a
299.503	0.12	599006	keystroke_d	d	n/a
299.7435	0.074	599487	keystroke_i	i	n/a
299.848	0.0895	599696	keystroke_s	s	n/a
300.0425	0.0905	600085	keystroke_a	a	n/a
300.178	0.075	600356	keystroke_b	b	n/a
300.373	0.09	600746	keystroke_i	i	n/a
300.583	0.074	601166	keystroke_l	l	n/a
300.762	0.09	601524	keystroke_i	i	n/a
300.928	0.09	601856	keystroke_t	t	n/a
301.063	0.0895	602126	keystroke_i	i	n/a
301.213	0.15	602426	keystroke_e	e	n/a
301.378	0.12	602756	keystroke_s	s	n/a
301.543	0.12	603086	keystroke_Key.space	Key.space	n/a
301.8575	0.0605	603715	keystroke_Key.backspace	Key.backspace	n/a
302.038	0.0895	604076	keystroke_Key.enter	Key.enter	n/a
302.1345	8.29	604269	prompt	n/a	idea lady emily annotation\n
302.8185	0.0745	605637	keystroke_i	i	n/a
302.983	0.09	605966	keystroke_d	d	n/a
303.193	0.0895	606386	keystroke_e	e	n/a
303.298	0.089	606596	keystroke_a	a	n/a
303.357	0.0905	606714	keystroke_Key.space	Key.space	n/a
303.523	0.105	607046	keystroke_l	l	n/a
303.643	0.09	607286	keystroke_a	a	n/a
303.763	0.1205	607526	keystroke_d	d	n/a
303.9875	0.0595	607975	keystroke_y	y	n/a
304.062	0.09	608124	keystroke_Key.space	Key.space	n/a
304.198	0.105	608396	keystroke_e	e	n/a
304.317	0.061	608634	keystroke_m	m	n/a
304.4685	0.1045	608937	keystroke_i	i	n/a
304.738	0.21	609476	keystroke_l	l	n/a
305.008	0.0745	610016	keystroke_y	y	n/a
305.143	0.12	610286	keystroke_Key.space	Key.space	n/a
305.548	0.0145	611096	keystroke_a	a	n/a
305.608	0.0605	611216	keystroke_a	a	n/a
305.698	0.06	611396	keystroke_n	n	n/a
305.8175	0.09	611635	keystroke_n	n	n/a
305.9825	0.0755	611965	keystroke_o	o	n/a
306.1025	0.0905	612205	keystroke_t	t	n/a
306.237	0.106	612474	keystroke_a	a	n/a
306.3575	0.0905	612715	keystroke_t	t	n/a
306.478	0.0745	612956	keystroke_i	i	n/a
306.6875	0.1205	613375	keystroke_o	o	n/a
306.778	0.09	613556	keystroke_n	n	n/a
307.3775	0.075	614755	keystroke_Key.backspace	Key.backspace	n/a
307.5125	0.06	615025	keystroke_Key.backspace	Key.backspace	n/a
307.663	0.06	615326	keystroke_Key.backspace	Key.backspace	n/a
307.798	0.0595	615596	keystroke_Key.backspace	Key.backspace	n/a
307.9475	0.045	615895	keystroke_Key.backspace	Key.backspace	n/a
308.0675	0.075	616135	keystroke_Key.backspace	Key.backspace	n/a
308.2175	0.075	616435	keystroke_Key.backspace	Key.backspace	n/a
308.3675	0.075	616735	keystroke_Key.backspace	Key.backspace	n/a
308.532	0.061	617064	keystroke_Key.backspace	Key.backspace	n/a
308.668	0.059	617336	keystroke_Key.backspace	Key.backspace	n/a
308.968	0.03	617936	keystroke_n	n	n/a
309.0725	0.061	618145	keystroke_n	n	n/a
309.238	0.0895	618476	keystroke_o	o	n/a
309.4175	0.0755	618835	keystroke_t	t	n/a
309.5375	0.151	619075	keystroke_a	a	n/a
309.7035	0.0745	619407	keystroke_t	t	n/a
309.8085	0.059	619617	keystroke_i	i	n/a
310.0035	0.104	620007	keystroke_o	o	n/a
310.078	0.09	620156	keystroke_n	n	n/a
310.333	0.09	620666	keystroke_Key.enter	Key.enter	n/a
310.4315	8.379	620863	prompt	n/a	sensitivity border conscious construct\n
311.083	0.0745	622166	keystroke_s	s	n/a
311.248	0.1195	622496	keystroke_e	e	n/a
311.398	0.0895	622796	keystroke_n	n	n/a
311.7875	0.075	623575	keystroke_Key.backspace	Key.backspace	n/a
312.1775	0.075	624355	keystroke_n	n	n/a
312.3575	0.105	624715	keystroke_s	s	n/a
312.5375	0.076	625075	keystroke_i	i	n/a
312.7485	0.074	625497	keystroke_t	t	n/a
312.868	0.075	625736	keystroke_i	i	n/a
313.3185	0.1195	626637	keystroke_v	v	n/a
313.5425	0.075	627085	keystroke_i	i	n/a
313.7525	0.06	627505	keystroke_t	t	n/a
313.933	0.09	627866	keystroke_y	y	n/a
314.008	0.105	628016	keystroke_Key.space	Key.space	n/a
314.533	0.06	629066	keystroke_b	b	n/a
314.728	0.09	629456	keystroke_o	o	n/a
314.833	0.09	629666	keystroke_r	r	n/a
315.073	0.09	630146	keystroke_d	d	n/a
315.208	0.15	630416	keystroke_e	e	n/a
315.388	0.105	630776	keystroke_r	r	n/a
315.508	0.105	631016	keystroke_Key.space	Key.space	n/a
315.868	0.1045	631736	keystroke_c	c	n/a
316.0025	0.1055	632005	keystroke_o	o	n/a
316.092	0.076	632184	keystroke_n	n	n/a
316.212	0.076	632424	keystroke_s	s	n/a
316.393	0.105	632786	keystroke_c	c	n/a
316.528	0.075	633056	keystroke_i	i	n/a
316.738	0.0595	633476	keystroke_o	o	n/a
316.9325	0.09	633865	keystroke_u	u	n/a
317.0235	0.0895	634047	keystroke_s	s	n/a
317.0825	0.1205	634165	keystroke_Key.space	Key.space	n/a
317.3235	0.0895	634647	keystroke_c	c	n/a
317.428	0.09	634856	keystroke_o	o	n/a
317.503	0.075	635006	keystroke_n	n	n/a
317.608	0.1355	635216	keystroke_s	s	n/a
317.863	0.105	635726	keystroke_t	t	n/a
317.953	0.119	635906	keystroke_r	r	n/a
318.178	0.074	636356	keystroke_u	u	n/a
318.283	0.089	636566	keystroke_c	c	n/a
318.5225	0.1055	637045	keystroke_t	t	n/a
318.718	0.09	637436	keystroke_Key.enter	Key.enter	n/a
318.819	7.2805	637638	prompt	n/a	forming ribbon fist churches\n
319.3775	0.0905	638755	keystroke_f	f	n/a
319.498	0.09	638996	keystroke_o	o	n/a
319.6025	0.0755	639205	keystroke_r	r	n/a
319.693	0.0895	639386	keystroke_m	m	n/a
319.9175	0.1045	639835	keystroke_i	i	n/a
319.9925	0.0905	639985	keystroke_n	n	n/a
320.068	0.09	640136	keystroke_g	g	n/a
320.127	0.105	640254	keystroke_Key.space	Key.space	n/a
320.743	0.075	641486	keystroke_r	r	n/a
320.8325	0.0595	641665	keystroke_i	i	n/a
320.998	0.074	641996	keystroke_b	b	n/a
321.1185	0.0745	642237	keystroke_b	b	n/a
321.343	0.15	642686	keystroke_o	o	n/a
321.4635	0.089	642927	keystroke_n	n	n/a
321.538	0.105	643076	keystroke_Key.space	Key.space	n/a
321.718	0.0895	643436	keystroke_f	f	n/a
321.8375	0.09	643675	keystroke_i	i	n/a
322.3175	0.0755	644635	keystroke_s	s	n/a
322.4975	0.0905	644995	keystroke_t	t	n/a
322.558	0.09	645116	keystroke_Key.space	Key.space	n/a
322.918	0.0895	645836	keystroke_c	c	n/a
323.068	0.09	646136	keystroke_u	u	n/a
323.263	0.075	646526	keystroke_r	r	n/a
324.0125	0.0755	648025	keystroke_Key.backspace	Key.backspace	n/a
324.148	0.0745	648296	keystroke_Key.backspace	Key.backspace	n/a
324.4025	0.09	648805	keystroke_h	h	n/a
324.538	0.1045	649076	keystroke_u	u	n/a
324.808	0.0745	649616	keystroke_r	r	n/a
325.2125	0.1205	650425	keystroke_c	c	n/a
325.3925	0.0905	650785	keystroke_h	h	n/a
325.618	0.12	651236	keystroke_e	e	n/a
325.753	0.1355	651506	keystroke_s	s	n/a
325.9925	0.1055	651985	keystroke_Key.enter	Key.enter	n/a
326.1035	10.556	652207	prompt	n/a	optics sustainability disk shadow\n
326.773	0.09	653546	keystroke_o	o	n/a
326.9975	0.075	653995	keystroke_p	p	n/a
327.148	0.0745	654296	keystroke_t	t	n/a
327.358	0.075	654716	keystroke_i	i	n/a
327.508	0.09	655016	keystroke_c	c	n/a
327.6875	0.1055	655375	keystroke_s	s	n/a
327.7775	0.09	655555	keystroke_Key.space	Key.space	n/a
328.603	0.09	657206	keystroke_s	s	n/a
328.7975	0.09	657595	keystroke_i	i	n/a
328.963	0.0895	657926	keystroke_s	s	n/a
329.413	0.0745	658826	keystroke_Key.backspace	Key.backspace	n/a
329.5625	0.045	659125	keystroke_Key.backspace	Key.backspace	n/a
329.863	0.0455	659726	keystroke_u	u	n/a
329.9375	0.1055	659875	keystroke_s	s	n/a
330.298	0.09	660596	keystroke_t	t	n/a
330.553	0.1195	661106	keystroke_a	a	n/a
330.703	0.135	661406	keystroke_i	i	n/a
330.8075	0.075	661615	keystroke_n	n	n/a
330.9125	0.1205	661825	keystroke_a	a	n/a
331.108	0.06	662216	keystroke_b	b	n/a
331.423	0.075	662846	keystroke_i	i	n/a
331.678	0.09	663356	keystroke_l	l	n/a
332.188	0.0745	664376	keystroke_i	i	n/a
332.458	0.075	664916	keystroke_t	t	n/a
332.668	0.09	665336	keystroke_y	y	n/a
332.743	0.09	665486	keystroke_Key.space	Key.space	n/a
333.373	0.075	666746	keystroke_s	s	n/a
333.688	0.0745	667376	keystroke_Key.backspace	Key.backspace	n/a
333.7775	0.105	667555	keystroke_d	d	n/a
333.9885	0.0745	667977	keystroke_i	i	n/a
334.1075	0.1055	668215	keystroke_s	s	n/a
334.2725	0.0755	668545	keystroke_k	k	n/a
334.3775	0.09	668755	keystroke_Key.space	Key.space	n/a
334.6775	0.12	669355	keystroke_d	d	n/a
335.3225	0.0605	670645	keystroke_Key.backspace	Key.backspace	n/a
335.413	0.119	670826	keystroke_s	s	n/a
335.608	0.075	671216	keystroke_h	h	n/a
335.697	0.076	671394	keystroke_a	a	n/a
336.043	0.09	672086	keystroke_d	d	n/a
336.208	0.089	672416	keystroke_o	o	n/a
336.4035	0.0745	672807	keystroke_w	w	n/a
336.553	0.104	673106	keystroke_Key.enter	Key.enter	n/a
336.6635	8.741	673327	prompt	n/a	success repository bloom spectacular\n
337.318	0.105	674636	keystroke_s	s	n/a
337.468	0.105	674936	keystroke_u	u	n/a
337.633	0.06	675266	keystroke_c	c	n/a
337.753	0.0905	675506	keystroke_c	c	n/a
337.9925	0.0745	675985	keystroke_e	e	n/a
338.172	0.091	676344	keystroke_s	s	n/a
338.308	0.105	676616	keystroke_s	s	n/a
338.4275	0.1055	676855	keystroke_Key.space	Key.space	n/a
338.6085	0.12	677217	keystroke_r	r	n/a
338.7285	0.12	677457	keystroke_e	e	n/a
339.147	0.075	678294	keystroke_p	p	n/a
339.372	0.076	678744	keystroke_o	o	n/a
339.5225	0.106	679045	keystroke_s	s	n/a
339.763	0.074	679526	keystroke_i	i	n/a
339.957	0.0605	679914	keystroke_t	t	n/a
340.378	0.1045	680756	keystroke_o	o	n/a
340.5735	0.09	681147	keystroke_r	r	n/a
340.888	0.104	681776	keystroke_Key.space	Key.space	n/a
341.2475	0.075	682495	keystroke_Key.backspace	Key.backspace	n/a
341.3975	0.1055	682795	keystroke_y	y	n/a
341.488	0.105	682976	keystroke_Key.space	Key.space	n/a
341.728	0.06	683456	keystroke_b	b	n/a
341.968	0.075	683936	keystroke_l	l	n/a
342.148	0.06	684296	keystroke_o	o	n/a
342.268	0.105	684536	keystroke_o	o	n/a
342.478	0.075	684956	keystroke_m	m	n/a
342.538	0.15	685076	keystroke_Key.space	Key.space	n/a
342.733	0.105	685466	keystroke_s	s	n/a
342.8525	0.09	685705	keystroke_p	p	n/a
343.048	0.0595	686096	keystroke_e	e	n/a
343.288	0.105	686576	keystroke_c	c	n/a
343.618	0.06	687236	keystroke_t	t	n/a
343.708	0.135	687416	keystroke_a	a	n/a
344.0675	0.0905	688135	keystroke_c	c	n/a
344.2325	0.0755	688465	keystroke_u	u	n/a
344.5025	0.0905	689005	keystroke_l	l	n/a
344.607	0.076	689214	keystroke_a	a	n/a
344.7725	0.1055	689545	keystroke_r	r	n/a
344.863	0.105	689726	keystroke_Key.space	Key.space	n/a
345.118	0.06	690236	keystroke_Key.backspace	Key.backspace	n/a
345.328	0.075	690656	keystroke_Key.enter	Key.enter	n/a
345.409	6.941	690818	prompt	n/a	ivory traffic allocation listings\n
346.1075	0.075	692215	keystroke_i	i	n/a
346.2575	0.0755	692515	keystroke_v	v	n/a
346.4525	0.06	692905	keystroke_o	o	n/a
346.588	0.105	693176	keystroke_r	r	n/a
346.7975	0.0605	693595	keystroke_y	y	n/a
346.872	0.0905	693744	keystroke_Key.space	Key.space	n/a
347.113	0.1045	694226	keystroke_t	t	n/a
347.2025	0.1205	694405	keystroke_r	r	n/a
347.338	0.12	694676	keystroke_a	a	n/a
347.5775	0.0605	695155	keystroke_f	f	n/a
347.728	0.0595	695456	keystroke_f	f	n/a
347.908	0.0745	695816	keystroke_i	i	n/a
348.028	0.09	696056	keystroke_c	c	n/a
348.3575	0.09	696715	keystroke_Key.space	Key.space	n/a
348.5225	0.12	697045	keystroke_a	a	n/a
348.673	0.0755	697346	keystroke_l	l	n/a
348.8075	0.09	697615	keystroke_l	l	n/a
348.973	0.09	697946	keystroke_o	o	n/a
349.078	0.0895	698156	keystroke_c	c	n/a
349.2125	0.1205	698425	keystroke_a	a	n/a
349.4375	0.075	698875	keystroke_t	t	n/a
349.529	0.0735	699058	keystroke_i	i	n/a
349.723	0.1045	699446	keystroke_o	o	n/a
349.8125	0.09	699625	keystroke_n	n	n/a
349.9175	0.075	699835	keystroke_Key.space	Key.space	n/a
350.053	0.075	700106	keystroke_l	l	n/a
350.233	0.075	700466	keystroke_i	i	n/a
350.323	0.1045	700646	keystroke_s	s	n/a
350.578	0.06	701156	keystroke_t	t	n/a
351.4475	0.0745	702895	keystroke_i	i	n/a
351.4625	0.12	702925	keystroke_n	n	n/a
351.598	0.074	703196	keystroke_g	g	n/a
351.898	0.104	703796	keystroke_s	s	n/a
352.243	0.104	704486	keystroke_Key.enter	Key.enter	n/a
352.354	8.11	704708	prompt	n/a	indication distributor directed recover\n
352.993	0.105	705986	keystroke_i	i	n/a
353.0525	0.1055	706105	keystroke_n	n	n/a
353.158	0.1045	706316	keystroke_d	d	n/a
353.323	0.06	706646	keystroke_i	i	n/a
353.413	0.0895	706826	keystroke_c	c	n/a
353.638	0.0745	707276	keystroke_a	a	n/a
353.833	0.0595	707666	keystroke_t	t	n/a
353.9225	0.075	707845	keystroke_i	i	n/a
354.1025	0.09	708205	keystroke_o	o	n/a
354.1775	0.0755	708355	keystroke_n	n	n/a
354.2225	0.12	708445	keystroke_Key.space	Key.space	n/a
354.4925	0.12	708985	keystroke_d	d	n/a
354.643	0.12	709286	keystroke_s	s	n/a
354.7775	0.105	709555	keystroke_i	i	n/a
355.1225	0.06	710245	keystroke_Key.backspace	Key.backspace	n/a
355.2275	0.06	710455	keystroke_Key.backspace	Key.backspace	n/a
355.498	0.0745	710996	keystroke_i	i	n/a
355.5575	0.09	711115	keystroke_s	s	n/a
355.7975	0.105	711595	keystroke_t	t	n/a
355.8725	0.121	711745	keystroke_r	r	n/a
356.0375	0.075	712075	keystroke_i	i	n/a
356.278	0.075	712556	keystroke_b	b	n/a
356.458	0.06	712916	keystroke_u	u	n/a
356.668	0.075	713336	keystroke_t	t	n/a
356.802	0.091	713604	keystroke_o	o	n/a
356.953	0.12	713906	keystroke_r	r	n/a
357.073	0.074	714146	keystroke_Key.space	Key.space	n/a
357.373	0.105	714746	keystroke_d	d	n/a
357.508	0.09	715016	keystroke_i	i	n/a
357.658	0.105	715316	keystroke_r	r	n/a
357.7775	0.0905	715555	keystroke_e	e	n/a
358.0325	0.0605	716065	keystroke_c	c	n/a
358.288	0.0905	716576	keystroke_t	t	n/a
358.4075	0.09	716815	keystroke_e	e	n/a
358.6325	0.09	717265	keystroke_d	d	n/a
358.7375	0.105	717475	keystroke_Key.space	Key.space	n/a
358.9325	0.1055	717865	keystroke_r	r	n/a
359.038	0.1045	718076	keystroke_e	e	n/a
359.5625	0.09	719125	keystroke_c	c	n/a
359.683	0.09	719366	keystroke_o	o	n/a
359.7875	0.0755	719575	keystroke_v	v	n/a
360.0425	0.12	720085	keystroke_e	e	n/a
360.148	0.09	720296	keystroke_r	r	n/a
360.3725	0.09	720745	keystroke_Key.enter	Key.enter	n/a
360.4685	7.2555	720937	prompt	n/a	optimal amateur geek alarm\n
361.168	0.0745	722336	keystroke_o	o	n/a
361.4075	0.075	722815	keystroke_p	p	n/a
361.5425	0.075	723085	keystroke_t	t	n/a
361.7075	0.06	723415	keystroke_i	i	n/a
362.2175	0.045	724435	keystroke_m	m	n/a
362.2775	0.105	724555	keystroke_a	a	n/a
362.5475	0.075	725095	keystroke_l	l	n/a
362.6675	0.105	725335	keystroke_Key.space	Key.space	n/a
363.0725	0.0905	726145	keystroke_a	a	n/a
363.1635	0.074	726327	keystroke_m	m	n/a
363.2975	0.06	726595	keystroke_a	a	n/a
363.5825	0.09	727165	keystroke_t	t	n/a
363.898	0.0745	727796	keystroke_e	e	n/a
364.273	0.0895	728546	keystroke_u	u	n/a
364.4375	0.0905	728875	keystroke_r	r	n/a
364.6175	0.1205	729235	keystroke_Key.space	Key.space	n/a
365.203	0.0595	730406	keystroke_d	d	n/a
365.638	0.09	731276	keystroke_Key.backspace	Key.backspace	n/a
365.758	0.06	731516	keystroke_g	g	n/a
365.938	0.075	731876	keystroke_e	e	n/a
366.088	0.09	732176	keystroke_e	e	n/a
366.238	0.09	732476	keystroke_k	k	n/a
366.358	0.105	732716	keystroke_Key.space	Key.space	n/a
366.763	0.105	733526	keystroke_a	a	n/a
366.898	0.075	733796	keystroke_l	l	n/a
366.958	0.09	733916	keystroke_a	a	n/a
367.168	0.09	734336	keystroke_r	r	n/a
367.378	0.045	734756	keystroke_m	m	n/a
367.6325	0.09	735265	keystroke_Key.enter	Key.enter	n/a
367.728	6.027	735456	prompt	n/a	naples appearing tomorrow grid\n
368.3525	0.09	736705	keystroke_n	n	n/a
368.4725	0.091	736945	keystroke_a	a	n/a
368.6375	0.0755	737275	keystroke_p	p	n/a
368.8325	0.0905	737665	keystroke_l	l	n/a
368.9525	0.1355	737905	keystroke_e	e	n/a
369.073	0.1195	738146	keystroke_s	s	n/a
369.1625	0.1055	738325	keystroke_Key.space	Key.space	n/a
369.418	0.09	738836	keystroke_a	a	n/a
369.553	0.06	739106	keystroke_p	p	n/a
369.673	0.089	739346	keystroke_p	p	n/a
369.7775	0.105	739555	keystroke_e	e	n/a
369.867	0.106	739734	keystroke_a	a	n/a
370.018	0.104	740036	keystroke_r	r	n/a
370.198	0.119	740396	keystroke_i	i	n/a
370.273	0.12	740546	keystroke_n	n	n/a
370.407	0.106	740814	keystroke_g	g	n/a
370.4975	0.105	740995	keystroke_Key.space	Key.space	n/a
370.7825	0.06	741565	keystroke_t	t	n/a
370.828	0.0745	741656	keystroke_o	o	n/a
371.0375	0.0605	742075	keystroke_m	m	n/a
371.2025	0.06	742405	keystroke_o	o	n/a
371.368	0.0595	742736	keystroke_t	t	n/a
371.817	0.0755	743634	keystroke_Key.backspace	Key.backspace	n/a
371.938	0.045	743876	keystroke_r	r	n/a
372.058	0.09	744116	keystroke_r	r	n/a
372.192	0.091	744384	keystroke_o	o	n/a
372.343	0.119	744686	keystroke_w	w	n/a
372.447	0.1055	744894	keystroke_Key.space	Key.space	n/a
372.808	0.0745	745616	keystroke_g	g	n/a
372.9575	0.1055	745915	keystroke_r	r	n/a
373.1075	0.1045	746215	keystroke_i	i	n/a
373.3025	0.1055	746605	keystroke_d	d	n/a
373.662	0.09	747324	keystroke_Key.enter	Key.enter	n/a
373.7595	9.04	747519	prompt	n/a	network ultra individually respondent\n
374.457	0.0905	748914	keystroke_n	n	n/a
374.563	0.135	749126	keystroke_e	e	n/a
374.7725	0.0905	749545	keystroke_t	t	n/a
374.9975	0.105	749995	keystroke_w	w	n/a
375.1035	0.074	750207	keystroke_o	o	n/a
375.238	0.0745	750476	keystroke_r	r	n/a
375.328	0.0895	750656	keystroke_k	k	n/a
375.4325	0.0895	750865	keystroke_Key.space	Key.space	n/a
375.792	0.0755	751584	keystroke_u	u	n/a
376.033	0.105	752066	keystroke_l	l	n/a
376.168	0.06	752336	keystroke_t	t	n/a
376.363	0.105	752726	keystroke_r	r	n/a
376.498	0.15	752996	keystroke_a	a	n/a
376.633	0.09	753266	keystroke_Key.space	Key.space	n/a
377.0375	0.1045	754075	keystroke_i	i	n/a
377.098	0.105	754196	keystroke_n	n	n/a
377.2625	0.1045	754525	keystroke_d	d	n/a
377.4125	0.075	754825	keystroke_i	i	n/a
377.5925	0.0755	755185	keystroke_v	v	n/a
377.6975	0.105	755395	keystroke_i	i	n/a
377.8325	0.09	755665	keystroke_d	d	n/a
378.207	0.09	756414	keystroke_u	u	n/a
378.343	0.06	756686	keystroke_s	s	n/a
378.5375	0.045	757075	keystroke_a	a	n/a
378.6575	0.075	757315	keystroke_l	l	n/a
378.9725	0.06	757945	keystroke_Key.backspace	Key.backspace	n/a
379.1075	0.0755	758215	keystroke_Key.backspace	Key.backspace	n/a
379.5425	0.09	759085	keystroke_Key.backspace	Key.backspace	n/a
379.6775	0.1055	759355	keystroke_a	a	n/a
379.8425	0.06	759685	keystroke_l	l	n/a
379.9625	0.075	759925	keystroke_l	l	n/a
380.1735	0.0895	760347	keystroke_y	y	n/a
380.248	0.105	760496	keystroke_Key.space	Key.space	n/a
381.0725	0.1055	762145	keystroke_r	r	n/a
381.1475	0.105	762295	keystroke_e	e	n/a
381.447	0.1055	762894	keystroke_s	s	n/a
381.567	0.105	763134	keystroke_p	p	n/a
381.792	0.106	763584	keystroke_o	o	n/a
381.958	0.105	763916	keystroke_n	n	n/a
382.107	0.091	764214	keystroke_d	d	n/a
382.333	0.0595	764666	keystroke_e	e	n/a
382.422	0.075	764844	keystroke_n	n	n/a
382.542	0.09	765084	keystroke_t	t	n/a
382.707	0.0905	765414	keystroke_Key.enter	Key.enter	n/a
382.8035	10.0455	765607	prompt	n/a	absence tumor background quantum\n
383.6375	0.1055	767275	keystroke_a	a	n/a
384.387	0.076	768774	keystroke_b	b	n/a
384.673	0.105	769346	keystroke_s	s	n/a
384.882	0.091	769764	keystroke_e	e	n/a
385.033	0.09	770066	keystroke_n	n	n/a
385.767	0.0755	771534	keystroke_c	c	n/a
385.9475	0.12	771895	keystroke_e	e	n/a
386.0075	0.12	772015	keystroke_Key.space	Key.space	n/a
386.248	0.09	772496	keystroke_t	t	n/a
386.3525	0.075	772705	keystroke_u	u	n/a
386.5775	0.09	773155	keystroke_m	m	n/a
386.878	0.089	773756	keystroke_o	o	n/a
387.057	0.09	774114	keystroke_r	r	n/a
387.117	0.106	774234	keystroke_Key.space	Key.space	n/a
387.4625	0.0905	774925	keystroke_b	b	n/a
387.537	0.105	775074	keystroke_a	a	n/a
387.807	0.03	775614	keystroke_c	c	n/a
387.8225	0.06	775645	keystroke_k	k	n/a
388.0025	0.075	776005	keystroke_h	h	n/a
388.573	0.0895	777146	keystroke_Key.backspace	Key.backspace	n/a
389.2925	0.0755	778585	keystroke_g	g	n/a
389.4875	0.105	778975	keystroke_r	r	n/a
389.878	0.105	779756	keystroke_o	o	n/a
390.163	0.1495	780326	keystroke_u	u	n/a
390.268	0.1195	780536	keystroke_n	n	n/a
390.3725	0.105	780745	keystroke_d	d	n/a
390.792	0.091	781584	keystroke_Key.space	Key.space	n/a
391.393	0.074	782786	keystroke_q	q	n/a
391.5275	0.0905	783055	keystroke_u	u	n/a
391.632	0.121	783264	keystroke_a	a	n/a
391.8125	0.09	783625	keystroke_n	n	n/a
392.008	0.09	784016	keystroke_t	t	n/a
392.3675	0.0605	784735	keystroke_u	u	n/a
392.5625	0.0895	785125	keystroke_m	m	n/a
392.7575	0.0895	785515	keystroke_Key.enter	Key.enter	n/a
392.853	5.8305	785706	prompt	n/a	concepts kennedy breeding webcam\n
393.5235	0.0895	787047	keystroke_c	c	n/a
393.628	0.075	787256	keystroke_o	o	n/a
393.688	0.075	787376	keystroke_n	n	n/a
393.7775	0.09	787555	keystroke_c	c	n/a
394.0175	0.09	788035	keystroke_e	e	n/a
394.1675	0.1055	788335	keystroke_p	p	n/a
394.3325	0.0905	788665	keystroke_t	t	n/a
394.4525	0.1205	788905	keystroke_s	s	n/a
394.5425	0.105	789085	keystroke_Key.space	Key.space	n/a
394.9025	0.0905	789805	keystroke_k	k	n/a
395.053	0.075	790106	keystroke_e	e	n/a
395.1875	0.0605	790375	keystroke_n	n	n/a
395.3075	0.0755	790615	keystroke_n	n	n/a
395.4725	0.075	790945	keystroke_e	e	n/a
395.683	0.1045	791366	keystroke_d	d	n/a
395.8775	0.0755	791755	keystroke_y	y	n/a
395.9825	0.09	791965	keystroke_Key.space	Key.space	n/a
396.2075	0.0755	792415	keystroke_b	b	n/a
396.3125	0.1055	792625	keystroke_r	r	n/a
396.4025	0.0755	792805	keystroke_e	e	n/a
396.568	0.09	793136	keystroke_e	e	n/a
396.808	0.105	793616	keystroke_d	d	n/a
397.003	0.135	794006	keystroke_i	i	n/a
397.093	0.105	794186	keystroke_n	n	n/a
397.213	0.105	794426	keystroke_g	g	n/a
397.273	0.12	794546	keystroke_Key.space	Key.space	n/a
397.663	0.1045	795326	keystroke_w	w	n/a
397.783	0.0745	795566	keystroke_e	e	n/a
397.9025	0.0755	795805	keystroke_b	b	n/a
398.113	0.09	796226	keystroke_c	c	n/a
398.263	0.105	796526	keystroke_a	a	n/a
398.383	0.09	796766	keystroke_m	m	n/a
398.6075	0.0745	797215	keystroke_Key.enter	Key.enter	n/a
398.689	7.915	797378	prompt	n/a	madonna judgment college orleans\n
399.373	0.06	798746	keystroke_m	m	n/a
399.463	0.075	798926	keystroke_a	a	n/a
399.6575	0.09	799315	keystroke_d	d	n/a
399.8075	0.0755	799615	keystroke_o	o	n/a
399.988	0.06	799976	keystroke_n	n	n/a
400.107	0.076	800214	keystroke_n	n	n/a
400.213	0.105	800426	keystroke_a	a	n/a
400.302	0.106	800604	keystroke_Key.space	Key.space	n/a
400.603	0.09	801206	keystroke_d	d	n/a
401.023	0.075	802046	keystroke_Key.backspace	Key.backspace	n/a
401.293	0.09	802586	keystroke_j	j	n/a
401.488	0.075	802976	keystroke_u	u	n/a
401.938	0.074	803876	keystroke_d	d	n/a
402.088	0.075	804176	keystroke_g	g	n/a
402.373	0.06	804746	keystroke_e	e	n/a
402.613	0.09	805226	keystroke_m	m	n/a
402.733	0.075	805466	keystroke_e	e	n/a
402.838	0.075	805676	keystroke_n	n	n/a
402.988	0.1195	805976	keystroke_t	t	n/a
403.063	0.135	806126	keystroke_Key.space	Key.space	n/a
403.6175	0.075	807235	keystroke_c	c	n/a
403.708	0.0745	807416	keystroke_l	l	n/a
404.0375	0.06	808075	keystroke_Key.backspace	Key.backspace	n/a
404.2775	0.075	808555	keystroke_o	o	n/a
404.4575	0.06	808915	keystroke_l	l	n/a
404.5625	0.0905	809125	keystroke_l	l	n/a
404.668	0.09	809336	keystroke_e	e	n/a
404.863	0.12	809726	keystroke_g	g	n/a
404.9975	0.105	809995	keystroke_e	e	n/a
405.0875	0.105	810175	keystroke_Key.space	Key.space	n/a
405.613	0.089	811226	keystroke_o	o	n/a
405.733	0.09	811466	keystroke_r	r	n/a
405.883	0.105	811766	keystroke_l	l	n/a
406.003	0.1195	812006	keystroke_e	e	n/a
406.1375	0.0905	812275	keystroke_a	a	n/a
406.2585	0.075	812517	keystroke_n	n	n/a
406.3775	0.1055	812755	keystroke_s	s	n/a
406.4975	0.105	812995	keystroke_Key.enter	Key.enter	n/a
406.608	7.826	813216	prompt	n/a	girl threatened idol vaccine\n
407.308	0.075	814616	keystroke_g	g	n/a
407.413	0.075	814826	keystroke_i	i	n/a
407.533	0.075	815066	keystroke_r	r	n/a
407.638	0.075	815276	keystroke_l	l	n/a
407.6975	0.1045	815395	keystroke_Key.space	Key.space	n/a
407.877	0.1055	815754	keystroke_t	t	n/a
408.043	0.0895	816086	keystroke_h	h	n/a
408.343	0.0595	816686	keystroke_r	r	n/a
408.8375	0.0755	817675	keystroke_e	e	n/a
409.0775	0.105	818155	keystroke_a	a	n/a
409.3025	0.0605	818605	keystroke_t	t	n/a
409.6175	0.0755	819235	keystroke_e	e	n/a
409.9475	0.06	819895	keystroke_n	n	n/a
410.1125	0.075	820225	keystroke_e	e	n/a
410.548	0.105	821096	keystroke_d	d	n/a
410.7575	0.1205	821515	keystroke_Key.space	Key.space	n/a
411.5825	0.09	823165	keystroke_o	o	n/a
412.0025	0.075	824005	keystroke_Key.backspace	Key.backspace	n/a
412.2575	0.09	824515	keystroke_i	i	n/a
412.3925	0.09	824785	keystroke_d	d	n/a
412.708	0.0745	825416	keystroke_o	o	n/a
412.887	0.0905	825774	keystroke_l	l	n/a
412.962	0.106	825924	keystroke_Key.space	Key.space	n/a
413.262	0.075	826524	keystroke_v	v	n/a
413.383	0.1195	826766	keystroke_a	a	n/a
413.622	0.075	827244	keystroke_c	c	n/a
413.773	0.075	827546	keystroke_c	c	n/a
413.923	0.1195	827846	keystroke_i	i	n/a
414.013	0.1045	828026	keystroke_n	n	n/a
414.1625	0.1045	828325	keystroke_e	e	n/a
414.328	0.104	828656	keystroke_Key.enter	Key.enter	n/a
414.4385	4.916	828877	prompt	n/a	ride such failure connections\n
415.048	0.0595	830096	keystroke_r	r	n/a
415.1225	0.075	830245	keystroke_i	i	n/a
415.2575	0.1055	830515	keystroke_d	d	n/a
415.4375	0.09	830875	keystroke_e	e	n/a
415.4975	0.105	830995	keystroke_Key.space	Key.space	n/a
415.6475	0.105	831295	keystroke_s	s	n/a
415.783	0.0595	831566	keystroke_u	u	n/a
415.8575	0.09	831715	keystroke_c	c	n/a
415.9925	0.075	831985	keystroke_h	h	n/a
416.0525	0.09	832105	keystroke_Key.space	Key.space	n/a
416.2775	0.09	832555	keystroke_f	f	n/a
416.428	0.0895	832856	keystroke_a	a	n/a
416.533	0.0905	833066	keystroke_i	i	n/a
416.758	0.0895	833516	keystroke_l	l	n/a
417.072	0.075	834144	keystroke_u	u	n/a
417.178	0.1195	834356	keystroke_r	r	n/a
417.283	0.119	834566	keystroke_e	e	n/a
417.357	0.135	834714	keystroke_Key.space	Key.space	n/a
417.538	0.089	835076	keystroke_s	s	n/a
417.717	0.076	835434	keystroke_o	o	n/a
417.928	0.044	835856	keystroke_n	n	n/a
418.017	0.091	836034	keystroke_n	n	n/a
418.1525	0.06	836305	keystroke_e	e	n/a
418.332	0.091	836664	keystroke_c	c	n/a
418.5875	0.0755	837175	keystroke_t	t	n/a
418.7085	0.0595	837417	keystroke_i	i	n/a
418.887	0.106	837774	keystroke_o	o	n/a
419.008	0.0595	838016	keystroke_n	n	n/a
419.112	0.0905	838224	keystroke_s	s	n/a
419.278	0.0745	838556	keystroke_Key.enter	Key.enter	n/a
419.3575	7.647	838715	prompt	n/a	marshall hotmail python developed\n
420.2985	0.074	840597	keystroke_m	m	n/a
420.358	0.1055	840716	keystroke_a	a	n/a
420.6125	0.06	841225	keystroke_r	r	n/a
420.8375	0.075	841675	keystroke_c	c	n/a
421.1525	0.075	842305	keystroke_Key.backspace	Key.backspace	n/a
421.2725	0.105	842545	keystroke_s	s	n/a
421.4375	0.075	842875	keystroke_h	h	n/a
421.5425	0.09	843085	keystroke_a	a	n/a
421.7075	0.0605	843415	keystroke_l	l	n/a
421.813	0.075	843626	keystroke_l	l	n/a
421.917	0.091	843834	keystroke_Key.space	Key.space	n/a
422.383	0.045	844766	keystroke_h	h	n/a
422.458	0.075	844916	keystroke_o	o	n/a
422.548	0.09	845096	keystroke_t	t	n/a
422.713	0.075	845426	keystroke_m	m	n/a
422.773	0.12	845546	keystroke_a	a	n/a
422.983	0.0745	845966	keystroke_i	i	n/a
423.193	0.0745	846386	keystroke_l	l	n/a
423.2975	0.12	846595	keystroke_Key.space	Key.space	n/a
423.5225	0.075	847045	keystroke_p	p	n/a
423.823	0.0595	847646	keystroke_y	y	n/a
424.0925	0.075	848185	keystroke_t	t	n/a
424.2575	0.0755	848515	keystroke_h	h	n/a
424.5275	0.105	849055	keystroke_o	o	n/a
424.618	0.1045	849236	keystroke_n	n	n/a
424.7075	0.105	849415	keystroke_Key.space	Key.space	n/a
424.9475	0.075	849895	keystroke_d	d	n/a
425.143	0.0745	850286	keystroke_e	e	n/a
425.353	0.0595	850706	keystroke_v	v	n/a
425.5325	0.075	851065	keystroke_e	e	n/a
425.8475	0.12	851695	keystroke_l	l	n/a
426.1025	0.09	852205	keystroke_o	o	n/a
426.343	0.09	852686	keystroke_p	p	n/a
426.583	0.06	853166	keystroke_e	e	n/a
426.778	0.0895	853556	keystroke_d	d	n/a
426.912	0.09	853824	keystroke_Key.enter	Key.enter	n/a
427.0085	6.4155	854017	prompt	n/a	classic andy match alexandria\n
427.708	0.09	855416	keystroke_c	c	n/a
427.812	0.1055	855624	keystroke_l	l	n/a
427.9325	0.045	855865	keystroke_a	a	n/a
428.128	0.0595	856256	keystroke_s	s	n/a
428.2775	0.075	856555	keystroke_s	s	n/a
428.4275	0.075	856855	keystroke_i	i	n/a
428.5485	0.089	857097	keystroke_c	c	n/a
428.6825	0.09	857365	keystroke_Key.space	Key.space	n/a
428.908	0.105	857816	keystroke_a	a	n/a
429.0725	0.06	858145	keystroke_n	n	n/a
429.1785	0.089	858357	keystroke_d	d	n/a
429.358	0.06	858716	keystroke_y	y	n/a
429.432	0.105	858864	keystroke_Key.space	Key.space	n/a
429.657	0.076	859314	keystroke_m	m	n/a
429.748	0.075	859496	keystroke_a	a	n/a
429.9425	0.0455	859885	keystroke_t	t	n/a
430.168	0.0895	860336	keystroke_c	c	n/a
430.3025	0.06	860605	keystroke_h	h	n/a
430.377	0.091	860754	keystroke_Key.space	Key.space	n/a
430.693	0.1045	861386	keystroke_a	a	n/a
430.992	0.106	861984	keystroke_l	l	n/a
431.158	0.0895	862316	keystroke_e	e	n/a
431.698	0.09	863396	keystroke_x	x	n/a
431.9525	0.105	863905	keystroke_a	a	n/a
432.163	0.075	864326	keystroke_n	n	n/a
432.448	0.104	864896	keystroke_d	d	n/a
432.777	0.09	865554	keystroke_r	r	n/a
432.958	0.06	865916	keystroke_i	i	n/a
433.0625	0.12	866125	keystroke_a	a	n/a
433.3325	0.09	866665	keystroke_Key.enter	Key.enter	n/a
433.4345	7.79	866869	prompt	n/a	variable give pour incomplete\n
434.143	0.1045	868286	keystroke_b	b	n/a
434.2625	0.1205	868525	keystroke_a	a	n/a
434.7875	0.06	869575	keystroke_Key.backspace	Key.backspace	n/a
435.0125	0.09	870025	keystroke_v	v	n/a
435.178	0.0895	870356	keystroke_Key.backspace	Key.backspace	n/a
435.3275	0.0755	870655	keystroke_Key.backspace	Key.backspace	n/a
435.4185	0.09	870837	keystroke_v	v	n/a
435.5675	0.106	871135	keystroke_a	a	n/a
435.7775	0.09	871555	keystroke_r	r	n/a
435.9125	0.1055	871825	keystroke_i	i	n/a
436.033	0.105	872066	keystroke_a	a	n/a
436.213	0.105	872426	keystroke_b	b	n/a
436.408	0.105	872816	keystroke_l	l	n/a
436.543	0.12	873086	keystroke_e	e	n/a
436.618	0.135	873236	keystroke_Key.space	Key.space	n/a
436.947	0.09	873894	keystroke_g	g	n/a
437.0975	0.0895	874195	keystroke_i	i	n/a
437.203	0.0745	874406	keystroke_v	v	n/a
437.4125	0.075	874825	keystroke_e	e	n/a
437.4725	0.1055	874945	keystroke_Key.space	Key.space	n/a
437.623	0.0745	875246	keystroke_p	p	n/a
437.818	0.075	875636	keystroke_o	o	n/a
437.9675	0.105	875935	keystroke_r	r	n/a
438.0875	0.1055	876175	keystroke_Key.space	Key.space	n/a
438.508	0.0595	877016	keystroke_Key.backspace	Key.backspace	n/a
438.6275	0.0605	877255	keystroke_Key.backspace	Key.backspace	n/a
438.913	0.0745	877826	keystroke_u	u	n/a
439.0025	0.1055	878005	keystroke_r	r	n/a
439.0625	0.1055	878125	keystroke_Key.space	Key.space	n/a
439.2725	0.1205	878545	keystroke_i	i	n/a
439.438	0.09	878876	keystroke_n	n	n/a
439.6325	0.09	879265	keystroke_c	c	n/a
439.7825	0.15	879565	keystroke_o	o	n/a
439.9025	0.06	879805	keystroke_m	m	n/a
440.128	0.15	880256	keystroke_p	p	n/a
440.233	0.09	880466	keystroke_l	l	n/a
440.338	0.12	880676	keystroke_e	e	n/a
440.548	0.105	881096	keystroke_t	t	n/a
440.698	0.09	881396	keystroke_e	e	n/a
441.148	0.075	882296	keystroke_Key.enter	Key.enter	n/a
441.2295	5.98	882459	prompt	n/a	didn't factory focused harmful\n
441.7925	0.105	883585	keystroke_d	d	n/a
441.9275	0.0755	883855	keystroke_i	i	n/a
441.9875	0.105	883975	keystroke_d	d	n/a
442.1825	0.075	884365	keystroke_n	n	n/a
442.4075	0.09	884815	keystroke_'	'	n/a
442.5875	0.1055	885175	keystroke_t	t	n/a
442.6775	0.105	885355	keystroke_Key.space	Key.space	n/a
443.023	0.119	886046	keystroke_f	f	n/a
443.187	0.106	886374	keystroke_a	a	n/a
443.398	0.075	886796	keystroke_c	c	n/a
443.653	0.059	887306	keystroke_t	t	n/a
443.7425	0.0745	887485	keystroke_o	o	n/a
443.862	0.09	887724	keystroke_r	r	n/a
444.043	0.074	888086	keystroke_y	y	n/a
444.102	0.1205	888204	keystroke_Key.space	Key.space	n/a
444.2675	0.09	888535	keystroke_f	f	n/a
444.4175	0.0905	888835	keystroke_o	o	n/a
444.5525	0.105	889105	keystroke_c	c	n/a
444.7625	0.0755	889525	keystroke_u	u	n/a
444.8975	0.09	889795	keystroke_s	s	n/a
445.153	0.074	890306	keystroke_e	e	n/a
445.3775	0.165	890755	keystroke_d	d	n/a
445.4975	0.09	890995	keystroke_Key.space	Key.space	n/a
445.8575	0.075	891715	keystroke_h	h	n/a
445.9475	0.0755	891895	keystroke_a	a	n/a
446.0975	0.0905	892195	keystroke_r	r	n/a
446.2475	0.075	892495	keystroke_m	m	n/a
446.4875	0.09	892975	keystroke_f	f	n/a
446.623	0.0745	893246	keystroke_u	u	n/a
446.8625	0.09	893725	keystroke_l	l	n/a
447.0875	0.1205	894175	keystroke_Key.enter	Key.enter	n/a
447.2145	7.197	894429	prompt	n/a	lang commissions consultant caroline\n
448.0175	0.015	896035	keystroke_l	l	n/a
448.198	0.0295	896396	keystroke_l	l	n/a
448.632	0.076	897264	keystroke_Key.backspace	Key.backspace	n/a
448.752	0.0905	897504	keystroke_a	a	n/a
448.902	0.076	897804	keystroke_n	n	n/a
449.008	0.105	898016	keystroke_g	g	n/a
449.0675	0.1055	898135	keystroke_Key.space	Key.space	n/a
449.3075	0.0755	898615	keystroke_c	c	n/a
449.322	0.075	898644	keystroke_o	o	n/a
449.503	0.045	899006	keystroke_m	m	n/a
449.607	0.076	899214	keystroke_m	m	n/a
449.952	0.076	899904	keystroke_i	i	n/a
450.178	0.074	900356	keystroke_s	s	n/a
450.388	0.074	900776	keystroke_s	s	n/a
450.5825	0.0905	901165	keystroke_i	i	n/a
450.8075	0.09	901615	keystroke_o	o	n/a
450.8825	0.09	901765	keystroke_n	n	n/a
451.0175	0.1055	902035	keystroke_s	s	n/a
451.1975	0.09	902395	keystroke_Key.space	Key.space	n/a
451.453	0.09	902906	keystroke_c	c	n/a
451.5575	0.1055	903115	keystroke_o	o	n/a
451.647	0.091	903294	keystroke_n	n	n/a
451.753	0.105	903506	keystroke_s	s	n/a
451.918	0.075	903836	keystroke_u	u	n/a
452.143	0.0895	904286	keystroke_l	l	n/a
452.263	0.09	904526	keystroke_t	t	n/a
452.443	0.12	904886	keystroke_a	a	n/a
452.637	0.076	905274	keystroke_n	n	n/a
452.7275	0.0895	905455	keystroke_t	t	n/a
452.803	0.09	905606	keystroke_Key.space	Key.space	n/a
453.0725	0.075	906145	keystroke_c	c	n/a
453.2375	0.075	906475	keystroke_a	a	n/a
453.418	0.1045	906836	keystroke_r	r	n/a
453.5375	0.0605	907075	keystroke_o	o	n/a
453.7175	0.075	907435	keystroke_l	l	n/a
453.973	0.1045	907946	keystroke_i	i	n/a
454.0625	0.075	908125	keystroke_n	n	n/a
454.1385	0.0895	908277	keystroke_e	e	n/a
454.3025	0.105	908605	keystroke_Key.enter	Key.enter	n/a
454.4155	6.609	908831	prompt	n/a	council billing bullet attach\n
455.0075	0.0905	910015	keystroke_c	c	n/a
455.173	0.074	910346	keystroke_o	o	n/a
455.3975	0.105	910795	keystroke_u	u	n/a
455.4875	0.09	910975	keystroke_n	n	n/a
455.6975	0.0905	911395	keystroke_c	c	n/a
455.8325	0.075	911665	keystroke_i	i	n/a
456.0725	0.09	912145	keystroke_l	l	n/a
456.1475	0.135	912295	keystroke_Key.space	Key.space	n/a
456.523	0.06	913046	keystroke_b	b	n/a
456.703	0.0895	913406	keystroke_i	i	n/a
456.943	0.09	913886	keystroke_l	l	n/a
457.213	0.1345	914426	keystroke_i	i	n/a
457.3175	0.12	914635	keystroke_n	n	n/a
457.4825	0.045	914965	keystroke_g	g	n/a
457.4975	0.1055	914995	keystroke_Key.space	Key.space	n/a
457.828	0.075	915656	keystroke_c	c	n/a
458.277	0.075	916554	keystroke_Key.backspace	Key.backspace	n/a
458.4575	0.0745	916915	keystroke_b	b	n/a
458.9675	0.075	917935	keystroke_u	u	n/a
459.2225	0.075	918445	keystroke_l	l	n/a
459.3725	0.0905	918745	keystroke_l	l	n/a
459.4775	0.1055	918955	keystroke_e	e	n/a
459.6275	0.105	919255	keystroke_t	t	n/a
459.7175	0.12	919435	keystroke_Key.space	Key.space	n/a
459.898	0.105	919796	keystroke_a	a	n/a
460.093	0.06	920186	keystroke_t	t	n/a
460.213	0.09	920426	keystroke_t	t	n/a
460.348	0.1045	920696	keystroke_a	a	n/a
460.5575	0.09	921115	keystroke_c	c	n/a
460.7075	0.075	921415	keystroke_h	h	n/a
460.933	0.09	921866	keystroke_Key.enter	Key.enter	n/a
461.029	6.22	922058	prompt	n/a	block adams hugh bosnia\n
462.403	0.075	924806	keystroke_b	b	n/a
462.702	0.075	925404	keystroke_l	l	n/a
462.898	0.059	925796	keystroke_o	o	n/a
462.9875	0.105	925975	keystroke_c	c	n/a
463.123	0.09	926246	keystroke_k	k	n/a
463.2275	0.09	926455	keystroke_Key.space	Key.space	n/a
463.3775	0.105	926755	keystroke_a	a	n/a
463.4825	0.165	926965	keystroke_d	d	n/a
463.6175	0.105	927235	keystroke_a	a	n/a
463.7375	0.09	927475	keystroke_m	m	n/a
463.8725	0.105	927745	keystroke_s	s	n/a
463.9925	0.09	927985	keystroke_Key.space	Key.space	n/a
464.3225	0.0445	928645	keystroke_h	h	n/a
464.442	0.0905	928884	keystroke_u	u	n/a
464.5775	0.0745	929155	keystroke_g	g	n/a
464.6985	0.059	929397	keystroke_h	h	n/a
464.7875	0.105	929575	keystroke_Key.space	Key.space	n/a
465.103	0.0145	930206	keystroke_b	b	n/a
465.8975	0.075	931795	keystroke_o	o	n/a
466.0325	0.12	932065	keystroke_s	s	n/a
466.678	0.0745	933356	keystroke_n	n	n/a
466.8875	0.075	933775	keystroke_i	i	n/a
466.9925	0.09	933985	keystroke_a	a	n/a
467.1725	0.0755	934345	keystroke_Key.enter	Key.enter	n/a
467.255	7.419	934510	prompt	n/a	plane acids hills excluded\n
467.9975	0.1345	935995	keystroke_p	p	n/a
468.1025	0.1045	936205	keystroke_l	l	n/a
468.2375	0.1055	936475	keystroke_a	a	n/a
468.402	0.0755	936804	keystroke_n	n	n/a
468.492	0.0755	936984	keystroke_e	e	n/a
468.522	0.12	937044	keystroke_Key.space	Key.space	n/a
468.703	0.09	937406	keystroke_a	a	n/a
469.107	0.091	938214	keystroke_v	v	n/a
469.558	0.09	939116	keystroke_Key.backspace	Key.backspace	n/a
469.663	0.075	939326	keystroke_c	c	n/a
469.858	0.0745	939716	keystroke_i	i	n/a
470.143	0.09	940286	keystroke_d	d	n/a
470.428	0.119	940856	keystroke_s	s	n/a
470.5325	0.09	941065	keystroke_Key.space	Key.space	n/a
471.748	0.075	943496	keystroke_h	h	n/a
471.853	0.06	943706	keystroke_i	i	n/a
472.048	0.06	944096	keystroke_l	l	n/a
472.168	0.075	944336	keystroke_l	l	n/a
472.227	0.1055	944454	keystroke_s	s	n/a
472.318	0.089	944636	keystroke_Key.space	Key.space	n/a
472.513	0.09	945026	keystroke_e	e	n/a
473.0225	0.1055	946045	keystroke_x	x	n/a
473.518	0.1045	947036	keystroke_c	c	n/a
473.638	0.0745	947276	keystroke_l	l	n/a
473.8775	0.0905	947755	keystroke_u	u	n/a
474.0125	0.0905	948025	keystroke_d	d	n/a
474.238	0.059	948476	keystroke_e	e	n/a
474.418	0.089	948836	keystroke_d	d	n/a
474.582	0.091	949164	keystroke_Key.enter	Key.enter	n/a
474.678	6.791	949356	prompt	n/a	heat birds aquatic annotated\n
475.3775	0.0755	950755	keystroke_h	h	n/a
475.438	0.135	950876	keystroke_e	e	n/a
475.573	0.104	951146	keystroke_a	a	n/a
476.052	0.0905	952104	keystroke_t	t	n/a
476.202	0.09	952404	keystroke_Key.space	Key.space	n/a
476.4575	0.0745	952915	keystroke_b	b	n/a
476.622	0.0905	953244	keystroke_i	i	n/a
476.7425	0.0905	953485	keystroke_r	r	n/a
476.968	0.164	953936	keystroke_d	d	n/a
477.147	0.166	954294	keystroke_s	s	n/a
477.343	0.0895	954686	keystroke_Key.space	Key.space	n/a
477.8525	0.0605	955705	keystroke_a	a	n/a
478.497	0.1055	956994	keystroke_q	q	n/a
478.872	0.0755	957744	keystroke_u	u	n/a
478.962	0.0905	957924	keystroke_a	a	n/a
479.2325	0.075	958465	keystroke_t	t	n/a
479.3975	0.09	958795	keystroke_i	i	n/a
479.5775	0.105	959155	keystroke_c	c	n/a
479.7575	0.105	959515	keystroke_Key.space	Key.space	n/a
480.132	0.1055	960264	keystroke_a	a	n/a
480.238	0.0445	960476	keystroke_n	n	n/a
480.3275	0.075	960655	keystroke_n	n	n/a
480.493	0.1045	960986	keystroke_o	o	n/a
480.5825	0.105	961165	keystroke_t	t	n/a
480.7475	0.12	961495	keystroke_a	a	n/a
480.8525	0.15	961705	keystroke_t	t	n/a
480.9875	0.135	961975	keystroke_e	e	n/a
481.228	0.1045	962456	keystroke_d	d	n/a
481.3925	0.075	962785	keystroke_Key.enter	Key.enter	n/a
481.474	6.685	962948	prompt	n/a	peers prime unto unemployment\n
482.053	0.0895	964106	keystroke_p	p	n/a
482.1575	0.045	964315	keystroke_e	e	n/a
482.3075	0.0745	964615	keystroke_e	e	n/a
482.442	0.1505	964884	keystroke_r	r	n/a
482.6225	0.12	965245	keystroke_s	s	n/a
482.7125	0.09	965425	keystroke_Key.space	Key.space	n/a
482.893	0.1045	965786	keystroke_p	p	n/a
482.9835	0.104	965967	keystroke_r	r	n/a
483.1775	0.136	966355	keystroke_i	i	n/a
483.2675	0.1055	966535	keystroke_m	m	n/a
483.4175	0.09	966835	keystroke_e	e	n/a
483.4475	0.1355	966895	keystroke_Key.space	Key.space	n/a
483.793	0.15	967586	keystroke_u	u	n/a
483.913	0.104	967826	keystroke_n	n	n/a
484.138	0.0745	968276	keystroke_t	t	n/a
484.258	0.0895	968516	keystroke_o	o	n/a
484.362	0.09	968724	keystroke_Key.space	Key.space	n/a
484.647	0.06	969294	keystroke_e	e	n/a
485.3525	0.06	970705	keystroke_Key.backspace	Key.backspace	n/a
485.713	0.1495	971426	keystroke_u	u	n/a
