onset	duration	sample	value	key	prompt_text
9.751	17.1275	19502	prompt	n/a	the quick brown fox jumps over a lazy dog\n
11.7425	0.043	23485	keystroke	t	n/a
11.8305	0.135	23661	keystroke	h	n/a
13.1205	0.09	26241	keystroke	e	n/a
14.4705	0.075	28941	keystroke	Key.space	n/a
15.2205	0.105	30441	keystroke	q	n/a
15.3555	0.18	30711	keystroke	u	n/a
15.5205	0.135	31041	keystroke	i	n/a
17.0355	0.09	34071	keystroke	c	n/a
17.4705	0.105	34941	keystroke	k	n/a
18.3555	0.075	36711	keystroke	Key.space	n/a
18.5955	0.09	37191	keystroke	b	n/a
18.9255	0.075	37851	keystroke	r	n/a
19.0605	0.09	38121	keystroke	o	n/a
19.3455	0.09	38691	keystroke	w	n/a
19.4955	0.105	38991	keystroke	n	n/a
19.7655	0.09	39531	keystroke	Key.space	n/a
20.1255	0.075	40251	keystroke	f	n/a
20.2755	0.09	40551	keystroke	o	n/a
20.6205	0.06	41241	keystroke	x	n/a
20.8005	0.09	41601	keystroke	Key.space	n/a
21.0105	0.09	42021	keystroke	j	n/a
21.2205	0.075	42441	keystroke	u	n/a
21.4455	0.09	42891	keystroke	m	n/a
21.9405	0.06	43881	keystroke	p	n/a
22.1205	0.09	44241	keystroke	s	n/a
22.3005	0.075	44601	keystroke	Key.space	n/a
22.5105	0.09	45021	keystroke	o	n/a
22.6305	0.09	45261	keystroke	v	n/a
22.8405	0.12	45681	keystroke	e	n/a
22.9755	0.105	45951	keystroke	r	n/a
23.1405	0.09	46281	keystroke	Key.space	n/a
23.3205	0.12	46641	keystroke	a	n/a
23.4255	0.06	46851	keystroke	Key.space	n/a
23.6355	0.09	47271	keystroke	l	n/a
23.7705	0.105	47541	keystroke	a	n/a
24.0555	0.12	48111	keystroke	z	n/a
24.1605	0.09	48321	keystroke	y	n/a
24.2955	0.075	48591	keystroke	Key.space	n/a
25.1655	0.075	50331	keystroke	d	n/a
25.3005	0.075	50601	keystroke	o	n/a
25.6755	0.06	51351	keystroke	g	n/a
26.7555	0.12	53511	keystroke	Key.enter	n/a
26.883	12.1445	53766	prompt	n/a	issue units serving gods\n
34.2885	0.027	68577	keystroke	i	n/a
34.5555	0.09	69111	keystroke	s	n/a
34.7355	0.09	69471	keystroke	s	n/a
34.8555	0.09	69711	keystroke	u	n/a
35.0655	0.09	70131	keystroke	e	n/a
35.2005	0.075	70401	keystroke	Key.space	n/a
35.3955	0.09	70791	keystroke	u	n/a
35.6655	0.075	71331	keystroke	n	n/a
35.8605	0.075	71721	keystroke	i	n/a
36.0255	0.105	72051	keystroke	t	n/a
36.3555	0.09	72711	keystroke	s	n/a
36.5055	0.075	73011	keystroke	Key.space	n/a
36.8505	0.09	73701	keystroke	s	n/a
37.0605	0.09	74121	keystroke	e	n/a
37.2705	0.075	74541	keystroke	r	n/a
37.5855	0.105	75171	keystroke	v	n/a
37.7055	0.03	75411	keystroke	i	n/a
37.8405	0.09	75681	keystroke	n	n/a
37.9905	0.075	75981	keystroke	g	n/a
38.0805	0.09	76161	keystroke	Key.space	n/a
38.2455	0.105	76491	keystroke	g	n/a
38.4255	0.09	76851	keystroke	o	n/a
38.6055	0.09	77211	keystroke	d	n/a
38.7705	0.09	77541	keystroke	s	n/a
38.9505	0.075	77901	keystroke	Key.enter	n/a
39.031	6.027	78062	prompt	n/a	sticks cottage offer easier\n
40.0155	0.075	80031	keystroke	s	n/a
40.2705	0.075	80541	keystroke	t	n/a
40.4055	0.06	80811	keystroke	i	n/a
40.6155	0.09	81231	keystroke	c	n/a
40.7355	0.105	81471	keystroke	k	n/a
40.9005	0.09	81801	keystroke	s	n/a
41.0655	0.075	82131	keystroke	Key.space	n/a
41.2455	0.12	82491	keystroke	c	n/a
41.3505	0.06	82701	keystroke	o	n/a
41.5755	0.045	83151	keystroke	t	n/a
41.7105	0.09	83421	keystroke	t	n/a
41.9805	0.105	83961	keystroke	a	n/a
42.1305	0.09	84261	keystroke	g	n/a
42.3555	0.045	84711	keystroke	e	n/a
42.4305	0.075	84861	keystroke	Key.space	n/a
42.6405	0.06	85281	keystroke	o	n/a
42.8355	0.045	85671	keystroke	f	n/a
42.9555	0.06	85911	keystroke	f	n/a
43.1205	0.09	86241	keystroke	e	n/a
43.1805	0.12	86361	keystroke	r	n/a
43.2855	0.075	86571	keystroke	Key.space	n/a
43.4505	0.09	86901	keystroke	e	n/a
43.6455	0.105	87291	keystroke	a	n/a
43.8255	0.105	87651	keystroke	s	n/a
43.9755	0.075	87951	keystroke	i	n/a
44.1105	0.075	88221	keystroke	e	n/a
44.2905	0.075	88581	keystroke	r	n/a
44.9655	0.09	89931	keystroke	Key.enter	n/a
45.0615	13.4965	90123	prompt	n/a	accommodate couples tasks ministry\n
45.7305	0.105	91461	keystroke	a	n/a
45.9705	0.09	91941	keystroke	c	n/a
46.1205	0.105	92241	keystroke	c	n/a
46.2105	0.06	92421	keystroke	o	n/a
46.4205	0.075	92841	keystroke	m	n/a
46.6305	0.075	93261	keystroke	o	n/a
46.9905	0.09	93981	keystroke	d	n/a
47.1555	0.105	94311	keystroke	a	n/a
49.0455	0.09	98091	keystroke	Key.backspace	n/a
49.4205	0.075	98841	keystroke	Key.backspace	n/a
49.9905	0.075	99981	keystroke	Key.backspace	n/a
51.4155	0.09	102831	keystroke	m	n/a
52.2255	0.075	104451	keystroke	o	n/a
53.0055	0.105	106011	keystroke	d	n/a
53.2455	0.105	106491	keystroke	a	n/a
53.5305	0.105	107061	keystroke	t	n/a
53.7705	0.105	107541	keystroke	e	n/a
53.9355	0.045	107871	keystroke	Key.space	n/a
54.3405	0.09	108681	keystroke	c	n/a
54.5205	0.105	109041	keystroke	o	n/a
54.5955	0.075	109191	keystroke	u	n/a
54.8505	0.075	109701	keystroke	p	n/a
55.0905	0.09	110181	keystroke	l	n/a
55.2255	0.09	110451	keystroke	e	n/a
55.4805	0.075	110961	keystroke	s	n/a
55.5855	0.09	111171	keystroke	Key.space	n/a
55.7355	0.105	111471	keystroke	t	n/a
56.0055	0.121	112011	keystroke	a	n/a
56.2305	0.09	112461	keystroke	s	n/a
56.3655	0.075	112731	keystroke	k	n/a
56.5165	0.089	113033	keystroke	s	n/a
56.7105	0.06	113421	keystroke	Key.space	n/a
56.9205	0.075	113841	keystroke	m	n/a
57.0855	0.06	114171	keystroke	i	n/a
57.2205	0.075	114441	keystroke	n	n/a
57.3555	0.09	114711	keystroke	i	n/a
57.5805	0.09	115161	keystroke	s	n/a
57.8055	0.061	115611	keystroke	t	n/a
58.0005	0.06	116001	keystroke	r	n/a
58.0755	0.106	116151	keystroke	y	n/a
58.4955	0.06	116991	keystroke	Key.enter	n/a
58.561	7.2115	117122	prompt	n/a	tract unable clark ghost\n
59.5155	0.09	119031	keystroke	t	n/a
59.7405	0.046	119481	keystroke	r	n/a
59.9055	0.105	119811	keystroke	a	n/a
60.1155	0.105	120231	keystroke	c	n/a
60.4155	0.09	120831	keystroke	t	n/a
60.5355	0.09	121071	keystroke	Key.space	n/a
60.8215	0.059	121643	keystroke	u	n/a
61.0605	0.09	122121	keystroke	n	n/a
61.2405	0.09	122481	keystroke	a	n/a
61.3605	0.075	122721	keystroke	b	n/a
61.6165	0.044	123233	keystroke	l	n/a
61.7205	0.061	123441	keystroke	e	n/a
61.7955	0.09	123591	keystroke	Key.space	n/a
61.9605	0.09	123921	keystroke	c	n/a
62.1105	0.075	124221	keystroke	l	n/a
62.2305	0.09	124461	keystroke	a	n/a
62.4115	0.104	124823	keystroke	r	n/a
62.5605	0.046	125121	keystroke	k	n/a
62.6505	0.105	125301	keystroke	Key.space	n/a
62.8765	0.104	125753	keystroke	g	n/a
63.0255	0.075	126051	keystroke	h	n/a
63.5655	0.076	127131	keystroke	o	n/a
63.7755	0.105	127551	keystroke	s	n/a
64.3305	0.105	128661	keystroke	t	n/a
65.6505	0.12	131301	keystroke	Key.enter	n/a
65.7755	9.3875	131551	prompt	n/a	vast because chronicle bloom\n
66.7005	0.06	133401	keystroke	v	n/a
66.9255	0.12	133851	keystroke	a	n/a
67.0905	0.106	134181	keystroke	s	n/a
67.3305	0.075	134661	keystroke	t	n/a
67.4355	0.09	134871	keystroke	Key.space	n/a
67.6905	0.09	135381	keystroke	b	n/a
67.8115	0.075	135623	keystroke	e	n/a
68.0805	0.061	136161	keystroke	c	n/a
68.2605	0.105	136521	keystroke	a	n/a
68.4115	0.06	136823	keystroke	u	n/a
68.5015	0.089	137003	keystroke	s	n/a
68.6805	0.091	137361	keystroke	e	n/a
68.8165	0.089	137633	keystroke	Key.space	n/a
69.0265	0.09	138053	keystroke	c	n/a
69.1615	0.105	138323	keystroke	h	n/a
69.4305	0.06	138861	keystroke	r	n/a
69.6565	0.045	139313	keystroke	i	n/a
70.1815	0.029	140363	keystroke	n	n/a
70.9915	0.06	141983	keystroke	Key.backspace	n/a
71.1565	0.059	142313	keystroke	Key.backspace	n/a
71.4265	0.075	142853	keystroke	o	n/a
71.6665	0.074	143333	keystroke	n	n/a
72.2805	0.076	144561	keystroke	i	n/a
72.5515	0.09	145103	keystroke	c	n/a
72.6865	0.075	145373	keystroke	l	n/a
72.8665	0.09	145733	keystroke	e	n/a
73.0615	0.105	146123	keystroke	Key.space	n/a
73.4065	0.075	146813	keystroke	b	n/a
73.7065	0.06	147413	keystroke	l	n/a
73.9165	0.06	147833	keystroke	o	n/a
74.0515	0.075	148103	keystroke	o	n/a
74.3065	0.09	148613	keystroke	m	n/a
75.0715	0.09	150143	keystroke	Key.enter	n/a
75.168	9.28	150336	prompt	n/a	rates tucson royal abuse\n
76.0315	0.045	152063	keystroke	r	n/a
76.3465	0.105	152693	keystroke	a	n/a
76.5865	0.105	153173	keystroke	t	n/a
76.7965	0.09	153593	keystroke	e	n/a
77.0665	0.09	154133	keystroke	s	n/a
77.2015	0.09	154403	keystroke	Key.space	n/a
77.4565	0.09	154913	keystroke	t	n/a
77.7565	0.06	155513	keystroke	u	n/a
78.0565	0.09	156113	keystroke	c	n/a
78.3265	0.09	156653	keystroke	s	n/a
78.5365	0.075	157073	keystroke	o	n/a
78.7915	0.06	157583	keystroke	n	n/a
78.8815	0.09	157763	keystroke	Key.space	n/a
79.2115	0.045	158423	keystroke	r	n/a
79.6315	0.09	159263	keystroke	o	n/a
79.8565	0.09	159713	keystroke	y	n/a
80.1565	0.09	160313	keystroke	a	n/a
80.2615	0.105	160523	keystroke	l	n/a
80.5615	0.09	161123	keystroke	Key.space	n/a
80.7565	0.09	161513	keystroke	a	n/a
80.8615	0.06	161723	keystroke	b	n/a
81.0115	0.09	162023	keystroke	u	n/a
81.1615	0.075	162323	keystroke	s	n/a
81.3565	0.075	162713	keystroke	e	n/a
82.3015	0.09	164603	keystroke	Key.shift_r	n/a
84.3565	0.09	168713	keystroke	Key.enter	n/a
84.451	9.6865	168902	prompt	n/a	who'd hopes diesel desire\n
86.1565	0.075	172313	keystroke	w	n/a
86.2465	0.105	172493	keystroke	h	n/a
86.6215	0.06	173243	keystroke	o	n/a
87.1015	0.105	174203	keystroke	'	n/a
87.5365	0.075	175073	keystroke	d	n/a
88.2115	0.09	176423	keystroke	Key.space	n/a
88.4365	0.09	176873	keystroke	h	n/a
88.6615	0.09	177323	keystroke	o	n/a
88.9015	0.06	177803	keystroke	p	n/a
89.0515	0.075	178103	keystroke	e	n/a
89.3965	0.09	178793	keystroke	s	n/a
89.9215	0.105	179843	keystroke	Key.space	n/a
90.2665	0.105	180533	keystroke	d	n/a
90.5515	0.09	181103	keystroke	i	n/a
90.7315	0.075	181463	keystroke	e	n/a
91.3465	0.09	182693	keystroke	s	n/a
91.5715	0.105	183143	keystroke	e	n/a
91.6615	0.105	183323	keystroke	l	n/a
91.8715	0.075	183743	keystroke	Key.space	n/a
92.2465	0.09	184493	keystroke	d	n/a
92.4415	0.09	184883	keystroke	e	n/a
92.6965	0.075	185393	keystroke	s	n/a
92.8015	0.09	185603	keystroke	i	n/a
92.9965	0.09	185993	keystroke	r	n/a
93.1015	0.09	186203	keystroke	e	n/a
94.0465	0.09	188093	keystroke	Key.enter	n/a
94.1405	11.6975	188281	prompt	n/a	bracelets drew magnificent inspections\n
96.7485	0.013	193497	keystroke	b	n/a
97.0015	0.06	194003	keystroke	r	n/a
97.4365	0.09	194873	keystroke	a	n/a
97.7665	0.075	195533	keystroke	c	n/a
98.0665	0.09	196133	keystroke	e	n/a
99.2965	0.075	198593	keystroke	l	n/a
99.5365	0.075	199073	keystroke	e	n/a
99.6565	0.105	199313	keystroke	t	n/a
99.9715	0.075	199943	keystroke	s	n/a
100.0915	0.09	200183	keystroke	Key.space	n/a
100.3465	0.06	200693	keystroke	d	n/a
100.5415	0.12	201083	keystroke	r	n/a
100.6765	0.105	201353	keystroke	e	n/a
100.9165	0.105	201833	keystroke	w	n/a
101.0965	0.09	202193	keystroke	Key.space	n/a
101.3815	0.09	202763	keystroke	m	n/a
101.5315	0.09	203063	keystroke	a	n/a
101.7265	0.075	203453	keystroke	g	n/a
102.0115	0.075	204023	keystroke	n	n/a
102.1615	0.075	204323	keystroke	i	n/a
102.3415	0.09	204683	keystroke	f	n/a
102.4765	0.075	204953	keystroke	i	n/a
102.6865	0.075	205373	keystroke	c	n/a
102.9715	0.09	205943	keystroke	e	n/a
103.0765	0.12	206153	keystroke	n	n/a
103.2265	0.075	206453	keystroke	t	n/a
103.3615	0.06	206723	keystroke	Key.space	n/a
103.5265	0.045	207053	keystroke	i	n/a
103.7065	0.075	207413	keystroke	n	n/a
103.8265	0.09	207653	keystroke	s	n/a
103.9765	0.075	207953	keystroke	p	n/a
104.1265	0.075	208253	keystroke	e	n/a
104.3965	0.09	208793	keystroke	c	n/a
104.6665	0.09	209333	keystroke	t	n/a
104.7715	0.09	209543	keystroke	i	n/a
104.9815	0.045	209963	keystroke	o	n/a
105.1465	0.06	210293	keystroke	n	n/a
105.2815	0.075	210563	keystroke	s	n/a
105.7615	0.075	211523	keystroke	Key.enter	n/a
105.841	10.2425	211682	prompt	n/a	deviant witness rotation producing\n
106.6315	0.09	213263	keystroke	d	n/a
106.8115	0.09	213623	keystroke	e	n/a
107.0365	0.09	214073	keystroke	v	n/a
107.1565	0.075	214313	keystroke	i	n/a
107.3515	0.09	214703	keystroke	a	n/a
107.4565	0.165	214913	keystroke	n	n/a
107.6965	0.09	215393	keystroke	t	n/a
107.9215	0.09	215843	keystroke	Key.space	n/a
109.1215	0.09	218243	keystroke	w	n/a
109.3615	0.06	218723	keystroke	i	n/a
109.6915	0.06	219383	keystroke	t	n/a
109.9615	0.06	219923	keystroke	n	n/a
110.0815	0.06	220163	keystroke	e	n/a
110.4715	0.075	220943	keystroke	s	n/a
110.6815	0.06	221363	keystroke	s	n/a
110.8165	0.09	221633	keystroke	Key.space	n/a
111.1465	0.09	222293	keystroke	r	n/a
111.2515	0.075	222503	keystroke	o	n/a
111.4315	0.075	222863	keystroke	t	n/a
111.7015	0.06	223403	keystroke	a	n/a
111.9115	0.075	223823	keystroke	t	n/a
112.0165	0.06	224033	keystroke	i	n/a
112.2265	0.09	224453	keystroke	o	n/a
112.4665	0.09	224933	keystroke	n	n/a
112.6015	0.09	225203	keystroke	Key.space	n/a
112.8565	0.075	225713	keystroke	p	n/a
113.1115	0.045	226223	keystroke	r	n/a
113.2315	0.075	226463	keystroke	o	n/a
113.5765	0.03	227153	keystroke	d	n/a
113.6365	0.075	227273	keystroke	u	n/a
114.1915	0.06	228383	keystroke	c	n/a
114.5365	0.06	229073	keystroke	i	n/a
114.7015	0.09	229403	keystroke	n	n/a
114.8515	0.06	229703	keystroke	g	n/a
115.9765	0.105	231953	keystroke	Key.enter	n/a
116.087	15.295	232174	prompt	n/a	currently slope walker remainder\n
123.1175	0.013	246235	keystroke	c	n/a
123.2055	0.075	246411	keystroke	u	n/a
123.6405	0.06	247281	keystroke	r	n/a
123.7755	0.09	247551	keystroke	r	n/a
123.9705	0.09	247941	keystroke	e	n/a
124.0605	0.09	248121	keystroke	n	n/a
124.2405	0.06	248481	keystroke	t	n/a
124.3155	0.075	248631	keystroke	l	n/a
124.5705	0.015	249141	keystroke	y	n/a
124.6455	0.045	249291	keystroke	Key.space	n/a
125.0055	0.075	250011	keystroke	s	n/a
125.1255	0.06	250251	keystroke	l	n/a
125.3205	0.045	250641	keystroke	o	n/a
125.4855	0.06	250971	keystroke	p	n/a
125.6655	0.105	251331	keystroke	e	n/a
125.8305	0.075	251661	keystroke	Key.space	n/a
126.0705	0.06	252141	keystroke	w	n/a
126.2355	0.105	252471	keystroke	a	n/a
126.4155	0.075	252831	keystroke	l	n/a
126.9705	0.09	253941	keystroke	k	n/a
127.1655	0.015	254331	keystroke	e	n/a
127.5405	0.075	255081	keystroke	r	n/a
127.6305	0.09	255261	keystroke	Key.space	n/a
127.8405	0.09	255681	keystroke	r	n/a
127.9755	0.09	255951	keystroke	e	n/a
128.1255	0.105	256251	keystroke	m	n/a
128.3055	0.105	256611	keystroke	a	n/a
128.4255	0.075	256851	keystroke	i	n/a
128.5905	0.09	257181	keystroke	n	n/a
128.7105	0.075	257421	keystroke	e	n/a
129.2955	0.06	258591	keystroke	Key.backspace	n/a
129.5805	0.075	259161	keystroke	d	n/a
129.7455	0.12	259491	keystroke	e	n/a
129.8665	0.119	259733	keystroke	r	n/a
131.2755	0.105	262551	keystroke	Key.enter	n/a
131.385	10.347	262770	prompt	n/a	adult reasons sucking submission\n
132.8055	0.075	265611	keystroke	a	n/a
133.0455	0.105	266091	keystroke	d	n/a
133.1655	0.075	266331	keystroke	u	n/a
133.3905	0.075	266781	keystroke	l	n/a
133.5255	0.09	267051	keystroke	t	n/a
133.7055	0.075	267411	keystroke	Key.space	n/a
135.0105	0.105	270021	keystroke	r	n/a
135.1755	0.105	270351	keystroke	e	n/a
135.4305	0.105	270861	keystroke	a	n/a
135.6405	0.075	271281	keystroke	s	n/a
135.7605	0.075	271521	keystroke	o	n/a
135.9705	0.09	271941	keystroke	n	n/a
136.1955	0.075	272391	keystroke	s	n/a
136.3155	0.075	272631	keystroke	Key.space	n/a
136.4505	0.135	272901	keystroke	s	n/a
136.6005	0.075	273201	keystroke	u	n/a
136.7805	0.105	273561	keystroke	c	n/a
136.9005	0.075	273801	keystroke	k	n/a
137.0955	0.045	274191	keystroke	i	n/a
137.2605	0.06	274521	keystroke	n	n/a
137.4105	0.105	274821	keystroke	g	n/a
137.5305	0.09	275061	keystroke	Key.space	n/a
137.7705	0.075	275541	keystroke	s	n/a
137.8605	0.075	275721	keystroke	u	n/a
138.0555	0.06	276111	keystroke	b	n/a
138.2805	0.06	276561	keystroke	m	n/a
138.4305	0.09	276861	keystroke	i	n/a
138.5955	0.075	277191	keystroke	s	n/a
138.7755	0.06	277551	keystroke	s	n/a
138.8805	0.06	277761	keystroke	i	n/a
139.0455	0.06	278091	keystroke	o	n/a
139.2105	0.06	278421	keystroke	n	n/a
139.3155	0.075	278631	keystroke	s	n/a
140.1405	0.045	280281	keystroke	Key.backspace	n/a
141.6255	0.105	283251	keystroke	Key.enter	n/a
141.736	13.9765	283472	prompt	n/a	production boolean analyzed collections\n
143.2305	0.075	286461	keystroke	p	n/a
143.3955	0.09	286791	keystroke	r	n/a
143.5155	0.075	287031	keystroke	o	n/a
143.7555	0.09	287511	keystroke	d	n/a
143.9055	0.075	287811	keystroke	u	n/a
144.1755	0.09	288351	keystroke	c	n/a
144.5655	0.105	289131	keystroke	i	n/a
144.8655	0.09	289731	keystroke	o	n/a
145.2105	0.06	290421	keystroke	n	n/a
145.5405	0.075	291081	keystroke	Key.backspace	n/a
145.7205	0.06	291441	keystroke	Key.backspace	n/a
145.8555	0.105	291711	keystroke	Key.backspace	n/a
147.4305	0.09	294861	keystroke	t	n/a
147.6405	0.075	295281	keystroke	i	n/a
147.8505	0.06	295701	keystroke	o	n/a
148.0755	0.06	296151	keystroke	n	n/a
148.1805	0.06	296361	keystroke	Key.space	n/a
148.3605	0.06	296721	keystroke	b	n/a
148.6005	0.06	297201	keystroke	o	n/a
148.7355	0.075	297471	keystroke	o	n/a
148.9755	0.06	297951	keystroke	l	n/a
149.0955	0.09	298191	keystroke	e	n/a
149.3655	0.105	298731	keystroke	a	n/a
149.5005	0.09	299001	keystroke	n	n/a
149.6355	0.075	299271	keystroke	Key.space	n/a
149.8455	0.06	299691	keystroke	a	n/a
149.8905	0.105	299781	keystroke	n	n/a
150.1155	0.075	300231	keystroke	a	n/a
151.4955	0.09	302991	keystroke	l	n/a
151.8855	0.09	303771	keystroke	y	n/a
152.1555	0.09	304311	keystroke	z	n/a
152.4255	0.09	304851	keystroke	e	n/a
152.6805	0.105	305361	keystroke	d	n/a
152.8005	0.09	305601	keystroke	Key.space	n/a
153.0705	0.075	306141	keystroke	c	n/a
153.1905	0.06	306381	keystroke	o	n/a
153.4905	0.015	306981	keystroke	l	n/a
153.5955	0.09	307191	keystroke	l	n/a
154.0755	0.075	308151	keystroke	e	n/a
154.3155	0.09	308631	keystroke	c	n/a
154.5855	0.105	309171	keystroke	t	n/a
154.7055	0.075	309411	keystroke	i	n/a
154.8855	0.06	309771	keystroke	o	n/a
155.0655	0.075	310131	keystroke	n	n/a
155.2155	0.09	310431	keystroke	s	n/a
155.6205	0.09	311241	keystroke	Key.enter	n/a
155.7155	9.432	311431	prompt	n/a	cigarette connectivity otherwise encoding\n
156.6705	0.09	313341	keystroke	c	n/a
156.7755	0.075	313551	keystroke	i	n/a
157.0455	0.075	314091	keystroke	g	n/a
157.1805	0.105	314361	keystroke	a	n/a
157.3905	0.105	314781	keystroke	r	n/a
157.6905	0.015	315381	keystroke	e	n/a
157.8705	0.06	315741	keystroke	t	n/a
158.0055	0.09	316011	keystroke	t	n/a
158.2155	0.075	316431	keystroke	e	n/a
158.3505	0.09	316701	keystroke	Key.space	n/a
158.5455	0.12	317091	keystroke	c	n/a
158.6805	0.06	317361	keystroke	o	n/a
158.8905	0.06	317781	keystroke	n	n/a
159.0255	0.06	318051	keystroke	n	n/a
159.1305	0.09	318261	keystroke	e	n/a
159.3255	0.12	318651	keystroke	c	n/a
159.5955	0.09	319191	keystroke	t	n/a
159.7455	0.09	319491	keystroke	i	n/a
159.9405	0.075	319881	keystroke	v	n/a
160.0905	0.06	320181	keystroke	i	n/a
160.5855	0.075	321171	keystroke	t	n/a
160.6905	0.105	321381	keystroke	y	n/a
160.9755	0.06	321951	keystroke	Key.space	n/a
161.1855	0.06	322371	keystroke	o	n/a
161.3355	0.105	322671	keystroke	t	n/a
161.4555	0.09	322911	keystroke	h	n/a
161.5755	0.12	323151	keystroke	e	n/a
161.6805	0.15	323361	keystroke	r	n/a
162.0855	0.075	324171	keystroke	w	n/a
162.1755	0.09	324351	keystroke	i	n/a
162.3405	0.105	324681	keystroke	s	n/a
162.5505	0.105	325101	keystroke	e	n/a
162.6855	0.075	325371	keystroke	Key.space	n/a
162.9405	0.09	325881	keystroke	e	n/a
163.0605	0.09	326121	keystroke	n	n/a
163.3305	0.09	326661	keystroke	c	n/a
163.4805	0.06	326961	keystroke	o	n/a
163.7205	0.075	327441	keystroke	d	n/a
163.8255	0.06	327651	keystroke	i	n/a
163.9905	0.075	327981	keystroke	n	n/a
164.1255	0.075	328251	keystroke	g	n/a
165.0705	0.075	330141	keystroke	Key.enter	n/a
165.151	8.8915	330302	prompt	n/a	change feed deployment precious\n
166.3005	0.09	332601	keystroke	x	n/a
166.5105	0.105	333021	keystroke	h	n/a
167.6505	0.105	335301	keystroke	Key.backspace	n/a
167.9655	0.09	335931	keystroke	Key.backspace	n/a
168.4005	0.075	336801	keystroke	c	n/a
168.5355	0.075	337071	keystroke	h	n/a
168.7455	0.09	337491	keystroke	a	n/a
168.8205	0.09	337641	keystroke	n	n/a
169.0605	0.075	338121	keystroke	g	n/a
169.2255	0.075	338451	keystroke	e	n/a
169.3455	0.075	338691	keystroke	Key.space	n/a
169.5405	0.075	339081	keystroke	f	n/a
169.7505	0.06	339501	keystroke	e	n/a
169.9005	0.075	339801	keystroke	e	n/a
170.1105	0.09	340221	keystroke	d	n/a
170.2455	0.075	340491	keystroke	Key.space	n/a
170.4105	0.09	340821	keystroke	d	n/a
170.5755	0.105	341151	keystroke	e	n/a
170.7405	0.075	341481	keystroke	p	n/a
170.9805	0.06	341961	keystroke	l	n/a
171.1455	0.075	342291	keystroke	o	n/a
171.3405	0.09	342681	keystroke	y	n/a
171.6105	0.075	343221	keystroke	m	n/a
171.7305	0.105	343461	keystroke	e	n/a
171.8365	0.104	343673	keystroke	n	n/a
172.0005	0.09	344001	keystroke	t	n/a
172.1655	0.09	344331	keystroke	Key.space	n/a
172.5855	0.075	345171	keystroke	p	n/a
172.7055	0.12	345411	keystroke	r	n/a
172.8405	0.075	345681	keystroke	e	n/a
173.0805	0.09	346161	keystroke	c	n/a
173.1855	0.075	346371	keystroke	i	n/a
173.3655	0.09	346731	keystroke	o	n/a
173.4705	0.075	346941	keystroke	u	n/a
173.6205	0.09	347241	keystroke	s	n/a
173.9655	0.075	347931	keystroke	Key.enter	n/a
174.0455	7.5125	348091	prompt	n/a	twice occasional thinks told\n
174.8205	0.12	349641	keystroke	t	n/a
175.1355	0.09	350271	keystroke	w	n/a
175.2555	0.075	350511	keystroke	i	n/a
175.4355	0.09	350871	keystroke	c	n/a
175.6155	0.06	351231	keystroke	e	n/a
175.6905	0.09	351381	keystroke	Key.space	n/a
175.9155	0.06	351831	keystroke	o	n/a
176.0355	0.075	352071	keystroke	c	n/a
176.1855	0.09	352371	keystroke	c	n/a
176.4105	0.09	352821	keystroke	a	n/a
176.6055	0.09	353211	keystroke	s	n/a
176.7105	0.075	353421	keystroke	i	n/a
176.9055	0.045	353811	keystroke	o	n/a
177.0555	0.075	354111	keystroke	n	n/a
177.1905	0.105	354381	keystroke	a	n/a
177.3405	0.06	354681	keystroke	l	n/a
177.4455	0.075	354891	keystroke	Key.space	n/a
177.6255	0.091	355251	keystroke	t	n/a
177.8205	0.09	355641	keystroke	h	n/a
178.7805	0.075	357561	keystroke	i	n/a
178.9305	0.105	357861	keystroke	n	n/a
179.1555	0.075	358311	keystroke	k	n/a
179.3505	0.105	358701	keystroke	s	n/a
179.5005	0.075	359001	keystroke	Key.space	n/a
179.7105	0.076	359421	keystroke	t	n/a
179.8455	0.075	359691	keystroke	o	n/a
180.0715	0.074	360143	keystroke	l	n/a
180.2505	0.091	360501	keystroke	d	n/a
181.4355	0.12	362871	keystroke	Key.enter	n/a
181.561	6.6865	363122	prompt	n/a	espn maiden buildings rain\n
182.5755	0.075	365151	keystroke	e	n/a
182.8465	0.089	365693	keystroke	s	n/a
182.9955	0.075	365991	keystroke	p	n/a
183.2665	0.089	366533	keystroke	n	n/a
183.4455	0.09	366891	keystroke	Key.space	n/a
183.8065	0.089	367613	keystroke	m	n/a
184.1955	0.105	368391	keystroke	a	n/a
184.4355	0.106	368871	keystroke	i	n/a
184.7055	0.105	369411	keystroke	d	n/a
184.9465	0.104	369893	keystroke	e	n/a
185.0365	0.104	370073	keystroke	n	n/a
185.1555	0.075	370311	keystroke	Key.space	n/a
185.3355	0.075	370671	keystroke	b	n/a
185.4555	0.136	370911	keystroke	u	n/a
185.6955	0.075	371391	keystroke	i	n/a
185.9065	0.075	371813	keystroke	l	n/a
186.0855	0.105	372171	keystroke	d	n/a
186.2205	0.076	372441	keystroke	i	n/a
186.3705	0.09	372741	keystroke	n	n/a
186.5205	0.076	373041	keystroke	g	n/a
186.7755	0.09	373551	keystroke	s	n/a
186.8805	0.09	373761	keystroke	Key.space	n/a
187.0755	0.076	374151	keystroke	r	n/a
187.2555	0.091	374511	keystroke	a	n/a
187.3765	0.059	374753	keystroke	i	n/a
187.5565	0.089	375113	keystroke	n	n/a
188.1405	0.105	376281	keystroke	Key.enter	n/a
188.2525	7.42	376505	prompt	n/a	pools sara bodies characteristic\n
189.2515	0.09	378503	keystroke	p	n/a
189.5055	0.06	379011	keystroke	o	n/a
189.6405	0.091	379281	keystroke	o	n/a
189.8805	0.091	379761	keystroke	l	n/a
190.0615	0.089	380123	keystroke	s	n/a
190.2105	0.105	380421	keystroke	Key.space	n/a
190.5405	0.09	381081	keystroke	s	n/a
190.7205	0.105	381441	keystroke	a	n/a
190.9155	0.09	381831	keystroke	r	n/a
191.1115	0.105	382223	keystroke	a	n/a
191.2165	0.075	382433	keystroke	Key.space	n/a
191.3965	0.075	382793	keystroke	b	n/a
191.6205	0.06	383241	keystroke	o	n/a
191.7705	0.09	383541	keystroke	d	n/a
191.8765	0.104	383753	keystroke	i	n/a
191.9965	0.059	383993	keystroke	e	n/a
192.2065	0.059	384413	keystroke	s	n/a
192.3265	0.089	384653	keystroke	Key.space	n/a
192.4605	0.09	384921	keystroke	c	n/a
192.5955	0.075	385191	keystroke	h	n/a
192.7165	0.104	385433	keystroke	a	n/a
192.8965	0.105	385793	keystroke	r	n/a
193.1055	0.106	386211	keystroke	a	n/a
193.3915	0.075	386783	keystroke	c	n/a
193.6915	0.06	387383	keystroke	t	n/a
193.8565	0.09	387713	keystroke	e	n/a
193.9165	0.12	387833	keystroke	r	n/a
194.1405	0.076	388281	keystroke	i	n/a
194.3515	0.09	388703	keystroke	s	n/a
194.5755	0.076	389151	keystroke	t	n/a
194.6965	0.09	389393	keystroke	i	n/a
194.9515	0.075	389903	keystroke	c	n/a
195.5815	0.09	391163	keystroke	Key.enter	n/a
195.6755	43.0775	391351	prompt	n/a	submitted contribution floor bridges\n
230.773	0.028	461546	keystroke	s	n/a
230.831	0.105	461662	keystroke	u	n/a
231.101	0.09	462202	keystroke	b	n/a
231.356	0.09	462712	keystroke	m	n/a
231.491	0.12	462982	keystroke	i	n/a
231.716	0.06	463432	keystroke	t	n/a
231.836	0.075	463672	keystroke	t	n/a
232.031	0.09	464062	keystroke	e	n/a
232.256	0.09	464512	keystroke	d	n/a
232.361	0.09	464722	keystroke	Key.space	n/a
232.661	0.09	465322	keystroke	c	n/a
232.736	0.075	465472	keystroke	o	n/a
232.931	0.06	465862	keystroke	n	n/a
233.051	0.105	466102	keystroke	t	n/a
233.231	0.09	466462	keystroke	r	n/a
233.351	0.09	466702	keystroke	i	n/a
233.516	0.075	467032	keystroke	b	n/a
233.636	0.09	467272	keystroke	u	n/a
233.786	0.09	467572	keystroke	t	n/a
233.921	0.045	467842	keystroke	i	n/a
234.071	0.06	468142	keystroke	o	n/a
234.236	0.075	468472	keystroke	n	n/a
234.311	0.075	468622	keystroke	Key.space	n/a
234.461	0.09	468922	keystroke	f	n/a
234.536	0.09	469072	keystroke	l	n/a
234.716	0.075	469432	keystroke	o	n/a
234.851	0.09	469702	keystroke	o	n/a
235.151	0.075	470302	keystroke	r	n/a
235.316	0.075	470632	keystroke	Key.space	n/a
235.871	0.075	471742	keystroke	b	n/a
236.216	0.075	472432	keystroke	r	n/a
236.321	0.075	472642	keystroke	i	n/a
236.531	0.075	473062	keystroke	d	n/a
236.711	0.075	473422	keystroke	g	n/a
236.831	0.075	473662	keystroke	e	n/a
237.056	0.105	474112	keystroke	s	n/a
237.431	0.075	474862	keystroke	Key.shift_r	n/a
238.646	0.105	477292	keystroke	Key.enter	n/a
238.767	7.965	477534	prompt	n/a	controlled strings medications mistress\n
239.711	0.12	479422	keystroke	c	n/a
240.026	0.075	480052	keystroke	o	n/a
240.221	0.105	480442	keystroke	n	n/a
240.401	0.09	480802	keystroke	t	n/a
240.596	0.075	481192	keystroke	r	n/a
240.686	0.09	481372	keystroke	o	n/a
240.911	0.045	481822	keystroke	l	n/a
241.061	0.075	482122	keystroke	l	n/a
241.181	0.075	482362	keystroke	e	n/a
241.391	0.09	482782	keystroke	d	n/a
241.511	0.09	483022	keystroke	Key.space	n/a
241.751	0.12	483502	keystroke	s	n/a
242.006	0.075	484012	keystroke	t	n/a
242.216	0.09	484432	keystroke	r	n/a
242.351	0.075	484702	keystroke	i	n/a
242.516	0.09	485032	keystroke	n	n/a
242.621	0.09	485242	keystroke	g	n/a
242.891	0.105	485782	keystroke	s	n/a
243.011	0.075	486022	keystroke	Key.space	n/a
243.191	0.135	486382	keystroke	m	n/a
243.386	0.105	486772	keystroke	e	n/a
243.656	0.075	487312	keystroke	d	n/a
243.791	0.06	487582	keystroke	i	n/a
243.926	0.075	487852	keystroke	c	n/a
244.106	0.105	488212	keystroke	a	n/a
244.376	0.06	488752	keystroke	t	n/a
244.451	0.09	488902	keystroke	i	n/a
244.646	0.0595	489292	keystroke	o	n/a
244.8255	0.075	489651	keystroke	n	n/a
244.9455	0.09	489891	keystroke	s	n/a
245.0955	0.06	490191	keystroke	Key.space	n/a
245.2305	0.09	490461	keystroke	m	n/a
245.4105	0.09	490821	keystroke	i	n/a
245.5305	0.075	491061	keystroke	s	n/a
245.7705	0.075	491541	keystroke	t	n/a
245.9055	0.09	491811	keystroke	r	n/a
246.0105	0.12	492021	keystroke	e	n/a
246.2805	0.075	492561	keystroke	s	n/a
246.4305	0.09	492861	keystroke	s	n/a
246.6105	0.12	493221	keystroke	Key.enter	n/a
246.735	9.1775	493470	prompt	n/a	dinner downloading conceptual delivering\n
247.7205	0.09	495441	keystroke	d	n/a
247.8555	0.075	495711	keystroke	i	n/a
248.0655	0.03	496131	keystroke	n	n/a
248.1705	0.06	496341	keystroke	n	n/a
248.2755	0.105	496551	keystroke	e	n/a
248.4555	0.09	496911	keystroke	r	n/a
248.5755	0.075	497151	keystroke	Key.space	n/a
248.7405	0.105	497481	keystroke	d	n/a
248.8305	0.09	497661	keystroke	o	n/a
248.9805	0.09	497961	keystroke	w	n/a
249.0555	0.075	498111	keystroke	n	n/a
249.2505	0.075	498501	keystroke	l	n/a
249.4005	0.075	498801	keystroke	o	n/a
249.5055	0.105	499011	keystroke	a	n/a
249.6555	0.12	499311	keystroke	d	n/a
249.7605	0.09	499521	keystroke	i	n/a
249.9405	0.09	499881	keystroke	n	n/a
250.0155	0.09	500031	keystroke	g	n/a
250.1355	0.075	500271	keystroke	Key.space	n/a
250.2405	0.15	500481	keystroke	c	n/a
250.3455	0.075	500691	keystroke	o	n/a
250.5555	0.075	501111	keystroke	n	n/a
250.6455	0.075	501291	keystroke	c	n/a
250.7955	0.09	501591	keystroke	e	n/a
250.9455	0.045	501891	keystroke	p	n/a
251.1705	0.075	502341	keystroke	t	n/a
251.3205	0.09	502641	keystroke	u	n/a
251.5005	0.105	503001	keystroke	a	n/a
251.6205	0.075	503241	keystroke	l	n/a
251.8155	0.09	503631	keystroke	Key.space	n/a
252.0105	0.075	504021	keystroke	d	n/a
252.1905	0.06	504381	keystroke	e	n/a
252.3105	0.06	504621	keystroke	l	n/a
252.4755	0.075	504951	keystroke	i	n/a
252.5805	0.06	505161	keystroke	v	n/a
252.7305	0.12	505461	keystroke	e	n/a
252.8655	0.09	505731	keystroke	r	n/a
252.9705	0.06	505941	keystroke	y	n/a
253.8405	0.06	507681	keystroke	Key.backspace	n/a
254.7105	0.06	509421	keystroke	i	n/a
254.9055	0.105	509811	keystroke	n	n/a
255.1155	0.075	510231	keystroke	g	n/a
255.8205	0.09	511641	keystroke	Key.enter	n/a
255.915	9.0725	511830	prompt	n/a	acrylic provinces needle minnesota\n
257.2605	0.12	514521	keystroke	a	n/a
257.5155	0.105	515031	keystroke	c	n/a
257.8305	0.09	515661	keystroke	r	n/a
257.9215	0.104	515843	keystroke	y	n/a
258.5955	0.075	517191	keystroke	l	n/a
258.7905	0.09	517581	keystroke	i	n/a
258.9855	0.09	517971	keystroke	c	n/a
259.3155	0.075	518631	keystroke	Key.space	n/a
259.8255	0.09	519651	keystroke	p	n/a
260.0055	0.09	520011	keystroke	r	n/a
260.0805	0.09	520161	keystroke	o	n/a
260.3055	0.09	520611	keystroke	v	n/a
260.4105	0.075	520821	keystroke	i	n/a
260.5905	0.075	521181	keystroke	n	n/a
260.7105	0.06	521421	keystroke	c	n/a
260.8305	0.09	521661	keystroke	e	n/a
261.1005	0.105	522201	keystroke	s	n/a
261.2505	0.09	522501	keystroke	Key.space	n/a
261.7455	0.075	523491	keystroke	n	n/a
261.8655	0.075	523731	keystroke	e	n/a
262.0155	0.075	524031	keystroke	e	n/a
262.2105	0.06	524421	keystroke	d	n/a
262.3155	0.06	524631	keystroke	l	n/a
262.4805	0.075	524961	keystroke	e	n/a
262.6005	0.075	525201	keystroke	Key.space	n/a
262.7655	0.105	525531	keystroke	m	n/a
262.9455	0.075	525891	keystroke	i	n/a
263.3805	0.06	526761	keystroke	n	n/a
263.5005	0.075	527001	keystroke	n	n/a
263.6955	0.075	527391	keystroke	e	n/a
264.0705	0.045	528141	keystroke	s	n/a
264.1305	0.09	528261	keystroke	o	n/a
264.4305	0.09	528861	keystroke	t	n/a
264.7005	0.105	529401	keystroke	a	n/a
264.8655	0.12	529731	keystroke	Key.enter	n/a
264.9905	10.932	529981	prompt	n/a	they're mixing merchants institutes\n
266.0805	0.075	532161	keystroke	t	n/a
266.1705	0.105	532341	keystroke	h	n/a
266.3055	0.105	532611	keystroke	e	n/a
266.4705	0.075	532941	keystroke	y	n/a
266.8755	0.09	533751	keystroke	;	n/a
268.0755	0.105	536151	keystroke	Key.backspace	n/a
268.7205	0.09	537441	keystroke	'	n/a
269.2905	0.105	538581	keystroke	r	n/a
269.4255	0.12	538851	keystroke	e	n/a
269.6505	0.09	539301	keystroke	Key.space	n/a
269.9505	0.09	539901	keystroke	m	n/a
270.1155	0.12	540231	keystroke	i	n/a
270.5205	0.105	541041	keystroke	x	n/a
270.6405	0.075	541281	keystroke	i	n/a
270.8055	0.105	541611	keystroke	n	n/a
270.9855	0.12	541971	keystroke	g	n/a
271.1205	0.09	542241	keystroke	Key.space	n/a
271.2855	0.105	542571	keystroke	m	n/a
271.4205	0.09	542841	keystroke	e	n/a
271.5855	0.075	543171	keystroke	r	n/a
271.8105	0.105	543621	keystroke	c	n/a
271.9165	0.089	543833	keystroke	h	n/a
272.0655	0.105	544131	keystroke	a	n/a
272.1405	0.105	544281	keystroke	n	n/a
272.3355	0.075	544671	keystroke	t	n/a
272.5305	0.105	545061	keystroke	s	n/a
272.6505	0.075	545301	keystroke	Key.space	n/a
272.7855	0.09	545571	keystroke	i	n/a
272.9665	0.119	545933	keystroke	n	n/a
273.2505	0.12	546501	keystroke	s	n/a
273.5205	0.075	547041	keystroke	t	n/a
273.6855	0.075	547371	keystroke	i	n/a
274.1815	0.074	548363	keystroke	t	n/a
274.2705	0.09	548541	keystroke	u	n/a
274.5705	0.075	549141	keystroke	t	n/a
274.7505	0.09	549501	keystroke	e	n/a
275.0055	0.075	550011	keystroke	s	n/a
275.8005	0.12	551601	keystroke	Key.enter	n/a
275.9255	15.387	551851	prompt	n/a	innocent laboratories furniture uruguay\n
278.5335	0.013	557067	keystroke	i	n/a
278.6955	0.06	557391	keystroke	n	n/a
278.8155	0.075	557631	keystroke	n	n/a
279.0105	0.076	558021	keystroke	o	n/a
282.6435	0.057	565287	keystroke	c	n/a
282.8805	0.12	565761	keystroke	e	n/a
283.0455	0.06	566091	keystroke	n	n/a
283.1815	0.09	566363	keystroke	t	n/a
283.3155	0.09	566631	keystroke	Key.space	n/a
283.5715	0.09	567143	keystroke	l	n/a
283.7215	0.104	567443	keystroke	a	n/a
283.8705	0.076	567741	keystroke	b	n/a
284.0805	0.076	568161	keystroke	o	n/a
284.2165	0.09	568433	keystroke	r	n/a
284.3965	0.09	568793	keystroke	a	n/a
284.5915	0.074	569183	keystroke	t	n/a
284.8605	0.075	569721	keystroke	o	n/a
285.0405	0.076	570081	keystroke	r	n/a
285.1615	0.074	570323	keystroke	i	n/a
285.2505	0.075	570501	keystroke	e	n/a
285.4915	0.089	570983	keystroke	s	n/a
285.5955	0.105	571191	keystroke	Key.space	n/a
285.8665	0.074	571733	keystroke	f	n/a
286.2855	0.076	572571	keystroke	u	n/a
286.4505	0.075	572901	keystroke	r	n/a
286.5405	0.075	573081	keystroke	n	n/a
286.6915	0.105	573383	keystroke	i	n/a
286.9465	0.059	573893	keystroke	t	n/a
287.1115	0.074	574223	keystroke	u	n/a
287.3505	0.091	574701	keystroke	r	n/a
287.5015	0.075	575003	keystroke	e	n/a
287.6955	0.09	575391	keystroke	Key.space	n/a
288.2365	0.09	576473	keystroke	u	n/a
288.4005	0.091	576801	keystroke	r	n/a
288.5055	0.076	577011	keystroke	u	n/a
288.7915	0.074	577583	keystroke	g	n/a
289.3755	0.061	578751	keystroke	u	n/a
290.4865	0.12	580973	keystroke	a	n/a
290.6065	0.105	581213	keystroke	y	n/a
291.1915	0.119	582383	keystroke	Key.enter	n/a
291.3155	13.1985	582631	prompt	n/a	blackberry fifty hopes fever\n
292.2865	0.075	584573	keystroke	b	n/a
292.5415	0.06	585083	keystroke	l	n/a
292.6015	0.09	585203	keystroke	a	n/a
292.7665	0.12	585533	keystroke	c	n/a
292.8705	0.076	585741	keystroke	k	n/a
293.0815	0.075	586163	keystroke	b	n/a
293.1865	0.12	586373	keystroke	e	n/a
293.4415	0.06	586883	keystroke	r	n/a
293.5915	0.059	587183	keystroke	r	n/a
293.7115	0.09	587423	keystroke	y	n/a
300.193	0.013	600386	keystroke	Key.space	n/a
300.476	0.075	600952	keystroke	f	n/a
300.641	0.06	601282	keystroke	i	n/a
300.791	0.09	601582	keystroke	f	n/a
301.001	0.075	602002	keystroke	t	n/a
301.181	0.09	602362	keystroke	y	n/a
301.406	0.06	602812	keystroke	Key.space	n/a
301.571	0.075	603142	keystroke	h	n/a
301.7815	0.074	603563	keystroke	o	n/a
301.9915	0.059	603983	keystroke	p	n/a
302.0955	0.075	604191	keystroke	e	n/a
302.3365	0.089	604673	keystroke	s	n/a
302.4855	0.09	604971	keystroke	Key.space	n/a
302.6665	0.104	605333	keystroke	f	n/a
302.8305	0.091	605661	keystroke	e	n/a
303.0115	0.089	606023	keystroke	v	n/a
303.1305	0.106	606261	keystroke	e	n/a
303.2815	0.104	606563	keystroke	r	n/a
304.3905	0.12	608781	keystroke	Key.enter	n/a
304.518	5.4545	609036	prompt	n/a	connecting condition dairy missed\n
305.2015	0.119	610403	keystroke	c	n/a
305.3055	0.075	610611	keystroke	o	n/a
305.5155	0.06	611031	keystroke	n	n/a
305.6215	0.074	611243	keystroke	n	n/a
305.7405	0.075	611481	keystroke	e	n/a
305.8755	0.12	611751	keystroke	c	n/a
306.1305	0.09	612261	keystroke	t	n/a
306.2355	0.06	612471	keystroke	i	n/a
306.3705	0.076	612741	keystroke	n	n/a
306.4605	0.075	612921	keystroke	g	n/a
306.5505	0.12	613101	keystroke	Key.space	n/a
306.7455	0.09	613491	keystroke	c	n/a
306.8215	0.074	613643	keystroke	o	n/a
306.9855	0.09	613971	keystroke	n	n/a
307.136	0.1045	614272	keystroke	d	n/a
307.3305	0.075	614661	keystroke	i	n/a
307.4655	0.09	614931	keystroke	t	n/a
307.5705	0.045	615141	keystroke	i	n/a
307.7205	0.061	615441	keystroke	o	n/a
307.8705	0.076	615741	keystroke	n	n/a
307.9605	0.06	615921	keystroke	Key.space	n/a
308.0505	0.09	616101	keystroke	d	n/a
308.2305	0.091	616461	keystroke	a	n/a
308.3055	0.09	616611	keystroke	i	n/a
308.4705	0.09	616941	keystroke	r	n/a
308.5755	0.09	617151	keystroke	y	n/a
308.7105	0.06	617421	keystroke	Key.space	n/a
308.9055	0.075	617811	keystroke	m	n/a
309.0265	0.119	618053	keystroke	i	n/a
309.1755	0.076	618351	keystroke	s	n/a
309.3415	0.059	618683	keystroke	s	n/a
309.5055	0.075	619011	keystroke	e	n/a
309.6855	0.075	619371	keystroke	d	n/a
309.8805	0.09	619761	keystroke	Key.enter	n/a
309.9755	9.267	619951	prompt	n/a	democrats hitachi adaptive conditioning\n
310.8565	0.074	621713	keystroke	d	n/a
311.0205	0.09	622041	keystroke	e	n/a
311.1405	0.075	622281	keystroke	m	n/a
311.2905	0.09	622581	keystroke	o	n/a
311.4555	0.075	622911	keystroke	c	n/a
311.8005	0.09	623601	keystroke	r	n/a
312.0405	0.075	624081	keystroke	a	n/a
312.2655	0.06	624531	keystroke	t	n/a
313.4655	0.091	626931	keystroke	s	n/a
313.5855	0.09	627171	keystroke	Key.space	n/a
313.8555	0.076	627711	keystroke	h	n/a
314.0205	0.06	628041	keystroke	i	n/a
314.1405	0.09	628281	keystroke	t	n/a
314.4255	0.09	628851	keystroke	a	n/a
314.7105	0.09	629421	keystroke	c	n/a
314.8155	0.075	629631	keystroke	h	n/a
314.9505	0.075	629901	keystroke	i	n/a
315.1905	0.075	630381	keystroke	Key.space	n/a
315.3855	0.09	630771	keystroke	a	n/a
315.5955	0.045	631191	keystroke	d	n/a
316.1955	0.075	632391	keystroke	a	n/a
316.2855	0.075	632571	keystroke	p	n/a
316.7055	0.09	633411	keystroke	t	n/a
316.8405	0.09	633681	keystroke	i	n/a
316.9905	0.075	633981	keystroke	v	n/a
317.1705	0.09	634341	keystroke	e	n/a
317.2905	0.09	634581	keystroke	Key.space	n/a
317.4405	0.105	634881	keystroke	c	n/a
317.5605	0.06	635121	keystroke	o	n/a
317.7105	0.075	635421	keystroke	n	n/a
317.8605	0.09	635721	keystroke	d	n/a
317.9355	0.09	635871	keystroke	i	n/a
318.1305	0.09	636261	keystroke	t	n/a
318.2355	0.075	636471	keystroke	i	n/a
318.4305	0.03	636861	keystroke	o	n/a
318.5505	0.06	637101	keystroke	n	n/a
318.6855	0.06	637371	keystroke	i	n/a
318.8205	0.09	637641	keystroke	n	n/a
318.9555	0.09	637911	keystroke	g	n/a
319.1355	0.105	638271	keystroke	Key.enter	n/a
319.246	6.8965	638492	prompt	n/a	cake disclaimers lyrics acquire\n
320.1105	0.075	640221	keystroke	c	n/a
320.2905	0.105	640581	keystroke	a	n/a
320.411	0.0445	640822	keystroke	k	n/a
320.516	0.1195	641032	keystroke	e	n/a
320.6355	0.0605	641271	keystroke	Key.space	n/a
321.146	0.075	642292	keystroke	d	n/a
321.296	0.075	642592	keystroke	i	n/a
321.461	0.06	642922	keystroke	s	n/a
321.791	0.09	643582	keystroke	c	n/a
321.956	0.075	643912	keystroke	l	n/a
322.121	0.105	644242	keystroke	a	n/a
322.196	0.09	644392	keystroke	i	n/a
322.391	0.09	644782	keystroke	m	n/a
322.511	0.15	645022	keystroke	e	n/a
322.646	0.0895	645292	keystroke	r	n/a
322.8555	0.09	645711	keystroke	s	n/a
322.9605	0.075	645921	keystroke	Key.space	n/a
323.141	0.0595	646282	keystroke	l	n/a
323.3355	0.075	646671	keystroke	y	n/a
323.4555	0.0905	646911	keystroke	r	n/a
323.561	0.075	647122	keystroke	i	n/a
323.711	0.09	647422	keystroke	c	n/a
323.891	0.09	647782	keystroke	s	n/a
324.026	0.105	648052	keystroke	Key.space	n/a
324.236	0.075	648472	keystroke	a	n/a
324.686	0.09	649372	keystroke	c	n/a
325.136	0.075	650272	keystroke	q	n/a
325.196	0.075	650392	keystroke	u	n/a
325.361	0.09	650722	keystroke	i	n/a
325.571	0.12	651142	keystroke	r	n/a
325.706	0.09	651412	keystroke	e	n/a
326.051	0.09	652102	keystroke	Key.enter	n/a
326.1475	10.375	652295	prompt	n/a	founded associations officer large\n
327.971	0.09	655942	keystroke	f	n/a
328.091	0.135	656182	keystroke	o	n/a
328.211	0.09	656422	keystroke	u	n/a
328.451	0.09	656902	keystroke	n	n/a
328.586	0.09	657172	keystroke	d	n/a
328.796	0.075	657592	keystroke	e	n/a
328.991	0.075	657982	keystroke	d	n/a
329.096	0.09	658192	keystroke	Key.space	n/a
329.246	0.105	658492	keystroke	a	n/a
329.471	0.06	658942	keystroke	s	n/a
329.606	0.09	659212	keystroke	s	n/a
329.726	0.075	659452	keystroke	o	n/a
329.936	0.075	659872	keystroke	c	n/a
330.056	0.075	660112	keystroke	i	n/a
330.221	0.09	660442	keystroke	a	n/a
330.461	0.075	660922	keystroke	t	n/a
330.746	0.03	661492	keystroke	o	n/a
332.006	0.075	664012	keystroke	Key.backspace	n/a
332.606	0.09	665212	keystroke	i	n/a
332.801	0.075	665602	keystroke	o	n/a
333.011	0.105	666022	keystroke	n	n/a
333.191	0.105	666382	keystroke	s	n/a
333.326	0.075	666652	keystroke	Key.space	n/a
333.521	0.075	667042	keystroke	o	n/a
333.656	0.075	667312	keystroke	f	n/a
333.791	0.09	667582	keystroke	f	n/a
333.911	0.075	667822	keystroke	i	n/a
334.031	0.105	668062	keystroke	c	n/a
334.196	0.12	668392	keystroke	e	n/a
334.301	0.12	668602	keystroke	r	n/a
334.436	0.075	668872	keystroke	Key.space	n/a
334.601	0.09	669202	keystroke	l	n/a
334.736	0.105	669472	keystroke	a	n/a
334.931	0.105	669862	keystroke	r	n/a
335.096	0.06	670192	keystroke	g	n/a
335.201	0.075	670402	keystroke	e	n/a
336.416	0.105	672832	keystroke	Key.enter	n/a
336.526	11.6215	673052	prompt	n/a	reactions patrol suggested previews\n
337.211	0.12	674422	keystroke	r	n/a
337.331	0.105	674662	keystroke	e	n/a
337.541	0.09	675082	keystroke	a	n/a
338.006	0.0745	676012	keystroke	c	n/a
338.7715	0.105	677543	keystroke	t	n/a
338.9815	0.09	677963	keystroke	i	n/a
339.0865	0.105	678173	keystroke	o	n/a
339.3265	0.105	678653	keystroke	n	n/a
339.4765	0.105	678953	keystroke	s	n/a
339.5965	0.075	679193	keystroke	Key.space	n/a
339.7465	0.105	679493	keystroke	p	n/a
339.8815	0.09	679763	keystroke	a	n/a
340.1065	0.09	680213	keystroke	t	n/a
340.2115	0.075	680423	keystroke	h	n/a
340.3315	0.075	680663	keystroke	r	n/a
340.4515	0.075	680903	keystroke	o	n/a
341.0215	0.075	682043	keystroke	Key.backspace	n/a
341.6215	0.105	683243	keystroke	Key.backspace	n/a
342.1765	0.105	684353	keystroke	Key.backspace	n/a
343.2105	0.091	686421	keystroke	r	n/a
343.3015	0.09	686603	keystroke	o	n/a
343.5855	0.091	687171	keystroke	l	n/a
343.7815	0.075	687563	keystroke	Key.space	n/a
343.9765	0.089	687953	keystroke	s	n/a
344.0515	0.075	688103	keystroke	u	n/a
344.3065	0.06	688613	keystroke	g	n/a
344.4265	0.075	688853	keystroke	g	n/a
344.5455	0.075	689091	keystroke	e	n/a
344.7265	0.09	689453	keystroke	s	n/a
344.9505	0.076	689901	keystroke	t	n/a
345.1465	0.075	690293	keystroke	e	n/a
345.3705	0.061	690741	keystroke	d	n/a
345.4455	0.06	690891	keystroke	Key.space	n/a
345.7605	0.046	691521	keystroke	r	n/a
346.1205	0.075	692241	keystroke	Key.backspace	n/a
346.5705	0.076	693141	keystroke	p	n/a
346.7055	0.106	693411	keystroke	r	n/a
346.8115	0.075	693623	keystroke	e	n/a
347.1715	0.075	694343	keystroke	v	n/a
347.2905	0.076	694581	keystroke	i	n/a
347.5465	0.06	695093	keystroke	e	n/a
347.6815	0.074	695363	keystroke	w	n/a
347.8905	0.121	695781	keystroke	s	n/a
348.0555	0.09	696111	keystroke	Key.enter	n/a
348.151	10.3465	696302	prompt	n/a	workforce representing all quad\n
352.2585	0.012	704517	keystroke	w	n/a
352.2855	0.09	704571	keystroke	o	n/a
352.4955	0.075	704991	keystroke	r	n/a
352.5855	0.091	705171	keystroke	k	n/a
352.9305	0.075	705861	keystroke	f	n/a
353.0505	0.06	706101	keystroke	o	n/a
353.2905	0.045	706581	keystroke	r	n/a
353.5305	0.075	707061	keystroke	c	n/a
353.6805	0.09	707361	keystroke	e	n/a
353.8455	0.09	707691	keystroke	Key.space	n/a
354.2505	0.135	708501	keystroke	r	n/a
354.3705	0.09	708741	keystroke	e	n/a
354.5355	0.075	709071	keystroke	p	n/a
354.7305	0.1205	709461	keystroke	r	n/a
354.8205	0.09	709641	keystroke	e	n/a
355.0755	0.075	710151	keystroke	s	n/a
355.2705	0.075	710541	keystroke	e	n/a
355.3905	0.09	710781	keystroke	n	n/a
355.6155	0.0755	711231	keystroke	t	n/a
355.7355	0.06	711471	keystroke	i	n/a
355.8705	0.09	711741	keystroke	n	n/a
355.9455	0.09	711891	keystroke	g	n/a
356.0505	0.09	712101	keystroke	Key.space	n/a
356.216	0.1195	712432	keystroke	a	n/a
356.3505	0.045	712701	keystroke	l	n/a
356.4855	0.075	712971	keystroke	l	n/a
356.9355	0.075	713871	keystroke	Key.space	n/a
357.3855	0.075	714771	keystroke	q	n/a
357.4755	0.075	714951	keystroke	u	n/a
357.7155	0.075	715431	keystroke	a	n/a
357.9405	0.075	715881	keystroke	d	n/a
358.3905	0.105	716781	keystroke	Key.enter	n/a
358.5005	6.072	717001	prompt	n/a	trout winners usda tournaments\n
359.2905	0.09	718581	keystroke	t	n/a
359.5005	0.09	719001	keystroke	r	n/a
359.6205	0.135	719241	keystroke	o	n/a
359.7405	0.075	719481	keystroke	u	n/a
359.9205	0.075	719841	keystroke	t	n/a
360.0405	0.09	720081	keystroke	Key.space	n/a
360.2655	0.0905	720531	keystroke	w	n/a
360.341	0.075	720682	keystroke	i	n/a
360.5205	0.0605	721041	keystroke	n	n/a
360.6405	0.075	721281	keystroke	n	n/a
360.761	0.12	721522	keystroke	e	n/a
360.911	0.09	721822	keystroke	r	n/a
361.136	0.075	722272	keystroke	s	n/a
361.241	0.09	722482	keystroke	Key.space	n/a
361.466	0.105	722932	keystroke	u	n/a
361.616	0.09	723232	keystroke	s	n/a
361.811	0.075	723622	keystroke	d	n/a
361.946	0.12	723892	keystroke	a	n/a
362.276	0.09	724552	keystroke	Key.space	n/a
362.576	0.06	725152	keystroke	t	n/a
362.666	0.12	725332	keystroke	o	n/a
362.756	0.105	725512	keystroke	u	n/a
362.966	0.075	725932	keystroke	r	n/a
363.101	0.09	726202	keystroke	n	n/a
363.311	0.09	726622	keystroke	a	n/a
363.461	0.09	726922	keystroke	m	n/a
363.611	0.09	727222	keystroke	e	n/a
363.716	0.075	727432	keystroke	n	n/a
363.851	0.06	727702	keystroke	t	n/a
364.091	0.09	728182	keystroke	s	n/a
364.436	0.135	728872	keystroke	Key.enter	n/a
364.5755	5.667	729151	prompt	n/a	weather universe swap payroll\n
365.456	0.135	730912	keystroke	w	n/a
365.592	0.119	731184	keystroke	e	n/a
365.756	0.12	731512	keystroke	a	n/a
365.996	0.105	731992	keystroke	t	n/a
366.101	0.09	732202	keystroke	h	n/a
366.206	0.135	732412	keystroke	e	n/a
366.311	0.12	732622	keystroke	r	n/a
366.461	0.09	732922	keystroke	Key.space	n/a
366.716	0.09	733432	keystroke	u	n/a
366.911	0.075	733822	keystroke	n	n/a
367.061	0.075	734122	keystroke	i	n/a
367.181	0.09	734362	keystroke	v	n/a
367.361	0.105	734722	keystroke	e	n/a
367.451	0.105	734902	keystroke	r	n/a
367.646	0.09	735292	keystroke	s	n/a
367.796	0.105	735592	keystroke	e	n/a
367.931	0.105	735862	keystroke	Key.space	n/a
368.111	0.105	736222	keystroke	s	n/a
368.321	0.06	736642	keystroke	w	n/a
368.471	0.075	736942	keystroke	a	n/a
368.591	0.075	737182	keystroke	p	n/a
368.756	0.045	737512	keystroke	Key.space	n/a
368.966	0.03	737932	keystroke	p	n/a
369.026	0.105	738052	keystroke	a	n/a
369.206	0.09	738412	keystroke	y	n/a
369.416	0.075	738832	keystroke	r	n/a
369.506	0.045	739012	keystroke	o	n/a
369.701	0.045	739402	keystroke	l	n/a
369.836	0.06	739672	keystroke	l	n/a
370.121	0.12	740242	keystroke	Key.enter	n/a
370.2455	4.752	740491	prompt	n/a	enhance friend salmon racing\n
371.201	0.09	742402	keystroke	e	n/a
371.306	0.09	742612	keystroke	n	n/a
371.516	0.06	743032	keystroke	h	n/a
371.621	0.09	743242	keystroke	a	n/a
371.741	0.075	743482	keystroke	n	n/a
371.846	0.09	743692	keystroke	c	n/a
371.981	0.105	743962	keystroke	e	n/a
372.071	0.105	744142	keystroke	Key.space	n/a
372.206	0.09	744412	keystroke	f	n/a
372.371	0.09	744742	keystroke	r	n/a
372.491	0.075	744982	keystroke	i	n/a
372.596	0.09	745192	keystroke	e	n/a
372.701	0.12	745402	keystroke	n	n/a
372.836	0.09	745672	keystroke	d	n/a
372.941	0.09	745882	keystroke	Key.space	n/a
373.061	0.075	746122	keystroke	s	n/a
373.226	0.0905	746452	keystroke	a	n/a
373.3165	0.0745	746633	keystroke	l	n/a
373.466	0.06	746932	keystroke	m	n/a
373.586	0.075	747172	keystroke	o	n/a
373.7515	0.06	747503	keystroke	n	n/a
373.8265	0.075	747653	keystroke	Key.space	n/a
373.9615	0.09	747923	keystroke	r	n/a
374.1115	0.09	748223	keystroke	a	n/a
374.3365	0.075	748673	keystroke	c	n/a
374.4415	0.06	748883	keystroke	i	n/a
374.5765	0.09	749153	keystroke	n	n/a
374.7115	0.075	749423	keystroke	g	n/a
374.8765	0.12	749753	keystroke	Key.enter	n/a
375.0005	8.3525	750001	prompt	n/a	cite us handheld artificial\n
375.8065	0.105	751613	keystroke	c	n/a
375.9565	0.075	751913	keystroke	i	n/a
376.1065	0.105	752213	keystroke	t	n/a
376.3465	0.075	752693	keystroke	r	n/a
376.9315	0.075	753863	keystroke	Key.backspace	n/a
377.0815	0.09	754163	keystroke	e	n/a
377.2465	0.075	754493	keystroke	Key.space	n/a
377.5915	0.105	755183	keystroke	u	n/a
377.8465	0.09	755693	keystroke	s	n/a
378.1765	0.059	756353	keystroke	Key.space	n/a
378.3265	0.09	756653	keystroke	h	n/a
378.4315	0.105	756863	keystroke	a	n/a
378.5665	0.075	757133	keystroke	n	n/a
378.6715	0.105	757343	keystroke	d	n/a
379.0015	0.075	758003	keystroke	h	n/a
379.1065	0.075	758213	keystroke	e	n/a
379.2565	0.1195	758513	keystroke	a	n/a
380.126	0.06	760252	keystroke	Key.backspace	n/a
380.456	0.075	760912	keystroke	l	n/a
380.936	0.09	761872	keystroke	d	n/a
381.071	0.09	762142	keystroke	Key.space	n/a
381.266	0.105	762532	keystroke	a	n/a
381.461	0.09	762922	keystroke	r	n/a
381.656	0.075	763312	keystroke	t	n/a
381.806	0.09	763612	keystroke	i	n/a
382.061	0.075	764122	keystroke	f	n/a
382.196	0.09	764392	keystroke	i	n/a
382.391	0.075	764782	keystroke	c	n/a
382.541	0.045	765082	keystroke	i	n/a
382.661	0.105	765322	keystroke	a	n/a
382.796	0.09	765592	keystroke	l	n/a
383.246	0.105	766492	keystroke	Key.enter	n/a
383.356	6.837	766712	prompt	n/a	templates section rapids epson\n
384.2655	0.076	768531	keystroke	t	n/a
384.5205	0.09	769041	keystroke	e	n/a
384.6115	0.089	769223	keystroke	m	n/a
384.8655	0.045	769731	keystroke	p	n/a
385.0905	0.075	770181	keystroke	l	n/a
385.2705	0.045	770541	keystroke	a	n/a
385.4955	0.09	770991	keystroke	t	n/a
385.6605	0.091	771321	keystroke	e	n/a
385.8855	0.09	771771	keystroke	s	n/a
385.9905	0.09	771981	keystroke	Key.space	n/a
386.216	0.1195	772432	keystroke	s	n/a
386.3955	0.091	772791	keystroke	e	n/a
386.6205	0.12	773241	keystroke	c	n/a
386.8915	0.075	773783	keystroke	t	n/a
386.9805	0.106	773961	keystroke	i	n/a
387.1765	0.06	774353	keystroke	o	n/a
387.3565	0.075	774713	keystroke	n	n/a
387.4155	0.075	774831	keystroke	Key.space	n/a
387.5965	0.074	775193	keystroke	r	n/a
387.8065	0.09	775613	keystroke	a	n/a
387.9405	0.076	775881	keystroke	p	n/a
388.1505	0.09	776301	keystroke	i	n/a
388.2855	0.106	776571	keystroke	d	n/a
388.6155	0.06	777231	keystroke	s	n/a
388.7955	0.075	777591	keystroke	Key.space	n/a
389.1255	0.076	778251	keystroke	e	n/a
389.2755	0.06	778551	keystroke	p	n/a
389.4705	0.09	778941	keystroke	s	n/a
389.5765	0.074	779153	keystroke	o	n/a
389.7855	0.09	779571	keystroke	n	n/a
390.0855	0.105	780171	keystroke	Key.enter	n/a
390.196	7.722	780392	prompt	n/a	purchased whale asia exhibition\n
391.1505	0.075	782301	keystroke	p	n/a
391.3455	0.0905	782691	keystroke	u	n/a
391.511	0.075	783022	keystroke	r	n/a
391.766	0.09	783532	keystroke	c	n/a
391.871	0.075	783742	keystroke	h	n/a
391.991	0.105	783982	keystroke	a	n/a
392.171	0.105	784342	keystroke	s	n/a
392.351	0.075	784702	keystroke	e	n/a
392.531	0.09	785062	keystroke	d	n/a
392.651	0.075	785302	keystroke	Key.space	n/a
392.801	0.09	785602	keystroke	w	n/a
392.906	0.06	785812	keystroke	h	n/a
392.981	0.09	785962	keystroke	a	n/a
393.686	0.075	787372	keystroke	l	n/a
393.791	0.105	787582	keystroke	e	n/a
393.926	0.105	787852	keystroke	Key.space	n/a
394.091	0.12	788182	keystroke	a	n/a
394.331	0.09	788662	keystroke	s	n/a
394.466	0.075	788932	keystroke	i	n/a
394.616	0.09	789232	keystroke	a	n/a
395.021	0.075	790042	keystroke	Key.space	n/a
395.216	0.09	790432	keystroke	e	n/a
395.486	0.09	790972	keystroke	x	n/a
395.651	0.09	791302	keystroke	h	n/a
395.861	0.06	791722	keystroke	i	n/a
396.386	0.06	792772	keystroke	b	n/a
396.581	0.075	793162	keystroke	i	n/a
396.746	0.09	793492	keystroke	t	n/a
396.851	0.075	793702	keystroke	i	n/a
397.046	0.045	794092	keystroke	o	n/a
397.211	0.105	794422	keystroke	n	n/a
397.796	0.12	795592	keystroke	Key.enter	n/a
397.921	6.8815	795842	prompt	n/a	console unauthorized draw dish\n
398.771	0.09	797542	keystroke	c	n/a
398.861	0.06	797722	keystroke	o	n/a
399.041	0.075	798082	keystroke	n	n/a
399.191	0.105	798382	keystroke	s	n/a
399.266	0.06	798532	keystroke	o	n/a
399.476	0.06	798952	keystroke	l	n/a
399.611	0.09	799222	keystroke	e	n/a
399.731	0.105	799462	keystroke	Key.space	n/a
400.001	0.075	800002	keystroke	u	n/a
400.196	0.09	800392	keystroke	n	n/a
400.421	0.105	800842	keystroke	a	n/a
400.541	0.09	801082	keystroke	u	n/a
400.751	0.09	801502	keystroke	t	n/a
400.856	0.06	801712	keystroke	h	n/a
401.066	0.06	802132	keystroke	o	n/a
401.291	0.06	802582	keystroke	r	n/a
401.546	0.075	803092	keystroke	i	n/a
402.026	0.09	804052	keystroke	z	n/a
402.266	0.09	804532	keystroke	e	n/a
402.491	0.09	804982	keystroke	d	n/a
402.641	0.075	805282	keystroke	Key.space	n/a
402.851	0.09	805702	keystroke	d	n/a
403.076	0.075	806152	keystroke	r	n/a
403.376	0.105	806752	keystroke	a	n/a
403.601	0.06	807202	keystroke	w	n/a
403.781	0.06	807562	keystroke	Key.space	n/a
403.976	0.09	807952	keystroke	d	n/a
404.126	0.06	808252	keystroke	i	n/a
404.261	0.06	808522	keystroke	s	n/a
404.441	0.075	808882	keystroke	h	n/a
404.681	0.12	809362	keystroke	Key.enter	n/a
404.8075	5.8755	809615	prompt	n/a	dreams bennett behind spot\n
405.6265	0.09	811253	keystroke	d	n/a
405.8515	0.075	811703	keystroke	r	n/a
405.9715	0.09	811943	keystroke	e	n/a
406.2415	0.075	812483	keystroke	a	n/a
406.3465	0.09	812693	keystroke	m	n/a
406.4965	0.09	812993	keystroke	s	n/a
406.6165	0.06	813233	keystroke	Key.space	n/a
406.8115	0.075	813623	keystroke	b	n/a
406.9165	0.105	813833	keystroke	e	n/a
407.0515	0.06	814103	keystroke	n	n/a
407.1865	0.075	814373	keystroke	n	n/a
407.3515	0.105	814703	keystroke	e	n/a
407.8765	0.075	815753	keystroke	t	n/a
408.0265	0.09	816053	keystroke	t	n/a
408.4165	0.075	816833	keystroke	Key.space	n/a
408.6565	0.075	817313	keystroke	b	n/a
408.7615	0.105	817523	keystroke	e	n/a
408.8815	0.075	817763	keystroke	h	n/a
409.0315	0.09	818063	keystroke	i	n/a
409.2265	0.075	818453	keystroke	n	n/a
409.3615	0.075	818723	keystroke	d	n/a
409.4515	0.09	818903	keystroke	Key.space	n/a
409.6465	0.09	819293	keystroke	s	n/a
409.7365	0.075	819473	keystroke	p	n/a
409.9165	0.075	819833	keystroke	o	n/a
410.1115	0.075	820223	keystroke	t	n/a
410.5765	0.105	821153	keystroke	Key.enter	n/a
410.6855	6.972	821371	prompt	n/a	durable language directive complement\n
411.536	0.09	823072	keystroke	d	n/a
411.641	0.0755	823282	keystroke	u	n/a
411.8065	0.09	823613	keystroke	r	n/a
412.0155	0.0905	824031	keystroke	a	n/a
412.1505	0.075	824301	keystroke	b	n/a
412.4515	0.044	824903	keystroke	l	n/a
412.5715	0.105	825143	keystroke	e	n/a
412.6905	0.075	825381	keystroke	Key.space	n/a
412.8855	0.075	825771	keystroke	l	n/a
412.9905	0.106	825981	keystroke	a	n/a
413.0965	0.09	826193	keystroke	n	n/a
413.3055	0.091	826611	keystroke	g	n/a
413.4105	0.106	826821	keystroke	u	n/a
413.5765	0.089	827153	keystroke	a	n/a
413.8305	0.076	827661	keystroke	g	n/a
414.0105	0.091	828021	keystroke	e	n/a
414.1455	0.075	828291	keystroke	Key.space	n/a
414.3565	0.075	828713	keystroke	d	n/a
414.4605	0.075	828921	keystroke	i	n/a
414.5655	0.09	829131	keystroke	r	n/a
414.7305	0.076	829461	keystroke	e	n/a
414.972	0.06	829944	keystroke	c	n/a
415.196	0.0445	830392	keystroke	t	n/a
415.3005	0.075	830601	keystroke	i	n/a
415.4505	0.061	830901	keystroke	v	n/a
415.5865	0.104	831173	keystroke	e	n/a
415.7505	0.075	831501	keystroke	Key.space	n/a
415.916	0.1045	831832	keystroke	c	n/a
416.0355	0.0605	832071	keystroke	o	n/a
416.201	0.075	832402	keystroke	m	n/a
416.3805	0.075	832761	keystroke	p	n/a
416.591	0.075	833182	keystroke	l	n/a
416.786	0.06	833572	keystroke	e	n/a
416.876	0.075	833752	keystroke	m	n/a
416.996	0.09	833992	keystroke	e	n/a
417.116	0.075	834232	keystroke	n	n/a
417.281	0.075	834562	keystroke	t	n/a
417.5665	0.0895	835133	keystroke	Key.enter	n/a
417.661	5.3515	835322	prompt	n/a	tank robots accident least\n
418.376	0.06	836752	keystroke	t	n/a
418.571	0.12	837142	keystroke	a	n/a
418.661	0.075	837322	keystroke	n	n/a
418.811	0.09	837622	keystroke	k	n/a
418.931	0.075	837862	keystroke	Key.space	n/a
419.081	0.09	838162	keystroke	r	n/a
419.156	0.075	838312	keystroke	o	n/a
419.351	0.06	838702	keystroke	b	n/a
419.546	0.06	839092	keystroke	o	n/a
419.681	0.075	839362	keystroke	t	n/a
419.936	0.06	839872	keystroke	s	n/a
420.026	0.105	840052	keystroke	Key.space	n/a
420.161	0.09	840322	keystroke	a	n/a
420.371	0.09	840742	keystroke	c	n/a
420.536	0.075	841072	keystroke	c	n/a
420.671	0.06	841342	keystroke	i	n/a
420.776	0.0755	841552	keystroke	d	n/a
421.046	0.09	842092	keystroke	e	n/a
421.151	0.075	842302	keystroke	n	n/a
421.361	0.06	842722	keystroke	t	n/a
421.511	0.09	843022	keystroke	Key.space	n/a
421.736	0.075	843472	keystroke	l	n/a
421.826	0.075	843652	keystroke	e	n/a
422.006	0.09	844012	keystroke	a	n/a
422.501	0.09	845002	keystroke	s	n/a
422.741	0.09	845482	keystroke	t	n/a
422.921	0.09	845842	keystroke	Key.enter	n/a
423.0155	7.8575	846031	prompt	n/a	isolation why's sherman cafe\n
423.821	0.075	847642	keystroke	i	n/a
423.941	0.09	847882	keystroke	s	n/a
424.391	0.09	848782	keystroke	o	n/a
424.616	0.075	849232	keystroke	l	n/a
424.751	0.105	849502	keystroke	a	n/a
424.976	0.09	849952	keystroke	t	n/a
425.051	0.09	850102	keystroke	i	n/a
425.216	0.075	850432	keystroke	o	n/a
425.381	0.09	850762	keystroke	n	n/a
425.456	0.06	850912	keystroke	Key.space	n/a
425.621	0.105	851242	keystroke	w	n/a
425.711	0.105	851422	keystroke	h	n/a
425.921	0.105	851842	keystroke	y	n/a
427.2265	0.105	854453	keystroke	'	n/a
427.3465	0.105	854693	keystroke	s	n/a
427.5115	0.09	855023	keystroke	Key.space	n/a
427.8565	0.105	855713	keystroke	s	n/a
428.0815	0.09	856163	keystroke	h	n/a
428.2165	0.105	856433	keystroke	e	n/a
428.3815	0.09	856763	keystroke	r	n/a
428.4865	0.105	856973	keystroke	m	n/a
428.6515	0.105	857303	keystroke	a	n/a
428.7715	0.09	857543	keystroke	n	n/a
428.9065	0.045	857813	keystroke	Key.space	n/a
429.0265	0.075	858053	keystroke	c	n/a
429.1915	0.105	858383	keystroke	a	n/a
429.3865	0.105	858773	keystroke	f	n/a
429.5815	0.09	859163	keystroke	e	n/a
430.7815	0.09	861563	keystroke	Key.enter	n/a
430.877	7.0905	861754	prompt	n/a	victorian deserve cruz range\n
431.7265	0.075	863453	keystroke	v	n/a
431.8615	0.075	863723	keystroke	i	n/a
431.9965	0.105	863993	keystroke	c	n/a
432.2965	0.075	864593	keystroke	t	n/a
432.4165	0.045	864833	keystroke	o	n/a
432.8065	0.09	865613	keystroke	r	n/a
432.9565	0.09	865913	keystroke	i	n/a
433.1215	0.12	866243	keystroke	a	n/a
433.2265	0.09	866453	keystroke	n	n/a
433.4215	0.09	866843	keystroke	Key.space	n/a
433.5865	0.075	867173	keystroke	d	n/a
433.7365	0.09	867473	keystroke	e	n/a
433.9915	0.09	867983	keystroke	s	n/a
434.2315	0.09	868463	keystroke	e	n/a
434.3665	0.105	868733	keystroke	r	n/a
434.6365	0.09	869273	keystroke	v	n/a
434.8015	0.075	869603	keystroke	e	n/a
435.7915	0.09	871583	keystroke	Key.space	n/a
436.1065	0.075	872213	keystroke	c	n/a
436.3315	0.074	872663	keystroke	r	n/a
436.4515	0.06	872903	keystroke	u	n/a
436.6165	0.12	873233	keystroke	z	n/a
436.7515	0.09	873503	keystroke	Key.space	n/a
436.9765	0.09	873953	keystroke	r	n/a
437.1565	0.105	874313	keystroke	a	n/a
437.2915	0.09	874583	keystroke	n	n/a
437.4265	0.089	874853	keystroke	g	n/a
437.5915	0.105	875183	keystroke	e	n/a
437.8305	0.135	875661	keystroke	Key.enter	n/a
437.9705	6.732	875941	prompt	n/a	lopez options mathematical tell\n
438.8365	0.075	877673	keystroke	l	n/a
439.0315	0.06	878063	keystroke	o	n/a
439.3765	0.075	878753	keystroke	p	n/a
439.4965	0.09	878993	keystroke	e	n/a
439.8115	0.12	879623	keystroke	z	n/a
439.9765	0.075	879953	keystroke	Key.space	n/a
440.2465	0.06	880493	keystroke	o	n/a
440.4415	0.03	880883	keystroke	p	n/a
440.5315	0.105	881063	keystroke	t	n/a
440.7265	0.09	881453	keystroke	i	n/a
440.9065	0.06	881813	keystroke	o	n/a
441.0865	0.09	882173	keystroke	n	n/a
441.2065	0.12	882413	keystroke	s	n/a
441.6865	0.06	883373	keystroke	Key.space	n/a
441.8665	0.09	883733	keystroke	m	n/a
441.9865	0.075	883973	keystroke	a	n/a
442.1815	0.09	884363	keystroke	t	n/a
442.2865	0.0745	884573	keystroke	h	n/a
442.391	0.09	884782	keystroke	e	n/a
442.541	0.09	885082	keystroke	m	n/a
442.676	0.105	885352	keystroke	a	n/a
442.886	0.075	885772	keystroke	t	n/a
442.991	0.075	885982	keystroke	i	n/a
443.216	0.075	886432	keystroke	c	n/a
443.366	0.105	886732	keystroke	a	n/a
443.501	0.09	887002	keystroke	l	n/a
443.741	0.06	887482	keystroke	Key.space	n/a
443.921	0.09	887842	keystroke	t	n/a
444.071	0.09	888142	keystroke	e	n/a
444.191	0.075	888382	keystroke	l	n/a
444.326	0.075	888652	keystroke	l	n/a
444.596	0.105	889192	keystroke	Key.enter	n/a
444.7055	5.307	889411	prompt	n/a	apple martin polls texture\n
445.376	0.105	890752	keystroke	a	n/a
445.526	0.03	891052	keystroke	p	n/a
445.631	0.09	891262	keystroke	p	n/a
445.841	0.075	891682	keystroke	l	n/a
445.961	0.09	891922	keystroke	e	n/a
446.036	0.075	892072	keystroke	Key.space	n/a
446.186	0.105	892372	keystroke	m	n/a
446.276	0.105	892552	keystroke	a	n/a
446.516	0.075	893032	keystroke	r	n/a
446.726	0.075	893452	keystroke	t	n/a
446.846	0.06	893692	keystroke	i	n/a
447.011	0.075	894022	keystroke	n	n/a
447.101	0.09	894202	keystroke	Key.space	n/a
447.311	0.09	894622	keystroke	p	n/a
447.521	0.09	895042	keystroke	o	n/a
447.746	0.045	895492	keystroke	l	n/a
447.851	0.09	895702	keystroke	l	n/a
447.986	0.09	895972	keystroke	s	n/a
448.106	0.105	896212	keystroke	Key.space	n/a
448.391	0.09	896782	keystroke	t	n/a
448.541	0.12	897082	keystroke	e	n/a
448.811	0.105	897622	keystroke	x	n/a
449.051	0.09	898102	keystroke	t	n/a
449.351	0.105	898702	keystroke	u	n/a
449.531	0.105	899062	keystroke	r	n/a
449.636	0.09	899272	keystroke	e	n/a
449.891	0.12	899782	keystroke	Key.enter	n/a
450.0155	11.112	900031	prompt	n/a	unions robinson sherman protocols\n
450.941	0.075	901882	keystroke	u	n/a
451.136	0.06	902272	keystroke	n	n/a
451.286	0.075	902572	keystroke	i	n/a
452.246	0.06	904492	keystroke	o	n/a
452.381	0.105	904762	keystroke	n	n/a
452.726	0.09	905452	keystroke	s	n/a
452.891	0.09	905782	keystroke	Key.space	n/a
453.131	0.09	906262	keystroke	r	n/a
453.236	0.075	906472	keystroke	o	n/a
453.4465	0.06	906893	keystroke	b	n/a
453.5965	0.075	907193	keystroke	i	n/a
453.7615	0.09	907523	keystroke	n	n/a
453.9865	0.075	907973	keystroke	s	n/a
454.0915	0.06	908183	keystroke	o	n/a
454.2565	0.075	908513	keystroke	n	n/a
454.3615	0.075	908723	keystroke	Key.space	n/a
454.6615	0.075	909323	keystroke	s	n/a
454.7665	0.09	909533	keystroke	h	n/a
454.9765	0.105	909953	keystroke	e	n/a
455.2165	0.075	910433	keystroke	r	n/a
455.3365	0.09	910673	keystroke	m	n/a
455.5765	0.09	911153	keystroke	a	n/a
455.6965	0.09	911393	keystroke	n	n/a
455.8165	0.105	911633	keystroke	Key.space	n/a
456.1465	0.075	912293	keystroke	p	n/a
456.3115	0.09	912623	keystroke	r	n/a
456.4615	0.06	912923	keystroke	o	n/a
456.5815	0.075	913163	keystroke	t	n/a
456.7165	0.06	913433	keystroke	o	n/a
457.0015	0.075	914003	keystroke	c	n/a
458.2015	0.075	916403	keystroke	o	n/a
458.4415	0.06	916883	keystroke	l	n/a
459.1765	0.089	918353	keystroke	s	n/a
461.0355	0.09	922071	keystroke	Key.enter	n/a
461.1305	5.907	922261	prompt	n/a	logan cologne alike protective\n
461.966	0.075	923932	keystroke	l	n/a
462.191	0.06	924382	keystroke	o	n/a
462.296	0.09	924592	keystroke	g	n/a
462.581	0.09	925162	keystroke	a	n/a
462.686	0.075	925372	keystroke	n	n/a
462.806	0.09	925612	keystroke	Key.space	n/a
462.986	0.105	925972	keystroke	c	n/a
463.061	0.09	926122	keystroke	o	n/a
463.271	0.075	926542	keystroke	l	n/a
463.421	0.075	926842	keystroke	o	n/a
463.526	0.105	927052	keystroke	g	n/a
463.661	0.09	927322	keystroke	n	n/a
463.811	0.09	927622	keystroke	e	n/a
463.991	0.09	927982	keystroke	Key.space	n/a
464.156	0.105	928312	keystroke	a	n/a
464.291	0.075	928582	keystroke	l	n/a
464.486	0.075	928972	keystroke	i	n/a
464.696	0.075	929392	keystroke	k	n/a
464.816	0.09	929632	keystroke	e	n/a
464.921	0.06	929842	keystroke	Key.space	n/a
465.101	0.075	930202	keystroke	p	n/a
465.251	0.09	930502	keystroke	r	n/a
465.371	0.045	930742	keystroke	o	n/a
465.5065	0.09	931013	keystroke	t	n/a
465.6715	0.0895	931343	keystroke	e	n/a
465.896	0.09	931792	keystroke	c	n/a
466.181	0.075	932362	keystroke	t	n/a
466.301	0.075	932602	keystroke	i	n/a
466.451	0.075	932902	keystroke	v	n/a
466.616	0.075	933232	keystroke	e	n/a
466.946	0.09	933892	keystroke	Key.enter	n/a
467.041	6.5365	934082	prompt	n/a	butler seen lookup confidentiality\n
467.786	0.06	935572	keystroke	b	n/a
467.906	0.09	935812	keystroke	u	n/a
468.161	0.06	936322	keystroke	t	n/a
468.266	0.075	936532	keystroke	l	n/a
468.386	0.12	936772	keystroke	e	n/a
468.521	0.105	937042	keystroke	r	n/a
468.671	0.0755	937342	keystroke	Key.space	n/a
468.8215	0.09	937643	keystroke	s	n/a
469.0765	0.045	938153	keystroke	e	n/a
469.1815	0.105	938363	keystroke	e	n/a
469.3465	0.09	938693	keystroke	n	n/a
469.4365	0.075	938873	keystroke	Key.space	n/a
469.6315	0.06	939263	keystroke	l	n/a
469.8115	0.06	939623	keystroke	o	n/a
469.9465	0.09	939893	keystroke	o	n/a
470.1115	0.105	940223	keystroke	k	n/a
470.3665	0.09	940733	keystroke	u	n/a
470.5765	0.075	941153	keystroke	p	n/a
470.7265	0.09	941453	keystroke	Key.space	n/a
470.9365	0.06	941873	keystroke	c	n/a
471.0265	0.06	942053	keystroke	o	n/a
471.2065	0.075	942413	keystroke	n	n/a
471.3715	0.09	942743	keystroke	f	n/a
471.4765	0.06	942953	keystroke	i	n/a
471.6415	0.075	943283	keystroke	d	n/a
471.7765	0.105	943553	keystroke	e	n/a
471.9265	0.075	943853	keystroke	n	n/a
472.0915	0.09	944183	keystroke	t	n/a
472.2415	0.09	944483	keystroke	i	n/a
472.4665	0.105	944933	keystroke	a	n/a
472.6465	0.075	945293	keystroke	l	n/a
472.8265	0.075	945653	keystroke	i	n/a
472.9615	0.09	945923	keystroke	t	n/a
473.0665	0.105	946133	keystroke	y	n/a
473.4715	0.105	946943	keystroke	Key.enter	n/a
473.5825	6.2505	947165	prompt	n/a	purchased countries spoke last\n
474.2965	0.075	948593	keystroke	p	n/a
474.4915	0.09	948983	keystroke	u	n/a
474.6115	0.09	949223	keystroke	r	n/a
474.8965	0.075	949793	keystroke	c	n/a
474.9865	0.075	949973	keystroke	h	n/a
475.2415	0.0895	950483	keystroke	a	n/a
475.436	0.09	950872	keystroke	s	n/a
475.631	0.06	951262	keystroke	e	n/a
475.811	0.075	951622	keystroke	d	n/a
475.916	0.12	951832	keystroke	Key.space	n/a
476.096	0.09	952192	keystroke	c	n/a
476.201	0.105	952402	keystroke	o	n/a
476.276	0.075	952552	keystroke	u	n/a
476.561	0.09	953122	keystroke	n	n/a
476.816	0.06	953632	keystroke	t	n/a
477.116	0.06	954232	keystroke	r	n/a
477.206	0.075	954412	keystroke	i	n/a
477.326	0.075	954652	keystroke	e	n/a
477.566	0.09	955132	keystroke	s	n/a
477.701	0.09	955402	keystroke	Key.space	n/a
477.941	0.09	955882	keystroke	s	n/a
478.076	0.075	956152	keystroke	p	n/a
478.286	0.06	956572	keystroke	o	n/a
478.511	0.06	957022	keystroke	k	n/a
478.646	0.075	957292	keystroke	e	n/a
478.736	0.075	957472	keystroke	Key.space	n/a
478.946	0.06	957892	keystroke	l	n/a
479.036	0.135	958072	keystroke	a	n/a
479.186	0.135	958372	keystroke	s	n/a
479.456	0.09	958912	keystroke	t	n/a
479.726	0.105	959452	keystroke	Key.enter	n/a
479.8355	5.007	959671	prompt	n/a	senator core counts ratios\n
480.611	0.09	961222	keystroke	s	n/a
480.776	0.12	961552	keystroke	e	n/a
480.926	0.09	961852	keystroke	n	n/a
481.106	0.09	962212	keystroke	a	n/a
481.301	0.105	962602	keystroke	t	n/a
481.466	0.075	962932	keystroke	o	n/a
481.601	0.09	963202	keystroke	r	n/a
481.7065	0.09	963413	keystroke	Key.space	n/a
481.9315	0.075	963863	keystroke	c	n/a
482.0365	0.075	964073	keystroke	o	n/a
482.1865	0.12	964373	keystroke	r	n/a
482.3515	0.06	964703	keystroke	e	n/a
482.456	0.0905	964912	keystroke	Key.space	n/a
482.6365	0.09	965273	keystroke	c	n/a
482.7415	0.12	965483	keystroke	o	n/a
482.8315	0.075	965663	keystroke	u	n/a
483.0415	0.075	966083	keystroke	n	n/a
483.1315	0.09	966263	keystroke	t	n/a
483.4015	0.09	966803	keystroke	s	n/a
483.5215	0.09	967043	keystroke	Key.space	n/a
483.6865	0.09	967373	keystroke	r	n/a
483.8665	0.105	967733	keystroke	a	n/a
484.0915	0.09	968183	keystroke	t	n/a
484.1965	0.06	968393	keystroke	i	n/a
484.361	0.075	968722	keystroke	o	n/a
484.541	0.06	969082	keystroke	s	n/a
484.721	0.12	969442	keystroke	Key.enter	n/a
484.8455	8.937	969691	prompt	n/a	postal appreciation greater created\n
485.531	0.09	971062	keystroke	p	n/a
485.741	0.075	971482	keystroke	o	n/a
485.801	0.105	971602	keystroke	s	n/a
486.086	0.075	972172	keystroke	t	n/a
486.311	0.09	972622	keystroke	a	n/a
486.431	0.105	972862	keystroke	l	n/a
486.521	0.09	973042	keystroke	Key.space	n/a
486.776	0.12	973552	keystroke	a	n/a
486.911	0.03	973822	keystroke	p	n/a
487.001	0.09	974002	keystroke	p	n/a
487.136	0.12	974272	keystroke	r	n/a
487.241	0.09	974482	keystroke	e	n/a
487.466	0.12	974932	keystroke	c	n/a
487.706	0.075	975412	keystroke	i	n/a
488.861	0.09	977722	keystroke	a	n/a
490.031	0.105	980062	keystroke	t	n/a
490.151	0.105	980302	keystroke	i	n/a
490.391	0.06	980782	keystroke	o	n/a
490.616	0.075	981232	keystroke	n	n/a
490.736	0.09	981472	keystroke	Key.space	n/a
490.901	0.06	981802	keystroke	g	n/a
491.096	0.1205	982192	keystroke	r	n/a
491.2015	0.0895	982403	keystroke	e	n/a
491.396	0.09	982792	keystroke	a	n/a
491.576	0.105	983152	keystroke	t	n/a
491.7415	0.09	983483	keystroke	e	n/a
491.8165	0.09	983633	keystroke	r	n/a
491.9665	0.09	983933	keystroke	Key.space	n/a
492.446	0.0905	984892	keystroke	c	n/a
492.6715	0.105	985343	keystroke	r	n/a
492.7615	0.105	985523	keystroke	e	n/a
492.9865	0.09	985973	keystroke	a	n/a
493.1965	0.075	986393	keystroke	t	n/a
493.3465	0.105	986693	keystroke	e	n/a
493.5415	0.105	987083	keystroke	d	n/a
493.6765	0.105	987353	keystroke	Key.enter	n/a
493.7855	10.9625	987571	prompt	n/a	volkswagen filme merchant eliminate\n
494.801	0.075	989602	keystroke	v	n/a
494.966	0.075	989932	keystroke	o	n/a
495.206	0.15	990412	keystroke	l	n/a
495.371	0.12	990742	keystroke	k	n/a
495.626	0.15	991252	keystroke	s	n/a
495.926	0.075	991852	keystroke	w	n/a
496.091	0.12	992182	keystroke	a	n/a
496.256	0.105	992512	keystroke	g	n/a
496.616	0.09	993232	keystroke	e	n/a
496.781	0.09	993562	keystroke	n	n/a
496.886	0.09	993772	keystroke	Key.space	n/a
497.861	0.12	995722	keystroke	f	n/a
497.996	0.075	995992	keystroke	i	n/a
498.266	0.06	996532	keystroke	l	n/a
498.446	0.105	996892	keystroke	m	n/a
499.451	0.105	998902	keystroke	e	n/a
499.961	0.09	999922	keystroke	Key.space	n/a
500.201	0.105	1000402	keystroke	m	n/a
500.291	0.075	1000582	keystroke	e	n/a
500.441	0.09	1000882	keystroke	r	n/a
500.741	0.105	1001482	keystroke	c	n/a
500.876	0.105	1001752	keystroke	h	n/a
501.116	0.12	1002232	keystroke	a	n/a
501.251	0.105	1002502	keystroke	n	n/a
501.581	0.105	1003162	keystroke	t	n/a
501.746	0.105	1003492	keystroke	Key.space	n/a
501.941	0.105	1003882	keystroke	e	n/a
502.1055	0.061	1004211	keystroke	l	n/a
502.3015	0.06	1004603	keystroke	i	n/a
502.4515	0.105	1004903	keystroke	m	n/a
502.6155	0.076	1005231	keystroke	i	n/a
502.7505	0.091	1005501	keystroke	n	n/a
502.9005	0.075	1005801	keystroke	i	n/a
503.6655	0.06	1007331	keystroke	Key.backspace	n/a
503.9965	0.075	1007993	keystroke	a	n/a
504.1755	0.105	1008351	keystroke	t	n/a
504.4005	0.075	1008801	keystroke	e	n/a
504.6705	0.075	1009341	keystroke	Key.enter	n/a
504.7515	8.9365	1009503	prompt	n/a	chassis accepted tricks sentences\n
505.8415	0.075	1011683	keystroke	c	n/a
505.9615	0.075	1011923	keystroke	h	n/a
506.1115	0.12	1012223	keystroke	a	n/a
506.3515	0.074	1012703	keystroke	s	n/a
506.4865	0.089	1012973	keystroke	s	n/a
506.5915	0.074	1013183	keystroke	i	n/a
506.7105	0.076	1013421	keystroke	s	n/a
507.2805	0.091	1014561	keystroke	Key.space	n/a
507.4915	0.09	1014983	keystroke	a	n/a
507.7165	0.06	1015433	keystroke	c	n/a
507.8515	0.0895	1015703	keystroke	c	n/a
508.241	0.0895	1016482	keystroke	e	n/a
508.3905	0.091	1016781	keystroke	p	n/a
508.5705	0.105	1017141	keystroke	t	n/a
508.7815	0.074	1017563	keystroke	e	n/a
508.9905	0.075	1017981	keystroke	d	n/a
509.0805	0.09	1018161	keystroke	Key.space	n/a
509.2905	0.105	1018581	keystroke	t	n/a
509.4855	0.09	1018971	keystroke	r	n/a
509.8605	0.045	1019721	keystroke	o	n/a
510.4905	0.075	1020981	keystroke	Key.backspace	n/a
511.2555	0.075	1022511	keystroke	i	n/a
511.3905	0.09	1022781	keystroke	c	n/a
511.5105	0.091	1023021	keystroke	k	n/a
511.706	0.105	1023412	keystroke	s	n/a
511.856	0.0755	1023712	keystroke	Key.space	n/a
512.0215	0.105	1024043	keystroke	s	n/a
512.1715	0.135	1024343	keystroke	e	n/a
512.3065	0.09	1024613	keystroke	n	n/a
512.4265	0.09	1024853	keystroke	t	n/a
512.6815	0.09	1025363	keystroke	e	n/a
512.8015	0.09	1025603	keystroke	n	n/a
512.9215	0.0895	1025843	keystroke	c	n/a
513.101	0.075	1026202	keystroke	e	n/a
513.326	0.09	1026652	keystroke	s	n/a
513.596	0.09	1027192	keystroke	Key.enter	n/a
513.692	9.221	1027384	prompt	n/a	rental breakfast indicate revealed\n
514.451	0.12	1028902	keystroke	r	n/a
514.586	0.105	1029172	keystroke	e	n/a
514.721	0.12	1029442	keystroke	n	n/a
514.871	0.09	1029742	keystroke	t	n/a
515.066	0.105	1030132	keystroke	a	n/a
515.186	0.09	1030372	keystroke	l	n/a
515.291	0.06	1030582	keystroke	Key.space	n/a
515.456	0.09	1030912	keystroke	b	n/a
515.561	0.12	1031122	keystroke	r	n/a
515.666	0.105	1031332	keystroke	e	n/a
515.846	0.105	1031692	keystroke	a	n/a
515.966	0.075	1031932	keystroke	k	n/a
516.131	0.075	1032262	keystroke	f	n/a
516.296	0.09	1032592	keystroke	a	n/a
516.491	0.09	1032982	keystroke	s	n/a
516.716	0.075	1033432	keystroke	t	n/a
516.821	0.075	1033642	keystroke	Key.space	n/a
516.971	0.075	1033942	keystroke	i	n/a
517.106	0.105	1034212	keystroke	n	n/a
517.286	0.09	1034572	keystroke	d	n/a
517.451	0.06	1034902	keystroke	i	n/a
517.916	0.09	1035832	keystroke	c	n/a
518.126	0.09	1036252	keystroke	a	n/a
518.351	0.06	1036702	keystroke	t	n/a
518.576	0.09	1037152	keystroke	e	n/a
518.801	0.105	1037602	keystroke	Key.space	n/a
519.536	0.135	1039072	keystroke	r	n/a
519.626	0.12	1039252	keystroke	e	n/a
519.926	0.075	1039852	keystroke	v	n/a
520.076	0.105	1040152	keystroke	e	n/a
520.241	0.06	1040482	keystroke	l	n/a
520.721	0.06	1041442	keystroke	Key.backspace	n/a
520.931	0.105	1041862	keystroke	a	n/a
521.096	0.105	1042192	keystroke	l	n/a
521.306	0.09	1042612	keystroke	s	n/a
521.6505	0.075	1043301	keystroke	Key.backspace	n/a
521.7855	0.09	1043571	keystroke	e	n/a
522.1455	0.076	1044291	keystroke	d	n/a
522.8055	0.105	1045611	keystroke	Key.enter	n/a
522.916	10.1965	1045832	prompt	n/a	happens lemon crop dramatically\n
524.1415	0.089	1048283	keystroke	h	n/a
524.3805	0.09	1048761	keystroke	a	n/a
524.7855	0.06	1049571	keystroke	p	n/a
525.1005	0.045	1050201	keystroke	p	n/a
525.3555	0.09	1050711	keystroke	e	n/a
525.5505	0.09	1051101	keystroke	n	n/a
526.0005	0.09	1052001	keystroke	s	n/a
526.1805	0.09	1052361	keystroke	Key.space	n/a
526.4505	0.075	1052901	keystroke	l	n/a
526.6155	0.09	1053231	keystroke	e	n/a
526.7205	0.105	1053441	keystroke	m	n/a
526.8855	0.105	1053771	keystroke	o	n/a
527.2455	0.075	1054491	keystroke	Key.space	n/a
527.8605	0.06	1055721	keystroke	Key.backspace	n/a
528.1905	0.075	1056381	keystroke	n	n/a
528.5205	0.075	1057041	keystroke	Key.space	n/a
528.7755	0.105	1057551	keystroke	c	n/a
529.0155	0.09	1058031	keystroke	r	n/a
529.1355	0.09	1058271	keystroke	o	n/a
530.0955	0.075	1060191	keystroke	p	n/a
530.2005	0.105	1060401	keystroke	Key.space	n/a
530.4405	0.075	1060881	keystroke	d	n/a
530.6355	0.105	1061271	keystroke	r	n/a
530.8305	0.105	1061661	keystroke	a	n/a
531.2055	0.09	1062411	keystroke	m	n/a
531.3255	0.106	1062651	keystroke	a	n/a
531.5655	0.076	1063131	keystroke	t	n/a
531.6705	0.09	1063341	keystroke	i	n/a
531.8505	0.105	1063701	keystroke	c	n/a
532.0315	0.074	1064063	keystroke	a	n/a
532.1355	0.03	1064271	keystroke	l	n/a
532.2255	0.075	1064451	keystroke	l	n/a
532.4655	0.09	1064931	keystroke	y	n/a
532.9905	0.12	1065981	keystroke	Key.enter	n/a
533.115	5.0225	1066230	prompt	n/a	banner mercury died hindu\n
534.1005	0.03	1068201	keystroke	b	n/a
534.2055	0.12	1068411	keystroke	a	n/a
534.4755	0.045	1068951	keystroke	n	n/a
534.5805	0.075	1069161	keystroke	n	n/a
534.7015	0.104	1069403	keystroke	e	n/a
534.8205	0.105	1069641	keystroke	r	n/a
534.9405	0.075	1069881	keystroke	Key.space	n/a
535.0905	0.105	1070181	keystroke	m	n/a
535.2705	0.075	1070541	keystroke	e	n/a
535.3605	0.09	1070721	keystroke	r	n/a
535.6305	0.105	1071261	keystroke	c	n/a
535.7205	0.12	1071441	keystroke	u	n/a
535.9305	0.09	1071861	keystroke	r	n/a
536.0355	0.105	1072071	keystroke	y	n/a
536.1705	0.09	1072341	keystroke	Key.space	n/a
536.4105	0.076	1072821	keystroke	d	n/a
536.5455	0.09	1073091	keystroke	i	n/a
536.7115	0.075	1073423	keystroke	e	n/a
536.9215	0.105	1073843	keystroke	d	n/a
537.0105	0.06	1074021	keystroke	Key.space	n/a
537.1905	0.06	1074381	keystroke	h	n/a
537.3115	0.074	1074623	keystroke	i	n/a
537.4455	0.1055	1074891	keystroke	n	n/a
537.596	0.09	1075192	keystroke	d	n/a
537.701	0.075	1075402	keystroke	u	n/a
538.076	0.06	1076152	keystroke	Key.enter	n/a
538.1405	10.842	1076281	prompt	n/a	clearly kazakhstan predict responsible\n
538.961	0.09	1077922	keystroke	c	n/a
539.096	0.075	1078192	keystroke	l	n/a
539.201	0.12	1078402	keystroke	e	n/a
539.426	0.105	1078852	keystroke	a	n/a
539.591	0.105	1079182	keystroke	r	n/a
539.711	0.075	1079422	keystroke	l	n/a
539.966	0.045	1079932	keystroke	y	n/a
540.041	0.075	1080082	keystroke	Key.space	n/a
541.346	0.075	1082692	keystroke	k	n/a
541.511	0.105	1083022	keystroke	a	n/a
541.856	0.09	1083712	keystroke	z	n/a
542.201	0.105	1084402	keystroke	a	n/a
542.741	0.075	1085482	keystroke	k	n/a
543.011	0.105	1086022	keystroke	h	n/a
543.431	0.105	1086862	keystroke	s	n/a
543.7305	0.09	1087461	keystroke	t	n/a
544.6755	0.105	1089351	keystroke	a	n/a
544.7955	0.09	1089591	keystroke	n	n/a
544.9455	0.075	1089891	keystroke	Key.space	n/a
545.2605	0.06	1090521	keystroke	p	n/a
545.3655	0.12	1090731	keystroke	r	n/a
545.4555	0.105	1090911	keystroke	e	n/a
546.0255	0.09	1092051	keystroke	d	n/a
546.1455	0.075	1092291	keystroke	i	n/a
546.2955	0.105	1092591	keystroke	c	n/a
546.5955	0.09	1093191	keystroke	t	n/a
546.7005	0.105	1093401	keystroke	Key.space	n/a
546.9255	0.12	1093851	keystroke	r	n/a
547.0465	0.074	1094093	keystroke	e	n/a
547.3455	0.075	1094691	keystroke	s	n/a
547.4655	0.09	1094931	keystroke	p	n/a
547.7205	0.06	1095441	keystroke	o	n/a
547.9155	0.06	1095831	keystroke	n	n/a
548.1105	0.09	1096221	keystroke	s	n/a
548.2155	0.06	1096431	keystroke	i	n/a
548.3505	0.0755	1096701	keystroke	b	n/a
548.5465	0.06	1097093	keystroke	l	n/a
548.6515	0.09	1097303	keystroke	e	n/a
548.8465	0.135	1097693	keystroke	Key.enter	n/a
548.985	5.1125	1097970	prompt	n/a	updating apache tribal visa\n
549.6415	0.09	1099283	keystroke	u	n/a
549.8515	0.075	1099703	keystroke	p	n/a
550.0765	0.09	1100153	keystroke	d	n/a
550.2715	0.09	1100543	keystroke	a	n/a
550.4665	0.09	1100933	keystroke	t	n/a
550.5715	0.06	1101143	keystroke	i	n/a
550.7065	0.09	1101413	keystroke	n	n/a
550.8265	0.075	1101653	keystroke	g	n/a
550.9165	0.09	1101833	keystroke	Key.space	n/a
551.1115	0.105	1102223	keystroke	a	n/a
551.2615	0.06	1102523	keystroke	p	n/a
551.3815	0.075	1102763	keystroke	a	n/a
551.5615	0.105	1103123	keystroke	c	n/a
551.6815	0.075	1103363	keystroke	h	n/a
552.1015	0.09	1104203	keystroke	e	n/a
552.2065	0.075	1104413	keystroke	Key.space	n/a
552.4015	0.09	1104803	keystroke	t	n/a
552.5815	0.105	1105163	keystroke	r	n/a
552.7165	0.06	1105433	keystroke	i	n/a
552.8665	0.075	1105733	keystroke	b	n/a
553.0165	0.075	1106033	keystroke	a	n/a
553.1365	0.045	1106273	keystroke	l	n/a
553.2265	0.089	1106453	keystroke	Key.space	n/a
553.3765	0.075	1106753	keystroke	v	n/a
553.4815	0.075	1106963	keystroke	i	n/a
553.6605	0.061	1107321	keystroke	s	n/a
553.7965	0.09	1107593	keystroke	a	n/a
553.9615	0.135	1107923	keystroke	Key.enter	n/a
554.1005	8.727	1108201	prompt	n/a	zdnet assists homework quantity\n
555.1465	0.105	1110293	keystroke	z	n/a
555.5215	0.06	1111043	keystroke	e	n/a
556.1955	0.0605	1112391	keystroke	Key.backspace	n/a
556.376	0.09	1112752	keystroke	d	n/a
556.766	0.075	1113532	keystroke	n	n/a
556.901	0.09	1113802	keystroke	e	n/a
557.291	0.09	1114582	keystroke	t	n/a
557.441	0.105	1114882	keystroke	Key.space	n/a
557.681	0.105	1115362	keystroke	a	n/a
557.936	0.06	1115872	keystroke	s	n/a
558.071	0.09	1116142	keystroke	s	n/a
558.221	0.06	1116442	keystroke	i	n/a
558.371	0.09	1116742	keystroke	s	n/a
558.761	0.09	1117522	keystroke	t	n/a
559.061	0.105	1118122	keystroke	s	n/a
559.151	0.075	1118302	keystroke	Key.space	n/a
559.346	0.06	1118692	keystroke	h	n/a
559.511	0.09	1119022	keystroke	o	n/a
559.676	0.09	1119352	keystroke	m	n/a
559.796	0.09	1119592	keystroke	e	n/a
559.976	0.075	1119952	keystroke	w	n/a
560.081	0.075	1120162	keystroke	o	n/a
560.231	0.09	1120462	keystroke	r	n/a
560.336	0.09	1120672	keystroke	k	n/a
560.456	0.075	1120912	keystroke	Key.space	n/a
560.756	0.075	1121512	keystroke	q	n/a
560.861	0.075	1121722	keystroke	u	n/a
561.056	0.105	1122112	keystroke	a	n/a
561.146	0.09	1122292	keystroke	n	n/a
561.356	0.09	1122712	keystroke	t	n/a
561.581	0.06	1123162	keystroke	i	n/a
561.9415	0.09	1123883	keystroke	t	n/a
562.0915	0.09	1124183	keystroke	y	n/a
562.6915	0.135	1125383	keystroke	Key.enter	n/a
562.834	6.8185	1125668	prompt	n/a	handmade maintained modular tiles\n
563.5315	0.09	1127063	keystroke	h	n/a
563.8455	0.121	1127691	keystroke	a	n/a
563.9515	0.09	1127903	keystroke	n	n/a
564.0865	0.12	1128173	keystroke	d	n/a
564.2515	0.09	1128503	keystroke	m	n/a
564.3715	0.135	1128743	keystroke	a	n/a
564.5515	0.135	1129103	keystroke	d	n/a
564.7615	0.105	1129523	keystroke	e	n/a
564.8965	0.074	1129793	keystroke	Key.space	n/a
565.0765	0.06	1130153	keystroke	m	n/a
565.2115	0.104	1130423	keystroke	a	n/a
565.3015	0.09	1130603	keystroke	i	n/a
565.6915	0.15	1131383	keystroke	n	n/a
566.0215	0.074	1132043	keystroke	t	n/a
566.2305	0.105	1132461	keystroke	a	n/a
566.3205	0.076	1132641	keystroke	i	n/a
566.5005	0.09	1133001	keystroke	n	n/a
566.6505	0.105	1133301	keystroke	e	n/a
566.8605	0.075	1133721	keystroke	d	n/a
567.0105	0.075	1134021	keystroke	Key.space	n/a
567.1765	0.074	1134353	keystroke	m	n/a
567.3715	0.074	1134743	keystroke	o	n/a
567.5355	0.105	1135071	keystroke	d	n/a
567.6555	0.075	1135311	keystroke	u	n/a
567.8805	0.076	1135761	keystroke	l	n/a
568.0155	0.09	1136031	keystroke	a	n/a
568.1655	0.12	1136331	keystroke	r	n/a
568.3155	0.105	1136631	keystroke	Key.space	n/a
568.586	0.075	1137172	keystroke	t	n/a
568.691	0.09	1137382	keystroke	i	n/a
568.931	0.06	1137862	keystroke	l	n/a
569.051	0.06	1138102	keystroke	e	n/a
569.291	0.06	1138582	keystroke	s	n/a
569.561	0.09	1139122	keystroke	Key.enter	n/a
569.6555	6.237	1139311	prompt	n/a	delays cyber arrives keyword\n
570.326	0.105	1140652	keystroke	d	n/a
570.506	0.09	1141012	keystroke	e	n/a
570.611	0.06	1141222	keystroke	l	n/a
570.761	0.105	1141522	keystroke	a	n/a
570.911	0.075	1141822	keystroke	y	n/a
571.031	0.12	1142062	keystroke	s	n/a
571.136	0.09	1142272	keystroke	Key.space	n/a
571.376	0.12	1142752	keystroke	c	n/a
571.556	0.075	1143112	keystroke	y	n/a
571.796	0.06	1143592	keystroke	b	n/a
571.901	0.105	1143802	keystroke	e	n/a
571.991	0.105	1143982	keystroke	r	n/a
572.306	0.075	1144612	keystroke	Key.space	n/a
572.471	0.075	1144942	keystroke	a	n/a
572.741	0.06	1145482	keystroke	r	n/a
572.981	0.015	1145962	keystroke	r	n/a
573.011	0.06	1146022	keystroke	i	n/a
573.146	0.075	1146292	keystroke	v	n/a
573.3715	0.0745	1146743	keystroke	e	n/a
573.686	0.09	1147372	keystroke	s	n/a
573.7915	0.09	1147583	keystroke	Key.space	n/a
574.2265	0.075	1148453	keystroke	k	n/a
574.3615	0.105	1148723	keystroke	e	n/a
574.4965	0.075	1148993	keystroke	y	n/a
575.0665	0.075	1150133	keystroke	w	n/a
575.1565	0.09	1150313	keystroke	o	n/a
575.3515	0.075	1150703	keystroke	r	n/a
575.5915	0.0895	1151183	keystroke	d	n/a
575.7565	0.135	1151513	keystroke	Key.enter	n/a
575.8955	7.1975	1151791	prompt	n/a	titanium heights wasn't sector\n
576.5965	0.09	1153193	keystroke	t	n/a
576.7165	0.09	1153433	keystroke	i	n/a
576.9115	0.075	1153823	keystroke	t	n/a
577.1215	0.09	1154243	keystroke	a	n/a
577.2265	0.075	1154453	keystroke	n	n/a
577.4215	0.075	1154843	keystroke	i	n/a
577.5565	0.075	1155113	keystroke	u	n/a
577.7665	0.09	1155533	keystroke	m	n/a
577.8865	0.075	1155773	keystroke	Key.space	n/a
578.0665	0.09	1156133	keystroke	h	n/a
578.2015	0.09	1156403	keystroke	e	n/a
578.3365	0.0755	1156673	keystroke	i	n/a
578.5165	0.06	1157033	keystroke	g	n/a
578.5915	0.09	1157183	keystroke	h	n/a
578.8165	0.06	1157633	keystroke	t	n/a
579.0265	0.075	1158053	keystroke	s	n/a
579.1465	0.075	1158293	keystroke	Key.space	n/a
579.2665	0.075	1158533	keystroke	w	n/a
579.4165	0.135	1158833	keystroke	a	n/a
579.6715	0.075	1159343	keystroke	s	n/a
580.4965	0.075	1160993	keystroke	n	n/a
580.6915	0.06	1161383	keystroke	'	n/a
580.8565	0.09	1161713	keystroke	t	n/a
581.0965	0.089	1162193	keystroke	Key.space	n/a
581.3965	0.105	1162793	keystroke	s	n/a
581.5765	0.09	1163153	keystroke	e	n/a
581.8165	0.104	1163633	keystroke	c	n/a
582.2665	0.074	1164533	keystroke	t	n/a
582.3865	0.075	1164773	keystroke	o	n/a
582.5355	0.09	1165071	keystroke	r	n/a
582.956	0.135	1165912	keystroke	Key.enter	n/a
583.095	5.0225	1166190	prompt	n/a	serial such legal mission\n
583.961	0.09	1167922	keystroke	s	n/a
584.156	0.09	1168312	keystroke	e	n/a
584.336	0.075	1168672	keystroke	r	n/a
584.486	0.075	1168972	keystroke	i	n/a
584.636	0.105	1169272	keystroke	a	n/a
584.771	0.06	1169542	keystroke	l	n/a
584.861	0.075	1169722	keystroke	Key.space	n/a
585.131	0.075	1170262	keystroke	s	n/a
585.296	0.075	1170592	keystroke	u	n/a
585.446	0.12	1170892	keystroke	c	n/a
585.581	0.075	1171162	keystroke	h	n/a
585.656	0.075	1171312	keystroke	Key.space	n/a
585.881	0.075	1171762	keystroke	l	n/a
586.016	0.09	1172032	keystroke	e	n/a
586.166	0.09	1172332	keystroke	g	n/a
586.451	0.06	1172902	keystroke	a	n/a
586.571	0.09	1173142	keystroke	l	n/a
586.691	0.075	1173382	keystroke	Key.space	n/a
586.856	0.09	1173712	keystroke	m	n/a
587.021	0.105	1174042	keystroke	i	n/a
587.186	0.06	1174372	keystroke	s	n/a
587.321	0.075	1174642	keystroke	s	n/a
587.411	0.0755	1174822	keystroke	i	n/a
587.5765	0.06	1175153	keystroke	o	n/a
587.726	0.075	1175452	keystroke	n	n/a
587.996	0.12	1175992	keystroke	Key.enter	n/a
588.1205	6.267	1176241	prompt	n/a	paint selected prime perception\n
588.836	0.045	1177672	keystroke	p	n/a
588.956	0.105	1177912	keystroke	a	n/a
589.091	0.06	1178182	keystroke	i	n/a
589.241	0.09	1178482	keystroke	n	n/a
589.361	0.105	1178722	keystroke	t	n/a
589.481	0.09	1178962	keystroke	Key.space	n/a
589.631	0.105	1179262	keystroke	s	n/a
589.811	0.09	1179622	keystroke	e	n/a
589.946	0.075	1179892	keystroke	l	n/a
590.096	0.09	1180192	keystroke	e	n/a
590.321	0.075	1180642	keystroke	c	n/a
590.531	0.075	1181062	keystroke	t	n/a
590.711	0.06	1181422	keystroke	e	n/a
590.876	0.09	1181752	keystroke	d	n/a
590.981	0.075	1181962	keystroke	Key.space	n/a
591.161	0.075	1182322	keystroke	p	n/a
591.296	0.075	1182592	keystroke	r	n/a
591.401	0.075	1182802	keystroke	i	n/a
591.581	0.09	1183162	keystroke	m	n/a
591.701	0.075	1183402	keystroke	e	n/a
592.031	0.075	1184062	keystroke	Key.space	n/a
592.751	0.06	1185502	keystroke	p	n/a
592.841	0.12	1185682	keystroke	e	n/a
592.946	0.105	1185892	keystroke	r	n/a
593.186	0.105	1186372	keystroke	c	n/a
593.351	0.105	1186702	keystroke	e	n/a
593.486	0.075	1186972	keystroke	p	n/a
593.621	0.105	1187242	keystroke	t	n/a
593.741	0.09	1187482	keystroke	i	n/a
593.936	0.06	1187872	keystroke	o	n/a
594.086	0.075	1188172	keystroke	n	n/a
594.311	0.075	1188622	keystroke	Key.enter	n/a
594.3905	6.762	1188781	prompt	n/a	play inner government wire\n
596.953	0.013	1193906	keystroke	p	n/a
596.996	0.105	1193992	keystroke	l	n/a
597.236	0.105	1194472	keystroke	a	n/a
597.356	0.075	1194712	keystroke	y	n/a
597.461	0.075	1194922	keystroke	Key.space	n/a
598.151	0.0595	1196302	keystroke	i	n/a
598.3165	0.074	1196633	keystroke	n	n/a
598.4355	0.075	1196871	keystroke	n	n/a
598.5405	0.105	1197081	keystroke	e	n/a
598.7055	0.09	1197411	keystroke	r	n/a
598.8105	0.0755	1197621	keystroke	Key.space	n/a
598.932	0.104	1197864	keystroke	g	n/a
599.051	0.09	1198102	keystroke	o	n/a
599.216	0.06	1198432	keystroke	v	n/a
599.366	0.106	1198732	keystroke	e	n/a
599.441	0.09	1198882	keystroke	r	n/a
599.576	0.09	1199152	keystroke	n	n/a
599.816	0.03	1199632	keystroke	m	n/a
599.876	0.09	1199752	keystroke	e	n/a
600.026	0.075	1200052	keystroke	n	n/a
600.116	0.09	1200232	keystroke	t	n/a
600.251	0.075	1200502	keystroke	Key.space	n/a
600.551	0.09	1201102	keystroke	w	n/a
600.656	0.075	1201312	keystroke	i	n/a
600.836	0.105	1201672	keystroke	r	n/a
600.942	0.089	1201884	keystroke	e	n/a
601.061	0.09	1202122	keystroke	Key.enter	n/a
601.1555	8.082	1202311	prompt	n/a	persistent portfolio listing racial\n
603.3585	0.028	1206717	keystroke	p	n/a
603.4015	0.12	1206803	keystroke	e	n/a
603.5215	0.105	1207043	keystroke	r	n/a
604.0165	0.075	1208033	keystroke	s	n/a
604.1065	0.09	1208213	keystroke	i	n/a
604.3915	0.105	1208783	keystroke	s	n/a
604.6765	0.075	1209353	keystroke	t	n/a
604.8265	0.09	1209653	keystroke	e	n/a
604.9315	0.09	1209863	keystroke	n	n/a
605.0965	0.09	1210193	keystroke	t	n/a
605.2015	0.075	1210403	keystroke	Key.space	n/a
605.3815	0.09	1210763	keystroke	p	n/a
605.5765	0.06	1211153	keystroke	o	n/a
605.6815	0.06	1211363	keystroke	r	n/a
605.8315	0.075	1211663	keystroke	t	n/a
606.0565	0.09	1212113	keystroke	f	n/a
606.1615	0.06	1212323	keystroke	o	n/a
606.3415	0.06	1212683	keystroke	l	n/a
606.5215	0.06	1213043	keystroke	i	n/a
606.6865	0.075	1213373	keystroke	o	n/a
606.8665	0.09	1213733	keystroke	Key.space	n/a
607.0915	0.06	1214183	keystroke	l	n/a
607.2415	0.075	1214483	keystroke	i	n/a
607.3315	0.075	1214663	keystroke	s	n/a
607.5115	0.09	1215023	keystroke	t	n/a
607.6165	0.075	1215233	keystroke	i	n/a
607.7515	0.075	1215503	keystroke	n	n/a
607.8715	0.09	1215743	keystroke	g	n/a
607.9465	0.075	1215893	keystroke	Key.space	n/a
608.0965	0.09	1216193	keystroke	r	n/a
608.2765	0.09	1216553	keystroke	a	n/a
608.486	0.075	1216972	keystroke	c	n/a
608.621	0.105	1217242	keystroke	i	n/a
608.786	0.075	1217572	keystroke	a	n/a
608.876	0.09	1217752	keystroke	l	n/a
609.161	0.075	1218322	keystroke	Key.enter	n/a
609.24	12.313	1218480	prompt	n/a	yale frederick badly contribute\n
610.166	0.09	1220332	keystroke	y	n/a
610.271	0.09	1220542	keystroke	a	n/a
610.451	0.075	1220902	keystroke	l	n/a
610.586	0.09	1221172	keystroke	e	n/a
610.736	0.09	1221472	keystroke	Key.space	n/a
610.916	0.09	1221832	keystroke	f	n/a
611.111	0.09	1222222	keystroke	r	n/a
611.216	0.075	1222432	keystroke	e	n/a
611.441	0.075	1222882	keystroke	d	n/a
611.591	0.135	1223182	keystroke	e	n/a
611.726	0.09	1223452	keystroke	r	n/a
611.861	0.075	1223722	keystroke	i	n/a
612.056	0.09	1224112	keystroke	c	n/a
612.176	0.09	1224352	keystroke	k	n/a
612.311	0.075	1224622	keystroke	Key.space	n/a
612.506	0.075	1225012	keystroke	b	n/a
612.641	0.046	1225282	keystroke	a	n/a
612.791	0.09	1225582	keystroke	d	n/a
612.912	0.06	1225824	keystroke	l	n/a
613.046	0.09	1226092	keystroke	e	n/a
613.196	0.09	1226392	keystroke	y	n/a
613.751	0.06	1227502	keystroke	Key.backspace	n/a
613.886	0.075	1227772	keystroke	Key.backspace	n/a
614.891	0.105	1229782	keystroke	y	n/a
615.281	0.09	1230562	keystroke	Key.space	n/a
615.416	0.135	1230832	keystroke	c	n/a
615.536	0.06	1231072	keystroke	o	n/a
615.716	0.075	1231432	keystroke	n	n/a
619.049	0.027	1238098	keystroke	t	n/a
619.3165	0.0895	1238633	keystroke	r	n/a
619.436	0.09	1238872	keystroke	i	n/a
619.706	0.09	1239412	keystroke	b	n/a
619.871	0.09	1239742	keystroke	u	n/a
620.081	0.075	1240162	keystroke	t	n/a
620.306	0.075	1240612	keystroke	e	n/a
621.431	0.12	1242862	keystroke	Key.enter	n/a
621.5555	10.422	1243111	prompt	n/a	trivia speed dictionary introductory\n
622.871	0.075	1245742	keystroke	t	n/a
623.081	0.075	1246162	keystroke	r	n/a
623.201	0.09	1246402	keystroke	i	n/a
623.396	0.105	1246792	keystroke	v	n/a
623.531	0.075	1247062	keystroke	i	n/a
623.756	0.105	1247512	keystroke	a	n/a
623.906	0.075	1247812	keystroke	Key.space	n/a
624.056	0.105	1248112	keystroke	s	n/a
624.191	0.06	1248382	keystroke	p	n/a
624.311	0.075	1248622	keystroke	e	n/a
624.476	0.075	1248952	keystroke	e	n/a
624.656	0.09	1249312	keystroke	d	n/a
624.776	0.075	1249552	keystroke	Key.space	n/a
625.346	0.105	1250692	keystroke	d	n/a
625.481	0.09	1250962	keystroke	i	n/a
625.646	0.09	1251292	keystroke	c	n/a
625.871	0.09	1251742	keystroke	t	n/a
625.976	0.09	1251952	keystroke	i	n/a
626.156	0.045	1252312	keystroke	o	n/a
626.306	0.105	1252612	keystroke	n	n/a
626.426	0.105	1252852	keystroke	a	n/a
626.606	0.105	1253212	keystroke	r	n/a
626.726	0.09	1253452	keystroke	y	n/a
626.831	0.075	1253662	keystroke	Key.space	n/a
627.011	0.075	1254022	keystroke	i	n/a
627.161	0.105	1254322	keystroke	n	n/a
627.311	0.075	1254622	keystroke	t	n/a
627.596	0.06	1255192	keystroke	o	n/a
628.061	0.09	1256122	keystroke	Key.backspace	n/a
628.346	0.075	1256692	keystroke	r	n/a
628.631	0.075	1257262	keystroke	o	n/a
629.5165	0.09	1259033	keystroke	d	n/a
629.6515	0.06	1259303	keystroke	u	n/a
629.7865	0.105	1259573	keystroke	c	n/a
630.0565	0.06	1260113	keystroke	t	n/a
630.2065	0.075	1260413	keystroke	o	n/a
630.3565	0.075	1260713	keystroke	r	n/a
630.4615	0.12	1260923	keystroke	y	n/a
631.8865	0.09	1263773	keystroke	Key.enter	n/a
631.9805	9.702	1263961	prompt	n/a	testament powerseller prospect manor\n
632.7265	0.09	1265453	keystroke	t	n/a
632.8915	0.09	1265783	keystroke	e	n/a
633.1165	0.075	1266233	keystroke	s	n/a
633.3265	0.075	1266653	keystroke	t	n/a
633.5815	0.09	1267163	keystroke	a	n/a
633.9115	0.03	1267823	keystroke	n	n/a
635.3515	0.075	1270703	keystroke	Key.backspace	n/a
635.8015	0.075	1271603	keystroke	m	n/a
635.9065	0.105	1271813	keystroke	e	n/a
636.0265	0.09	1272053	keystroke	n	n/a
636.2215	0.105	1272443	keystroke	t	n/a
636.8365	0.06	1273673	keystroke	Key.space	n/a
637.0465	0.075	1274093	keystroke	p	n/a
637.2565	0.075	1274513	keystroke	o	n/a
637.3465	0.135	1274693	keystroke	w	n/a
637.4665	0.09	1274933	keystroke	e	n/a
637.6465	0.0745	1275293	keystroke	r	n/a
637.826	0.105	1275652	keystroke	s	n/a
638.036	0.075	1276072	keystroke	e	n/a
638.126	0.045	1276252	keystroke	l	n/a
638.246	0.0895	1276492	keystroke	l	n/a
638.4405	0.121	1276881	keystroke	e	n/a
638.5305	0.12	1277061	keystroke	r	n/a
638.7105	0.09	1277421	keystroke	Key.space	n/a
639.0255	0.06	1278051	keystroke	p	n/a
639.4755	0.075	1278951	keystroke	r	n/a
639.6105	0.076	1279221	keystroke	o	n/a
639.776	0.1055	1279552	keystroke	s	n/a
640.0005	0.06	1280001	keystroke	p	n/a
640.1205	0.105	1280241	keystroke	e	n/a
640.3455	0.105	1280691	keystroke	c	n/a
640.6005	0.075	1281201	keystroke	t	n/a
640.691	0.0745	1281382	keystroke	Key.space	n/a
640.916	0.075	1281832	keystroke	m	n/a
641.021	0.09	1282042	keystroke	a	n/a
641.126	0.06	1282252	keystroke	n	n/a
641.276	0.075	1282552	keystroke	o	n/a
641.441	0.075	1282882	keystroke	r	n/a
641.576	0.105	1283152	keystroke	Key.enter	n/a
641.6855	9.0725	1283371	prompt	n/a	stereo distribute referenced examinations\n
642.521	0.09	1285042	keystroke	s	n/a
642.866	0.09	1285732	keystroke	t	n/a
643.016	0.18	1286032	keystroke	e	n/a
643.181	0.09	1286362	keystroke	r	n/a
643.451	0.075	1286902	keystroke	e	n/a
643.541	0.075	1287082	keystroke	o	n/a
644.081	0.105	1288162	keystroke	Key.space	n/a
644.291	0.105	1288582	keystroke	d	n/a
644.486	0.075	1288972	keystroke	i	n/a
644.636	0.105	1289272	keystroke	s	n/a
644.891	0.075	1289782	keystroke	t	n/a
645.041	0.09	1290082	keystroke	r	n/a
645.176	0.09	1290352	keystroke	i	n/a
645.461	0.075	1290922	keystroke	b	n/a
645.611	0.09	1291222	keystroke	u	n/a
645.821	0.075	1291642	keystroke	t	n/a
645.986	0.09	1291972	keystroke	e	n/a
646.091	0.105	1292182	keystroke	Key.space	n/a
646.286	0.09	1292572	keystroke	r	n/a
646.361	0.105	1292722	keystroke	e	n/a
646.5855	0.09	1293171	keystroke	f	n/a
646.7355	0.105	1293471	keystroke	e	n/a
646.8555	0.12	1293711	keystroke	r	n/a
646.9915	0.089	1293983	keystroke	e	n/a
647.2005	0.0755	1294401	keystroke	n	n/a
647.3655	0.1055	1294731	keystroke	c	n/a
647.516	0.09	1295032	keystroke	e	n/a
647.711	0.09	1295422	keystroke	d	n/a
647.846	0.105	1295692	keystroke	Key.space	n/a
648.371	0.09	1296742	keystroke	e	n/a
648.611	0.075	1297222	keystroke	x	n/a
648.806	0.09	1297612	keystroke	a	n/a
648.926	0.075	1297852	keystroke	m	n/a
649.106	0.06	1298212	keystroke	i	n/a
649.271	0.0755	1298542	keystroke	n	n/a
649.4515	0.09	1298903	keystroke	a	n/a
649.6615	0.09	1299323	keystroke	t	n/a
649.7665	0.075	1299533	keystroke	i	n/a
649.9315	0.06	1299863	keystroke	o	n/a
650.0665	0.105	1300133	keystroke	n	n/a
650.1865	0.12	1300373	keystroke	s	n/a
650.6965	0.06	1301393	keystroke	Key.enter	n/a
650.761	5.8765	1301522	prompt	n/a	lightning forever technical fighting\n
651.5515	0.045	1303103	keystroke	l	n/a
651.7315	0.075	1303463	keystroke	i	n/a
651.8365	0.105	1303673	keystroke	g	n/a
651.9565	0.075	1303913	keystroke	h	n/a
652.0765	0.09	1304153	keystroke	t	n/a
652.2855	0.061	1304571	keystroke	n	n/a
652.4065	0.06	1304813	keystroke	i	n/a
652.5565	0.075	1305113	keystroke	n	n/a
652.6765	0.075	1305353	keystroke	g	n/a
652.7665	0.075	1305533	keystroke	Key.space	n/a
652.9315	0.075	1305863	keystroke	f	n/a
653.0215	0.059	1306043	keystroke	o	n/a
653.1565	0.104	1306313	keystroke	r	n/a
653.3055	0.09	1306611	keystroke	e	n/a
653.4555	0.09	1306911	keystroke	v	n/a
653.5615	0.089	1307123	keystroke	e	n/a
653.6955	0.105	1307391	keystroke	r	n/a
653.8305	0.09	1307661	keystroke	Key.space	n/a
653.9365	0.089	1307873	keystroke	t	n/a
654.0855	0.091	1308171	keystroke	e	n/a
654.3115	0.105	1308623	keystroke	c	n/a
654.4455	0.076	1308891	keystroke	h	n/a
654.6865	0.044	1309373	keystroke	n	n/a
654.8215	0.09	1309643	keystroke	i	n/a
654.9705	0.075	1309941	keystroke	c	n/a
655.1205	0.121	1310241	keystroke	a	n/a
655.2555	0.09	1310511	keystroke	l	n/a
655.3755	0.09	1310751	keystroke	Key.space	n/a
655.5105	0.105	1311021	keystroke	f	n/a
655.6005	0.061	1311201	keystroke	i	n/a
655.7205	0.09	1311441	keystroke	g	n/a
655.8115	0.119	1311623	keystroke	h	n/a
655.9755	0.06	1311951	keystroke	t	n/a
656.1255	0.075	1312251	keystroke	i	n/a
656.2905	0.06	1312581	keystroke	n	n/a
656.3955	0.09	1312791	keystroke	g	n/a
656.5305	0.105	1313061	keystroke	Key.enter	n/a
656.6425	5.62	1313285	prompt	n/a	you'd all cleaner coverage\n
657.5055	0.075	1315011	keystroke	y	n/a
657.761	0.06	1315522	keystroke	o	n/a
657.776	0.075	1315552	keystroke	u	n/a
658.226	0.075	1316452	keystroke	'	n/a
658.391	0.075	1316782	keystroke	d	n/a
658.6465	0.075	1317293	keystroke	Key.space	n/a
658.7965	0.105	1317593	keystroke	a	n/a
658.9615	0.045	1317923	keystroke	l	n/a
659.0815	0.09	1318163	keystroke	l	n/a
659.2015	0.075	1318403	keystroke	Key.space	n/a
659.3665	0.075	1318733	keystroke	c	n/a
659.4865	0.06	1318973	keystroke	l	n/a
659.6065	0.105	1319213	keystroke	e	n/a
659.8615	0.12	1319723	keystroke	a	n/a
660.1915	0.075	1320383	keystroke	n	n/a
660.3415	0.1195	1320683	keystroke	e	n/a
660.446	0.12	1320892	keystroke	r	n/a
660.581	0.075	1321162	keystroke	Key.space	n/a
660.731	0.105	1321462	keystroke	c	n/a
660.866	0.075	1321732	keystroke	o	n/a
661.106	0.015	1322212	keystroke	v	n/a
661.196	0.135	1322392	keystroke	e	n/a
661.301	0.165	1322602	keystroke	r	n/a
661.646	0.09	1323292	keystroke	a	n/a
661.751	0.09	1323502	keystroke	g	n/a
661.886	0.105	1323772	keystroke	e	n/a
662.216	0.045	1324432	keystroke	Key.enter	n/a
662.2655	11.112	1324531	prompt	n/a	filed wrong albany rental\n
663.101	0.105	1326202	keystroke	f	n/a
663.251	0.075	1326502	keystroke	o	n/a
663.506	0.045	1327012	keystroke	l	n/a
663.596	0.075	1327192	keystroke	e	n/a
663.791	0.075	1327582	keystroke	d	n/a
663.896	0.075	1327792	keystroke	Key.space	n/a
664.046	0.105	1328092	keystroke	w	n/a
664.226	0.105	1328452	keystroke	r	n/a
664.346	0.06	1328692	keystroke	o	n/a
664.526	0.09	1329052	keystroke	n	n/a
664.661	0.09	1329322	keystroke	g	n/a
665.696	0.075	1331392	keystroke	Key.backspace	n/a
665.981	0.075	1331962	keystroke	Key.backspace	n/a
666.296	0.09	1332592	keystroke	Key.backspace	n/a
666.581	0.09	1333162	keystroke	Key.backspace	n/a
666.911	0.06	1333822	keystroke	Key.backspace	n/a
667.2105	0.075	1334421	keystroke	Key.backspace	n/a
667.5255	0.075	1335051	keystroke	Key.backspace	n/a
667.8105	0.09	1335621	keystroke	Key.backspace	n/a
668.0805	0.09	1336161	keystroke	Key.backspace	n/a
668.4705	0.09	1336941	keystroke	Key.backspace	n/a
669.2815	0.089	1338563	keystroke	i	n/a
669.5355	0.09	1339071	keystroke	l	n/a
669.6855	0.075	1339371	keystroke	e	n/a
669.8805	0.105	1339761	keystroke	d	n/a
670.0005	0.09	1340001	keystroke	Key.space	n/a
670.1205	0.09	1340241	keystroke	w	n/a
670.2705	0.106	1340541	keystroke	r	n/a
670.3905	0.09	1340781	keystroke	o	n/a
670.5705	0.09	1341141	keystroke	n	n/a
670.6905	0.09	1341381	keystroke	g	n/a
670.7955	0.09	1341591	keystroke	Key.space	n/a
670.9905	0.105	1341981	keystroke	a	n/a
671.0655	0.075	1342131	keystroke	l	n/a
671.2605	0.075	1342521	keystroke	b	n/a
671.4405	0.09	1342881	keystroke	a	n/a
671.5155	0.09	1343031	keystroke	n	n/a
671.7105	0.075	1343421	keystroke	y	n/a
671.8005	0.09	1343601	keystroke	Key.space	n/a
671.9665	0.104	1343933	keystroke	r	n/a
672.2655	0.105	1344531	keystroke	e	n/a
672.3855	0.09	1344771	keystroke	n	n/a
672.5805	0.09	1345161	keystroke	t	n/a
672.8505	0.075	1345701	keystroke	a	n/a
672.8955	0.105	1345791	keystroke	l	n/a
673.2555	0.12	1346511	keystroke	Key.enter	n/a
673.3805	7.842	1346761	prompt	n/a	asian cancel incoming probability\n
674.156	0.09	1348312	keystroke	a	n/a
674.3655	0.075	1348731	keystroke	s	n/a
