onset	duration	sample	value	key	prompt_text
4.5525	11.918	9105	prompt	n/a	the quick brown fox jumps over a lazy dog\n
5.8925	0.043	11785	keystroke_t	t	n/a
6.102	0.075	12204	keystroke_h	h	n/a
6.297	0.0895	12594	keystroke_e	e	n/a
6.492	0.09	12984	keystroke_Key.space	Key.space	n/a
6.597	0.074	13194	keystroke_q	q	n/a
6.8065	0.0755	13613	keystroke_u	u	n/a
7.001	0.091	14002	keystroke_i	i	n/a
7.167	0.1045	14334	keystroke_c	c	n/a
7.332	0.1195	14664	keystroke_k	k	n/a
7.512	0.09	15024	keystroke_Key.space	Key.space	n/a
8.172	0.0895	16344	keystroke_b	b	n/a
8.5475	0.0895	17095	keystroke_r	r	n/a
8.757	0.06	17514	keystroke_o	o	n/a
9.057	0.1045	18114	keystroke_w	w	n/a
9.267	0.105	18534	keystroke_n	n	n/a
9.447	0.12	18894	keystroke_Key.space	Key.space	n/a
9.6415	0.0745	19283	keystroke_f	f	n/a
9.821	0.121	19642	keystroke_o	o	n/a
10.062	0.06	20124	keystroke_x	x	n/a
10.211	0.106	20422	keystroke_Key.space	Key.space	n/a
10.497	0.09	20994	keystroke_j	j	n/a
10.707	0.09	21414	keystroke_u	u	n/a
11.007	0.06	22014	keystroke_m	m	n/a
11.202	0.09	22404	keystroke_p	p	n/a
11.3065	0.1205	22613	keystroke_s	s	n/a
11.457	0.075	22914	keystroke_Key.space	Key.space	n/a
11.637	0.074	23274	keystroke_o	o	n/a
11.9365	0.09	23873	keystroke_v	v	n/a
12.0715	0.2105	24143	keystroke_e	e	n/a
12.1915	0.1505	24383	keystroke_r	r	n/a
12.372	0.104	24744	keystroke_Key.space	Key.space	n/a
12.582	0.075	25164	keystroke_a	a	n/a
12.657	0.0745	25314	keystroke_Key.space	Key.space	n/a
13.1215	0.105	26243	keystroke_;	;	n/a
13.272	0.1345	26544	keystroke_a	a	n/a
13.8115	0.075	27623	keystroke_Key.backspace	Key.backspace	n/a
14.0215	0.075	28043	keystroke_Key.backspace	Key.backspace	n/a
14.607	0.09	29214	keystroke_l	l	n/a
14.756	0.0905	29512	keystroke_a	a	n/a
15.1165	0.1355	30233	keystroke_z	z	n/a
15.371	0.091	30742	keystroke_y	y	n/a
15.5515	0.1055	31103	keystroke_Key.space	Key.space	n/a
15.762	0.1045	31524	keystroke_d	d	n/a
15.8815	0.12	31763	keystroke_o	o	n/a
16.0465	0.105	32093	keystroke_g	g	n/a
16.3765	0.0905	32753	keystroke_Key.enter	Key.enter	n/a
16.477	9.607	32954	prompt	n/a	variables receive dreams headset\n
17.322	0.075	34644	keystroke_v	v	n/a
17.5775	0.1045	35155	keystroke_a	a	n/a
17.8165	0.091	35633	keystroke_r	r	n/a
18.012	0.104	36024	keystroke_i	i	n/a
18.1765	0.1495	36353	keystroke_a	a	n/a
18.3865	0.1045	36773	keystroke_b	b	n/a
18.627	0.1345	37254	keystroke_l	l	n/a
18.822	0.075	37644	keystroke_e	e	n/a
18.957	0.119	37914	keystroke_Key.space	Key.space	n/a
19.2115	0.135	38423	keystroke_r	r	n/a
19.407	0.1195	38814	keystroke_e	e	n/a
19.7375	0.119	39475	keystroke_v	v	n/a
20.307	0.105	40614	keystroke_Key.backspace	Key.backspace	n/a
20.562	0.09	41124	keystroke_c	c	n/a
20.817	0.0595	41634	keystroke_e	e	n/a
20.967	0.0895	41934	keystroke_i	i	n/a
21.2365	0.0905	42473	keystroke_v	v	n/a
21.5815	0.075	43163	keystroke_e	e	n/a
21.882	0.119	43764	keystroke_Key.space	Key.space	n/a
22.437	0.0895	44874	keystroke_d	d	n/a
22.7515	0.1505	45503	keystroke_r	r	n/a
22.872	0.1945	45744	keystroke_e	e	n/a
23.022	0.15	46044	keystroke_a	a	n/a
23.2325	0.149	46465	keystroke_m	m	n/a
23.412	0.089	46824	keystroke_s	s	n/a
23.5465	0.09	47093	keystroke_Key.space	Key.space	n/a
23.772	0.105	47544	keystroke_h	h	n/a
23.892	0.1495	47784	keystroke_e	e	n/a
23.9965	0.2105	47993	keystroke_a	a	n/a
24.252	0.12	48504	keystroke_d	d	n/a
24.687	0.0895	49374	keystroke_s	s	n/a
25.452	0.105	50904	keystroke_e	e	n/a
25.677	0.09	51354	keystroke_t	t	n/a
25.9765	0.1055	51953	keystroke_Key.enter	Key.enter	n/a
26.089	7.345	52178	prompt	n/a	usually pain average frequent\n
26.802	0.06	53604	keystroke_u	u	n/a
26.8915	0.1195	53783	keystroke_s	s	n/a
27.027	0.059	54054	keystroke_u	u	n/a
27.162	0.1045	54324	keystroke_a	a	n/a
27.296	0.061	54592	keystroke_l	l	n/a
27.447	0.09	54894	keystroke_l	l	n/a
27.717	0.09	55434	keystroke_y	y	n/a
27.882	0.075	55764	keystroke_Key.space	Key.space	n/a
28.1665	0.0905	56333	keystroke_p	p	n/a
28.3015	0.105	56603	keystroke_a	a	n/a
28.4215	0.12	56843	keystroke_i	i	n/a
28.707	0.075	57414	keystroke_n	n	n/a
28.827	0.104	57654	keystroke_Key.space	Key.space	n/a
29.052	0.135	58104	keystroke_a	a	n/a
29.232	0.09	58464	keystroke_v	v	n/a
29.397	0.165	58794	keystroke_e	e	n/a
29.532	0.12	59064	keystroke_r	r	n/a
29.817	0.045	59634	keystroke_g	g	n/a
30.2665	0.0895	60533	keystroke_Key.backspace	Key.backspace	n/a
30.417	0.105	60834	keystroke_a	a	n/a
30.657	0.105	61314	keystroke_g	g	n/a
30.792	0.09	61584	keystroke_e	e	n/a
30.957	0.105	61914	keystroke_Key.space	Key.space	n/a
31.602	0.0745	63204	keystroke_f	f	n/a
31.842	0.15	63684	keystroke_r	r	n/a
31.9465	0.09	63893	keystroke_e	e	n/a
32.336	0.091	64672	keystroke_q	q	n/a
32.516	0.076	65032	keystroke_u	u	n/a
32.622	0.1355	65244	keystroke_e	e	n/a
32.787	0.119	65574	keystroke_n	n	n/a
33.012	0.09	66024	keystroke_t	t	n/a
33.297	0.135	66594	keystroke_Key.enter	Key.enter	n/a
33.4385	8.6805	66877	prompt	n/a	verified lifetime swim barbie\n
34.242	0.134	68484	keystroke_v	v	n/a
34.647	0.135	69294	keystroke_e	e	n/a
34.7975	0.104	69595	keystroke_r	r	n/a
35.547	0.1055	71094	keystroke_t	t	n/a
36.087	0.089	72174	keystroke_Key.backspace	Key.backspace	n/a
36.432	0.104	72864	keystroke_i	i	n/a
37.122	0.09	74244	keystroke_f	f	n/a
37.2715	0.076	74543	keystroke_i	i	n/a
37.4065	0.165	74813	keystroke_e	e	n/a
37.542	0.105	75084	keystroke_d	d	n/a
37.7515	0.0905	75503	keystroke_Key.space	Key.space	n/a
38.0075	0.104	76015	keystroke_l	l	n/a
38.2165	0.0905	76433	keystroke_i	i	n/a
38.397	0.135	76794	keystroke_f	f	n/a
38.592	0.135	77184	keystroke_e	e	n/a
38.892	0.09	77784	keystroke_t	t	n/a
39.012	0.09	78024	keystroke_i	i	n/a
39.237	0.0755	78474	keystroke_m	m	n/a
39.357	0.09	78714	keystroke_e	e	n/a
39.432	0.0895	78864	keystroke_Key.space	Key.space	n/a
39.8665	0.0605	79733	keystroke_s	s	n/a
40.047	0.0905	80094	keystroke_w	w	n/a
40.1815	0.1055	80363	keystroke_i	i	n/a
40.467	0.09	80934	keystroke_m	m	n/a
40.602	0.105	81204	keystroke_Key.space	Key.space	n/a
40.8875	0.0745	81775	keystroke_b	b	n/a
41.0215	0.166	82043	keystroke_a	a	n/a
41.217	0.1045	82434	keystroke_r	r	n/a
41.3525	0.105	82705	keystroke_b	b	n/a
41.5765	0.105	83153	keystroke_i	i	n/a
41.6975	0.12	83395	keystroke_e	e	n/a
42.012	0.1045	84024	keystroke_Key.enter	Key.enter	n/a
42.123	8.276	84246	prompt	n/a	film welsh visual distinction\n
42.8065	0.106	85613	keystroke_f	f	n/a
43.0765	0.06	86153	keystroke_i	i	n/a
43.287	0.1345	86574	keystroke_l	l	n/a
43.527	0.105	87054	keystroke_m	m	n/a
43.6765	0.105	87353	keystroke_Key.space	Key.space	n/a
44.0965	0.1355	88193	keystroke_w	w	n/a
44.472	0.09	88944	keystroke_e	e	n/a
44.697	0.1205	89394	keystroke_l	l	n/a
44.832	0.135	89664	keystroke_s	s	n/a
45.041	0.121	90082	keystroke_h	h	n/a
45.357	0.09	90714	keystroke_Key.space	Key.space	n/a
45.732	0.09	91464	keystroke_v	v	n/a
46.2275	0.075	92455	keystroke_i	i	n/a
46.422	0.135	92844	keystroke_s	s	n/a
46.5865	0.105	93173	keystroke_u	u	n/a
46.8865	0.015	93773	keystroke_a	a	n/a
46.9475	0.1345	93895	keystroke_l	l	n/a
47.1865	0.0755	94373	keystroke_Key.space	Key.space	n/a
47.4415	0.0455	94883	keystroke_s	s	n/a
47.847	0.075	95694	keystroke_Key.backspace	Key.backspace	n/a
47.982	0.1055	95964	keystroke_d	d	n/a
48.222	0.09	96444	keystroke_i	i	n/a
48.3875	0.0895	96775	keystroke_s	s	n/a
48.927	0.06	97854	keystroke_t	t	n/a
49.0325	0.0595	98065	keystroke_i	i	n/a
49.1975	0.089	98395	keystroke_n	n	n/a
49.3015	0.076	98603	keystroke_c	c	n/a
49.5575	0.09	99115	keystroke_t	t	n/a
49.6925	0.12	99385	keystroke_i	i	n/a
49.8265	0.12	99653	keystroke_o	o	n/a
50.022	0.105	100044	keystroke_n	n	n/a
50.307	0.0895	100614	keystroke_Key.enter	Key.enter	n/a
50.4045	10.7095	100809	prompt	n/a	headquarters receiver consists combination\n
51.117	0.09	102234	keystroke_h	h	n/a
51.222	0.1505	102444	keystroke_e	e	n/a
51.357	0.195	102714	keystroke_a	a	n/a
51.537	0.135	103074	keystroke_d	d	n/a
51.8515	0.1205	103703	keystroke_q	q	n/a
52.1065	0.045	104213	keystroke_u	u	n/a
52.2415	0.09	104483	keystroke_a	a	n/a
52.4675	0.0895	104935	keystroke_r	r	n/a
52.5875	0.1045	105175	keystroke_t	t	n/a
52.7375	0.1795	105475	keystroke_e	e	n/a
52.857	0.165	105714	keystroke_r	r	n/a
53.082	0.1205	106164	keystroke_s	s	n/a
53.2765	0.12	106553	keystroke_Key.space	Key.space	n/a
53.577	0.1045	107154	keystroke_r	r	n/a
53.727	0.0595	107454	keystroke_e	e	n/a
54.0265	0.0755	108053	keystroke_c	c	n/a
54.237	0.06	108474	keystroke_e	e	n/a
54.342	0.09	108684	keystroke_i	i	n/a
54.8075	0.014	109615	keystroke_v	v	n/a
54.8375	0.179	109675	keystroke_e	e	n/a
55.2875	0.1195	110575	keystroke_r	r	n/a
55.602	0.12	111204	keystroke_Key.space	Key.space	n/a
55.872	0.09	111744	keystroke_c	c	n/a
55.977	0.09	111954	keystroke_o	o	n/a
56.1725	0.09	112345	keystroke_n	n	n/a
56.3075	0.0895	112615	keystroke_s	s	n/a
56.7125	0.075	113425	keystroke_i	i	n/a
56.9975	0.06	113995	keystroke_s	s	n/a
57.282	0.09	114564	keystroke_t	t	n/a
57.567	0.09	115134	keystroke_s	s	n/a
57.972	0.09	115944	keystroke_Key.space	Key.space	n/a
58.542	0.1045	117084	keystroke_c	c	n/a
58.6325	0.0745	117265	keystroke_o	o	n/a
58.917	0.1045	117834	keystroke_m	m	n/a
59.6515	0.075	119303	keystroke_b	b	n/a
59.772	0.0595	119544	keystroke_i	i	n/a
59.9065	0.1055	119813	keystroke_n	n	n/a
60.042	0.1645	120084	keystroke_a	a	n/a
60.327	0.105	120654	keystroke_t	t	n/a
60.447	0.075	120894	keystroke_i	i	n/a
60.552	0.105	121104	keystroke_o	o	n/a
60.762	0.075	121524	keystroke_n	n	n/a
61.017	0.09	122034	keystroke_Key.enter	Key.enter	n/a
61.119	9.955	122238	prompt	n/a	reproduction night karaoke provides\n
61.977	0.105	123954	keystroke_r	r	n/a
62.1115	0.105	124223	keystroke_e	e	n/a
62.4575	0.12	124915	keystroke_p	p	n/a
62.607	0.105	125214	keystroke_r	r	n/a
62.727	0.12	125454	keystroke_o	o	n/a
63.1775	0.075	126355	keystroke_d	d	n/a
63.6565	0.0455	127313	keystroke_u	u	n/a
64.0775	0.104	128155	keystroke_c	c	n/a
64.407	0.09	128814	keystroke_t	t	n/a
64.572	0.0895	129144	keystroke_i	i	n/a
64.707	0.09	129414	keystroke_o	o	n/a
64.9325	0.0895	129865	keystroke_n	n	n/a
65.0965	0.0755	130193	keystroke_Key.space	Key.space	n/a
65.6825	0.0895	131365	keystroke_n	n	n/a
65.9525	0.105	131905	keystroke_i	i	n/a
66.1475	0.0745	132295	keystroke_g	g	n/a
66.327	0.09	132654	keystroke_h	h	n/a
66.492	0.1055	132984	keystroke_t	t	n/a
66.6725	0.0895	133345	keystroke_Key.space	Key.space	n/a
66.8675	0.12	133735	keystroke_k	k	n/a
67.002	0.1205	134004	keystroke_a	a	n/a
67.182	0.1505	134364	keystroke_r	r	n/a
67.3475	0.105	134695	keystroke_a	a	n/a
67.5725	0.12	135145	keystroke_o	o	n/a
67.782	0.1045	135564	keystroke_k	k	n/a
67.962	0.0745	135924	keystroke_e	e	n/a
68.172	0.075	136344	keystroke_Key.space	Key.space	n/a
68.3825	0.119	136765	keystroke_p	p	n/a
68.5765	0.12	137153	keystroke_r	r	n/a
68.7865	0.09	137573	keystroke_o	o	n/a
69.042	0.105	138084	keystroke_v	v	n/a
69.3125	0.074	138625	keystroke_i	i	n/a
69.6875	0.015	139375	keystroke_d	d	n/a
70.1075	0.09	140215	keystroke_e	e	n/a
70.6325	0.089	141265	keystroke_s	s	n/a
70.977	0.0895	141954	keystroke_Key.enter	Key.enter	n/a
71.082	8.6415	142164	prompt	n/a	lamp minerals kerry obvious\n
71.8465	0.12	143693	keystroke_l	l	n/a
72.0565	0.105	144113	keystroke_a	a	n/a
72.222	0.105	144444	keystroke_m	m	n/a
72.477	0.105	144954	keystroke_p	p	n/a
72.702	0.0755	145404	keystroke_s	s	n/a
72.8825	0.0745	145765	keystroke_Key.space	Key.space	n/a
73.107	0.075	146214	keystroke_m	m	n/a
73.317	0.0755	146634	keystroke_i	i	n/a
73.542	0.075	147084	keystroke_n	n	n/a
73.632	0.225	147264	keystroke_e	e	n/a
73.767	0.165	147534	keystroke_r	r	n/a
73.977	0.135	147954	keystroke_a	a	n/a
74.248	0.104	148496	keystroke_l	l	n/a
74.4725	0.1055	148945	keystroke_s	s	n/a
74.637	0.09	149274	keystroke_Key.space	Key.space	n/a
75.012	0.06	150024	keystroke_k	k	n/a
75.147	0.165	150294	keystroke_e	e	n/a
75.372	0.105	150744	keystroke_r	r	n/a
75.7475	0.1045	151495	keystroke_r	r	n/a
76.3325	0.075	152665	keystroke_y	y	n/a
76.767	0.075	153534	keystroke_Key.space	Key.space	n/a
76.962	0.105	153924	keystroke_o	o	n/a
78.0565	0.09	156113	keystroke_b	b	n/a
78.6575	0.0595	157315	keystroke_v	v	n/a
78.777	0.105	157554	keystroke_i	i	n/a
78.942	0.1055	157884	keystroke_o	o	n/a
79.1225	0.09	158245	keystroke_u	u	n/a
79.317	0.075	158634	keystroke_s	s	n/a
79.647	0.075	159294	keystroke_Key.enter	Key.enter	n/a
79.7275	15.011	159455	prompt	n/a	caused connecticut pursuant portsmouth\n
80.517	0.105	161034	keystroke_c	c	n/a
80.7275	0.1345	161455	keystroke_a	a	n/a
80.892	0.105	161784	keystroke_u	u	n/a
81.027	0.12	162054	keystroke_s	s	n/a
81.1625	0.1495	162325	keystroke_e	e	n/a
81.2975	0.1045	162595	keystroke_d	d	n/a
81.537	0.105	163074	keystroke_Key.space	Key.space	n/a
81.627	0.1205	163254	keystroke_c	c	n/a
81.7765	0.091	163553	keystroke_o	o	n/a
82.0165	0.0605	164033	keystroke_n	n	n/a
82.1825	0.0745	164365	keystroke_n	n	n/a
82.2725	0.1195	164545	keystroke_e	e	n/a
82.6925	0.075	165385	keystroke_c	c	n/a
82.9925	0.1045	165985	keystroke_t	t	n/a
83.127	0.1205	166254	keystroke_i	i	n/a
83.427	0.1205	166854	keystroke_c	c	n/a
83.6675	0.089	167335	keystroke_u	u	n/a
83.922	0.135	167844	keystroke_t	t	n/a
84.252	0.075	168504	keystroke_Key.space	Key.space	n/a
84.522	0.0145	169044	keystroke_p	p	n/a
85.2725	0.074	170545	keystroke_u	u	n/a
85.602	0.0905	171204	keystroke_r	r	n/a
86.127	0.1355	172254	keystroke_s	s	n/a
86.787	0.075	173574	keystroke_u	u	n/a
87.012	0.135	174024	keystroke_a	a	n/a
87.432	0.121	174864	keystroke_n	n	n/a
87.567	0.1045	175134	keystroke_t	t	n/a
87.7325	0.089	175465	keystroke_Key.space	Key.space	n/a
87.9565	0.106	175913	keystroke_p	p	n/a
88.1075	0.075	176215	keystroke_r	r	n/a
88.2425	0.075	176485	keystroke_o	o	n/a
88.5565	0.106	177113	keystroke_t	t	n/a
89.1425	0.0895	178285	keystroke_m	m	n/a
89.697	0.06	179394	keystroke_Key.backspace	Key.backspace	n/a
89.847	0.075	179694	keystroke_s	s	n/a
90.567	0.09	181134	keystroke_Key.backspace	Key.backspace	n/a
90.747	0.075	181494	keystroke_Key.backspace	Key.backspace	n/a
90.942	0.075	181884	keystroke_Key.backspace	Key.backspace	n/a
91.4065	0.046	182813	keystroke_Key.backspace	Key.backspace	n/a
91.752	0.075	183504	keystroke_o	o	n/a
92.037	0.075	184074	keystroke_r	r	n/a
92.277	0.06	184554	keystroke_t	t	n/a
92.502	0.15	185004	keystroke_s	s	n/a
93.372	0.105	186744	keystroke_m	m	n/a
93.627	0.12	187254	keystroke_o	o	n/a
93.942	0.0895	187884	keystroke_u	u	n/a
94.092	0.0905	188184	keystroke_t	t	n/a
94.3015	0.1055	188603	keystroke_h	h	n/a
94.647	0.09	189294	keystroke_Key.enter	Key.enter	n/a
94.745	8.499	189490	prompt	n/a	gratis actual needs transportation\n
95.967	0.0895	191934	keystroke_g	g	n/a
96.0865	0.1355	192173	keystroke_r	r	n/a
96.2375	0.1645	192475	keystroke_a	a	n/a
96.462	0.09	192924	keystroke_t	t	n/a
96.628	0.1035	193256	keystroke_i	i	n/a
96.8365	0.105	193673	keystroke_s	s	n/a
96.9865	0.105	193973	keystroke_Key.space	Key.space	n/a
97.1365	0.12	194273	keystroke_a	a	n/a
97.3625	0.119	194725	keystroke_c	c	n/a
97.6465	0.091	195293	keystroke_t	t	n/a
97.7665	0.046	195533	keystroke_u	u	n/a
97.9625	0.15	195925	keystroke_a	a	n/a
98.0665	0.121	196133	keystroke_l	l	n/a
98.2765	0.076	196553	keystroke_Key.space	Key.space	n/a
98.4575	0.0895	196915	keystroke_n	n	n/a
98.562	0.075	197124	keystroke_e	e	n/a
98.757	0.1505	197514	keystroke_e	e	n/a
98.922	0.18	197844	keystroke_d	d	n/a
99.192	0.105	198384	keystroke_s	s	n/a
99.327	0.09	198654	keystroke_Key.space	Key.space	n/a
99.4925	0.15	198985	keystroke_t	t	n/a
99.6725	0.135	199345	keystroke_r	r	n/a
99.8825	0.134	199765	keystroke_a	a	n/a
100.047	0.105	200094	keystroke_n	n	n/a
100.212	0.075	200424	keystroke_s	s	n/a
100.422	0.1055	200844	keystroke_p	p	n/a
100.6175	0.105	201235	keystroke_o	o	n/a
100.7375	0.165	201475	keystroke_r	r	n/a
100.887	0.12	201774	keystroke_t	t	n/a
101.1415	0.1655	202283	keystroke_s	s	n/a
101.3375	0.1045	202675	keystroke_t	t	n/a
101.7725	0.09	203545	keystroke_Key.backspace	Key.backspace	n/a
101.9215	0.0905	203843	keystroke_Key.backspace	Key.backspace	n/a
102.042	0.12	204084	keystroke_a	a	n/a
102.2825	0.0895	204565	keystroke_t	t	n/a
102.447	0.105	204894	keystroke_i	i	n/a
102.612	0.135	205224	keystroke_o	o	n/a
102.867	0.105	205734	keystroke_n	n	n/a
103.1515	0.0905	206303	keystroke_Key.enter	Key.enter	n/a
103.249	8.9495	206498	prompt	n/a	targets review chubby example\n
104.007	0.09	208014	keystroke_t	t	n/a
104.202	0.15	208404	keystroke_a	a	n/a
104.3825	0.1045	208765	keystroke_r	r	n/a
104.547	0.1205	209094	keystroke_g	g	n/a
104.6375	0.1795	209275	keystroke_e	e	n/a
104.847	0.135	209694	keystroke_t	t	n/a
105.162	0.105	210324	keystroke_s	s	n/a
105.372	0.1055	210744	keystroke_Key.space	Key.space	n/a
105.537	0.165	211074	keystroke_r	r	n/a
105.657	0.15	211314	keystroke_e	e	n/a
105.9875	0.12	211975	keystroke_v	v	n/a
106.272	0.105	212544	keystroke_i	i	n/a
106.872	0.195	213744	keystroke_e	e	n/a
107.082	0.2105	214164	keystroke_w	w	n/a
107.3965	0.12	214793	keystroke_Key.space	Key.space	n/a
107.7875	0.089	215575	keystroke_c	c	n/a
107.9825	0.0895	215965	keystroke_h	h	n/a
108.222	0.0905	216444	keystroke_u	u	n/a
108.4775	0.09	216955	keystroke_b	b	n/a
108.8525	0.105	217705	keystroke_b	b	n/a
109.182	0.1195	218364	keystroke_y	y	n/a
109.4975	0.104	218995	keystroke_Key.space	Key.space	n/a
110.667	0.0755	221334	keystroke_e	e	n/a
111.027	0.135	222054	keystroke_x	x	n/a
111.192	0.1495	222384	keystroke_a	a	n/a
111.357	0.105	222714	keystroke_m	m	n/a
111.5365	0.1055	223073	keystroke_p	p	n/a
111.747	0.105	223494	keystroke_l	l	n/a
111.867	0.106	223734	keystroke_e	e	n/a
112.107	0.09	224214	keystroke_Key.enter	Key.enter	n/a
112.2035	13.1055	224407	prompt	n/a	genealogy experienced bios necessary\n
112.947	0.075	225894	keystroke_e	e	n/a
113.367	0.06	226734	keystroke_Key.backspace	Key.backspace	n/a
113.7125	0.104	227425	keystroke_g	g	n/a
114.282	0.105	228564	keystroke_e	e	n/a
114.5065	0.09	229013	keystroke_n	n	n/a
114.6415	0.15	229283	keystroke_e	e	n/a
115.182	0.1205	230364	keystroke_a	a	n/a
115.542	0.075	231084	keystroke_l	l	n/a
116.0065	0.06	232013	keystroke_Key.backspace	Key.backspace	n/a
117.8525	0.089	235705	keystroke_l	l	n/a
118.0775	0.075	236155	keystroke_o	o	n/a
118.3025	0.09	236605	keystroke_g	g	n/a
119.172	0.045	238344	keystroke_y	y	n/a
119.292	0.075	238584	keystroke_Key.space	Key.space	n/a
119.412	0.09	238824	keystroke_e	e	n/a
119.637	0.105	239274	keystroke_x	x	n/a
119.802	0.12	239604	keystroke_p	p	n/a
119.9525	0.195	239905	keystroke_e	e	n/a
120.3425	0.09	240685	keystroke_r	r	n/a
120.5975	0.09	241195	keystroke_i	i	n/a
120.7325	0.105	241465	keystroke_e	e	n/a
120.8975	0.105	241795	keystroke_n	n	n/a
121.032	0.1055	242064	keystroke_c	c	n/a
121.287	0.1805	242574	keystroke_e	e	n/a
121.5875	0.029	243175	keystroke_s	s	n/a
121.917	0.0595	243834	keystroke_Key.space	Key.space	n/a
122.0665	0.105	244133	keystroke_b	b	n/a
122.3225	0.0895	244645	keystroke_i	i	n/a
122.5175	0.12	245035	keystroke_o	o	n/a
123.0275	0.135	246055	keystroke_s	s	n/a
123.237	0.0595	246474	keystroke_Key.space	Key.space	n/a
123.462	0.09	246924	keystroke_n	n	n/a
123.567	0.105	247134	keystroke_e	e	n/a
123.807	0.105	247614	keystroke_c	c	n/a
124.0315	0.091	248063	keystroke_e	e	n/a
124.242	0.1045	248484	keystroke_s	s	n/a
124.4675	0.119	248935	keystroke_s	s	n/a
124.6175	0.1495	249235	keystroke_a	a	n/a
124.7965	0.1055	249593	keystroke_r	r	n/a
124.9325	0.104	249865	keystroke_y	y	n/a
125.2175	0.089	250435	keystroke_Key.enter	Key.enter	n/a
125.314	8.395	250628	prompt	n/a	elegant panasonic wire remarks\n
125.9375	0.0895	251875	keystroke_e	e	n/a
126.087	0.105	252174	keystroke_l	l	n/a
126.177	0.12	252354	keystroke_e	e	n/a
126.386	0.0915	252772	keystroke_g	g	n/a
126.7025	0.1345	253405	keystroke_a	a	n/a
126.867	0.105	253734	keystroke_n	n	n/a
127.002	0.105	254004	keystroke_t	t	n/a
127.122	0.075	254244	keystroke_Key.space	Key.space	n/a
127.3475	0.12	254695	keystroke_p	p	n/a
127.6015	0.1055	255203	keystroke_a	a	n/a
127.947	0.1045	255894	keystroke_n	n	n/a
128.142	0.1055	256284	keystroke_a	a	n/a
128.5315	0.105	257063	keystroke_s	s	n/a
128.652	0.09	257304	keystroke_o	o	n/a
128.8775	0.059	257755	keystroke_n	n	n/a
129.072	0.09	258144	keystroke_i	i	n/a
129.2225	0.1195	258445	keystroke_c	c	n/a
129.5965	0.121	259193	keystroke_Key.space	Key.space	n/a
130.107	0.12	260214	keystroke_w	w	n/a
130.287	0.0905	260574	keystroke_i	i	n/a
130.4365	0.166	260873	keystroke_r	r	n/a
130.5865	0.12	261173	keystroke_e	e	n/a
130.902	0.105	261804	keystroke_Key.space	Key.space	n/a
132.0575	0.1345	264115	keystroke_r	r	n/a
132.177	0.105	264354	keystroke_e	e	n/a
132.432	0.0905	264864	keystroke_m	m	n/a
132.5515	0.135	265103	keystroke_a	a	n/a
132.8665	0.031	265733	keystroke_r	r	n/a
133.2425	0.0745	266485	keystroke_k	k	n/a
133.3915	0.106	266783	keystroke_s	s	n/a
133.5865	0.1205	267173	keystroke_Key.enter	Key.enter	n/a
133.7135	7.9005	267427	prompt	n/a	racing oclc ringtone consultant\n
134.3225	0.119	268645	keystroke_r	r	n/a
134.472	0.135	268944	keystroke_a	a	n/a
134.697	0.1205	269394	keystroke_c	c	n/a
134.8625	0.075	269725	keystroke_i	i	n/a
135.027	0.135	270054	keystroke_n	n	n/a
135.147	0.105	270294	keystroke_g	g	n/a
135.297	0.12	270594	keystroke_Key.space	Key.space	n/a
135.7315	0.09	271463	keystroke_o	o	n/a
135.942	0.0905	271884	keystroke_c	c	n/a
136.1365	0.106	272273	keystroke_l	l	n/a
136.482	0.09	272964	keystroke_c	c	n/a
136.917	0.09	273834	keystroke_Key.space	Key.space	n/a
137.6075	0.0895	275215	keystroke_r	r	n/a
137.7275	0.0745	275455	keystroke_i	i	n/a
137.907	0.09	275814	keystroke_n	n	n/a
137.967	0.0755	275934	keystroke_g	g	n/a
138.2215	0.0905	276443	keystroke_t	t	n/a
138.4015	0.09	276803	keystroke_o	o	n/a
138.6425	0.104	277285	keystroke_n	n	n/a
138.9425	0.105	277885	keystroke_e	e	n/a
139.107	0.1055	278214	keystroke_Key.space	Key.space	n/a
139.3475	0.075	278695	keystroke_c	c	n/a
139.437	0.105	278874	keystroke_o	o	n/a
139.617	0.12	279234	keystroke_n	n	n/a
139.962	0.1355	279924	keystroke_s	s	n/a
140.127	0.09	280254	keystroke_u	u	n/a
140.367	0.12	280734	keystroke_l	l	n/a
140.577	0.105	281154	keystroke_t	t	n/a
140.8025	0.1495	281605	keystroke_a	a	n/a
141.1025	0.12	282205	keystroke_n	n	n/a
141.2825	0.105	282565	keystroke_t	t	n/a
141.522	0.09	283044	keystroke_Key.enter	Key.enter	n/a
141.6185	10.5405	283237	prompt	n/a	reporting ruby antarctica data\n
142.3025	0.104	284605	keystroke_r	r	n/a
142.4665	0.09	284933	keystroke_e	e	n/a
142.617	0.0905	285234	keystroke_p	p	n/a
142.767	0.12	285534	keystroke_o	o	n/a
142.9315	0.09	285863	keystroke_r	r	n/a
143.157	0.06	286314	keystroke_t	t	n/a
143.262	0.075	286524	keystroke_i	i	n/a
143.427	0.12	286854	keystroke_n	n	n/a
143.547	0.105	287094	keystroke_g	g	n/a
143.667	0.105	287334	keystroke_Key.space	Key.space	n/a
144.1325	0.06	288265	keystroke_t	t	n/a
144.297	0.105	288594	keystroke_u	u	n/a
144.747	0.09	289494	keystroke_Key.backspace	Key.backspace	n/a
144.9415	0.0455	289883	keystroke_Key.backspace	Key.backspace	n/a
145.227	0.09	290454	keystroke_r	r	n/a
145.7975	0.0745	291595	keystroke_u	u	n/a
146.007	0.12	292014	keystroke_b	b	n/a
146.5175	0.0895	293035	keystroke_y	y	n/a
146.727	0.12	293454	keystroke_Key.space	Key.space	n/a
146.9225	0.1495	293845	keystroke_a	a	n/a
147.132	0.105	294264	keystroke_n	n	n/a
147.357	0.12	294714	keystroke_t	t	n/a
148.047	0.165	296094	keystroke_a	a	n/a
149.082	0.045	298164	keystroke_r	r	n/a
149.397	0.105	298794	keystroke_t	t	n/a
149.7275	0.09	299455	keystroke_i	i	n/a
149.9515	0.12	299903	keystroke_c	c	n/a
150.5065	0.136	301013	keystroke_a	a	n/a
150.7015	0.1205	301403	keystroke_Key.space	Key.space	n/a
151.002	0.105	302004	keystroke_d	d	n/a
151.437	0.12	302874	keystroke_a	a	n/a
151.647	0.105	303294	keystroke_t	t	n/a
151.767	0.135	303534	keystroke_a	a	n/a
152.052	0.1045	304104	keystroke_Key.enter	Key.enter	n/a
152.164	12.279	304328	prompt	n/a	could've progress submit daddy\n
152.9365	0.075	305873	keystroke_c	c	n/a
153.057	0.1205	306114	keystroke_o	o	n/a
153.2665	0.105	306533	keystroke_u	u	n/a
153.4765	0.135	306953	keystroke_l	l	n/a
153.7475	0.09	307495	keystroke_d	d	n/a
155.187	0.075	310374	keystroke_v	v	n/a
155.3225	0.12	310645	keystroke_e	e	n/a
156.2815	0.105	312563	keystroke_Key.backspace	Key.backspace	n/a
156.552	0.105	313104	keystroke_Key.backspace	Key.backspace	n/a
157.257	0.15	314514	keystroke_'	'	n/a
157.512	0.09	315024	keystroke_v	v	n/a
157.752	0.12	315504	keystroke_e	e	n/a
157.962	0.12	315924	keystroke_Key.space	Key.space	n/a
158.6825	0.105	317365	keystroke_p	p	n/a
158.847	0.1045	317694	keystroke_r	r	n/a
159.0725	0.104	318145	keystroke_o	o	n/a
159.687	0.09	319374	keystroke_g	g	n/a
159.7915	0.1355	319583	keystroke_r	r	n/a
159.897	0.1805	319794	keystroke_e	e	n/a
160.062	0.12	320124	keystroke_s	s	n/a
160.4065	0.1055	320813	keystroke_s	s	n/a
160.6165	0.1205	321233	keystroke_Key.space	Key.space	n/a
160.797	0.12	321594	keystroke_s	s	n/a
160.9615	0.105	321923	keystroke_u	u	n/a
161.277	0.0595	322554	keystroke_b	b	n/a
161.652	0.105	323304	keystroke_m	m	n/a
161.907	0.0605	323814	keystroke_i	i	n/a
162.4775	0.12	324955	keystroke_t	t	n/a
162.7165	0.105	325433	keystroke_Key.space	Key.space	n/a
162.9875	0.119	325975	keystroke_d	d	n/a
163.2425	0.1345	326485	keystroke_a	a	n/a
163.6325	0.045	327265	keystroke_d	d	n/a
163.8425	0.059	327685	keystroke_d	d	n/a
164.037	0.0755	328074	keystroke_y	y	n/a
164.382	0.06	328764	keystroke_Key.enter	Key.enter	n/a
164.447	7.1215	328894	prompt	n/a	philosophy bent bond estates\n
165.0715	0.1055	330143	keystroke_p	p	n/a
165.297	0.1055	330594	keystroke_h	h	n/a
165.6125	0.0145	331225	keystroke_i	i	n/a
165.6875	0.12	331375	keystroke_l	l	n/a
165.9265	0.09	331853	keystroke_o	o	n/a
166.0615	0.121	332123	keystroke_s	s	n/a
166.482	0.1055	332964	keystroke_o	o	n/a
166.6475	0.0895	333295	keystroke_p	p	n/a
166.947	0.09	333894	keystroke_h	h	n/a
167.1875	0.105	334375	keystroke_y	y	n/a
167.3815	0.12	334763	keystroke_Key.space	Key.space	n/a
167.892	0.06	335784	keystroke_b	b	n/a
167.967	0.105	335934	keystroke_e	e	n/a
168.117	0.135	336234	keystroke_n	n	n/a
168.267	0.1055	336534	keystroke_t	t	n/a
168.387	0.12	336774	keystroke_Key.space	Key.space	n/a
168.9425	0.0595	337885	keystroke_b	b	n/a
169.392	0.075	338784	keystroke_o	o	n/a
169.542	0.12	339084	keystroke_n	n	n/a
169.7515	0.1055	339503	keystroke_d	d	n/a
169.887	0.105	339774	keystroke_Key.space	Key.space	n/a
170.3365	0.1505	340673	keystroke_e	e	n/a
170.5015	0.1355	341003	keystroke_s	s	n/a
170.6965	0.105	341393	keystroke_t	t	n/a
170.7865	0.1505	341573	keystroke_a	a	n/a
170.9215	0.0755	341843	keystroke_t	t	n/a
171.0565	0.18	342113	keystroke_e	e	n/a
171.177	0.1055	342354	keystroke_s	s	n/a
171.447	0.12	342894	keystroke_Key.enter	Key.enter	n/a
171.5725	7.781	343145	prompt	n/a	leonard wilson monte elder\n
172.2575	0.075	344515	keystroke_l	l	n/a
172.3475	0.1045	344695	keystroke_e	e	n/a
172.662	0.0895	345324	keystroke_o	o	n/a
172.962	0.0905	345924	keystroke_n	n	n/a
173.0815	0.165	346163	keystroke_a	a	n/a
173.2615	0.105	346523	keystroke_r	r	n/a
173.5315	0.12	347063	keystroke_d	d	n/a
173.6815	0.12	347363	keystroke_Key.space	Key.space	n/a
173.847	0.1195	347694	keystroke_w	w	n/a
173.982	0.0745	347964	keystroke_i	i	n/a
174.177	0.1205	348354	keystroke_l	l	n/a
174.402	0.075	348804	keystroke_s	s	n/a
174.4925	0.0895	348985	keystroke_o	o	n/a
174.762	0.12	349524	keystroke_n	n	n/a
174.897	0.09	349794	keystroke_Key.space	Key.space	n/a
175.107	0.09	350214	keystroke_m	m	n/a
175.302	0.0755	350604	keystroke_o	o	n/a
175.482	0.09	350964	keystroke_n	n	n/a
176.352	0.09	352704	keystroke_t	t	n/a
176.622	0.0155	353244	keystroke_e	e	n/a
176.697	0.105	353394	keystroke_Key.space	Key.space	n/a
177.252	0.0745	354504	keystroke_d	d	n/a
177.5965	0.0605	355193	keystroke_Key.backspace	Key.backspace	n/a
177.7015	0.121	355403	keystroke_e	e	n/a
178.242	0.1045	356484	keystroke_l	l	n/a
178.677	0.0905	357354	keystroke_d	d	n/a
178.7825	0.1645	357565	keystroke_e	e	n/a
178.9325	0.15	357865	keystroke_r	r	n/a
179.232	0.12	358464	keystroke_Key.enter	Key.enter	n/a
179.357	7.5115	358714	prompt	n/a	pocket miles dell innovative\n
179.9675	0.134	359935	keystroke_p	p	n/a
180.402	0.09	360804	keystroke_o	o	n/a
180.612	0.105	361224	keystroke_c	c	n/a
180.807	0.1055	361614	keystroke_k	k	n/a
180.987	0.1505	361974	keystroke_e	e	n/a
181.1975	0.1195	362395	keystroke_t	t	n/a
181.377	0.09	362754	keystroke_Key.space	Key.space	n/a
181.6015	0.1055	363203	keystroke_m	m	n/a
181.9015	0.09	363803	keystroke_i	i	n/a
182.1265	0.136	364253	keystroke_l	l	n/a
182.3065	0.151	364613	keystroke_e	e	n/a
182.727	0.1195	365454	keystroke_s	s	n/a
182.907	0.1195	365814	keystroke_Key.space	Key.space	n/a
183.147	0.1355	366294	keystroke_d	d	n/a
183.417	0.0895	366834	keystroke_e	e	n/a
183.6565	0.0605	367313	keystroke_l	l	n/a
183.822	0.12	367644	keystroke_l	l	n/a
183.987	0.1205	367974	keystroke_Key.space	Key.space	n/a
184.1665	0.09	368333	keystroke_i	i	n/a
184.392	0.075	368784	keystroke_n	n	n/a
184.5715	0.075	369143	keystroke_n	n	n/a
184.812	0.1205	369624	keystroke_o	o	n/a
185.277	0.09	370554	keystroke_v	v	n/a
185.427	0.12	370854	keystroke_a	a	n/a
185.6515	0.075	371303	keystroke_t	t	n/a
185.7565	0.12	371513	keystroke_i	i	n/a
186.0265	0.1505	372053	keystroke_v	v	n/a
186.432	0.09	372864	keystroke_e	e	n/a
186.747	0.1195	373494	keystroke_Key.enter	Key.enter	n/a
186.876	6.5625	373752	prompt	n/a	gotten recycling tract usual\n
187.617	0.0595	375234	keystroke_g	g	n/a
187.7965	0.09	375593	keystroke_o	o	n/a
187.932	0.0905	375864	keystroke_t	t	n/a
188.1275	0.1195	376255	keystroke_t	t	n/a
188.292	0.1195	376584	keystroke_e	e	n/a
188.442	0.1045	376884	keystroke_n	n	n/a
188.6365	0.105	377273	keystroke_Key.space	Key.space	n/a
188.7875	0.179	377575	keystroke_r	r	n/a
188.9215	0.121	377843	keystroke_e	e	n/a
189.1625	0.104	378325	keystroke_c	c	n/a
189.2815	0.0905	378563	keystroke_y	y	n/a
189.477	0.09	378954	keystroke_c	c	n/a
189.927	0.105	379854	keystroke_l	l	n/a
190.212	0.1045	380424	keystroke_i	i	n/a
190.452	0.0905	380904	keystroke_n	n	n/a
190.557	0.09	381114	keystroke_g	g	n/a
190.7065	0.105	381413	keystroke_Key.space	Key.space	n/a
191.3065	0.1055	382613	keystroke_t	t	n/a
191.4415	0.15	382883	keystroke_r	r	n/a
191.6075	0.18	383215	keystroke_a	a	n/a
191.877	0.0895	383754	keystroke_c	c	n/a
192.177	0.09	384354	keystroke_t	t	n/a
192.342	0.09	384684	keystroke_Key.space	Key.space	n/a
192.5665	0.06	385133	keystroke_u	u	n/a
192.642	0.1195	385284	keystroke_s	s	n/a
192.777	0.0745	385554	keystroke_u	u	n/a
192.8815	0.135	385763	keystroke_a	a	n/a
193.0315	0.09	386063	keystroke_l	l	n/a
193.332	0.105	386664	keystroke_Key.enter	Key.enter	n/a
193.449	8.4345	386898	prompt	n/a	update accreditation surge tasks\n
194.187	0.0895	388374	keystroke_u	u	n/a
194.5165	0.105	389033	keystroke_p	p	n/a
194.697	0.15	389394	keystroke_d	d	n/a
194.862	0.165	389724	keystroke_a	a	n/a
195.012	0.105	390024	keystroke_t	t	n/a
195.327	0.09	390654	keystroke_e	e	n/a
195.477	0.105	390954	keystroke_Key.space	Key.space	n/a
195.672	0.105	391344	keystroke_a	a	n/a
195.882	0.06	391764	keystroke_c	c	n/a
196.047	0.0745	392094	keystroke_c	c	n/a
196.5565	0.12	393113	keystroke_r	r	n/a
196.722	0.1495	393444	keystroke_e	e	n/a
197.0515	0.105	394103	keystroke_d	d	n/a
197.502	0.12	395004	keystroke_i	i	n/a
198.207	0.135	396414	keystroke_t	t	n/a
198.402	0.225	396804	keystroke_a	a	n/a
198.552	0.09	397104	keystroke_t	t	n/a
198.702	0.105	397404	keystroke_i	i	n/a
198.837	0.1205	397674	keystroke_o	o	n/a
199.0775	0.105	398155	keystroke_n	n	n/a
199.227	0.12	398454	keystroke_Key.space	Key.space	n/a
199.4525	0.1045	398905	keystroke_s	s	n/a
199.602	0.1205	399204	keystroke_u	u	n/a
199.9465	0.09	399893	keystroke_r	r	n/a
200.1415	0.121	400283	keystroke_g	g	n/a
200.2925	0.104	400585	keystroke_e	e	n/a
200.487	0.1195	400974	keystroke_Key.space	Key.space	n/a
200.6965	0.105	401393	keystroke_t	t	n/a
200.9215	0.1955	401843	keystroke_a	a	n/a
201.132	0.1495	402264	keystroke_s	s	n/a
201.3415	0.105	402683	keystroke_k	k	n/a
201.522	0.075	403044	keystroke_s	s	n/a
201.792	0.09	403584	keystroke_Key.enter	Key.enter	n/a
201.8885	8.845	403777	prompt	n/a	howdy garden puzzle inquire\n
202.647	0.09	405294	keystroke_h	h	n/a
202.797	0.15	405594	keystroke_o	o	n/a
202.9925	0.105	405985	keystroke_w	w	n/a
203.367	0.0905	406734	keystroke_d	d	n/a
203.577	0.1045	407154	keystroke_y	y	n/a
203.802	0.1195	407604	keystroke_Key.space	Key.space	n/a
204.8065	0.1055	409613	keystroke_g	g	n/a
204.942	0.165	409884	keystroke_a	a	n/a
205.197	0.06	410394	keystroke_r	r	n/a
205.422	0.105	410844	keystroke_d	d	n/a
205.542	0.135	411084	keystroke_e	e	n/a
205.707	0.105	411414	keystroke_n	n	n/a
205.841	0.091	411682	keystroke_Key.space	Key.space	n/a
206.0825	0.0895	412165	keystroke_p	p	n/a
206.292	0.09	412584	keystroke_u	u	n/a
206.4425	0.104	412885	keystroke_s	s	n/a
206.8165	0.045	413633	keystroke_z	z	n/a
206.9975	0.0895	413995	keystroke_z	z	n/a
207.147	0.1355	414294	keystroke_l	l	n/a
207.3415	0.105	414683	keystroke_e	e	n/a
207.4765	0.1055	414953	keystroke_Key.space	Key.space	n/a
207.717	0.0455	415434	keystroke_i	i	n/a
207.897	0.1195	415794	keystroke_n	n	n/a
208.0475	0.1045	416095	keystroke_q	q	n/a
208.227	0.06	416454	keystroke_u	u	n/a
208.992	0.0755	417984	keystroke_i	i	n/a
210.2665	0.135	420533	keystroke_r	r	n/a
210.432	0.105	420864	keystroke_e	e	n/a
210.627	0.1045	421254	keystroke_Key.enter	Key.enter	n/a
210.7385	9.43	421477	prompt	n/a	wallpaper buzz improve cholesterol\n
211.8115	0.1355	423623	keystroke_w	w	n/a
212.006	0.166	424012	keystroke_a	a	n/a
212.187	0.09	424374	keystroke_l	l	n/a
212.352	0.0905	424704	keystroke_l	l	n/a
212.592	0.12	425184	keystroke_p	p	n/a
212.7125	0.179	425425	keystroke_a	a	n/a
212.8765	0.075	425753	keystroke_p	p	n/a
212.9815	0.195	425963	keystroke_e	e	n/a
213.117	0.135	426234	keystroke_r	r	n/a
213.267	0.105	426534	keystroke_Key.space	Key.space	n/a
213.537	0.0755	427074	keystroke_b	b	n/a
213.747	0.1055	427494	keystroke_u	u	n/a
214.047	0.075	428094	keystroke_z	z	n/a
214.3175	0.1345	428635	keystroke_z	z	n/a
214.557	0.105	429114	keystroke_Key.space	Key.space	n/a
214.8275	0.0895	429655	keystroke_i	i	n/a
215.0375	0.0895	430075	keystroke_m	m	n/a
215.7875	0.105	431575	keystroke_p	p	n/a
215.997	0.0905	431994	keystroke_r	r	n/a
216.1325	0.1045	432265	keystroke_o	o	n/a
216.627	0.1055	433254	keystroke_v	v	n/a
216.747	0.1505	433494	keystroke_e	e	n/a
217.0925	0.1195	434185	keystroke_Key.space	Key.space	n/a
217.346	0.091	434692	keystroke_c	c	n/a
217.4825	0.09	434965	keystroke_h	h	n/a
217.767	0.075	435534	keystroke_o	o	n/a
217.977	0.135	435954	keystroke_l	l	n/a
218.127	0.195	436254	keystroke_e	e	n/a
218.307	0.15	436614	keystroke_s	s	n/a
218.757	0.12	437514	keystroke_t	t	n/a
219.012	0.195	438024	keystroke_e	e	n/a
219.162	0.135	438324	keystroke_r	r	n/a
219.522	0.105	439044	keystroke_o	o	n/a
219.777	0.075	439554	keystroke_l	l	n/a
220.092	0.075	440184	keystroke_Key.enter	Key.enter	n/a
220.1735	6.37	440347	prompt	n/a	unit half towns morgan\n
220.8275	0.0895	441655	keystroke_u	u	n/a
221.0975	0.0745	442195	keystroke_n	n	n/a
221.292	0.09	442584	keystroke_i	i	n/a
221.4115	0.1205	442823	keystroke_t	t	n/a
221.9215	0.09	443843	keystroke_Key.space	Key.space	n/a
222.1475	0.0895	444295	keystroke_h	h	n/a
222.2525	0.165	444505	keystroke_a	a	n/a
222.462	0.135	444924	keystroke_l	l	n/a
222.867	0.075	445734	keystroke_f	f	n/a
223.002	0.105	446004	keystroke_Key.space	Key.space	n/a
223.122	0.105	446244	keystroke_t	t	n/a
223.272	0.1345	446544	keystroke_o	o	n/a
223.4515	0.1055	446903	keystroke_w	w	n/a
223.602	0.105	447204	keystroke_n	n	n/a
223.812	0.075	447624	keystroke_Key.space	Key.space	n/a
224.037	0.045	448074	keystroke_o	o	n/a
224.397	0.045	448794	keystroke_Key.backspace	Key.backspace	n/a
225.0115	0.075	450023	keystroke_m	m	n/a
225.177	0.0905	450354	keystroke_o	o	n/a
225.3565	0.076	450713	keystroke_r	r	n/a
225.807	0.105	451614	keystroke_g	g	n/a
225.927	0.135	451854	keystroke_a	a	n/a
226.0775	0.1195	452155	keystroke_n	n	n/a
226.437	0.1045	452874	keystroke_Key.enter	Key.enter	n/a
226.5485	11.336	453097	prompt	n/a	female speak lets animation\n
227.352	0.1205	454704	keystroke_f	f	n/a
227.4725	0.1195	454945	keystroke_e	e	n/a
227.6365	0.09	455273	keystroke_m	m	n/a
227.7415	0.15	455483	keystroke_a	a	n/a
227.9065	0.135	455813	keystroke_l	l	n/a
228.072	0.119	456144	keystroke_e	e	n/a
228.4765	0.12	456953	keystroke_Key.space	Key.space	n/a
229.392	0.1355	458784	keystroke_s	s	n/a
230.9365	0.0905	461873	keystroke_p	p	n/a
231.1315	0.166	462263	keystroke_e	e	n/a
231.4325	0.1795	462865	keystroke_a	a	n/a
231.927	0.1195	463854	keystroke_l	l	n/a
232.557	0.09	465114	keystroke_Key.backspace	Key.backspace	n/a
232.842	0.09	465684	keystroke_k	k	n/a
234.177	0.1195	468354	keystroke_Key.space	Key.space	n/a
234.432	0.09	468864	keystroke_l	l	n/a
234.552	0.105	469104	keystroke_e	e	n/a
234.8215	0.1205	469643	keystroke_t	t	n/a
235.0015	0.1205	470003	keystroke_s	s	n/a
235.347	0.12	470694	keystroke_Key.space	Key.space	n/a
235.5125	0.1495	471025	keystroke_a	a	n/a
235.737	0.1045	471474	keystroke_n	n	n/a
236.0525	0.0445	472105	keystroke_i	i	n/a
236.4425	0.1045	472885	keystroke_m	m	n/a
236.592	0.149	473184	keystroke_a	a	n/a
236.802	0.12	473604	keystroke_t	t	n/a
236.982	0.1195	473964	keystroke_i	i	n/a
237.1315	0.12	474263	keystroke_o	o	n/a
237.4175	0.059	474835	keystroke_n	n	n/a
237.762	0.1205	475524	keystroke_Key.enter	Key.enter	n/a
237.8895	8.334	475779	prompt	n/a	deaths thanks achieve hereby\n
238.7365	0.105	477473	keystroke_d	d	n/a
238.8725	0.1795	477745	keystroke_e	e	n/a
239.0365	0.2555	478073	keystroke_a	a	n/a
239.292	0.135	478584	keystroke_t	t	n/a
240.042	0.135	480084	keystroke_h	h	n/a
240.327	0.135	480654	keystroke_Key.space	Key.space	n/a
240.537	0.105	481074	keystroke_t	t	n/a
240.672	0.075	481344	keystroke_h	h	n/a
240.807	0.135	481614	keystroke_a	a	n/a
241.062	0.105	482124	keystroke_n	n	n/a
241.5125	0.0895	483025	keystroke_k	k	n/a
241.842	0.105	483684	keystroke_s	s	n/a
241.992	0.1195	483984	keystroke_Key.space	Key.space	n/a
242.277	0.15	484554	keystroke_a	a	n/a
242.682	0.105	485364	keystroke_c	c	n/a
243.027	0.12	486054	keystroke_h	h	n/a
243.252	0.105	486504	keystroke_i	i	n/a
243.417	0.09	486834	keystroke_e	e	n/a
243.702	0.12	487404	keystroke_v	v	n/a
243.912	0.1205	487824	keystroke_e	e	n/a
244.1515	0.105	488303	keystroke_Key.space	Key.space	n/a
244.587	0.12	489174	keystroke_h	h	n/a
244.691	0.1815	489382	keystroke_e	e	n/a
244.8875	0.1645	489775	keystroke_r	r	n/a
245.067	0.15	490134	keystroke_e	e	n/a
245.4715	0.076	490943	keystroke_b	b	n/a
245.7725	0.0745	491545	keystroke_y	y	n/a
246.102	0.1195	492204	keystroke_Key.enter	Key.enter	n/a
246.2275	12.356	492455	prompt	n/a	coins temporarily diamond cheers\n
247.032	0.075	494064	keystroke_c	c	n/a
247.317	0.0155	494634	keystroke_i	i	n/a
248.3215	0.0905	496643	keystroke_Key.backspace	Key.backspace	n/a
248.8625	0.1045	497725	keystroke_o	o	n/a
249.0275	0.119	498055	keystroke_i	i	n/a
249.372	0.105	498744	keystroke_n	n	n/a
250.2865	0.106	500573	keystroke_s	s	n/a
250.5865	0.135	501173	keystroke_Key.space	Key.space	n/a
251.097	0.1645	502194	keystroke_t	t	n/a
251.367	0.0895	502734	keystroke_e	e	n/a
251.5465	0.1055	503093	keystroke_m	m	n/a
251.967	0.1645	503934	keystroke_p	p	n/a
252.162	0.105	504324	keystroke_o	o	n/a
252.4765	0.12	504953	keystroke_r	r	n/a
252.6415	0.2405	505283	keystroke_a	a	n/a
252.8215	0.106	505643	keystroke_r	r	n/a
253.077	0.0745	506154	keystroke_i	i	n/a
253.542	0.1355	507084	keystroke_l	l	n/a
253.932	0.1205	507864	keystroke_y	y	n/a
254.3065	0.1355	508613	keystroke_Key.space	Key.space	n/a
254.757	0.105	509514	keystroke_d	d	n/a
254.9675	0.0595	509935	keystroke_i	i	n/a
255.372	0.15	510744	keystroke_a	a	n/a
255.7025	0.1195	511405	keystroke_m	m	n/a
255.912	0.09	511824	keystroke_o	o	n/a
256.1975	0.0895	512395	keystroke_n	n	n/a
256.6465	0.121	513293	keystroke_d	d	n/a
256.857	0.105	513714	keystroke_Key.space	Key.space	n/a
257.0215	0.105	514043	keystroke_c	c	n/a
257.2315	0.075	514463	keystroke_h	h	n/a
257.7115	0.045	515423	keystroke_e	e	n/a
257.9065	0.1955	515813	keystroke_e	e	n/a
258.057	0.195	516114	keystroke_r	r	n/a
258.267	0.119	516534	keystroke_s	s	n/a
258.476	0.1055	516952	keystroke_Key.enter	Key.enter	n/a
258.5885	9.19	517177	prompt	n/a	guild gimme flickr scanning\n
259.332	0.12	518664	keystroke_g	g	n/a
259.6015	0.196	519203	keystroke_u	u	n/a
259.7825	0.194	519565	keystroke_i	i	n/a
260.097	0.12	520194	keystroke_l	l	n/a
260.322	0.105	520644	keystroke_d	d	n/a
260.5465	0.1355	521093	keystroke_Key.space	Key.space	n/a
261.207	0.105	522414	keystroke_g	g	n/a
261.432	0.105	522864	keystroke_i	i	n/a
261.7465	0.0605	523493	keystroke_m	m	n/a
261.9125	0.104	523825	keystroke_m	m	n/a
262.0315	0.1205	524063	keystroke_e	e	n/a
262.212	0.09	524424	keystroke_Key.space	Key.space	n/a
262.392	0.09	524784	keystroke_f	f	n/a
262.587	0.135	525174	keystroke_l	l	n/a
262.797	0.075	525594	keystroke_i	i	n/a
262.932	0.09	525864	keystroke_c	c	n/a
263.1415	0.105	526283	keystroke_k	k	n/a
263.7265	0.12	527453	keystroke_r	r	n/a
263.951	0.1205	527902	keystroke_Key.space	Key.space	n/a
264.2675	0.1045	528535	keystroke_s	s	n/a
264.8065	0.165	529613	keystroke_c	c	n/a
265.092	0.15	530184	keystroke_a	a	n/a
265.4665	0.09	530933	keystroke_n	n	n/a
265.6765	0.0605	531353	keystroke_n	n	n/a
265.8865	0.075	531773	keystroke_i	i	n/a
266.082	0.09	532164	keystroke_n	n	n/a
266.562	0.15	533124	keystroke_g	g	n/a
266.802	0.1345	533604	keystroke_s	s	n/a
267.4165	0.12	534833	keystroke_Key.backspace	Key.backspace	n/a
267.6865	0.09	535373	keystroke_Key.enter	Key.enter	n/a
267.783	17.831	535566	prompt	n/a	financing liable introduces peace\n
274.649	0.103	549298	keystroke_f	f	n/a
276.072	0.09	552144	keystroke_i	i	n/a
276.387	0.105	552774	keystroke_n	n	n/a
276.5825	0.12	553165	keystroke_a	a	n/a
276.7165	0.09	553433	keystroke_n	n	n/a
277.2875	0.09	554575	keystroke_c	c	n/a
277.4675	0.089	554935	keystroke_i	i	n/a
277.6775	0.119	555355	keystroke_n	n	n/a
277.8265	0.105	555653	keystroke_g	g	n/a
278.1265	0.1055	556253	keystroke_Key.space	Key.space	n/a
278.547	0.1195	557094	keystroke_l	l	n/a
278.7865	0.0905	557573	keystroke_i	i	n/a
278.9675	0.1195	557935	keystroke_a	a	n/a
279.237	0.12	558474	keystroke_b	b	n/a
279.9715	0.106	559943	keystroke_l	l	n/a
280.0925	0.1345	560185	keystroke_e	e	n/a
280.2725	0.0895	560545	keystroke_Key.space	Key.space	n/a
280.5565	0.091	561113	keystroke_i	i	n/a
280.887	0.09	561774	keystroke_n	n	n/a
281.247	0.075	562494	keystroke_t	t	n/a
281.427	0.0755	562854	keystroke_r	r	n/a
281.682	0.135	563364	keystroke_o	o	n/a
282.0415	0.0755	564083	keystroke_d	d	n/a
282.2375	0.0895	564475	keystroke_u	u	n/a
282.417	0.1355	564834	keystroke_c	c	n/a
282.687	0.2255	565374	keystroke_e	e	n/a
282.897	0.12	565794	keystroke_s	s	n/a
283.167	0.105	566334	keystroke_Key.space	Key.space	n/a
283.647	0.105	567294	keystroke_p	p	n/a
283.8275	0.18	567655	keystroke_e	e	n/a
284.0215	0.165	568043	keystroke_a	a	n/a
284.5325	0.104	569065	keystroke_c	c	n/a
284.832	0.1055	569664	keystroke_e	e	n/a
285.507	0.1045	571014	keystroke_Key.enter	Key.enter	n/a
285.6195	8.199	571239	prompt	n/a	projectors arrange node naturally\n
286.872	0.0905	573744	keystroke_p	p	n/a
287.022	0.09	574044	keystroke_r	r	n/a
287.157	0.09	574314	keystroke_o	o	n/a
287.7125	0.075	575425	keystroke_j	j	n/a
287.7725	0.104	575545	keystroke_e	e	n/a
288.282	0.075	576564	keystroke_c	c	n/a
288.567	0.12	577134	keystroke_t	t	n/a
288.7325	0.1195	577465	keystroke_o	o	n/a
288.957	0.12	577914	keystroke_r	r	n/a
289.2725	0.1195	578545	keystroke_s	s	n/a
289.422	0.12	578844	keystroke_Key.space	Key.space	n/a
289.587	0.15	579174	keystroke_a	a	n/a
289.812	0.075	579624	keystroke_r	r	n/a
289.992	0.09	579984	keystroke_r	r	n/a
290.1415	0.091	580283	keystroke_a	a	n/a
290.277	0.105	580554	keystroke_n	n	n/a
290.5475	0.105	581095	keystroke_g	g	n/a
290.6675	0.1045	581335	keystroke_e	e	n/a
290.817	0.105	581634	keystroke_Key.space	Key.space	n/a
291.012	0.075	582024	keystroke_n	n	n/a
291.207	0.105	582414	keystroke_o	o	n/a
291.342	0.1495	582684	keystroke_d	d	n/a
291.5215	0.105	583043	keystroke_e	e	n/a
291.717	0.0755	583434	keystroke_Key.space	Key.space	n/a
291.987	0.0905	583974	keystroke_n	n	n/a
292.1215	0.135	584243	keystroke_a	a	n/a
292.287	0.09	584574	keystroke_t	t	n/a
292.5125	0.104	585025	keystroke_u	u	n/a
292.6315	0.1355	585263	keystroke_r	r	n/a
292.7815	0.136	585563	keystroke_a	a	n/a
292.9775	0.075	585955	keystroke_l	l	n/a
293.1275	0.105	586255	keystroke_l	l	n/a
293.4275	0.06	586855	keystroke_y	y	n/a
293.7425	0.074	587485	keystroke_Key.enter	Key.enter	n/a
293.8265	7.5075	587653	prompt	n/a	jets manor replication political\n
294.5975	0.075	589195	keystroke_j	j	n/a
294.7475	0.105	589495	keystroke_e	e	n/a
294.9125	0.12	589825	keystroke_t	t	n/a
295.1215	0.121	590243	keystroke_s	s	n/a
295.2575	0.09	590515	keystroke_Key.space	Key.space	n/a
295.4975	0.105	590995	keystroke_m	m	n/a
295.6325	0.12	591265	keystroke_a	a	n/a
295.7665	0.105	591533	keystroke_n	n	n/a
295.9615	0.135	591923	keystroke_o	o	n/a
296.1415	0.12	592283	keystroke_r	r	n/a
296.352	0.105	592704	keystroke_Key.space	Key.space	n/a
296.922	0.195	593844	keystroke_r	r	n/a
297.1175	0.12	594235	keystroke_e	e	n/a
297.3425	0.09	594685	keystroke_p	p	n/a
297.5375	0.105	595075	keystroke_l	l	n/a
297.7775	0.09	595555	keystroke_i	i	n/a
297.8375	0.135	595675	keystroke_c	c	n/a
298.0325	0.135	596065	keystroke_a	a	n/a
298.302	0.106	596604	keystroke_t	t	n/a
298.4675	0.0895	596935	keystroke_i	i	n/a
298.6325	0.09	597265	keystroke_o	o	n/a
298.8565	0.09	597713	keystroke_n	n	n/a
299.0225	0.104	598045	keystroke_Key.space	Key.space	n/a
299.502	0.12	599004	keystroke_p	p	n/a
299.682	0.075	599364	keystroke_o	o	n/a
299.892	0.12	599784	keystroke_l	l	n/a
300.132	0.06	600264	keystroke_i	i	n/a
300.2675	0.06	600535	keystroke_t	t	n/a
300.3575	0.06	600715	keystroke_i	i	n/a
300.552	0.135	601104	keystroke_c	c	n/a
300.718	0.1485	601436	keystroke_a	a	n/a
300.8525	0.12	601705	keystroke_l	l	n/a
301.2275	0.1045	602455	keystroke_Key.enter	Key.enter	n/a
301.3385	9.1605	602677	prompt	n/a	bean description projects biblical\n
302.0975	0.1055	604195	keystroke_b	b	n/a
302.218	0.194	604436	keystroke_e	e	n/a
302.427	0.135	604854	keystroke_a	a	n/a
302.547	0.1205	605094	keystroke_n	n	n/a
302.727	0.12	605454	keystroke_Key.space	Key.space	n/a
302.9525	0.1195	605905	keystroke_d	d	n/a
303.102	0.15	606204	keystroke_e	e	n/a
303.327	0.0905	606654	keystroke_s	s	n/a
303.642	0.06	607284	keystroke_c	c	n/a
303.8825	0.12	607765	keystroke_r	r	n/a
304.0475	0.105	608095	keystroke_i	i	n/a
304.2715	0.12	608543	keystroke_p	p	n/a
304.4065	0.121	608813	keystroke_t	t	n/a
304.678	0.1045	609356	keystroke_i	i	n/a
304.857	0.105	609714	keystroke_o	o	n/a
305.1125	0.104	610225	keystroke_n	n	n/a
305.2465	0.106	610493	keystroke_Key.space	Key.space	n/a
305.4725	0.1195	610945	keystroke_p	p	n/a
305.622	0.12	611244	keystroke_r	r	n/a
305.787	0.0605	611574	keystroke_o	o	n/a
306.207	0.0745	612414	keystroke_k	k	n/a
306.6115	0.0755	613223	keystroke_Key.backspace	Key.backspace	n/a
306.8965	0.105	613793	keystroke_j	j	n/a
307.0615	0.1055	614123	keystroke_e	e	n/a
307.2275	0.104	614455	keystroke_c	c	n/a
307.6015	0.135	615203	keystroke_t	t	n/a
307.8565	0.136	615713	keystroke_s	s	n/a
308.097	0.0895	616194	keystroke_Key.space	Key.space	n/a
308.3965	0.1055	616793	keystroke_b	b	n/a
308.6215	0.091	617243	keystroke_i	i	n/a
308.8315	0.1055	617663	keystroke_b	b	n/a
309.102	0.1355	618204	keystroke_l	l	n/a
309.5965	0.06	619193	keystroke_i	i	n/a
309.778	0.149	619556	keystroke_c	c	n/a
309.9725	0.1495	619945	keystroke_a	a	n/a
310.107	0.09	620214	keystroke_l	l	n/a
310.362	0.135	620724	keystroke_Key.enter	Key.enter	n/a
310.5105	7.623	621021	prompt	n/a	repair interference adware ciao\n
311.4265	0.18	622853	keystroke_r	r	n/a
311.5625	0.12	623125	keystroke_e	e	n/a
311.7875	0.105	623575	keystroke_p	p	n/a
311.9365	0.1055	623873	keystroke_a	a	n/a
312.4025	0.105	624805	keystroke_i	i	n/a
312.5225	0.105	625045	keystroke_r	r	n/a
312.6725	0.0595	625345	keystroke_Key.space	Key.space	n/a
312.807	0.09	625614	keystroke_i	i	n/a
313.047	0.105	626094	keystroke_n	n	n/a
313.4815	0.09	626963	keystroke_t	t	n/a
313.6765	0.18	627353	keystroke_e	e	n/a
313.8425	0.12	627685	keystroke_r	r	n/a
314.158	0.1195	628316	keystroke_f	f	n/a
314.3825	0.15	628765	keystroke_e	e	n/a
314.5175	0.149	629035	keystroke_r	r	n/a
314.6825	0.1345	629365	keystroke_e	e	n/a
315.072	0.12	630144	keystroke_n	n	n/a
315.267	0.12	630534	keystroke_c	c	n/a
315.492	0.06	630984	keystroke_e	e	n/a
315.627	0.09	631254	keystroke_Key.space	Key.space	n/a
315.762	0.1805	631524	keystroke_a	a	n/a
315.972	0.1795	631944	keystroke_d	d	n/a
316.182	0.1645	632364	keystroke_w	w	n/a
316.362	0.1355	632724	keystroke_a	a	n/a
316.602	0.1645	633204	keystroke_r	r	n/a
316.737	0.1055	633474	keystroke_e	e	n/a
316.9015	0.12	633803	keystroke_Key.space	Key.space	n/a
317.2465	0.1055	634493	keystroke_c	c	n/a
317.412	0.1205	634824	keystroke_i	i	n/a
317.547	0.135	635094	keystroke_a	a	n/a
317.683	0.104	635366	keystroke_o	o	n/a
318.042	0.09	636084	keystroke_Key.enter	Key.enter	n/a
318.138	11.022	636276	prompt	n/a	varieties believed host acts\n
318.898	0.104	637796	keystroke_v	v	n/a
319.137	0.09	638274	keystroke_a	a	n/a
319.3315	0.076	638663	keystroke_r	r	n/a
319.542	0.1205	639084	keystroke_i	i	n/a
320.0525	0.0895	640105	keystroke_e	e	n/a
320.262	0.09	640524	keystroke_t	t	n/a
320.382	0.105	640764	keystroke_i	i	n/a
320.562	0.2405	641124	keystroke_e	e	n/a
320.7865	0.151	641573	keystroke_s	s	n/a
321.0415	0.105	642083	keystroke_Key.space	Key.space	n/a
321.3725	0.105	642745	keystroke_b	b	n/a
321.5675	0.075	643135	keystroke_e	e	n/a
321.792	0.105	643584	keystroke_l	l	n/a
322.032	0.09	644064	keystroke_i	i	n/a
322.1975	0.06	644395	keystroke_e	e	n/a
323.157	0.075	646314	keystroke_v	v	n/a
323.247	0.18	646494	keystroke_e	e	n/a
323.412	0.12	646824	keystroke_d	d	n/a
323.667	0.12	647334	keystroke_Key.space	Key.space	n/a
324.3725	0.09	648745	keystroke_h	h	n/a
324.5675	0.105	649135	keystroke_o	o	n/a
324.6275	0.165	649255	keystroke_a	a	n/a
325.003	0.1195	650006	keystroke_t	t	n/a
325.242	0.12	650484	keystroke_Key.space	Key.space	n/a
325.632	0.1045	651264	keystroke_a	a	n/a
325.8265	0.091	651653	keystroke_c	c	n/a
326.607	0.0745	653214	keystroke_Key.backspace	Key.backspace	n/a
326.7865	0.06	653573	keystroke_Key.backspace	Key.backspace	n/a
326.9365	0.075	653873	keystroke_Key.backspace	Key.backspace	n/a
327.132	0.06	654264	keystroke_Key.backspace	Key.backspace	n/a
327.2815	0.075	654563	keystroke_Key.backspace	Key.backspace	n/a
327.492	0.1645	654984	keystroke_s	s	n/a
327.7465	0.135	655493	keystroke_t	t	n/a
328.0315	0.1055	656063	keystroke_Key.space	Key.space	n/a
328.242	0.105	656484	keystroke_a	a	n/a
328.497	0.075	656994	keystroke_c	c	n/a
328.617	0.09	657234	keystroke_t	t	n/a
328.797	0.105	657594	keystroke_s	s	n/a
329.082	0.075	658164	keystroke_Key.enter	Key.enter	n/a
329.1635	16.2845	658327	prompt	n/a	buys explaining showtimes ships\n
329.997	0.075	659994	keystroke_b	b	n/a
330.237	0.0745	660474	keystroke_u	u	n/a
330.687	0.0755	661374	keystroke_y	y	n/a
330.897	0.105	661794	keystroke_s	s	n/a
331.0615	0.135	662123	keystroke_Key.space	Key.space	n/a
331.2265	0.1055	662453	keystroke_e	e	n/a
332.157	0.1795	664314	keystroke_x	x	n/a
333.1315	0.1805	666263	keystroke_p	p	n/a
333.867	0.1345	667734	keystroke_l	l	n/a
334.107	0.1355	668214	keystroke_a	a	n/a
334.3165	0.09	668633	keystroke_n	n	n/a
334.5715	0.1055	669143	keystroke_i	i	n/a
336.027	0.09	672054	keystroke_Key.backspace	Key.backspace	n/a
336.252	0.06	672504	keystroke_Key.backspace	Key.backspace	n/a
336.7475	0.0895	673495	keystroke_i	i	n/a
337.017	0.105	674034	keystroke_n	n	n/a
337.332	0.0905	674664	keystroke_i	i	n/a
338.1725	0.06	676345	keystroke_n	n	n/a
338.2925	0.104	676585	keystroke_g	g	n/a
338.4725	0.1495	676945	keystroke_Key.space	Key.space	n/a
339.1025	0.075	678205	keystroke_s	s	n/a
339.1925	0.105	678385	keystroke_h	h	n/a
339.372	0.1055	678744	keystroke_o	o	n/a
339.507	0.1045	679014	keystroke_w	w	n/a
339.7315	0.105	679463	keystroke_t	t	n/a
339.8525	0.0595	679705	keystroke_i	i	n/a
340.0325	0.119	680065	keystroke_m	m	n/a
340.1815	0.226	680363	keystroke_e	e	n/a
340.3175	0.149	680635	keystroke_s	s	n/a
340.482	0.075	680964	keystroke_Key.space	Key.space	n/a
340.692	0.1205	681384	keystroke_s	s	n/a
340.827	0.1355	681654	keystroke_h	h	n/a
341.082	0.1055	682164	keystroke_u	u	n/a
341.757	0.105	683514	keystroke_Key.backspace	Key.backspace	n/a
342.6425	0.075	685285	keystroke_i	i	n/a
342.8075	0.1195	685615	keystroke_o	o	n/a
343.017	0.1495	686034	keystroke_s	s	n/a
343.677	0.075	687354	keystroke_Key.backspace	Key.backspace	n/a
343.842	0.075	687684	keystroke_Key.backspace	Key.backspace	n/a
344.5015	0.121	689003	keystroke_p	p	n/a
344.637	0.0155	689274	keystroke_s	s	n/a
345.327	0.12	690654	keystroke_Key.enter	Key.enter	n/a
345.4515	7.107	690903	prompt	n/a	knee accessory turtle loads\n
346.3165	0.105	692633	keystroke_k	k	n/a
346.587	0.09	693174	keystroke_n	n	n/a
346.8575	0.0745	693715	keystroke_e	e	n/a
347.067	0.0745	694134	keystroke_e	e	n/a
347.2915	0.1205	694583	keystroke_Key.space	Key.space	n/a
347.562	0.12	695124	keystroke_a	a	n/a
347.847	0.075	695694	keystroke_c	c	n/a
348.027	0.105	696054	keystroke_c	c	n/a
348.2825	0.1795	696565	keystroke_e	e	n/a
348.477	0.105	696954	keystroke_s	s	n/a
348.747	0.12	697494	keystroke_s	s	n/a
349.0315	0.135	698063	keystroke_o	o	n/a
349.2125	0.09	698425	keystroke_r	r	n/a
349.6475	0.135	699295	keystroke_y	y	n/a
349.9175	0.089	699835	keystroke_Key.space	Key.space	n/a
350.322	0.105	700644	keystroke_t	t	n/a
350.517	0.09	701034	keystroke_u	u	n/a
350.712	0.075	701424	keystroke_r	r	n/a
350.9365	0.075	701873	keystroke_t	t	n/a
351.057	0.1505	702114	keystroke_l	l	n/a
351.252	0.1205	702504	keystroke_e	e	n/a
351.3865	0.105	702773	keystroke_Key.space	Key.space	n/a
351.5975	0.104	703195	keystroke_l	l	n/a
351.7925	0.09	703585	keystroke_o	o	n/a
351.8515	0.195	703703	keystroke_a	a	n/a
352.0325	0.21	704065	keystroke_d	d	n/a
352.1825	0.149	704365	keystroke_s	s	n/a
352.4365	0.1205	704873	keystroke_Key.enter	Key.enter	n/a
352.5625	10.166	705125	prompt	n/a	assumptions attacked cute battlefield\n
353.247	0.15	706494	keystroke_a	a	n/a
353.442	0.105	706884	keystroke_s	s	n/a
353.622	0.15	707244	keystroke_s	s	n/a
353.787	0.105	707574	keystroke_u	u	n/a
354.117	0.0905	708234	keystroke_m	m	n/a
354.432	0.1495	708864	keystroke_p	p	n/a
354.6415	0.1055	709283	keystroke_t	t	n/a
354.867	0.0745	709734	keystroke_i	i	n/a
354.9565	0.1205	709913	keystroke_o	o	n/a
355.2575	0.1045	710515	keystroke_n	n	n/a
355.4965	0.1355	710993	keystroke_s	s	n/a
355.797	0.135	711594	keystroke_Key.space	Key.space	n/a
356.0375	0.1045	712075	keystroke_a	a	n/a
356.277	0.0745	712554	keystroke_t	t	n/a
356.4725	0.119	712945	keystroke_t	t	n/a
356.667	0.1345	713334	keystroke_a	a	n/a
356.8615	0.135	713723	keystroke_c	c	n/a
357.0725	0.135	714145	keystroke_k	k	n/a
357.177	0.1655	714354	keystroke_e	e	n/a
357.267	0.165	714534	keystroke_d	d	n/a
357.522	0.09	715044	keystroke_Key.space	Key.space	n/a
357.642	0.105	715284	keystroke_c	c	n/a
357.807	0.1055	715614	keystroke_u	u	n/a
357.987	0.1205	715974	keystroke_t	t	n/a
358.2265	0.09	716453	keystroke_e	e	n/a
358.3765	0.0605	716753	keystroke_Key.space	Key.space	n/a
358.5715	0.12	717143	keystroke_b	b	n/a
358.7375	0.164	717475	keystroke_a	a	n/a
358.9475	0.104	717895	keystroke_t	t	n/a
359.112	0.1205	718224	keystroke_t	t	n/a
359.6975	0.0445	719395	keystroke_l	l	n/a
359.7725	0.165	719545	keystroke_e	e	n/a
360.222	0.105	720444	keystroke_f	f	n/a
360.4175	0.1045	720835	keystroke_i	i	n/a
360.5825	0.135	721165	keystroke_e	e	n/a
360.732	0.1655	721464	keystroke_d	d	n/a
361.587	0.075	723174	keystroke_Key.backspace	Key.backspace	n/a
362.1575	0.1195	724315	keystroke_l	l	n/a
362.322	0.105	724644	keystroke_d	d	n/a
362.6365	0.0905	725273	keystroke_Key.enter	Key.enter	n/a
362.733	8.456	725466	prompt	n/a	unavailable locations requires programs\n
363.5675	0.074	727135	keystroke_u	u	n/a
363.7765	0.09	727553	keystroke_n	n	n/a
364.0315	0.0905	728063	keystroke_a	a	n/a
364.332	0.1205	728664	keystroke_v	v	n/a
364.707	0.105	729414	keystroke_a	a	n/a
364.962	0.06	729924	keystroke_i	i	n/a
365.1575	0.135	730315	keystroke_l	l	n/a
365.757	0.1505	731514	keystroke_a	a	n/a
365.9515	0.1055	731903	keystroke_b	b	n/a
366.1765	0.1505	732353	keystroke_l	l	n/a
366.312	0.0905	732624	keystroke_e	e	n/a
366.432	0.09	732864	keystroke_Key.space	Key.space	n/a
366.567	0.09	733134	keystroke_l	l	n/a
366.7775	0.1045	733555	keystroke_o	o	n/a
366.867	0.12	733734	keystroke_c	c	n/a
367.002	0.18	734004	keystroke_a	a	n/a
367.2425	0.1195	734485	keystroke_t	t	n/a
367.347	0.075	734694	keystroke_i	i	n/a
367.452	0.105	734904	keystroke_o	o	n/a
367.677	0.105	735354	keystroke_n	n	n/a
367.8275	0.0895	735655	keystroke_s	s	n/a
367.932	0.105	735864	keystroke_Key.space	Key.space	n/a
368.112	0.1345	736224	keystroke_r	r	n/a
368.217	0.165	736434	keystroke_e	e	n/a
368.487	0.1195	736974	keystroke_q	q	n/a
368.652	0.0895	737304	keystroke_u	u	n/a
368.7875	0.1345	737575	keystroke_i	i	n/a
368.892	0.1945	737784	keystroke_r	r	n/a
369.0425	0.209	738085	keystroke_e	e	n/a
369.192	0.1805	738384	keystroke_s	s	n/a
369.4315	0.0905	738863	keystroke_Key.space	Key.space	n/a
369.612	0.1505	739224	keystroke_p	p	n/a
369.7475	0.075	739495	keystroke_r	r	n/a
369.8375	0.135	739675	keystroke_o	o	n/a
370.332	0.1055	740664	keystroke_g	g	n/a
370.467	0.1655	740934	keystroke_r	r	n/a
370.617	0.1345	741234	keystroke_a	a	n/a
370.767	0.1195	741534	keystroke_m	m	n/a
370.9315	0.105	741863	keystroke_s	s	n/a
371.0665	0.1205	742133	keystroke_Key.enter	Key.enter	n/a
371.1935	7.9155	742387	prompt	n/a	door devoted essays survive\n
371.907	0.105	743814	keystroke_d	d	n/a
372.0425	0.06	744085	keystroke_o	o	n/a
372.207	0.105	744414	keystroke_o	o	n/a
372.357	0.105	744714	keystroke_r	r	n/a
372.642	0.135	745284	keystroke_Key.space	Key.space	n/a
373.077	0.135	746154	keystroke_d	d	n/a
373.287	0.12	746574	keystroke_e	e	n/a
373.7825	0.0895	747565	keystroke_v	v	n/a
375.0275	0.119	750055	keystroke_o	o	n/a
375.447	0.0745	750894	keystroke_t	t	n/a
375.5365	0.1505	751073	keystroke_e	e	n/a
375.7775	0.1195	751555	keystroke_d	d	n/a
376.0165	0.1055	752033	keystroke_Key.space	Key.space	n/a
376.257	0.075	752514	keystroke_e	e	n/a
376.482	0.075	752964	keystroke_s	s	n/a
376.677	0.12	753354	keystroke_s	s	n/a
376.842	0.105	753684	keystroke_a	a	n/a
376.992	0.06	753984	keystroke_y	y	n/a
377.082	0.12	754164	keystroke_s	s	n/a
377.277	0.075	754554	keystroke_Key.space	Key.space	n/a
377.442	0.12	754884	keystroke_s	s	n/a
377.607	0.0905	755214	keystroke_u	u	n/a
377.742	0.09	755484	keystroke_r	r	n/a
377.922	0.09	755844	keystroke_v	v	n/a
378.387	0.0905	756774	keystroke_i	i	n/a
378.6425	0.09	757285	keystroke_v	v	n/a
378.7475	0.15	757495	keystroke_e	e	n/a
379.0015	0.106	758003	keystroke_Key.enter	Key.enter	n/a
379.1135	7.9005	758227	prompt	n/a	satisfy katie visit abroad\n
379.8575	0.12	759715	keystroke_s	s	n/a
380.1115	0.1355	760223	keystroke_a	a	n/a
380.292	0.1055	760584	keystroke_t	t	n/a
380.6665	0.105	761333	keystroke_i	i	n/a
380.9065	0.1355	761813	keystroke_s	s	n/a
381.702	0.12	763404	keystroke_f	f	n/a
382.0765	0.106	764153	keystroke_y	y	n/a
382.3615	0.135	764723	keystroke_Key.space	Key.space	n/a
382.9325	0.104	765865	keystroke_k	k	n/a
383.022	0.1495	766044	keystroke_a	a	n/a
383.2315	0.105	766463	keystroke_t	t	n/a
383.3665	0.091	766733	keystroke_i	i	n/a
383.5465	0.105	767093	keystroke_e	e	n/a
383.6965	0.1205	767393	keystroke_Key.space	Key.space	n/a
384.116	0.076	768232	keystroke_v	v	n/a
384.282	0.075	768564	keystroke_i	i	n/a
384.3725	0.135	768745	keystroke_s	s	n/a
384.522	0.105	769044	keystroke_i	i	n/a
384.702	0.105	769404	keystroke_t	t	n/a
384.912	0.09	769824	keystroke_Key.space	Key.space	n/a
385.152	0.1505	770304	keystroke_a	a	n/a
385.467	0.12	770934	keystroke_b	b	n/a
385.632	0.105	771264	keystroke_r	r	n/a
385.842	0.12	771684	keystroke_o	o	n/a
385.977	0.18	771954	keystroke_a	a	n/a
386.202	0.1045	772404	keystroke_d	d	n/a
386.8915	0.12	773783	keystroke_Key.enter	Key.enter	n/a
387.018	8.066	774036	prompt	n/a	buys packaging suffered motion\n
387.747	0.09	775494	keystroke_b	b	n/a
387.9575	0.075	775915	keystroke_u	u	n/a
388.167	0.0745	776334	keystroke_y	y	n/a
388.3025	0.1195	776605	keystroke_s	s	n/a
388.467	0.105	776934	keystroke_Key.space	Key.space	n/a
388.722	0.15	777444	keystroke_p	p	n/a
388.8575	0.1185	777715	keystroke_a	a	n/a
389.247	0.135	778494	keystroke_c	c	n/a
389.592	0.135	779184	keystroke_k	k	n/a
389.7425	0.2095	779485	keystroke_a	a	n/a
390.402	0.105	780804	keystroke_g	g	n/a
390.492	0.0905	780984	keystroke_i	i	n/a
390.717	0.105	781434	keystroke_n	n	n/a
391.4965	0.091	782993	keystroke_g	g	n/a
391.707	0.105	783414	keystroke_Key.space	Key.space	n/a
391.932	0.12	783864	keystroke_s	s	n/a
392.067	0.1205	784134	keystroke_u	u	n/a
392.4715	0.06	784943	keystroke_f	f	n/a
392.6825	0.075	785365	keystroke_f	f	n/a
392.817	0.1795	785634	keystroke_e	e	n/a
392.9825	0.135	785965	keystroke_r	r	n/a
393.1325	0.195	786265	keystroke_e	e	n/a
393.342	0.1355	786684	keystroke_d	d	n/a
393.582	0.104	787164	keystroke_Key.space	Key.space	n/a
393.7775	0.1195	787555	keystroke_m	m	n/a
393.972	0.1345	787944	keystroke_o	o	n/a
394.137	0.105	788274	keystroke_t	t	n/a
394.317	0.075	788634	keystroke_i	i	n/a
394.407	0.135	788814	keystroke_o	o	n/a
394.692	0.09	789384	keystroke_n	n	n/a
394.962	0.12	789924	keystroke_Key.enter	Key.enter	n/a
395.09	7.2535	790180	prompt	n/a	gently terminals wanna livecam\n
395.8475	0.0745	791695	keystroke_g	g	n/a
395.9525	0.12	791905	keystroke_e	e	n/a
396.087	0.105	792174	keystroke_n	n	n/a
396.2225	0.1045	792445	keystroke_t	t	n/a
396.3875	0.1045	792775	keystroke_l	l	n/a
396.672	0.0895	793344	keystroke_y	y	n/a
396.8365	0.0755	793673	keystroke_Key.space	Key.space	n/a
397.002	0.1055	794004	keystroke_t	t	n/a
397.1825	0.225	794365	keystroke_e	e	n/a
397.3325	0.1195	794665	keystroke_r	r	n/a
397.497	0.105	794994	keystroke_m	m	n/a
397.707	0.09	795414	keystroke_i	i	n/a
397.917	0.075	795834	keystroke_n	n	n/a
398.037	0.09	796074	keystroke_a	a	n/a
398.2175	0.12	796435	keystroke_l	l	n/a
398.3975	0.12	796795	keystroke_s	s	n/a
398.5625	0.09	797125	keystroke_Key.space	Key.space	n/a
399.1175	0.134	798235	keystroke_w	w	n/a
399.2665	0.1655	798533	keystroke_a	a	n/a
399.462	0.075	798924	keystroke_n	n	n/a
399.612	0.0905	799224	keystroke_n	n	n/a
399.7025	0.1195	799405	keystroke_a	a	n/a
399.882	0.105	799764	keystroke_Key.space	Key.space	n/a
400.0625	0.134	800125	keystroke_l	l	n/a
400.3015	0.09	800603	keystroke_i	i	n/a
400.437	0.06	800874	keystroke_v	v	n/a
400.827	0.12	801654	keystroke_e	e	n/a
401.307	0.165	802614	keystroke_c	c	n/a
401.7275	0.149	803455	keystroke_a	a	n/a
401.9365	0.136	803873	keystroke_m	m	n/a
402.2525	0.09	804505	keystroke_Key.enter	Key.enter	n/a
402.348	11.801	804696	prompt	n/a	nevertheless tribe environments mailing\n
403.032	0.105	806064	keystroke_n	n	n/a
403.182	0.09	806364	keystroke_e	e	n/a
403.452	0.105	806904	keystroke_v	v	n/a
403.662	0.1645	807324	keystroke_e	e	n/a
403.8565	0.091	807713	keystroke_r	r	n/a
404.0975	0.089	808195	keystroke_t	t	n/a
404.2465	0.105	808493	keystroke_h	h	n/a
404.3965	0.0905	808793	keystroke_e	e	n/a
404.577	0.1345	809154	keystroke_l	l	n/a
404.7425	0.105	809485	keystroke_e	e	n/a
405.342	0.06	810684	keystroke_s	s	n/a
405.5365	0.076	811073	keystroke_s	s	n/a
405.732	0.0895	811464	keystroke_Key.space	Key.space	n/a
406.5575	0.09	813115	keystroke_t	t	n/a
406.7225	0.075	813445	keystroke_r	r	n/a
406.8725	0.075	813745	keystroke_i	i	n/a
407.142	0.1205	814284	keystroke_b	b	n/a
407.2775	0.135	814555	keystroke_e	e	n/a
407.472	0.09	814944	keystroke_Key.space	Key.space	n/a
407.7125	0.0895	815425	keystroke_e	e	n/a
407.892	0.105	815784	keystroke_n	n	n/a
408.2525	0.1045	816505	keystroke_c	c	n/a
409.6775	0.0595	819355	keystroke_Key.backspace	Key.backspace	n/a
410.1725	0.0145	820345	keystroke_v	v	n/a
410.862	0.09	821724	keystroke_i	i	n/a
410.9825	0.1195	821965	keystroke_r	r	n/a
411.103	0.089	822206	keystroke_o	o	n/a
411.327	0.09	822654	keystroke_n	n	n/a
411.5825	0.09	823165	keystroke_m	m	n/a
411.6875	0.15	823375	keystroke_e	e	n/a
411.807	0.121	823614	keystroke_n	n	n/a
411.987	0.1055	823974	keystroke_t	t	n/a
412.2875	0.09	824575	keystroke_s	s	n/a
412.4525	0.089	824905	keystroke_Key.space	Key.space	n/a
412.7825	0.105	825565	keystroke_m	m	n/a
412.9025	0.1645	825805	keystroke_a	a	n/a
413.082	0.075	826164	keystroke_i	i	n/a
413.2465	0.1355	826493	keystroke_l	l	n/a
413.472	0.061	826944	keystroke_i	i	n/a
413.652	0.09	827304	keystroke_n	n	n/a
413.772	0.1055	827544	keystroke_g	g	n/a
414.0575	0.089	828115	keystroke_Key.enter	Key.enter	n/a
414.1525	8.6515	828305	prompt	n/a	scale dutch faced approximate\n
414.838	0.1945	829676	keystroke_s	s	n/a
415.0475	0.15	830095	keystroke_c	c	n/a
415.2125	0.1795	830425	keystroke_a	a	n/a
415.3765	0.1355	830753	keystroke_l	l	n/a
415.542	0.0745	831084	keystroke_e	e	n/a
415.7215	0.09	831443	keystroke_Key.space	Key.space	n/a
415.9775	0.0445	831955	keystroke_d	d	n/a
416.5925	0.1195	833185	keystroke_u	u	n/a
416.8175	0.1045	833635	keystroke_t	t	n/a
417.1625	0.15	834325	keystroke_c	c	n/a
417.3275	0.12	834655	keystroke_h	h	n/a
417.5225	0.1195	835045	keystroke_Key.space	Key.space	n/a
417.9725	0.12	835945	keystroke_f	f	n/a
418.242	0.165	836484	keystroke_a	a	n/a
418.3925	0.1345	836785	keystroke_c	c	n/a
418.9925	0.0895	837985	keystroke_e	e	n/a
419.142	0.09	838284	keystroke_d	d	n/a
419.382	0.105	838764	keystroke_Key.space	Key.space	n/a
419.862	0.1345	839724	keystroke_a	a	n/a
420.6425	0.045	841285	keystroke_p	p	n/a
420.8225	0.09	841645	keystroke_p	p	n/a
420.9425	0.105	841885	keystroke_r	r	n/a
421.242	0.105	842484	keystroke_o	o	n/a
421.677	0.12	843354	keystroke_x	x	n/a
421.8425	0.0745	843685	keystroke_i	i	n/a
422.0375	0.1195	844075	keystroke_m	m	n/a
422.1425	0.1495	844285	keystroke_a	a	n/a
422.352	0.135	844704	keystroke_t	t	n/a
422.532	0.12	845064	keystroke_e	e	n/a
422.727	0.075	845454	keystroke_Key.enter	Key.enter	n/a
422.809	7.075	845618	prompt	n/a	exotic sponsor forests grew\n
423.7625	0.0895	847525	keystroke_e	e	n/a
424.0025	0.105	848005	keystroke_x	x	n/a
424.1825	0.105	848365	keystroke_o	o	n/a
424.512	0.105	849024	keystroke_t	t	n/a
424.677	0.09	849354	keystroke_i	i	n/a
425.0075	0.105	850015	keystroke_c	c	n/a
425.2315	0.1355	850463	keystroke_Key.space	Key.space	n/a
425.3815	0.121	850763	keystroke_s	s	n/a
425.517	0.1205	851034	keystroke_p	p	n/a
425.6525	0.105	851305	keystroke_o	o	n/a
425.8925	0.0895	851785	keystroke_n	n	n/a
426.1625	0.045	852325	keystroke_d	d	n/a
426.5215	0.0905	853043	keystroke_Key.backspace	Key.backspace	n/a
426.687	0.15	853374	keystroke_s	s	n/a
426.868	0.1195	853736	keystroke_o	o	n/a
427.0475	0.1045	854095	keystroke_r	r	n/a
427.1975	0.1045	854395	keystroke_Key.space	Key.space	n/a
427.602	0.105	855204	keystroke_f	f	n/a
427.752	0.075	855504	keystroke_o	o	n/a
427.8725	0.15	855745	keystroke_r	r	n/a
427.9925	0.21	855985	keystroke_e	e	n/a
428.157	0.18	856314	keystroke_s	s	n/a
428.367	0.15	856734	keystroke_t	t	n/a
428.5325	0.15	857065	keystroke_s	s	n/a
428.787	0.075	857574	keystroke_Key.space	Key.space	n/a
428.9965	0.0905	857993	keystroke_g	g	n/a
429.117	0.1945	858234	keystroke_r	r	n/a
429.2815	0.331	858563	keystroke_e	e	n/a
429.5815	0.18	859163	keystroke_w	w	n/a
429.777	0.105	859554	keystroke_Key.enter	Key.enter	n/a
429.891	6.2325	859782	prompt	n/a	treo carl mission residents\n
430.6625	0.15	861325	keystroke_t	t	n/a
430.902	0.2105	861804	keystroke_r	r	n/a
431.0515	0.151	862103	keystroke_e	e	n/a
431.2175	0.12	862435	keystroke_o	o	n/a
431.4275	0.104	862855	keystroke_Key.space	Key.space	n/a
431.6375	0.1195	863275	keystroke_c	c	n/a
431.877	0.1645	863754	keystroke_a	a	n/a
432.1915	0.105	864383	keystroke_r	r	n/a
432.3875	0.119	864775	keystroke_l	l	n/a
432.6415	0.1205	865283	keystroke_Key.space	Key.space	n/a
432.9265	0.09	865853	keystroke_m	m	n/a
433.152	0.0745	866304	keystroke_i	i	n/a
433.2575	0.104	866515	keystroke_s	s	n/a
433.452	0.1345	866904	keystroke_s	s	n/a
433.5715	0.0905	867143	keystroke_i	i	n/a
433.692	0.1055	867384	keystroke_o	o	n/a
433.9175	0.0745	867835	keystroke_n	n	n/a
434.022	0.0905	868044	keystroke_Key.space	Key.space	n/a
434.2025	0.119	868405	keystroke_r	r	n/a
434.367	0.0905	868734	keystroke_e	e	n/a
434.8015	0.1055	869603	keystroke_s	s	n/a
434.9375	0.1045	869875	keystroke_i	i	n/a
435.117	0.15	870234	keystroke_d	d	n/a
435.297	0.135	870594	keystroke_e	e	n/a
435.4625	0.1045	870925	keystroke_n	n	n/a
435.597	0.12	871194	keystroke_t	t	n/a
435.8075	0.119	871615	keystroke_s	s	n/a
436.0465	0.0755	872093	keystroke_Key.enter	Key.enter	n/a
436.1275	8.111	872255	prompt	n/a	struck breath winners that'll\n
436.9025	0.135	873805	keystroke_s	s	n/a
437.0525	0.09	874105	keystroke_t	t	n/a
437.2165	0.076	874433	keystroke_r	r	n/a
437.3975	0.075	874795	keystroke_u	u	n/a
438.1465	0.136	876293	keystroke_c	c	n/a
438.3125	0.1045	876625	keystroke_k	k	n/a
438.491	0.075	876982	keystroke_Key.space	Key.space	n/a
438.717	0.075	877434	keystroke_b	b	n/a
438.837	0.1655	877674	keystroke_r	r	n/a
438.9575	0.225	877915	keystroke_e	e	n/a
439.1075	0.225	878215	keystroke_a	a	n/a
439.3625	0.12	878725	keystroke_t	t	n/a
439.4825	0.09	878965	keystroke_h	h	n/a
439.677	0.105	879354	keystroke_Key.space	Key.space	n/a
440.097	0.0305	880194	keystroke_w	w	n/a
440.142	0.06	880284	keystroke_i	i	n/a
440.382	0.06	880764	keystroke_n	n	n/a
440.5325	0.089	881065	keystroke_n	n	n/a
440.637	0.27	881274	keystroke_e	e	n/a
440.8015	0.1655	881603	keystroke_r	r	n/a
440.9515	0.15	881903	keystroke_s	s	n/a
441.1915	0.0605	882383	keystroke_Key.space	Key.space	n/a
441.387	0.1195	882774	keystroke_t	t	n/a
441.522	0.105	883044	keystroke_h	h	n/a
441.7915	0.1355	883583	keystroke_a	a	n/a
442.1525	0.09	884305	keystroke_t	t	n/a
442.932	0.1505	885864	keystroke_'	'	n/a
443.6075	0.075	887215	keystroke_l	l	n/a
443.772	0.105	887544	keystroke_l	l	n/a
444.1175	0.1195	888235	keystroke_Key.enter	Key.enter	n/a
444.244	11.005	888488	prompt	n/a	celebrate acquisition anti implementation\n
445.0325	0.1045	890065	keystroke_c	c	n/a
445.197	0.1055	890394	keystroke_e	e	n/a
445.407	0.135	890814	keystroke_l	l	n/a
445.722	0.09	891444	keystroke_e	e	n/a
446.202	0.06	892404	keystroke_b	b	n/a
446.322	0.12	892644	keystroke_r	r	n/a
446.4725	0.24	892945	keystroke_a	a	n/a
446.6815	0.135	893363	keystroke_t	t	n/a
446.8775	0.1345	893755	keystroke_e	e	n/a
447.0575	0.1045	894115	keystroke_Key.space	Key.space	n/a
447.2215	0.166	894443	keystroke_a	a	n/a
447.7315	0.1205	895463	keystroke_c	c	n/a
448.0325	0.119	896065	keystroke_q	q	n/a
448.2115	0.106	896423	keystroke_u	u	n/a
448.3615	0.1055	896723	keystroke_i	i	n/a
448.497	0.1045	896994	keystroke_s	s	n/a
449.2765	0.09	898553	keystroke_i	i	n/a
449.3965	0.0905	898793	keystroke_t	t	n/a
449.5165	0.1055	899033	keystroke_i	i	n/a
449.6515	0.121	899303	keystroke_o	o	n/a
449.922	0.1055	899844	keystroke_n	n	n/a
450.102	0.0905	900204	keystroke_Key.space	Key.space	n/a
450.267	0.165	900534	keystroke_a	a	n/a
450.432	0.09	900864	keystroke_n	n	n/a
450.597	0.12	901194	keystroke_t	t	n/a
450.762	0.12	901524	keystroke_i	i	n/a
450.942	0.12	901884	keystroke_Key.space	Key.space	n/a
451.182	0.075	902364	keystroke_i	i	n/a
451.407	0.12	902814	keystroke_m	m	n/a
451.647	0.09	903294	keystroke_p	p	n/a
451.767	0.1805	903534	keystroke_r	r	n/a
451.992	0.1355	903984	keystroke_e	e	n/a
452.5015	0.06	905003	keystroke_Key.backspace	Key.backspace	n/a
452.6515	0.075	905303	keystroke_Key.backspace	Key.backspace	n/a
453.042	0.105	906084	keystroke_l	l	n/a
453.222	0.1055	906444	keystroke_e	e	n/a
453.567	0.09	907134	keystroke_m	m	n/a
453.717	0.075	907434	keystroke_e	e	n/a
453.867	0.09	907734	keystroke_n	n	n/a
454.0625	0.134	908125	keystroke_t	t	n/a
454.257	0.225	908514	keystroke_a	a	n/a
454.4375	0.12	908875	keystroke_t	t	n/a
454.587	0.12	909174	keystroke_i	i	n/a
454.7225	0.1195	909445	keystroke_o	o	n/a
454.902	0.105	909804	keystroke_n	n	n/a
455.157	0.09	910314	keystroke_Key.enter	Key.enter	n/a
455.2535	11.6055	910507	prompt	n/a	betty upper utilize species\n
456.087	0.0755	912174	keystroke_b	b	n/a
456.177	0.105	912354	keystroke_e	e	n/a
456.3575	0.075	912715	keystroke_t	t	n/a
456.522	0.075	913044	keystroke_t	t	n/a
456.7325	0.1045	913465	keystroke_y	y	n/a
456.867	0.12	913734	keystroke_Key.space	Key.space	n/a
457.122	0.075	914244	keystroke_u	u	n/a
457.677	0.135	915354	keystroke_p	p	n/a
457.9765	0.106	915953	keystroke_p	p	n/a
458.0975	0.194	916195	keystroke_e	e	n/a
458.247	0.1505	916494	keystroke_r	r	n/a
458.4725	0.104	916945	keystroke_Key.space	Key.space	n/a
458.7575	0.074	917515	keystroke_u	u	n/a
458.9675	0.105	917935	keystroke_t	t	n/a
459.2375	0.134	918475	keystroke_l	l	n/a
459.4625	0.104	918925	keystroke_i	i	n/a
459.747	0.1205	919494	keystroke_z	z	n/a
460.3015	0.0905	920603	keystroke_Key.backspace	Key.backspace	n/a
462.839	0.058	925678	keystroke_Key.backspace	Key.backspace	n/a
462.987	0.105	925974	keystroke_Key.backspace	Key.backspace	n/a
463.527	0.1205	927054	keystroke_i	i	n/a
463.872	0.09	927744	keystroke_l	l	n/a
464.037	0.105	928074	keystroke_i	i	n/a
464.247	0.15	928494	keystroke_z	z	n/a
464.8015	0.1355	929603	keystroke_e	e	n/a
465.087	0.12	930174	keystroke_Key.space	Key.space	n/a
465.507	0.1195	931014	keystroke_s	s	n/a
465.6265	0.1205	931253	keystroke_p	p	n/a
465.762	0.0905	931524	keystroke_e	e	n/a
466.047	0.15	932094	keystroke_c	c	n/a
466.272	0.0895	932544	keystroke_i	i	n/a
466.3915	0.2255	932783	keystroke_e	e	n/a
466.5715	0.121	933143	keystroke_s	s	n/a
466.7665	0.09	933533	keystroke_Key.enter	Key.enter	n/a
466.8635	10.7505	933727	prompt	n/a	nevada infections oaks drives\n
467.5175	0.135	935035	keystroke_n	n	n/a
467.712	0.105	935424	keystroke_e	e	n/a
468.087	0.15	936174	keystroke_v	v	n/a
468.387	0.1805	936774	keystroke_a	a	n/a
469.017	0.1355	938034	keystroke_d	d	n/a
469.4665	0.1205	938933	keystroke_a	a	n/a
469.692	0.105	939384	keystroke_Key.space	Key.space	n/a
469.9025	0.075	939805	keystroke_i	i	n/a
470.0975	0.1045	940195	keystroke_n	n	n/a
470.577	0.135	941154	keystroke_f	f	n/a
470.727	0.12	941454	keystroke_e	e	n/a
470.952	0.0905	941904	keystroke_c	c	n/a
471.207	0.09	942414	keystroke_t	t	n/a
471.342	0.135	942684	keystroke_i	i	n/a
471.492	0.09	942984	keystroke_o	o	n/a
471.807	0.105	943614	keystroke_s	s	n/a
471.957	0.09	943914	keystroke_Key.space	Key.space	n/a
472.587	0.0745	945174	keystroke_Key.backspace	Key.backspace	n/a
472.7665	0.046	945533	keystroke_Key.backspace	Key.backspace	n/a
473.0825	0.105	946165	keystroke_n	n	n/a
473.3215	0.1505	946643	keystroke_s	s	n/a
473.487	0.105	946974	keystroke_Key.space	Key.space	n/a
473.682	0.105	947364	keystroke_o	o	n/a
473.862	0.1655	947724	keystroke_a	a	n/a
474.0575	0.15	948115	keystroke_l	l	n/a
474.777	0.06	949554	keystroke_Key.backspace	Key.backspace	n/a
475.107	0.09	950214	keystroke_k	k	n/a
475.5575	0.0895	951115	keystroke_s	s	n/a
476.037	0.12	952074	keystroke_Key.space	Key.space	n/a
476.442	0.1055	952884	keystroke_d	d	n/a
476.697	0.0455	953394	keystroke_r	r	n/a
476.757	0.105	953514	keystroke_i	i	n/a
477.012	0.0905	954024	keystroke_v	v	n/a
477.1175	0.209	954235	keystroke_e	e	n/a
477.2815	0.1205	954563	keystroke_s	s	n/a
477.5065	0.105	955013	keystroke_Key.enter	Key.enter	n/a
477.6185	17.261	955237	prompt	n/a	data continuously gets enables\n
478.5275	0.104	957055	keystroke_d	d	n/a
478.6925	0.119	957385	keystroke_a	a	n/a
478.8575	0.09	957715	keystroke_t	t	n/a
478.9615	0.165	957923	keystroke_a	a	n/a
479.2015	0.1205	958403	keystroke_Key.space	Key.space	n/a
479.532	0.0155	959064	keystroke_c	c	n/a
479.562	0.06	959124	keystroke_o	o	n/a
479.742	0.0905	959484	keystroke_n	n	n/a
479.8775	0.0895	959755	keystroke_t	t	n/a
480.057	0.0605	960114	keystroke_i	i	n/a
480.2525	0.1045	960505	keystroke_n	n	n/a
480.447	0.105	960894	keystroke_u	u	n/a
481.827	0.1345	963654	keystroke_o	o	n/a
482.382	0.105	964764	keystroke_u	u	n/a
482.5615	0.0905	965123	keystroke_s	s	n/a
482.7875	0.1045	965575	keystroke_l	l	n/a
483.417	0.09	966834	keystroke_Key.backspace	Key.backspace	n/a
483.612	0.09	967224	keystroke_Key.backspace	Key.backspace	n/a
485.2175	0.0895	970435	keystroke_Key.backspace	Key.backspace	n/a
485.4275	0.1045	970855	keystroke_s	s	n/a
485.772	0.165	971544	keystroke_l	l	n/a
486.147	0.0745	972294	keystroke_y	y	n/a
486.2515	0.105	972503	keystroke_Key.space	Key.space	n/a
486.867	0.12	973734	keystroke_Key.backspace	Key.backspace	n/a
487.107	0.105	974214	keystroke_Key.backspace	Key.backspace	n/a
487.302	0.0895	974604	keystroke_Key.backspace	Key.backspace	n/a
487.4965	0.1055	974993	keystroke_Key.backspace	Key.backspace	n/a
487.692	0.135	975384	keystroke_Key.backspace	Key.backspace	n/a
490.6935	0.059	981387	keystroke_o	o	n/a
490.903	0.0735	981806	keystroke_u	u	n/a
491.0375	0.105	982075	keystroke_s	s	n/a
491.2315	0.105	982463	keystroke_l	l	n/a
491.7875	0.059	983575	keystroke_y	y	n/a
491.9215	0.09	983843	keystroke_Key.space	Key.space	n/a
492.8665	0.091	985733	keystroke_g	g	n/a
492.9725	0.12	985945	keystroke_e	e	n/a
493.1225	0.09	986245	keystroke_t	t	n/a
493.363	0.104	986726	keystroke_s	s	n/a
493.512	0.105	987024	keystroke_Key.space	Key.space	n/a
493.7675	0.12	987535	keystroke_e	e	n/a
493.9025	0.0895	987805	keystroke_n	n	n/a
494.0375	0.15	988075	keystroke_a	a	n/a
494.1565	0.091	988313	keystroke_b	b	n/a
494.367	0.136	988734	keystroke_l	l	n/a
494.487	0.1945	988974	keystroke_e	e	n/a
494.6215	0.1955	989243	keystroke_s	s	n/a
494.7725	0.105	989545	keystroke_Key.enter	Key.enter	n/a
494.884	15.297	989768	prompt	n/a	reproduced involves flush alien\n
499.7695	0.0875	999539	keystroke_r	r	n/a
499.828	0.1945	999656	keystroke_e	e	n/a
500.2175	0.2245	1000435	keystroke_p	p	n/a
500.7725	0.1045	1001545	keystroke_r	r	n/a
501.117	0.1205	1002234	keystroke_o	o	n/a
501.642	0.0905	1003284	keystroke_d	d	n/a
501.8225	0.105	1003645	keystroke_u	u	n/a
501.9565	0.1065	1003913	keystroke_c	c	n/a
502.1975	0.165	1004395	keystroke_e	e	n/a
502.4225	0.1045	1004845	keystroke_d	d	n/a
502.7075	0.1045	1005415	keystroke_Key.space	Key.space	n/a
502.963	0.105	1005926	keystroke_i	i	n/a
503.2625	0.1205	1006525	keystroke_n	n	n/a
503.547	0.15	1007094	keystroke_c	c	n/a
504.283	0.0745	1008566	keystroke_=	=	n/a
504.477	0.12	1008954	keystroke_Key.backspace	Key.backspace	n/a
504.732	0.09	1009464	keystroke_Key.backspace	Key.backspace	n/a
504.912	0.121	1009824	keystroke_v	v	n/a
505.452	0.105	1010904	keystroke_o	o	n/a
505.7825	0.105	1011565	keystroke_l	l	n/a
506.0975	0.075	1012195	keystroke_v	v	n/a
506.2025	0.24	1012405	keystroke_e	e	n/a
506.4275	0.12	1012855	keystroke_s	s	n/a
506.6825	0.135	1013365	keystroke_Key.space	Key.space	n/a
507.7925	0.1045	1015585	keystroke_f	f	n/a
508.002	0.12	1016004	keystroke_l	l	n/a
508.2275	0.09	1016455	keystroke_u	u	n/a
508.3325	0.1195	1016665	keystroke_s	s	n/a
508.512	0.091	1017024	keystroke_h	h	n/a
508.707	0.105	1017414	keystroke_Key.space	Key.space	n/a
508.827	0.135	1017654	keystroke_a	a	n/a
509.3225	0.0595	1018645	keystroke_l	l	n/a
509.4275	0.1045	1018855	keystroke_i	i	n/a
509.638	0.09	1019276	keystroke_e	e	n/a
509.7725	0.105	1019545	keystroke_n	n	n/a
510.0715	0.1055	1020143	keystroke_Key.enter	Key.enter	n/a
510.189	9.8	1020378	prompt	n/a	sharon meter forests rogers\n
510.8225	0.1045	1021645	keystroke_s	s	n/a
510.942	0.12	1021884	keystroke_h	h	n/a
511.1665	0.0905	1022333	keystroke_r	r	n/a
511.3175	0.1055	1022635	keystroke_o	o	n/a
511.587	0.106	1023174	keystroke_n	n	n/a
511.767	0.1055	1023534	keystroke_Key.space	Key.space	n/a
512.0075	0.089	1024015	keystroke_m	m	n/a
512.4275	0.09	1024855	keystroke_Key.backspace	Key.backspace	n/a
512.6225	0.075	1025245	keystroke_Key.backspace	Key.backspace	n/a
512.8025	0.075	1025605	keystroke_Key.backspace	Key.backspace	n/a
512.9975	0.09	1025995	keystroke_Key.backspace	Key.backspace	n/a
513.1775	0.12	1026355	keystroke_Key.backspace	Key.backspace	n/a
513.433	0.1345	1026866	keystroke_a	a	n/a
513.898	0.1045	1027796	keystroke_r	r	n/a
514.0475	0.105	1028095	keystroke_o	o	n/a
514.2275	0.12	1028455	keystroke_n	n	n/a
514.3615	0.0905	1028723	keystroke_Key.space	Key.space	n/a
514.617	0.09	1029234	keystroke_m	m	n/a
514.782	0.06	1029564	keystroke_e	e	n/a
514.992	0.105	1029984	keystroke_t	t	n/a
515.157	0.1645	1030314	keystroke_e	e	n/a
515.3675	0.12	1030735	keystroke_r	r	n/a
516.417	0.1355	1032834	keystroke_Key.space	Key.space	n/a
516.718	0.1345	1033436	keystroke_f	f	n/a
516.868	0.104	1033736	keystroke_o	o	n/a
517.002	0.1805	1034004	keystroke_r	r	n/a
517.137	0.256	1034274	keystroke_e	e	n/a
517.2725	0.2105	1034545	keystroke_s	s	n/a
517.872	0.12	1035744	keystroke_t	t	n/a
518.0675	0.21	1036135	keystroke_s	s	n/a
518.3225	0.12	1036645	keystroke_Key.space	Key.space	n/a
518.9075	0.0755	1037815	keystroke_r	r	n/a
519.012	0.1045	1038024	keystroke_o	o	n/a
519.1775	0.105	1038355	keystroke_g	g	n/a
519.3575	0.1955	1038715	keystroke_e	e	n/a
519.4925	0.1955	1038985	keystroke_r	r	n/a
519.717	0.181	1039434	keystroke_s	s	n/a
519.8825	0.104	1039765	keystroke_Key.enter	Key.enter	n/a
519.993	7.991	1039986	prompt	n/a	reed hundreds nylon exotic\n
520.7525	0.12	1041505	keystroke_r	r	n/a
520.8865	0.106	1041773	keystroke_e	e	n/a
521.1425	0.1645	1042285	keystroke_e	e	n/a
521.352	0.105	1042704	keystroke_d	d	n/a
521.5175	0.119	1043035	keystroke_Key.space	Key.space	n/a
522.0275	0.1055	1044055	keystroke_h	h	n/a
522.2075	0.1345	1044415	keystroke_u	u	n/a
522.687	0.0905	1045374	keystroke_n	n	n/a
522.8825	0.0905	1045765	keystroke_d	d	n/a
523.212	0.105	1046424	keystroke_r	r	n/a
523.318	0.1945	1046636	keystroke_e	e	n/a
523.5275	0.135	1047055	keystroke_d	d	n/a
523.842	0.1505	1047684	keystroke_s	s	n/a
524.097	0.09	1048194	keystroke_Key.space	Key.space	n/a
524.262	0.106	1048524	keystroke_n	n	n/a
524.577	0.0755	1049154	keystroke_y	y	n/a
524.9975	0.0455	1049995	keystroke_l	l	n/a
525.118	0.1195	1050236	keystroke_o	o	n/a
525.4025	0.1055	1050805	keystroke_n	n	n/a
525.552	0.1055	1051104	keystroke_Key.space	Key.space	n/a
525.732	0.1045	1051464	keystroke_e	e	n/a
526.1825	0.105	1052365	keystroke_x	x	n/a
526.3625	0.1345	1052725	keystroke_o	o	n/a
526.5275	0.1045	1053055	keystroke_t	t	n/a
526.707	0.12	1053414	keystroke_i	i	n/a
527.5775	0.0895	1055155	keystroke_c	c	n/a
527.8775	0.105	1055755	keystroke_Key.enter	Key.enter	n/a
527.9945	9.1545	1055989	prompt	n/a	profiles catalogue established bang\n
528.822	0.09	1057644	keystroke_p	p	n/a
528.973	0.0895	1057946	keystroke_r	r	n/a
529.168	0.1045	1058336	keystroke_o	o	n/a
529.3325	0.09	1058665	keystroke_f	f	n/a
529.4825	0.105	1058965	keystroke_i	i	n/a
529.708	0.1195	1059416	keystroke_l	l	n/a
529.8725	0.255	1059745	keystroke_e	e	n/a
530.0675	0.135	1060135	keystroke_s	s	n/a
530.2625	0.105	1060525	keystroke_Key.space	Key.space	n/a
530.457	0.15	1060914	keystroke_c	c	n/a
530.697	0.15	1061394	keystroke_a	a	n/a
530.922	0.1205	1061844	keystroke_t	t	n/a
531.117	0.18	1062234	keystroke_a	a	n/a
531.717	0.105	1063434	keystroke_l	l	n/a
531.9875	0.12	1063975	keystroke_o	o	n/a
532.4075	0.1205	1064815	keystroke_g	g	n/a
532.6925	0.12	1065385	keystroke_u	u	n/a
532.8725	0.1195	1065745	keystroke_e	e	n/a
533.0965	0.106	1066193	keystroke_Key.space	Key.space	n/a
533.2475	0.1205	1066495	keystroke_e	e	n/a
533.473	0.1495	1066946	keystroke_s	s	n/a
533.8035	0.119	1067607	keystroke_t	t	n/a
533.9825	0.1645	1067965	keystroke_a	a	n/a
534.313	0.09	1068626	keystroke_b	b	n/a
534.552	0.135	1069104	keystroke_l	l	n/a
534.7775	0.1195	1069555	keystroke_i	i	n/a
534.987	0.121	1069974	keystroke_s	s	n/a
535.123	0.09	1070246	keystroke_h	h	n/a
535.2575	0.1945	1070515	keystroke_e	e	n/a
535.422	0.1055	1070844	keystroke_d	d	n/a
535.587	0.0755	1071174	keystroke_Key.space	Key.space	n/a
535.7975	0.105	1071595	keystroke_b	b	n/a
535.9175	0.1645	1071835	keystroke_a	a	n/a
536.1425	0.105	1072285	keystroke_n	n	n/a
536.8475	0.09	1073695	keystroke_g	g	n/a
537.057	0.09	1074114	keystroke_Key.enter	Key.enter	n/a
537.154	12.73	1074308	prompt	n/a	ocean jurisdiction investor americans\n
539.4	0	1078800	keystroke_o	o	n/a
539.607	0.075	1079214	keystroke_c	c	n/a
539.952	0.2105	1079904	keystroke_e	e	n/a
540.1025	0.165	1080205	keystroke_a	a	n/a
540.2975	0.105	1080595	keystroke_n	n	n/a
540.522	0.09	1081044	keystroke_Key.space	Key.space	n/a
540.942	0.105	1081884	keystroke_j	j	n/a
541.2275	0.0755	1082455	keystroke_u	u	n/a
541.4225	0.075	1082845	keystroke_r	r	n/a
542.0675	0.075	1084135	keystroke_i	i	n/a
542.1575	0.12	1084315	keystroke_s	s	n/a
542.908	0.089	1085816	keystroke_d	d	n/a
543.327	0.105	1086654	keystroke_i	i	n/a
543.792	0.0905	1087584	keystroke_c	c	n/a
544.0775	0.1195	1088155	keystroke_t	t	n/a
544.167	0.106	1088334	keystroke_i	i	n/a
544.3175	0.09	1088635	keystroke_o	o	n/a
544.498	0.09	1088996	keystroke_n	n	n/a
544.603	0.089	1089206	keystroke_Key.space	Key.space	n/a
544.7525	0.075	1089505	keystroke_i	i	n/a
544.963	0.09	1089926	keystroke_n	n	n/a
545.413	0.089	1090826	keystroke_v	v	n/a
545.5475	0.1345	1091095	keystroke_e	e	n/a
545.9525	0.09	1091905	keystroke_t	t	n/a
546.447	0.09	1092894	keystroke_Key.backspace	Key.backspace	n/a
546.582	0.1345	1093164	keystroke_s	s	n/a
546.8665	0.1215	1093733	keystroke_t	t	n/a
547.018	0.09	1094036	keystroke_o	o	n/a
547.2575	0.105	1094515	keystroke_r	r	n/a
547.632	0.1205	1095264	keystroke_Key.space	Key.space	n/a
547.9325	0.1345	1095865	keystroke_a	a	n/a
548.0975	0.12	1096195	keystroke_m	m	n/a
548.233	0.179	1096466	keystroke_e	e	n/a
548.3525	0.1045	1096705	keystroke_r	r	n/a
548.4875	0.105	1096975	keystroke_i	i	n/a
549.2375	0.105	1098475	keystroke_c	c	n/a
549.3725	0.1195	1098745	keystroke_a	a	n/a
549.448	0.104	1098896	keystroke_n	n	n/a
549.582	0.136	1099164	keystroke_s	s	n/a
549.762	0.1205	1099524	keystroke_Key.enter	Key.enter	n/a
549.8885	19.435	1099777	prompt	n/a	milan northern medications accompanied\n
550.588	0.089	1101176	keystroke_m	m	n/a
550.827	0.0755	1101654	keystroke_i	i	n/a
551.0375	0.09	1102075	keystroke_l	l	n/a
551.3225	0.1055	1102645	keystroke_a	a	n/a
551.637	0.105	1103274	keystroke_n	n	n/a
551.847	0.075	1103694	keystroke_Key.space	Key.space	n/a
552.058	0.059	1104116	keystroke_n	n	n/a
552.237	0.1055	1104474	keystroke_o	o	n/a
552.552	0.1205	1105104	keystroke_t	t	n/a
552.8525	0.0145	1105705	keystroke_h	h	n/a
552.8825	0.1645	1105765	keystroke_e	e	n/a
553.017	0.1355	1106034	keystroke_r	r	n/a
553.2425	0.12	1106485	keystroke_n	n	n/a
553.4525	0.104	1106905	keystroke_Key.space	Key.space	n/a
554.2775	0.12	1108555	keystroke_m	m	n/a
554.967	0.075	1109934	keystroke_d	d	n/a
555.372	0.1045	1110744	keystroke_Key.backspace	Key.backspace	n/a
555.5225	0.15	1111045	keystroke_e	e	n/a
556.0025	0.0895	1112005	keystroke_d	d	n/a
556.167	0.09	1112334	keystroke_i	i	n/a
559.363	0.029	1118726	keystroke_Key.backspace	Key.backspace	n/a
559.467	0.06	1118934	keystroke_Key.backspace	Key.backspace	n/a
559.617	0.06	1119234	keystroke_Key.backspace	Key.backspace	n/a
559.782	0.075	1119564	keystroke_Key.backspace	Key.backspace	n/a
559.9475	0.0595	1119895	keystroke_Key.backspace	Key.backspace	n/a
560.0815	0.091	1120163	keystroke_Key.backspace	Key.backspace	n/a
560.367	0.015	1120734	keystroke_Key.backspace	Key.backspace	n/a
560.457	0.091	1120914	keystroke_Key.backspace	Key.backspace	n/a
560.652	0.09	1121304	keystroke_Key.backspace	Key.backspace	n/a
560.982	0.1055	1121964	keystroke_Key.backspace	Key.backspace	n/a
561.6425	0.09	1123285	keystroke_r	r	n/a
561.8675	0.075	1123735	keystroke_t	t	n/a
561.9725	0.075	1123945	keystroke_h	h	n/a
562.0925	0.195	1124185	keystroke_e	e	n/a
562.2275	0.12	1124455	keystroke_r	r	n/a
562.363	0.0895	1124726	keystroke_n	n	n/a
562.4975	0.12	1124995	keystroke_Key.space	Key.space	n/a
564.0725	0.105	1128145	keystroke_m	m	n/a
564.208	0.165	1128416	keystroke_e	e	n/a
564.403	0.0885	1128806	keystroke_d	d	n/a
564.5965	0.076	1129193	keystroke_i	i	n/a
564.882	0.1345	1129764	keystroke_c	c	n/a
565.078	0.1645	1130156	keystroke_a	a	n/a
565.3175	0.105	1130635	keystroke_t	t	n/a
565.438	0.1045	1130876	keystroke_i	i	n/a
565.5875	0.105	1131175	keystroke_o	o	n/a
565.828	0.0595	1131656	keystroke_n	n	n/a
565.9325	0.12	1131865	keystroke_s	s	n/a
566.0675	0.105	1132135	keystroke_Key.space	Key.space	n/a
566.263	0.1195	1132526	keystroke_a	a	n/a
566.5615	0.106	1133123	keystroke_c	c	n/a
566.7875	0.12	1133575	keystroke_c	c	n/a
566.9815	0.091	1133963	keystroke_o	o	n/a
567.927	0.0905	1135854	keystroke_m	m	n/a
568.2275	0.105	1136455	keystroke_p	p	n/a
568.3475	0.165	1136695	keystroke_a	a	n/a
568.5275	0.09	1137055	keystroke_n	n	n/a
568.7225	0.09	1137445	keystroke_i	i	n/a
568.8275	0.21	1137655	keystroke_e	e	n/a
569.0525	0.09	1138105	keystroke_d	d	n/a
569.2025	0.12	1138405	keystroke_Key.enter	Key.enter	n/a
569.326	8.623	1138652	prompt	n/a	hitachi trades thriller interaction\n
570.2225	0.075	1140445	keystroke_h	h	n/a
570.3575	0.105	1140715	keystroke_i	i	n/a
570.463	0.105	1140926	keystroke_t	t	n/a
570.6275	0.18	1141255	keystroke_a	a	n/a
570.9425	0.09	1141885	keystroke_c	c	n/a
571.1075	0.105	1142215	keystroke_h	h	n/a
571.333	0.089	1142666	keystroke_i	i	n/a
571.4365	0.135	1142873	keystroke_Key.space	Key.space	n/a
571.6325	0.165	1143265	keystroke_t	t	n/a
571.872	0.1355	1143744	keystroke_r	r	n/a
572.1125	0.18	1144225	keystroke_a	a	n/a
572.4275	0.18	1144855	keystroke_d	d	n/a
572.592	0.21	1145184	keystroke_e	e	n/a
572.772	0.1655	1145544	keystroke_s	s	n/a
573.222	0.1205	1146444	keystroke_Key.space	Key.space	n/a
573.5525	0.105	1147105	keystroke_t	t	n/a
573.6875	0.105	1147375	keystroke_h	h	n/a
573.8525	0.105	1147705	keystroke_r	r	n/a
574.002	0.12	1148004	keystroke_i	i	n/a
574.243	0.074	1148486	keystroke_l	l	n/a
574.422	0.1055	1148844	keystroke_l	l	n/a
574.498	0.224	1148996	keystroke_e	e	n/a
574.6775	0.1045	1149355	keystroke_r	r	n/a
574.8125	0.09	1149625	keystroke_Key.space	Key.space	n/a
574.9925	0.06	1149985	keystroke_i	i	n/a
575.1575	0.1045	1150315	keystroke_n	n	n/a
575.2775	0.1195	1150555	keystroke_t	t	n/a
575.4875	0.225	1150975	keystroke_e	e	n/a
575.6675	0.18	1151335	keystroke_r	r	n/a
575.923	0.1945	1151846	keystroke_a	a	n/a
576.147	0.09	1152294	keystroke_t	t	n/a
576.298	0.119	1152596	keystroke_i	i	n/a
576.522	0.0755	1153044	keystroke_o	o	n/a
577.557	0.0745	1155114	keystroke_n	n	n/a
577.8575	0.089	1155715	keystroke_Key.enter	Key.enter	n/a
577.9535	7.1505	1155907	prompt	n/a	return country webcam whatever\n
578.8465	0.136	1157693	keystroke_r	r	n/a
578.9825	0.1345	1157965	keystroke_e	e	n/a
579.2075	0.075	1158415	keystroke_t	t	n/a
579.418	0.1045	1158836	keystroke_u	u	n/a
579.597	0.09	1159194	keystroke_r	r	n/a
579.717	0.12	1159434	keystroke_n	n	n/a
579.882	0.12	1159764	keystroke_Key.space	Key.space	n/a
580.122	0.105	1160244	keystroke_c	c	n/a
580.242	0.105	1160484	keystroke_o	o	n/a
580.422	0.075	1160844	keystroke_u	u	n/a
580.587	0.1055	1161174	keystroke_n	n	n/a
580.842	0.1805	1161684	keystroke_t	t	n/a
580.992	0.12	1161984	keystroke_r	r	n/a
581.097	0.105	1162194	keystroke_y	y	n/a
581.352	0.0905	1162704	keystroke_Key.space	Key.space	n/a
581.607	0.1655	1163214	keystroke_w	w	n/a
581.7575	0.105	1163515	keystroke_e	e	n/a
582.0425	0.015	1164085	keystroke_b	b	n/a
582.1775	0.09	1164355	keystroke_s	s	n/a
582.8075	0.105	1165615	keystroke_Key.backspace	Key.backspace	n/a
582.9275	0.135	1165855	keystroke_c	c	n/a
583.1075	0.12	1166215	keystroke_a	a	n/a
583.302	0.12	1166604	keystroke_m	m	n/a
583.497	0.09	1166994	keystroke_Key.space	Key.space	n/a
583.797	0.136	1167594	keystroke_w	w	n/a
583.933	0.09	1167866	keystroke_h	h	n/a
584.0375	0.165	1168075	keystroke_a	a	n/a
584.2475	0.09	1168495	keystroke_t	t	n/a
584.4425	0.1195	1168885	keystroke_e	e	n/a
584.607	0.1055	1169214	keystroke_v	v	n/a
584.697	0.1655	1169394	keystroke_e	e	n/a
584.8175	0.1345	1169635	keystroke_r	r	n/a
584.9975	0.105	1169995	keystroke_Key.enter	Key.enter	n/a
585.108	6.6405	1170216	prompt	n/a	submit issn mason fellow\n
586.122	0.1355	1172244	keystroke_s	s	n/a
586.4225	0.105	1172845	keystroke_u	u	n/a
586.738	0.06	1173476	keystroke_b	b	n/a
586.963	0.1045	1173926	keystroke_m	m	n/a
587.218	0.1195	1174436	keystroke_i	i	n/a
587.907	0.105	1175814	keystroke_t	t	n/a
588.2225	0.105	1176445	keystroke_Key.space	Key.space	n/a
588.448	0.089	1176896	keystroke_i	i	n/a
588.612	0.105	1177224	keystroke_s	s	n/a
588.837	0.1355	1177674	keystroke_s	s	n/a
589.003	0.1345	1178006	keystroke_n	n	n/a
589.2275	0.0895	1178455	keystroke_Key.space	Key.space	n/a
589.4075	0.12	1178815	keystroke_m	m	n/a
589.5425	0.255	1179085	keystroke_a	a	n/a
589.7825	0.135	1179565	keystroke_s	s	n/a
589.9475	0.12	1179895	keystroke_o	o	n/a
590.2025	0.105	1180405	keystroke_n	n	n/a
590.3525	0.135	1180705	keystroke_Key.space	Key.space	n/a
590.5475	0.15	1181095	keystroke_f	f	n/a
590.7575	0.09	1181515	keystroke_e	e	n/a
590.9525	0.075	1181905	keystroke_l	l	n/a
591.087	0.09	1182174	keystroke_l	l	n/a
591.297	0.0905	1182594	keystroke_o	o	n/a
591.432	0.09	1182864	keystroke_w	w	n/a
591.6565	0.0905	1183313	keystroke_Key.enter	Key.enter	n/a
591.751	9.073	1183502	prompt	n/a	learn immigrants human pursuit\n
592.633	0.105	1185266	keystroke_l	l	n/a
592.8125	0.164	1185625	keystroke_e	e	n/a
592.9925	0.225	1185985	keystroke_a	a	n/a
593.1875	0.1045	1186375	keystroke_r	r	n/a
593.427	0.1205	1186854	keystroke_n	n	n/a
593.877	0.075	1187754	keystroke_Key.space	Key.space	n/a
594.1025	0.09	1188205	keystroke_i	i	n/a
594.3275	0.0605	1188655	keystroke_m	m	n/a
594.4615	0.09	1188923	keystroke_m	m	n/a
594.6875	0.0905	1189375	keystroke_i	i	n/a
594.9575	0.09	1189915	keystroke_g	g	n/a
595.1975	0.1195	1190395	keystroke_r	r	n/a
595.482	0.165	1190964	keystroke_a	a	n/a
595.8125	0.1205	1191625	keystroke_n	n	n/a
595.9625	0.09	1191925	keystroke_t	t	n/a
596.2025	0.09	1192405	keystroke_s	s	n/a
596.3525	0.075	1192705	keystroke_Key.space	Key.space	n/a
596.5925	0.105	1193185	keystroke_h	h	n/a
596.7875	0.09	1193575	keystroke_u	u	n/a
597.0575	0.075	1194115	keystroke_m	m	n/a
597.1925	0.15	1194385	keystroke_a	a	n/a
597.3275	0.1045	1194655	keystroke_n	n	n/a
597.507	0.0905	1195014	keystroke_Key.space	Key.space	n/a
597.7175	0.1045	1195435	keystroke_p	p	n/a
597.898	0.074	1195796	keystroke_r	r	n/a
598.3475	0.0745	1196695	keystroke_Key.backspace	Key.backspace	n/a
598.693	0.0895	1197386	keystroke_u	u	n/a
599.1425	0.135	1198285	keystroke_r	r	n/a
599.6075	0.135	1199215	keystroke_s	s	n/a
599.8325	0.09	1199665	keystroke_u	u	n/a
600.1925	0.1355	1200385	keystroke_i	i	n/a
600.417	0.121	1200834	keystroke_t	t	n/a
600.7175	0.105	1201435	keystroke_Key.enter	Key.enter	n/a
600.828	9.491	1201656	prompt	n/a	louis extent nightmare other\n
601.5275	0.075	1203055	keystroke_l	l	n/a
601.7375	0.12	1203475	keystroke_o	o	n/a
602.607	0.0305	1205214	keystroke_i	i	n/a
603.1925	0.105	1206385	keystroke_Key.backspace	Key.backspace	n/a
603.5525	0.105	1207105	keystroke_u	u	n/a
603.7175	0.1205	1207435	keystroke_i	i	n/a
604.2425	0.135	1208485	keystroke_s	s	n/a
604.4075	0.104	1208815	keystroke_Key.space	Key.space	n/a
604.5565	0.106	1209113	keystroke_e	e	n/a
605.1875	0.135	1210375	keystroke_x	x	n/a
605.742	0.12	1211484	keystroke_t	t	n/a
605.952	0.075	1211904	keystroke_e	e	n/a
606.057	0.135	1212114	keystroke_n	n	n/a
606.2225	0.12	1212445	keystroke_t	t	n/a
606.4325	0.1045	1212865	keystroke_Key.space	Key.space	n/a
607.272	0.12	1214544	keystroke_n	n	n/a
607.572	0.0905	1215144	keystroke_i	i	n/a
607.722	0.0905	1215444	keystroke_g	g	n/a
607.842	0.106	1215684	keystroke_h	h	n/a
608.0225	0.0895	1216045	keystroke_t	t	n/a
608.3225	0.1045	1216645	keystroke_m	m	n/a
608.442	0.1805	1216884	keystroke_a	a	n/a
608.638	0.149	1217276	keystroke_r	r	n/a
608.757	0.1805	1217514	keystroke_e	e	n/a
608.9975	0.1045	1217995	keystroke_Key.space	Key.space	n/a
609.538	0.074	1219076	keystroke_o	o	n/a
609.642	0.1055	1219284	keystroke_t	t	n/a
609.792	0.1205	1219584	keystroke_h	h	n/a
609.913	0.1795	1219826	keystroke_e	e	n/a
610.062	0.1205	1220124	keystroke_r	r	n/a
610.2125	0.105	1220425	keystroke_Key.enter	Key.enter	n/a
610.3235	8.455	1220647	prompt	n/a	guess clinics exists example\n
611.1875	0.075	1222375	keystroke_g	g	n/a
611.353	0.1045	1222706	keystroke_u	u	n/a
611.5025	0.135	1223005	keystroke_e	e	n/a
611.7125	0.09	1223425	keystroke_s	s	n/a
611.907	0.091	1223814	keystroke_s	s	n/a
612.1025	0.075	1224205	keystroke_Key.space	Key.space	n/a
612.417	0.15	1224834	keystroke_c	c	n/a
612.612	0.075	1225224	keystroke_l	l	n/a
612.8075	0.0895	1225615	keystroke_i	i	n/a
613.032	0.0755	1226064	keystroke_n	n	n/a
613.1825	0.1205	1226365	keystroke_i	i	n/a
613.288	0.1345	1226576	keystroke_c	c	n/a
613.497	0.1505	1226994	keystroke_s	s	n/a
613.677	0.105	1227354	keystroke_Key.space	Key.space	n/a
613.812	0.12	1227624	keystroke_e	e	n/a
614.3815	0.061	1228763	keystroke_x	x	n/a
614.6975	0.075	1229395	keystroke_i	i	n/a
614.892	0.12	1229784	keystroke_s	s	n/a
615.297	0.1345	1230594	keystroke_y	y	n/a
615.5365	0.091	1231073	keystroke_s	s	n/a
615.852	0.0755	1231704	keystroke_Key.backspace	Key.backspace	n/a
616.017	0.06	1232034	keystroke_Key.backspace	Key.backspace	n/a
616.5275	0.0895	1233055	keystroke_t	t	n/a
616.6925	0.15	1233385	keystroke_s	s	n/a
616.8575	0.119	1233715	keystroke_Key.space	Key.space	n/a
617.1875	0.089	1234375	keystroke_e	e	n/a
617.4725	0.1345	1234945	keystroke_x	x	n/a
617.742	0.135	1235484	keystroke_a	a	n/a
617.892	0.076	1235784	keystroke_m	m	n/a
618.057	0.0755	1236114	keystroke_p	p	n/a
618.297	0.121	1236594	keystroke_l	l	n/a
618.418	0.1045	1236836	keystroke_e	e	n/a
618.6865	0.09	1237373	keystroke_Key.enter	Key.enter	n/a
618.785	7.6295	1237570	prompt	n/a	incredible tunnel amateur needed\n
619.4675	0.045	1238935	keystroke_i	i	n/a
619.6175	0.09	1239235	keystroke_n	n	n/a
619.7225	0.06	1239445	keystroke_c	c	n/a
619.9625	0.12	1239925	keystroke_r	r	n/a
620.0525	0.1945	1240105	keystroke_e	e	n/a
620.277	0.091	1240554	keystroke_d	d	n/a
620.4125	0.09	1240825	keystroke_i	i	n/a
620.6075	0.06	1241215	keystroke_b	b	n/a
620.803	0.119	1241606	keystroke_l	l	n/a
620.9375	0.105	1241875	keystroke_e	e	n/a
621.0725	0.0745	1242145	keystroke_Key.space	Key.space	n/a
621.402	0.0905	1242804	keystroke_t	t	n/a
621.5525	0.0755	1243105	keystroke_u	u	n/a
621.7925	0.075	1243585	keystroke_n	n	n/a
621.9575	0.0605	1243915	keystroke_n	n	n/a
622.0315	0.2105	1244063	keystroke_e	e	n/a
622.212	0.0455	1244424	keystroke_r	r	n/a
622.227	0.1205	1244454	keystroke_l	l	n/a
622.392	0.1055	1244784	keystroke_Key.space	Key.space	n/a
622.542	0.1355	1245084	keystroke_a	a	n/a
622.647	0.09	1245294	keystroke_m	m	n/a
622.752	0.135	1245504	keystroke_a	a	n/a
623.0525	0.09	1246105	keystroke_t	t	n/a
624.148	0.134	1248296	keystroke_e	e	n/a
624.372	0.0755	1248744	keystroke_u	u	n/a
624.507	0.0905	1249014	keystroke_r	r	n/a
626.3365	0.076	1252673	keystroke_Key.enter	Key.enter	n/a
626.4195	0.189	1252839	prompt	n/a	creates strategies velvet acquisition\n
626.5165	0.0905	1253033	keystroke_Key.enter	Key.enter	n/a
626.6125	18.1175	1253225	prompt	n/a	investors murray cherry britannica\n
629.7585	0.014	1259517	keystroke_i	i	n/a
630.042	0.0755	1260084	keystroke_n	n	n/a
630.3125	0.06	1260625	keystroke_v	v	n/a
630.4325	0.105	1260865	keystroke_e	e	n/a
630.6575	0.1205	1261315	keystroke_s	s	n/a
630.7475	0.105	1261495	keystroke_t	t	n/a
631.1525	0.1045	1262305	keystroke_o	o	n/a
631.3325	0.1205	1262665	keystroke_r	r	n/a
631.5275	0.12	1263055	keystroke_s	s	n/a
631.7965	0.105	1263593	keystroke_Key.space	Key.space	n/a
634.125	0.027	1268250	keystroke_n	n	n/a
634.287	0.0755	1268574	keystroke_u	u	n/a
634.4375	0.0895	1268875	keystroke_r	r	n/a
634.6775	0.0595	1269355	keystroke_r	r	n/a
635.262	0.1805	1270524	keystroke_Key.backspace	Key.backspace	n/a
635.4725	0.09	1270945	keystroke_Key.backspace	Key.backspace	n/a
635.6375	0.09	1271275	keystroke_Key.backspace	Key.backspace	n/a
636.687	0.105	1273374	keystroke_Key.backspace	Key.backspace	n/a
637.0475	0.09	1274095	keystroke_m	m	n/a
637.3025	0.0745	1274605	keystroke_u	u	n/a
637.467	0.0605	1274934	keystroke_r	r	n/a
637.6765	0.091	1275353	keystroke_r	r	n/a
638.3825	0.135	1276765	keystroke_a	a	n/a
638.562	0.09	1277124	keystroke_y	y	n/a
638.727	0.105	1277454	keystroke_Key.space	Key.space	n/a
638.952	0.12	1277904	keystroke_c	c	n/a
639.147	0.09	1278294	keystroke_h	h	n/a
639.2825	0.195	1278565	keystroke_e	e	n/a
639.492	0.06	1278984	keystroke_r	r	n/a
639.672	0.1055	1279344	keystroke_r	r	n/a
639.822	0.09	1279644	keystroke_y	y	n/a
640.017	0.0745	1280034	keystroke_Key.space	Key.space	n/a
640.362	0.105	1280724	keystroke_b	b	n/a
640.5425	0.105	1281085	keystroke_r	r	n/a
641.5325	0.03	1283065	keystroke_i	i	n/a
642.6125	0.1345	1285225	keystroke_t	t	n/a
643.1225	0.105	1286245	keystroke_a	a	n/a
643.362	0.0455	1286724	keystroke_n	n	n/a
643.5125	0.075	1287025	keystroke_n	n	n/a
643.7225	0.089	1287445	keystroke_i	i	n/a
643.9475	0.135	1287895	keystroke_c	c	n/a
644.202	0.15	1288404	keystroke_a	a	n/a
644.6225	0.1045	1289245	keystroke_Key.enter	Key.enter	n/a
644.7345	11.3795	1289469	prompt	n/a	directories minute he've brunette\n
646.288	0.074	1292576	keystroke_d	d	n/a
646.407	0.12	1292814	keystroke_i	i	n/a
646.557	0.135	1293114	keystroke_r	r	n/a
646.708	0.104	1293416	keystroke_e	e	n/a
646.933	0.209	1293866	keystroke_c	c	n/a
647.398	0.1195	1294796	keystroke_t	t	n/a
647.5775	0.12	1295155	keystroke_o	o	n/a
647.7425	0.1195	1295485	keystroke_r	r	n/a
647.9225	0.09	1295845	keystroke_i	i	n/a
648.0725	0.2395	1296145	keystroke_e	e	n/a
648.282	0.1955	1296564	keystroke_s	s	n/a
648.5675	0.12	1297135	keystroke_Key.space	Key.space	n/a
649.092	0.105	1298184	keystroke_i	i	n/a
649.947	0.09	1299894	keystroke_Key.backspace	Key.backspace	n/a
650.3225	0.075	1300645	keystroke_m	m	n/a
650.5325	0.09	1301065	keystroke_i	i	n/a
650.712	0.09	1301424	keystroke_n	n	n/a
651.342	0.06	1302684	keystroke_u	u	n/a
651.9125	0.0595	1303825	keystroke_t	t	n/a
