onset	duration	sample	value	key	prompt_text
8.859	12.1	17718	prompt	n/a	the quick brown fox jumps over a lazy dog\n
10.2935	0	20587	keystroke_t	t	n/a
10.366	0.045	20732	keystroke_h	h	n/a
10.486	0.06	20972	keystroke_e	e	n/a
10.606	0.075	21212	keystroke_Key.space	Key.space	n/a
11.026	0.06	22052	keystroke_q	q	n/a
11.176	0.045	22352	keystroke_u	u	n/a
11.356	0.045	22712	keystroke_i	i	n/a
11.431	0.06	22862	keystroke_c	c	n/a
11.701	0.06	23402	keystroke_k	k	n/a
11.911	0.06	23822	keystroke_Key.space	Key.space	n/a
12.166	0.045	24332	keystroke_b	b	n/a
12.316	0.0605	24632	keystroke_r	r	n/a
12.4515	0.09	24903	keystroke_o	o	n/a
12.7065	0.0755	25413	keystroke_w	w	n/a
12.857	0.059	25714	keystroke_n	n	n/a
13.036	0.06	26072	keystroke_Key.space	Key.space	n/a
13.171	0.06	26342	keystroke_f	f	n/a
13.261	0.09	26522	keystroke_o	o	n/a
13.966	0.09	27932	keystroke_x	x	n/a
14.311	0.075	28622	keystroke_Key.space	Key.space	n/a
15.137	0.045	30274	keystroke_j	j	n/a
15.316	0.045	30632	keystroke_u	u	n/a
15.556	0.06	31112	keystroke_m	m	n/a
15.766	0.0605	31532	keystroke_p	p	n/a
15.901	0.09	31802	keystroke_s	s	n/a
16.6065	0.075	33213	keystroke_Key.space	Key.space	n/a
17.1465	0.0595	34293	keystroke_o	o	n/a
17.312	0.044	34624	keystroke_v	v	n/a
17.507	0.135	35014	keystroke_e	e	n/a
17.566	0.091	35132	keystroke_r	r	n/a
17.671	0.076	35342	keystroke_Key.space	Key.space	n/a
17.837	0.06	35674	keystroke_a	a	n/a
17.911	0.076	35822	keystroke_Key.space	Key.space	n/a
18.406	0.09	36812	keystroke_l	l	n/a
18.511	0.075	37022	keystroke_a	a	n/a
18.662	0.089	37324	keystroke_z	z	n/a
18.991	0.06	37982	keystroke_y	y	n/a
19.081	0.075	38162	keystroke_Key.space	Key.space	n/a
19.8015	0.06	39603	keystroke_d	d	n/a
19.9065	0.075	39813	keystroke_o	o	n/a
20.236	0.0605	40472	keystroke_g	g	n/a
20.896	0.06	41792	keystroke_Key.enter	Key.enter	n/a
20.964	7.9295	41928	prompt	n/a	blade approval grip pray\n
22.021	0.06	44042	keystroke_b	b	n/a
22.261	0.105	44522	keystroke_l	l	n/a
22.456	0.075	44912	keystroke_a	a	n/a
22.636	0.045	45272	keystroke_d	d	n/a
22.786	0.06	45572	keystroke_e	e	n/a
22.876	0.075	45752	keystroke_Key.space	Key.space	n/a
23.011	0.075	46022	keystroke_a	a	n/a
23.176	0.045	46352	keystroke_p	p	n/a
23.296	0.09	46592	keystroke_p	p	n/a
23.6565	0.06	47313	keystroke_r	r	n/a
23.7765	0.0895	47553	keystroke_o	o	n/a
23.9715	0.045	47943	keystroke_v	v	n/a
24.571	0.135	49142	keystroke_a	a	n/a
24.722	0.044	49444	keystroke_l	l	n/a
24.946	0.06	49892	keystroke_Key.space	Key.space	n/a
26.1915	0.1345	52383	keystroke_g	g	n/a
26.386	0.045	52772	keystroke_r	r	n/a
26.551	0.105	53102	keystroke_i	i	n/a
26.641	0.105	53282	keystroke_p	p	n/a
26.866	0.0605	53732	keystroke_Key.space	Key.space	n/a
27.0615	0.09	54123	keystroke_p	p	n/a
27.2115	0.075	54423	keystroke_r	r	n/a
27.4965	0.09	54993	keystroke_a	a	n/a
27.826	0.09	55652	keystroke_y	y	n/a
28.8165	0.0745	57633	keystroke_Key.enter	Key.enter	n/a
28.8995	8.0035	57799	prompt	n/a	flux alternatively illness admission\n
29.866	0.046	59732	keystroke_f	f	n/a
30.001	0.105	60002	keystroke_l	l	n/a
30.241	0.075	60482	keystroke_u	u	n/a
30.466	0.0755	60932	keystroke_x	x	n/a
30.5865	0.06	61173	keystroke_Key.space	Key.space	n/a
30.7665	0.09	61533	keystroke_a	a	n/a
30.9465	0.075	61893	keystroke_l	l	n/a
31.2915	0.06	62583	keystroke_t	t	n/a
31.4565	0.12	62913	keystroke_e	e	n/a
31.5315	0.09	63063	keystroke_r	r	n/a
31.6965	0.075	63393	keystroke_n	n	n/a
31.8465	0.03	63693	keystroke_a	a	n/a
32.0265	0.06	64053	keystroke_t	t	n/a
32.1315	0.09	64263	keystroke_i	i	n/a
32.2515	0.105	64503	keystroke_v	v	n/a
32.3565	0.09	64713	keystroke_e	e	n/a
32.4615	0.12	64923	keystroke_l	l	n/a
32.6115	0.06	65223	keystroke_y	y	n/a
32.7315	0.09	65463	keystroke_Key.space	Key.space	n/a
33.7065	0.075	67413	keystroke_i	i	n/a
33.9465	0.045	67893	keystroke_l	l	n/a
34.0665	0.09	68133	keystroke_l	l	n/a
34.2765	0.075	68553	keystroke_n	n	n/a
34.3815	0.075	68763	keystroke_e	e	n/a
34.591	0.03	69182	keystroke_s	s	n/a
34.696	0.0755	69392	keystroke_s	s	n/a
34.7865	0.075	69573	keystroke_Key.space	Key.space	n/a
35.0565	0.09	70113	keystroke_a	a	n/a
35.3415	0.045	70683	keystroke_d	d	n/a
35.506	0.075	71012	keystroke_m	m	n/a
35.641	0.09	71282	keystroke_i	i	n/a
35.791	0.06	71582	keystroke_s	s	n/a
35.911	0.09	71822	keystroke_s	s	n/a
36.046	0.12	72092	keystroke_i	i	n/a
36.106	0.12	72212	keystroke_o	o	n/a
36.286	0.075	72572	keystroke_n	n	n/a
36.841	0.06	73682	keystroke_Key.enter	Key.enter	n/a
36.9065	6.9865	73813	prompt	n/a	loving vision instrument bunny\n
37.576	0.09	75152	keystroke_l	l	n/a
37.786	0.06	75572	keystroke_o	o	n/a
37.936	0.06	75872	keystroke_v	v	n/a
38.041	0.15	76082	keystroke_i	i	n/a
38.116	0.09	76232	keystroke_n	n	n/a
38.251	0.045	76502	keystroke_g	g	n/a
38.326	0.105	76652	keystroke_Key.space	Key.space	n/a
38.8965	0.03	77793	keystroke_v	v	n/a
39.0465	0.075	78093	keystroke_i	i	n/a
39.1665	0.06	78333	keystroke_s	s	n/a
39.2715	0.12	78543	keystroke_i	i	n/a
39.3615	0.09	78723	keystroke_o	o	n/a
39.5415	0.06	79083	keystroke_n	n	n/a
39.7215	0.075	79443	keystroke_Key.space	Key.space	n/a
40.082	0.12	80164	keystroke_i	i	n/a
40.2615	0.09	80523	keystroke_n	n	n/a
40.5915	0.045	81183	keystroke_s	s	n/a
40.7415	0.06	81483	keystroke_t	t	n/a
40.921	0.045	81842	keystroke_r	r	n/a
41.0715	0.0595	82143	keystroke_u	u	n/a
41.2965	0.03	82593	keystroke_m	m	n/a
41.462	0.09	82924	keystroke_e	e	n/a
41.776	0.075	83552	keystroke_n	n	n/a
41.896	0.076	83792	keystroke_t	t	n/a
41.986	0.105	83972	keystroke_Key.space	Key.space	n/a
42.661	0.045	85322	keystroke_b	b	n/a
42.811	0.0755	85622	keystroke_u	u	n/a
43.0515	0.03	86103	keystroke_n	n	n/a
43.2015	0.045	86403	keystroke_n	n	n/a
43.2915	0.09	86583	keystroke_y	y	n/a
43.7865	0.105	87573	keystroke_Key.enter	Key.enter	n/a
43.8965	10.572	87793	prompt	n/a	qualifications should've suddenly isn't\n
44.9115	0.06	89823	keystroke_q	q	n/a
45.2105	0.061	90421	keystroke_u	u	n/a
45.3155	0.061	90631	keystroke_a	a	n/a
45.466	0.075	90932	keystroke_l	l	n/a
45.721	0.06	91442	keystroke_i	i	n/a
45.826	0.075	91652	keystroke_f	f	n/a
45.946	0.12	91892	keystroke_i	i	n/a
46.051	0.075	92102	keystroke_c	c	n/a
46.231	0.06	92462	keystroke_a	a	n/a
46.456	0.06	92912	keystroke_t	t	n/a
46.531	0.105	93062	keystroke_i	i	n/a
46.591	0.09	93182	keystroke_o	o	n/a
46.786	0.06	93572	keystroke_n	n	n/a
46.9065	0.06	93813	keystroke_s	s	n/a
46.9815	0.075	93963	keystroke_Key.space	Key.space	n/a
47.4465	0.06	94893	keystroke_s	s	n/a
47.6265	0.045	95253	keystroke_h	h	n/a
47.7915	0.1195	95583	keystroke_o	o	n/a
47.8665	0.0745	95733	keystroke_u	u	n/a
48.046	0.0755	96092	keystroke_l	l	n/a
48.1815	0.075	96363	keystroke_d	d	n/a
49.8465	0.09	99693	keystroke_'	'	n/a
50.4165	0.075	100833	keystroke_v	v	n/a
50.6115	0.075	101223	keystroke_e	e	n/a
50.7465	0.09	101493	keystroke_Key.space	Key.space	n/a
51.1515	0.045	102303	keystroke_s	s	n/a
51.3315	0.075	102663	keystroke_u	u	n/a
51.7065	0.045	103413	keystroke_d	d	n/a
51.8115	0.06	103623	keystroke_d	d	n/a
51.9915	0.06	103983	keystroke_e	e	n/a
52.0665	0.075	104133	keystroke_n	n	n/a
52.2915	0.09	104583	keystroke_l	l	n/a
52.3965	0.075	104793	keystroke_y	y	n/a
52.5465	0.075	105093	keystroke_Key.space	Key.space	n/a
53.147	0.059	106294	keystroke_i	i	n/a
53.221	0.076	106442	keystroke_s	s	n/a
53.312	0.074	106624	keystroke_n	n	n/a
53.537	0.104	107074	keystroke_'	'	n/a
53.672	0.075	107344	keystroke_t	t	n/a
53.806	0.06	107612	keystroke_Key.space	Key.space	n/a
54.362	0.104	108724	keystroke_Key.enter	Key.enter	n/a
54.4715	9.1175	108943	prompt	n/a	repeated routine counseling conducted\n
55.4115	0.06	110823	keystroke_r	r	n/a
55.5765	0.045	111153	keystroke_e	e	n/a
55.7415	0.075	111483	keystroke_p	p	n/a
55.8765	0.06	111753	keystroke_e	e	n/a
56.0415	0.075	112083	keystroke_a	a	n/a
56.2515	0.09	112503	keystroke_t	t	n/a
56.3265	0.06	112653	keystroke_e	e	n/a
56.5215	0.075	113043	keystroke_d	d	n/a
56.6115	0.06	113223	keystroke_Key.space	Key.space	n/a
57.2265	0.045	114453	keystroke_r	r	n/a
57.4065	0.12	114813	keystroke_o	o	n/a
57.4665	0.105	114933	keystroke_u	u	n/a
57.6465	0.06	115293	keystroke_t	t	n/a
57.8115	0.12	115623	keystroke_i	i	n/a
57.872	0.1045	115744	keystroke_n	n	n/a
58.0665	0.06	116133	keystroke_e	e	n/a
58.1565	0.09	116313	keystroke_Key.space	Key.space	n/a
58.8165	0.06	117633	keystroke_c	c	n/a
58.9965	0.1195	117993	keystroke_o	o	n/a
59.0565	0.0745	118113	keystroke_u	u	n/a
59.266	0.075	118532	keystroke_n	n	n/a
59.537	0.044	119074	keystroke_s	s	n/a
59.701	0.06	119402	keystroke_e	e	n/a
59.926	0.09	119852	keystroke_l	l	n/a
60.196	0.105	120392	keystroke_i	i	n/a
60.271	0.09	120542	keystroke_n	n	n/a
60.406	0.03	120812	keystroke_g	g	n/a
60.4665	0.075	120933	keystroke_Key.space	Key.space	n/a
61.3815	0.075	122763	keystroke_c	c	n/a
61.4715	0.075	122943	keystroke_o	o	n/a
61.6815	0.045	123363	keystroke_n	n	n/a
61.906	0.06	123812	keystroke_d	d	n/a
62.026	0.075	124052	keystroke_u	u	n/a
62.161	0.06	124322	keystroke_c	c	n/a
62.416	0.06	124832	keystroke_t	t	n/a
62.536	0.075	125072	keystroke_e	e	n/a
62.716	0.09	125432	keystroke_d	d	n/a
63.5115	0.075	127023	keystroke_Key.enter	Key.enter	n/a
63.5925	9.4455	127185	prompt	n/a	thorough underground managers metabolism\n
64.5015	0.06	129003	keystroke_t	t	n/a
64.6515	0.075	129303	keystroke_h	h	n/a
64.8915	0.075	129783	keystroke_o	o	n/a
65.506	0.045	131012	keystroke_r	r	n/a
65.686	0.135	131372	keystroke_o	o	n/a
65.761	0.12	131522	keystroke_u	u	n/a
66.076	0.06	132152	keystroke_g	g	n/a
66.196	0.06	132392	keystroke_h	h	n/a
66.421	0.06	132842	keystroke_Key.space	Key.space	n/a
66.886	0.075	133772	keystroke_u	u	n/a
67.096	0.0605	134192	keystroke_n	n	n/a
67.157	0.074	134314	keystroke_d	d	n/a
67.3365	0.12	134673	keystroke_e	e	n/a
67.4415	0.076	134883	keystroke_r	r	n/a
67.6215	0.075	135243	keystroke_g	g	n/a
67.7865	0.075	135573	keystroke_r	r	n/a
68.0415	0.12	136083	keystroke_o	o	n/a
68.1015	0.09	136203	keystroke_u	u	n/a
68.3265	0.075	136653	keystroke_n	n	n/a
68.4765	0.09	136953	keystroke_d	d	n/a
68.5815	0.075	137163	keystroke_Key.space	Key.space	n/a
69.1215	0.06	138243	keystroke_m	m	n/a
69.3015	0.06	138603	keystroke_a	a	n/a
69.4065	0.075	138813	keystroke_n	n	n/a
69.4965	0.09	138993	keystroke_a	a	n/a
69.7215	0.06	139443	keystroke_g	g	n/a
69.8865	0.12	139773	keystroke_e	e	n/a
69.9615	0.09	139923	keystroke_r	r	n/a
70.171	0.075	140342	keystroke_s	s	n/a
70.261	0.075	140522	keystroke_Key.space	Key.space	n/a
70.546	0.045	141092	keystroke_m	m	n/a
70.816	0.0905	141632	keystroke_e	e	n/a
71.0415	0.06	142083	keystroke_t	t	n/a
71.2365	0.045	142473	keystroke_a	a	n/a
71.386	0.061	142772	keystroke_b	b	n/a
71.567	0.105	143134	keystroke_o	o	n/a
71.836	0.12	143672	keystroke_l	l	n/a
72.151	0.105	144302	keystroke_i	i	n/a
72.376	0.075	144752	keystroke_s	s	n/a
72.466	0.105	144932	keystroke_m	m	n/a
72.961	0.075	145922	keystroke_Key.enter	Key.enter	n/a
73.044	7.524	146088	prompt	n/a	likely roland had perl\n
73.741	0.075	147482	keystroke_l	l	n/a
73.951	0.06	147902	keystroke_i	i	n/a
74.101	0.09	148202	keystroke_k	k	n/a
74.236	0.105	148472	keystroke_e	e	n/a
74.371	0.09	148742	keystroke_l	l	n/a
74.491	0.075	148982	keystroke_y	y	n/a
74.626	0.075	149252	keystroke_Key.space	Key.space	n/a
75.617	0.06	151234	keystroke_r	r	n/a
75.782	0.0445	151564	keystroke_o	o	n/a
75.9915	0.06	151983	keystroke_l	l	n/a
76.0965	0.075	152193	keystroke_a	a	n/a
76.2915	0.06	152583	keystroke_n	n	n/a
76.7265	0.045	153453	keystroke_d	d	n/a
76.8615	0.059	153723	keystroke_Key.space	Key.space	n/a
78.2415	0.0445	156483	keystroke_h	h	n/a
78.331	0.075	156662	keystroke_a	a	n/a
78.602	0.044	157204	keystroke_d	d	n/a
78.691	0.075	157382	keystroke_Key.space	Key.space	n/a
79.576	0.075	159152	keystroke_p	p	n/a
79.771	0.105	159542	keystroke_e	e	n/a
79.891	0.09	159782	keystroke_r	r	n/a
80.131	0.09	160262	keystroke_l	l	n/a
80.461	0.105	160922	keystroke_Key.enter	Key.enter	n/a
80.571	8.832	161142	prompt	n/a	oxide naples packed installation\n
81.631	0.06	163262	keystroke_o	o	n/a
82.9965	0.045	165993	keystroke_x	x	n/a
83.1915	0.1045	166383	keystroke_i	i	n/a
83.6565	0.06	167313	keystroke_d	d	n/a
83.8215	0.06	167643	keystroke_e	e	n/a
83.8965	0.09	167793	keystroke_Key.space	Key.space	n/a
84.1215	0.075	168243	keystroke_n	n	n/a
84.2715	0.06	168543	keystroke_a	a	n/a
84.4215	0.09	168843	keystroke_p	p	n/a
84.6465	0.09	169293	keystroke_l	l	n/a
84.7515	0.06	169503	keystroke_e	e	n/a
84.931	0.06	169862	keystroke_s	s	n/a
85.036	0.075	170072	keystroke_Key.space	Key.space	n/a
85.531	0.105	171062	keystroke_p	p	n/a
85.696	0.09	171392	keystroke_a	a	n/a
85.966	0.045	171932	keystroke_c	c	n/a
86.161	0.075	172322	keystroke_k	k	n/a
86.4015	0.09	172803	keystroke_e	e	n/a
86.6415	0.075	173283	keystroke_d	d	n/a
86.7455	0.091	173491	keystroke_Key.space	Key.space	n/a
87.286	0.0755	174572	keystroke_i	i	n/a
87.481	0.075	174962	keystroke_n	n	n/a
87.676	0.061	175352	keystroke_s	s	n/a
87.827	0.059	175654	keystroke_t	t	n/a
87.991	0.045	175982	keystroke_a	a	n/a
88.082	0.06	176164	keystroke_l	l	n/a
88.246	0.09	176492	keystroke_l	l	n/a
88.381	0.06	176762	keystroke_a	a	n/a
88.562	0.06	177124	keystroke_t	t	n/a
88.637	0.12	177274	keystroke_i	i	n/a
88.697	0.104	177394	keystroke_o	o	n/a
88.876	0.0755	177752	keystroke_n	n	n/a
89.311	0.09	178622	keystroke_Key.enter	Key.enter	n/a
89.4065	7.7515	178813	prompt	n/a	garlic they're agriculture meant\n
90.4815	0.045	180963	keystroke_g	g	n/a
90.6615	0.075	181323	keystroke_a	a	n/a
90.8565	0.045	181713	keystroke_r	r	n/a
90.9465	0.09	181893	keystroke_l	l	n/a
91.5465	0.075	183093	keystroke_i	i	n/a
91.666	0.06	183332	keystroke_c	c	n/a
91.801	0.0755	183602	keystroke_Key.space	Key.space	n/a
92.1465	0.045	184293	keystroke_t	t	n/a
92.2515	0.075	184503	keystroke_h	h	n/a
92.3415	0.09	184683	keystroke_e	e	n/a
92.5215	0.06	185043	keystroke_y	y	n/a
92.7465	0.105	185493	keystroke_'	'	n/a
92.9415	0.15	185883	keystroke_r	r	n/a
93.0465	0.105	186093	keystroke_e	e	n/a
93.196	0.0755	186392	keystroke_Key.space	Key.space	n/a
93.601	0.105	187202	keystroke_a	a	n/a
94.066	0.06	188132	keystroke_g	g	n/a
94.261	0.045	188522	keystroke_r	r	n/a
94.396	0.075	188792	keystroke_i	i	n/a
94.561	0.06	189122	keystroke_c	c	n/a
94.8015	0.015	189603	keystroke_u	u	n/a
94.937	0.074	189874	keystroke_l	l	n/a
95.057	0.059	190114	keystroke_t	t	n/a
95.2365	0.075	190473	keystroke_u	u	n/a
95.4165	0.135	190833	keystroke_r	r	n/a
95.5215	0.105	191043	keystroke_e	e	n/a
95.6715	0.075	191343	keystroke_Key.space	Key.space	n/a
96.0165	0.075	192033	keystroke_m	m	n/a
96.1515	0.06	192303	keystroke_e	e	n/a
96.3165	0.09	192633	keystroke_a	a	n/a
96.4515	0.09	192903	keystroke_n	n	n/a
96.6015	0.09	193203	keystroke_t	t	n/a
97.0815	0.075	194163	keystroke_Key.enter	Key.enter	n/a
97.1615	11.7865	194323	prompt	n/a	survivor marion friendship necklace\n
98.131	0.06	196262	keystroke_s	s	n/a
98.356	0.06	196712	keystroke_u	u	n/a
98.492	0.074	196984	keystroke_r	r	n/a
98.836	0.0455	197672	keystroke_v	v	n/a
98.9415	0.09	197883	keystroke_i	i	n/a
99.0325	0.059	198065	keystroke_v	v	n/a
99.3165	0.075	198633	keystroke_o	o	n/a
99.4365	0.06	198873	keystroke_r	r	n/a
99.6165	0.06	199233	keystroke_Key.space	Key.space	n/a
100.336	0.045	200672	keystroke_f	f	n/a
100.786	0.045	201572	keystroke_r	r	n/a
100.9215	0.075	201843	keystroke_i	i	n/a
101.566	0.06	203132	keystroke_e	e	n/a
102.211	0.06	204422	keystroke_n	n	n/a
102.376	0.075	204752	keystroke_d	d	n/a
102.736	0.075	205472	keystroke_s	s	n/a
102.856	0.12	205712	keystroke_h	h	n/a
102.946	0.12	205892	keystroke_i	i	n/a
103.246	0.105	206492	keystroke_p	p	n/a
103.516	0.045	207032	keystroke_Key.space	Key.space	n/a
103.816	0.045	207632	keystroke_p	p	n/a
104.1465	0.105	208293	keystroke_Key.backspace	Key.backspace	n/a
104.4915	0.045	208983	keystroke_n	n	n/a
104.6115	0.06	209223	keystroke_e	e	n/a
104.8665	0.0595	209733	keystroke_c	c	n/a
105.091	0.015	210182	keystroke_j	j	n/a
105.616	0.075	211232	keystroke_k	k	n/a
106.336	0.061	212672	keystroke_Key.backspace	Key.backspace	n/a
106.501	0.121	213002	keystroke_Key.backspace	Key.backspace	n/a
107.1165	0.045	214233	keystroke_j	j	n/a
107.4765	0.075	214953	keystroke_Key.backspace	Key.backspace	n/a
107.6715	0.0755	215343	keystroke_k	k	n/a
107.852	0.059	215704	keystroke_l	l	n/a
107.971	0.075	215942	keystroke_a	a	n/a
108.227	0.059	216454	keystroke_c	c	n/a
108.422	0.059	216844	keystroke_e	e	n/a
108.871	0.075	217742	keystroke_Key.enter	Key.enter	n/a
108.9515	7.3315	217903	prompt	n/a	carlos charm measure jumping\n
109.636	0.06	219272	keystroke_c	c	n/a
109.771	0.09	219542	keystroke_a	a	n/a
109.936	0.075	219872	keystroke_r	r	n/a
110.056	0.09	220112	keystroke_l	l	n/a
110.281	0.075	220562	keystroke_o	o	n/a
110.686	0.075	221372	keystroke_s	s	n/a
110.806	0.09	221612	keystroke_Key.space	Key.space	n/a
110.941	0.075	221882	keystroke_c	c	n/a
111.076	0.075	222152	keystroke_h	h	n/a
111.151	0.075	222302	keystroke_a	a	n/a
111.346	0.09	222692	keystroke_r	r	n/a
111.526	0.045	223052	keystroke_m	m	n/a
111.706	0.075	223412	keystroke_Key.space	Key.space	n/a
112.366	0.045	224732	keystroke_m	m	n/a
112.456	0.06	224912	keystroke_e	e	n/a
112.606	0.09	225212	keystroke_a	a	n/a
113.086	0.06	226172	keystroke_s	s	n/a
113.296	0.061	226592	keystroke_u	u	n/a
113.476	0.105	226952	keystroke_r	r	n/a
113.536	0.0905	227072	keystroke_e	e	n/a
113.6715	0.09	227343	keystroke_Key.space	Key.space	n/a
114.2715	0.06	228543	keystroke_j	j	n/a
114.5715	0.075	229143	keystroke_u	u	n/a
114.7965	0.045	229593	keystroke_m	m	n/a
114.9915	0.0745	229983	keystroke_p	p	n/a
115.246	0.135	230492	keystroke_i	i	n/a
115.336	0.075	230672	keystroke_n	n	n/a
115.426	0.075	230852	keystroke_g	g	n/a
116.206	0.075	232412	keystroke_Key.enter	Key.enter	n/a
116.286	7.992	232572	prompt	n/a	quilt libs loads environmental\n
117.166	0.09	234332	keystroke_q	q	n/a
117.331	0.075	234662	keystroke_u	u	n/a
117.511	0.06	235022	keystroke_i	i	n/a
117.796	0.1045	235592	keystroke_l	l	n/a
117.9315	0.075	235863	keystroke_t	t	n/a
118.0805	0.075	236161	keystroke_Key.space	Key.space	n/a
118.5915	0.075	237183	keystroke_l	l	n/a
118.7865	0.074	237573	keystroke_i	i	n/a
119.3865	0.045	238773	keystroke_b	b	n/a
119.5515	0.06	239103	keystroke_s	s	n/a
119.8065	0.059	239613	keystroke_Key.space	Key.space	n/a
120.1955	0.061	240391	keystroke_l	l	n/a
120.3755	0.061	240751	keystroke_o	o	n/a
120.4515	0.12	240903	keystroke_a	a	n/a
120.6465	0.09	241293	keystroke_d	d	n/a
120.8565	0.0595	241713	keystroke_s	s	n/a
120.976	0.09	241952	keystroke_Key.space	Key.space	n/a
121.621	0.075	243242	keystroke_e	e	n/a
122.0565	0.06	244113	keystroke_n	n	n/a
122.4615	0.045	244923	keystroke_v	v	n/a
122.5215	0.105	245043	keystroke_i	i	n/a
122.7615	0.06	245523	keystroke_r	r	n/a
122.8665	0.12	245733	keystroke_o	o	n/a
122.9565	0.06	245913	keystroke_n	n	n/a
123.1365	0.0595	246273	keystroke_m	m	n/a
123.226	0.075	246452	keystroke_e	e	n/a
123.361	0.075	246722	keystroke_n	n	n/a
123.451	0.06	246902	keystroke_t	t	n/a
123.616	0.075	247232	keystroke_a	a	n/a
123.706	0.12	247412	keystroke_l	l	n/a
124.186	0.09	248372	keystroke_Key.enter	Key.enter	n/a
124.282	13.121	248564	prompt	n/a	communities earlier transmission girls\n
125.056	0.06	250112	keystroke_c	c	n/a
125.191	0.09	250382	keystroke_o	o	n/a
125.416	0.045	250832	keystroke_m	m	n/a
125.536	0.06	251072	keystroke_m	m	n/a
125.746	0.06	251492	keystroke_u	u	n/a
125.926	0.06	251852	keystroke_n	n	n/a
126.076	0.075	252152	keystroke_i	i	n/a
126.226	0.06	252452	keystroke_t	t	n/a
126.331	0.12	252662	keystroke_i	i	n/a
126.7215	0.0445	253443	keystroke_e	e	n/a
126.901	0.0755	253802	keystroke_s	s	n/a
126.9905	0.09	253981	keystroke_Key.space	Key.space	n/a
127.5305	0.06	255061	keystroke_w	w	n/a
127.741	0.0755	255482	keystroke_a	a	n/a
127.8005	0.06	255601	keystroke_s	s	n/a
127.9955	0.165	255991	keystroke_l	l	n/a
128.101	0.1045	256202	keystroke_i	i	n/a
128.2355	0.12	256471	keystroke_e	e	n/a
128.3405	0.09	256681	keystroke_r	r	n/a
128.4905	0.09	256981	keystroke_Key.space	Key.space	n/a
128.8815	0.075	257763	keystroke_t	t	n/a
129.4215	0.075	258843	keystroke_Key.backspace	Key.backspace	n/a
129.6015	0.06	259203	keystroke_Key.backspace	Key.backspace	n/a
129.7665	0.06	259533	keystroke_Key.backspace	Key.backspace	n/a
129.9165	0.0595	259833	keystroke_Key.backspace	Key.backspace	n/a
130.066	0.075	260132	keystroke_Key.backspace	Key.backspace	n/a
130.216	0.075	260432	keystroke_Key.backspace	Key.backspace	n/a
130.381	0.06	260762	keystroke_Key.backspace	Key.backspace	n/a
130.546	0.075	261092	keystroke_Key.backspace	Key.backspace	n/a
130.696	0.09	261392	keystroke_Key.backspace	Key.backspace	n/a
131.3115	0.0745	262623	keystroke_e	e	n/a
131.491	0.045	262982	keystroke_a	a	n/a
131.656	0.06	263312	keystroke_r	r	n/a
131.776	0.15	263552	keystroke_l	l	n/a
131.881	0.105	263762	keystroke_i	i	n/a
132.001	0.1055	264002	keystroke_e	e	n/a
132.0915	0.06	264183	keystroke_r	r	n/a
132.2415	0.06	264483	keystroke_Key.space	Key.space	n/a
133.2015	0.06	266403	keystroke_t	t	n/a
133.3515	0.06	266703	keystroke_r	r	n/a
133.5315	0.045	267063	keystroke_a	a	n/a
133.6515	0.075	267303	keystroke_n	n	n/a
133.7715	0.06	267543	keystroke_s	s	n/a
133.981	0.06	267962	keystroke_m	m	n/a
134.1615	0.075	268323	keystroke_i	i	n/a
134.3265	0.045	268653	keystroke_s	s	n/a
134.4165	0.09	268833	keystroke_s	s	n/a
134.5215	0.105	269043	keystroke_i	i	n/a
134.5815	0.09	269163	keystroke_o	o	n/a
134.7765	0.06	269553	keystroke_n	n	n/a
134.9565	0.06	269913	keystroke_Key.space	Key.space	n/a
135.586	0.091	271172	keystroke_f	f	n/a
136.126	0.075	272252	keystroke_Key.backspace	Key.backspace	n/a
136.262	0.074	272524	keystroke_g	g	n/a
136.412	0.104	272824	keystroke_i	i	n/a
136.621	0.076	273242	keystroke_r	r	n/a
136.801	0.121	273602	keystroke_l	l	n/a
137.011	0.045	274022	keystroke_s	s	n/a
137.311	0.09	274622	keystroke_Key.enter	Key.enter	n/a
137.4065	19.1215	274813	prompt	n/a	unfortunately atmospheric hebrew paying\n
138.2265	0.075	276453	keystroke_u	u	n/a
138.4215	0.045	276843	keystroke_n	n	n/a
138.6165	0.045	277233	keystroke_f	f	n/a
138.6915	0.09	277383	keystroke_o	o	n/a
138.7965	0.06	277593	keystroke_r	r	n/a
139.0065	0.06	278013	keystroke_u	u	n/a
139.4565	0.0745	278913	keystroke_Key.backspace	Key.backspace	n/a
139.561	0.09	279122	keystroke_t	t	n/a
139.696	0.09	279392	keystroke_u	u	n/a
140.401	0.165	280802	keystroke_n	n	n/a
140.581	0.015	281162	keystroke_a	a	n/a
140.611	0.06	281222	keystroke_t	t	n/a
140.926	0.075	281852	keystroke_Key.backspace	Key.backspace	n/a
141.541	0.09	283082	keystroke_t	t	n/a
141.916	0.09	283832	keystroke_e	e	n/a
142.081	0.105	284162	keystroke_l	l	n/a
142.246	0.075	284492	keystroke_y	y	n/a
142.681	0.06	285362	keystroke_Key.space	Key.space	n/a
143.2065	0.075	286413	keystroke_a	a	n/a
143.6565	0.075	287313	keystroke_t	t	n/a
144.3615	0.045	288723	keystroke_m	m	n/a
144.5265	0.075	289053	keystroke_p	p	n/a
144.6615	0.06	289323	keystroke_s	s	n/a
145.3065	0.045	290613	keystroke_Key.backspace	Key.backspace	n/a
145.4115	0.105	290823	keystroke_Key.backspace	Key.backspace	n/a
146.1615	0.075	292323	keystroke_o	o	n/a
146.3265	0.045	292653	keystroke_s	s	n/a
146.476	0.075	292952	keystroke_p	p	n/a
146.761	0.045	293522	keystroke_h	h	n/a
146.9115	0.09	293823	keystroke_i	i	n/a
147.0615	0.075	294123	keystroke_r	r	n/a
147.2265	0.09	294453	keystroke_i	i	n/a
147.5115	0.075	295023	keystroke_c	c	n/a
147.6315	0.075	295263	keystroke_Key.space	Key.space	n/a
149.0265	0.0745	298053	keystroke_Key.backspace	Key.backspace	n/a
149.206	0.075	298412	keystroke_Key.backspace	Key.backspace	n/a
149.386	0.075	298772	keystroke_Key.backspace	Key.backspace	n/a
149.611	0.045	299222	keystroke_Key.backspace	Key.backspace	n/a
150.226	0.045	300452	keystroke_Key.backspace	Key.backspace	n/a
150.8415	0.09	301683	keystroke_e	e	n/a
151.0815	0.075	302163	keystroke_r	r	n/a
151.2765	0.09	302553	keystroke_i	i	n/a
151.4865	0.06	302973	keystroke_c	c	n/a
151.6515	0.075	303303	keystroke_Key.space	Key.space	n/a
152.1915	0.06	304383	keystroke_h	h	n/a
152.2965	0.06	304593	keystroke_e	e	n/a
152.5515	0.075	305103	keystroke_b	b	n/a
152.746	0.09	305492	keystroke_r	r	n/a
152.9865	0.075	305973	keystroke_e	e	n/a
153.2415	0.075	306483	keystroke_w	w	n/a
153.4365	0.06	306873	keystroke_Key.space	Key.space	n/a
154.6215	0.06	309243	keystroke_p	p	n/a
154.7415	0.06	309483	keystroke_a	a	n/a
155.716	0.075	311432	keystroke_y	y	n/a
155.866	0.12	311732	keystroke_i	i	n/a
155.941	0.105	311882	keystroke_n	n	n/a
156.061	0.045	312122	keystroke_g	g	n/a
156.436	0.09	312872	keystroke_Key.enter	Key.enter	n/a
156.5315	9.3265	313063	prompt	n/a	statutes residential adverse stamp\n
157.291	0.075	314582	keystroke_s	s	n/a
157.531	0.06	315062	keystroke_t	t	n/a
157.711	0.105	315422	keystroke_a	a	n/a
157.801	0.06	315602	keystroke_t	t	n/a
157.966	0.09	315932	keystroke_u	u	n/a
158.281	0.075	316562	keystroke_e	e	n/a
158.491	0.075	316982	keystroke_s	s	n/a
158.596	0.0605	317192	keystroke_Key.space	Key.space	n/a
159.061	0.12	318122	keystroke_r	r	n/a
159.526	0.075	319052	keystroke_e	e	n/a
159.751	0.045	319502	keystroke_s	s	n/a
160.141	0.075	320282	keystroke_i	i	n/a
160.441	0.06	320882	keystroke_d	d	n/a
160.666	0.075	321332	keystroke_e	e	n/a
160.966	0.075	321932	keystroke_n	n	n/a
161.162	0.059	322324	keystroke_t	t	n/a
161.252	0.0895	322504	keystroke_i	i	n/a
161.4465	0.075	322893	keystroke_a	a	n/a
161.5665	0.075	323133	keystroke_l	l	n/a
161.7915	0.0595	323583	keystroke_Key.space	Key.space	n/a
162.496	0.09	324992	keystroke_a	a	n/a
162.9315	0.075	325863	keystroke_d	d	n/a
163.1115	0.06	326223	keystroke_v	v	n/a
163.531	0.09	327062	keystroke_e	e	n/a
163.711	0.06	327422	keystroke_r	r	n/a
163.906	0.045	327812	keystroke_s	s	n/a
164.0865	0.074	328173	keystroke_e	e	n/a
164.2355	0.0755	328471	keystroke_Key.space	Key.space	n/a
164.5365	0.075	329073	keystroke_s	s	n/a
164.7465	0.06	329493	keystroke_t	t	n/a
164.9265	0.09	329853	keystroke_a	a	n/a
165.1205	0.06	330241	keystroke_m	m	n/a
165.3165	0.1195	330633	keystroke_p	p	n/a
165.751	0.105	331502	keystroke_Key.enter	Key.enter	n/a
165.863	10.4645	331726	prompt	n/a	mime hoping harry empirical\n
166.636	0.06	333272	keystroke_m	m	n/a
166.832	0.074	333664	keystroke_i	i	n/a
166.981	0.135	333962	keystroke_m	m	n/a
167.146	0.105	334292	keystroke_e	e	n/a
167.356	0.06	334712	keystroke_Key.space	Key.space	n/a
168.001	0.061	336002	keystroke_h	h	n/a
168.136	0.0605	336272	keystroke_o	o	n/a
168.3015	0.09	336603	keystroke_p	p	n/a
168.5715	0.12	337143	keystroke_i	i	n/a
168.8715	0.075	337743	keystroke_n	n	n/a
168.9765	0.09	337953	keystroke_g	g	n/a
169.1115	0.075	338223	keystroke_Key.space	Key.space	n/a
169.4865	0.0745	338973	keystroke_h	h	n/a
169.636	0.105	339272	keystroke_o	o	n/a
169.876	0.03	339752	keystroke_p	p	n/a
170.191	0.165	340382	keystroke_i	i	n/a
170.341	0.12	340682	keystroke_n	n	n/a
170.491	0.105	340982	keystroke_g	g	n/a
170.626	0.09	341252	keystroke_Key.space	Key.space	n/a
171.5115	0.075	343023	keystroke_h	h	n/a
171.6015	0.09	343203	keystroke_a	a	n/a
171.8865	0.045	343773	keystroke_r	r	n/a
171.9765	0.09	343953	keystroke_r	r	n/a
172.2015	0.0745	344403	keystroke_y	y	n/a
172.321	0.06	344642	keystroke_Key.space	Key.space	n/a
173.056	0.075	346112	keystroke_e	e	n/a
173.311	0.06	346622	keystroke_m	m	n/a
173.4905	0.09	346981	keystroke_p	p	n/a
173.926	0.09	347852	keystroke_i	i	n/a
174.121	0.06	348242	keystroke_r	r	n/a
174.211	0.165	348422	keystroke_i	i	n/a
174.9755	0.12	349951	keystroke_c	c	n/a
175.0965	0.134	350193	keystroke_a	a	n/a
175.2455	0.1205	350491	keystroke_l	l	n/a
175.6655	0.1055	351331	keystroke_Key.space	Key.space	n/a
176.2365	0.0895	352473	keystroke_Key.enter	Key.enter	n/a
176.332	7.2855	352664	prompt	n/a	press gather hills boots\n
176.986	0.09	353972	keystroke_p	p	n/a
177.211	0.165	354422	keystroke_r	r	n/a
177.346	0.0755	354692	keystroke_e	e	n/a
177.5715	0.03	355143	keystroke_s	s	n/a
177.6765	0.09	355353	keystroke_s	s	n/a
177.9165	0.09	355833	keystroke_Key.space	Key.space	n/a
178.6815	0.045	357363	keystroke_g	g	n/a
178.8315	0.0745	357663	keystroke_a	a	n/a
179.221	0.075	358442	keystroke_t	t	n/a
179.356	0.075	358712	keystroke_h	h	n/a
179.461	0.12	358922	keystroke_e	e	n/a
179.536	0.105	359072	keystroke_r	r	n/a
179.686	0.075	359372	keystroke_Key.space	Key.space	n/a
180.181	0.06	360362	keystroke_g	g	n/a
180.4955	0.091	360991	keystroke_Key.backspace	Key.backspace	n/a
180.6305	0.06	361261	keystroke_h	h	n/a
180.7355	0.075	361471	keystroke_i	i	n/a
180.9615	0.06	361923	keystroke_l	l	n/a
181.1115	0.075	362223	keystroke_l	l	n/a
181.2615	0.0595	362523	keystroke_s	s	n/a
181.3365	0.0895	362673	keystroke_Key.space	Key.space	n/a
182.206	0.075	364412	keystroke_b	b	n/a
182.566	0.045	365132	keystroke_o	o	n/a
182.686	0.09	365372	keystroke_o	o	n/a
182.821	0.0605	365642	keystroke_t	t	n/a
183.0315	0.09	366063	keystroke_s	s	n/a
183.5565	0.06	367113	keystroke_Key.enter	Key.enter	n/a
183.621	10.122	367242	prompt	n/a	rebound broadcast elizabeth comedy\n
184.5465	0.075	369093	keystroke_r	r	n/a
184.7265	0.075	369453	keystroke_e	e	n/a
185.0105	0.06	370021	keystroke_b	b	n/a
185.2355	0.135	370471	keystroke_o	o	n/a
185.3105	0.105	370621	keystroke_u	u	n/a
185.5955	0.076	371191	keystroke_n	n	n/a
185.7305	0.06	371461	keystroke_d	d	n/a
185.8205	0.0755	371641	keystroke_Key.space	Key.space	n/a
186.4055	0.06	372811	keystroke_b	b	n/a
186.6755	0.06	373351	keystroke_r	r	n/a
186.826	0.075	373652	keystroke_o	o	n/a
186.976	0.075	373952	keystroke_a	a	n/a
187.171	0.045	374342	keystroke_d	d	n/a
187.531	0.06	375062	keystroke_c	c	n/a
187.681	0.09	375362	keystroke_a	a	n/a
187.891	0.075	375782	keystroke_s	s	n/a
188.086	0.075	376172	keystroke_t	t	n/a
188.206	0.09	376412	keystroke_Key.space	Key.space	n/a
188.416	0.06	376832	keystroke_e	e	n/a
188.641	0.075	377282	keystroke_l	l	n/a
188.806	0.09	377612	keystroke_i	i	n/a
189.361	0.075	378722	keystroke_z	z	n/a
189.571	0.06	379142	keystroke_a	a	n/a
189.871	0.06	379742	keystroke_b	b	n/a
190.201	0.06	380402	keystroke_e	e	n/a
190.396	0.09	380792	keystroke_t	t	n/a
190.516	0.075	381032	keystroke_h	h	n/a
190.756	0.075	381512	keystroke_Key.space	Key.space	n/a
191.3265	0.06	382653	keystroke_c	c	n/a
191.4315	0.12	382863	keystroke_o	o	n/a
191.5215	0.06	383043	keystroke_m	m	n/a
192.106	0.06	384212	keystroke_e	e	n/a
192.361	0.06	384722	keystroke_d	d	n/a
192.7815	0.09	385563	keystroke_y	y	n/a
193.636	0.105	387272	keystroke_Key.enter	Key.enter	n/a
193.7485	8.7095	387497	prompt	n/a	childrens goes contracting jury\n
194.671	0.09	389342	keystroke_c	c	n/a
194.851	0.075	389702	keystroke_h	h	n/a
195.0915	0.075	390183	keystroke_i	i	n/a
195.3605	0.076	390721	keystroke_l	l	n/a
195.5115	0.06	391023	keystroke_d	d	n/a
195.7365	0.134	391473	keystroke_r	r	n/a
195.8115	0.105	391623	keystroke_e	e	n/a
195.9465	0.105	391893	keystroke_n	n	n/a
196.0965	0.074	392193	keystroke_s	s	n/a
196.2165	0.074	392433	keystroke_Key.space	Key.space	n/a
196.7865	0.06	393573	keystroke_g	g	n/a
196.8915	0.105	393783	keystroke_o	o	n/a
197.0415	0.06	394083	keystroke_e	e	n/a
197.2515	0.06	394503	keystroke_s	s	n/a
197.3715	0.06	394743	keystroke_Key.space	Key.space	n/a
199.321	0.075	398642	keystroke_c	c	n/a
199.471	0.15	398942	keystroke_o	o	n/a
199.576	0.09	399152	keystroke_n	n	n/a
199.741	0.06	399482	keystroke_t	t	n/a
199.891	0.075	399782	keystroke_r	r	n/a
200.101	0.12	400202	keystroke_a	a	n/a
200.176	0.075	400352	keystroke_c	c	n/a
200.401	0.075	400802	keystroke_t	t	n/a
200.506	0.12	401012	keystroke_i	i	n/a
200.566	0.09	401132	keystroke_n	n	n/a
200.671	0.0755	401342	keystroke_g	g	n/a
200.7605	0.09	401521	keystroke_Key.space	Key.space	n/a
201.316	0.06	402632	keystroke_j	j	n/a
201.496	0.075	402992	keystroke_u	u	n/a
201.8865	0.075	403773	keystroke_r	r	n/a
202.0815	0.075	404163	keystroke_y	y	n/a
202.396	0.06	404792	keystroke_Key.enter	Key.enter	n/a
202.4625	8.17	404925	prompt	n/a	estate commitments between rider\n
203.311	0.075	406622	keystroke_e	e	n/a
203.551	0.0605	407102	keystroke_s	s	n/a
203.7315	0.06	407463	keystroke_t	t	n/a
203.9115	0.045	407823	keystroke_a	a	n/a
204.1365	0.12	408273	keystroke_t	t	n/a
204.1965	0.09	408393	keystroke_e	e	n/a
204.3165	0.075	408633	keystroke_Key.space	Key.space	n/a
204.5115	0.06	409023	keystroke_c	c	n/a
204.5865	0.105	409173	keystroke_o	o	n/a
204.7965	0.06	409593	keystroke_m	m	n/a
204.9315	0.075	409863	keystroke_m	m	n/a
205.126	0.075	410252	keystroke_i	i	n/a
205.831	0.045	411662	keystroke_t	t	n/a
206.011	0.075	412022	keystroke_m	m	n/a
206.206	0.06	412412	keystroke_e	e	n/a
206.311	0.09	412622	keystroke_n	n	n/a
206.416	0.075	412832	keystroke_t	t	n/a
206.566	0.09	413132	keystroke_s	s	n/a
206.671	0.105	413342	keystroke_Key.space	Key.space	n/a
207.346	0.075	414692	keystroke_b	b	n/a
207.481	0.09	414962	keystroke_e	e	n/a
208.1255	0.105	416251	keystroke_t	t	n/a
208.3655	0.105	416731	keystroke_w	w	n/a
208.5915	0.044	417183	keystroke_e	e	n/a
208.6805	0.106	417361	keystroke_e	e	n/a
208.8455	0.0905	417691	keystroke_n	n	n/a
209.056	0.075	418112	keystroke_Key.space	Key.space	n/a
209.4765	0.104	418953	keystroke_r	r	n/a
209.7305	0.06	419461	keystroke_i	i	n/a
209.9415	0.059	419883	keystroke_d	d	n/a
210.1355	0.105	420271	keystroke_e	e	n/a
210.2115	0.09	420423	keystroke_r	r	n/a
210.5405	0.09	421081	keystroke_Key.enter	Key.enter	n/a
210.6355	10.272	421271	prompt	n/a	safer troops sleeps activities\n
211.4105	0.06	422821	keystroke_s	s	n/a
211.5605	0.075	423121	keystroke_a	a	n/a
211.7705	0.061	423541	keystroke_f	f	n/a
211.981	0.105	423962	keystroke_e	e	n/a
212.041	0.09	424082	keystroke_r	r	n/a
212.146	0.105	424292	keystroke_Key.space	Key.space	n/a
212.611	0.105	425222	keystroke_t	t	n/a
212.8815	0.075	425763	keystroke_o	o	n/a
213.271	0.105	426542	keystroke_Key.backspace	Key.backspace	n/a
213.586	0.075	427172	keystroke_r	r	n/a
213.766	0.06	427532	keystroke_o	o	n/a
213.886	0.105	427772	keystroke_o	o	n/a
214.006	0.105	428012	keystroke_p	p	n/a
214.321	0.105	428642	keystroke_s	s	n/a
214.486	0.0895	428972	keystroke_Key.space	Key.space	n/a
214.8165	0.0895	429633	keystroke_s	s	n/a
214.921	0.105	429842	keystroke_l	l	n/a
215.0855	0.045	430171	keystroke_e	e	n/a
215.2055	0.09	430411	keystroke_e	e	n/a
215.4905	0.105	430981	keystroke_p	p	n/a
215.6705	0.09	431341	keystroke_s	s	n/a
216.2855	0.09	432571	keystroke_Key.space	Key.space	n/a
216.5855	0.09	433171	keystroke_a	a	n/a
217.0655	0.045	434131	keystroke_c	c	n/a
217.2615	0.075	434523	keystroke_c	c	n/a
217.4865	0.075	434973	keystroke_t	t	n/a
217.6215	0.09	435243	keystroke_i	i	n/a
217.7565	0.06	435513	keystroke_v	v	n/a
218.2215	0.074	436443	keystroke_Key.backspace	Key.backspace	n/a
218.4005	0.0605	436801	keystroke_Key.backspace	Key.backspace	n/a
218.581	0.06	437162	keystroke_Key.backspace	Key.backspace	n/a
218.851	0.06	437702	keystroke_Key.backspace	Key.backspace	n/a
219.391	0.06	438782	keystroke_t	t	n/a
219.526	0.075	439052	keystroke_i	i	n/a
219.631	0.06	439262	keystroke_v	v	n/a
219.736	0.105	439472	keystroke_i	i	n/a
219.931	0.06	439862	keystroke_t	t	n/a
220.036	0.105	440072	keystroke_i	i	n/a
220.291	0.015	440582	keystroke_e	e	n/a
220.411	0.06	440822	keystroke_s	s	n/a
220.861	0.045	441722	keystroke_Key.enter	Key.enter	n/a
220.911	11.0515	441822	prompt	n/a	improvements truth knock idaho\n
221.716	0.0595	443432	keystroke_i	i	n/a
221.9255	0.06	443851	keystroke_m	m	n/a
222.1055	0.091	444211	keystroke_p	p	n/a
222.2255	0.075	444451	keystroke_r	r	n/a
222.3455	0.075	444691	keystroke_i	i	n/a
222.4805	0.045	444961	keystroke_v	v	n/a
222.6605	0.06	445321	keystroke_e	e	n/a
222.7805	0.06	445561	keystroke_m	m	n/a
223.366	0.09	446732	keystroke_e	e	n/a
223.666	0.075	447332	keystroke_Key.backspace	Key.backspace	n/a
223.846	0.075	447692	keystroke_Key.backspace	Key.backspace	n/a
224.026	0.0605	448052	keystroke_Key.backspace	Key.backspace	n/a
224.1915	0.06	448383	keystroke_Key.backspace	Key.backspace	n/a
224.3565	0.075	448713	keystroke_Key.backspace	Key.backspace	n/a
224.8965	0.075	449793	keystroke_o	o	n/a
225.2415	0.045	450483	keystroke_v	v	n/a
225.3615	0.0595	450723	keystroke_e	e	n/a
225.451	0.075	450902	keystroke_m	m	n/a
225.586	0.105	451172	keystroke_e	e	n/a
225.706	0.09	451412	keystroke_n	n	n/a
225.811	0.075	451622	keystroke_t	t	n/a
225.961	0.09	451922	keystroke_s	s	n/a
226.066	0.09	452132	keystroke_Key.space	Key.space	n/a
226.681	0.06	453362	keystroke_t	t	n/a
226.8615	0.075	453723	keystroke_r	r	n/a
227.0565	0.075	454113	keystroke_u	u	n/a
227.2365	0.09	454473	keystroke_t	t	n/a
227.3415	0.09	454683	keystroke_h	h	n/a
227.5665	0.075	455133	keystroke_Key.space	Key.space	n/a
228.1805	0.09	456361	keystroke_k	k	n/a
228.3305	0.075	456661	keystroke_n	n	n/a
228.5105	0.1055	457021	keystroke_o	o	n/a
228.9305	0.075	457861	keystroke_c	c	n/a
229.1105	0.091	458221	keystroke_k	k	n/a
229.276	0.09	458552	keystroke_Key.space	Key.space	n/a
229.861	0.075	459722	keystroke_i	i	n/a
230.146	0.045	460292	keystroke_s	s	n/a
230.566	0.075	461132	keystroke_Key.backspace	Key.backspace	n/a
230.671	0.09	461342	keystroke_d	d	n/a
230.9265	0.075	461853	keystroke_a	a	n/a
231.0315	0.06	462063	keystroke_h	h	n/a
231.2555	0.136	462511	keystroke_o	o	n/a
231.8855	0.075	463771	keystroke_Key.enter	Key.enter	n/a
231.967	8.0355	463934	prompt	n/a	minute annually sheets clause\n
232.651	0.075	465302	keystroke_m	m	n/a
232.846	0.0755	465692	keystroke_i	i	n/a
233.0265	0.06	466053	keystroke_n	n	n/a
233.206	0.09	466412	keystroke_u	u	n/a
233.416	0.12	466832	keystroke_t	t	n/a
233.491	0.0905	466982	keystroke_e	e	n/a
233.6565	0.09	467313	keystroke_Key.space	Key.space	n/a
234.0165	0.105	468033	keystroke_a	a	n/a
234.8115	0.03	469623	keystroke_n	n	n/a
234.9015	0.075	469803	keystroke_n	n	n/a
235.1265	0.075	470253	keystroke_u	u	n/a
235.2465	0.09	470493	keystroke_a	a	n/a
235.3965	0.06	470793	keystroke_l	l	n/a
235.5615	0.075	471123	keystroke_l	l	n/a
235.6505	0.106	471301	keystroke_y	y	n/a
235.8015	0.06	471603	keystroke_Key.space	Key.space	n/a
236.6415	0.075	473283	keystroke_s	s	n/a
236.8515	0.0745	473703	keystroke_h	h	n/a
236.971	0.045	473942	keystroke_e	e	n/a
237.076	0.105	474152	keystroke_e	e	n/a
237.286	0.06	474572	keystroke_t	t	n/a
237.466	0.075	474932	keystroke_s	s	n/a
237.586	0.075	475172	keystroke_Key.space	Key.space	n/a
237.931	0.06	475862	keystroke_c	c	n/a
238.066	0.09	476132	keystroke_l	l	n/a
238.171	0.09	476342	keystroke_a	a	n/a
238.501	0.045	477002	keystroke_s	s	n/a
238.861	0.075	477722	keystroke_Key.backspace	Key.backspace	n/a
239.116	0.075	478232	keystroke_u	u	n/a
239.296	0.06	478592	keystroke_s	s	n/a
239.461	0.09	478922	keystroke_e	e	n/a
239.926	0.075	479852	keystroke_Key.enter	Key.enter	n/a
240.006	7.5565	480012	prompt	n/a	checking brown shots filling\n
240.991	0.06	481982	keystroke_c	c	n/a
241.111	0.075	482222	keystroke_h	h	n/a
241.291	0.09	482582	keystroke_e	e	n/a
241.471	0.075	482942	keystroke_c	c	n/a
241.561	0.06	483122	keystroke_k	k	n/a
241.771	0.0895	483542	keystroke_i	i	n/a
241.8155	0.09	483631	keystroke_n	n	n/a
241.9805	0.06	483961	keystroke_g	g	n/a
242.0555	0.075	484111	keystroke_Key.space	Key.space	n/a
242.6865	0.015	485373	keystroke_b	b	n/a
242.8665	0.075	485733	keystroke_r	r	n/a
243.586	0.075	487172	keystroke_o	o	n/a
243.751	0.06	487502	keystroke_w	w	n/a
243.961	0.09	487922	keystroke_n	n	n/a
244.171	0.075	488342	keystroke_Key.space	Key.space	n/a
244.561	0.06	489122	keystroke_s	s	n/a
244.711	0.06	489422	keystroke_h	h	n/a
244.876	0.1045	489752	keystroke_o	o	n/a
245.131	0.045	490262	keystroke_t	t	n/a
245.311	0.075	490622	keystroke_s	s	n/a
245.416	0.0895	490832	keystroke_Key.space	Key.space	n/a
246.1805	0.06	492361	keystroke_f	f	n/a
246.3155	0.06	492631	keystroke_i	i	n/a
246.5405	0.03	493081	keystroke_l	l	n/a
246.6455	0.075	493291	keystroke_l	l	n/a
246.8555	0.1055	493711	keystroke_i	i	n/a
246.931	0.075	493862	keystroke_n	n	n/a
247.021	0.06	494042	keystroke_g	g	n/a
247.5005	0.0605	495001	keystroke_Key.enter	Key.enter	n/a
247.5655	8.8175	495131	prompt	n/a	discounts european patients deadly\n
248.551	0.06	497102	keystroke_d	d	n/a
248.671	0.075	497342	keystroke_i	i	n/a
248.761	0.045	497522	keystroke_s	s	n/a
248.956	0.06	497912	keystroke_c	c	n/a
249.061	0.135	498122	keystroke_o	o	n/a
249.136	0.09	498272	keystroke_u	u	n/a
249.361	0.075	498722	keystroke_n	n	n/a
249.481	0.09	498962	keystroke_t	t	n/a
249.676	0.075	499352	keystroke_s	s	n/a
249.796	0.0745	499592	keystroke_Key.space	Key.space	n/a
250.1705	0.075	500341	keystroke_e	e	n/a
250.6205	0.045	501241	keystroke_u	u	n/a
250.8905	0.075	501781	keystroke_r	r	n/a
251.326	0.045	502652	keystroke_o	o	n/a
251.506	0.105	503012	keystroke_p	p	n/a
251.731	0.06	503462	keystroke_e	e	n/a
251.911	0.075	503822	keystroke_a	a	n/a
252.061	0.075	504122	keystroke_n	n	n/a
252.496	0.0595	504992	keystroke_Key.space	Key.space	n/a
252.9305	0.09	505861	keystroke_p	p	n/a
253.0655	0.075	506131	keystroke_a	a	n/a
253.2315	0.074	506463	keystroke_t	t	n/a
253.3655	0.09	506731	keystroke_i	i	n/a
253.5605	0.075	507121	keystroke_e	e	n/a
253.6505	0.06	507301	keystroke_n	n	n/a
253.7705	0.045	507541	keystroke_t	t	n/a
253.9055	0.09	507811	keystroke_s	s	n/a
254.0105	0.09	508021	keystroke_Key.space	Key.space	n/a
254.7155	0.06	509431	keystroke_d	d	n/a
254.8655	0.076	509731	keystroke_e	e	n/a
255.0465	0.135	510093	keystroke_a	a	n/a
255.1365	0.075	510273	keystroke_d	d	n/a
255.601	0.21	511202	keystroke_l	l	n/a
255.766	0.105	511532	keystroke_y	y	n/a
256.321	0.06	512642	keystroke_Key.enter	Key.enter	n/a
256.3865	7.6015	512773	prompt	n/a	useful horizon samba coaching\n
257.326	0.075	514652	keystroke_u	u	n/a
257.461	0.045	514922	keystroke_s	s	n/a
257.6265	0.06	515253	keystroke_e	e	n/a
257.8665	0.075	515733	keystroke_f	f	n/a
258.0015	0.12	516003	keystroke_u	u	n/a
258.1365	0.09	516273	keystroke_l	l	n/a
258.3765	0.059	516753	keystroke_Key.space	Key.space	n/a
258.7955	0.075	517591	keystroke_h	h	n/a
259.111	0.075	518222	keystroke_o	o	n/a
259.306	0.045	518612	keystroke_r	r	n/a
259.381	0.1195	518762	keystroke_i	i	n/a
259.8315	0.045	519663	keystroke_z	z	n/a
259.9215	0.135	519843	keystroke_o	o	n/a
260.0115	0.075	520023	keystroke_n	n	n/a
260.2065	0.089	520413	keystroke_Key.space	Key.space	n/a
260.7005	0.061	521401	keystroke_s	s	n/a
260.8665	0.06	521733	keystroke_a	a	n/a
260.986	0.075	521972	keystroke_m	m	n/a
261.481	0.075	522962	keystroke_b	b	n/a
261.6005	0.0605	523201	keystroke_a	a	n/a
261.736	0.09	523472	keystroke_Key.space	Key.space	n/a
262.4265	0.06	524853	keystroke_c	c	n/a
262.5615	0.105	525123	keystroke_o	o	n/a
262.6665	0.075	525333	keystroke_a	a	n/a
262.9815	0.06	525963	keystroke_c	c	n/a
263.1315	0.075	526263	keystroke_h	h	n/a
263.3265	0.12	526653	keystroke_i	i	n/a
263.3865	0.105	526773	keystroke_n	n	n/a
263.5365	0.06	527073	keystroke_g	g	n/a
263.926	0.06	527852	keystroke_Key.enter	Key.enter	n/a
263.9905	14.592	527981	prompt	n/a	holding residential secretary effectiveness\n
265.0665	0.105	530133	keystroke_h	h	n/a
265.3065	0.045	530613	keystroke_o	o	n/a
265.5165	0.105	531033	keystroke_l	l	n/a
265.7565	0.06	531513	keystroke_d	d	n/a
265.9065	0.09	531813	keystroke_i	i	n/a
265.9515	0.075	531903	keystroke_n	n	n/a
266.0865	0.045	532173	keystroke_g	g	n/a
266.1615	0.09	532323	keystroke_Key.space	Key.space	n/a
266.791	0.165	533582	keystroke_r	r	n/a
266.911	0.09	533822	keystroke_e	e	n/a
267.151	0.075	534302	keystroke_s	s	n/a
267.256	0.09	534512	keystroke_i	i	n/a
267.601	0.045	535202	keystroke_d	d	n/a
267.7665	0.075	535533	keystroke_e	e	n/a
267.8265	0.09	535653	keystroke_n	n	n/a
267.9465	0.06	535893	keystroke_t	t	n/a
268.3065	0.09	536613	keystroke_i	i	n/a
268.4715	0.09	536943	keystroke_a	a	n/a
268.6065	0.09	537213	keystroke_l	l	n/a
268.8465	0.075	537693	keystroke_Key.space	Key.space	n/a
269.0415	0.12	538083	keystroke_s	s	n/a
269.4015	0.06	538803	keystroke_c	c	n/a
269.6715	0.09	539343	keystroke_r	r	n/a
270.0315	0.105	540063	keystroke_e	e	n/a
270.526	0.045	541052	keystroke_t	t	n/a
270.676	0.105	541352	keystroke_a	a	n/a
270.9765	0.089	541953	keystroke_r	r	n/a
271.2005	0.105	542401	keystroke_y	y	n/a
271.3505	0.06	542701	keystroke_Key.space	Key.space	n/a
272.161	0.075	544322	keystroke_Key.backspace	Key.backspace	n/a
272.326	0.075	544652	keystroke_Key.backspace	Key.backspace	n/a
272.506	0.06	545012	keystroke_Key.backspace	Key.backspace	n/a
272.671	0.06	545342	keystroke_Key.backspace	Key.backspace	n/a
272.836	0.0445	545672	keystroke_Key.backspace	Key.backspace	n/a
272.9855	0.06	545971	keystroke_Key.backspace	Key.backspace	n/a
273.136	0.06	546272	keystroke_Key.backspace	Key.backspace	n/a
273.301	0.06	546602	keystroke_Key.backspace	Key.backspace	n/a
273.781	0.075	547562	keystroke_e	e	n/a
274.201	0.06	548402	keystroke_c	c	n/a
274.441	0.075	548882	keystroke_r	r	n/a
274.621	0.075	549242	keystroke_e	e	n/a
274.921	0.06	549842	keystroke_t	t	n/a
275.176	0.09	550352	keystroke_a	a	n/a
275.371	0.075	550742	keystroke_r	r	n/a
275.566	0.06	551132	keystroke_y	y	n/a
275.671	0.075	551342	keystroke_Key.space	Key.space	n/a
276.6005	0.076	553201	keystroke_e	e	n/a
276.8265	0.06	553653	keystroke_f	f	n/a
276.9315	0.075	553863	keystroke_f	f	n/a
277.0965	0.12	554193	keystroke_e	e	n/a
277.1715	0.06	554343	keystroke_c	c	n/a
277.3515	0.06	554703	keystroke_t	t	n/a
277.4415	0.09	554883	keystroke_i	i	n/a
277.5765	0.075	555153	keystroke_v	v	n/a
277.6665	0.075	555333	keystroke_e	e	n/a
277.8465	0.075	555693	keystroke_n	n	n/a
278.0115	0.06	556023	keystroke_e	e	n/a
278.2215	0.015	556443	keystroke_s	s	n/a
278.2965	0.09	556593	keystroke_s	s	n/a
278.5065	0.075	557013	keystroke_Key.enter	Key.enter	n/a
278.586	11.082	557172	prompt	n/a	radiation sculpture gimme attempts\n
279.361	0.06	558722	keystroke_r	r	n/a
279.526	0.06	559052	keystroke_a	a	n/a
280.1265	0.165	560253	keystroke_d	d	n/a
280.3065	0.015	560613	keystroke_i	i	n/a
280.4115	0.105	560823	keystroke_a	a	n/a
280.5615	0.075	561123	keystroke_t	t	n/a
280.6515	0.105	561303	keystroke_i	i	n/a
280.7115	0.09	561423	keystroke_o	o	n/a
280.9055	0.06	561811	keystroke_n	n	n/a
281.0855	0.075	562171	keystroke_Key.space	Key.space	n/a
281.401	0.075	562802	keystroke_s	s	n/a
281.596	0.075	563192	keystroke_c	c	n/a
281.776	0.06	563552	keystroke_u	u	n/a
281.971	0.075	563942	keystroke_l	l	n/a
282.316	0.09	564632	keystroke_p	p	n/a
282.511	0.075	565022	keystroke_t	t	n/a
282.856	0.0595	565712	keystroke_u	u	n/a
283.3815	0.075	566763	keystroke_r	r	n/a
283.8465	0.075	567693	keystroke_e	e	n/a
283.9815	0.0745	567963	keystroke_Key.space	Key.space	n/a
284.716	0.06	569432	keystroke_g	g	n/a
284.851	0.105	569702	keystroke_i	i	n/a
285.256	0.045	570512	keystroke_m	m	n/a
285.316	0.1205	570632	keystroke_m	m	n/a
285.8265	0.075	571653	keystroke_e	e	n/a
286.4865	0.06	572973	keystroke_Key.space	Key.space	n/a
286.801	0.105	573602	keystroke_a	a	n/a
287.416	0.045	574832	keystroke_t	t	n/a
287.521	0.0895	575042	keystroke_t	t	n/a
287.8065	0.06	575613	keystroke_e	e	n/a
287.9265	0.09	575853	keystroke_m	m	n/a
288.571	0.09	577142	keystroke_p	p	n/a
288.721	0.075	577442	keystroke_t	t	n/a
288.8865	0.12	577773	keystroke_s	s	n/a
289.5755	0.09	579151	keystroke_Key.enter	Key.enter	n/a
289.671	9.3715	579342	prompt	n/a	canadian robots endangered mills\n
290.671	0.045	581342	keystroke_c	c	n/a
290.821	0.06	581642	keystroke_a	a	n/a
290.941	0.06	581882	keystroke_n	n	n/a
291.166	0.06	582332	keystroke_d	d	n/a
291.256	0.0905	582512	keystroke_i	i	n/a
291.361	0.09	582722	keystroke_a	a	n/a
291.526	0.06	583052	keystroke_n	n	n/a
291.706	0.09	583412	keystroke_Key.space	Key.space	n/a
292.2305	0.045	584461	keystroke_t	t	n/a
292.5755	0.075	585151	keystroke_Key.backspace	Key.backspace	n/a
292.6805	0.091	585361	keystroke_r	r	n/a
292.8005	0.1055	585601	keystroke_o	o	n/a
293.401	0.045	586802	keystroke_b	b	n/a
293.8365	0.105	587673	keystroke_o	o	n/a
294.0015	0.06	588003	keystroke_t	t	n/a
294.1815	0.089	588363	keystroke_s	s	n/a
294.3155	0.09	588631	keystroke_Key.space	Key.space	n/a
295.171	0.06	590342	keystroke_e	e	n/a
295.396	0.06	590792	keystroke_n	n	n/a
295.621	0.075	591242	keystroke_d	d	n/a
295.801	0.075	591602	keystroke_a	a	n/a
295.936	0.075	591872	keystroke_n	n	n/a
296.101	0.045	592202	keystroke_g	g	n/a
296.281	0.12	592562	keystroke_e	e	n/a
296.386	0.09	592772	keystroke_r	r	n/a
296.536	0.075	593072	keystroke_e	e	n/a
296.731	0.06	593462	keystroke_d	d	n/a
296.836	0.0745	593672	keystroke_Key.space	Key.space	n/a
297.976	0.06	595952	keystroke_m	m	n/a
298.201	0.075	596402	keystroke_i	i	n/a
298.426	0.045	596852	keystroke_l	l	n/a
298.546	0.075	597092	keystroke_l	l	n/a
298.666	0.09	597332	keystroke_s	s	n/a
298.981	0.06	597962	keystroke_Key.enter	Key.enter	n/a
299.0475	6.43	598095	prompt	n/a	calculate thanks keeps wallet\n
299.701	0.06	599402	keystroke_c	c	n/a
299.896	0.075	599792	keystroke_a	a	n/a
300.076	0.075	600152	keystroke_l	l	n/a
300.241	0.075	600482	keystroke_c	c	n/a
300.3905	0.06	600781	keystroke_u	u	n/a
300.5855	0.09	601171	keystroke_l	l	n/a
300.6605	0.0755	601321	keystroke_a	a	n/a
300.901	0.1055	601802	keystroke_t	t	n/a
300.9765	0.09	601953	keystroke_e	e	n/a
301.111	0.075	602222	keystroke_Key.space	Key.space	n/a
301.471	0.06	602942	keystroke_t	t	n/a
301.546	0.0605	603092	keystroke_h	h	n/a
301.6815	0.0745	603363	keystroke_a	a	n/a
301.771	0.09	603542	keystroke_n	n	n/a
301.966	0.09	603932	keystroke_k	k	n/a
302.086	0.06	604172	keystroke_s	s	n/a
302.191	0.09	604382	keystroke_Key.space	Key.space	n/a
302.986	0.06	605972	keystroke_k	k	n/a
303.061	0.06	606122	keystroke_e	e	n/a
303.196	0.06	606392	keystroke_e	e	n/a
303.301	0.12	606602	keystroke_p	p	n/a
303.496	0.06	606992	keystroke_s	s	n/a
303.586	0.0755	607172	keystroke_Key.space	Key.space	n/a
304.1715	0.075	608343	keystroke_w	w	n/a
304.3665	0.075	608733	keystroke_a	a	n/a
304.801	0.06	609602	keystroke_l	l	n/a
304.921	0.105	609842	keystroke_l	l	n/a
305.041	0.09	610082	keystroke_e	e	n/a
305.251	0.09	610502	keystroke_t	t	n/a
305.386	0.09	610772	keystroke_Key.enter	Key.enter	n/a
305.481	14.0065	610962	prompt	n/a	shaft rhythm maximum unfortunately\n
306.3765	0.09	612753	keystroke_s	s	n/a
306.6315	0.074	613263	keystroke_h	h	n/a
306.7665	0.09	613533	keystroke_a	a	n/a
306.9915	0.075	613983	keystroke_f	f	n/a
307.2005	0.075	614401	keystroke_t	t	n/a
307.3055	0.075	614611	keystroke_Key.space	Key.space	n/a
308.1005	0.06	616201	keystroke_r	r	n/a
308.4455	0.06	616891	keystroke_h	h	n/a
309.961	0.06	619922	keystroke_y	y	n/a
310.216	0.09	620432	keystroke_t	t	n/a
310.351	0.105	620702	keystroke_h	h	n/a
310.546	0.105	621092	keystroke_y	y	n/a
310.696	0.075	621392	keystroke_m	m	n/a
310.951	0.09	621902	keystroke_Key.space	Key.space	n/a
312.4815	0.104	624963	keystroke_Key.backspace	Key.backspace	n/a
313.4705	0.075	626941	keystroke_Key.backspace	Key.backspace	n/a
314.041	0.09	628082	keystroke_Key.backspace	Key.backspace	n/a
314.791	0.06	629582	keystroke_m	m	n/a
315.001	0.06	630002	keystroke_Key.space	Key.space	n/a
315.436	0.045	630872	keystroke_m	m	n/a
315.556	0.075	631112	keystroke_a	a	n/a
315.871	0.06	631742	keystroke_x	x	n/a
315.976	0.075	631952	keystroke_i	i	n/a
316.186	0.06	632372	keystroke_m	m	n/a
316.381	0.06	632762	keystroke_u	u	n/a
316.591	0.06	633182	keystroke_m	m	n/a
316.756	0.09	633512	keystroke_Key.space	Key.space	n/a
317.1605	0.075	634321	keystroke_u	u	n/a
317.3705	0.06	634741	keystroke_n	n	n/a
317.5505	0.075	635101	keystroke_f	f	n/a
317.656	0.075	635312	keystroke_o	o	n/a
317.791	0.045	635582	keystroke_r	r	n/a
317.941	0.06	635882	keystroke_t	t	n/a
318.046	0.0895	636092	keystroke_u	u	n/a
318.3005	0.06	636601	keystroke_n	n	n/a
318.3755	0.105	636751	keystroke_a	a	n/a
318.5405	0.1055	637081	keystroke_t	t	n/a
318.6005	0.0905	637201	keystroke_e	e	n/a
318.721	0.12	637442	keystroke_l	l	n/a
318.826	0.105	637652	keystroke_y	y	n/a
318.976	0.075	637952	keystroke_Key.space	Key.space	n/a
319.381	0.105	638762	keystroke_Key.enter	Key.enter	n/a
319.491	9.4015	638982	prompt	n/a	distance tips phones validity\n
320.3105	0.06	640621	keystroke_s	s	n/a
321.016	0.09	642032	keystroke_Key.backspace	Key.backspace	n/a
321.256	0.06	642512	keystroke_d	d	n/a
321.331	0.09	642662	keystroke_i	i	n/a
321.466	0.075	642932	keystroke_s	s	n/a
321.766	0.075	643532	keystroke_t	t	n/a
321.931	0.075	643862	keystroke_a	a	n/a
322.036	0.09	644072	keystroke_n	n	n/a
322.2005	0.1505	644401	keystroke_c	c	n/a
322.6665	0.089	645333	keystroke_e	e	n/a
323.1005	0.075	646201	keystroke_Key.space	Key.space	n/a
323.7755	0.061	647551	keystroke_t	t	n/a
323.8965	0.074	647793	keystroke_i	i	n/a
324.1215	0.089	648243	keystroke_p	p	n/a
324.3615	0.059	648723	keystroke_s	s	n/a
324.4505	0.075	648901	keystroke_Key.space	Key.space	n/a
324.961	0.06	649922	keystroke_p	p	n/a
325.261	0.045	650522	keystroke_h	h	n/a
325.426	0.09	650852	keystroke_o	o	n/a
325.591	0.09	651182	keystroke_n	n	n/a
325.696	0.045	651392	keystroke_e	e	n/a
325.876	0.06	651752	keystroke_s	s	n/a
325.966	0.075	651932	keystroke_Key.space	Key.space	n/a
326.356	0.045	652712	keystroke_v	v	n/a
326.581	0.09	653162	keystroke_a	a	n/a
327.0005	0.06	654001	keystroke_l	l	n/a
327.1655	0.105	654331	keystroke_i	i	n/a
327.4055	0.03	654811	keystroke_f	f	n/a
327.736	0.075	655472	keystroke_Key.backspace	Key.backspace	n/a
327.826	0.09	655652	keystroke_d	d	n/a
327.961	0.105	655922	keystroke_i	i	n/a
328.126	0.09	656252	keystroke_t	t	n/a
328.3055	0.09	656611	keystroke_y	y	n/a
328.8005	0.0905	657601	keystroke_Key.enter	Key.enter	n/a
328.8955	9.867	657791	prompt	n/a	signal quotes downtown motors\n
329.731	0.06	659462	keystroke_s	s	n/a
329.836	0.075	659672	keystroke_i	i	n/a
330.016	0.09	660032	keystroke_g	g	n/a
330.166	0.09	660332	keystroke_n	n	n/a
330.4065	0.074	660813	keystroke_a	a	n/a
330.4955	0.09	660991	keystroke_l	l	n/a
330.7055	0.075	661411	keystroke_Key.space	Key.space	n/a
331.4405	0.105	662881	keystroke_q	q	n/a
331.6205	0.075	663241	keystroke_u	u	n/a
331.9055	0.045	663811	keystroke_o	o	n/a
332.2055	0.135	664411	keystroke_t	t	n/a
332.2955	0.09	664591	keystroke_e	e	n/a
332.5205	0.075	665041	keystroke_s	s	n/a
332.6255	0.075	665251	keystroke_Key.space	Key.space	n/a
333.7215	0.059	667443	keystroke_d	d	n/a
333.7955	0.09	667591	keystroke_o	o	n/a
334.2455	0.075	668491	keystroke_n	n	n/a
335.101	0.075	670202	keystroke_Key.backspace	Key.backspace	n/a
335.236	0.06	670472	keystroke_w	w	n/a
335.341	0.09	670682	keystroke_n	n	n/a
335.596	0.09	671192	keystroke_t	t	n/a
335.896	0.09	671792	keystroke_o	o	n/a
336.046	0.0745	672092	keystroke_w	w	n/a
336.2255	0.105	672451	keystroke_n	n	n/a
336.901	0.09	673802	keystroke_Key.space	Key.space	n/a
337.2155	0.075	674431	keystroke_m	m	n/a
337.3955	0.09	674791	keystroke_o	o	n/a
337.6655	0.06	675331	keystroke_t	t	n/a
337.7705	0.105	675541	keystroke_o	o	n/a
337.9055	0.06	675811	keystroke_r	r	n/a
338.1155	0.075	676231	keystroke_s	s	n/a
338.671	0.09	677342	keystroke_Key.enter	Key.enter	n/a
338.7665	8.246	677533	prompt	n/a	its verified threshold riders\n
339.7055	0.09	679411	keystroke_i	i	n/a
339.8255	0.075	679651	keystroke_t	t	n/a
340.021	0.06	680042	keystroke_s	s	n/a
340.126	0.075	680252	keystroke_Key.space	Key.space	n/a
340.501	0.075	681002	keystroke_v	v	n/a
340.741	0.12	681482	keystroke_e	e	n/a
340.831	0.12	681662	keystroke_r	r	n/a
341.161	0.105	682322	keystroke_i	i	n/a
341.5805	0.09	683161	keystroke_f	f	n/a
341.881	0.075	683762	keystroke_i	i	n/a
342.601	0.045	685202	keystroke_e	e	n/a
342.766	0.075	685532	keystroke_d	d	n/a
342.856	0.075	685712	keystroke_Key.space	Key.space	n/a
343.666	0.075	687332	keystroke_t	t	n/a
343.801	0.075	687602	keystroke_h	h	n/a
344.041	0.105	688082	keystroke_r	r	n/a
344.236	0.075	688472	keystroke_e	e	n/a
344.461	0.045	688922	keystroke_s	s	n/a
344.611	0.06	689222	keystroke_h	h	n/a
344.776	0.075	689552	keystroke_o	o	n/a
344.9855	0.091	689971	keystroke_l	l	n/a
345.1505	0.076	690301	keystroke_d	d	n/a
345.2405	0.075	690481	keystroke_Key.space	Key.space	n/a
345.8705	0.075	691741	keystroke_r	r	n/a
346.0355	0.091	692071	keystroke_i	i	n/a
346.2605	0.06	692521	keystroke_d	d	n/a
346.4405	0.105	692881	keystroke_e	e	n/a
346.5305	0.06	693061	keystroke_r	r	n/a
346.7105	0.075	693421	keystroke_s	s	n/a
346.9055	0.105	693811	keystroke_Key.enter	Key.enter	n/a
347.0155	7.227	694031	prompt	n/a	martin correlation dump neural\n
347.9255	0.06	695851	keystroke_m	m	n/a
348.0455	0.0755	696091	keystroke_a	a	n/a
348.211	0.06	696422	keystroke_r	r	n/a
348.376	0.075	696752	keystroke_t	t	n/a
348.496	0.135	696992	keystroke_i	i	n/a
348.601	0.105	697202	keystroke_n	n	n/a
348.841	0.0895	697682	keystroke_Key.space	Key.space	n/a
349.3505	0.075	698701	keystroke_c	c	n/a
349.501	0.09	699002	keystroke_o	o	n/a
349.726	0.03	699452	keystroke_r	r	n/a
349.816	0.075	699632	keystroke_r	r	n/a
349.981	0.075	699962	keystroke_e	e	n/a
350.086	0.09	700172	keystroke_l	l	n/a
350.251	0.075	700502	keystroke_a	a	n/a
350.356	0.06	700712	keystroke_t	t	n/a
350.476	0.135	700952	keystroke_i	i	n/a
350.536	0.105	701072	keystroke_o	o	n/a
350.731	0.075	701462	keystroke_n	n	n/a
350.926	0.09	701852	keystroke_Key.space	Key.space	n/a
351.6155	0.045	703231	keystroke_d	d	n/a
351.6755	0.075	703351	keystroke_u	u	n/a
351.9005	0.045	703801	keystroke_m	m	n/a
352.0655	0.105	704131	keystroke_p	p	n/a
352.336	0.06	704672	keystroke_Key.space	Key.space	n/a
353.0115	0.059	706023	keystroke_n	n	n/a
353.1305	0.06	706261	keystroke_e	e	n/a
353.3105	0.09	706621	keystroke_u	u	n/a
353.4905	0.06	706981	keystroke_r	r	n/a
353.6565	0.089	707313	keystroke_a	a	n/a
353.7755	0.105	707551	keystroke_l	l	n/a
354.1355	0.105	708271	keystroke_Key.enter	Key.enter	n/a
354.246	9.2365	708492	prompt	n/a	antibodies cologne definitions mercury\n
354.8415	0.0745	709683	keystroke_a	a	n/a
355.231	0.0605	710462	keystroke_n	n	n/a
355.3815	0.059	710763	keystroke_t	t	n/a
355.4855	0.091	710971	keystroke_i	i	n/a
355.9515	0.045	711903	keystroke_b	b	n/a
356.1315	0.089	712263	keystroke_o	o	n/a
356.2815	0.059	712563	keystroke_d	d	n/a
356.3855	0.136	712771	keystroke_i	i	n/a
356.5355	0.046	713071	keystroke_e	e	n/a
356.7005	0.06	713401	keystroke_s	s	n/a
356.7905	0.075	713581	keystroke_Key.space	Key.space	n/a
357.301	0.075	714602	keystroke_c	c	n/a
357.541	0.075	715082	keystroke_o	o	n/a
357.766	0.075	715532	keystroke_l	l	n/a
357.991	0.09	715982	keystroke_o	o	n/a
358.3055	0.06	716611	keystroke_g	g	n/a
358.4255	0.075	716851	keystroke_n	n	n/a
358.6955	0.06	717391	keystroke_e	e	n/a
358.8005	0.075	717601	keystroke_Key.space	Key.space	n/a
359.536	0.045	719072	keystroke_d	d	n/a
359.686	0.045	719372	keystroke_e	e	n/a
359.806	0.075	719612	keystroke_f	f	n/a
359.956	0.105	719912	keystroke_i	i	n/a
360.076	0.075	720152	keystroke_n	n	n/a
360.271	0.0745	720542	keystroke_i	i	n/a
360.4355	0.075	720871	keystroke_t	t	n/a
360.5255	0.12	721051	keystroke_i	i	n/a
360.7505	0.09	721501	keystroke_o	o	n/a
360.9455	0.09	721891	keystroke_n	n	n/a
361.0805	0.09	722161	keystroke_s	s	n/a
361.2155	0.09	722431	keystroke_Key.space	Key.space	n/a
361.831	0.09	723662	keystroke_m	m	n/a
362.071	0.075	724142	keystroke_e	e	n/a
362.281	0.06	724562	keystroke_r	r	n/a
362.596	0.06	725192	keystroke_c	c	n/a
362.731	0.075	725462	keystroke_u	u	n/a
362.9405	0.06	725881	keystroke_r	r	n/a
363.151	0.075	726302	keystroke_y	y	n/a
363.391	0.09	726782	keystroke_Key.enter	Key.enter	n/a
363.4855	8.727	726971	prompt	n/a	opportunity stronger structure professionals\n
364.381	0.045	728762	keystroke_o	o	n/a
364.5605	0.045	729121	keystroke_p	p	n/a
364.6955	0.12	729391	keystroke_p	p	n/a
364.7705	0.105	729541	keystroke_o	o	n/a
364.9205	0.06	729841	keystroke_r	r	n/a
365.1155	0.06	730231	keystroke_t	t	n/a
365.2055	0.06	730411	keystroke_u	u	n/a
365.3855	0.06	730771	keystroke_n	n	n/a
365.521	0.09	731042	keystroke_i	i	n/a
365.596	0.06	731192	keystroke_t	t	n/a
365.776	0.075	731552	keystroke_y	y	n/a
365.866	0.075	731732	keystroke_Key.space	Key.space	n/a
366.316	0.09	732632	keystroke_s	s	n/a
366.496	0.06	732992	keystroke_t	t	n/a
366.661	0.06	733322	keystroke_r	r	n/a
366.826	0.1055	733652	keystroke_o	o	n/a
366.9015	0.119	733803	keystroke_n	n	n/a
367.0665	0.044	734133	keystroke_g	g	n/a
367.2015	0.135	734403	keystroke_e	e	n/a
367.2765	0.104	734553	keystroke_r	r	n/a
367.3965	0.089	734793	keystroke_Key.space	Key.space	n/a
367.8455	0.106	735691	keystroke_s	s	n/a
368.056	0.06	736112	keystroke_t	t	n/a
368.236	0.045	736472	keystroke_r	r	n/a
368.371	0.075	736742	keystroke_u	u	n/a
368.476	0.075	736952	keystroke_c	c	n/a
368.716	0.03	737432	keystroke_t	t	n/a
368.851	0.075	737702	keystroke_u	u	n/a
369.106	0.12	738212	keystroke_r	r	n/a
369.196	0.09	738392	keystroke_e	e	n/a
369.346	0.075	738692	keystroke_Key.space	Key.space	n/a
369.691	0.09	739382	keystroke_p	p	n/a
369.856	0.09	739712	keystroke_r	r	n/a
369.991	0.105	739982	keystroke_o	o	n/a
370.666	0.15	741332	keystroke_f	f	n/a
370.831	0.015	741662	keystroke_e	e	n/a
370.951	0.03	741902	keystroke_s	s	n/a
371.041	0.06	742082	keystroke_s	s	n/a
371.116	0.105	742232	keystroke_i	i	n/a
371.176	0.105	742352	keystroke_o	o	n/a
371.326	0.075	742652	keystroke_n	n	n/a
371.416	0.0755	742832	keystroke_a	a	n/a
371.5215	0.1045	743043	keystroke_l	l	n/a
371.641	0.105	743282	keystroke_s	s	n/a
372.106	0.105	744212	keystroke_Key.enter	Key.enter	n/a
372.216	8.3065	744432	prompt	n/a	cloudy reject mention cookie\n
373.0505	0.06	746101	keystroke_c	c	n/a
373.1405	0.075	746281	keystroke_l	l	n/a
373.351	0.15	746702	keystroke_o	o	n/a
373.441	0.105	746882	keystroke_u	u	n/a
373.741	0.075	747482	keystroke_d	d	n/a
373.996	0.075	747992	keystroke_y	y	n/a
374.086	0.09	748172	keystroke_Key.space	Key.space	n/a
374.746	0.15	749492	keystroke_r	r	n/a
374.836	0.105	749672	keystroke_e	e	n/a
376.216	0.06	752432	keystroke_j	j	n/a
376.321	0.135	752642	keystroke_e	e	n/a
376.411	0.075	752822	keystroke_c	c	n/a
376.621	0.09	753242	keystroke_t	t	n/a
376.741	0.075	753482	keystroke_Key.space	Key.space	n/a
377.056	0.075	754112	keystroke_m	m	n/a
377.446	0.0595	754892	keystroke_e	e	n/a
377.896	0.045	755792	keystroke_n	n	n/a
378.046	0.06	756092	keystroke_t	t	n/a
378.2105	0.1205	756421	keystroke_i	i	n/a
378.2855	0.0905	756571	keystroke_o	o	n/a
378.466	0.075	756932	keystroke_n	n	n/a
378.6765	0.09	757353	keystroke_Key.space	Key.space	n/a
379.2465	0.075	758493	keystroke_c	c	n/a
379.3665	0.0745	758733	keystroke_o	o	n/a
379.516	0.09	759032	keystroke_o	o	n/a
379.756	0.045	759512	keystroke_k	k	n/a
379.921	0.09	759842	keystroke_i	i	n/a
380.041	0.09	760082	keystroke_e	e	n/a
380.416	0.105	760832	keystroke_Key.enter	Key.enter	n/a
380.526	6.537	761052	prompt	n/a	software slow standing delivery\n
381.346	0.075	762692	keystroke_s	s	n/a
381.451	0.09	762902	keystroke_o	o	n/a
381.571	0.06	763142	keystroke_f	f	n/a
381.736	0.075	763472	keystroke_t	t	n/a
381.916	0.075	763832	keystroke_w	w	n/a
382.096	0.09	764192	keystroke_a	a	n/a
382.306	0.135	764612	keystroke_r	r	n/a
382.396	0.105	764792	keystroke_e	e	n/a
382.516	0.09	765032	keystroke_Key.space	Key.space	n/a
383.0555	0.075	766111	keystroke_s	s	n/a
383.341	0.075	766682	keystroke_l	l	n/a
383.521	0.0905	767042	keystroke_o	o	n/a
383.6565	0.06	767313	keystroke_w	w	n/a
383.7465	0.09	767493	keystroke_Key.space	Key.space	n/a
383.9115	0.075	767823	keystroke_s	s	n/a
384.0615	0.06	768123	keystroke_t	t	n/a
384.2415	0.045	768483	keystroke_a	a	n/a
384.3165	0.09	768633	keystroke_n	n	n/a
384.4515	0.075	768903	keystroke_d	d	n/a
384.5865	0.105	769173	keystroke_i	i	n/a
384.6315	0.105	769263	keystroke_n	n	n/a
384.7815	0.075	769563	keystroke_g	g	n/a
384.8715	0.09	769743	keystroke_Key.space	Key.space	n/a
385.457	0.014	770914	keystroke_d	d	n/a
385.576	0.06	771152	keystroke_e	e	n/a
385.666	0.135	771332	keystroke_l	l	n/a
385.726	0.12	771452	keystroke_i	i	n/a
385.861	0.075	771722	keystroke_v	v	n/a
386.011	0.12	772022	keystroke_e	e	n/a
386.086	0.09	772172	keystroke_r	r	n/a
386.281	0.09	772562	keystroke_y	y	n/a
387.0465	0.015	774093	keystroke_Key.enter	Key.enter	n/a
387.069	6.564	774138	prompt	n/a	happy burton solved bugs\n
387.9315	0.045	775863	keystroke_h	h	n/a
388.0365	0.06	776073	keystroke_a	a	n/a
388.351	0.105	776702	keystroke_p	p	n/a
388.9815	0.09	777963	keystroke_p	p	n/a
389.1015	0.075	778203	keystroke_y	y	n/a
389.2515	0.074	778503	keystroke_Key.space	Key.space	n/a
389.8365	0.075	779673	keystroke_b	b	n/a
390.061	0.105	780122	keystroke_u	u	n/a
390.196	0.06	780392	keystroke_r	r	n/a
390.4065	0.06	780813	keystroke_t	t	n/a
390.5415	0.135	781083	keystroke_o	o	n/a
390.6015	0.09	781203	keystroke_n	n	n/a
390.8115	0.074	781623	keystroke_Key.space	Key.space	n/a
391.2465	0.09	782493	keystroke_s	s	n/a
391.3215	0.075	782643	keystroke_o	o	n/a
391.5165	0.0745	783033	keystroke_l	l	n/a
391.606	0.06	783212	keystroke_v	v	n/a
391.771	0.075	783542	keystroke_e	e	n/a
391.951	0.075	783902	keystroke_d	d	n/a
392.041	0.09	784082	keystroke_Key.space	Key.space	n/a
392.776	0.1805	785552	keystroke_b	b	n/a
392.851	0.1205	785702	keystroke_u	u	n/a
393.1065	0.06	786213	keystroke_g	g	n/a
393.271	0.105	786542	keystroke_s	s	n/a
393.571	0.06	787142	keystroke_Key.enter	Key.enter	n/a
393.636	7.812	787272	prompt	n/a	breeds toward murder alliance\n
394.576	0.09	789152	keystroke_b	b	n/a
394.741	0.06	789482	keystroke_r	r	n/a
394.921	0.06	789842	keystroke_e	e	n/a
395.101	0.045	790202	keystroke_e	e	n/a
395.356	0.06	790712	keystroke_d	d	n/a
395.536	0.06	791072	keystroke_s	s	n/a
395.611	0.075	791222	keystroke_Key.space	Key.space	n/a
396.091	0.06	792182	keystroke_t	t	n/a
396.181	0.09	792362	keystroke_o	o	n/a
396.346	0.075	792692	keystroke_w	w	n/a
396.556	0.1055	793112	keystroke_a	a	n/a
396.766	0.075	793532	keystroke_r	r	n/a
397.7405	0.075	795481	keystroke_d	d	n/a
397.9205	0.09	795841	keystroke_Key.space	Key.space	n/a
398.2805	0.0755	796561	keystroke_m	m	n/a
398.5215	0.059	797043	keystroke_u	u	n/a
398.8815	0.059	797763	keystroke_r	r	n/a
399.1215	0.09	798243	keystroke_d	d	n/a
399.3615	0.12	798723	keystroke_e	e	n/a
399.4365	0.105	798873	keystroke_r	r	n/a
399.5705	0.09	799141	keystroke_Key.space	Key.space	n/a
399.7955	0.09	799591	keystroke_a	a	n/a
399.9455	0.06	799891	keystroke_l	l	n/a
400.0805	0.076	800161	keystroke_l	l	n/a
400.2765	0.09	800553	keystroke_i	i	n/a
400.4115	0.089	800823	keystroke_a	a	n/a
400.5615	0.074	801123	keystroke_n	n	n/a
400.6955	0.1955	801391	keystroke_c	c	n/a
400.8605	0.1205	801721	keystroke_e	e	n/a
401.3555	0.09	802711	keystroke_Key.enter	Key.enter	n/a
401.4515	9.131	802903	prompt	n/a	bigger quarters declaration mins\n
402.3905	0.075	804781	keystroke_b	b	n/a
402.5855	0.0755	805171	keystroke_i	i	n/a
403.066	0.045	806132	keystroke_g	g	n/a
403.171	0.075	806342	keystroke_g	g	n/a
403.3805	0.09	806761	keystroke_e	e	n/a
403.411	0.1045	806822	keystroke_r	r	n/a
403.5605	0.09	807121	keystroke_Key.space	Key.space	n/a
404.086	0.03	808172	keystroke_w	w	n/a
404.716	0.105	809432	keystroke_Key.backspace	Key.backspace	n/a
404.866	0.0895	809732	keystroke_q	q	n/a
405.0005	0.09	810001	keystroke_u	u	n/a
405.361	0.0745	810722	keystroke_a	a	n/a
405.6905	0.0755	811381	keystroke_r	r	n/a
405.9005	0.06	811801	keystroke_t	t	n/a
406.066	0.105	812132	keystroke_e	e	n/a
406.141	0.075	812282	keystroke_r	r	n/a
406.336	0.09	812672	keystroke_s	s	n/a
406.456	0.105	812912	keystroke_Key.space	Key.space	n/a
407.0555	0.06	814111	keystroke_d	d	n/a
407.2205	0.09	814441	keystroke_e	e	n/a
407.4155	0.06	814831	keystroke_c	c	n/a
407.6555	0.105	815311	keystroke_l	l	n/a
407.8805	0.076	815761	keystroke_a	a	n/a
408.0605	0.061	816121	keystroke_r	r	n/a
408.2115	0.105	816423	keystroke_a	a	n/a
408.601	0.06	817202	keystroke_t	t	n/a
408.691	0.12	817382	keystroke_i	i	n/a
408.766	0.1055	817532	keystroke_o	o	n/a
408.9305	0.091	817861	keystroke_n	n	n/a
409.1405	0.09	818281	keystroke_Key.space	Key.space	n/a
409.5755	0.105	819151	keystroke_m	m	n/a
409.7705	0.09	819541	keystroke_i	i	n/a
409.9655	0.09	819931	keystroke_n	n	n/a
410.1455	0.09	820291	keystroke_s	s	n/a
410.4905	0.09	820981	keystroke_Key.enter	Key.enter	n/a
410.586	9.0115	821172	prompt	n/a	benjamin jets prisoner periods\n
411.9605	0.06	823921	keystroke_b	b	n/a
412.1405	0.0605	824281	keystroke_e	e	n/a
412.216	0.075	824432	keystroke_n	n	n/a
412.411	0.075	824822	keystroke_j	j	n/a
412.531	0.06	825062	keystroke_a	a	n/a
412.636	0.075	825272	keystroke_m	m	n/a
412.846	0.1195	825692	keystroke_i	i	n/a
412.9205	0.105	825841	keystroke_n	n	n/a
413.1455	0.09	826291	keystroke_Key.space	Key.space	n/a
415.563	0.001	831126	keystroke_j	j	n/a
415.621	0.045	831242	keystroke_e	e	n/a
415.756	0.06	831512	keystroke_t	t	n/a
416.086	0.045	832172	keystroke_s	s	n/a
416.221	0.075	832442	keystroke_Key.space	Key.space	n/a
416.491	0.09	832982	keystroke_p	p	n/a
416.641	0.06	833282	keystroke_r	r	n/a
416.761	0.075	833522	keystroke_i	i	n/a
417.061	0.075	834122	keystroke_s	s	n/a
417.181	0.135	834362	keystroke_o	o	n/a
417.271	0.09	834542	keystroke_n	n	n/a
417.451	0.09	834902	keystroke_e	e	n/a
417.556	0.0745	835112	keystroke_r	r	n/a
417.7055	0.105	835411	keystroke_Key.space	Key.space	n/a
418.0505	0.075	836101	keystroke_p	p	n/a
418.1405	0.106	836281	keystroke_e	e	n/a
418.2605	0.06	836521	keystroke_r	r	n/a
418.4705	0.075	836941	keystroke_i	i	n/a
418.6655	0.075	837331	keystroke_o	o	n/a
418.8905	0.1205	837781	keystroke_d	d	n/a
418.966	0.135	837932	keystroke_s	s	n/a
419.5355	0.06	839071	keystroke_Key.enter	Key.enter	n/a
419.6005	8.952	839201	prompt	n/a	modem alcohol open jeans\n
420.8255	0.06	841651	keystroke_m	m	n/a
420.9905	0.075	841981	keystroke_o	o	n/a
421.5755	0.015	843151	keystroke_g	g	n/a
422.2955	0.09	844591	keystroke_Key.backspace	Key.backspace	n/a
422.6855	0.061	845371	keystroke_d	d	n/a
422.8805	0.045	845761	keystroke_e	e	n/a
423.0005	0.09	846001	keystroke_m	m	n/a
423.226	0.06	846452	keystroke_Key.space	Key.space	n/a
423.5255	0.075	847051	keystroke_a	a	n/a
423.8555	0.075	847711	keystroke_l	l	n/a
424.5905	0.045	849181	keystroke_c	c	n/a
424.6965	0.059	849393	keystroke_o	o	n/a
425.0105	0.09	850021	keystroke_h	h	n/a
425.3555	0.09	850711	keystroke_o	o	n/a
425.6255	0.105	851251	keystroke_l	l	n/a
425.881	0.06	851762	keystroke_Key.space	Key.space	n/a
426.136	0.09	852272	keystroke_o	o	n/a
426.3755	0.09	852751	keystroke_p	p	n/a
426.5855	0.09	853171	keystroke_e	e	n/a
426.7505	0.09	853501	keystroke_n	n	n/a
426.9605	0.105	853921	keystroke_Key.space	Key.space	n/a
427.6505	0.075	855301	keystroke_j	j	n/a
427.7705	0.045	855541	keystroke_e	e	n/a
427.9205	0.09	855841	keystroke_a	a	n/a
428.0405	0.09	856081	keystroke_n	n	n/a
428.1755	0.075	856351	keystroke_s	s	n/a
428.431	0.1195	856862	keystroke_Key.enter	Key.enter	n/a
428.5555	5.727	857111	prompt	n/a	charm exception make rise\n
429.3455	0.06	858691	keystroke_c	c	n/a
429.4205	0.075	858841	keystroke_h	h	n/a
429.5415	0.089	859083	keystroke_a	a	n/a
429.8255	0.06	859651	keystroke_r	r	n/a
429.9165	0.074	859833	keystroke_m	m	n/a
430.1105	0.075	860221	keystroke_Key.space	Key.space	n/a
430.591	0.06	861182	keystroke_e	e	n/a
430.801	0.06	861602	keystroke_x	x	n/a
430.966	0.06	861932	keystroke_c	c	n/a
431.146	0.06	862292	keystroke_e	e	n/a
431.191	0.1195	862382	keystroke_p	p	n/a
431.4155	0.09	862831	keystroke_t	t	n/a
431.4905	0.12	862981	keystroke_i	i	n/a
431.5655	0.09	863131	keystroke_o	o	n/a
431.7155	0.09	863431	keystroke_n	n	n/a
431.9105	0.09	863821	keystroke_Key.space	Key.space	n/a
432.3155	0.075	864631	keystroke_m	m	n/a
432.4505	0.06	864901	keystroke_a	a	n/a
432.5855	0.1205	865171	keystroke_k	k	n/a
432.721	0.06	865442	keystroke_e	e	n/a
432.856	0.075	865712	keystroke_Key.space	Key.space	n/a
433.4555	0.045	866911	keystroke_r	r	n/a
433.5605	0.12	867121	keystroke_i	i	n/a
433.7555	0.06	867511	keystroke_s	s	n/a
433.9355	0.075	867871	keystroke_e	e	n/a
434.1905	0.09	868381	keystroke_Key.enter	Key.enter	n/a
434.2855	7.332	868571	prompt	n/a	parcel layer bandwidth findlaw\n
434.9565	0.06	869913	keystroke_p	p	n/a
435.0615	0.09	870123	keystroke_a	a	n/a
435.2715	0.06	870543	keystroke_r	r	n/a
435.5265	0.03	871053	keystroke_c	c	n/a
435.6765	0.09	871353	keystroke_e	e	n/a
435.7805	0.076	871561	keystroke_l	l	n/a
435.9605	0.075	871921	keystroke_Key.space	Key.space	n/a
436.2465	0.075	872493	keystroke_l	l	n/a
436.3365	0.0745	872673	keystroke_a	a	n/a
436.591	0.075	873182	keystroke_y	y	n/a
436.8465	0.1345	873693	keystroke_e	e	n/a
436.951	0.075	873902	keystroke_r	r	n/a
437.086	0.09	874172	keystroke_Key.space	Key.space	n/a
437.8055	0.061	875611	keystroke_b	b	n/a
437.9105	0.105	875821	keystroke_a	a	n/a
438.076	0.075	876152	keystroke_n	n	n/a
438.166	0.06	876332	keystroke_d	d	n/a
438.391	0.0595	876782	keystroke_w	w	n/a
438.4805	0.075	876961	keystroke_i	i	n/a
438.6005	0.075	877201	keystroke_d	d	n/a
438.8705	0.105	877741	keystroke_t	t	n/a
438.9905	0.075	877981	keystroke_h	h	n/a
439.1855	0.105	878371	keystroke_Key.space	Key.space	n/a
439.9655	0.06	879931	keystroke_f	f	n/a
440.0705	0.135	880141	keystroke_i	i	n/a
440.1455	0.09	880291	keystroke_n	n	n/a
440.2805	0.06	880561	keystroke_d	d	n/a
440.4005	0.105	880801	keystroke_l	l	n/a
440.6255	0.075	881251	keystroke_a	a	n/a
440.8205	0.075	881641	keystroke_w	w	n/a
441.1955	0.06	882391	keystroke_Key.space	Key.space	n/a
441.5255	0.09	883051	keystroke_Key.enter	Key.enter	n/a
441.621	8.3965	883242	prompt	n/a	workflow fixtures return lets\n
442.5155	0.075	885031	keystroke_w	w	n/a
442.6355	0.09	885271	keystroke_o	o	n/a
442.7705	0.075	885541	keystroke_r	r	n/a
442.9205	0.075	885841	keystroke_k	k	n/a
443.3255	0.045	886651	keystroke_f	f	n/a
443.4305	0.105	886861	keystroke_l	l	n/a
443.6705	0.105	887341	keystroke_o	o	n/a
444.0005	0.075	888001	keystroke_w	w	n/a
444.1505	0.075	888301	keystroke_Key.space	Key.space	n/a
444.7205	0.045	889441	keystroke_f	f	n/a
444.8105	0.09	889621	keystroke_i	i	n/a
445.0505	0.075	890101	keystroke_x	x	n/a
445.2905	0.045	890581	keystroke_t	t	n/a
445.4555	0.045	890911	keystroke_u	u	n/a
445.6205	0.105	891241	keystroke_r	r	n/a
445.6955	0.06	891391	keystroke_e	e	n/a
445.8905	0.045	891781	keystroke_s	s	n/a
445.9055	0.015	891811	keystroke_d	d	n/a
446.0105	0.075	892021	keystroke_Key.space	Key.space	n/a
446.671	0.075	893342	keystroke_Key.backspace	Key.backspace	n/a
446.836	0.075	893672	keystroke_Key.backspace	Key.backspace	n/a
447.151	0.06	894302	keystroke_Key.space	Key.space	n/a
447.7055	0.12	895411	keystroke_r	r	n/a
447.7655	0.09	895531	keystroke_e	e	n/a
447.9755	0.06	895951	keystroke_t	t	n/a
448.0805	0.105	896161	keystroke_u	u	n/a
448.4105	0.0755	896821	keystroke_r	r	n/a
448.486	0.075	896972	keystroke_n	n	n/a
448.666	0.09	897332	keystroke_Key.space	Key.space	n/a
449.0865	0.09	898173	keystroke_l	l	n/a
449.2815	0.075	898563	keystroke_e	e	n/a
449.4915	0.0595	898983	keystroke_t	t	n/a
449.671	0.075	899342	keystroke_s	s	n/a
449.941	0.075	899882	keystroke_Key.enter	Key.enter	n/a
450.0205	7.767	900041	prompt	n/a	villas sleep criteria outer\n
450.9605	0.045	901921	keystroke_v	v	n/a
451.0655	0.06	902131	keystroke_i	i	n/a
451.2755	0.045	902551	keystroke_l	l	n/a
451.3805	0.105	902761	keystroke_l	l	n/a
451.5005	0.075	903001	keystroke_a	a	n/a
451.7255	0.075	903451	keystroke_s	s	n/a
451.8455	0.075	903691	keystroke_Key.space	Key.space	n/a
452.4305	0.091	904861	keystroke_s	s	n/a
452.7015	0.09	905403	keystroke_l	l	n/a
452.8955	0.046	905791	keystroke_e	e	n/a
453.0155	0.09	906031	keystroke_e	e	n/a
453.1355	0.09	906271	keystroke_p	p	n/a
453.3755	0.075	906751	keystroke_Key.space	Key.space	n/a
454.2605	0.075	908521	keystroke_c	c	n/a
454.4705	0.06	908941	keystroke_r	r	n/a
454.6055	0.075	909211	keystroke_i	i	n/a
454.7255	0.045	909451	keystroke_t	t	n/a
454.9205	0.105	909841	keystroke_e	e	n/a
455.0105	0.09	910021	keystroke_r	r	n/a
455.2505	0.106	910501	keystroke_i	i	n/a
455.3855	0.105	910771	keystroke_a	a	n/a
455.5355	0.075	911071	keystroke_Key.space	Key.space	n/a
456.4505	0.165	912901	keystroke_o	o	n/a
456.5255	0.12	913051	keystroke_u	u	n/a
456.7205	0.091	913441	keystroke_t	t	n/a
456.9455	0.15	913891	keystroke_e	e	n/a
457.0505	0.1055	914101	keystroke_r	r	n/a
457.7405	0.045	915481	keystroke_Key.enter	Key.enter	n/a
457.7905	10.752	915581	prompt	n/a	proven poetry hull amendments\n
459.1655	0.12	918331	keystroke_p	p	n/a
459.511	0.0445	919022	keystroke_r	r	n/a
459.6305	0.105	919261	keystroke_o	o	n/a
459.901	0.105	919802	keystroke_b	b	n/a
460.141	0.12	920282	keystroke_e	e	n/a
460.486	0.06	920972	keystroke_Key.backspace	Key.backspace	n/a
460.651	0.09	921302	keystroke_Key.backspace	Key.backspace	n/a
461.0405	0.06	922081	keystroke_v	v	n/a
461.31	0.09	922620	keystroke_e	e	n/a
461.4605	0.0745	922921	keystroke_n	n	n/a
461.655	0.075	923310	keystroke_Key.space	Key.space	n/a
461.896	0.09	923792	keystroke_p	p	n/a
462.36	0.045	924720	keystroke_i	i	n/a
463.456	0.075	926912	keystroke_Key.backspace	Key.backspace	n/a
463.651	0.075	927302	keystroke_o	o	n/a
464.011	0.09	928022	keystroke_e	e	n/a
464.401	0.045	928802	keystroke_t	t	n/a
464.536	0.105	929072	keystroke_r	r	n/a
464.761	0.06	929522	keystroke_y	y	n/a
464.8955	0.075	929791	keystroke_Key.space	Key.space	n/a
465.5555	0.09	931111	keystroke_h	h	n/a
465.7505	0.06	931501	keystroke_u	u	n/a
465.9905	0.03	931981	keystroke_l	l	n/a
466.1105	0.09	932221	keystroke_l	l	n/a
466.3205	0.075	932641	keystroke_Key.space	Key.space	n/a
466.4565	0.119	932913	keystroke_a	a	n/a
466.6355	0.0755	933271	keystroke_m	m	n/a
466.816	0.06	933632	keystroke_e	e	n/a
466.9205	0.09	933841	keystroke_n	n	n/a
467.0405	0.06	934081	keystroke_d	d	n/a
467.2355	0.09	934471	keystroke_m	m	n/a
467.3855	0.09	934771	keystroke_e	e	n/a
467.5205	0.09	935041	keystroke_n	n	n/a
467.6255	0.045	935251	keystroke_t	t	n/a
467.7605	0.09	935521	keystroke_s	s	n/a
467.8805	0.105	935761	keystroke_Key.space	Key.space	n/a
468.436	0.105	936872	keystroke_Key.enter	Key.enter	n/a
468.5455	6.942	937091	prompt	n/a	seen apple miami station\n
469.2155	0.0605	938431	keystroke_s	s	n/a
469.426	0.03	938852	keystroke_e	e	n/a
469.516	0.09	939032	keystroke_e	e	n/a
469.591	0.09	939182	keystroke_n	n	n/a
469.786	0.075	939572	keystroke_Key.space	Key.space	n/a
469.876	0.09	939752	keystroke_a	a	n/a
470.041	0.06	940082	keystroke_p	p	n/a
470.191	0.0745	940382	keystroke_p	p	n/a
470.4005	0.091	940801	keystroke_l	l	n/a
470.5205	0.105	941041	keystroke_e	e	n/a
470.6555	0.09	941311	keystroke_Key.space	Key.space	n/a
471.016	0.075	942032	keystroke_m	m	n/a
471.166	0.1195	942332	keystroke_i	i	n/a
471.3455	0.09	942691	keystroke_a	a	n/a
471.5405	0.06	943081	keystroke_n	n	n/a
471.9305	0.09	943861	keystroke_Key.backspace	Key.backspace	n/a
472.0805	0.1055	944161	keystroke_m	m	n/a
472.291	0.105	944582	keystroke_i	i	n/a
472.711	0.09	945422	keystroke_Key.space	Key.space	n/a
473.116	0.06	946232	keystroke_s	s	n/a
473.6705	0.105	947341	keystroke_t	t	n/a
473.9405	0.09	947881	keystroke_a	a	n/a
474.0455	0.075	948091	keystroke_t	t	n/a
474.2255	0.135	948451	keystroke_i	i	n/a
474.2855	0.12	948571	keystroke_o	o	n/a
474.4655	0.09	948931	keystroke_n	n	n/a
475.426	0.06	950852	keystroke_Key.enter	Key.enter	n/a
475.4905	11.262	950981	prompt	n/a	leads warrant needle mainstream\n
476.176	0.0895	952352	keystroke_l	l	n/a
476.2805	0.09	952561	keystroke_e	e	n/a
476.6105	0.105	953221	keystroke_a	a	n/a
476.8505	0.135	953701	keystroke_s	s	n/a
477.3005	0.105	954601	keystroke_Key.backspace	Key.backspace	n/a
477.5255	0.075	955051	keystroke_t	t	n/a
478.02	0.075	956040	keystroke_Key.backspace	Key.backspace	n/a
478.5465	0.104	957093	keystroke_d	d	n/a
478.77	0.06	957540	keystroke_s	s	n/a
478.9955	0.075	957991	keystroke_Key.space	Key.space	n/a
479.866	0.075	959732	keystroke_w	w	n/a
480.061	0.09	960122	keystroke_a	a	n/a
480.271	0.0445	960542	keystroke_r	r	n/a
480.3755	0.09	960751	keystroke_r	r	n/a
480.5705	0.09	961141	keystroke_a	a	n/a
480.7205	0.12	961441	keystroke_n	n	n/a
480.901	0.075	961802	keystroke_y	y	n/a
481.006	0.105	962012	keystroke_Key.space	Key.space	n/a
481.561	0.06	963122	keystroke_Key.backspace	Key.backspace	n/a
481.7105	0.09	963421	keystroke_Key.backspace	Key.backspace	n/a
482.2505	0.06	964501	keystroke_t	t	n/a
482.3405	0.075	964681	keystroke_Key.space	Key.space	n/a
482.5505	0.06	965101	keystroke_n	n	n/a
482.6255	0.06	965251	keystroke_e	e	n/a
482.7305	0.06	965461	keystroke_e	e	n/a
482.895	0.076	965790	keystroke_d	d	n/a
483.001	0.1045	966002	keystroke_l	l	n/a
483.1355	0.09	966271	keystroke_e	e	n/a
483.2555	0.075	966511	keystroke_Key.space	Key.space	n/a
483.586	0.075	967172	keystroke_m	m	n/a
483.691	0.075	967382	keystroke_a	a	n/a
483.901	0.15	967802	keystroke_i	i	n/a
483.976	0.105	967952	keystroke_n	n	n/a
484.5005	0.075	969001	keystroke_s	s	n/a
485.446	0.075	970892	keystroke_t	t	n/a
485.641	0.105	971282	keystroke_r	r	n/a
485.8355	0.075	971671	keystroke_e	e	n/a
486.0155	0.1205	972031	keystroke_a	a	n/a
486.1205	0.1055	972241	keystroke_m	m	n/a
486.676	0.075	973352	keystroke_Key.enter	Key.enter	n/a
486.7585	11.874	973517	prompt	n/a	jokes agreements suggesting casting\n
487.756	0.09	975512	keystroke_j	j	n/a
487.816	0.09	975632	keystroke_o	o	n/a
488.026	0.09	976052	keystroke_k	k	n/a
488.131	0.06	976262	keystroke_e	e	n/a
488.311	0.075	976622	keystroke_s	s	n/a
488.416	0.09	976832	keystroke_Key.space	Key.space	n/a
488.686	0.105	977372	keystroke_a	a	n/a
489.1505	0.075	978301	keystroke_g	g	n/a
489.3455	0.09	978691	keystroke_r	r	n/a
489.5555	0.015	979111	keystroke_e	e	n/a
489.6455	0.075	979291	keystroke_e	e	n/a
489.7655	0.105	979531	keystroke_m	m	n/a
489.9155	0.075	979831	keystroke_e	e	n/a
490.0055	0.09	980011	keystroke_n	n	n/a
490.1255	0.06	980251	keystroke_t	t	n/a
490.2905	0.075	980581	keystroke_s	s	n/a
490.5755	0.075	981151	keystroke_Key.space	Key.space	n/a
491.1155	0.1205	982231	keystroke_s	s	n/a
491.311	0.104	982622	keystroke_u	u	n/a
492.421	0.03	984842	keystroke_g	g	n/a
492.511	0.075	985022	keystroke_g	g	n/a
492.6755	0.105	985351	keystroke_e	e	n/a
494.326	0.03	988652	keystroke_s	s	n/a
494.9855	0.06	989971	keystroke_t	t	n/a
495.1205	0.12	990241	keystroke_i	i	n/a
495.1955	0.075	990391	keystroke_n	n	n/a
495.316	0.105	990632	keystroke_e	e	n/a
495.991	0.015	991982	keystroke_Key.backspace	Key.backspace	n/a
496.411	0.045	992822	keystroke_g	g	n/a
496.546	0.06	993092	keystroke_Key.space	Key.space	n/a
497.356	0.06	994712	keystroke_c	c	n/a
497.521	0.105	995042	keystroke_a	a	n/a
497.686	0.075	995372	keystroke_s	s	n/a
497.866	0.075	995732	keystroke_t	t	n/a
497.971	0.12	995942	keystroke_i	i	n/a
498.031	0.09	996062	keystroke_n	n	n/a
498.106	0.0745	996212	keystroke_g	g	n/a
498.556	0.075	997112	keystroke_Key.enter	Key.enter	n/a
498.6355	8.412	997271	prompt	n/a	name bookmark ellen bathrooms\n
499.396	0.075	998792	keystroke_n	n	n/a
499.486	0.09	998972	keystroke_a	a	n/a
499.606	0.09	999212	keystroke_m	m	n/a
499.711	0.075	999422	keystroke_e	e	n/a
499.831	0.09	999662	keystroke_Key.space	Key.space	n/a
500.8205	0.0905	1001641	keystroke_b	b	n/a
501.031	0.045	1002062	keystroke_o	o	n/a
501.166	0.059	1002332	keystroke_o	o	n/a
501.316	0.075	1002632	keystroke_k	k	n/a
501.496	0.075	1002992	keystroke_m	m	n/a
501.586	0.075	1003172	keystroke_a	a	n/a
501.781	0.06	1003562	keystroke_r	r	n/a
502.021	0.09	1004042	keystroke_k	k	n/a
502.4705	0.075	1004941	keystroke_Key.space	Key.space	n/a
502.951	0.075	1005902	keystroke_e	e	n/a
503.146	0.059	1006292	keystroke_l	l	n/a
503.266	0.12	1006532	keystroke_l	l	n/a
503.401	0.09	1006802	keystroke_e	e	n/a
503.5955	0.09	1007191	keystroke_n	n	n/a
503.8055	0.105	1007611	keystroke_Key.space	Key.space	n/a
504.9155	0.0595	1009831	keystroke_b	b	n/a
504.991	0.105	1009982	keystroke_a	a	n/a
505.171	0.089	1010342	keystroke_t	t	n/a
505.275	0.106	1010550	keystroke_h	h	n/a
505.891	0.059	1011782	keystroke_r	r	n/a
506.0255	0.075	1012051	keystroke_o	o	n/a
506.1755	0.1055	1012351	keystroke_o	o	n/a
506.326	0.105	1012652	keystroke_m	m	n/a
506.476	0.09	1012952	keystroke_s	s	n/a
506.9555	0.09	1013911	keystroke_Key.enter	Key.enter	n/a
507.0505	10.8425	1014101	prompt	n/a	cincinnati copy crack properties\n
507.841	0.075	1015682	keystroke_c	c	n/a
507.976	0.09	1015952	keystroke_i	i	n/a
508.201	0.06	1016402	keystroke_n	n	n/a
508.6655	0.09	1017331	keystroke_c	c	n/a
508.8005	0.105	1017601	keystroke_i	i	n/a
508.981	0.12	1017962	keystroke_n	n	n/a
509.3255	0.105	1018651	keystroke_n	n	n/a
509.5505	0.105	1019101	keystroke_a	a	n/a
510.4205	0.075	1020841	keystroke_t	t	n/a
510.5255	0.09	1021051	keystroke_i	i	n/a
510.7505	0.075	1021501	keystroke_Key.space	Key.space	n/a
510.9755	0.0905	1021951	keystroke_c	c	n/a
511.0955	0.105	1022191	keystroke_o	o	n/a
511.3205	0.09	1022641	keystroke_p	p	n/a
511.456	0.09	1022912	keystroke_e	e	n/a
511.8905	0.105	1023781	keystroke_Key.backspace	Key.backspace	n/a
512.1015	0.059	1024203	keystroke_t	t	n/a
512.3855	0.075	1024771	keystroke_Key.backspace	Key.backspace	n/a
512.4615	0.074	1024923	keystroke_y	y	n/a
512.6405	0.06	1025281	keystroke_Key.space	Key.space	n/a
513.3605	0.06	1026721	keystroke_c	c	n/a
513.556	0.045	1027112	keystroke_r	r	n/a
513.766	0.135	1027532	keystroke_a	a	n/a
513.976	0.03	1027952	keystroke_f	f	n/a
514.576	0.105	1029152	keystroke_Key.backspace	Key.backspace	n/a
514.666	0.105	1029332	keystroke_c	c	n/a
514.816	0.09	1029632	keystroke_k	k	n/a
515.026	0.06	1030052	keystroke_Key.space	Key.space	n/a
515.371	0.075	1030742	keystroke_p	p	n/a
515.476	0.105	1030952	keystroke_r	r	n/a
515.596	0.09	1031192	keystroke_o	o	n/a
516.121	0.075	1032242	keystroke_p	p	n/a
516.226	0.15	1032452	keystroke_e	e	n/a
516.316	0.105	1032632	keystroke_r	r	n/a
516.526	0.06	1033052	keystroke_t	t	n/a
516.616	0.105	1033232	keystroke_i	i	n/a
516.796	0.06	1033592	keystroke_e	e	n/a
516.976	0.09	1033952	keystroke_s	s	n/a
517.4255	0.09	1034851	keystroke_Key.space	Key.space	n/a
517.7855	0.105	1035571	keystroke_Key.enter	Key.enter	n/a
517.896	8.7415	1035792	prompt	n/a	secret something shame anniversary\n
518.5505	0.09	1037101	keystroke_c	c	n/a
519.076	0.09	1038152	keystroke_Key.backspace	Key.backspace	n/a
519.196	0.06	1038392	keystroke_s	s	n/a
519.406	0.06	1038812	keystroke_e	e	n/a
519.616	0.045	1039232	keystroke_c	c	n/a
519.811	0.0445	1039622	keystroke_r	r	n/a
519.9755	0.06	1039951	keystroke_e	e	n/a
520.1555	0.09	1040311	keystroke_t	t	n/a
520.2905	0.075	1040581	keystroke_Key.space	Key.space	n/a
520.6205	0.06	1041241	keystroke_s	s	n/a
520.8155	0.1505	1041631	keystroke_o	o	n/a
520.906	0.09	1041812	keystroke_m	m	n/a
521.041	0.075	1042082	keystroke_e	e	n/a
521.266	0.075	1042532	keystroke_t	t	n/a
521.356	0.09	1042712	keystroke_h	h	n/a
521.431	0.09	1042862	keystroke_i	i	n/a
521.551	0.075	1043102	keystroke_n	n	n/a
521.656	0.075	1043312	keystroke_g	g	n/a
521.746	0.12	1043492	keystroke_Key.space	Key.space	n/a
522.571	0.06	1045142	keystroke_s	s	n/a
522.736	0.045	1045472	keystroke_h	h	n/a
522.856	0.075	1045712	keystroke_a	a	n/a
522.991	0.075	1045982	keystroke_m	m	n/a
523.111	0.075	1046222	keystroke_e	e	n/a
523.201	0.09	1046402	keystroke_Key.space	Key.space	n/a
524.101	0.09	1048202	keystroke_a	a	n/a
524.521	0.06	1049042	keystroke_n	n	n/a
524.626	0.075	1049252	keystroke_n	n	n/a
524.776	0.09	1049552	keystroke_i	i	n/a
525.136	0.03	1050272	keystroke_v	v	n/a
525.271	0.1495	1050542	keystroke_e	e	n/a
525.3305	0.075	1050661	keystroke_r	r	n/a
525.5555	0.09	1051111	keystroke_s	s	n/a
525.6905	0.12	1051381	keystroke_a	a	n/a
525.8115	0.089	1051623	keystroke_r	r	n/a
526.0355	0.09	1052071	keystroke_y	y	n/a
526.1555	0.075	1052311	keystroke_Key.space	Key.space	n/a
526.5305	0.105	1053061	keystroke_Key.enter	Key.enter	n/a
526.641	8.0965	1053282	prompt	n/a	treasure funding territories want\n
527.461	0.06	1054922	keystroke_t	t	n/a
527.641	0.105	1055282	keystroke_r	r	n/a
527.761	0.09	1055522	keystroke_e	e	n/a
527.956	0.075	1055912	keystroke_a	a	n/a
528.226	0.075	1056452	keystroke_s	s	n/a
528.391	0.09	1056782	keystroke_u	u	n/a
528.5855	0.12	1057171	keystroke_r	r	n/a
528.6605	0.105	1057321	keystroke_e	e	n/a
528.8105	0.075	1057621	keystroke_Key.space	Key.space	n/a
529.486	0.0745	1058972	keystroke_f	f	n/a
529.6055	0.075	1059211	keystroke_u	u	n/a
529.831	0.06	1059662	keystroke_n	n	n/a
530.221	0.075	1060442	keystroke_d	d	n/a
530.386	0.105	1060772	keystroke_i	i	n/a
530.431	0.09	1060862	keystroke_n	n	n/a
530.671	0.075	1061342	keystroke_g	g	n/a
530.821	0.075	1061642	keystroke_Key.space	Key.space	n/a
531.541	0.06	1063082	keystroke_t	t	n/a
531.706	0.075	1063412	keystroke_e	e	n/a
531.916	0.015	1063832	keystroke_r	r	n/a
532.006	0.075	1064012	keystroke_r	r	n/a
532.096	0.09	1064192	keystroke_i	i	n/a
532.2755	0.075	1064551	keystroke_t	t	n/a
532.3805	0.09	1064761	keystroke_o	o	n/a
532.6355	0.0605	1065271	keystroke_r	r	n/a
532.726	0.09	1065452	keystroke_i	i	n/a
532.846	0.0755	1065692	keystroke_e	e	n/a
533.0415	0.044	1066083	keystroke_s	s	n/a
533.1455	0.075	1066291	keystroke_Key.space	Key.space	n/a
533.6405	0.105	1067281	keystroke_w	w	n/a
533.8955	0.135	1067791	keystroke_a	a	n/a
534.1055	0.105	1068211	keystroke_n	n	n/a
534.2405	0.09	1068481	keystroke_t	t	n/a
534.6455	0.09	1069291	keystroke_Key.enter	Key.enter	n/a
534.7405	8.292	1069481	prompt	n/a	wilson champion nigeria just\n
535.576	0.06	1071152	keystroke_w	w	n/a
535.696	0.09	1071392	keystroke_i	i	n/a
535.936	0.105	1071872	keystroke_l	l	n/a
536.371	0.075	1072742	keystroke_s	s	n/a
536.581	0.105	1073162	keystroke_o	o	n/a
536.656	0.075	1073312	keystroke_n	n	n/a
536.881	0.09	1073762	keystroke_Key.space	Key.space	n/a
537.256	0.105	1074512	keystroke_c	c	n/a
537.466	0.06	1074932	keystroke_h	h	n/a
537.736	0.09	1075472	keystroke_a	a	n/a
538.006	0.045	1076012	keystroke_m	m	n/a
538.231	0.075	1076462	keystroke_p	p	n/a
538.426	0.09	1076852	keystroke_i	i	n/a
538.636	0.09	1077272	keystroke_o	o	n/a
538.861	0.06	1077722	keystroke_n	n	n/a
539.071	0.075	1078142	keystroke_Key.space	Key.space	n/a
539.611	0.06	1079222	keystroke_n	n	n/a
540.091	0.06	1080182	keystroke_i	i	n/a
540.451	0.045	1080902	keystroke_g	g	n/a
540.616	0.105	1081232	keystroke_e	e	n/a
540.676	0.09	1081352	keystroke_r	r	n/a
540.826	0.09	1081652	keystroke_i	i	n/a
540.946	0.075	1081892	keystroke_a	a	n/a
541.096	0.075	1082192	keystroke_Key.space	Key.space	n/a
541.7405	0.06	1083481	keystroke_j	j	n/a
541.9205	0.09	1083841	keystroke_u	u	n/a
542.0705	0.075	1084141	keystroke_s	s	n/a
542.2505	0.105	1084501	keystroke_t	t	n/a
542.9705	0.0605	1085941	keystroke_Key.enter	Key.enter	n/a
543.036	9.7165	1086072	prompt	n/a	developmental contained happening threshold\n
544.1705	0.06	1088341	keystroke_d	d	n/a
544.3505	0.0595	1088701	keystroke_e	e	n/a
544.53	0.045	1089060	keystroke_v	v	n/a
544.725	0.06	1089450	keystroke_e	e	n/a
544.815	0.06	1089630	keystroke_l	l	n/a
544.996	0.074	1089992	keystroke_o	o	n/a
545.115	0.09	1090230	keystroke_p	p	n/a
545.325	0.06	1090650	keystroke_m	m	n/a
545.445	0.075	1090890	keystroke_e	e	n/a
545.55	0.091	1091100	keystroke_n	n	n/a
545.656	0.059	1091312	keystroke_t	t	n/a
545.82	0.075	1091640	keystroke_a	a	n/a
545.91	0.09	1091820	keystroke_l	l	n/a
546.12	0.06	1092240	keystroke_Key.space	Key.space	n/a
546.255	0.09	1092510	keystroke_c	c	n/a
546.36	0.12	1092720	keystroke_o	o	n/a
546.435	0.105	1092870	keystroke_n	n	n/a
546.735	0.09	1093470	keystroke_a	a	n/a
547.126	0.075	1094252	keystroke_Key.backspace	Key.backspace	n/a
547.186	0.075	1094372	keystroke_t	t	n/a
547.351	0.105	1094702	keystroke_a	a	n/a
547.861	0.12	1095722	keystroke_i	i	n/a
547.921	0.09	1095842	keystroke_n	n	n/a
548.026	0.075	1096052	keystroke_e	e	n/a
548.206	0.09	1096412	keystroke_d	d	n/a
548.296	0.105	1096592	keystroke_Key.space	Key.space	n/a
549.1355	0.06	1098271	keystroke_h	h	n/a
549.2405	0.075	1098481	keystroke_a	a	n/a
549.3605	0.045	1098721	keystroke_p	p	n/a
549.4955	0.06	1098991	keystroke_p	p	n/a
549.6155	0.06	1099231	keystroke_e	e	n/a
549.7055	0.06	1099411	keystroke_n	n	n/a
549.856	0.12	1099712	keystroke_i	i	n/a
549.931	0.075	1099862	keystroke_n	n	n/a
550.021	0.075	1100042	keystroke_g	g	n/a
550.126	0.09	1100252	keystroke_Key.space	Key.space	n/a
550.351	0.075	1100702	keystroke_t	t	n/a
550.426	0.075	1100852	keystroke_h	h	n/a
550.576	0.12	1101152	keystroke_e	e	n/a
550.9655	0.09	1101931	keystroke_Key.backspace	Key.backspace	n/a
551.1605	0.1205	1102321	keystroke_r	r	n/a
551.251	0.075	1102502	keystroke_e	e	n/a
551.521	0.09	1103042	keystroke_s	s	n/a
551.821	0.059	1103642	keystroke_h	h	n/a
551.986	0.075	1103972	keystroke_o	o	n/a
552.181	0.09	1104362	keystroke_l	l	n/a
552.286	0.075	1104572	keystroke_d	d	n/a
552.66	0.09	1105320	keystroke_Key.enter	Key.enter	n/a
552.7555	7.962	1105511	prompt	n/a	mime proportion concept jason\n
553.5155	0.075	1107031	keystroke_m	m	n/a
553.711	0.075	1107422	keystroke_i	i	n/a
553.831	0.12	1107662	keystroke_m	m	n/a
554.011	0.09	1108022	keystroke_e	e	n/a
554.161	0.09	1108322	keystroke_Key.space	Key.space	n/a
554.386	0.09	1108772	keystroke_p	p	n/a
554.506	0.075	1109012	keystroke_r	r	n/a
554.596	0.075	1109192	keystroke_o	o	n/a
554.821	0.0595	1109642	keystroke_p	p	n/a
554.9255	0.105	1109851	keystroke_o	o	n/a
555.241	0.0895	1110482	keystroke_r	r	n/a
555.7205	0.075	1111441	keystroke_t	t	n/a
556.785	0.12	1113570	keystroke_i	i	n/a
556.845	0.106	1113690	keystroke_o	o	n/a
557.055	0.045	1114110	keystroke_n	n	n/a
557.22	0.075	1114440	keystroke_Key.space	Key.space	n/a
557.941	0.075	1115882	keystroke_c	c	n/a
558.046	0.12	1116092	keystroke_o	o	n/a
558.121	0.09	1116242	keystroke_n	n	n/a
558.3005	0.045	1116601	keystroke_c	c	n/a
558.4505	0.09	1116901	keystroke_e	e	n/a
558.5855	0.09	1117171	keystroke_p	p	n/a
558.7055	0.075	1117411	keystroke_t	t	n/a
558.8255	0.0745	1117651	keystroke_Key.space	Key.space	n/a
559.41	0.06	1118820	keystroke_j	j	n/a
559.5	0.09	1119000	keystroke_a	a	n/a
559.725	0.075	1119450	keystroke_s	s	n/a
559.875	0.105	1119750	keystroke_o	o	n/a
559.9505	0.09	1119901	keystroke_n	n	n/a
560.625	0.09	1121250	keystroke_Key.enter	Key.enter	n/a
560.7205	10.9615	1121441	prompt	n/a	cyprus murphy easter assistance\n
561.556	0.075	1123112	keystroke_c	c	n/a
562.006	0.075	1124012	keystroke_y	y	n/a
562.246	0.09	1124492	keystroke_p	p	n/a
562.516	0.06	1125032	keystroke_r	r	n/a
562.651	0.105	1125302	keystroke_o	o	n/a
563.011	0.075	1126022	keystroke_s	s	n/a
563.6255	0.06	1127251	keystroke_Key.backspace	Key.backspace	n/a
563.7455	0.075	1127491	keystroke_Key.backspace	Key.backspace	n/a
563.9855	0.09	1127971	keystroke_u	u	n/a
564.0905	0.09	1128181	keystroke_s	s	n/a
564.2705	0.06	1128541	keystroke_Key.space	Key.space	n/a
564.7055	0.06	1129411	keystroke_m	m	n/a
564.9155	0.09	1129831	keystroke_u	u	n/a
565.215	0.061	1130430	keystroke_r	r	n/a
565.44	0.105	1130880	keystroke_p	p	n/a
565.785	0.075	1131570	keystroke_h	h	n/a
566.085	0.06	1132170	keystroke_y	y	n/a
566.475	0.075	1132950	keystroke_Key.space	Key.space	n/a
567.1205	0.045	1134241	keystroke_e	e	n/a
567.3155	0.075	1134631	keystroke_a	a	n/a
567.3605	0.075	1134721	keystroke_s	s	n/a
567.615	0.075	1135230	keystroke_t	t	n/a
567.78	0.12	1135560	keystroke_e	e	n/a
567.87	0.09	1135740	keystroke_r	r	n/a
567.93	0.075	1135860	keystroke_Key.space	Key.space	n/a
568.185	0.09	1136370	keystroke_a	a	n/a
568.515	0.03	1137030	keystroke_s	s	n/a
568.6205	0.06	1137241	keystroke_s	s	n/a
568.6955	0.12	1137391	keystroke_i	i	n/a
569.8805	0.09	1139761	keystroke_s	s	n/a
570.511	0.075	1141022	keystroke_t	t	n/a
570.736	0.09	1141472	keystroke_a	a	n/a
570.931	0.059	1141862	keystroke_n	n	n/a
571.051	0.15	1142102	keystroke_c	c	n/a
571.171	0.09	1142342	keystroke_e	e	n/a
571.576	0.1045	1143152	keystroke_Key.enter	Key.enter	n/a
571.6855	7.9165	1143371	prompt	n/a	fighter online ignore lafayette\n
572.656	0.074	1145312	keystroke_f	f	n/a
572.745	0.091	1145490	keystroke_i	i	n/a
572.851	0.059	1145702	keystroke_g	g	n/a
572.955	0.075	1145910	keystroke_h	h	n/a
573.061	0.074	1146122	keystroke_t	t	n/a
573.255	0.165	1146510	keystroke_e	e	n/a
573.36	0.135	1146720	keystroke_r	r	n/a
573.48	0.075	1146960	keystroke_Key.space	Key.space	n/a
573.735	0.106	1147470	keystroke_o	o	n/a
573.795	0.106	1147590	keystroke_n	n	n/a
574.02	0.12	1148040	keystroke_l	l	n/a
574.081	0.105	1148162	keystroke_i	i	n/a
574.3055	0.0745	1148611	keystroke_n	n	n/a
574.41	0.105	1148820	keystroke_e	e	n/a
574.53	0.091	1149060	keystroke_Key.space	Key.space	n/a
574.9505	0.075	1149901	keystroke_i	i	n/a
575.1605	0.06	1150321	keystroke_g	g	n/a
575.3105	0.06	1150621	keystroke_n	n	n/a
575.5205	0.075	1151041	keystroke_o	o	n/a
575.6255	0.135	1151251	keystroke_r	r	n/a
575.7005	0.105	1151401	keystroke_e	e	n/a
575.8805	0.06	1151761	keystroke_Key.space	Key.space	n/a
576.3005	0.06	1152601	keystroke_l	l	n/a
576.5855	0.105	1153171	keystroke_a	a	n/a
577.2455	0.06	1154491	keystroke_f	f	n/a
577.4405	0.09	1154881	keystroke_a	a	n/a
577.8155	0.06	1155631	keystroke_y	y	n/a
578.01	0.09	1156020	keystroke_e	e	n/a
578.34	0.075	1156680	keystroke_t	t	n/a
578.925	0.075	1157850	keystroke_t	t	n/a
579.075	0.12	1158150	keystroke_e	e	n/a
579.54	0.06	1159080	keystroke_Key.enter	Key.enter	n/a
579.605	6.4325	1159210	prompt	n/a	lens winds motels nasa\n
580.38	0.075	1160760	keystroke_l	l	n/a
580.47	0.105	1160940	keystroke_e	e	n/a
580.755	0.106	1161510	keystroke_n	n	n/a
580.905	0.075	1161810	keystroke_s	s	n/a
580.995	0.075	1161990	keystroke_Key.space	Key.space	n/a
581.43	0.075	1162860	keystroke_w	w	n/a
581.91	0.135	1163820	keystroke_i	i	n/a
582	0.09	1164000	keystroke_n	n	n/a
582.3	0.09	1164600	keystroke_d	d	n/a
582.51	0.06	1165020	keystroke_s	s	n/a
582.615	0.091	1165230	keystroke_Key.space	Key.space	n/a
583.0055	0.075	1166011	keystroke_m	m	n/a
583.2005	0.075	1166401	keystroke_o	o	n/a
583.4105	0.06	1166821	keystroke_t	t	n/a
583.5455	0.09	1167091	keystroke_e	e	n/a
583.6505	0.105	1167301	keystroke_l	l	n/a
583.7705	0.09	1167541	keystroke_s	s	n/a
583.921	0.06	1167842	keystroke_Key.space	Key.space	n/a
584.8205	0.06	1169641	keystroke_n	n	n/a
584.8955	0.09	1169791	keystroke_a	a	n/a
585.0755	0.075	1170151	keystroke_s	s	n/a
585.2255	0.105	1170451	keystroke_a	a	n/a
586.0205	0.015	1172041	keystroke_Key.enter	Key.enter	n/a
586.043	7.78	1172086	prompt	n/a	comments associates floral implies\n
587.1905	0.075	1174381	keystroke_c	c	n/a
587.2805	0.075	1174561	keystroke_o	o	n/a
587.4905	0.06	1174981	keystroke_m	m	n/a
587.6105	0.06	1175221	keystroke_m	m	n/a
587.6855	0.075	1175371	keystroke_e	e	n/a
587.8205	0.075	1175641	keystroke_n	n	n/a
587.8955	0.09	1175791	keystroke_t	t	n/a
588.1055	0.0745	1176211	keystroke_s	s	n/a
588.21	0.075	1176420	keystroke_Key.space	Key.space	n/a
588.42	0.06	1176840	keystroke_a	a	n/a
588.615	0.045	1177230	keystroke_s	s	n/a
588.72	0.075	1177440	keystroke_s	s	n/a
588.945	0.09	1177890	keystroke_o	o	n/a
589.335	0.046	1178670	keystroke_c	c	n/a
589.396	0.089	1178792	keystroke_i	i	n/a
589.501	0.075	1179002	keystroke_a	a	n/a
589.681	0.12	1179362	keystroke_t	t	n/a
589.755	0.076	1179510	keystroke_e	e	n/a
589.966	0.089	1179932	keystroke_s	s	n/a
590.07	0.106	1180140	keystroke_Key.space	Key.space	n/a
590.7455	0.075	1181491	keystroke_f	f	n/a
590.8355	0.015	1181671	keystroke_l	l	n/a
590.9255	0.075	1181851	keystroke_o	o	n/a
591.1505	0.06	1182301	keystroke_r	r	n/a
591.4055	0.09	1182811	keystroke_a	a	n/a
591.5255	0.09	1183051	keystroke_l	l	n/a
591.7355	0.075	1183471	keystroke_Key.space	Key.space	n/a
591.9905	0.1195	1183981	keystroke_i	i	n/a
592.0655	0.1045	1184131	keystroke_m	m	n/a
592.3505	0.1195	1184701	keystroke_p	p	n/a
592.8	0.091	1185600	keystroke_l	l	n/a
593.056	0.075	1186112	keystroke_i	i	n/a
593.236	0.06	1186472	keystroke_e	e	n/a
593.416	0.0595	1186832	keystroke_s	s	n/a
593.7005	0.12	1187401	keystroke_Key.enter	Key.enter	n/a
593.829	9.143	1187658	prompt	n/a	financial visit inch pregnant\n
594.6605	0.06	1189321	keystroke_f	f	n/a
594.7805	0.1195	1189561	keystroke_i	i	n/a
594.885	0.075	1189770	keystroke_n	n	n/a
595.56	0.075	1191120	keystroke_a	a	n/a
595.71	0.106	1191420	keystroke_n	n	n/a
596.13	0.0905	1192260	keystroke_c	c	n/a
596.2355	0.075	1192471	keystroke_i	i	n/a
596.5355	0.075	1193071	keystroke_a	a	n/a
596.6255	0.105	1193251	keystroke_l	l	n/a
596.8505	0.075	1193701	keystroke_Key.space	Key.space	n/a
597.4805	0.06	1194961	keystroke_v	v	n/a
597.6155	0.09	1195231	keystroke_i	i	n/a
597.7505	0.06	1195501	keystroke_s	s	n/a
597.8555	0.12	1195711	keystroke_i	i	n/a
598.0355	0.09	1196071	keystroke_t	t	n/a
598.1555	0.09	1196311	keystroke_Key.space	Key.space	n/a
598.8755	0.09	1197751	keystroke_i	i	n/a
599.0555	0.09	1198111	keystroke_n	n	n/a
599.341	0.075	1198682	keystroke_c	c	n/a
599.431	0.075	1198862	keystroke_h	h	n/a
599.611	0.06	1199222	keystroke_Key.space	Key.space	n/a
599.821	0.075	1199642	keystroke_p	p	n/a
599.911	0.105	1199822	keystroke_r	r	n/a
599.971	0.09	1199942	keystroke_e	e	n/a
600.466	0.105	1200932	keystroke_g	g	n/a
600.781	0.12	1201562	keystroke_n	n	n/a
601.126	0.09	1202252	keystroke_a	a	n/a
601.5005	0.09	1203001	keystroke_n	n	n/a
601.9205	0.075	1203841	keystroke_y	y	n/a
602.5655	0.12	1205131	keystroke_Key.backspace	Key.backspace	n/a
602.7005	0.09	1205401	keystroke_t	t	n/a
602.881	0.09	1205762	keystroke_Key.enter	Key.enter	n/a
602.9755	9.6115	1205951	prompt	n/a	away signature remind inspiration\n
603.571	0.12	1207142	keystroke_a	a	n/a
603.931	0.06	1207862	keystroke_w	w	n/a
604.096	0.105	1208192	keystroke_a	a	n/a
604.381	0.09	1208762	keystroke_y	y	n/a
604.561	0.075	1209122	keystroke_Key.space	Key.space	n/a
604.891	0.075	1209782	keystroke_s	s	n/a
605.026	0.09	1210052	keystroke_i	i	n/a
605.7155	0.075	1211431	keystroke_g	g	n/a
605.9405	0.06	1211881	keystroke_n	n	n/a
606.0455	0.075	1212091	keystroke_a	a	n/a
606.2255	0.06	1212451	keystroke_t	t	n/a
606.346	0.09	1212692	keystroke_u	u	n/a
606.5105	0.135	1213021	keystroke_r	r	n/a
606.6005	0.105	1213201	keystroke_e	e	n/a
606.7205	0.09	1213441	keystroke_Key.space	Key.space	n/a
607.411	0.105	1214822	keystroke_r	r	n/a
607.486	0.105	1214972	keystroke_e	e	n/a
607.606	0.075	1215212	keystroke_m	m	n/a
607.756	0.135	1215512	keystroke_i	i	n/a
607.816	0.12	1215632	keystroke_n	n	n/a
607.966	0.09	1215932	keystroke_d	d	n/a
608.085	0.106	1216170	keystroke_Key.space	Key.space	n/a
608.8805	0.135	1217761	keystroke_i	i	n/a
608.9705	0.105	1217941	keystroke_n	n	n/a
609.1055	0.075	1218211	keystroke_s	s	n/a
609.5705	0.12	1219141	keystroke_p	p	n/a
609.7955	0.0755	1219591	keystroke_i	i	n/a
610.9355	0.075	1221871	keystroke_r	r	n/a
611.386	0.12	1222772	keystroke_a	a	n/a
