onset	duration	sample	value	key	prompt_text
7.2105	8.8885	14421	prompt	n/a	the quick brown fox jumps over a lazy dog\n
8.7175	0.013	17435	keystroke_t	t	n/a
8.7445	0.09	17489	keystroke_h	h	n/a
8.85	0.1205	17700	keystroke_e	e	n/a
8.9555	0.105	17911	keystroke_Key.space	Key.space	n/a
9.1505	0.09	18301	keystroke_q	q	n/a
9.27	0.09	18540	keystroke_u	u	n/a
10.3955	0.105	20791	keystroke_i	i	n/a
10.5455	0.12	21091	keystroke_c	c	n/a
10.71	0.09	21420	keystroke_k	k	n/a
10.8305	0.105	21661	keystroke_Key.space	Key.space	n/a
11.0705	0.075	22141	keystroke_b	b	n/a
11.2205	0.09	22441	keystroke_r	r	n/a
11.355	0.0755	22710	keystroke_o	o	n/a
11.4445	0.121	22889	keystroke_w	w	n/a
11.5805	0.09	23161	keystroke_n	n	n/a
11.6555	0.105	23311	keystroke_Key.space	Key.space	n/a
11.881	0.1195	23762	keystroke_f	f	n/a
12.0605	0.1045	24121	keystroke_o	o	n/a
12.2705	0.09	24541	keystroke_x	x	n/a
12.4805	0.09	24961	keystroke_Key.space	Key.space	n/a
12.6905	0.09	25381	keystroke_j	j	n/a
12.8705	0.075	25741	keystroke_u	u	n/a
13.1255	0.075	26251	keystroke_m	m	n/a
13.3055	0.09	26611	keystroke_p	p	n/a
13.4705	0.105	26941	keystroke_s	s	n/a
13.56	0.1205	27120	keystroke_Key.space	Key.space	n/a
13.7705	0.0895	27541	keystroke_o	o	n/a
13.8895	0.106	27779	keystroke_v	v	n/a
14.1455	0.12	28291	keystroke_e	e	n/a
14.2355	0.12	28471	keystroke_r	r	n/a
14.3105	0.135	28621	keystroke_Key.space	Key.space	n/a
14.4755	0.105	28951	keystroke_a	a	n/a
14.5655	0.105	29131	keystroke_Key.space	Key.space	n/a
14.7605	0.12	29521	keystroke_l	l	n/a
14.8505	0.105	29701	keystroke_a	a	n/a
15.1055	0.1045	30211	keystroke_z	z	n/a
15.27	0.076	30540	keystroke_y	y	n/a
15.3755	0.0895	30751	keystroke_Key.space	Key.space	n/a
15.5255	0.15	31051	keystroke_d	d	n/a
15.69	0.1055	31380	keystroke_o	o	n/a
15.825	0.106	31650	keystroke_g	g	n/a
15.9755	0.12	31951	keystroke_Key.enter	Key.enter	n/a
16.106	7.5355	32212	prompt	n/a	juan relationships adapter herein\n
16.726	0.089	33452	keystroke_j	j	n/a
16.92	0.0905	33840	keystroke_u	u	n/a
17.161	0.1185	34322	keystroke_a	a	n/a
17.2655	0.09	34531	keystroke_n	n	n/a
17.3705	0.105	34741	keystroke_Key.space	Key.space	n/a
17.5955	0.1055	35191	keystroke_r	r	n/a
17.685	0.1355	35370	keystroke_e	e	n/a
17.8805	0.105	35761	keystroke_l	l	n/a
18.0005	0.09	36001	keystroke_a	a	n/a
18.21	0.075	36420	keystroke_t	t	n/a
18.3	0.0755	36600	keystroke_i	i	n/a
18.48	0.12	36960	keystroke_o	o	n/a
18.601	0.0895	37202	keystroke_n	n	n/a
18.7205	0.1195	37441	keystroke_s	s	n/a
18.87	0.105	37740	keystroke_h	h	n/a
19.1255	0.075	38251	keystroke_i	i	n/a
19.3655	0.09	38731	keystroke_p	p	n/a
19.5005	0.105	39001	keystroke_s	s	n/a
19.5755	0.12	39151	keystroke_Key.space	Key.space	n/a
19.7705	0.09	39541	keystroke_a	a	n/a
19.8905	0.135	39781	keystroke_d	d	n/a
20.0555	0.1205	40111	keystroke_a	a	n/a
20.415	0.09	40830	keystroke_p	p	n/a
20.655	0.091	41310	keystroke_t	t	n/a
20.835	0.12	41670	keystroke_e	e	n/a
20.925	0.105	41850	keystroke_r	r	n/a
21	0.105	42000	keystroke_Key.space	Key.space	n/a
21.4045	0.091	42809	keystroke_h	h	n/a
21.5395	0.151	43079	keystroke_e	e	n/a
21.6605	0.135	43321	keystroke_r	r	n/a
22.0195	0.196	44039	keystroke_i	i	n/a
22.2	0.09	44400	keystroke_n	n	n/a
22.6205	0.0445	45241	keystroke_Key.backspace	Key.backspace	n/a
22.755	0.06	45510	keystroke_Key.backspace	Key.backspace	n/a
22.876	0.105	45752	keystroke_e	e	n/a
23.145	0.1205	46290	keystroke_i	i	n/a
23.2195	0.105	46439	keystroke_n	n	n/a
23.5495	0.091	47099	keystroke_Key.enter	Key.enter	n/a
23.645	6.7775	47290	prompt	n/a	talk venice choose explorer\n
24.3445	0.076	48689	keystroke_t	t	n/a
24.496	0.104	48992	keystroke_a	a	n/a
24.585	0.075	49170	keystroke_l	l	n/a
24.84	0.0305	49680	keystroke_k	k	n/a
24.886	0.09	49772	keystroke_k	k	n/a
25.0505	0.09	50101	keystroke_Key.space	Key.space	n/a
25.5155	0.06	51031	keystroke_Key.backspace	Key.backspace	n/a
25.6505	0.075	51301	keystroke_Key.backspace	Key.backspace	n/a
25.7405	0.075	51481	keystroke_Key.space	Key.space	n/a
25.8755	0.105	51751	keystroke_v	v	n/a
26.056	0.119	52112	keystroke_e	e	n/a
26.22	0.03	52440	keystroke_n	n	n/a
26.37	0.09	52740	keystroke_i	i	n/a
26.475	0.09	52950	keystroke_c	c	n/a
26.7005	0.1045	53401	keystroke_e	e	n/a
26.745	0.12	53490	keystroke_Key.space	Key.space	n/a
27.1505	0.105	54301	keystroke_c	c	n/a
27.3155	0.089	54631	keystroke_h	h	n/a
27.5255	0.075	55051	keystroke_o	o	n/a
27.6605	0.075	55321	keystroke_o	o	n/a
27.7805	0.1195	55561	keystroke_s	s	n/a
28.0505	0.105	56101	keystroke_e	e	n/a
28.11	0.1205	56220	keystroke_Key.space	Key.space	n/a
28.47	0.0605	56940	keystroke_e	e	n/a
28.725	0.1055	57450	keystroke_x	x	n/a
28.9355	0.1505	57871	keystroke_p	p	n/a
29.0255	0.1195	58051	keystroke_l	l	n/a
29.265	0.09	58530	keystroke_o	o	n/a
29.356	0.104	58712	keystroke_r	r	n/a
29.52	0.1655	59040	keystroke_e	e	n/a
29.67	0.1055	59340	keystroke_r	r	n/a
30.315	0.105	60630	keystroke_Key.enter	Key.enter	n/a
30.4265	6.911	60853	prompt	n/a	image magnificent flush adaptor\n
31.0955	0.105	62191	keystroke_i	i	n/a
31.1555	0.135	62311	keystroke_m	m	n/a
31.3055	0.09	62611	keystroke_a	a	n/a
31.4705	0.105	62941	keystroke_g	g	n/a
31.576	0.1345	63152	keystroke_e	e	n/a
31.6795	0.091	63359	keystroke_Key.space	Key.space	n/a
31.8895	0.091	63779	keystroke_m	m	n/a
31.9805	0.075	63961	keystroke_a	a	n/a
32.3705	0.0755	64741	keystroke_g	g	n/a
32.6405	0.09	65281	keystroke_n	n	n/a
33.1205	0.09	66241	keystroke_i	i	n/a
33.466	0.119	66932	keystroke_f	f	n/a
33.645	0.0905	67290	keystroke_i	i	n/a
34.096	0.0895	68192	keystroke_c	c	n/a
34.3205	0.09	68641	keystroke_e	e	n/a
34.47	0.0755	68940	keystroke_n	n	n/a
34.59	0.0905	69180	keystroke_t	t	n/a
34.6505	0.1195	69301	keystroke_Key.space	Key.space	n/a
34.89	0.091	69780	keystroke_f	f	n/a
35.056	0.09	70112	keystroke_l	l	n/a
35.2795	0.09	70559	keystroke_u	u	n/a
35.3845	0.106	70769	keystroke_s	s	n/a
35.5055	0.0905	71011	keystroke_h	h	n/a
35.6105	0.105	71221	keystroke_Key.space	Key.space	n/a
35.7455	0.12	71491	keystroke_a	a	n/a
35.8505	0.18	71701	keystroke_d	d	n/a
36.0155	0.105	72031	keystroke_a	a	n/a
36.286	0.09	72572	keystroke_p	p	n/a
36.6005	0.09	73201	keystroke_t	t	n/a
36.84	0.106	73680	keystroke_o	o	n/a
37.0055	0.0895	74011	keystroke_r	r	n/a
37.23	0.105	74460	keystroke_Key.enter	Key.enter	n/a
37.3415	12.386	74683	prompt	n/a	believe required championships brought\n
38.0555	0.09	76111	keystroke_b	b	n/a
38.13	0.0905	76260	keystroke_e	e	n/a
38.2805	0.09	76561	keystroke_l	l	n/a
38.3555	0.105	76711	keystroke_e	e	n/a
38.4905	0.09	76981	keystroke_i	i	n/a
38.6405	0.09	77281	keystroke_v	v	n/a
38.8355	0.135	77671	keystroke_e	e	n/a
38.9405	0.104	77881	keystroke_Key.space	Key.space	n/a
39.1355	0.12	78271	keystroke_r	r	n/a
39.256	0.0895	78512	keystroke_e	e	n/a
39.54	0.0605	79080	keystroke_q	q	n/a
40.1855	0.06	80371	keystroke_Key.backspace	Key.backspace	n/a
40.3345	0.0605	80669	keystroke_Key.backspace	Key.backspace	n/a
40.4555	0.074	80911	keystroke_Key.backspace	Key.backspace	n/a
40.605	0.0595	81210	keystroke_Key.backspace	Key.backspace	n/a
40.7255	0.074	81451	keystroke_Key.backspace	Key.backspace	n/a
40.875	0.06	81750	keystroke_Key.backspace	Key.backspace	n/a
41.01	0.075	82020	keystroke_Key.backspace	Key.backspace	n/a
41.3855	0.059	82771	keystroke_Key.backspace	Key.backspace	n/a
41.685	0.0905	83370	keystroke_i	i	n/a
41.82	0.09	83640	keystroke_e	e	n/a
42.12	0.09	84240	keystroke_v	v	n/a
42.33	0.136	84660	keystroke_e	e	n/a
42.4505	0.1045	84901	keystroke_Key.space	Key.space	n/a
42.916	0.104	85832	keystroke_r	r	n/a
43.3655	0.1045	86731	keystroke_e	e	n/a
43.6655	0.0905	87331	keystroke_q	q	n/a
43.8605	0.075	87721	keystroke_u	u	n/a
44.0395	0.1065	88079	keystroke_i	i	n/a
44.1755	0.135	88351	keystroke_r	r	n/a
44.3255	0.105	88651	keystroke_e	e	n/a
44.5505	0.135	89101	keystroke_d	d	n/a
44.7005	0.059	89401	keystroke_Key.space	Key.space	n/a
45.0155	0.105	90031	keystroke_c	c	n/a
45.1655	0.06	90331	keystroke_h	h	n/a
45.24	0.121	90480	keystroke_a	a	n/a
45.4505	0.09	90901	keystroke_m	m	n/a
45.7505	0.0895	91501	keystroke_p	p	n/a
46.2755	0.0745	92551	keystroke_i	i	n/a
46.5	0.09	93000	keystroke_o	o	n/a
46.68	0.0905	93360	keystroke_n	n	n/a
46.891	0.089	93782	keystroke_s	s	n/a
47.04	0.061	94080	keystroke_h	h	n/a
47.236	0.09	94472	keystroke_i	i	n/a
47.4905	0.0895	94981	keystroke_p	p	n/a
47.6245	0.105	95249	keystroke_s	s	n/a
47.7145	0.1055	95429	keystroke_Key.space	Key.space	n/a
48.136	0.075	96272	keystroke_b	b	n/a
48.36	0.105	96720	keystroke_r	r	n/a
48.4805	0.0745	96961	keystroke_o	o	n/a
48.72	0.075	97440	keystroke_u	u	n/a
49.1405	0.09	98281	keystroke_g	g	n/a
49.2605	0.09	98521	keystroke_h	h	n/a
49.4405	0.09	98881	keystroke_t	t	n/a
49.6355	0.09	99271	keystroke_Key.enter	Key.enter	n/a
49.7325	7.7505	99465	prompt	n/a	hairy house shepherd dive\n
50.401	0.075	100802	keystroke_h	h	n/a
50.4905	0.1055	100981	keystroke_a	a	n/a
50.655	0.09	101310	keystroke_i	i	n/a
50.76	0.09	101520	keystroke_r	r	n/a
50.94	0.06	101880	keystroke_y	y	n/a
51.0155	0.1045	102031	keystroke_Key.space	Key.space	n/a
51.3305	0.0445	102661	keystroke_f	f	n/a
51.6755	0.075	103351	keystroke_=	=	n/a
52.14	0.09	104280	keystroke_Key.backspace	Key.backspace	n/a
52.29	0.075	104580	keystroke_Key.backspace	Key.backspace	n/a
52.636	0.089	105272	keystroke_h	h	n/a
52.7855	0.1045	105571	keystroke_o	o	n/a
52.995	0.091	105990	keystroke_u	u	n/a
53.13	0.1205	106260	keystroke_s	s	n/a
53.37	0.1355	106740	keystroke_e	e	n/a
53.46	0.12	106920	keystroke_Key.space	Key.space	n/a
53.715	0.1055	107430	keystroke_s	s	n/a
53.835	0.075	107670	keystroke_h	h	n/a
54.1955	0.1195	108391	keystroke_e	e	n/a
54.5105	0.1055	109021	keystroke_p	p	n/a
55.3055	0.09	110611	keystroke_h	h	n/a
55.5	0.15	111000	keystroke_e	e	n/a
55.665	0.075	111330	keystroke_r	r	n/a
55.9355	0.09	111871	keystroke_d	d	n/a
56.0395	0.091	112079	keystroke_Key.space	Key.space	n/a
56.641	0.1045	113282	keystroke_d	d	n/a
56.8055	0.09	113611	keystroke_i	i	n/a
56.9705	0.075	113941	keystroke_v	v	n/a
57.21	0.076	114420	keystroke_e	e	n/a
57.3605	0.12	114721	keystroke_Key.enter	Key.enter	n/a
57.488	8.9645	114976	prompt	n/a	southeast developmental snow button\n
58.0805	0.105	116161	keystroke_s	s	n/a
58.2305	0.075	116461	keystroke_o	o	n/a
58.47	0.0455	116940	keystroke_u	u	n/a
58.56	0.09	117120	keystroke_t	t	n/a
58.725	0.075	117450	keystroke_h	h	n/a
59.25	0.09	118500	keystroke_e	e	n/a
59.43	0.1055	118860	keystroke_a	a	n/a
59.6705	0.09	119341	keystroke_s	s	n/a
59.865	0.1055	119730	keystroke_t	t	n/a
59.9405	0.09	119881	keystroke_Key.space	Key.space	n/a
60.3605	0.12	120721	keystroke_d	d	n/a
60.5705	0.105	121141	keystroke_e	e	n/a
60.8105	0.075	121621	keystroke_v	v	n/a
60.9905	0.09	121981	keystroke_e	e	n/a
61.1405	0.1055	122281	keystroke_l	l	n/a
61.6355	0.09	123271	keystroke_o	o	n/a
61.9055	0.09	123811	keystroke_p	p	n/a
62.175	0.091	124350	keystroke_m	m	n/a
62.385	0.105	124770	keystroke_e	e	n/a
62.505	0.075	125010	keystroke_n	n	n/a
62.7	0.09	125400	keystroke_t	t	n/a
62.91	0.1205	125820	keystroke_a	a	n/a
63.045	0.09	126090	keystroke_l	l	n/a
63.15	0.09	126300	keystroke_Key.space	Key.space	n/a
63.406	0.104	126812	keystroke_s	s	n/a
63.6305	0.0895	127261	keystroke_h	h	n/a
63.9305	0.0595	127861	keystroke_o	o	n/a
64.305	0.06	128610	keystroke_Key.backspace	Key.backspace	n/a
64.425	0.0605	128850	keystroke_Key.backspace	Key.backspace	n/a
64.711	0.0745	129422	keystroke_n	n	n/a
64.8605	0.09	129721	keystroke_o	o	n/a
64.9355	0.12	129871	keystroke_w	w	n/a
65.0255	0.105	130051	keystroke_Key.space	Key.space	n/a
65.1605	0.075	130321	keystroke_b	b	n/a
65.295	0.105	130590	keystroke_u	u	n/a
65.565	0.105	131130	keystroke_t	t	n/a
65.775	0.0905	131550	keystroke_t	t	n/a
65.97	0.18	131940	keystroke_o	o	n/a
66.09	0.1205	132180	keystroke_n	n	n/a
66.36	0.0905	132720	keystroke_Key.enter	Key.enter	n/a
66.4575	9.8955	132915	prompt	n/a	puzzle periodic failures moderate\n
67.2005	0.105	134401	keystroke_p	p	n/a
67.4855	0.09	134971	keystroke_u	u	n/a
67.771	0.0745	135542	keystroke_c	c	n/a
68.2055	0.0895	136411	keystroke_Key.backspace	Key.backspace	n/a
68.311	0.0445	136622	keystroke_z	z	n/a
68.445	0.076	136890	keystroke_z	z	n/a
68.64	0.106	137280	keystroke_l	l	n/a
68.805	0.1205	137610	keystroke_e	e	n/a
68.91	0.1055	137820	keystroke_Key.space	Key.space	n/a
69.1505	0.1045	138301	keystroke_p	p	n/a
69.24	0.135	138480	keystroke_e	e	n/a
69.36	0.121	138720	keystroke_r	r	n/a
69.7955	0.09	139591	keystroke_i	i	n/a
70.0205	0.09	140041	keystroke_o	o	n/a
70.1255	0.12	140251	keystroke_d	d	n/a
71.1605	0.075	142321	keystroke_i	i	n/a
71.2955	0.105	142591	keystroke_c	c	n/a
71.595	0.1045	143190	keystroke_Key.space	Key.space	n/a
72.0005	0.09	144001	keystroke_f	f	n/a
72.1655	0.1205	144331	keystroke_a	a	n/a
72.2705	0.06	144541	keystroke_i	i	n/a
72.4655	0.09	144931	keystroke_l	l	n/a
72.6005	0.105	145201	keystroke_r	r	n/a
72.8405	0.0745	145681	keystroke_u	u	n/a
73.245	0.045	146490	keystroke_Key.backspace	Key.backspace	n/a
73.38	0.045	146760	keystroke_Key.backspace	Key.backspace	n/a
73.666	0.0595	147332	keystroke_u	u	n/a
73.695	0.15	147390	keystroke_r	r	n/a
73.83	0.135	147660	keystroke_e	e	n/a
73.935	0.15	147870	keystroke_s	s	n/a
74.265	0.136	148530	keystroke_Key.space	Key.space	n/a
74.805	0.0755	149610	keystroke_m	m	n/a
74.985	0.0755	149970	keystroke_o	o	n/a
75.015	0.12	150030	keystroke_d	d	n/a
75.3	0.135	150600	keystroke_e	e	n/a
75.436	0.104	150872	keystroke_r	r	n/a
75.675	0.105	151350	keystroke_a	a	n/a
75.8405	0.09	151681	keystroke_t	t	n/a
75.945	0.105	151890	keystroke_e	e	n/a
76.245	0.1055	152490	keystroke_Key.enter	Key.enter	n/a
76.359	4.9885	152718	prompt	n/a	rock security pulling tone\n
77.041	0.075	154082	keystroke_r	r	n/a
77.1605	0.09	154321	keystroke_o	o	n/a
77.28	0.105	154560	keystroke_c	c	n/a
77.3695	0.09	154739	keystroke_k	k	n/a
77.4605	0.104	154921	keystroke_Key.space	Key.space	n/a
77.61	0.1055	155220	keystroke_s	s	n/a
77.7755	0.09	155551	keystroke_e	e	n/a
77.9995	0.0905	155999	keystroke_c	c	n/a
78.195	0.076	156390	keystroke_u	u	n/a
78.3455	0.0905	156691	keystroke_r	r	n/a
78.496	0.074	156992	keystroke_i	i	n/a
78.6305	0.0905	157261	keystroke_t	t	n/a
78.855	0.105	157710	keystroke_y	y	n/a
78.945	0.09	157890	keystroke_Key.space	Key.space	n/a
79.4255	0.0895	158851	keystroke_p	p	n/a
79.681	0.0745	159362	keystroke_u	u	n/a
79.92	0.0905	159840	keystroke_l	l	n/a
80.0555	0.09	160111	keystroke_l	l	n/a
80.3105	0.12	160621	keystroke_i	i	n/a
80.415	0.0905	160830	keystroke_n	n	n/a
80.4605	0.1345	160921	keystroke_g	g	n/a
80.5805	0.105	161161	keystroke_Key.space	Key.space	n/a
80.7455	0.09	161491	keystroke_t	t	n/a
80.8655	0.12	161731	keystroke_o	o	n/a
80.9405	0.105	161881	keystroke_n	n	n/a
81.075	0.1055	162150	keystroke_e	e	n/a
81.2405	0.105	162481	keystroke_Key.enter	Key.enter	n/a
81.3525	9.4295	162705	prompt	n/a	everyone's transparency searching tonight\n
82.006	0.0745	164012	keystroke_e	e	n/a
82.2155	0.075	164431	keystroke_v	v	n/a
82.4105	0.105	164821	keystroke_e	e	n/a
82.4855	0.09	164971	keystroke_r	r	n/a
82.6505	0.06	165301	keystroke_y	y	n/a
82.9355	0.1195	165871	keystroke_o	o	n/a
83.025	0.091	166050	keystroke_n	n	n/a
83.131	0.1045	166262	keystroke_e	e	n/a
83.2805	0.135	166561	keystroke_'	'	n/a
83.5205	0.15	167041	keystroke_s	s	n/a
83.6255	0.12	167251	keystroke_Key.space	Key.space	n/a
84.0305	0.09	168061	keystroke_t	t	n/a
84.1355	0.12	168271	keystroke_r	r	n/a
84.3	0.106	168600	keystroke_a	a	n/a
84.4355	0.0895	168871	keystroke_n	n	n/a
84.54	0.105	169080	keystroke_s	s	n/a
84.825	0.105	169650	keystroke_p	p	n/a
84.96	0.0905	169920	keystroke_a	a	n/a
85.65	0.12	171300	keystroke_r	r	n/a
86.3855	0.12	172771	keystroke_e	e	n/a
86.5205	0.075	173041	keystroke_n	n	n/a
86.6855	0.1045	173371	keystroke_c	c	n/a
86.8505	0.0745	173701	keystroke_y	y	n/a
87.0155	0.09	174031	keystroke_Key.space	Key.space	n/a
87.3305	0.09	174661	keystroke_s	s	n/a
87.4805	0.1495	174961	keystroke_e	e	n/a
87.6455	0.12	175291	keystroke_a	a	n/a
87.8105	0.09	175621	keystroke_r	r	n/a
88.0655	0.09	176131	keystroke_c	c	n/a
88.1855	0.075	176371	keystroke_h	h	n/a
88.4255	0.1045	176851	keystroke_i	i	n/a
88.5005	0.1045	177001	keystroke_n	n	n/a
88.5905	0.105	177181	keystroke_g	g	n/a
88.6795	0.121	177359	keystroke_Key.space	Key.space	n/a
88.8895	0.075	177779	keystroke_t	t	n/a
88.9805	0.075	177961	keystroke_o	o	n/a
89.0405	0.089	178081	keystroke_n	n	n/a
89.2645	0.0915	178529	keystroke_i	i	n/a
89.461	0.0745	178922	keystroke_g	g	n/a
89.595	0.0755	179190	keystroke_h	h	n/a
89.6855	0.09	179371	keystroke_t	t	n/a
90.6455	0.135	181291	keystroke_Key.enter	Key.enter	n/a
90.787	7.1205	181574	prompt	n/a	method tray such airfare\n
91.56	0.09	183120	keystroke_m	m	n/a
91.635	0.091	183270	keystroke_e	e	n/a
91.876	0.074	183752	keystroke_t	t	n/a
91.98	0.06	183960	keystroke_h	h	n/a
92.2055	0.1195	184411	keystroke_o	o	n/a
92.2805	0.12	184561	keystroke_d	d	n/a
92.3705	0.1195	184741	keystroke_Key.space	Key.space	n/a
92.6255	0.1045	185251	keystroke_t	t	n/a
92.7155	0.12	185431	keystroke_r	r	n/a
93.1645	0.03	186329	keystroke_a	a	n/a
93.2395	0.016	186479	keystroke_a	a	n/a
93.285	0.1055	186570	keystroke_y	y	n/a
93.4055	0.12	186811	keystroke_Key.space	Key.space	n/a
93.5555	0.135	187111	keystroke_s	s	n/a
93.9005	0.06	187801	keystroke_Key.backspace	Key.backspace	n/a
94.0505	0.045	188101	keystroke_Key.backspace	Key.backspace	n/a
94.1705	0.045	188341	keystroke_Key.backspace	Key.backspace	n/a
94.305	0.03	188610	keystroke_Key.backspace	Key.backspace	n/a
94.62	0.0905	189240	keystroke_y	y	n/a
94.8	0.135	189600	keystroke_Key.space	Key.space	n/a
94.995	0.12	189990	keystroke_s	s	n/a
95.16	0.075	190320	keystroke_u	u	n/a
95.31	0.1055	190620	keystroke_c	c	n/a
95.4455	0.075	190891	keystroke_h	h	n/a
95.5645	0.1055	191129	keystroke_Key.space	Key.space	n/a
96.2555	0.105	192511	keystroke_a	a	n/a
96.4055	0.0905	192811	keystroke_i	i	n/a
96.5245	0.09	193049	keystroke_r	r	n/a
96.81	0.1055	193620	keystroke_f	f	n/a
97.08	0.015	194160	keystroke_a	a	n/a
97.455	0.105	194910	keystroke_r	r	n/a
97.545	0.15	195090	keystroke_e	e	n/a
97.8	0.1055	195600	keystroke_Key.enter	Key.enter	n/a
97.9115	8.2305	195823	prompt	n/a	sufficiently putting gourmet meets\n
98.52	0.12	197040	keystroke_s	s	n/a
98.6695	0.0765	197339	keystroke_u	u	n/a
98.79	0.06	197580	keystroke_f	f	n/a
98.9105	0.089	197821	keystroke_f	f	n/a
99.06	0.09	198120	keystroke_i	i	n/a
99.211	0.104	198422	keystroke_c	c	n/a
99.3455	0.09	198691	keystroke_i	i	n/a
99.4805	0.075	198961	keystroke_a	a	n/a
99.9155	0.075	199831	keystroke_Key.backspace	Key.backspace	n/a
100.0205	0.105	200041	keystroke_e	e	n/a
100.1705	0.09	200341	keystroke_n	n	n/a
100.2905	0.09	200581	keystroke_t	t	n/a
100.755	0.12	201510	keystroke_l	l	n/a
101.0405	0.1045	202081	keystroke_y	y	n/a
101.175	0.12	202350	keystroke_Key.space	Key.space	n/a
102.0005	0.09	204001	keystroke_p	p	n/a
102.2555	0.09	204511	keystroke_u	u	n/a
102.3605	0.06	204721	keystroke_t	t	n/a
102.4955	0.06	204991	keystroke_t	t	n/a
102.6005	0.12	205201	keystroke_i	i	n/a
102.6895	0.105	205379	keystroke_n	n	n/a
102.7805	0.09	205561	keystroke_g	g	n/a
102.8545	0.12	205709	keystroke_Key.space	Key.space	n/a
103.0645	0.106	206129	keystroke_s	s	n/a
103.2305	0.09	206461	keystroke_o	o	n/a
103.635	0.0605	207270	keystroke_Key.backspace	Key.backspace	n/a
103.77	0.045	207540	keystroke_Key.backspace	Key.backspace	n/a
103.8305	0.105	207661	keystroke_g	g	n/a
104.0405	0.075	208081	keystroke_o	o	n/a
104.2805	0.06	208561	keystroke_u	u	n/a
104.3555	0.105	208711	keystroke_r	r	n/a
104.6405	0.0745	209281	keystroke_m	m	n/a
104.745	0.076	209490	keystroke_e	e	n/a
104.986	0.0745	209972	keystroke_t	t	n/a
105.0445	0.121	210089	keystroke_Key.space	Key.space	n/a
105.2995	0.105	210599	keystroke_m	m	n/a
105.3905	0.075	210781	keystroke_e	e	n/a
105.5405	0.105	211081	keystroke_e	e	n/a
105.7055	0.12	211411	keystroke_t	t	n/a
105.841	0.1345	211682	keystroke_s	s	n/a
106.036	0.1045	212072	keystroke_Key.enter	Key.enter	n/a
106.1465	7.3005	212293	prompt	n/a	guns identifies towns published\n
106.95	0.075	213900	keystroke_g	g	n/a
107.041	0.134	214082	keystroke_u	u	n/a
107.1305	0.1055	214261	keystroke_n	n	n/a
107.205	0.1355	214410	keystroke_s	s	n/a
107.3255	0.1045	214651	keystroke_Key.space	Key.space	n/a
107.566	0.074	215132	keystroke_i	i	n/a
107.67	0.1055	215340	keystroke_d	d	n/a
108.2255	0.105	216451	keystroke_e	e	n/a
108.3605	0.0895	216721	keystroke_n	n	n/a
108.525	0.06	217050	keystroke_t	t	n/a
108.735	0.075	217470	keystroke_i	i	n/a
108.855	0.105	217710	keystroke_f	f	n/a
109.005	0.0905	218010	keystroke_i	i	n/a
109.1405	0.105	218281	keystroke_e	e	n/a
109.5905	0.12	219181	keystroke_s	s	n/a
109.7255	0.105	219451	keystroke_Key.space	Key.space	n/a
110.0405	0.075	220081	keystroke_t	t	n/a
110.2355	0.0895	220471	keystroke_o	o	n/a
110.355	0.105	220710	keystroke_w	w	n/a
110.535	0.0755	221070	keystroke_n	n	n/a
110.64	0.1055	221280	keystroke_s	s	n/a
110.7605	0.105	221521	keystroke_Key.space	Key.space	n/a
110.9105	0.06	221821	keystroke_p	p	n/a
111.1805	0.0745	222361	keystroke_u	u	n/a
111.405	0.0745	222810	keystroke_b	b	n/a
111.6305	0.105	223261	keystroke_l	l	n/a
111.84	0.075	223680	keystroke_i	i	n/a
111.9005	0.1045	223801	keystroke_s	s	n/a
112.035	0.076	224070	keystroke_h	h	n/a
112.4995	0.091	224999	keystroke_e	e	n/a
112.8605	0.059	225721	keystroke_d	d	n/a
113.3405	0.1045	226681	keystroke_Key.enter	Key.enter	n/a
113.451	7.391	226902	prompt	n/a	wolf opening weekends hamilton\n
114.1505	0.1045	228301	keystroke_w	w	n/a
114.2705	0.0595	228541	keystroke_o	o	n/a
114.4795	0.0755	228959	keystroke_l	l	n/a
114.645	0.1045	229290	keystroke_f	f	n/a
114.81	0.12	229620	keystroke_Key.space	Key.space	n/a
115.1105	0.09	230221	keystroke_o	o	n/a
115.305	0.0755	230610	keystroke_p	p	n/a
115.3805	0.105	230761	keystroke_e	e	n/a
115.59	0.0755	231180	keystroke_n	n	n/a
115.8005	0.135	231601	keystroke_i	i	n/a
115.9505	0.06	231901	keystroke_n	n	n/a
115.9955	0.12	231991	keystroke_g	g	n/a
116.0855	0.12	232171	keystroke_Key.space	Key.space	n/a
116.3855	0.09	232771	keystroke_w	w	n/a
116.7005	0.075	233401	keystroke_e	e	n/a
116.8355	0.1055	233671	keystroke_e	e	n/a
117.0005	0.09	234001	keystroke_k	k	n/a
117.1355	0.075	234271	keystroke_e	e	n/a
117.3155	0.105	234631	keystroke_n	n	n/a
117.45	0.165	234900	keystroke_d	d	n/a
117.645	0.1655	235290	keystroke_s	s	n/a
117.795	0.09	235590	keystroke_Key.space	Key.space	n/a
118.095	0.0905	236190	keystroke_h	h	n/a
118.2305	0.105	236461	keystroke_a	a	n/a
118.41	0.0905	236820	keystroke_l	l	n/a
118.756	0.0745	237512	keystroke_i	i	n/a
119.2805	0.059	238561	keystroke_Key.backspace	Key.backspace	n/a
119.4005	0.0745	238801	keystroke_Key.backspace	Key.backspace	n/a
119.6405	0.075	239281	keystroke_m	m	n/a
119.8355	0.09	239671	keystroke_i	i	n/a
120.0305	0.09	240061	keystroke_l	l	n/a
120.2255	0.09	240451	keystroke_t	t	n/a
120.3755	0.12	240751	keystroke_o	o	n/a
120.4655	0.075	240931	keystroke_n	n	n/a
120.7655	0.074	241531	keystroke_Key.enter	Key.enter	n/a
120.847	11.86	241694	prompt	n/a	worcester apparently true nuclear\n
121.8	0.135	243600	keystroke_w	w	n/a
121.995	0.091	243990	keystroke_o	o	n/a
122.235	0.1205	244470	keystroke_r	r	n/a
122.61	0.1055	245220	keystroke_c	c	n/a
122.8505	0.15	245701	keystroke_e	e	n/a
123.001	0.1345	246002	keystroke_s	s	n/a
123.4805	0.12	246961	keystroke_t	t	n/a
123.8555	0.165	247711	keystroke_e	e	n/a
124.0355	0.1045	248071	keystroke_r	r	n/a
124.1405	0.105	248281	keystroke_Key.space	Key.space	n/a
124.6205	0.105	249241	keystroke_a	a	n/a
124.7105	0.075	249421	keystroke_p	p	n/a
124.8305	0.075	249661	keystroke_p	p	n/a
125.1155	0.12	250231	keystroke_a	a	n/a
125.4905	0.135	250981	keystroke_e	e	n/a
126.0745	0.045	252149	keystroke_Key.backspace	Key.backspace	n/a
126.1355	0.1045	252271	keystroke_r	r	n/a
126.3005	0.1195	252601	keystroke_e	e	n/a
126.555	0.09	253110	keystroke_n	n	n/a
126.9455	0.09	253891	keystroke_t	t	n/a
127.1105	0.12	254221	keystroke_l	l	n/a
127.3205	0.1045	254641	keystroke_y	y	n/a
127.4105	0.1195	254821	keystroke_Key.space	Key.space	n/a
127.83	0.0755	255660	keystroke_t	t	n/a
128.0405	0.089	256081	keystroke_t	t	n/a
128.295	0.1045	256590	keystroke_u	u	n/a
128.445	0.136	256890	keystroke_e	e	n/a
128.565	0.1195	257130	keystroke_Key.space	Key.space	n/a
129.105	0.0755	258210	keystroke_Key.backspace	Key.backspace	n/a
129.27	0.045	258540	keystroke_Key.backspace	Key.backspace	n/a
129.3895	0.0455	258779	keystroke_Key.backspace	Key.backspace	n/a
129.51	0.0605	259020	keystroke_Key.backspace	Key.backspace	n/a
129.615	0.12	259230	keystroke_r	r	n/a
130.83	0.1055	261660	keystroke_u	u	n/a
130.98	0.105	261960	keystroke_e	e	n/a
131.04	0.105	262080	keystroke_Key.space	Key.space	n/a
131.235	0.1055	262470	keystroke_n	n	n/a
131.445	0.09	262890	keystroke_u	u	n/a
131.625	0.121	263250	keystroke_c	c	n/a
131.8055	0.0905	263611	keystroke_l	l	n/a
132.0155	0.0895	264031	keystroke_e	e	n/a
132.24	0.105	264480	keystroke_a	a	n/a
132.4055	0.1045	264811	keystroke_r	r	n/a
132.6	0.105	265200	keystroke_Key.enter	Key.enter	n/a
132.7125	10.6595	265425	prompt	n/a	integrity civilian provincial struct\n
133.425	0.0905	266850	keystroke_i	i	n/a
133.4855	0.12	266971	keystroke_n	n	n/a
133.5905	0.09	267181	keystroke_t	t	n/a
133.7555	0.105	267511	keystroke_e	e	n/a
133.9955	0.06	267991	keystroke_g	g	n/a
134.2205	0.15	268441	keystroke_r	r	n/a
134.4605	0.105	268921	keystroke_i	i	n/a
134.5805	0.075	269161	keystroke_t	t	n/a
134.7755	0.075	269551	keystroke_y	y	n/a
134.8505	0.089	269701	keystroke_Key.space	Key.space	n/a
135.3455	0.105	270691	keystroke_c	c	n/a
135.4655	0.09	270931	keystroke_i	i	n/a
135.7945	0.076	271589	keystroke_n	n	n/a
136.2305	0.074	272461	keystroke_Key.backspace	Key.backspace	n/a
137.1	0.105	274200	keystroke_v	v	n/a
137.28	0.09	274560	keystroke_i	i	n/a
137.505	0.0905	275010	keystroke_l	l	n/a
137.7005	0.09	275401	keystroke_i	i	n/a
137.9105	0.09	275821	keystroke_a	a	n/a
138.0455	0.075	276091	keystroke_n	n	n/a
138.135	0.105	276270	keystroke_Key.space	Key.space	n/a
138.3905	0.0745	276781	keystroke_p	p	n/a
138.735	0.075	277470	keystroke_o	o	n/a
139.095	0.0455	278190	keystroke_Key.backspace	Key.backspace	n/a
139.155	0.1055	278310	keystroke_r	r	n/a
139.305	0.091	278610	keystroke_o	o	n/a
139.8455	0.1195	279691	keystroke_v	v	n/a
140.1455	0.15	280291	keystroke_i	i	n/a
140.2505	0.12	280501	keystroke_n	n	n/a
140.5955	0.045	281191	keystroke_i	i	n/a
140.7455	0.105	281491	keystroke_c	c	n/a
140.9705	0.0445	281941	keystroke_Key.backspace	Key.backspace	n/a
141.0905	0.06	282181	keystroke_Key.backspace	Key.backspace	n/a
141.1955	0.105	282391	keystroke_c	c	n/a
141.3605	0.0755	282721	keystroke_i	i	n/a
141.4505	0.119	282901	keystroke_a	a	n/a
141.6005	0.1045	283201	keystroke_l	l	n/a
141.72	0.1055	283440	keystroke_Key.space	Key.space	n/a
141.9605	0.09	283921	keystroke_s	s	n/a
142.23	0.1205	284460	keystroke_t	t	n/a
142.4105	0.135	284821	keystroke_r	r	n/a
142.665	0.105	285330	keystroke_u	u	n/a
142.8	0.105	285600	keystroke_c	c	n/a
143.0995	0.106	286199	keystroke_t	t	n/a
143.28	0.0905	286560	keystroke_Key.enter	Key.enter	n/a
143.376	6.146	286752	prompt	n/a	apparel used cayman message\n
144.0455	0.1195	288091	keystroke_a	a	n/a
144.1805	0.0755	288361	keystroke_p	p	n/a
144.3155	0.09	288631	keystroke_p	p	n/a
144.4355	0.1055	288871	keystroke_a	a	n/a
144.615	0.136	289230	keystroke_r	r	n/a
144.735	0.12	289470	keystroke_e	e	n/a
145.1255	0.104	290251	keystroke_l	l	n/a
145.2745	0.121	290549	keystroke_Key.space	Key.space	n/a
145.6655	0.089	291331	keystroke_u	u	n/a
145.7555	0.0895	291511	keystroke_s	s	n/a
145.9655	0.075	291931	keystroke_e	e	n/a
146.1755	0.12	292351	keystroke_d	d	n/a
146.2805	0.12	292561	keystroke_Key.space	Key.space	n/a
146.61	0.105	293220	keystroke_c	c	n/a
146.7905	0.1195	293581	keystroke_a	a	n/a
147.09	0.09	294180	keystroke_y	y	n/a
147.435	0.0755	294870	keystroke_m	m	n/a
147.6755	0.135	295351	keystroke_a	a	n/a
147.8255	0.0745	295651	keystroke_n	n	n/a
147.9145	0.12	295829	keystroke_Key.space	Key.space	n/a
148.186	0.0895	296372	keystroke_m	m	n/a
148.2905	0.075	296581	keystroke_e	e	n/a
148.47	0.075	296940	keystroke_s	s	n/a
148.605	0.09	297210	keystroke_s	s	n/a
148.785	0.105	297570	keystroke_a	a	n/a
149.0405	0.1505	298081	keystroke_g	g	n/a
149.176	0.104	298352	keystroke_e	e	n/a
149.415	0.105	298830	keystroke_Key.enter	Key.enter	n/a
149.5265	7.8855	299053	prompt	n/a	inspections defense publications grain\n
150.226	0.1045	300452	keystroke_i	i	n/a
150.3155	0.105	300631	keystroke_n	n	n/a
150.405	0.105	300810	keystroke_s	s	n/a
150.6005	0.09	301201	keystroke_p	p	n/a
150.6755	0.075	301351	keystroke_e	e	n/a
150.885	0.09	301770	keystroke_c	c	n/a
151.1555	0.074	302311	keystroke_t	t	n/a
151.2445	0.091	302489	keystroke_i	i	n/a
151.4545	0.135	302909	keystroke_o	o	n/a
151.575	0.0905	303150	keystroke_n	n	n/a
151.6355	0.105	303271	keystroke_s	s	n/a
151.6945	0.136	303389	keystroke_Key.space	Key.space	n/a
151.9045	0.106	303809	keystroke_d	d	n/a
152.1155	0.09	304231	keystroke_e	e	n/a
152.685	0.09	305370	keystroke_f	f	n/a
152.8805	0.1045	305761	keystroke_e	e	n/a
153.165	0.076	306330	keystroke_n	n	n/a
153.27	0.12	306540	keystroke_s	s	n/a
153.495	0.1355	306990	keystroke_e	e	n/a
153.585	0.1205	307170	keystroke_Key.space	Key.space	n/a
153.9605	0.0595	307921	keystroke_p	p	n/a
154.2155	0.0895	308431	keystroke_u	u	n/a
154.41	0.075	308820	keystroke_b	b	n/a
154.6505	0.0895	309301	keystroke_l	l	n/a
154.8755	0.0895	309751	keystroke_i	i	n/a
154.95	0.12	309900	keystroke_c	c	n/a
155.1005	0.09	310201	keystroke_a	a	n/a
155.34	0.09	310680	keystroke_t	t	n/a
155.431	0.074	310862	keystroke_i	i	n/a
155.6255	0.135	311251	keystroke_o	o	n/a
155.73	0.106	311460	keystroke_n	n	n/a
155.821	0.104	311642	keystroke_s	s	n/a
155.895	0.135	311790	keystroke_Key.space	Key.space	n/a
156.45	0.0755	312900	keystroke_g	g	n/a
156.705	0.1505	313410	keystroke_r	r	n/a
156.8555	0.135	313711	keystroke_a	a	n/a
157.0205	0.1045	314041	keystroke_i	i	n/a
157.11	0.09	314220	keystroke_n	n	n/a
157.305	0.105	314610	keystroke_Key.enter	Key.enter	n/a
157.416	7.8865	314832	prompt	n/a	dimensions aboriginal pete maria\n
158.1155	0.09	316231	keystroke_d	d	n/a
158.4005	0.135	316801	keystroke_i	i	n/a
158.4755	0.12	316951	keystroke_m	m	n/a
158.6095	0.106	317219	keystroke_e	e	n/a
159.1355	0.045	318271	keystroke_n	n	n/a
159.3455	0.105	318691	keystroke_s	s	n/a
159.4955	0.075	318991	keystroke_i	i	n/a
159.6905	0.134	319381	keystroke_o	o	n/a
159.8255	0.089	319651	keystroke_n	n	n/a
159.8855	0.09	319771	keystroke_s	s	n/a
159.9905	0.134	319981	keystroke_Key.space	Key.space	n/a
160.1855	0.105	320371	keystroke_a	a	n/a
160.3955	0.075	320791	keystroke_b	b	n/a
160.8155	0.09	321631	keystroke_o	o	n/a
160.9805	0.12	321961	keystroke_r	r	n/a
161.1455	0.0905	322291	keystroke_i	i	n/a
161.3405	0.075	322681	keystroke_g	g	n/a
161.49	0.1205	322980	keystroke_i	i	n/a
161.5655	0.119	323131	keystroke_n	n	n/a
161.8355	0.1055	323671	keystroke_a	a	n/a
161.9555	0.105	323911	keystroke_l	l	n/a
162.0905	0.1045	324181	keystroke_Key.space	Key.space	n/a
162.3605	0.0895	324721	keystroke_p	p	n/a
162.435	0.06	324870	keystroke_e	e	n/a
162.795	0.12	325590	keystroke_t	t	n/a
162.9755	0.1045	325951	keystroke_e	e	n/a
163.125	0.0905	326250	keystroke_Key.space	Key.space	n/a
163.245	0.075	326490	keystroke_Key.space	Key.space	n/a
163.4995	0.1055	326999	keystroke_m	m	n/a
163.89	0.06	327780	keystroke_Key.backspace	Key.backspace	n/a
164.01	0.075	328020	keystroke_Key.backspace	Key.backspace	n/a
164.25	0.0605	328500	keystroke_m	m	n/a
164.355	0.09	328710	keystroke_a	a	n/a
164.685	0.1055	329370	keystroke_r	r	n/a
164.88	0.0895	329760	keystroke_i	i	n/a
165.0155	0.134	330031	keystroke_a	a	n/a
165.1945	0.106	330389	keystroke_Key.enter	Key.enter	n/a
165.3125	10.279	330625	prompt	n/a	packed headphones careers absolutely\n
166.0205	0.09	332041	keystroke_p	p	n/a
166.0955	0.0895	332191	keystroke_a	a	n/a
166.2755	0.09	332551	keystroke_c	c	n/a
166.3505	0.09	332701	keystroke_k	k	n/a
166.4855	0.09	332971	keystroke_e	e	n/a
166.681	0.134	333362	keystroke_d	d	n/a
166.8005	0.105	333601	keystroke_Key.space	Key.space	n/a
166.9805	0.075	333961	keystroke_h	h	n/a
167.0405	0.105	334081	keystroke_e	e	n/a
167.1605	0.134	334321	keystroke_a	a	n/a
167.5805	0.1045	335161	keystroke_d	d	n/a
167.835	0.0755	335670	keystroke_p	p	n/a
168.4055	0.135	336811	keystroke_h	h	n/a
168.6305	0.165	337261	keystroke_o	o	n/a
168.7655	0.105	337531	keystroke_n	n	n/a
168.8855	0.12	337771	keystroke_e	e	n/a
168.9905	0.1195	337981	keystroke_s	s	n/a
169.08	0.12	338160	keystroke_Key.space	Key.space	n/a
169.305	0.105	338610	keystroke_c	c	n/a
169.74	0.135	339480	keystroke_a	a	n/a
169.98	0.075	339960	keystroke_r	r	n/a
170.1755	0.06	340351	keystroke_e	e	n/a
170.3405	0.075	340681	keystroke_e	e	n/a
170.505	0.1205	341010	keystroke_r	r	n/a
170.7005	0.1495	341401	keystroke_s	s	n/a
170.835	0.1205	341670	keystroke_Key.space	Key.space	n/a
171.075	0.12	342150	keystroke_a	a	n/a
171.195	0.151	342390	keystroke_d	d	n/a
171.585	0.0305	343170	keystroke_b	b	n/a
171.93	0.0605	343860	keystroke_Key.backspace	Key.backspace	n/a
172.05	0.075	344100	keystroke_Key.backspace	Key.backspace	n/a
172.35	0.075	344700	keystroke_b	b	n/a
172.6805	0.1045	345361	keystroke_o	o	n/a
172.92	0.1205	345840	keystroke_s	s	n/a
173.3555	0.045	346711	keystroke_Key.backspace	Key.backspace	n/a
173.4905	0.045	346981	keystroke_Key.backspace	Key.backspace	n/a
173.6405	0.12	347281	keystroke_s	s	n/a
173.8655	0.075	347731	keystroke_o	o	n/a
174.0905	0.0745	348181	keystroke_l	l	n/a
174.6155	0.074	349231	keystroke_u	u	n/a
174.7505	0.165	349501	keystroke_t	t	n/a
174.9005	0.135	349801	keystroke_e	e	n/a
175.0655	0.105	350131	keystroke_l	l	n/a
175.2155	0.09	350431	keystroke_y	y	n/a
175.4855	0.104	350971	keystroke_Key.enter	Key.enter	n/a
175.595	7.347	351190	prompt	n/a	itself installing opinion methods\n
176.1905	0.1045	352381	keystroke_i	i	n/a
176.3545	0.1055	352709	keystroke_t	t	n/a
176.581	0.119	353162	keystroke_s	s	n/a
176.715	0.12	353430	keystroke_e	e	n/a
176.88	0.105	353760	keystroke_l	l	n/a
177	0.1355	354000	keystroke_f	f	n/a
177.1055	0.12	354211	keystroke_Key.space	Key.space	n/a
177.4055	0.12	354811	keystroke_i	i	n/a
177.4955	0.12	354991	keystroke_n	n	n/a
177.6305	0.09	355261	keystroke_s	s	n/a
177.9455	0.135	355891	keystroke_t	t	n/a
178.0955	0.149	356191	keystroke_a	a	n/a
178.2305	0.075	356461	keystroke_l	l	n/a
178.3805	0.09	356761	keystroke_l	l	n/a
178.6505	0.104	357301	keystroke_i	i	n/a
178.7255	0.104	357451	keystroke_n	n	n/a
178.8005	0.12	357601	keystroke_g	g	n/a
178.8595	0.135	357719	keystroke_Key.space	Key.space	n/a
179.0995	0.091	358199	keystroke_o	o	n/a
179.3245	0.046	358649	keystroke_p	p	n/a
179.595	0.135	359190	keystroke_i	i	n/a
179.7005	0.1195	359401	keystroke_n	n	n/a
179.9705	0.0895	359941	keystroke_i	i	n/a
180.21	0.105	360420	keystroke_o	o	n/a
180.3	0.106	360600	keystroke_n	n	n/a
180.435	0.09	360870	keystroke_Key.space	Key.space	n/a
180.6005	0.09	361201	keystroke_m	m	n/a
180.7055	0.12	361411	keystroke_e	e	n/a
180.9455	0.09	361891	keystroke_t	t	n/a
181.0505	0.06	362101	keystroke_h	h	n/a
181.5305	0.0745	363061	keystroke_d	d	n/a
181.6205	0.09	363241	keystroke_o	o	n/a
181.9805	0.0745	363961	keystroke_Key.backspace	Key.backspace	n/a
182.1145	0.0605	364229	keystroke_Key.backspace	Key.backspace	n/a
182.4155	0.1045	364831	keystroke_o	o	n/a
182.5655	0.15	365131	keystroke_d	d	n/a
182.7005	0.135	365401	keystroke_s	s	n/a
182.8505	0.09	365701	keystroke_Key.enter	Key.enter	n/a
182.946	7.3025	365892	prompt	n/a	prefers walter channel contacted\n
183.6005	0.03	367201	keystroke_p	p	n/a
183.6315	0.074	367263	keystroke_e	e	n/a
183.7205	0.075	367441	keystroke_r	r	n/a
184.1405	0.06	368281	keystroke_Key.backspace	Key.backspace	n/a
184.2755	0.0745	368551	keystroke_Key.backspace	Key.backspace	n/a
184.365	0.12	368730	keystroke_r	r	n/a
184.5	0.105	369000	keystroke_e	e	n/a
184.965	0.1205	369930	keystroke_f	f	n/a
185.1905	0.1495	370381	keystroke_e	e	n/a
185.3105	0.134	370621	keystroke_r	r	n/a
185.4905	0.134	370981	keystroke_s	s	n/a
185.5805	0.1195	371161	keystroke_Key.space	Key.space	n/a
185.8355	0.135	371671	keystroke_w	w	n/a
186.0155	0.12	372031	keystroke_a	a	n/a
186.1945	0.136	372389	keystroke_l	l	n/a
186.465	0.1045	372930	keystroke_t	t	n/a
186.6005	0.18	373201	keystroke_e	e	n/a
186.7345	0.105	373469	keystroke_r	r	n/a
186.81	0.105	373620	keystroke_Key.space	Key.space	n/a
187.0505	0.105	374101	keystroke_c	c	n/a
187.17	0.06	374340	keystroke_h	h	n/a
187.2755	0.074	374551	keystroke_a	a	n/a
187.4255	0.0595	374851	keystroke_n	n	n/a
187.575	0.0605	375150	keystroke_n	n	n/a
187.7555	0.1045	375511	keystroke_e	e	n/a
187.9205	0.1195	375841	keystroke_l	l	n/a
188.1445	0.105	376289	keystroke_Key.space	Key.space	n/a
188.4605	0.1045	376921	keystroke_c	c	n/a
188.5805	0.1645	377161	keystroke_o	o	n/a
188.715	0.12	377430	keystroke_n	n	n/a
188.85	0.09	377700	keystroke_t	t	n/a
188.9705	0.105	377941	keystroke_a	a	n/a
189.1805	0.105	378361	keystroke_c	c	n/a
189.4645	0.106	378929	keystroke_t	t	n/a
189.6005	0.1195	379201	keystroke_e	e	n/a
189.8105	0.135	379621	keystroke_d	d	n/a
190.1255	0.12	380251	keystroke_Key.enter	Key.enter	n/a
190.258	11.119	380516	prompt	n/a	installed sort certified thank\n
190.9495	0.105	381899	keystroke_i	i	n/a
191.0255	0.119	382051	keystroke_n	n	n/a
191.1145	0.105	382229	keystroke_s	s	n/a
191.3545	0.0905	382709	keystroke_t	t	n/a
191.4455	0.134	382891	keystroke_a	a	n/a
191.5645	0.045	383129	keystroke_l	l	n/a
191.6995	0.0755	383399	keystroke_l	l	n/a
191.7895	0.105	383579	keystroke_e	e	n/a
192.0305	0.134	384061	keystroke_d	d	n/a
192.1345	0.1355	384269	keystroke_Key.space	Key.space	n/a
192.285	0.135	384570	keystroke_s	s	n/a
192.48	0.0905	384960	keystroke_o	o	n/a
193.11	0.1505	386220	keystroke_r	r	n/a
193.3205	0.105	386641	keystroke_t	t	n/a
193.4095	0.106	386819	keystroke_Key.space	Key.space	n/a
193.6645	0.105	387329	keystroke_c	c	n/a
193.9045	0.105	387809	keystroke_e	e	n/a
193.9805	0.074	387961	keystroke_r	r	n/a
194.1895	0.06	388379	keystroke_t	t	n/a
194.79	0.1055	389580	keystroke_f	f	n/a
194.925	0.09	389850	keystroke_i	i	n/a
195.4205	0.105	390841	keystroke_f	f	n/a
195.6155	0.075	391231	keystroke_i	i	n/a
196.0955	0.0895	392191	keystroke_e	e	n/a
196.32	0.135	392640	keystroke_d	d	n/a
196.4395	0.1055	392879	keystroke_Key.space	Key.space	n/a
196.9645	0.06	393929	keystroke_Key.backspace	Key.backspace	n/a
197.1145	0.0605	394229	keystroke_Key.backspace	Key.backspace	n/a
197.3095	0.0155	394619	keystroke_Key.backspace	Key.backspace	n/a
197.385	0.06	394770	keystroke_Key.backspace	Key.backspace	n/a
197.5505	0.045	395101	keystroke_Key.backspace	Key.backspace	n/a
197.835	0.09	395670	keystroke_Key.backspace	Key.backspace	n/a
198.57	0.075	397140	keystroke_Key.backspace	Key.backspace	n/a
198.9605	0.074	397921	keystroke_i	i	n/a
199.26	0.1045	398520	keystroke_f	f	n/a
199.41	0.0755	398820	keystroke_i	i	n/a
199.5005	0.09	399001	keystroke_e	e	n/a
199.6955	0.134	399391	keystroke_d	d	n/a
199.815	0.1045	399630	keystroke_Key.space	Key.space	n/a
200.2655	0.09	400531	keystroke_t	t	n/a
200.4005	0.045	400801	keystroke_h	h	n/a
200.431	0.1195	400862	keystroke_a	a	n/a
200.7755	0.105	401551	keystroke_n	n	n/a
201.0155	0.075	402031	keystroke_k	k	n/a
201.285	0.09	402570	keystroke_Key.enter	Key.enter	n/a
201.3815	5.6055	402763	prompt	n/a	angola washing cyber body\n
202.0205	0.12	404041	keystroke_a	a	n/a
202.1095	0.0905	404219	keystroke_n	n	n/a
202.35	0.09	404700	keystroke_g	g	n/a
202.47	0.09	404940	keystroke_o	o	n/a
202.665	0.09	405330	keystroke_l	l	n/a
202.83	0.135	405660	keystroke_a	a	n/a
202.935	0.135	405870	keystroke_Key.space	Key.space	n/a
203.595	0.1055	407190	keystroke_w	w	n/a
203.7005	0.135	407401	keystroke_a	a	n/a
203.85	0.1055	407700	keystroke_s	s	n/a
204.0005	0.075	408001	keystroke_h	h	n/a
204.2405	0.0895	408481	keystroke_i	i	n/a
204.3005	0.1045	408601	keystroke_n	n	n/a
204.375	0.105	408750	keystroke_g	g	n/a
204.45	0.09	408900	keystroke_Key.space	Key.space	n/a
204.66	0.105	409320	keystroke_c	c	n/a
205.155	0.06	410310	keystroke_y	y	n/a
205.44	0.09	410880	keystroke_b	b	n/a
205.605	0.165	411210	keystroke_e	e	n/a
205.74	0.12	411480	keystroke_r	r	n/a
205.815	0.105	411630	keystroke_Key.space	Key.space	n/a
206.2055	0.0745	412411	keystroke_b	b	n/a
206.385	0.09	412770	keystroke_o	o	n/a
206.49	0.1055	412980	keystroke_d	d	n/a
206.67	0.0455	413340	keystroke_y	y	n/a
206.895	0.09	413790	keystroke_Key.enter	Key.enter	n/a
206.9915	9.19	413983	prompt	n/a	scored techniques turner western\n
207.7505	0.105	415501	keystroke_s	s	n/a
207.9155	0.1195	415831	keystroke_c	c	n/a
208.0645	0.076	416129	keystroke_o	o	n/a
208.2005	0.1045	416401	keystroke_r	r	n/a
208.3205	0.104	416641	keystroke_e	e	n/a
208.5605	0.12	417121	keystroke_d	d	n/a
208.6655	0.1045	417331	keystroke_Key.space	Key.space	n/a
208.905	0.1055	417810	keystroke_t	t	n/a
208.995	0.1355	417990	keystroke_e	e	n/a
209.265	0.105	418530	keystroke_c	c	n/a
209.4305	0.09	418861	keystroke_h	h	n/a
209.985	0.0905	419970	keystroke_n	n	n/a
210.27	0.075	420540	keystroke_i	i	n/a
210.975	0.09	421950	keystroke_q	q	n/a
211.08	0.075	422160	keystroke_u	u	n/a
211.26	0.1355	422520	keystroke_e	e	n/a
211.3655	0.1495	422731	keystroke_s	s	n/a
211.485	0.12	422970	keystroke_Key.space	Key.space	n/a
211.77	0.105	423540	keystroke_t	t	n/a
211.935	0.09	423870	keystroke_u	u	n/a
212.055	0.105	424110	keystroke_r	r	n/a
212.175	0.12	424350	keystroke_n	n	n/a
212.52	0.135	425040	keystroke_e	e	n/a
212.64	0.1055	425280	keystroke_r	r	n/a
212.7155	0.1045	425431	keystroke_Key.space	Key.space	n/a
213	0.105	426000	keystroke_e	e	n/a
213.54	0.06	427080	keystroke_Key.backspace	Key.backspace	n/a
213.585	0.1205	427170	keystroke_w	w	n/a
213.72	0.15	427440	keystroke_a	a	n/a
214.215	0.0145	428430	keystroke_s	s	n/a
214.38	0.045	428760	keystroke_Key.backspace	Key.backspace	n/a
214.6205	0.09	429241	keystroke_e	e	n/a
214.725	0.03	429450	keystroke_Key.backspace	Key.backspace	n/a
214.95	0.09	429900	keystroke_Key.backspace	Key.backspace	n/a
215.1	0.165	430200	keystroke_e	e	n/a
215.2355	0.15	430471	keystroke_s	s	n/a
215.4295	0.105	430859	keystroke_t	t	n/a
215.58	0.1495	431160	keystroke_e	e	n/a
215.7005	0.12	431401	keystroke_r	r	n/a
215.8355	0.09	431671	keystroke_n	n	n/a
216.0895	0.09	432179	keystroke_Key.enter	Key.enter	n/a
216.186	6.191	432372	prompt	n/a	warriors announce source plain\n
216.885	0.015	433770	keystroke_w	w	n/a
216.9155	0.0445	433831	keystroke_a	a	n/a
217.05	0.075	434100	keystroke_r	r	n/a
217.185	0.0895	434370	keystroke_r	r	n/a
217.3195	0.0755	434639	keystroke_i	i	n/a
217.53	0.09	435060	keystroke_o	o	n/a
217.65	0.135	435300	keystroke_r	r	n/a
217.8	0.135	435600	keystroke_s	s	n/a
217.92	0.105	435840	keystroke_Key.space	Key.space	n/a
218.1005	0.104	436201	keystroke_a	a	n/a
218.235	0.075	436470	keystroke_n	n	n/a
218.37	0.075	436740	keystroke_n	n	n/a
218.61	0.075	437220	keystroke_o	o	n/a
218.85	0.09	437700	keystroke_u	u	n/a
218.91	0.135	437820	keystroke_n	n	n/a
219.375	0.1055	438750	keystroke_c	c	n/a
219.6455	0.105	439291	keystroke_e	e	n/a
219.7205	0.15	439441	keystroke_Key.space	Key.space	n/a
219.9005	0.12	439801	keystroke_s	s	n/a
220.0345	0.076	440069	keystroke_o	o	n/a
220.2605	0.09	440521	keystroke_u	u	n/a
220.3505	0.09	440701	keystroke_r	r	n/a
220.5905	0.09	441181	keystroke_c	c	n/a
220.815	0.1045	441630	keystroke_e	e	n/a
220.89	0.12	441780	keystroke_Key.space	Key.space	n/a
221.0545	0.1655	442109	keystroke_p	p	n/a
221.16	0.12	442320	keystroke_l	l	n/a
221.295	0.09	442590	keystroke_a	a	n/a
221.8345	0.1655	443669	keystroke_i	i	n/a
221.9845	0.105	443969	keystroke_n	n	n/a
222.2695	0.106	444539	keystroke_Key.enter	Key.enter	n/a
222.382	4.915	444764	prompt	n/a	chair trees palm undo\n
222.9755	0.105	445951	keystroke_c	c	n/a
223.1105	0.09	446221	keystroke_h	h	n/a
223.1855	0.09	446371	keystroke_a	a	n/a
223.3355	0.1045	446671	keystroke_i	i	n/a
223.44	0.1055	446880	keystroke_r	r	n/a
223.53	0.119	447060	keystroke_Key.space	Key.space	n/a
223.95	0.045	447900	keystroke_t	t	n/a
224.04	0.12	448080	keystroke_r	r	n/a
224.31	0.0755	448620	keystroke_e	e	n/a
224.505	0.105	449010	keystroke_e	e	n/a
224.64	0.1355	449280	keystroke_s	s	n/a
224.73	0.135	449460	keystroke_Key.space	Key.space	n/a
225.285	0.105	450570	keystroke_p	p	n/a
225.435	0.1205	450870	keystroke_a	a	n/a
225.57	0.105	451140	keystroke_l	l	n/a
225.78	0.105	451560	keystroke_m	m	n/a
225.9	0.135	451800	keystroke_Key.space	Key.space	n/a
226.275	0.135	452550	keystroke_u	u	n/a
226.68	0.12	453360	keystroke_n	n	n/a
226.875	0.1205	453750	keystroke_d	d	n/a
227.01	0.105	454020	keystroke_o	o	n/a
227.19	0.105	454380	keystroke_Key.enter	Key.enter	n/a
227.3015	9.3865	454603	prompt	n/a	russell blvd newton fabulous\n
228.0895	0.136	456179	keystroke_r	r	n/a
228.4345	0.105	456869	keystroke_u	u	n/a
228.5705	0.075	457141	keystroke_s	s	n/a
228.72	0.09	457440	keystroke_s	s	n/a
228.9	0.075	457800	keystroke_e	e	n/a
229.08	0.045	458160	keystroke_e	e	n/a
229.155	0.09	458310	keystroke_l	l	n/a
229.62	0.06	459240	keystroke_Key.backspace	Key.backspace	n/a
229.74	0.09	459480	keystroke_Key.backspace	Key.backspace	n/a
229.965	0.075	459930	keystroke_l	l	n/a
230.085	0.075	460170	keystroke_l	l	n/a
230.205	0.1045	460410	keystroke_Key.space	Key.space	n/a
230.52	0.0455	461040	keystroke_b	b	n/a
230.73	0.105	461460	keystroke_l	l	n/a
231.8105	0.12	463621	keystroke_v	v	n/a
232.0655	0.12	464131	keystroke_d	d	n/a
232.2895	0.1205	464579	keystroke_Key.space	Key.space	n/a
232.68	0.1045	465360	keystroke_n	n	n/a
233.0245	0.0905	466049	keystroke_e	e	n/a
233.22	0.105	466440	keystroke_w	w	n/a
233.46	0.105	466920	keystroke_t	t	n/a
233.64	0.12	467280	keystroke_o	o	n/a
233.745	0.1075	467490	keystroke_n	n	n/a
233.8645	0.135	467729	keystroke_Key.space	Key.space	n/a
234.255	0.1205	468510	keystroke_f	f	n/a
234.4055	0.1045	468811	keystroke_a	a	n/a
234.54	0.09	469080	keystroke_b	b	n/a
234.945	0.045	469890	keystroke_u	u	n/a
235.9345	0.106	471869	keystroke_l	l	n/a
236.1455	0.0745	472291	keystroke_o	o	n/a
236.3545	0.061	472709	keystroke_u	u	n/a
236.4455	0.105	472891	keystroke_s	s	n/a
236.595	0.0895	473190	keystroke_Key.enter	Key.enter	n/a
236.6915	7.945	473383	prompt	n/a	substitute created legal available\n
237.2255	0.135	474451	keystroke_s	s	n/a
237.4045	0.1355	474809	keystroke_u	u	n/a
237.5405	0.135	475081	keystroke_b	b	n/a
237.6905	0.12	475381	keystroke_s	s	n/a
237.9905	0.089	475981	keystroke_t	t	n/a
238.1245	0.091	476249	keystroke_i	i	n/a
238.3045	0.0905	476609	keystroke_t	t	n/a
238.4395	0.1055	476879	keystroke_u	u	n/a
239.01	0.12	478020	keystroke_t	t	n/a
239.16	0.12	478320	keystroke_e	e	n/a
239.25	0.12	478500	keystroke_Key.space	Key.space	n/a
239.565	0.105	479130	keystroke_c	c	n/a
239.805	0.1495	479610	keystroke_r	r	n/a
239.9395	0.12	479879	keystroke_e	e	n/a
240.0445	0.12	480089	keystroke_a	a	n/a
240.2545	0.0755	480509	keystroke_t	t	n/a
240.3445	0.09	480689	keystroke_e	e	n/a
240.57	0.15	481140	keystroke_d	d	n/a
240.7045	0.1355	481409	keystroke_Key.space	Key.space	n/a
241.3345	0.105	482669	keystroke_l	l	n/a
241.471	0.1045	482942	keystroke_e	e	n/a
241.6655	0.09	483331	keystroke_g	g	n/a
241.8305	0.1045	483661	keystroke_a	a	n/a
242.3255	0.12	484651	keystroke_l	l	n/a
242.49	0.12	484980	keystroke_Key.space	Key.space	n/a
243.06	0.105	486120	keystroke_a	a	n/a
243.225	0.1205	486450	keystroke_v	v	n/a
243.36	0.12	486720	keystroke_a	a	n/a
243.54	0.075	487080	keystroke_i	i	n/a
243.735	0.1345	487470	keystroke_l	l	n/a
243.9145	0.091	487829	keystroke_a	a	n/a
244.0355	0.0895	488071	keystroke_b	b	n/a
244.2005	0.105	488401	keystroke_l	l	n/a
244.3055	0.119	488611	keystroke_e	e	n/a
244.5295	0.1055	489059	keystroke_Key.enter	Key.enter	n/a
244.6405	6.821	489281	prompt	n/a	resorts dinner trainer operations\n
245.31	0.1205	490620	keystroke_r	r	n/a
245.4155	0.165	490831	keystroke_e	e	n/a
245.9105	0.1045	491821	keystroke_s	s	n/a
246.09	0.0905	492180	keystroke_o	o	n/a
246.5105	0.09	493021	keystroke_i	i	n/a
247.005	0.0905	494010	keystroke_Key.backspace	Key.backspace	n/a
247.1105	0.0895	494221	keystroke_r	r	n/a
247.3055	0.119	494611	keystroke_t	t	n/a
247.5145	0.121	495029	keystroke_s	s	n/a
247.6195	0.136	495239	keystroke_Key.space	Key.space	n/a
247.8895	0.1055	495779	keystroke_d	d	n/a
248.01	0.06	496020	keystroke_i	i	n/a
248.205	0.045	496410	keystroke_n	n	n/a
248.295	0.09	496590	keystroke_n	n	n/a
248.415	0.135	496830	keystroke_e	e	n/a
248.5205	0.1045	497041	keystroke_r	r	n/a
248.595	0.135	497190	keystroke_Key.space	Key.space	n/a
248.79	0.12	497580	keystroke_t	t	n/a
248.91	0.15	497820	keystroke_r	r	n/a
249.03	0.15	498060	keystroke_a	a	n/a
249.195	0.1205	498390	keystroke_i	i	n/a
249.285	0.105	498570	keystroke_n	n	n/a
249.435	0.135	498870	keystroke_e	e	n/a
249.555	0.135	499110	keystroke_r	r	n/a
249.63	0.15	499260	keystroke_Key.space	Key.space	n/a
249.9	0.075	499800	keystroke_o	o	n/a
250.095	0.1055	500190	keystroke_p	p	n/a
250.1405	0.135	500281	keystroke_e	e	n/a
250.2455	0.15	500491	keystroke_r	r	n/a
250.4405	0.15	500881	keystroke_a	a	n/a
250.6205	0.1195	501241	keystroke_t	t	n/a
250.755	0.0905	501510	keystroke_i	i	n/a
250.9655	0.12	501931	keystroke_o	o	n/a
251.0555	0.105	502111	keystroke_n	n	n/a
251.1455	0.12	502291	keystroke_s	s	n/a
251.3555	0.104	502711	keystroke_Key.enter	Key.enter	n/a
251.468	7.4935	502936	prompt	n/a	domestic orlando return experienced\n
252.165	0.105	504330	keystroke_d	d	n/a
252.315	0.12	504630	keystroke_o	o	n/a
252.42	0.0905	504840	keystroke_m	m	n/a
252.525	0.12	505050	keystroke_e	e	n/a
252.69	0.0905	505380	keystroke_s	s	n/a
252.885	0.075	505770	keystroke_t	t	n/a
253.035	0.135	506070	keystroke_e	e	n/a
253.14	0.0905	506280	keystroke_r	r	n/a
253.53	0.045	507060	keystroke_Key.backspace	Key.backspace	n/a
253.635	0.0305	507270	keystroke_Key.backspace	Key.backspace	n/a
253.8455	0.0745	507691	keystroke_i	i	n/a
253.935	0.12	507870	keystroke_c	c	n/a
254.1155	0.1045	508231	keystroke_Key.space	Key.space	n/a
254.3855	0.0895	508771	keystroke_o	o	n/a
254.52	0.105	509040	keystroke_r	r	n/a
254.73	0.09	509460	keystroke_l	l	n/a
254.8355	0.105	509671	keystroke_a	a	n/a
254.985	0.105	509970	keystroke_n	n	n/a
255.1055	0.1195	510211	keystroke_d	d	n/a
255.405	0.0605	510810	keystroke_o	o	n/a
255.54	0.135	511080	keystroke_Key.space	Key.space	n/a
255.8255	0.104	511651	keystroke_r	r	n/a
255.9	0.1195	511800	keystroke_e	e	n/a
256.1405	0.105	512281	keystroke_t	t	n/a
256.5005	0.0895	513001	keystroke_u	u	n/a
256.71	0.0905	513420	keystroke_r	r	n/a
256.8305	0.1045	513661	keystroke_n	n	n/a
256.9055	0.12	513811	keystroke_Key.space	Key.space	n/a
257.175	0.075	514350	keystroke_e	e	n/a
257.3855	0.1195	514771	keystroke_x	x	n/a
257.565	0.105	515130	keystroke_p	p	n/a
257.7	0.105	515400	keystroke_e	e	n/a
257.775	0.12	515550	keystroke_r	r	n/a
257.955	0.075	515910	keystroke_i	i	n/a
258.06	0.105	516120	keystroke_e	e	n/a
258.225	0.075	516450	keystroke_n	n	n/a
258.3595	0.105	516719	keystroke_c	c	n/a
258.5845	0.0915	517169	keystroke_e	e	n/a
258.7795	0.1055	517559	keystroke_d	d	n/a
258.87	0.09	517740	keystroke_Key.enter	Key.enter	n/a
258.966	10.4955	517932	prompt	n/a	municipality conditions race specifies\n
259.77	0.075	519540	keystroke_m	m	n/a
260.19	0.12	520380	keystroke_u	u	n/a
260.4295	0.09	520859	keystroke_n	n	n/a
260.6255	0.09	521251	keystroke_i	i	n/a
260.7455	0.105	521491	keystroke_c	c	n/a
261.2405	0.105	522481	keystroke_p	p	n/a
261.6005	0.089	523201	keystroke_i	i	n/a
262.1405	0.059	524281	keystroke_Key.backspace	Key.backspace	n/a
262.26	0.0605	524520	keystroke_Key.backspace	Key.backspace	n/a
263.175	0.0895	526350	keystroke_i	i	n/a
263.445	0.0905	526890	keystroke_p	p	n/a
263.5645	0.105	527129	keystroke_a	a	n/a
263.7455	0.09	527491	keystroke_l	l	n/a
263.9855	0.075	527971	keystroke_i	i	n/a
264.1205	0.0595	528241	keystroke_t	t	n/a
264.33	0.09	528660	keystroke_y	y	n/a
264.405	0.105	528810	keystroke_Key.space	Key.space	n/a
264.8095	0.1055	529619	keystroke_c	c	n/a
264.93	0.12	529860	keystroke_o	o	n/a
264.99	0.105	529980	keystroke_n	n	n/a
265.275	0.1205	530550	keystroke_d	d	n/a
265.425	0.0905	530850	keystroke_i	i	n/a
265.62	0.0895	531240	keystroke_t	t	n/a
265.7395	0.075	531479	keystroke_i	i	n/a
265.9205	0.104	531841	keystroke_o	o	n/a
265.995	0.1055	531990	keystroke_n	n	n/a
266.0855	0.1045	532171	keystroke_s	s	n/a
266.1445	0.1355	532289	keystroke_Key.space	Key.space	n/a
266.3555	0.1345	532711	keystroke_r	r	n/a
266.491	0.119	532982	keystroke_a	a	n/a
266.67	0.12	533340	keystroke_c	c	n/a
266.91	0.09	533820	keystroke_e	e	n/a
266.97	0.135	533940	keystroke_Key.space	Key.space	n/a
267.135	0.1195	534270	keystroke_s	s	n/a
267.4345	0.015	534869	keystroke_p	p	n/a
267.54	0.0905	535080	keystroke_e	e	n/a
267.765	0.12	535530	keystroke_c	c	n/a
267.975	0.075	535950	keystroke_i	i	n/a
268.41	0.12	536820	keystroke_f	f	n/a
268.845	0.075	537690	keystroke_i	i	n/a
268.98	0.135	537960	keystroke_e	e	n/a
269.1	0.15	538200	keystroke_s	s	n/a
269.355	0.105	538710	keystroke_Key.enter	Key.enter	n/a
269.4655	6.851	538931	prompt	n/a	selecting secretary myspace laugh\n
270.0755	0.12	540151	keystroke_s	s	n/a
270.2695	0.076	540539	keystroke_e	e	n/a
270.3455	0.105	540691	keystroke_l	l	n/a
270.4355	0.09	540871	keystroke_e	e	n/a
270.6605	0.105	541321	keystroke_c	c	n/a
270.9305	0.075	541861	keystroke_t	t	n/a
271.0645	0.1055	542129	keystroke_i	i	n/a
271.14	0.1055	542280	keystroke_n	n	n/a
271.23	0.1195	542460	keystroke_g	g	n/a
271.32	0.1505	542640	keystroke_Key.space	Key.space	n/a
271.5445	0.09	543089	keystroke_s	s	n/a
271.7395	0.09	543479	keystroke_e	e	n/a
272.0545	0.1055	544109	keystroke_c	c	n/a
272.34	0.0905	544680	keystroke_r	r	n/a
272.431	0.1195	544862	keystroke_e	e	n/a
272.6555	0.0755	545311	keystroke_t	t	n/a
272.835	0.1045	545670	keystroke_a	a	n/a
272.9695	0.1055	545939	keystroke_r	r	n/a
273.18	0.0745	546360	keystroke_y	y	n/a
273.2695	0.09	546539	keystroke_Key.space	Key.space	n/a
273.6145	0.09	547229	keystroke_m	m	n/a
273.8695	0.075	547739	keystroke_y	y	n/a
274.2145	0.076	548429	keystroke_s	s	n/a
274.4105	0.1045	548821	keystroke_p	p	n/a
274.6195	0.105	549239	keystroke_a	a	n/a
274.86	0.105	549720	keystroke_c	c	n/a
275.085	0.12	550170	keystroke_e	e	n/a
275.145	0.12	550290	keystroke_Key.space	Key.space	n/a
275.5045	0.106	551009	keystroke_l	l	n/a
275.5795	0.121	551159	keystroke_a	a	n/a
275.775	0.0755	551550	keystroke_u	u	n/a
275.88	0.0895	551760	keystroke_g	g	n/a
276	0.0895	552000	keystroke_h	h	n/a
276.2245	0.09	552449	keystroke_Key.enter	Key.enter	n/a
276.322	8.5755	552644	prompt	n/a	forest vitamin appears outlined\n
277.02	0.1055	554040	keystroke_f	f	n/a
277.23	0.075	554460	keystroke_o	o	n/a
277.275	0.135	554550	keystroke_r	r	n/a
277.395	0.15	554790	keystroke_e	e	n/a
277.5305	0.1345	555061	keystroke_s	s	n/a
277.71	0.1055	555420	keystroke_t	t	n/a
277.8	0.09	555600	keystroke_Key.space	Key.space	n/a
278.0705	0.09	556141	keystroke_v	v	n/a
278.2355	0.089	556471	keystroke_i	i	n/a
278.3545	0.105	556709	keystroke_t	t	n/a
278.4745	0.12	556949	keystroke_a	a	n/a
278.6395	0.09	557279	keystroke_m	m	n/a
278.8345	0.105	557669	keystroke_e	e	n/a
278.9695	0.075	557939	keystroke_n	n	n/a
279.0745	0.105	558149	keystroke_Key.space	Key.space	n/a
279.2995	0.105	558599	keystroke_a	a	n/a
279.3895	0.076	558779	keystroke_p	p	n/a
279.5255	0.104	559051	keystroke_p	p	n/a
279.6145	0.12	559229	keystroke_e	e	n/a
279.7505	0.119	559501	keystroke_a	a	n/a
279.885	0.1205	559770	keystroke_r	r	n/a
280.3805	0.059	560761	keystroke_Key.backspace	Key.backspace	n/a
280.5145	0.09	561029	keystroke_Key.backspace	Key.backspace	n/a
280.6645	0.045	561329	keystroke_Key.backspace	Key.backspace	n/a
280.8	0.06	561600	keystroke_Key.backspace	Key.backspace	n/a
280.935	0.075	561870	keystroke_Key.backspace	Key.backspace	n/a
281.085	0.06	562170	keystroke_Key.backspace	Key.backspace	n/a
281.22	0.075	562440	keystroke_Key.backspace	Key.backspace	n/a
281.37	0.06	562740	keystroke_Key.backspace	Key.backspace	n/a
281.535	0.045	563070	keystroke_Key.backspace	Key.backspace	n/a
281.8955	0.1495	563791	keystroke_i	i	n/a
282	0.1205	564000	keystroke_n	n	n/a
282.0745	0.1355	564149	keystroke_Key.space	Key.space	n/a
282.285	0.1195	564570	keystroke_a	a	n/a
282.3895	0.0605	564779	keystroke_p	p	n/a
282.5095	0.091	565019	keystroke_p	p	n/a
282.7795	0.135	565559	keystroke_e	e	n/a
282.93	0.1345	565860	keystroke_a	a	n/a
283.0795	0.1205	566159	keystroke_r	r	n/a
283.215	0.1045	566430	keystroke_s	s	n/a
283.305	0.1195	566610	keystroke_Key.space	Key.space	n/a
283.68	0.0745	567360	keystroke_o	o	n/a
283.8745	0.076	567749	keystroke_u	u	n/a
283.965	0.0905	567930	keystroke_t	t	n/a
284.1305	0.0745	568261	keystroke_l	l	n/a
284.34	0.105	568680	keystroke_i	i	n/a
284.415	0.12	568830	keystroke_n	n	n/a
284.52	0.075	569040	keystroke_e	e	n/a
284.715	0.09	569430	keystroke_d	d	n/a
284.79	0.105	569580	keystroke_Key.enter	Key.enter	n/a
284.9015	8.126	569803	prompt	n/a	synthesis searched excellent trembl\n
285.57	0.105	571140	keystroke_s	s	n/a
285.795	0.075	571590	keystroke_y	y	n/a
286.02	0.09	572040	keystroke_n	n	n/a
286.1845	0.09	572369	keystroke_t	t	n/a
286.38	0.0755	572760	keystroke_h	h	n/a
286.485	0.1195	572970	keystroke_e	e	n/a
286.98	0.12	573960	keystroke_s	s	n/a
287.1445	0.0905	574289	keystroke_i	i	n/a
287.25	0.105	574500	keystroke_s	s	n/a
287.5345	0.1205	575069	keystroke_Key.space	Key.space	n/a
287.8195	0.0605	575639	keystroke_s	s	n/a
287.94	0.1655	575880	keystroke_e	e	n/a
288.12	0.105	576240	keystroke_a	a	n/a
288.27	0.09	576540	keystroke_r	r	n/a
288.4955	0.105	576991	keystroke_c	c	n/a
288.675	0.075	577350	keystroke_h	h	n/a
288.78	0.0755	577560	keystroke_e	e	n/a
288.96	0.1355	577920	keystroke_d	d	n/a
289.065	0.1495	578130	keystroke_Key.space	Key.space	n/a
289.3045	0.061	578609	keystroke_e	e	n/a
289.4995	0.1205	578999	keystroke_x	x	n/a
289.71	0.1055	579420	keystroke_c	c	n/a
289.9645	0.075	579929	keystroke_e	e	n/a
290.0545	0.06	580109	keystroke_l	l	n/a
290.22	0.075	580440	keystroke_l	l	n/a
290.3105	0.1045	580621	keystroke_e	e	n/a
290.5055	0.0755	581011	keystroke_n	n	n/a
290.6245	0.1055	581249	keystroke_t	t	n/a
290.6995	0.105	581399	keystroke_Key.space	Key.space	n/a
290.9695	0.1355	581939	keystroke_t	t	n/a
291.0745	0.15	582149	keystroke_r	r	n/a
291.405	0.1045	582810	keystroke_e	e	n/a
291.5545	0.09	583109	keystroke_m	m	n/a
292.4105	0.045	584821	keystroke_b	b	n/a
292.5895	0.105	585179	keystroke_l	l	n/a
292.935	0.0895	585870	keystroke_Key.enter	Key.enter	n/a
293.032	11.935	586064	prompt	n/a	should've knight don't nebraska\n
293.5345	0.12	587069	keystroke_s	s	n/a
293.7895	0.0605	587579	keystroke_h	h	n/a
293.9395	0.105	587879	keystroke_o	o	n/a
294.1055	0.074	588211	keystroke_u	u	n/a
294.3155	0.09	588631	keystroke_l	l	n/a
294.435	0.105	588870	keystroke_d	d	n/a
294.855	0.09	589710	keystroke_v	v	n/a
295.245	0.0745	590490	keystroke_Key.backspace	Key.backspace	n/a
295.5155	0.09	591031	keystroke_;	;	n/a
295.6055	0.105	591211	keystroke_v	v	n/a
296.1895	0.0755	592379	keystroke_Key.backspace	Key.backspace	n/a
296.325	0.0595	592650	keystroke_Key.backspace	Key.backspace	n/a
297.5855	0.06	595171	keystroke_'	'	n/a
297.7505	0.0895	595501	keystroke_v	v	n/a
298.0055	0.105	596011	keystroke_e	e	n/a
298.125	0.1355	596250	keystroke_Key.space	Key.space	n/a
298.7545	0.1205	597509	keystroke_k	k	n/a
298.86	0.0605	597720	keystroke_n	n	n/a
299.055	0.0745	598110	keystroke_i	i	n/a
299.2045	0.0905	598409	keystroke_g	g	n/a
299.37	0.0295	598740	keystroke_h	h	n/a
299.415	0.1195	598830	keystroke_t	t	n/a
299.5045	0.12	599009	keystroke_Key.space	Key.space	n/a
299.8055	0.12	599611	keystroke_d	d	n/a
300.0895	0.15	600179	keystroke_n	n	n/a
300.5845	0.075	601169	keystroke_Key.backspace	Key.backspace	n/a
300.9005	0.165	601801	keystroke_o	o	n/a
301.0195	0.135	602039	keystroke_n	n	n/a
301.3645	0.135	602729	keystroke_'	'	n/a
301.5905	0.12	603181	keystroke_t	t	n/a
301.665	0.1195	603330	keystroke_Key.space	Key.space	n/a
302.655	0.105	605310	keystroke_n	n	n/a
302.745	0.105	605490	keystroke_e	e	n/a
303.27	0.09	606540	keystroke_b	b	n/a
303.3755	0.1495	606751	keystroke_r	r	n/a
303.51	0.105	607020	keystroke_a	a	n/a
303.75	0.1205	607500	keystroke_s	s	n/a
304.14	0.1045	608280	keystroke_k	k	n/a
304.29	0.135	608580	keystroke_a	a	n/a
304.8445	0.12	609689	keystroke_Key.enter	Key.enter	n/a
304.9715	5.83	609943	prompt	n/a	valued allan acid button\n
305.745	0.0745	611490	keystroke_v	v	n/a
305.9105	0.119	611821	keystroke_a	a	n/a
306.015	0.09	612030	keystroke_l	l	n/a
306.225	0.075	612450	keystroke_u	u	n/a
306.33	0.075	612660	keystroke_e	e	n/a
306.525	0.135	613050	keystroke_d	d	n/a
306.615	0.135	613230	keystroke_Key.space	Key.space	n/a
306.765	0.1195	613530	keystroke_a	a	n/a
306.8695	0.0755	613739	keystroke_l	l	n/a
307.005	0.1045	614010	keystroke_l	l	n/a
307.14	0.12	614280	keystroke_a	a	n/a
307.275	0.0745	614550	keystroke_n	n	n/a
307.3495	0.135	614699	keystroke_Key.space	Key.space	n/a
307.605	0.09	615210	keystroke_a	a	n/a
308.0095	0.105	616019	keystroke_c	c	n/a
308.25	0.09	616500	keystroke_i	i	n/a
308.4	0.12	616800	keystroke_d	d	n/a
308.5945	0.105	617189	keystroke_Key.space	Key.space	n/a
308.8345	0.076	617669	keystroke_b	b	n/a
309.0005	0.089	618001	keystroke_u	u	n/a
309.1195	0.075	618239	keystroke_t	t	n/a
309.2695	0.075	618539	keystroke_t	t	n/a
309.4205	0.164	618841	keystroke_i	i	n/a
309.5395	0.105	619079	keystroke_n	n	n/a
309.9445	0.045	619889	keystroke_Key.backspace	Key.backspace	n/a
310.0795	0.0455	620159	keystroke_Key.backspace	Key.backspace	n/a
310.3205	0.18	620641	keystroke_o	o	n/a
310.4395	0.12	620879	keystroke_n	n	n/a
310.71	0.09	621420	keystroke_Key.enter	Key.enter	n/a
310.8055	11.966	621611	prompt	n/a	confusion organizations acids click\n
311.5055	0.1045	623011	keystroke_c	c	n/a
311.6245	0.1055	623249	keystroke_o	o	n/a
311.6995	0.105	623399	keystroke_n	n	n/a
311.8795	0.105	623759	keystroke_s	s	n/a
312.51	0.0895	625020	keystroke_Key.backspace	Key.backspace	n/a
312.7055	0.1345	625411	keystroke_f	f	n/a
312.9305	0.075	625861	keystroke_u	u	n/a
313.545	0.135	627090	keystroke_s	s	n/a
313.6645	0.075	627329	keystroke_i	i	n/a
313.9045	0.1655	627809	keystroke_o	o	n/a
314.025	0.09	628050	keystroke_n	n	n/a
314.13	0.12	628260	keystroke_Key.space	Key.space	n/a
314.4	0.09	628800	keystroke_o	o	n/a
314.505	0.0905	629010	keystroke_r	r	n/a
314.9095	0.105	629819	keystroke_g	g	n/a
315.06	0.15	630120	keystroke_a	a	n/a
315.21	0.075	630420	keystroke_n	n	n/a
315.525	0.09	631050	keystroke_i	i	n/a
315.675	0.105	631350	keystroke_z	z	n/a
316.26	0.135	632520	keystroke_a	a	n/a
316.575	0.09	633150	keystroke_t	t	n/a
316.695	0.09	633390	keystroke_i	i	n/a
316.9205	0.1645	633841	keystroke_o	o	n/a
317.04	0.1045	634080	keystroke_n	n	n/a
317.175	0.135	634350	keystroke_s	s	n/a
317.34	0.12	634680	keystroke_Key.space	Key.space	n/a
317.655	0.105	635310	keystroke_a	a	n/a
317.8805	0.105	635761	keystroke_v	v	n/a
318.045	0.0895	636090	keystroke_i	i	n/a
318.1505	0.1195	636301	keystroke_d	d	n/a
318.3745	0.106	636749	keystroke_s	s	n/a
318.4645	0.12	636929	keystroke_Key.space	Key.space	n/a
319.2	0.105	638400	keystroke_Key.backspace	Key.backspace	n/a
319.32	0.06	638640	keystroke_Key.backspace	Key.backspace	n/a
319.44	0.06	638880	keystroke_Key.backspace	Key.backspace	n/a
319.575	0.06	639150	keystroke_Key.backspace	Key.backspace	n/a
319.77	0.045	639540	keystroke_Key.backspace	Key.backspace	n/a
320.28	0.075	640560	keystroke_v	v	n/a
320.685	0.075	641370	keystroke_Key.backspace	Key.backspace	n/a
320.79	0.0905	641580	keystroke_c	c	n/a
320.985	0.06	641970	keystroke_i	i	n/a
321.2255	0.1045	642451	keystroke_d	d	n/a
321.525	0.0895	643050	keystroke_s	s	n/a
321.6155	0.134	643231	keystroke_Key.space	Key.space	n/a
321.9905	0.09	643981	keystroke_c	c	n/a
322.095	0.09	644190	keystroke_l	l	n/a
322.2605	0.1045	644521	keystroke_i	i	n/a
322.38	0.09	644760	keystroke_c	c	n/a
322.485	0.105	644970	keystroke_k	k	n/a
322.68	0.09	645360	keystroke_Key.enter	Key.enter	n/a
322.7755	8.7715	645551	prompt	n/a	programme committees index peas\n
323.5495	0.075	647099	keystroke_p	p	n/a
323.64	0.105	647280	keystroke_r	r	n/a
323.7745	0.09	647549	keystroke_o	o	n/a
324.0145	0.06	648029	keystroke_g	g	n/a
324.2245	0.1055	648449	keystroke_r	r	n/a
324.3305	0.15	648661	keystroke_a	a	n/a
324.4645	0.06	648929	keystroke_m	m	n/a
324.5855	0.0895	649171	keystroke_m	m	n/a
324.705	0.15	649410	keystroke_e	e	n/a
324.81	0.1195	649620	keystroke_Key.space	Key.space	n/a
325.755	0.1195	651510	keystroke_c	c	n/a
326.67	0.09	653340	keystroke_o	o	n/a
326.88	0.06	653760	keystroke_m	m	n/a
327	0.075	654000	keystroke_m	m	n/a
327.2395	0.105	654479	keystroke_i	i	n/a
327.48	0.0455	654960	keystroke_t	t	n/a
327.6005	0.1045	655201	keystroke_t	t	n/a
327.81	0.09	655620	keystroke_e	e	n/a
327.975	0.105	655950	keystroke_e	e	n/a
328.185	0.1195	656370	keystroke_s	s	n/a
328.38	0.12	656760	keystroke_Key.space	Key.space	n/a
329.2655	0.0745	658531	keystroke_i	i	n/a
329.325	0.03	658650	keystroke_n	n	n/a
329.49	0.105	658980	keystroke_d	d	n/a
329.73	0.105	659460	keystroke_e	e	n/a
330.1055	0.1345	660211	keystroke_x	x	n/a
330.3895	0.12	660779	keystroke_Key.space	Key.space	n/a
330.7795	0.12	661559	keystroke_p	p	n/a
330.9595	0.12	661919	keystroke_e	e	n/a
331.0805	0.104	662161	keystroke_a	a	n/a
331.305	0.105	662610	keystroke_s	s	n/a
331.425	0.12	662850	keystroke_Key.enter	Key.enter	n/a
331.552	7.391	663104	prompt	n/a	allow amendments borders stripes\n
332.205	0.1195	664410	keystroke_a	a	n/a
332.3095	0.09	664619	keystroke_l	l	n/a
332.475	0.075	664950	keystroke_l	l	n/a
332.6705	0.09	665341	keystroke_o	o	n/a
332.7745	0.121	665549	keystroke_w	w	n/a
332.88	0.12	665760	keystroke_Key.space	Key.space	n/a
333.074	0.1215	666148	keystroke_a	a	n/a
333.3005	0.105	666601	keystroke_m	m	n/a
333.4795	0.0905	666959	keystroke_e	e	n/a
333.6305	0.0885	667261	keystroke_n	n	n/a
333.735	0.1195	667470	keystroke_d	d	n/a
334.1995	0.0455	668399	keystroke_m	m	n/a
334.2595	0.0455	668519	keystroke_e	e	n/a
334.35	0.0755	668700	keystroke_n	n	n/a
334.5155	0.089	669031	keystroke_t	t	n/a
334.635	0.1195	669270	keystroke_s	s	n/a
334.725	0.1045	669450	keystroke_Key.space	Key.space	n/a
335.0705	0.09	670141	keystroke_b	b	n/a
335.2645	0.0905	670529	keystroke_o	o	n/a
335.34	0.075	670680	keystroke_r	r	n/a
335.805	0.09	671610	keystroke_d	d	n/a
336.015	0.06	672030	keystroke_e	e	n/a
336.12	0.165	672240	keystroke_r	r	n/a
336.3	0.15	672600	keystroke_s	s	n/a
336.495	0.1195	672990	keystroke_Key.space	Key.space	n/a
337.02	0.1195	674040	keystroke_s	s	n/a
337.2145	0.12	674429	keystroke_t	t	n/a
337.3045	0.1505	674609	keystroke_r	r	n/a
337.515	0.1055	675030	keystroke_i	i	n/a
337.89	0.1055	675780	keystroke_e	e	n/a
338.2495	0.0755	676499	keystroke_Key.backspace	Key.backspace	n/a
338.4745	0.105	676949	keystroke_p	p	n/a
338.535	0.1345	677070	keystroke_e	e	n/a
338.655	0.1345	677310	keystroke_s	s	n/a
338.8345	0.105	677669	keystroke_Key.enter	Key.enter	n/a
338.951	3.5455	677902	prompt	n/a	tells silly lots slide\n
339.6305	0.074	679261	keystroke_t	t	n/a
339.7355	0.12	679471	keystroke_e	e	n/a
339.8405	0.075	679681	keystroke_l	l	n/a
339.9745	0.106	679949	keystroke_l	l	n/a
340.0645	0.136	680129	keystroke_s	s	n/a
340.1555	0.1645	680311	keystroke_Key.space	Key.space	n/a
340.3205	0.105	680641	keystroke_s	s	n/a
340.4105	0.089	680821	keystroke_i	i	n/a
340.62	0.0605	681240	keystroke_l	l	n/a
340.7405	0.089	681481	keystroke_l	l	n/a
340.845	0.09	681690	keystroke_y	y	n/a
340.8895	0.135	681779	keystroke_Key.space	Key.space	n/a
341.0395	0.075	682079	keystroke_l	l	n/a
341.25	0.075	682500	keystroke_o	o	n/a
341.3395	0.105	682679	keystroke_t	t	n/a
341.4455	0.119	682891	keystroke_s	s	n/a
341.5195	0.135	683039	keystroke_Key.space	Key.space	n/a
341.685	0.1045	683370	keystroke_s	s	n/a
341.775	0.0905	683550	keystroke_l	l	n/a
341.97	0.0895	683940	keystroke_i	i	n/a
342.0745	0.09	684149	keystroke_d	d	n/a
342.2845	0.09	684569	keystroke_e	e	n/a
342.4045	0.09	684809	keystroke_Key.enter	Key.enter	n/a
342.5025	9.909	685005	prompt	n/a	company interracial stopped challenge\n
343.335	0.105	686670	keystroke_c	c	n/a
343.4245	0.0905	686849	keystroke_o	o	n/a
343.4845	0.076	686969	keystroke_m	m	n/a
343.77	0.0755	687540	keystroke_a	a	n/a
343.9055	0.03	687811	keystroke_p	p	n/a
344.1745	0.0455	688349	keystroke_Key.backspace	Key.backspace	n/a
344.31	0.045	688620	keystroke_Key.backspace	Key.backspace	n/a
344.4905	0.1045	688981	keystroke_p	p	n/a
344.5805	0.09	689161	keystroke_a	a	n/a
344.775	0.0745	689550	keystroke_c	c	n/a
345.1955	0.074	690391	keystroke_Key.backspace	Key.backspace	n/a
345.51	0.105	691020	keystroke_y	y	n/a
345.5995	0.12	691199	keystroke_Key.space	Key.space	n/a
345.855	0.075	691710	keystroke_Key.backspace	Key.backspace	n/a
346.0045	0.0755	692009	keystroke_Key.backspace	Key.backspace	n/a
346.2445	0.09	692489	keystroke_n	n	n/a
346.32	0.0905	692640	keystroke_y	y	n/a
346.38	0.12	692760	keystroke_Key.space	Key.space	n/a
346.5595	0.0905	693119	keystroke_i	i	n/a
346.7095	0.136	693419	keystroke_n	n	n/a
346.8755	0.074	693751	keystroke_t	t	n/a
347.0845	0.195	694169	keystroke_r	r	n/a
347.7295	0.0905	695459	keystroke_Key.backspace	Key.backspace	n/a
347.88	0.15	695760	keystroke_e	e	n/a
348.0755	0.1045	696151	keystroke_r	r	n/a
348.285	0.12	696570	keystroke_r	r	n/a
348.4945	0.1355	696989	keystroke_a	a	n/a
348.9445	0.015	697889	keystroke_c	c	n/a
349.0045	0.105	698009	keystroke_i	i	n/a
349.1695	0.075	698339	keystroke_a	a	n/a
349.275	0.105	698550	keystroke_l	l	n/a
349.3945	0.105	698789	keystroke_Key.space	Key.space	n/a
349.8605	0.075	699721	keystroke_s	s	n/a
350.0405	0.09	700081	keystroke_t	t	n/a
350.1145	0.0755	700229	keystroke_o	o	n/a
350.31	0.0605	700620	keystroke_p	p	n/a
350.4305	0.0895	700861	keystroke_p	p	n/a
350.505	0.0755	701010	keystroke_e	e	n/a
350.7155	0.15	701431	keystroke_d	d	n/a
350.8655	0.104	701731	keystroke_Key.space	Key.space	n/a
351.0605	0.1195	702121	keystroke_c	c	n/a
351.209	0.09	702418	keystroke_h	h	n/a
351.3155	0.1035	702631	keystroke_a	a	n/a
351.494	0.0755	702988	keystroke_l	l	n/a
351.63	0.09	703260	keystroke_l	l	n/a
351.735	0.105	703470	keystroke_e	e	n/a
351.8545	0.09	703709	keystroke_n	n	n/a
351.9895	0.1205	703979	keystroke_g	g	n/a
352.1545	0.1355	704309	keystroke_e	e	n/a
352.3195	0.09	704639	keystroke_Key.enter	Key.enter	n/a
352.415	7.227	704830	prompt	n/a	fresh scotia representation reform\n
353.0245	0.091	706049	keystroke_f	f	n/a
353.2055	0.1495	706411	keystroke_r	r	n/a
353.325	0.135	706650	keystroke_e	e	n/a
353.445	0.12	706890	keystroke_s	s	n/a
353.58	0.075	707160	keystroke_h	h	n/a
353.67	0.1045	707340	keystroke_Key.space	Key.space	n/a
353.8195	0.105	707639	keystroke_s	s	n/a
354.0445	0.105	708089	keystroke_c	c	n/a
354.36	0.12	708720	keystroke_o	o	n/a
354.75	0.075	709500	keystroke_t	t	n/a
354.885	0.0905	709770	keystroke_i	i	n/a
355.035	0.12	710070	keystroke_a	a	n/a
355.125	0.135	710250	keystroke_Key.space	Key.space	n/a
355.6345	0.061	711269	keystroke_r	r	n/a
355.6655	0.119	711331	keystroke_e	e	n/a
355.9055	0.0895	711811	keystroke_p	p	n/a
356.0105	0.1045	712021	keystroke_r	r	n/a
356.1	0.135	712200	keystroke_e	e	n/a
356.25	0.12	712500	keystroke_s	s	n/a
356.4	0.135	712800	keystroke_e	e	n/a
356.58	0.09	713160	keystroke_n	n	n/a
356.715	0.075	713430	keystroke_t	t	n/a
356.82	0.15	713640	keystroke_a	a	n/a
356.955	0.105	713910	keystroke_t	t	n/a
357.09	0.1045	714180	keystroke_i	i	n/a
357.3145	0.18	714629	keystroke_o	o	n/a
357.435	0.1195	714870	keystroke_n	n	n/a
357.54	0.1195	715080	keystroke_Key.space	Key.space	n/a
357.7645	0.135	715529	keystroke_r	r	n/a
357.9295	0.105	715859	keystroke_e	e	n/a
358.32	0.105	716640	keystroke_t	t	n/a
358.4845	0.075	716969	keystroke_o	o	n/a
358.8	0.0595	717600	keystroke_Key.backspace	Key.backspace	n/a
358.9195	0.06	717839	keystroke_Key.backspace	Key.backspace	n/a
358.995	0.1195	717990	keystroke_f	f	n/a
359.175	0.0745	718350	keystroke_o	o	n/a
359.265	0.1055	718530	keystroke_r	r	n/a
359.3855	0.09	718771	keystroke_m	m	n/a
359.55	0.0895	719100	keystroke_Key.enter	Key.enter	n/a
359.646	9.956	719292	prompt	n/a	wide alfred shouldn't've crown\n
360.375	0.075	720750	keystroke_i	i	n/a
360.705	0.075	721410	keystroke_Key.backspace	Key.backspace	n/a
360.781	0.104	721562	keystroke_w	w	n/a
360.975	0.09	721950	keystroke_i	i	n/a
361.08	0.09	722160	keystroke_d	d	n/a
361.26	0.1195	722520	keystroke_e	e	n/a
361.335	0.1195	722670	keystroke_Key.space	Key.space	n/a
361.545	0.1195	723090	keystroke_a	a	n/a
361.6795	0.135	723359	keystroke_l	l	n/a
362.2195	0.105	724439	keystroke_f	f	n/a
362.6245	0.105	725249	keystroke_r	r	n/a
362.8205	0.1045	725641	keystroke_e	e	n/a
363.09	0.1205	726180	keystroke_d	d	n/a
363.2245	0.105	726449	keystroke_Key.space	Key.space	n/a
363.4345	0.105	726869	keystroke_s	s	n/a
363.6295	0.076	727259	keystroke_h	h	n/a
363.78	0.105	727560	keystroke_o	o	n/a
363.96	0.0895	727920	keystroke_u	u	n/a
364.215	0.1205	728430	keystroke_l	l	n/a
364.8155	0.089	729631	keystroke_d	d	n/a
364.9205	0.1345	729841	keystroke_n	n	n/a
365.28	0.1195	730560	keystroke_'	'	n/a
365.5655	0.134	731131	keystroke_t	t	n/a
366.33	0.135	732660	keystroke_'	'	n/a
367.29	0.1345	734580	keystroke_v	v	n/a
367.635	0.12	735270	keystroke_e	e	n/a
367.739	0.121	735478	keystroke_Key.space	Key.space	n/a
368.31	0.105	736620	keystroke_c	c	n/a
368.58	0.09	737160	keystroke_r	r	n/a
368.73	0.0905	737460	keystroke_o	o	n/a
368.8505	0.1195	737701	keystroke_w	w	n/a
369.015	0.0755	738030	keystroke_n	n	n/a
369.5245	0.075	739049	keystroke_Key.enter	Key.enter	n/a
369.6055	10.316	739211	prompt	n/a	reaching silence salmon responsibilities\n
370.32	0.075	740640	keystroke_r	r	n/a
370.38	0.135	740760	keystroke_e	e	n/a
370.515	0.105	741030	keystroke_a	a	n/a
370.695	0.09	741390	keystroke_c	c	n/a
370.815	0.09	741630	keystroke_h	h	n/a
371.054	0.106	742108	keystroke_i	i	n/a
371.1455	0.0895	742291	keystroke_n	n	n/a
371.1755	0.1195	742351	keystroke_g	g	n/a
371.25	0.1345	742500	keystroke_Key.space	Key.space	n/a
371.37	0.12	742740	keystroke_s	s	n/a
371.4605	0.0895	742921	keystroke_i	i	n/a
371.655	0.0905	743310	keystroke_l	l	n/a
371.79	0.06	743580	keystroke_e	e	n/a
371.925	0.0905	743850	keystroke_n	n	n/a
372.03	0.1045	744060	keystroke_c	c	n/a
372.2395	0.1205	744479	keystroke_e	e	n/a
372.3295	0.1205	744659	keystroke_Key.space	Key.space	n/a
372.9745	0.105	745949	keystroke_s	s	n/a
373.155	0.1195	746310	keystroke_a	a	n/a
373.2895	0.1055	746579	keystroke_l	l	n/a
373.56	0.0905	747120	keystroke_m	m	n/a
373.7705	0.1645	747541	keystroke_o	o	n/a
373.875	0.1345	747750	keystroke_n	n	n/a
373.9795	0.1505	747959	keystroke_Key.space	Key.space	n/a
374.2355	0.149	748471	keystroke_r	r	n/a
374.3395	0.1505	748679	keystroke_e	e	n/a
374.8945	0.1505	749789	keystroke_p	p	n/a
375.33	0.045	750660	keystroke_Key.backspace	Key.backspace	n/a
375.39	0.075	750780	keystroke_s	s	n/a
375.5255	0.1045	751051	keystroke_p	p	n/a
375.765	0.105	751530	keystroke_o	o	n/a
375.945	0.105	751890	keystroke_n	n	n/a
376.095	0.135	752190	keystroke_s	s	n/a
376.8	0.105	753600	keystroke_i	i	n/a
377.055	0.105	754110	keystroke_l	l	n/a
377.52	0.1055	755040	keystroke_b	b	n/a
377.955	0.06	755910	keystroke_Key.backspace	Key.backspace	n/a
378.105	0.06	756210	keystroke_Key.backspace	Key.backspace	n/a
378.285	0.105	756570	keystroke_b	b	n/a
378.495	0.09	756990	keystroke_i	i	n/a
378.705	0.09	757410	keystroke_l	l	n/a
378.885	0.075	757770	keystroke_i	i	n/a
379.0355	0.1195	758071	keystroke_t	t	n/a
379.17	0.09	758340	keystroke_i	i	n/a
379.275	0.15	758550	keystroke_e	e	n/a
379.3955	0.1795	758791	keystroke_s	s	n/a
379.8145	0.1055	759629	keystroke_Key.enter	Key.enter	n/a
379.925	8.7565	759850	prompt	n/a	manufactured hired deck morning\n
380.565	0.0895	761130	keystroke_m	m	n/a
380.67	0.105	761340	keystroke_a	a	n/a
380.8045	0.075	761609	keystroke_n	n	n/a
381.015	0.09	762030	keystroke_u	u	n/a
381.2695	0.12	762539	keystroke_f	f	n/a
381.42	0.105	762840	keystroke_a	a	n/a
381.6305	0.0895	763261	keystroke_c	c	n/a
381.8705	0.0745	763741	keystroke_t	t	n/a
382.0055	0.0895	764011	keystroke_u	u	n/a
382.1255	0.119	764251	keystroke_r	r	n/a
382.26	0.1045	764520	keystroke_e	e	n/a
382.485	0.1505	764970	keystroke_d	d	n/a
382.6195	0.1055	765239	keystroke_Key.space	Key.space	n/a
382.9655	0.0745	765931	keystroke_h	h	n/a
383.1305	0.105	766261	keystroke_i	i	n/a
383.2195	0.106	766439	keystroke_r	r	n/a
383.6395	0.091	767279	keystroke_e	e	n/a
383.8795	0.151	767759	keystroke_d	d	n/a
384.045	0.105	768090	keystroke_Key.space	Key.space	n/a
384.6	0.105	769200	keystroke_d	d	n/a
384.84	0.075	769680	keystroke_e	e	n/a
385.0045	0.12	770009	keystroke_s	s	n/a
385.155	0.09	770310	keystroke_k	k	n/a
385.2595	0.105	770519	keystroke_Key.space	Key.space	n/a
385.725	0.0745	771450	keystroke_Key.backspace	Key.backspace	n/a
385.8755	0.0595	771751	keystroke_Key.backspace	Key.backspace	n/a
386.0405	0.075	772081	keystroke_c	c	n/a
386.2495	0.075	772499	keystroke_Key.backspace	Key.backspace	n/a
386.3995	0.06	772799	keystroke_Key.backspace	Key.backspace	n/a
386.4895	0.0905	772979	keystroke_c	c	n/a
386.715	0.09	773430	keystroke_Key.space	Key.space	n/a
387.045	0.059	774090	keystroke_Key.backspace	Key.backspace	n/a
387.375	0.0895	774750	keystroke_k	k	n/a
387.495	0.105	774990	keystroke_Key.space	Key.space	n/a
387.615	0.09	775230	keystroke_m	m	n/a
387.765	0.09	775530	keystroke_o	o	n/a
387.885	0.09	775770	keystroke_r	r	n/a
388.005	0.06	776010	keystroke_n	n	n/a
388.17	0.1805	776340	keystroke_i	i	n/a
388.2905	0.1045	776581	keystroke_n	n	n/a
388.425	0.09	776850	keystroke_g	g	n/a
388.5745	0.105	777149	keystroke_Key.enter	Key.enter	n/a
388.685	12.6285	777370	prompt	n/a	holiday worm brochure dozens\n
389.445	0.06	778890	keystroke_h	h	n/a
389.655	0.075	779310	keystroke_o	o	n/a
389.79	0.1045	779580	keystroke_l	l	n/a
389.9095	0.106	779819	keystroke_d	d	n/a
390.0755	0.0895	780151	keystroke_i	i	n/a
390.57	0.12	781140	keystroke_d	d	n/a
390.645	0.105	781290	keystroke_a	a	n/a
390.81	0.075	781620	keystroke_y	y	n/a
390.93	0.12	781860	keystroke_Key.space	Key.space	n/a
391.2605	0.12	782521	keystroke_w	w	n/a
391.3645	0.0905	782729	keystroke_o	o	n/a
391.485	0.1045	782970	keystroke_r	r	n/a
391.6045	0.09	783209	keystroke_m	m	n/a
391.665	0.1055	783330	keystroke_Key.space	Key.space	n/a
392.1005	0.105	784201	keystroke_b	b	n/a
392.61	0.15	785220	keystroke_r	r	n/a
393.3	0.39	786600	keystroke_Key.backspace	Key.backspace	n/a
393.8255	0.089	787651	keystroke_Key.backspace	Key.backspace	n/a
394.0045	0.0755	788009	keystroke_Key.backspace	Key.backspace	n/a
394.1395	0.075	788279	keystroke_Key.backspace	Key.backspace	n/a
394.2745	0.076	788549	keystroke_Key.backspace	Key.backspace	n/a
394.425	0.075	788850	keystroke_Key.backspace	Key.backspace	n/a
394.5745	0.0605	789149	keystroke_Key.backspace	Key.backspace	n/a
394.725	0.075	789450	keystroke_Key.backspace	Key.backspace	n/a
394.875	0.0745	789750	keystroke_Key.backspace	Key.backspace	n/a
395.025	0.0745	790050	keystroke_Key.backspace	Key.backspace	n/a
395.19	0.075	790380	keystroke_Key.backspace	Key.backspace	n/a
395.354	0.075	790708	keystroke_Key.backspace	Key.backspace	n/a
395.685	0.075	791370	keystroke_Key.backspace	Key.backspace	n/a
396.0295	0.0905	792059	keystroke_i	i	n/a
396.225	0.09	792450	keystroke_d	d	n/a
396.42	0.12	792840	keystroke_a	a	n/a
396.5105	0.0895	793021	keystroke_y	y	n/a
396.675	0.09	793350	keystroke_Key.space	Key.space	n/a
397.11	0.105	794220	keystroke_w	w	n/a
397.29	0.09	794580	keystroke_o	o	n/a
397.425	0.1055	794850	keystroke_r	r	n/a
397.545	0.075	795090	keystroke_m	m	n/a
397.605	0.1055	795210	keystroke_Key.space	Key.space	n/a
397.89	0.0755	795780	keystroke_b	b	n/a
398.04	0.105	796080	keystroke_r	r	n/a
398.16	0.075	796320	keystroke_o	o	n/a
398.355	0.105	796710	keystroke_c	c	n/a
398.88	0.045	797760	keystroke_h	h	n/a
399.105	0.075	798210	keystroke_u	u	n/a
399.195	0.15	798390	keystroke_r	r	n/a
399.3755	0.12	798751	keystroke_e	e	n/a
399.4795	0.12	798959	keystroke_Key.space	Key.space	n/a
400.0645	0.135	800129	keystroke_d	d	n/a
400.2745	0.09	800549	keystroke_o	o	n/a
400.5145	0.1055	801029	keystroke_z	z	n/a
400.7705	0.09	801541	keystroke_e	e	n/a
400.9205	0.059	801841	keystroke_n	n	n/a
400.9945	0.12	801989	keystroke_s	s	n/a
401.2045	0.105	802409	keystroke_Key.enter	Key.enter	n/a
401.3175	5.1095	802635	prompt	n/a	palm nissan radical rapids\n
401.985	0.105	803970	keystroke_p	p	n/a
402.075	0.12	804150	keystroke_a	a	n/a
402.255	0.09	804510	keystroke_l	l	n/a
402.465	0.105	804930	keystroke_m	m	n/a
402.585	0.104	805170	keystroke_Key.space	Key.space	n/a
402.8405	0.0585	805681	keystroke_n	n	n/a
402.975	0.0905	805950	keystroke_i	i	n/a
403.079	0.061	806158	keystroke_s	s	n/a
403.2	0.089	806400	keystroke_s	s	n/a
403.4405	0.0895	806881	keystroke_a	a	n/a
403.545	0.0755	807090	keystroke_n	n	n/a
403.65	0.105	807300	keystroke_Key.space	Key.space	n/a
403.95	0.0895	807900	keystroke_r	r	n/a
404.0555	0.12	808111	keystroke_a	a	n/a
404.34	0.106	808680	keystroke_d	d	n/a
404.505	0.075	809010	keystroke_i	i	n/a
404.655	0.09	809310	keystroke_c	c	n/a
404.8045	0.1055	809609	keystroke_a	a	n/a
404.895	0.09	809790	keystroke_l	l	n/a
405.015	0.105	810030	keystroke_Key.space	Key.space	n/a
405.33	0.1205	810660	keystroke_r	r	n/a
405.4505	0.119	810901	keystroke_a	a	n/a
405.585	0.09	811170	keystroke_p	p	n/a
405.8095	0.09	811619	keystroke_i	i	n/a
405.9155	0.1495	811831	keystroke_d	d	n/a
406.035	0.15	812070	keystroke_s	s	n/a
406.32	0.105	812640	keystroke_Key.enter	Key.enter	n/a
406.431	4.121	812862	prompt	n/a	plays under proud suse\n
407.1295	0.121	814259	keystroke_p	p	n/a
407.22	0.1055	814440	keystroke_l	l	n/a
407.31	0.1055	814620	keystroke_a	a	n/a
407.52	0.0745	815040	keystroke_y	y	n/a
407.5795	0.1205	815159	keystroke_s	s	n/a
407.67	0.105	815340	keystroke_Key.space	Key.space	n/a
407.805	0.12	815610	keystroke_u	u	n/a
407.88	0.1055	815760	keystroke_n	n	n/a
408	0.0905	816000	keystroke_d	d	n/a
408.24	0.1205	816480	keystroke_e	e	n/a
408.345	0.1205	816690	keystroke_r	r	n/a
408.405	0.119	816810	keystroke_Key.space	Key.space	n/a
408.675	0.105	817350	keystroke_p	p	n/a
408.7655	0.09	817531	keystroke_r	r	n/a
408.93	0.075	817860	keystroke_o	o	n/a
409.155	0.075	818310	keystroke_u	u	n/a
409.26	0.105	818520	keystroke_d	d	n/a
409.35	0.105	818700	keystroke_Key.space	Key.space	n/a
409.545	0.1055	819090	keystroke_s	s	n/a
409.77	0.09	819540	keystroke_u	u	n/a
409.98	0.105	819960	keystroke_s	s	n/a
410.265	0.12	820530	keystroke_e	e	n/a
410.445	0.105	820890	keystroke_Key.enter	Key.enter	n/a
410.5555	10.766	821111	prompt	n/a	lessons namibia readers decent\n
411.21	0.104	822420	keystroke_l	l	n/a
411.3	0.09	822600	keystroke_e	e	n/a
411.525	0.045	823050	keystroke_s	s	n/a
411.675	0.09	823350	keystroke_s	s	n/a
411.7945	0.0605	823589	keystroke_i	i	n/a
411.9745	0.1505	823949	keystroke_o	o	n/a
412.095	0.0895	824190	keystroke_n	n	n/a
412.1545	0.1205	824309	keystroke_s	s	n/a
412.2295	0.12	824459	keystroke_Key.space	Key.space	n/a
412.65	0.105	825300	keystroke_n	n	n/a
412.7855	0.1345	825571	keystroke_a	a	n/a
412.9345	0.1055	825869	keystroke_m	m	n/a
413.265	0.0755	826530	keystroke_i	i	n/a
415.577	0.073	831154	keystroke_b	b	n/a
415.665	0.0895	831330	keystroke_i	i	n/a
415.7855	0.119	831571	keystroke_a	a	n/a
416.01	0.1045	832020	keystroke_Key.space	Key.space	n/a
416.4895	0.1355	832979	keystroke_r	r	n/a
416.5955	0.104	833191	keystroke_e	e	n/a
416.685	0.1195	833370	keystroke_a	a	n/a
416.91	0.1055	833820	keystroke_d	d	n/a
417.135	0.2105	834270	keystroke_e	e	n/a
417.33	0.165	834660	keystroke_s	s	n/a
417.465	0.135	834930	keystroke_Key.space	Key.space	n/a
417.975	0.0745	835950	keystroke_Key.backspace	Key.backspace	n/a
418.125	0.06	836250	keystroke_Key.backspace	Key.backspace	n/a
418.1395	0.135	836279	keystroke_r	r	n/a
418.3055	0.1185	836611	keystroke_s	s	n/a
418.395	0.1195	836790	keystroke_Key.space	Key.space	n/a
418.815	0.1045	837630	keystroke_d	d	n/a
419.0405	0.105	838081	keystroke_e	e	n/a
419.1595	0.0905	838319	keystroke_s	s	n/a
419.7	0.0755	839400	keystroke_c	c	n/a
420.06	0.06	840120	keystroke_Key.backspace	Key.backspace	n/a
420.195	0.06	840390	keystroke_Key.backspace	Key.backspace	n/a
420.465	0.075	840930	keystroke_c	c	n/a
420.675	0.075	841350	keystroke_e	e	n/a
420.7805	0.0895	841561	keystroke_n	n	n/a
420.9	0.0895	841800	keystroke_t	t	n/a
421.23	0.09	842460	keystroke_Key.enter	Key.enter	n/a
421.3265	10.39	842653	prompt	n/a	mice messages entries wouldn't\n
422.22	0.0605	844440	keystroke_m	m	n/a
422.355	0.075	844710	keystroke_i	i	n/a
422.445	0.09	844890	keystroke_c	c	n/a
422.655	0.1045	845310	keystroke_e	e	n/a
422.745	0.1045	845490	keystroke_Key.space	Key.space	n/a
422.9245	0.09	845849	keystroke_c	c	n/a
423.1945	0.1055	846389	keystroke_r	r	n/a
423.2845	0.1055	846569	keystroke_e	e	n/a
424.064	0.15	848128	keystroke_Key.backspace	Key.backspace	n/a
424.2295	0.0445	848459	keystroke_Key.backspace	Key.backspace	n/a
424.335	0.0595	848670	keystroke_Key.backspace	Key.backspace	n/a
424.589	0.09	849178	keystroke_m	m	n/a
424.68	0.0905	849360	keystroke_e	e	n/a
424.89	0.0455	849780	keystroke_s	s	n/a
425.069	0.0465	850138	keystroke_s	s	n/a
425.295	0.121	850590	keystroke_a	a	n/a
425.745	0.09	851490	keystroke_e	e	n/a
426.0745	0.0605	852149	keystroke_Key.backspace	Key.backspace	n/a
426.21	0.1055	852420	keystroke_g	g	n/a
426.3305	0.134	852661	keystroke_e	e	n/a
426.4345	0.1505	852869	keystroke_s	s	n/a
426.54	0.15	853080	keystroke_Key.space	Key.space	n/a
426.795	0.135	853590	keystroke_e	e	n/a
427.0355	0.0745	854071	keystroke_n	n	n/a
427.17	0.09	854340	keystroke_t	t	n/a
427.905	0.134	855810	keystroke_r	r	n/a
428.085	0.075	856170	keystroke_e	e	n/a
428.5495	0.0745	857099	keystroke_Key.backspace	Key.backspace	n/a
428.8195	0.0905	857639	keystroke_i	i	n/a
428.9245	0.12	857849	keystroke_e	e	n/a
429.0295	0.15	858059	keystroke_s	s	n/a
429.15	0.1045	858300	keystroke_Key.space	Key.space	n/a
429.48	0.06	858960	keystroke_w	w	n/a
429.5555	0.0595	859111	keystroke_o	o	n/a
429.765	0.075	859530	keystroke_u	u	n/a
429.9905	0.09	859981	keystroke_l	l	n/a
430.2	0.09	860400	keystroke_d	d	n/a
430.4105	0.09	860821	keystroke_n	n	n/a
430.65	0.105	861300	keystroke_'	'	n/a
430.8755	0.1195	861751	keystroke_t	t	n/a
431.01	0.075	862020	keystroke_Key.space	Key.space	n/a
431.4305	0.0745	862861	keystroke_Key.backspace	Key.backspace	n/a
431.625	0.09	863250	keystroke_Key.enter	Key.enter	n/a
431.7245	9.217	863449	prompt	n/a	analytical chan consisting jill\n
432.3155	0.1195	864631	keystroke_a	a	n/a
432.45	0.06	864900	keystroke_n	n	n/a
432.57	0.105	865140	keystroke_a	a	n/a
432.7345	0.1055	865469	keystroke_l	l	n/a
433.845	0.075	867690	keystroke_y	y	n/a
433.98	0.089	867960	keystroke_t	t	n/a
434.1005	0.1195	868201	keystroke_i	i	n/a
434.265	0.12	868530	keystroke_c	c	n/a
434.43	0.09	868860	keystroke_a	a	n/a
434.535	0.09	869070	keystroke_l	l	n/a
434.655	0.0745	869310	keystroke_Key.space	Key.space	n/a
434.985	0.089	869970	keystroke_c	c	n/a
435.105	0.075	870210	keystroke_h	h	n/a
435.18	0.105	870360	keystroke_a	a	n/a
435.3445	0.0755	870689	keystroke_n	n	n/a
435.4345	0.105	870869	keystroke_Key.space	Key.space	n/a
435.7195	0.1055	871439	keystroke_c	c	n/a
435.8695	0.1655	871739	keystroke_o	o	n/a
435.9905	0.12	871981	keystroke_n	n	n/a
436.3505	0.104	872701	keystroke_s	s	n/a
436.5305	0.0595	873061	keystroke_i	i	n/a
436.6055	0.089	873211	keystroke_s	s	n/a
436.86	0.0745	873720	keystroke_t	t	n/a
436.995	0.135	873990	keystroke_i	i	n/a
437.0855	0.105	874171	keystroke_n	n	n/a
437.2045	0.1205	874409	keystroke_g	g	n/a
437.265	0.1495	874530	keystroke_Key.space	Key.space	n/a
437.52	0.1345	875040	keystroke_s	s	n/a
438.15	0.12	876300	keystroke_i	i	n/a
438.8545	0.075	877709	keystroke_Key.backspace	Key.backspace	n/a
439.02	0.0595	878040	keystroke_Key.backspace	Key.backspace	n/a
439.3205	0.09	878641	keystroke_j	j	n/a
439.6795	0.12	879359	keystroke_i	i	n/a
440.2195	0.0905	880439	keystroke_l	l	n/a
440.37	0.105	880740	keystroke_l	l	n/a
440.85	0.09	881700	keystroke_Key.enter	Key.enter	n/a
440.946	7.1655	881892	prompt	n/a	greenhouse lying thickness rage\n
441.7795	0.06	883559	keystroke_g	g	n/a
442.0045	0.091	884009	keystroke_r	r	n/a
442.1405	0.0895	884281	keystroke_e	e	n/a
442.245	0.12	884490	keystroke_e	e	n/a
442.47	0.0745	884940	keystroke_e	e	n/a
442.9645	0.06	885929	keystroke_Key.backspace	Key.backspace	n/a
443.1895	0.09	886379	keystroke_n	n	n/a
443.46	0.1045	886920	keystroke_h	h	n/a
443.6395	0.091	887279	keystroke_o	o	n/a
443.8495	0.0755	887699	keystroke_u	u	n/a
443.97	0.1045	887940	keystroke_s	s	n/a
444.165	0.09	888330	keystroke_e	e	n/a
444.24	0.135	888480	keystroke_Key.space	Key.space	n/a
444.405	0.105	888810	keystroke_l	l	n/a
444.675	0.075	889350	keystroke_y	y	n/a
444.81	0.12	889620	keystroke_i	i	n/a
444.9	0.105	889800	keystroke_n	n	n/a
445.08	0.135	890160	keystroke_Key.space	Key.space	n/a
445.515	0.0745	891030	keystroke_Key.backspace	Key.backspace	n/a
445.605	0.1045	891210	keystroke_g	g	n/a
445.6945	0.105	891389	keystroke_Key.space	Key.space	n/a
445.9945	0.016	891989	keystroke_t	t	n/a
446.0255	0.06	892051	keystroke_h	h	n/a
446.265	0.075	892530	keystroke_i	i	n/a
446.37	0.105	892740	keystroke_c	c	n/a
446.505	0.0755	893010	keystroke_k	k	n/a
446.7005	0.0745	893401	keystroke_n	n	n/a
446.79	0.06	893580	keystroke_e	e	n/a
446.97	0.09	893940	keystroke_s	s	n/a
447.1655	0.104	894331	keystroke_s	s	n/a
447.239	0.135	894478	keystroke_Key.space	Key.space	n/a
447.42	0.1205	894840	keystroke_r	r	n/a
447.5555	0.1345	895111	keystroke_a	a	n/a
447.735	0.135	895470	keystroke_g	g	n/a
447.84	0.12	895680	keystroke_e	e	n/a
448.0045	0.1045	896009	keystroke_Key.enter	Key.enter	n/a
448.1155	8.246	896231	prompt	n/a	wrapping arts satellite lottery\n
449.07	0.165	898140	keystroke_w	w	n/a
449.22	0.15	898440	keystroke_r	r	n/a
449.355	0.12	898710	keystroke_a	a	n/a
449.505	0.075	899010	keystroke_p	p	n/a
449.64	0.075	899280	keystroke_p	p	n/a
449.9095	0.0755	899819	keystroke_i	i	n/a
449.9545	0.106	899909	keystroke_n	n	n/a
450.014	0.1355	900028	keystroke_g	g	n/a
450.074	0.18	900148	keystroke_Key.space	Key.space	n/a
450.2705	0.0885	900541	keystroke_a	a	n/a
450.75	0.075	901500	keystroke_r	r	n/a
450.93	0.119	901860	keystroke_t	t	n/a
451.08	0.1205	902160	keystroke_s	s	n/a
451.155	0.1195	902310	keystroke_Key.space	Key.space	n/a
451.545	0.0455	903090	keystroke_d	d	n/a
452.1595	0.06	904319	keystroke_Key.backspace	Key.backspace	n/a
452.205	0.0895	904410	keystroke_s	s	n/a
452.3995	0.075	904799	keystroke_a	a	n/a
452.5805	0.089	905161	keystroke_t	t	n/a
453.03	0.105	906060	keystroke_e	e	n/a
453.1805	0.104	906361	keystroke_l	l	n/a
453.3805	0.069	906761	keystroke_l	l	n/a
453.6745	0.09	907349	keystroke_i	i	n/a
453.7945	0.1355	907589	keystroke_t	t	n/a
453.975	0.12	907950	keystroke_e	e	n/a
454.065	0.1345	908130	keystroke_Key.space	Key.space	n/a
455.1745	0.0455	910349	keystroke_l	l	n/a
455.3395	0.0755	910679	keystroke_o	o	n/a
455.43	0.0605	910860	keystroke_t	t	n/a
455.5495	0.1055	911099	keystroke_t	t	n/a
455.715	0.1345	911430	keystroke_e	e	n/a
455.8195	0.105	911639	keystroke_r	r	n/a
456.0155	0.089	912031	keystroke_y	y	n/a
456.2695	0.09	912539	keystroke_Key.enter	Key.enter	n/a
456.365	9.3725	912730	prompt	n/a	composition inline olive keno\n
457.2005	0.104	914401	keystroke_c	c	n/a
457.2905	0.09	914581	keystroke_o	o	n/a
457.35	0.0895	914700	keystroke_m	m	n/a
457.56	0.0745	915120	keystroke_p	p	n/a
457.74	0.0595	915480	keystroke_o	o	n/a
457.7845	0.0905	915569	keystroke_s	s	n/a
458.04	0.075	916080	keystroke_t	t	n/a
458.0545	0.0905	916109	keystroke_i	i	n/a
458.655	0.06	917310	keystroke_Key.backspace	Key.backspace	n/a
458.805	0.0295	917610	keystroke_Key.backspace	Key.backspace	n/a
459.03	0.075	918060	keystroke_i	i	n/a
459.15	0.0905	918300	keystroke_t	t	n/a
459.27	0.075	918540	keystroke_i	i	n/a
459.464	0.1965	918928	keystroke_o	o	n/a
459.96	0.09	919920	keystroke_n	n	n/a
460.139	0.105	920278	keystroke_Key.space	Key.space	n/a
460.5	0.105	921000	keystroke_i	i	n/a
460.56	0.135	921120	keystroke_n	n	n/a
460.7995	0.106	921599	keystroke_v	v	n/a
460.9645	0.075	921929	keystroke_i	i	n/a
461.3845	0.075	922769	keystroke_Key.backspace	Key.backspace	n/a
461.5345	0.075	923069	keystroke_Key.backspace	Key.backspace	n/a
462.2845	0.1055	924569	keystroke_;	;	n/a
462.72	0.0745	925440	keystroke_Key.backspace	Key.backspace	n/a
462.9605	0.104	925921	keystroke_l	l	n/a
463.2605	0.134	926521	keystroke_i	i	n/a
463.3645	0.1055	926729	keystroke_n	n	n/a
463.455	0.1205	926910	keystroke_e	e	n/a
463.53	0.1495	927060	keystroke_Key.space	Key.space	n/a
463.7545	0.075	927509	keystroke_o	o	n/a
463.965	0.0895	927930	keystroke_l	l	n/a
464.1895	0.0755	928379	keystroke_i	i	n/a
464.25	0.0895	928500	keystroke_v	v	n/a
464.4595	0.105	928919	keystroke_e	e	n/a
464.5495	0.1055	929099	keystroke_Key.space	Key.space	n/a
464.97	0.1355	929940	keystroke_k	k	n/a
465.1205	0.1045	930241	keystroke_e	e	n/a
465.24	0.09	930480	keystroke_n	n	n/a
465.435	0.09	930870	keystroke_o	o	n/a
465.63	0.105	931260	keystroke_Key.enter	Key.enter	n/a
465.742	6.0095	931484	prompt	n/a	cost learn cooperative hungry\n
466.455	0.12	932910	keystroke_c	c	n/a
466.59	0.0905	933180	keystroke_o	o	n/a
466.695	0.09	933390	keystroke_s	s	n/a
466.89	0.105	933780	keystroke_t	t	n/a
466.965	0.105	933930	keystroke_Key.space	Key.space	n/a
467.205	0.09	934410	keystroke_l	l	n/a
467.28	0.12	934560	keystroke_e	e	n/a
467.385	0.12	934770	keystroke_a	a	n/a
467.52	0.12	935040	keystroke_r	r	n/a
467.6845	0.09	935369	keystroke_n	n	n/a
467.76	0.09	935520	keystroke_Key.space	Key.space	n/a
468	0.0905	936000	keystroke_c	c	n/a
468.075	0.0745	936150	keystroke_o	o	n/a
468.195	0.0895	936390	keystroke_o	o	n/a
468.84	0.1045	937680	keystroke_p	p	n/a
469.0045	0.18	938009	keystroke_e	e	n/a
469.155	0.135	938310	keystroke_r	r	n/a
469.3045	0.135	938609	keystroke_a	a	n/a
469.485	0.1045	938970	keystroke_t	t	n/a
469.7245	0.0605	939449	keystroke_i	i	n/a
469.8445	0.105	939689	keystroke_v	v	n/a
470.07	0.1045	940140	keystroke_e	e	n/a
470.1295	0.135	940259	keystroke_Key.space	Key.space	n/a
470.355	0.075	940710	keystroke_h	h	n/a
470.5505	0.134	941101	keystroke_u	u	n/a
470.6095	0.1355	941219	keystroke_n	n	n/a
470.9245	0.105	941849	keystroke_g	g	n/a
471.1205	0.1495	942241	keystroke_r	r	n/a
471.285	0.0905	942570	keystroke_y	y	n/a
471.6595	0.0905	943319	keystroke_Key.enter	Key.enter	n/a
471.756	5.5605	943512	prompt	n/a	ribbon neighbors docs pledge\n
472.5005	0.0895	945001	keystroke_r	r	n/a
472.575	0.0745	945150	keystroke_i	i	n/a
472.7555	0.074	945511	keystroke_b	b	n/a
472.875	0.075	945750	keystroke_b	b	n/a
473.1	0.1495	946200	keystroke_o	o	n/a
473.2195	0.105	946439	keystroke_n	n	n/a
473.3545	0.105	946709	keystroke_Key.space	Key.space	n/a
473.505	0.0895	947010	keystroke_n	n	n/a
473.6395	0.135	947279	keystroke_e	e	n/a
473.8045	0.0755	947609	keystroke_i	i	n/a
473.9545	0.1055	947909	keystroke_g	g	n/a
474.1345	0.0605	948269	keystroke_h	h	n/a
474.3595	0.09	948719	keystroke_b	b	n/a
474.84	0.0895	949680	keystroke_o	o	n/a
474.9305	0.134	949861	keystroke_r	r	n/a
475.0795	0.1205	950159	keystroke_s	s	n/a
475.155	0.12	950310	keystroke_Key.space	Key.space	n/a
475.3795	0.105	950759	keystroke_d	d	n/a
475.5	0.0905	951000	keystroke_o	o	n/a
475.635	0.12	951270	keystroke_c	c	n/a
475.8445	0.1205	951689	keystroke_s	s	n/a
475.9345	0.12	951869	keystroke_Key.space	Key.space	n/a
476.2045	0.1655	952409	keystroke_p	p	n/a
476.3095	0.1205	952619	keystroke_l	l	n/a
476.4145	0.09	952829	keystroke_e	e	n/a
476.6405	0.1045	953281	keystroke_d	d	n/a
476.9095	0.105	953819	keystroke_g	g	n/a
477.0445	0.1205	954089	keystroke_e	e	n/a
477.195	0.1195	954390	keystroke_Key.enter	Key.enter	n/a
477.3205	6.581	954641	prompt	n/a	judge frontier martin junior\n
478.1245	0.0905	956249	keystroke_j	j	n/a
478.3045	0.0905	956609	keystroke_u	u	n/a
478.545	0.1505	957090	keystroke_d	d	n/a
478.8145	0.076	957629	keystroke_g	g	n/a
478.9945	0.1205	957989	keystroke_e	e	n/a
479.0695	0.1355	958139	keystroke_Key.space	Key.space	n/a
480.0895	0.045	960179	keystroke_f	f	n/a
480.225	0.075	960450	keystroke_r	r	n/a
480.3145	0.105	960629	keystroke_o	o	n/a
480.39	0.105	960780	keystroke_n	n	n/a
480.51	0.06	961020	keystroke_t	t	n/a
480.735	0.09	961470	keystroke_i	i	n/a
480.975	0.165	961950	keystroke_e	e	n/a
481.1245	0.135	962249	keystroke_r	r	n/a
481.23	0.1195	962460	keystroke_Key.space	Key.space	n/a
481.59	0.1045	963180	keystroke_m	m	n/a
481.6795	0.12	963359	keystroke_a	a	n/a
481.8605	0.0745	963721	keystroke_r	r	n/a
482.055	0.0745	964110	keystroke_t	t	n/a
482.1745	0.12	964349	keystroke_i	i	n/a
482.2505	0.1045	964501	keystroke_n	n	n/a
482.3695	0.09	964739	keystroke_Key.space	Key.space	n/a
482.61	0.06	965220	keystroke_j	j	n/a
482.82	0.135	965640	keystroke_u	u	n/a
482.9245	0.1205	965849	keystroke_n	n	n/a
483.1805	0.104	966361	keystroke_i	i	n/a
483.449	0.091	966898	keystroke_o	o	n/a
483.66	0.09	967320	keystroke_r	r	n/a
483.7795	0.1205	967559	keystroke_Key.enter	Key.enter	n/a
483.906	7.2555	967812	prompt	n/a	midi designs jimmy momentum\n
484.5145	0.06	969029	keystroke_m	m	n/a
484.6945	0.075	969389	keystroke_i	i	n/a
484.7995	0.09	969599	keystroke_d	d	n/a
484.9345	0.09	969869	keystroke_i	i	n/a
485.115	0.0595	970230	keystroke_Key.space	Key.space	n/a
485.385	0.105	970770	keystroke_d	d	n/a
485.5945	0.06	971189	keystroke_e	e	n/a
485.6995	0.15	971399	keystroke_s	s	n/a
485.94	0.0745	971880	keystroke_i	i	n/a
486.135	0.0745	972270	keystroke_g	g	n/a
486.4795	0.09	972959	keystroke_n	n	n/a
486.6595	0.105	973319	keystroke_s	s	n/a
486.78	0.105	973560	keystroke_Key.space	Key.space	n/a
487.245	0.105	974490	keystroke_j	j	n/a
488.22	0.105	976440	keystroke_i	i	n/a
488.52	0.0745	977040	keystroke_m	m	n/a
488.655	0.1045	977310	keystroke_m	m	n/a
488.925	0.12	977850	keystroke_y	y	n/a
489.015	0.12	978030	keystroke_Key.space	Key.space	n/a
489.33	0.0745	978660	keystroke_m	m	n/a
489.6	0.0895	979200	keystroke_o	o	n/a
489.81	0.0895	979620	keystroke_m	m	n/a
489.9295	0.105	979859	keystroke_e	e	n/a
490.0955	0.075	980191	keystroke_n	n	n/a
490.395	0.1045	980790	keystroke_t	t	n/a
490.62	0.09	981240	keystroke_u	u	n/a
490.8445	0.106	981689	keystroke_m	m	n/a
491.0695	0.09	982139	keystroke_Key.enter	Key.enter	n/a
491.1655	6.116	982331	prompt	n/a	coupons dome fallen inexpensive\n
491.7905	0.09	983581	keystroke_c	c	n/a
491.8645	0.06	983729	keystroke_o	o	n/a
492.0595	0.0605	984119	keystroke_u	u	n/a
492.33	0.09	984660	keystroke_p	p	n/a
492.57	0.075	985140	keystroke_o	o	n/a
492.75	0.0895	985500	keystroke_n	n	n/a
492.8705	0.1345	985741	keystroke_s	s	n/a
492.9745	0.12	985949	keystroke_Key.space	Key.space	n/a
493.485	0.12	986970	keystroke_d	d	n/a
493.665	0.119	987330	keystroke_o	o	n/a
493.7545	0.1055	987509	keystroke_m	m	n/a
493.875	0.105	987750	keystroke_e	e	n/a
493.935	0.12	987870	keystroke_Key.space	Key.space	n/a
494.115	0.15	988230	keystroke_f	f	n/a
494.25	0.12	988500	keystroke_a	a	n/a
494.385	0.06	988770	keystroke_l	l	n/a
494.519	0.09	989038	keystroke_l	l	n/a
494.639	0.1065	989278	keystroke_e	e	n/a
494.79	0.0745	989580	keystroke_n	n	n/a
494.8495	0.105	989699	keystroke_Key.space	Key.space	n/a
495.1195	0.121	990239	keystroke_i	i	n/a
495.209	0.1215	990418	keystroke_n	n	n/a
495.75	0.089	991500	keystroke_e	e	n/a
496.02	0.104	992040	keystroke_x	x	n/a
496.1705	0.105	992341	keystroke_p	p	n/a
496.32	0.104	992640	keystroke_e	e	n/a
496.4405	0.09	992881	keystroke_n	n	n/a
496.5455	0.105	993091	keystroke_s	s	n/a
496.7095	0.0755	993419	keystroke_i	i	n/a
496.8005	0.0895	993601	keystroke_v	v	n/a
497.0095	0.12	994019	keystroke_e	e	n/a
497.1595	0.12	994319	keystroke_Key.enter	Key.enter	n/a
497.2865	1.2095	994573	prompt	n/a	'tis calls create portsmouth\n
498.4495	0.045	996899	keystroke_Key.enter	Key.enter	n/a
498.5005	10.901	997001	prompt	n/a	residential nuclear tone bidding\n
499.425	0.059	998850	keystroke_'	'	n/a
499.875	0.1195	999750	keystroke_t	t	n/a
499.98	0.0895	999960	keystroke_i	i	n/a
500.145	0.1495	1000290	keystroke_s	s	n/a
500.6395	0.105	1001279	keystroke_Key.space	Key.space	n/a
501.6605	0.0145	1003321	keystroke_=	=	n/a
501.795	0.06	1003590	keystroke_Key.backspace	Key.backspace	n/a
501.945	0.045	1003890	keystroke_Key.backspace	Key.backspace	n/a
502.065	0.0745	1004130	keystroke_Key.backspace	Key.backspace	n/a
502.199	0.0755	1004398	keystroke_Key.backspace	Key.backspace	n/a
502.334	0.091	1004668	keystroke_Key.backspace	Key.backspace	n/a
502.68	0.134	1005360	keystroke_r	r	n/a
503.114	0.0765	1006228	keystroke_Key.backspace	Key.backspace	n/a
503.25	0.09	1006500	keystroke_Key.backspace	Key.backspace	n/a
503.355	0.15	1006710	keystroke_r	r	n/a
503.475	0.135	1006950	keystroke_e	e	n/a
503.58	0.135	1007160	keystroke_s	s	n/a
503.775	0.089	1007550	keystroke_i	i	n/a
504.0295	0.0755	1008059	keystroke_d	d	n/a
504.225	0.09	1008450	keystroke_e	e	n/a
504.299	0.0905	1008598	keystroke_n	n	n/a
504.4495	0.105	1008899	keystroke_t	t	n/a
504.57	0.09	1009140	keystroke_i	i	n/a
504.6905	0.105	1009381	keystroke_a	a	n/a
504.8095	0.1205	1009619	keystroke_l	l	n/a
504.9145	0.09	1009829	keystroke_Key.space	Key.space	n/a
505.4405	0.089	1010881	keystroke_n	n	n/a
505.6945	0.0755	1011389	keystroke_u	u	n/a
506.1445	0.1045	1012289	keystroke_c	c	n/a
506.294	0.1055	1012588	keystroke_l	l	n/a
506.46	0.1045	1012920	keystroke_e	e	n/a
506.6095	0.09	1013219	keystroke_a	a	n/a
506.7295	0.1055	1013459	keystroke_r	r	n/a
506.805	0.135	1013610	keystroke_Key.space	Key.space	n/a
507.105	0.075	1014210	keystroke_t	t	n/a
507.21	0.135	1014420	keystroke_o	o	n/a
507.33	0.1045	1014660	keystroke_n	n	n/a
507.405	0.1195	1014810	keystroke_e	e	n/a
507.4645	0.1355	1014929	keystroke_Key.space	Key.space	n/a
508.05	0.09	1016100	keystroke_b	b	n/a
508.275	0.0895	1016550	keystroke_i	i	n/a
508.3795	0.075	1016759	keystroke_d	d	n/a
508.515	0.1045	1017030	keystroke_d	d	n/a
508.7095	0.1205	1017419	keystroke_i	i	n/a
508.785	0.105	1017570	keystroke_n	n	n/a
508.95	0.09	1017900	keystroke_g	g	n/a
509.3095	0.09	1018619	keystroke_Key.enter	Key.enter	n/a
