onset	duration	sample	value	key	prompt_text
35.12	0.1445	70240	keystroke_a	a	n/a
35.256	0.112	70512	keystroke_d	d	n/a
35.336	0.136	70672	keystroke_a	a	n/a
35.424	0.144	70848	keystroke_m	m	n/a
36.512	0.112	73024	keystroke_b	b	n/a
59.4405	0.152	118881	keystroke_Key.cmd_r	Key.cmd_r	n/a
59.4965	0.113	118993	keystroke_1	1	n/a
73.849	0.432	147698	keystroke_Key.cmd_r	Key.cmd_r	n/a
74.105	0.2	148210	keystroke_c	c	n/a
74.409	0.1545	148818	keystroke_Key.cmd_r	Key.cmd_r	n/a
74.481	0.117	148962	keystroke_2	2	n/a
75.625	0.144	151250	keystroke_Key.cmd_r	Key.cmd_r	n/a
75.713	0.088	151426	keystroke_v	v	n/a
81.993	0.136	163986	keystroke_Key.cmd_r	Key.cmd_r	n/a
82.049	0.112	164098	keystroke_1	1	n/a
92.313	0.1375	184626	keystroke_2	2	n/a
128.2275	0	256455	keystroke_Key.caps_lock	Key.caps_lock	n/a
129.874	0.299	259748	keystroke_Key.f19	Key.f19	n/a
132.948	0.0445	265896	keystroke_Key.ctrl_r	Key.ctrl_r	n/a
133.4875	0.0605	266975	keystroke_Key.alt	Key.alt	n/a
133.953	0.075	267906	keystroke_Key.cmd	Key.cmd	n/a
134.75	0	269500	keystroke_Key.caps_lock	Key.caps_lock	n/a
156.8205	11.905	313641	prompt	n/a	the quick brown fox jumps over a lazy dog\n
160.9985	0.09	321997	keystroke_t	t	n/a
161.1335	0.075	322267	keystroke_h	h	n/a
161.2235	0.06	322447	keystroke_e	e	n/a
161.3135	0.135	322627	keystroke_Key.space	Key.space	n/a
161.658	0.1055	323316	keystroke_q	q	n/a
161.8685	0.1055	323737	keystroke_u	u	n/a
162.0635	0.09	324127	keystroke_i	i	n/a
162.2135	0.12	324427	keystroke_c	c	n/a
162.3635	0.135	324727	keystroke_k	k	n/a
162.4535	0.135	324907	keystroke_Key.space	Key.space	n/a
162.6335	0.075	325267	keystroke_b	b	n/a
162.9035	0.105	325807	keystroke_r	r	n/a
163.0835	0.1045	326167	keystroke_o	o	n/a
163.2035	0.0895	326407	keystroke_w	w	n/a
163.3685	0.105	326737	keystroke_n	n	n/a
163.4585	0.1195	326917	keystroke_Key.space	Key.space	n/a
163.7285	0.09	327457	keystroke_f	f	n/a
163.8335	0.0595	327667	keystroke_o	o	n/a
163.9985	0.075	327997	keystroke_x	x	n/a
164.208	0.1355	328416	keystroke_Key.space	Key.space	n/a
164.7035	0.06	329407	keystroke_j	j	n/a
164.853	0.0755	329706	keystroke_u	u	n/a
165.0635	0.09	330127	keystroke_m	m	n/a
165.1835	0.12	330367	keystroke_p	p	n/a
165.3335	0.075	330667	keystroke_s	s	n/a
165.4385	0.1055	330877	keystroke_Key.space	Key.space	n/a
165.6485	0.075	331297	keystroke_o	o	n/a
165.7535	0.105	331507	keystroke_v	v	n/a
165.978	0.1355	331956	keystroke_e	e	n/a
166.1885	0.0895	332377	keystroke_r	r	n/a
166.3085	0.12	332617	keystroke_Key.space	Key.space	n/a
166.4735	0.075	332947	keystroke_a	a	n/a
166.578	0.1355	333156	keystroke_Key.space	Key.space	n/a
166.8185	0.0745	333637	keystroke_l	l	n/a
166.878	0.0905	333756	keystroke_a	a	n/a
167.178	0.0605	334356	keystroke_z	z	n/a
167.493	0.0905	334986	keystroke_y	y	n/a
167.6285	0.12	335257	keystroke_Key.space	Key.space	n/a
168.1385	0.075	336277	keystroke_d	d	n/a
168.2295	0.089	336459	keystroke_o	o	n/a
168.3635	0.06	336727	keystroke_g	g	n/a
168.6335	0.09	337267	keystroke_Key.enter	Key.enter	n/a
168.73	9.6695	337460	prompt	n/a	competent unfortunately requirements smell\n
169.8335	0.1345	339667	keystroke_c	c	n/a
169.9385	0.105	339877	keystroke_o	o	n/a
170.0885	0.135	340177	keystroke_m	m	n/a
170.2085	0.1055	340417	keystroke_p	p	n/a
170.3285	0.09	340657	keystroke_e	e	n/a
170.5235	0.105	341047	keystroke_t	t	n/a
170.7185	0.1045	341437	keystroke_e	e	n/a
171.258	0.0905	342516	keystroke_n	n	n/a
171.4085	0.105	342817	keystroke_t	t	n/a
171.5735	0.135	343147	keystroke_Key.space	Key.space	n/a
171.9185	0.03	343837	keystroke_u	u	n/a
172.0535	0.1205	344107	keystroke_n	n	n/a
172.1585	0.091	344317	keystroke_f	f	n/a
172.2785	0.06	344557	keystroke_o	o	n/a
172.3535	0.075	344707	keystroke_r	r	n/a
173.178	0.106	346356	keystroke_t	t	n/a
173.269	0.0745	346538	keystroke_u	u	n/a
173.464	0.1195	346928	keystroke_n	n	n/a
173.569	0.209	347138	keystroke_a	a	n/a
173.9735	0.135	347947	keystroke_t	t	n/a
174.078	0.0755	348156	keystroke_e	e	n/a
174.484	0.1945	348968	keystroke_l	l	n/a
174.5585	0.105	349117	keystroke_y	y	n/a
175.278	0.0905	350556	keystroke_Key.space	Key.space	n/a
175.504	0.135	351008	keystroke_r	r	n/a
175.593	0.1055	351186	keystroke_e	e	n/a
175.6535	0.105	351307	keystroke_q	q	n/a
175.8785	0.165	351757	keystroke_u	u	n/a
175.999	0.1195	351998	keystroke_i	i	n/a
176.1335	0.09	352267	keystroke_r	r	n/a
176.1935	0.091	352387	keystroke_e	e	n/a
176.3885	0.12	352777	keystroke_m	m	n/a
176.5235	0.09	353047	keystroke_e	e	n/a
176.6285	0.12	353257	keystroke_n	n	n/a
176.7635	0.0905	353527	keystroke_t	t	n/a
176.959	0.0895	353918	keystroke_s	s	n/a
177.154	0.1195	354308	keystroke_Key.space	Key.space	n/a
177.3335	0.06	354667	keystroke_s	s	n/a
177.4385	0.1055	354877	keystroke_m	m	n/a
177.5585	0.09	355117	keystroke_e	e	n/a
177.6935	0.0605	355387	keystroke_l	l	n/a
177.874	0.09	355748	keystroke_l	l	n/a
178.3085	0.09	356617	keystroke_Key.enter	Key.enter	n/a
178.4035	6.3265	356807	prompt	n/a	senate keyboards problem totally\n
179.209	0.1045	358418	keystroke_s	s	n/a
179.419	0.105	358838	keystroke_e	e	n/a
179.554	0.1045	359108	keystroke_n	n	n/a
179.7935	0.1205	359587	keystroke_a	a	n/a
180.019	0.12	360038	keystroke_t	t	n/a
180.124	0.0895	360248	keystroke_e	e	n/a
180.274	0.1045	360548	keystroke_Key.space	Key.space	n/a
180.3935	0.0905	360787	keystroke_k	k	n/a
180.484	0.09	360968	keystroke_e	e	n/a
180.619	0.0745	361238	keystroke_y	y	n/a
180.724	0.09	361448	keystroke_b	b	n/a
180.904	0.0895	361808	keystroke_o	o	n/a
180.9785	0.1505	361957	keystroke_a	a	n/a
181.069	0.09	362138	keystroke_r	r	n/a
181.309	0.09	362618	keystroke_d	d	n/a
181.489	0.0895	362978	keystroke_s	s	n/a
181.609	0.12	363218	keystroke_Key.space	Key.space	n/a
181.789	0.12	363578	keystroke_p	p	n/a
181.939	0.105	363878	keystroke_r	r	n/a
182.059	0.0745	364118	keystroke_o	o	n/a
182.1935	0.0905	364387	keystroke_b	b	n/a
182.284	0.12	364568	keystroke_l	l	n/a
182.524	0.105	365048	keystroke_e	e	n/a
182.734	0.15	365468	keystroke_m	m	n/a
182.899	0.12	365798	keystroke_Key.space	Key.space	n/a
183.514	0.09	367028	keystroke_t	t	n/a
183.604	0.0895	367208	keystroke_o	o	n/a
183.709	0.09	367418	keystroke_t	t	n/a
183.859	0.0895	367718	keystroke_a	a	n/a
183.9635	0.061	367927	keystroke_l	l	n/a
184.144	0.1805	368288	keystroke_l	l	n/a
184.2785	0.075	368557	keystroke_y	y	n/a
184.639	0.09	369278	keystroke_Key.enter	Key.enter	n/a
184.734	7.8255	369468	prompt	n/a	aluminum sandy scholar teddy\n
185.404	0.0745	370808	keystroke_a	a	n/a
185.5085	0.1655	371017	keystroke_l	l	n/a
185.644	0.075	371288	keystroke_u	u	n/a
185.854	0.09	371708	keystroke_m	m	n/a
186.1985	0.0605	372397	keystroke_i	i	n/a
186.409	0.105	372818	keystroke_n	n	n/a
186.649	0.12	373298	keystroke_i	i	n/a
186.739	0.105	373478	keystroke_u	u	n/a
186.9635	0.105	373927	keystroke_m	m	n/a
187.084	0.135	374168	keystroke_Key.space	Key.space	n/a
187.2785	0.0755	374557	keystroke_s	s	n/a
187.4135	0.1205	374827	keystroke_a	a	n/a
187.534	0.0745	375068	keystroke_n	n	n/a
187.654	0.105	375308	keystroke_d	d	n/a
187.804	0.0745	375608	keystroke_y	y	n/a
187.969	0.1045	375938	keystroke_Key.space	Key.space	n/a
188.3445	0.1045	376689	keystroke_s	s	n/a
188.419	0.135	376838	keystroke_c	c	n/a
188.5385	0.1205	377077	keystroke_h	h	n/a
188.7635	0.0755	377527	keystroke_o	o	n/a
188.959	0.06	377918	keystroke_l	l	n/a
189.0785	0.1205	378157	keystroke_a	a	n/a
189.1535	0.1055	378307	keystroke_r	r	n/a
189.304	0.12	378608	keystroke_Key.space	Key.space	n/a
189.4385	0.0905	378877	keystroke_t	t	n/a
189.619	0.09	379238	keystroke_e	e	n/a
189.8135	0.0905	379627	keystroke_d	d	n/a
189.9935	0.0755	379987	keystroke_d	d	n/a
190.129	0.09	380258	keystroke_y	y	n/a
192.499	0.06	384998	keystroke_Key.enter	Key.enter	n/a
192.563	8.6215	385126	prompt	n/a	game champions sections reason\n
195.9635	0.0605	391927	keystroke_g	g	n/a
196.084	0.105	392168	keystroke_a	a	n/a
196.249	0.12	392498	keystroke_m	m	n/a
196.369	0.075	392738	keystroke_e	e	n/a
196.474	0.1195	392948	keystroke_Key.space	Key.space	n/a
196.744	0.09	393488	keystroke_c	c	n/a
196.8485	0.1055	393697	keystroke_h	h	n/a
196.999	0.105	393998	keystroke_a	a	n/a
197.1935	0.1205	394387	keystroke_m	m	n/a
197.344	0.105	394688	keystroke_p	p	n/a
197.614	0.105	395228	keystroke_i	i	n/a
197.704	0.24	395408	keystroke_o	o	n/a
197.914	0.075	395828	keystroke_n	n	n/a
198.184	0.06	396368	keystroke_s	s	n/a
198.289	0.12	396578	keystroke_Key.space	Key.space	n/a
198.7535	0.0755	397507	keystroke_s	s	n/a
198.874	0.075	397748	keystroke_e	e	n/a
199.039	0.09	398078	keystroke_c	c	n/a
199.204	0.105	398408	keystroke_t	t	n/a
199.339	0.21	398678	keystroke_i	i	n/a
199.3985	0.165	398797	keystroke_o	o	n/a
199.489	0.135	398978	keystroke_n	n	n/a
199.5935	0.0605	399187	keystroke_s	s	n/a
199.699	0.12	399398	keystroke_Key.space	Key.space	n/a
200.0435	0.0905	400087	keystroke_r	r	n/a
200.209	0.105	400418	keystroke_e	e	n/a
200.389	0.135	400778	keystroke_a	a	n/a
200.629	0.0745	401258	keystroke_s	s	n/a
200.7635	0.1355	401527	keystroke_o	o	n/a
200.854	0.12	401708	keystroke_n	n	n/a
201.0785	0.1055	402157	keystroke_Key.enter	Key.enter	n/a
201.188	7.8425	402376	prompt	n/a	admitted metres directories jeffrey\n
201.829	0.105	403658	keystroke_a	a	n/a
201.9935	0.0905	403987	keystroke_d	d	n/a
202.144	0.1195	404288	keystroke_m	m	n/a
202.249	0.075	404498	keystroke_i	i	n/a
202.459	0.06	404918	keystroke_t	t	n/a
202.6385	0.0905	405277	keystroke_t	t	n/a
202.834	0.09	405668	keystroke_e	e	n/a
203.044	0.0605	406088	keystroke_d	d	n/a
203.224	0.135	406448	keystroke_Key.space	Key.space	n/a
203.524	0.12	407048	keystroke_m	m	n/a
203.584	0.105	407168	keystroke_e	e	n/a
203.7785	0.0755	407557	keystroke_t	t	n/a
203.974	0.15	407948	keystroke_r	r	n/a
204.0635	0.1055	408127	keystroke_e	e	n/a
204.259	0.09	408518	keystroke_s	s	n/a
204.5135	0.1205	409027	keystroke_Key.space	Key.space	n/a
204.814	0.0755	409628	keystroke_d	d	n/a
204.919	0.0745	409838	keystroke_i	i	n/a
205.099	0.12	410198	keystroke_r	r	n/a
205.19	0.1035	410380	keystroke_e	e	n/a
206.2235	0.1055	412447	keystroke_c	c	n/a
206.404	0.1045	412808	keystroke_t	t	n/a
206.599	0.09	413198	keystroke_o	o	n/a
206.7935	0.0905	413587	keystroke_r	r	n/a
207.1245	0.1045	414249	keystroke_i	i	n/a
207.199	0.12	414398	keystroke_e	e	n/a
207.3935	0.0905	414787	keystroke_s	s	n/a
207.514	0.135	415028	keystroke_Key.space	Key.space	n/a
207.769	0.09	415538	keystroke_j	j	n/a
207.889	0.0895	415778	keystroke_e	e	n/a
208.084	0.075	416168	keystroke_f	f	n/a
208.249	0.0755	416498	keystroke_f	f	n/a
208.459	0.1195	416918	keystroke_r	r	n/a
208.534	0.09	417068	keystroke_e	e	n/a
208.714	0.075	417428	keystroke_y	y	n/a
208.939	0.09	417878	keystroke_Key.enter	Key.enter	n/a
209.037	6.833	418074	prompt	n/a	median formerly recorded hours\n
209.854	0.075	419708	keystroke_m	m	n/a
209.899	0.06	419798	keystroke_e	e	n/a
210.0935	0.0455	420187	keystroke_d	d	n/a
210.154	0.105	420308	keystroke_i	i	n/a
210.2735	0.105	420547	keystroke_a	a	n/a
210.409	0.105	420818	keystroke_n	n	n/a
210.514	0.135	421028	keystroke_Key.space	Key.space	n/a
210.9785	0.0755	421957	keystroke_f	f	n/a
211.069	0.06	422138	keystroke_o	o	n/a
211.384	0.075	422768	keystroke_r	r	n/a
211.6235	0.121	423247	keystroke_m	m	n/a
211.819	0.09	423638	keystroke_e	e	n/a
211.8635	0.1305	423727	keystroke_r	r	n/a
212.164	0.105	424328	keystroke_l	l	n/a
212.464	0.0755	424928	keystroke_y	y	n/a
212.599	0.135	425198	keystroke_Key.space	Key.space	n/a
212.959	0.12	425918	keystroke_r	r	n/a
213.049	0.09	426098	keystroke_e	e	n/a
213.259	0.12	426518	keystroke_c	c	n/a
213.439	0.0905	426878	keystroke_o	o	n/a
213.544	0.075	427088	keystroke_r	r	n/a
213.754	0.105	427508	keystroke_d	d	n/a
213.9635	0.0605	427927	keystroke_e	e	n/a
214.13	0.074	428260	keystroke_d	d	n/a
214.234	0.12	428468	keystroke_Key.space	Key.space	n/a
214.444	0.09	428888	keystroke_h	h	n/a
214.7585	0.0905	429517	keystroke_o	o	n/a
214.954	0.075	429908	keystroke_u	u	n/a
215.074	0.1045	430148	keystroke_r	r	n/a
215.4185	0.0305	430837	keystroke_s	s	n/a
215.7935	0.0755	431587	keystroke_Key.enter	Key.enter	n/a
215.8735	8.4565	431747	prompt	n/a	reduce thumbnail creatures heather\n
216.6935	0.0455	433387	keystroke_e	e	n/a
217.1295	0.0595	434259	keystroke_Key.backspace	Key.backspace	n/a
217.5635	0.0905	435127	keystroke_r	r	n/a
217.759	0.0905	435518	keystroke_e	e	n/a
217.9535	0.0905	435907	keystroke_d	d	n/a
218.089	0.0605	436178	keystroke_u	u	n/a
218.269	0.1945	436538	keystroke_c	c	n/a
218.4785	0.0905	436957	keystroke_e	e	n/a
218.644	0.1195	437288	keystroke_Key.space	Key.space	n/a
218.959	0.09	437918	keystroke_t	t	n/a
219.034	0.0595	438068	keystroke_h	h	n/a
219.214	0.0445	438428	keystroke_u	u	n/a
219.409	0.075	438818	keystroke_m	m	n/a
219.529	0.075	439058	keystroke_b	b	n/a
219.799	0.0895	439598	keystroke_n	n	n/a
220.069	0.12	440138	keystroke_a	a	n/a
220.2635	0.1655	440527	keystroke_i	i	n/a
220.429	0.1495	440858	keystroke_l	l	n/a
220.5935	0.1355	441187	keystroke_Key.space	Key.space	n/a
220.8635	0.1055	441727	keystroke_c	c	n/a
221.074	0.1345	442148	keystroke_r	r	n/a
221.1785	0.1505	442357	keystroke_e	e	n/a
221.389	0.15	442778	keystroke_a	a	n/a
221.629	0.09	443258	keystroke_t	t	n/a
221.944	0.075	443888	keystroke_u	u	n/a
222.049	0.15	444098	keystroke_r	r	n/a
222.259	0.1045	444518	keystroke_e	e	n/a
222.4535	0.0905	444907	keystroke_s	s	n/a
222.589	0.15	445178	keystroke_Key.space	Key.space	n/a
222.949	0.09	445898	keystroke_h	h	n/a
223.024	0.12	446048	keystroke_e	e	n/a
223.204	0.105	446408	keystroke_a	a	n/a
223.324	0.12	446648	keystroke_t	t	n/a
223.489	0.12	446978	keystroke_h	h	n/a
223.684	0.15	447368	keystroke_e	e	n/a
223.819	0.12	447638	keystroke_r	r	n/a
224.224	0.105	448448	keystroke_Key.enter	Key.enter	n/a
224.334	9.9115	448668	prompt	n/a	kiss cincinnati helmet glory\n
224.944	0.0605	449888	keystroke_k	k	n/a
225.109	0.075	450218	keystroke_i	i	n/a
225.214	0.091	450428	keystroke_s	s	n/a
225.379	0.1205	450758	keystroke_s	s	n/a
225.754	0.06	451508	keystroke_Key.backspace	Key.backspace	n/a
225.904	0.045	451808	keystroke_Key.backspace	Key.backspace	n/a
226.0555	0.0435	452111	keystroke_Key.backspace	Key.backspace	n/a
226.2195	0.059	452439	keystroke_Key.backspace	Key.backspace	n/a
226.774	0.045	453548	keystroke_k	k	n/a
226.909	0.075	453818	keystroke_i	i	n/a
227.104	0.0745	454208	keystroke_s	s	n/a
227.254	0.12	454508	keystroke_s	s	n/a
227.359	0.1345	454718	keystroke_Key.space	Key.space	n/a
227.509	0.135	455018	keystroke_c	c	n/a
227.659	0.09	455318	keystroke_i	i	n/a
227.824	0.15	455648	keystroke_n	n	n/a
228.034	0.1205	456068	keystroke_c	c	n/a
228.1405	0.0735	456281	keystroke_i	i	n/a
228.3195	0.0745	456639	keystroke_n	n	n/a
228.4845	0.09	456969	keystroke_n	n	n/a
228.5595	0.1195	457119	keystroke_a	a	n/a
229.0245	0.075	458049	keystroke_t	t	n/a
229.2045	0.135	458409	keystroke_i	i	n/a
229.325	0.149	458650	keystroke_Key.space	Key.space	n/a
229.774	0.075	459548	keystroke_h	h	n/a
230.284	0.045	460568	keystroke_e	e	n/a
230.389	0.0895	460778	keystroke_l	l	n/a
230.644	0.075	461288	keystroke_m	m	n/a
230.749	0.105	461498	keystroke_e	e	n/a
231.0045	0.089	462009	keystroke_t	t	n/a
231.304	0.135	462608	keystroke_Key.space	Key.space	n/a
231.574	0.0895	463148	keystroke_g	g	n/a
231.6785	0.0455	463357	keystroke_l	l	n/a
231.829	0.045	463658	keystroke_o	o	n/a
232.0695	0.1795	464139	keystroke_a	a	n/a
232.339	0.121	464678	keystroke_r	r	n/a
232.519	0.0905	465038	keystroke_y	y	n/a
232.774	0.0895	465548	keystroke_Key.backspace	Key.backspace	n/a
232.91	0.074	465820	keystroke_Key.backspace	Key.backspace	n/a
233.194	0.09	466388	keystroke_Key.backspace	Key.backspace	n/a
233.4345	0.0745	466869	keystroke_r	r	n/a
233.554	0.06	467108	keystroke_y	y	n/a
234.169	0.0755	468338	keystroke_Key.enter	Key.enter	n/a
234.249	8.681	468498	prompt	n/a	demand earrings campaign cradle\n
235.0995	0.0595	470199	keystroke_d	d	n/a
235.234	0.09	470468	keystroke_e	e	n/a
235.354	0.12	470708	keystroke_m	m	n/a
235.489	0.1045	470978	keystroke_a	a	n/a
235.609	0.09	471218	keystroke_n	n	n/a
235.729	0.105	471458	keystroke_d	d	n/a
235.849	0.15	471698	keystroke_Key.space	Key.space	n/a
236.239	0.135	472478	keystroke_e	e	n/a
236.449	0.12	472898	keystroke_a	a	n/a
236.554	0.105	473108	keystroke_r	r	n/a
236.749	0.12	473498	keystroke_r	r	n/a
236.989	0.0895	473978	keystroke_i	i	n/a
237.034	0.1345	474068	keystroke_n	n	n/a
237.154	0.105	474308	keystroke_g	g	n/a
237.349	0.09	474698	keystroke_s	s	n/a
237.559	0.1195	475118	keystroke_Key.space	Key.space	n/a
237.919	0.135	475838	keystroke_c	c	n/a
238.039	0.12	476078	keystroke_a	a	n/a
238.234	0.135	476468	keystroke_m	m	n/a
238.459	0.1345	476918	keystroke_p	p	n/a
238.624	0.12	477248	keystroke_a	a	n/a
238.864	0.105	477728	keystroke_i	i	n/a
239.089	0.06	478178	keystroke_g	g	n/a
239.269	0.105	478538	keystroke_n	n	n/a
239.419	0.135	478838	keystroke_Key.space	Key.space	n/a
239.584	0.105	479168	keystroke_c	c	n/a
239.7635	0.1055	479527	keystroke_r	r	n/a
239.884	0.12	479768	keystroke_a	a	n/a
240.0785	0.0755	480157	keystroke_d	d	n/a
240.244	0.075	480488	keystroke_e	e	n/a
240.4085	0.0915	480817	keystroke_l	l	n/a
240.844	0.045	481688	keystroke_Key.backspace	Key.backspace	n/a
240.9935	0.0605	481987	keystroke_Key.backspace	Key.backspace	n/a
241.234	0.0595	482468	keystroke_l	l	n/a
241.354	0.075	482708	keystroke_e	e	n/a
241.969	0.045	483938	keystroke_Key.backspace	Key.backspace	n/a
242.074	0.06	484148	keystroke_Key.backspace	Key.backspace	n/a
242.299	0.0605	484598	keystroke_l	l	n/a
242.464	0.0905	484928	keystroke_e	e	n/a
242.839	0.09	485678	keystroke_Key.enter	Key.enter	n/a
242.9335	9.282	485867	prompt	n/a	thumbnails term compliance nodes\n
243.7695	0.0745	487539	keystroke_t	t	n/a
243.8595	0.0895	487719	keystroke_h	h	n/a
243.994	0.0155	487988	keystroke_s	s	n/a
244.0695	0.06	488139	keystroke_u	u	n/a
244.0855	0.118	488171	keystroke_d	d	n/a
244.0995	0.045	488199	keystroke_s	s	n/a
244.159	0.0595	488318	keystroke_s	s	n/a
244.2495	0.0895	488499	keystroke_m	m	n/a
244.369	0.075	488738	keystroke_b	b	n/a
244.684	0.06	489368	keystroke_Key.backspace	Key.backspace	n/a
244.849	0.06	489698	keystroke_Key.backspace	Key.backspace	n/a
245.014	0.06	490028	keystroke_Key.backspace	Key.backspace	n/a
245.179	0.06	490358	keystroke_Key.backspace	Key.backspace	n/a
245.359	0.0605	490718	keystroke_Key.backspace	Key.backspace	n/a
245.494	0.0755	490988	keystroke_Key.backspace	Key.backspace	n/a
245.674	0.075	491348	keystroke_Key.backspace	Key.backspace	n/a
245.914	0.0445	491828	keystroke_u	u	n/a
246.124	0.06	492248	keystroke_m	m	n/a
246.274	0.075	492548	keystroke_b	b	n/a
246.9045	0.0745	493809	keystroke_n	n	n/a
247.024	0.0905	494048	keystroke_a	a	n/a
247.144	0.09	494288	keystroke_i	i	n/a
247.354	0.06	494708	keystroke_l	l	n/a
247.459	0.075	494918	keystroke_s	s	n/a
247.5785	0.1205	495157	keystroke_Key.space	Key.space	n/a
247.909	0.075	495818	keystroke_t	t	n/a
248.1045	0.1045	496209	keystroke_e	e	n/a
248.329	0.0755	496658	keystroke_r	r	n/a
248.5395	0.1195	497079	keystroke_m	m	n/a
248.674	0.135	497348	keystroke_Key.space	Key.space	n/a
248.914	0.12	497828	keystroke_c	c	n/a
249.005	0.119	498010	keystroke_o	o	n/a
249.2595	0.119	498519	keystroke_m	m	n/a
249.424	0.12	498848	keystroke_p	p	n/a
249.664	0.12	499328	keystroke_l	l	n/a
249.904	0.1045	499808	keystroke_i	i	n/a
250.054	0.105	500108	keystroke_a	a	n/a
250.264	0.105	500528	keystroke_n	n	n/a
250.5485	0.151	501097	keystroke_c	c	n/a
250.774	0.1045	501548	keystroke_e	e	n/a
250.984	0.135	501968	keystroke_Key.space	Key.space	n/a
251.2245	0.1345	502449	keystroke_n	n	n/a
251.374	0.09	502748	keystroke_o	o	n/a
251.524	0.0755	503048	keystroke_d	d	n/a
251.674	0.0755	503348	keystroke_e	e	n/a
251.884	0.0755	503768	keystroke_s	s	n/a
252.1245	0.09	504249	keystroke_Key.enter	Key.enter	n/a
252.2185	7.2265	504437	prompt	n/a	newspaper closed trunk entity\n
252.875	0.089	505750	keystroke_n	n	n/a
252.994	0.1355	505988	keystroke_e	e	n/a
253.114	0.1355	506228	keystroke_w	w	n/a
253.3545	0.1045	506709	keystroke_s	s	n/a
253.6095	0.0745	507219	keystroke_p	p	n/a
253.7295	0.1195	507459	keystroke_a	a	n/a
253.834	0.12	507668	keystroke_p	p	n/a
254.0445	0.1655	508089	keystroke_e	e	n/a
254.2395	0.1345	508479	keystroke_r	r	n/a
254.5095	0.1345	509019	keystroke_Key.space	Key.space	n/a
254.9445	0.1045	509889	keystroke_c	c	n/a
255.0345	0.0595	510069	keystroke_l	l	n/a
255.199	0.075	510398	keystroke_o	o	n/a
255.244	0.1495	510488	keystroke_s	s	n/a
255.364	0.09	510728	keystroke_e	e	n/a
255.5605	0.0885	511121	keystroke_d	d	n/a
255.814	0.045	511628	keystroke_Key.backspace	Key.backspace	n/a
256.039	0.075	512078	keystroke_Key.backspace	Key.backspace	n/a
256.2195	0.1045	512439	keystroke_Key.backspace	Key.backspace	n/a
256.5045	0.1045	513009	keystroke_s	s	n/a
256.669	0.09	513338	keystroke_e	e	n/a
256.879	0.0905	513758	keystroke_d	d	n/a
256.9985	0.1205	513997	keystroke_Key.space	Key.space	n/a
257.239	0.06	514478	keystroke_t	t	n/a
257.449	0.09	514898	keystroke_r	r	n/a
257.704	0.015	515408	keystroke_u	u	n/a
257.8245	0.1045	515649	keystroke_n	n	n/a
258.004	0.105	516008	keystroke_k	k	n/a
258.1395	0.149	516279	keystroke_Key.space	Key.space	n/a
258.349	0.0905	516698	keystroke_e	e	n/a
258.499	0.09	516998	keystroke_n	n	n/a
258.649	0.105	517298	keystroke_t	t	n/a
258.739	0.0905	517478	keystroke_i	i	n/a
258.874	0.0895	517748	keystroke_t	t	n/a
259.024	0.0905	518048	keystroke_y	y	n/a
259.354	0.09	518708	keystroke_Key.enter	Key.enter	n/a
259.4485	10.5865	518897	prompt	n/a	marion discipline revenues stroke\n
260.284	0.12	520568	keystroke_m	m	n/a
260.374	0.12	520748	keystroke_a	a	n/a
260.5545	0.0895	521109	keystroke_r	r	n/a
260.6745	0.1195	521349	keystroke_i	i	n/a
260.9295	0.105	521859	keystroke_o	o	n/a
261.1695	0.1045	522339	keystroke_n	n	n/a
261.2595	0.1345	522519	keystroke_Key.space	Key.space	n/a
261.5145	0.09	523029	keystroke_d	d	n/a
261.694	0.0455	523388	keystroke_i	i	n/a
261.7995	0.135	523599	keystroke_s	s	n/a
261.9195	0.135	523839	keystroke_c	c	n/a
262.9995	0.09	525999	keystroke_i	i	n/a
263.2545	0.075	526509	keystroke_p	p	n/a
263.464	0.1055	526928	keystroke_l	l	n/a
263.704	0.1055	527408	keystroke_i	i	n/a
263.779	0.121	527558	keystroke_n	n	n/a
263.9595	0.06	527919	keystroke_e	e	n/a
264.034	0.1355	528068	keystroke_Key.space	Key.space	n/a
264.2295	0.1195	528459	keystroke_r	r	n/a
264.3195	0.105	528639	keystroke_e	e	n/a
264.5895	0.1345	529179	keystroke_v	v	n/a
264.8295	0.09	529659	keystroke_e	e	n/a
264.964	0.0755	529928	keystroke_n	n	n/a
265.189	0.075	530378	keystroke_u	u	n/a
265.3095	0.09	530619	keystroke_e	e	n/a
265.5345	0.09	531069	keystroke_s	s	n/a
265.7145	0.135	531429	keystroke_Key.space	Key.space	n/a
265.864	0.09	531728	keystroke_s	s	n/a
266.1345	0.135	532269	keystroke_t	t	n/a
266.3295	0.106	532659	keystroke_r	r	n/a
266.4645	0.1205	532929	keystroke_o	o	n/a
266.6595	0.1195	533319	keystroke_k	k	n/a
266.794	0.092	533588	keystroke_e	e	n/a
267.1545	0.06	534309	keystroke_Key.backspace	Key.backspace	n/a
267.3495	0.0445	534699	keystroke_Key.backspace	Key.backspace	n/a
267.5445	0.075	535089	keystroke_Key.backspace	Key.backspace	n/a
267.7395	0.03	535479	keystroke_Key.backspace	Key.backspace	n/a
267.889	0.075	535778	keystroke_Key.backspace	Key.backspace	n/a
268.2345	0.105	536469	keystroke_Key.backspace	Key.backspace	n/a
268.4445	0.0895	536889	keystroke_Key.backspace	Key.backspace	n/a
268.6095	0.135	537219	keystroke_Key.space	Key.space	n/a
268.9395	0.06	537879	keystroke_s	s	n/a
269.0745	0.075	538149	keystroke_t	t	n/a
269.224	0.0905	538448	keystroke_r	r	n/a
269.3595	0.09	538719	keystroke_o	o	n/a
269.5845	0.135	539169	keystroke_k	k	n/a
269.705	0.089	539410	keystroke_e	e	n/a
269.9445	0.09	539889	keystroke_Key.enter	Key.enter	n/a
270.0385	7.617	540077	prompt	n/a	technology cheese running pest\n
270.8295	0.09	541659	keystroke_t	t	n/a
270.979	0.0905	541958	keystroke_e	e	n/a
271.1595	0.1195	542319	keystroke_c	c	n/a
271.3095	0.09	542619	keystroke_h	h	n/a
271.5195	0.105	543039	keystroke_n	n	n/a
271.594	0.0905	543188	keystroke_o	o	n/a
271.8045	0.0595	543609	keystroke_l	l	n/a
271.9845	0.09	543969	keystroke_o	o	n/a
272.179	0.0755	544358	keystroke_g	g	n/a
272.2995	0.09	544599	keystroke_y	y	n/a
272.4345	0.1055	544869	keystroke_Key.space	Key.space	n/a
272.5845	0.105	545169	keystroke_c	c	n/a
272.7045	0.0745	545409	keystroke_h	h	n/a
272.84	0.0745	545680	keystroke_e	e	n/a
273.094	0.0905	546188	keystroke_s	s	n/a
273.3345	0.12	546669	keystroke_s	s	n/a
273.7545	0.06	547509	keystroke_Key.backspace	Key.backspace	n/a
273.8895	0.0745	547779	keystroke_Key.backspace	Key.backspace	n/a
274.0245	0.075	548049	keystroke_e	e	n/a
274.2495	0.12	548499	keystroke_s	s	n/a
274.579	0.0755	549158	keystroke_e	e	n/a
274.7295	0.1345	549459	keystroke_Key.space	Key.space	n/a
274.9995	0.075	549999	keystroke_r	r	n/a
275.0895	0.06	550179	keystroke_u	u	n/a
275.2995	0.0755	550599	keystroke_n	n	n/a
275.464	0.09	550928	keystroke_n	n	n/a
275.675	0.119	551350	keystroke_i	i	n/a
275.7345	0.12	551469	keystroke_n	n	n/a
275.8695	0.09	551739	keystroke_g	g	n/a
275.9145	0.1645	551829	keystroke_Key.space	Key.space	n/a
276.394	0.0905	552788	keystroke_p	p	n/a
276.5145	0.09	553029	keystroke_e	e	n/a
276.7245	0.09	553449	keystroke_s	s	n/a
276.8595	0.1045	553719	keystroke_t	t	n/a
277.5495	0.105	555099	keystroke_Key.enter	Key.enter	n/a
277.658	8.9975	555316	prompt	n/a	effective happen recognized george\n
279.0045	0.0895	558009	keystroke_e	e	n/a
279.2145	0.06	558429	keystroke_f	f	n/a
279.364	0.1205	558728	keystroke_f	f	n/a
279.4695	0.105	558939	keystroke_e	e	n/a
279.6795	0.105	559359	keystroke_c	c	n/a
279.8895	0.0745	559779	keystroke_t	t	n/a
280.0095	0.105	560019	keystroke_i	i	n/a
280.0995	0.105	560199	keystroke_v	v	n/a
280.294	0.0905	560588	keystroke_e	e	n/a
280.3995	0.12	560799	keystroke_Key.space	Key.space	n/a
280.579	0.12	561158	keystroke_h	h	n/a
280.7145	0.09	561429	keystroke_a	a	n/a
280.8195	0.0745	561639	keystroke_p	p	n/a
281.329	0.0755	562658	keystroke_p	p	n/a
281.824	0.0455	563648	keystroke_e	e	n/a
281.9145	0.105	563829	keystroke_n	n	n/a
282.0495	0.135	564099	keystroke_Key.space	Key.space	n/a
282.3045	0.15	564609	keystroke_r	r	n/a
282.47	0.1045	564940	keystroke_e	e	n/a
282.679	0.1205	565358	keystroke_c	c	n/a
282.83	0.1195	565660	keystroke_o	o	n/a
282.964	0.0905	565928	keystroke_g	g	n/a
283.0845	0.135	566169	keystroke_n	n	n/a
283.3695	0.1945	566739	keystroke_z	z	n/a
283.924	0.0605	567848	keystroke_Key.backspace	Key.backspace	n/a
284.1195	0.0745	568239	keystroke_i	i	n/a
284.179	0.1805	568358	keystroke_z	z	n/a
284.6595	0.09	569319	keystroke_e	e	n/a
284.8695	0.09	569739	keystroke_d	d	n/a
285.0195	0.1345	570039	keystroke_Key.space	Key.space	n/a
285.379	0.0905	570758	keystroke_g	g	n/a
285.5445	0.1055	571089	keystroke_e	e	n/a
285.679	0.12	571358	keystroke_o	o	n/a
285.8895	0.0745	571779	keystroke_r	r	n/a
286.1	0.0895	572200	keystroke_g	g	n/a
286.279	0.1055	572558	keystroke_e	e	n/a
286.5645	0.09	573129	keystroke_Key.enter	Key.enter	n/a
286.6585	6.732	573317	prompt	n/a	these sunny questionnaire flashing\n
287.479	0.0755	574958	keystroke_t	t	n/a
287.6295	0.0895	575259	keystroke_h	h	n/a
287.734	0.0755	575468	keystroke_e	e	n/a
287.9295	0.105	575859	keystroke_s	s	n/a
288.154	0.0755	576308	keystroke_e	e	n/a
288.2895	0.1345	576579	keystroke_Key.space	Key.space	n/a
288.7855	0.089	577571	keystroke_s	s	n/a
288.8895	0.06	577779	keystroke_u	u	n/a
289.0995	0.06	578199	keystroke_n	n	n/a
289.2195	0.0745	578439	keystroke_n	n	n/a
289.4595	0.09	578919	keystroke_y	y	n/a
289.579	0.105	579158	keystroke_Key.space	Key.space	n/a
289.8045	0.0895	579609	keystroke_q	q	n/a
289.9545	0.06	579909	keystroke_u	u	n/a
290.0295	0.091	580059	keystroke_e	e	n/a
290.179	0.1355	580358	keystroke_s	s	n/a
290.284	0.0905	580568	keystroke_t	t	n/a
290.4205	0.164	580841	keystroke_i	i	n/a
290.5245	0.196	581049	keystroke_o	o	n/a
290.6595	0.09	581319	keystroke_n	n	n/a
290.8395	0.105	581679	keystroke_n	n	n/a
291.0045	0.12	582009	keystroke_a	a	n/a
291.1845	0.1355	582369	keystroke_i	i	n/a
291.379	0.1355	582758	keystroke_r	r	n/a
291.5895	0.0895	583179	keystroke_e	e	n/a
291.7245	0.15	583449	keystroke_Key.space	Key.space	n/a
291.8895	0.12	583779	keystroke_f	f	n/a
292.0245	0.15	584049	keystroke_l	l	n/a
292.1295	0.1345	584259	keystroke_a	a	n/a
292.3695	0.075	584739	keystroke_s	s	n/a
292.564	0.1355	585128	keystroke_h	h	n/a
292.7895	0.15	585579	keystroke_i	i	n/a
292.879	0.1355	585758	keystroke_n	n	n/a
293.0595	0.09	586119	keystroke_g	g	n/a
293.2995	0.09	586599	keystroke_Key.enter	Key.enter	n/a
293.3935	6.4175	586787	prompt	n/a	redeem tier consecutive left\n
294.1095	0.075	588219	keystroke_r	r	n/a
294.259	0.0905	588518	keystroke_e	e	n/a
294.4695	0.09	588939	keystroke_d	d	n/a
294.664	0.0755	589328	keystroke_e	e	n/a
294.8295	0.09	589659	keystroke_e	e	n/a
294.9495	0.15	589899	keystroke_m	m	n/a
295.1145	0.1495	590229	keystroke_Key.space	Key.space	n/a
295.3695	0.075	590739	keystroke_t	t	n/a
295.4905	0.119	590981	keystroke_i	i	n/a
295.6395	0.105	591279	keystroke_e	e	n/a
295.9095	0.075	591819	keystroke_r	r	n/a
296.0295	0.1345	592059	keystroke_Key.space	Key.space	n/a
296.4495	0.105	592899	keystroke_c	c	n/a
296.5395	0.105	593079	keystroke_o	o	n/a
296.6595	0.1045	593319	keystroke_n	n	n/a
296.7345	0.09	593469	keystroke_s	s	n/a
296.9295	0.09	593859	keystroke_e	e	n/a
297.1395	0.105	594279	keystroke_c	c	n/a
297.2595	0.09	594519	keystroke_u	u	n/a
297.379	0.0905	594758	keystroke_t	t	n/a
297.5445	0.1195	595089	keystroke_i	i	n/a
297.8295	0.105	595659	keystroke_v	v	n/a
298.0395	0.09	596079	keystroke_e	e	n/a
298.624	0.1205	597248	keystroke_Key.space	Key.space	n/a
298.9395	0.105	597879	keystroke_l	l	n/a
299.0595	0.075	598119	keystroke_e	e	n/a
299.254	0.0905	598508	keystroke_f	f	n/a
299.479	0.1055	598958	keystroke_t	t	n/a
299.7045	0.1055	599409	keystroke_Key.enter	Key.enter	n/a
299.8145	6.417	599629	prompt	n/a	concepts cents sacred minimize\n
300.664	0.1055	601328	keystroke_c	c	n/a
300.7845	0.105	601569	keystroke_o	o	n/a
300.9195	0.12	601839	keystroke_n	n	n/a
301.0095	0.18	602019	keystroke_c	c	n/a
301.174	0.105	602348	keystroke_e	e	n/a
301.2945	0.105	602589	keystroke_p	p	n/a
301.3995	0.075	602799	keystroke_t	t	n/a
301.5795	0.075	603159	keystroke_s	s	n/a
301.6695	0.1345	603339	keystroke_Key.space	Key.space	n/a
301.864	0.1355	603728	keystroke_c	c	n/a
302.045	0.105	604090	keystroke_e	e	n/a
302.135	0.1195	604270	keystroke_n	n	n/a
302.2695	0.09	604539	keystroke_t	t	n/a
302.4795	0.09	604959	keystroke_s	s	n/a
302.5845	0.15	605169	keystroke_Key.space	Key.space	n/a
302.8545	0.1055	605709	keystroke_s	s	n/a
303.05	0.105	606100	keystroke_a	a	n/a
303.2895	0.09	606579	keystroke_c	c	n/a
303.485	0.1345	606970	keystroke_r	r	n/a
303.575	0.105	607150	keystroke_e	e	n/a
303.8	0.09	607600	keystroke_d	d	n/a
303.905	0.105	607810	keystroke_Key.space	Key.space	n/a
304.085	0.1345	608170	keystroke_m	m	n/a
304.2495	0.1045	608499	keystroke_i	i	n/a
304.3395	0.195	608679	keystroke_n	n	n/a
304.564	0.1205	609128	keystroke_i	i	n/a
304.82	0.0895	609640	keystroke_m	m	n/a
305.1345	0.09	610269	keystroke_i	i	n/a
305.2695	0.165	610539	keystroke_z	z	n/a
305.8395	0.0755	611679	keystroke_e	e	n/a
306.11	0.1195	612220	keystroke_Key.enter	Key.enter	n/a
306.236	10.2705	612472	prompt	n/a	logging governing japanese brought\n
307.1595	0.075	614319	keystroke_l	l	n/a
307.3095	0.106	614619	keystroke_o	o	n/a
307.4	0.0745	614800	keystroke_g	g	n/a
307.55	0.1195	615100	keystroke_g	g	n/a
307.8645	0.105	615729	keystroke_i	i	n/a
308.0895	0.1195	616179	keystroke_n	n	n/a
308.224	0.0905	616448	keystroke_g	g	n/a
308.3295	0.1495	616659	keystroke_Key.space	Key.space	n/a
308.6595	0.075	617319	keystroke_g	g	n/a
308.7645	0.12	617529	keystroke_o	o	n/a
308.9745	0.1045	617949	keystroke_v	v	n/a
309.185	0.1495	618370	keystroke_e	e	n/a
309.3195	0.105	618639	keystroke_r	r	n/a
309.5745	0.09	619149	keystroke_n	n	n/a
309.7695	0.105	619539	keystroke_i	i	n/a
309.9495	0.135	619899	keystroke_n	n	n/a
310.07	0.0895	620140	keystroke_g	g	n/a
310.1745	0.135	620349	keystroke_Key.space	Key.space	n/a
310.385	0.1045	620770	keystroke_j	j	n/a
310.5345	0.09	621069	keystroke_a	a	n/a
310.7445	0.12	621489	keystroke_p	p	n/a
310.9095	0.09	621819	keystroke_a	a	n/a
311.2545	0.0905	622509	keystroke_n	n	n/a
311.3895	0.0895	622779	keystroke_e	e	n/a
311.7195	0.12	623439	keystroke_s	s	n/a
312.02	0.074	624040	keystroke_e	e	n/a
312.305	0.1345	624610	keystroke_Key.space	Key.space	n/a
312.62	0.1045	625240	keystroke_g	g	n/a
313.0245	0.075	626049	keystroke_r	r	n/a
313.1445	0.18	626289	keystroke_o	o	n/a
313.2345	0.105	626469	keystroke_u	u	n/a
313.7895	0.06	627579	keystroke_Key.backspace	Key.backspace	n/a
313.9245	0.06	627849	keystroke_Key.backspace	Key.backspace	n/a
314.0895	0.045	628179	keystroke_Key.backspace	Key.backspace	n/a
314.2095	0.105	628419	keystroke_Key.backspace	Key.backspace	n/a
314.39	0.104	628780	keystroke_b	b	n/a
314.809	0.0905	629618	keystroke_r	r	n/a
315.125	0.1805	630250	keystroke_o	o	n/a
315.215	0.0905	630430	keystroke_u	u	n/a
315.6645	0.06	631329	keystroke_g	g	n/a
315.77	0.1045	631540	keystroke_h	h	n/a
315.8895	0.09	631779	keystroke_t	t	n/a
316.415	0.09	632830	keystroke_Key.enter	Key.enter	n/a
316.51	6.2205	633020	prompt	n/a	fired coleman algeria winston\n
317.24	0.0895	634480	keystroke_f	f	n/a
317.375	0.075	634750	keystroke_i	i	n/a
317.4645	0.1955	634929	keystroke_r	r	n/a
317.615	0.105	635230	keystroke_e	e	n/a
317.842	0.088	635684	keystroke_d	d	n/a
317.975	0.1665	635950	keystroke_Key.space	Key.space	n/a
318.275	0.15	636550	keystroke_c	c	n/a
318.3645	0.075	636729	keystroke_o	o	n/a
318.5595	0.12	637119	keystroke_l	l	n/a
318.6945	0.0755	637389	keystroke_e	e	n/a
318.905	0.12	637810	keystroke_m	m	n/a
319.055	0.09	638110	keystroke_a	a	n/a
319.16	0.1045	638320	keystroke_n	n	n/a
319.2795	0.1055	638559	keystroke_Key.space	Key.space	n/a
319.835	0.09	639670	keystroke_a	a	n/a
320.0755	0.0745	640151	keystroke_l	l	n/a
320.2395	0.09	640479	keystroke_g	g	n/a
320.4345	0.0755	640869	keystroke_e	e	n/a
320.66	0.0895	641320	keystroke_r	r	n/a
320.87	0.1055	641740	keystroke_i	i	n/a
320.9445	0.075	641889	keystroke_a	a	n/a
321.0645	0.165	642129	keystroke_Key.space	Key.space	n/a
321.3945	0.0755	642789	keystroke_w	w	n/a
321.5	0.09	643000	keystroke_i	i	n/a
321.6945	0.1055	643389	keystroke_n	n	n/a
321.77	0.0895	643540	keystroke_s	s	n/a
321.95	0.075	643900	keystroke_t	t	n/a
322.1	0.12	644200	keystroke_o	o	n/a
322.31	0.1045	644620	keystroke_n	n	n/a
322.6245	0.1055	645249	keystroke_Key.enter	Key.enter	n/a
322.734	6.5675	645468	prompt	n/a	surrounding skip cooler catering\n
323.36	0.1045	646720	keystroke_s	s	n/a
323.6605	0.0595	647321	keystroke_u	u	n/a
323.7795	0.0605	647559	keystroke_r	r	n/a
323.93	0.105	647860	keystroke_r	r	n/a
324.11	0.18	648220	keystroke_o	o	n/a
324.1995	0.0905	648399	keystroke_u	u	n/a
324.395	0.12	648790	keystroke_n	n	n/a
324.5	0.12	649000	keystroke_d	d	n/a
324.6795	0.1205	649359	keystroke_i	i	n/a
324.755	0.135	649510	keystroke_n	n	n/a
324.875	0.0595	649750	keystroke_g	g	n/a
324.95	0.165	649900	keystroke_Key.space	Key.space	n/a
325.175	0.1045	650350	keystroke_s	s	n/a
325.34	0.075	650680	keystroke_k	k	n/a
325.5945	0.075	651189	keystroke_i	i	n/a
325.82	0.09	651640	keystroke_p	p	n/a
326.075	0.135	652150	keystroke_Key.space	Key.space	n/a
326.39	0.135	652780	keystroke_c	c	n/a
326.4795	0.0905	652959	keystroke_o	o	n/a
326.675	0.075	653350	keystroke_o	o	n/a
326.885	0.12	653770	keystroke_l	l	n/a
327.08	0.1045	654160	keystroke_e	e	n/a
327.29	0.0745	654580	keystroke_r	r	n/a
327.3795	0.151	654759	keystroke_Key.space	Key.space	n/a
327.575	0.135	655150	keystroke_c	c	n/a
327.755	0.12	655510	keystroke_a	a	n/a
327.92	0.09	655840	keystroke_t	t	n/a
328.115	0.12	656230	keystroke_e	e	n/a
328.205	0.12	656410	keystroke_r	r	n/a
328.445	0.1195	656890	keystroke_i	i	n/a
328.67	0.12	657340	keystroke_n	n	n/a
328.865	0.105	657730	keystroke_g	g	n/a
329.1945	0.1055	658389	keystroke_Key.enter	Key.enter	n/a
329.3055	7.72	658611	prompt	n/a	face snake legislation abroad\n
330.035	0.09	660070	keystroke_f	f	n/a
330.23	0.1205	660460	keystroke_a	a	n/a
330.425	0.21	660850	keystroke_c	c	n/a
330.6195	0.0905	661239	keystroke_e	e	n/a
330.74	0.1345	661480	keystroke_Key.space	Key.space	n/a
331.2645	0.0605	662529	keystroke_s	s	n/a
331.355	0.12	662710	keystroke_n	n	n/a
331.445	0.12	662890	keystroke_a	a	n/a
331.61	0.135	663220	keystroke_k	k	n/a
331.76	0.075	663520	keystroke_e	e	n/a
331.8795	0.1355	663759	keystroke_Key.space	Key.space	n/a
332.36	0.1045	664720	keystroke_l	l	n/a
332.45	0.0895	664900	keystroke_e	e	n/a
332.63	0.075	665260	keystroke_g	g	n/a
332.72	0.105	665440	keystroke_i	i	n/a
332.855	0.12	665710	keystroke_s	s	n/a
333.005	0.144	666010	keystroke_l	l	n/a
333.191	0.114	666382	keystroke_a	a	n/a
333.32	0.105	666640	keystroke_t	t	n/a
333.47	0.15	666940	keystroke_i	i	n/a
333.95	0.165	667900	keystroke_o	o	n/a
334.1	0.1795	668200	keystroke_n	n	n/a
334.2795	0.1205	668559	keystroke_Key.space	Key.space	n/a
335.045	0.1195	670090	keystroke_a	a	n/a
335.255	0.045	670510	keystroke_b	b	n/a
335.405	0.12	670810	keystroke_r	r	n/a
335.75	0.09	671500	keystroke_o	o	n/a
335.87	0.12	671740	keystroke_a	a	n/a
336.0795	0.0905	672159	keystroke_d	d	n/a
336.905	0.1195	673810	keystroke_Key.enter	Key.enter	n/a
337.0285	11.7275	674057	prompt	n/a	celebration existed contacting simultaneously\n
338.405	0.12	676810	keystroke_c	c	n/a
338.585	0.06	677170	keystroke_e	e	n/a
338.675	0.1345	677350	keystroke_l	l	n/a
338.7945	0.0605	677589	keystroke_e	e	n/a
339.02	0.0745	678040	keystroke_b	b	n/a
339.215	0.105	678430	keystroke_r	r	n/a
339.3645	0.1505	678729	keystroke_a	a	n/a
339.47	0.12	678940	keystroke_t	t	n/a
339.6945	0.1355	679389	keystroke_i	i	n/a
339.845	0.1345	679690	keystroke_o	o	n/a
339.935	0.135	679870	keystroke_n	n	n/a
340.055	0.136	680110	keystroke_Key.space	Key.space	n/a
340.34	0.075	680680	keystroke_e	e	n/a
340.5815	0.1335	681163	keystroke_x	x	n/a
340.775	0.1195	681550	keystroke_i	i	n/a
340.9555	0.135	681911	keystroke_s	s	n/a
341.1795	0.1655	682359	keystroke_t	t	n/a
341.33	0.105	682660	keystroke_e	e	n/a
341.5405	0.0895	683081	keystroke_d	d	n/a
341.72	0.105	683440	keystroke_Key.space	Key.space	n/a
342.245	0.195	684490	keystroke_c	c	n/a
342.3945	0.1205	684789	keystroke_o	o	n/a
342.515	0.135	685030	keystroke_n	n	n/a
342.6945	0.0905	685389	keystroke_t	t	n/a
343.01	0.135	686020	keystroke_a	a	n/a
343.19	0.1045	686380	keystroke_c	c	n/a
343.3995	0.0905	686799	keystroke_t	t	n/a
343.5655	0.1345	687131	keystroke_i	i	n/a
343.64	0.165	687280	keystroke_n	n	n/a
343.745	0.09	687490	keystroke_g	g	n/a
344	0.09	688000	keystroke_Key.space	Key.space	n/a
344.4345	0.0755	688869	keystroke_s	s	n/a
344.525	0.09	689050	keystroke_i	i	n/a
345.0645	0.0905	690129	keystroke_m	m	n/a
345.29	0.135	690580	keystroke_u	u	n/a
345.4105	0.0895	690821	keystroke_l	l	n/a
346.385	0.061	692770	keystroke_t	t	n/a
346.505	0.1045	693010	keystroke_a	a	n/a
347.045	0.105	694090	keystroke_n	n	n/a
347.225	0.075	694450	keystroke_e	e	n/a
347.39	0.15	694780	keystroke_o	o	n/a
347.51	0.1055	695020	keystroke_u	u	n/a
347.615	0.09	695230	keystroke_s	s	n/a
347.825	0.18	695650	keystroke_l	l	n/a
347.915	0.075	695830	keystroke_y	y	n/a
348.6795	0.0755	697359	keystroke_Key.enter	Key.enter	n/a
348.759	8.3215	697518	prompt	n/a	requires granny third banned\n
349.4305	0.1345	698861	keystroke_r	r	n/a
349.58	0.1205	699160	keystroke_e	e	n/a
349.6705	0.1345	699341	keystroke_q	q	n/a
349.9105	0.18	699821	keystroke_u	u	n/a
350.0315	0.089	700063	keystroke_i	i	n/a
350.1505	0.12	700301	keystroke_r	r	n/a
350.195	0.1205	700390	keystroke_e	e	n/a
350.466	0.0895	700932	keystroke_s	s	n/a
350.7795	0.1205	701559	keystroke_Key.space	Key.space	n/a
350.945	0.06	701890	keystroke_g	g	n/a
351.0945	0.1055	702189	keystroke_r	r	n/a
351.17	0.075	702340	keystroke_a	a	n/a
351.335	0.0445	702670	keystroke_n	n	n/a
351.5	0.06	703000	keystroke_n	n	n/a
351.7395	0.0905	703479	keystroke_y	y	n/a
352.07	0.06	704140	keystroke_Key.backspace	Key.backspace	n/a
352.205	0.0745	704410	keystroke_Key.backspace	Key.backspace	n/a
352.385	0.06	704770	keystroke_Key.backspace	Key.backspace	n/a
352.7	0.075	705400	keystroke_n	n	n/a
352.94	0.09	705880	keystroke_n	n	n/a
353.1945	0.0455	706389	keystroke_y	y	n/a
353.33	0.12	706660	keystroke_Key.space	Key.space	n/a
353.78	0.075	707560	keystroke_t	t	n/a
353.87	0.075	707740	keystroke_h	h	n/a
354.08	0.075	708160	keystroke_i	i	n/a
354.17	0.1045	708340	keystroke_r	r	n/a
354.41	0.105	708820	keystroke_d	d	n/a
354.8	0.075	709600	keystroke_Key.backspace	Key.backspace	n/a
355.07	0.075	710140	keystroke_d	d	n/a
355.22	0.105	710440	keystroke_Key.space	Key.space	n/a
355.82	0.105	711640	keystroke_b	b	n/a
356	0.105	712000	keystroke_a	a	n/a
356.1645	0.0755	712329	keystroke_n	n	n/a
356.3	0.105	712600	keystroke_n	n	n/a
356.435	0.09	712870	keystroke_e	e	n/a
356.66	0.1045	713320	keystroke_d	d	n/a
356.975	0.1045	713950	keystroke_Key.enter	Key.enter	n/a
357.0835	5.669	714167	prompt	n/a	ward jews peak compete\n
357.74	0.075	715480	keystroke_w	w	n/a
357.92	0.12	715840	keystroke_a	a	n/a
358.01	0.1045	716020	keystroke_r	r	n/a
358.25	0.09	716500	keystroke_d	d	n/a
358.37	0.12	716740	keystroke_Key.space	Key.space	n/a
358.5945	0.0755	717189	keystroke_j	j	n/a
358.67	0.165	717340	keystroke_e	e	n/a
358.805	0.105	717610	keystroke_w	w	n/a
359.09	0.0895	718180	keystroke_s	s	n/a
359.255	0.1495	718510	keystroke_Key.space	Key.space	n/a
359.69	0.1045	719380	keystroke_p	p	n/a
359.885	0.1205	719770	keystroke_e	e	n/a
360.05	0.135	720100	keystroke_a	a	n/a
360.215	0.135	720430	keystroke_k	k	n/a
360.3795	0.1655	720759	keystroke_Key.space	Key.space	n/a
360.6945	0.1355	721389	keystroke_c	c	n/a
360.8	0.09	721600	keystroke_o	o	n/a
361.01	0.135	722020	keystroke_m	m	n/a
361.535	0.1205	723070	keystroke_p	p	n/a
361.745	0.1345	723490	keystroke_e	e	n/a
362.106	0.149	724212	keystroke_t	t	n/a
362.3	0.105	724600	keystroke_e	e	n/a
362.6455	0.1045	725291	keystroke_Key.enter	Key.enter	n/a
362.759	9.3225	725518	prompt	n/a	calculations movers foster greenhouse\n
363.9505	0.1195	727901	keystroke_c	c	n/a
364.085	0.12	728170	keystroke_a	a	n/a
364.235	0.075	728470	keystroke_l	l	n/a
364.79	0.12	729580	keystroke_c	c	n/a
364.8945	0.1355	729789	keystroke_u	u	n/a
365	0.12	730000	keystroke_l	l	n/a
365.105	0.135	730210	keystroke_a	a	n/a
365.255	0.09	730510	keystroke_t	t	n/a
365.4945	0.0455	730989	keystroke_i	i	n/a
365.51	0.1655	731020	keystroke_o	o	n/a
366.065	0.15	732130	keystroke_n	n	n/a
366.4395	0.0755	732879	keystroke_s	s	n/a
366.665	0.135	733330	keystroke_Key.space	Key.space	n/a
367.055	0.18	734110	keystroke_m	m	n/a
367.2645	0.1205	734529	keystroke_o	o	n/a
367.415	0.105	734830	keystroke_v	v	n/a
367.6105	0.1495	735221	keystroke_e	e	n/a
367.7145	0.1355	735429	keystroke_r	r	n/a
367.955	0.106	735910	keystroke_s	s	n/a
368.105	0.15	736210	keystroke_Key.space	Key.space	n/a
368.285	0.135	736570	keystroke_f	f	n/a
368.435	0.09	736870	keystroke_o	o	n/a
368.57	0.105	737140	keystroke_s	s	n/a
368.72	0.12	737440	keystroke_t	t	n/a
368.96	0.1345	737920	keystroke_e	e	n/a
369.08	0.09	738160	keystroke_r	r	n/a
369.23	0.1495	738460	keystroke_Key.space	Key.space	n/a
369.485	0.0605	738970	keystroke_g	g	n/a
369.6955	0.1345	739391	keystroke_r	r	n/a
369.95	0.06	739900	keystroke_e	e	n/a
370.1	0.105	740200	keystroke_e	e	n/a
370.4	0.0745	740800	keystroke_n	n	n/a
370.626	0.074	741252	keystroke_h	h	n/a
370.9245	0.1505	741849	keystroke_o	o	n/a
371.15	0.09	742300	keystroke_u	u	n/a
371.36	0.15	742720	keystroke_s	s	n/a
371.63	0.105	743260	keystroke_e	e	n/a
371.99	0.0905	743980	keystroke_Key.enter	Key.enter	n/a
372.0845	7.5415	744169	prompt	n/a	source subsequent satisfy cindy\n
372.9805	0.0895	745961	keystroke_s	s	n/a
373.145	0.09	746290	keystroke_o	o	n/a
373.22	0.0595	746440	keystroke_u	u	n/a
373.43	0.105	746860	keystroke_r	r	n/a
373.745	0.1345	747490	keystroke_c	c	n/a
373.97	0.105	747940	keystroke_e	e	n/a
374.105	0.135	748210	keystroke_Key.space	Key.space	n/a
374.645	0.106	749290	keystroke_s	s	n/a
374.8095	0.0605	749619	keystroke_u	u	n/a
374.9155	0.0745	749831	keystroke_b	b	n/a
375.14	0.105	750280	keystroke_s	s	n/a
375.3795	0.0905	750759	keystroke_e	e	n/a
375.485	0.135	750970	keystroke_q	q	n/a
375.6645	0.0755	751329	keystroke_u	u	n/a
375.785	0.135	751570	keystroke_e	e	n/a
375.9505	0.1195	751901	keystroke_n	n	n/a
376.22	0.09	752440	keystroke_t	t	n/a
376.625	0.135	753250	keystroke_Key.space	Key.space	n/a
377.045	0.09	754090	keystroke_s	s	n/a
377.255	0.12	754510	keystroke_a	a	n/a
377.51	0.091	755020	keystroke_t	t	n/a
377.7505	0.0745	755501	keystroke_i	i	n/a
377.855	0.09	755710	keystroke_s	s	n/a
378.051	0.104	756102	keystroke_f	f	n/a
378.201	0.089	756402	keystroke_y	y	n/a
378.44	0.1505	756880	keystroke_Key.space	Key.space	n/a
378.71	0.135	757420	keystroke_c	c	n/a
378.8005	0.09	757601	keystroke_i	i	n/a
379.0105	0.0745	758021	keystroke_n	n	n/a
379.1005	0.09	758201	keystroke_d	d	n/a
379.28	0.0755	758560	keystroke_y	y	n/a
379.5505	0.0745	759101	keystroke_Key.enter	Key.enter	n/a
379.629	8.442	759258	prompt	n/a	caroline thehun arrival party\n
380.48	0.0755	760960	keystroke_c	c	n/a
380.5855	0.12	761171	keystroke_a	a	n/a
380.721	0.0895	761442	keystroke_r	r	n/a
380.9305	0.075	761861	keystroke_o	o	n/a
381.3205	0.1495	762641	keystroke_l	l	n/a
381.5605	0.1795	763121	keystroke_i	i	n/a
381.695	0.165	763390	keystroke_n	n	n/a
381.845	0.076	763690	keystroke_e	e	n/a
381.921	0.164	763842	keystroke_Key.space	Key.space	n/a
382.2055	0.105	764411	keystroke_t	t	n/a
382.3105	0.09	764621	keystroke_h	h	n/a
382.4305	0.1045	764861	keystroke_e	e	n/a
382.6405	0.075	765281	keystroke_h	h	n/a
383.18	0.03	766360	keystroke_y	y	n/a
383.645	0.12	767290	keystroke_n	n	n/a
384.065	0.045	768130	keystroke_Key.backspace	Key.backspace	n/a
384.17	0.0905	768340	keystroke_Key.backspace	Key.backspace	n/a
384.395	0.06	768790	keystroke_u	u	n/a
384.68	0.09	769360	keystroke_n	n	n/a
384.905	0.105	769810	keystroke_Key.space	Key.space	n/a
385.355	0.1055	770710	keystroke_a	a	n/a
385.55	0.06	771100	keystroke_r	r	n/a
385.7155	0.0755	771431	keystroke_r	r	n/a
385.895	0.1055	771790	keystroke_i	i	n/a
385.97	0.15	771940	keystroke_v	v	n/a
386.21	0.12	772420	keystroke_a	a	n/a
386.375	0.15	772750	keystroke_l	l	n/a
386.51	0.135	773020	keystroke_Key.space	Key.space	n/a
386.8555	0.105	773711	keystroke_p	p	n/a
386.93	0.1205	773860	keystroke_a	a	n/a
387.0055	0.0895	774011	keystroke_r	r	n/a
387.2005	0.105	774401	keystroke_t	t	n/a
387.335	0.1055	774670	keystroke_y	y	n/a
387.965	0.105	775930	keystroke_Key.enter	Key.enter	n/a
388.074	7.678	776148	prompt	n/a	tube figured reserved searched\n
388.9105	0.0895	777821	keystroke_t	t	n/a
389.076	0.104	778152	keystroke_u	u	n/a
389.165	0.0755	778330	keystroke_b	b	n/a
389.3455	0.105	778691	keystroke_e	e	n/a
389.5105	0.1045	779021	keystroke_Key.space	Key.space	n/a
389.9905	0.1205	779981	keystroke_f	f	n/a
390.125	0.1055	780250	keystroke_i	i	n/a
390.305	0.09	780610	keystroke_g	g	n/a
390.53	0.0755	781060	keystroke_u	u	n/a
390.71	0.105	781420	keystroke_r	r	n/a
390.9055	0.0895	781811	keystroke_e	e	n/a
391.1155	0.075	782231	keystroke_d	d	n/a
391.22	0.15	782440	keystroke_Key.space	Key.space	n/a
391.4305	0.1195	782861	keystroke_r	r	n/a
391.611	0.1195	783222	keystroke_e	e	n/a
391.865	0.1655	783730	keystroke_s	s	n/a
392.045	0.1505	784090	keystroke_e	e	n/a
392.18	0.1205	784360	keystroke_r	r	n/a
392.6305	0.09	785261	keystroke_v	v	n/a
392.8255	0.09	785651	keystroke_e	e	n/a
393.0355	0.105	786071	keystroke_d	d	n/a
393.365	0.1505	786730	keystroke_Key.space	Key.space	n/a
393.546	0.0895	787092	keystroke_s	s	n/a
393.695	0.1655	787390	keystroke_e	e	n/a
393.8905	0.1345	787781	keystroke_a	a	n/a
393.995	0.1205	787990	keystroke_r	r	n/a
394.2505	0.15	788501	keystroke_c	c	n/a
394.475	0.12	788950	keystroke_h	h	n/a
394.6405	0.105	789281	keystroke_e	e	n/a
394.8805	0.135	789761	keystroke_d	d	n/a
395.6305	0.12	791261	keystroke_Key.enter	Key.enter	n/a
395.7565	12.9395	791513	prompt	n/a	pacific predict hardly budapest\n
402.5455	0.075	805091	keystroke_p	p	n/a
402.5755	0.135	805151	keystroke_a	a	n/a
402.7855	0.135	805571	keystroke_c	c	n/a
402.9505	0.09	805901	keystroke_i	i	n/a
403.7905	0.0895	807581	keystroke_f	f	n/a
403.865	0.1055	807730	keystroke_i	i	n/a
404.0005	0.1205	808001	keystroke_c	c	n/a
404.1055	0.1195	808211	keystroke_Key.space	Key.space	n/a
404.465	0.0905	808930	keystroke_p	p	n/a
404.571	0.1345	809142	keystroke_r	r	n/a
404.7205	0.105	809441	keystroke_e	e	n/a
404.9155	0.09	809831	keystroke_d	d	n/a
405.0205	0.12	810041	keystroke_i	i	n/a
405.1255	0.09	810251	keystroke_c	c	n/a
405.2905	0.0895	810581	keystroke_t	t	n/a
405.395	0.1205	810790	keystroke_Key.space	Key.space	n/a
405.9355	0.105	811871	keystroke_h	h	n/a
406.0255	0.1045	812051	keystroke_a	a	n/a
406.1005	0.105	812201	keystroke_r	r	n/a
406.3255	0.075	812651	keystroke_d	d	n/a
406.5355	0.135	813071	keystroke_l	l	n/a
406.775	0.09	813550	keystroke_y	y	n/a
406.9255	0.12	813851	keystroke_Key.space	Key.space	n/a
407.195	0.0755	814390	keystroke_b	b	n/a
407.42	0.0905	814840	keystroke_u	u	n/a
407.5255	0.075	815051	keystroke_d	d	n/a
407.6455	0.09	815291	keystroke_a	a	n/a
407.9905	0.1045	815981	keystroke_p	p	n/a
408.11	0.0905	816220	keystroke_e	e	n/a
408.2755	0.1195	816551	keystroke_s	s	n/a
408.4105	0.09	816821	keystroke_t	t	n/a
408.6055	0.0895	817211	keystroke_Key.enter	Key.enter	n/a
408.699	10.1675	817398	prompt	n/a	management seasons jeep demonstrates\n
409.5505	0.105	819101	keystroke_m	m	n/a
409.641	0.0895	819282	keystroke_a	a	n/a
409.7455	0.1195	819491	keystroke_n	n	n/a
409.8505	0.09	819701	keystroke_a	a	n/a
410.0605	0.09	820121	keystroke_g	g	n/a
410.2855	0.075	820571	keystroke_e	e	n/a
410.6605	0.075	821321	keystroke_m	m	n/a
410.765	0.0905	821530	keystroke_e	e	n/a
410.8705	0.1055	821741	keystroke_n	n	n/a
410.9905	0.06	821981	keystroke_t	t	n/a
411.08	0.1205	822160	keystroke_Key.space	Key.space	n/a
411.245	0.0755	822490	keystroke_s	s	n/a
411.4105	0.105	822821	keystroke_e	e	n/a
411.5755	0.135	823151	keystroke_a	a	n/a
411.7705	0.09	823541	keystroke_s	s	n/a
412.0405	0.015	824081	keystroke_s	s	n/a
412.1005	0.12	824201	keystroke_o	o	n/a
412.295	0.1355	824590	keystroke_n	n	n/a
412.9255	0.06	825851	keystroke_s	s	n/a
413.211	0.0295	826422	keystroke_Key.backspace	Key.backspace	n/a
413.3305	0.045	826661	keystroke_Key.backspace	Key.backspace	n/a
413.48	0.0605	826960	keystroke_Key.backspace	Key.backspace	n/a
413.6455	0.06	827291	keystroke_Key.backspace	Key.backspace	n/a
413.8555	0.06	827711	keystroke_o	o	n/a
414.0505	0.075	828101	keystroke_n	n	n/a
414.2305	0.06	828461	keystroke_s	s	n/a
414.395	0.1055	828790	keystroke_Key.space	Key.space	n/a
415.3105	0.09	830621	keystroke_j	j	n/a
415.4605	0.075	830921	keystroke_e	e	n/a
415.6405	0.0745	831281	keystroke_e	e	n/a
415.7605	0.09	831521	keystroke_p	p	n/a
416.0005	0.105	832001	keystroke_Key.space	Key.space	n/a
416.2705	0.075	832541	keystroke_d	d	n/a
416.4205	0.105	832841	keystroke_e	e	n/a
416.5405	0.09	833081	keystroke_m	m	n/a
416.6605	0.15	833321	keystroke_o	o	n/a
416.765	0.1055	833530	keystroke_n	n	n/a
416.9005	0.09	833801	keystroke_s	s	n/a
417.095	0.0755	834190	keystroke_t	t	n/a
417.2605	0.1045	834521	keystroke_r	r	n/a
417.5305	0.09	835061	keystroke_a	a	n/a
417.995	0.0455	835990	keystroke_t	t	n/a
418.1455	0.075	836291	keystroke_e	e	n/a
418.325	0.0905	836650	keystroke_s	s	n/a
418.7755	0.09	837551	keystroke_Key.enter	Key.enter	n/a
418.8715	6.685	837743	prompt	n/a	glance cups virtue check\n
419.765	0.0905	839530	keystroke_g	g	n/a
419.9305	0.105	839861	keystroke_l	l	n/a
420.0205	0.105	840041	keystroke_a	a	n/a
420.2	0.0905	840400	keystroke_n	n	n/a
420.395	0.1215	840790	keystroke_c	c	n/a
420.4555	0.105	840911	keystroke_e	e	n/a
420.6055	0.135	841211	keystroke_Key.space	Key.space	n/a
420.98	0.1355	841960	keystroke_c	c	n/a
421.1455	0.1345	842291	keystroke_u	u	n/a
421.3555	0.09	842711	keystroke_p	p	n/a
421.4605	0.09	842921	keystroke_s	s	n/a
421.565	0.1205	843130	keystroke_Key.space	Key.space	n/a
422.0605	0.09	844121	keystroke_v	v	n/a
422.2105	0.12	844421	keystroke_i	i	n/a
422.495	0.0155	844990	keystroke_i	i	n/a
423.051	0.0595	846102	keystroke_Key.backspace	Key.backspace	n/a
423.1255	0.0765	846251	keystroke_r	r	n/a
423.695	0.1205	847390	keystroke_t	t	n/a
423.8005	0.06	847601	keystroke_u	u	n/a
423.921	0.1045	847842	keystroke_e	e	n/a
424.055	0.1355	848110	keystroke_Key.space	Key.space	n/a
424.5505	0.075	849101	keystroke_c	c	n/a
424.6105	0.105	849221	keystroke_h	h	n/a
424.8205	0.105	849641	keystroke_e	e	n/a
424.9705	0.135	849941	keystroke_c	c	n/a
425.0755	0.15	850151	keystroke_k	k	n/a
425.4505	0.105	850901	keystroke_Key.enter	Key.enter	n/a
425.559	6.222	851118	prompt	n/a	generating code height pastor\n
426.2155	0.075	852431	keystroke_g	g	n/a
426.395	0.0605	852790	keystroke_e	e	n/a
426.5005	0.1205	853001	keystroke_n	n	n/a
426.68	0.1055	853360	keystroke_e	e	n/a
426.8905	0.0895	853781	keystroke_r	r	n/a
427.0405	0.165	854081	keystroke_a	a	n/a
427.1905	0.1045	854381	keystroke_t	t	n/a
427.3855	0.105	854771	keystroke_i	i	n/a
427.4755	0.046	854951	keystroke_n	n	n/a
427.7005	0.105	855401	keystroke_g	g	n/a
428.0755	0.1045	856151	keystroke_Key.space	Key.space	n/a
428.3155	0.12	856631	keystroke_c	c	n/a
428.406	0.089	856812	keystroke_o	o	n/a
428.5105	0.09	857021	keystroke_d	d	n/a
428.6755	0.075	857351	keystroke_e	e	n/a
428.795	0.1205	857590	keystroke_Key.space	Key.space	n/a
429.065	0.076	858130	keystroke_h	h	n/a
429.2005	0.09	858401	keystroke_e	e	n/a
429.3505	0.15	858701	keystroke_i	i	n/a
429.5455	0.105	859091	keystroke_g	g	n/a
430.1005	0.09	860201	keystroke_h	h	n/a
430.2355	0.075	860471	keystroke_t	t	n/a
430.3705	0.15	860741	keystroke_Key.space	Key.space	n/a
430.6705	0.105	861341	keystroke_p	p	n/a
430.7915	0.1495	861583	keystroke_a	a	n/a
430.9705	0.1205	861941	keystroke_s	s	n/a
431.2255	0.09	862451	keystroke_t	t	n/a
431.3755	0.1355	862751	keystroke_o	o	n/a
431.5255	0.09	863051	keystroke_r	r	n/a
431.6605	0.1195	863321	keystroke_Key.enter	Key.enter	n/a
431.7845	7.047	863569	prompt	n/a	alias claim statewide stockholm\n
432.6205	0.0745	865241	keystroke_a	a	n/a
432.7705	0.12	865541	keystroke_l	l	n/a
433.176	0.104	866352	keystroke_i	i	n/a
433.295	0.1655	866590	keystroke_a	a	n/a
433.4155	0.135	866831	keystroke_s	s	n/a
433.58	0.1355	867160	keystroke_Key.space	Key.space	n/a
433.9855	0.135	867971	keystroke_c	c	n/a
434.0455	0.105	868091	keystroke_l	l	n/a
434.2265	0.104	868453	keystroke_a	a	n/a
434.4055	0.121	868811	keystroke_i	i	n/a
434.6605	0.1345	869321	keystroke_m	m	n/a
434.7505	0.15	869501	keystroke_Key.space	Key.space	n/a
435.2305	0.06	870461	keystroke_s	s	n/a
435.3355	0.1055	870671	keystroke_t	t	n/a
435.5155	0.12	871031	keystroke_a	a	n/a
435.695	0.0905	871390	keystroke_t	t	n/a
435.8615	0.089	871723	keystroke_e	e	n/a
436.0855	0.0755	872171	keystroke_w	w	n/a
436.22	0.1355	872440	keystroke_i	i	n/a
436.295	0.0905	872590	keystroke_d	d	n/a
436.4605	0.09	872921	keystroke_e	e	n/a
436.58	0.1355	873160	keystroke_Key.space	Key.space	n/a
436.971	0.0595	873942	keystroke_s	s	n/a
437.1205	0.105	874241	keystroke_t	t	n/a
437.2405	0.135	874481	keystroke_o	o	n/a
437.3905	0.15	874781	keystroke_c	c	n/a
437.496	0.1195	874992	keystroke_k	k	n/a
437.9005	0.09	875801	keystroke_h	h	n/a
437.9755	0.12	875951	keystroke_o	o	n/a
438.2005	0.15	876401	keystroke_l	l	n/a
438.38	0.136	876760	keystroke_m	m	n/a
438.711	0.1195	877422	keystroke_Key.enter	Key.enter	n/a
438.835	6.883	877670	prompt	n/a	manufacturing chen twice merely\n
439.6405	0.0905	879281	keystroke_m	m	n/a
439.7455	0.105	879491	keystroke_a	a	n/a
439.865	0.0605	879730	keystroke_n	n	n/a
440.045	0.09	880090	keystroke_u	u	n/a
440.2555	0.075	880511	keystroke_f	f	n/a
440.3605	0.15	880721	keystroke_a	a	n/a
440.465	0.0905	880930	keystroke_c	c	n/a
440.631	0.1045	881262	keystroke_t	t	n/a
440.795	0.0905	881590	keystroke_u	u	n/a
440.8855	0.105	881771	keystroke_r	r	n/a
441.2905	0.15	882581	keystroke_i	i	n/a
441.3955	0.135	882791	keystroke_n	n	n/a
441.5305	0.105	883061	keystroke_g	g	n/a
441.695	0.1055	883390	keystroke_Key.space	Key.space	n/a
442.1005	0.1355	884201	keystroke_c	c	n/a
442.1905	0.105	884381	keystroke_h	h	n/a
442.4605	0.075	884921	keystroke_e	e	n/a
442.5805	0.15	885161	keystroke_n	n	n/a
442.716	0.15	885432	keystroke_Key.space	Key.space	n/a
442.9855	0.105	885971	keystroke_t	t	n/a
443.1955	0.06	886391	keystroke_w	w	n/a
443.3005	0.09	886601	keystroke_i	i	n/a
443.5705	0.165	887141	keystroke_c	c	n/a
443.8555	0.105	887711	keystroke_e	e	n/a
444.0205	0.09	888041	keystroke_Key.space	Key.space	n/a
444.216	0.1195	888432	keystroke_m	m	n/a
444.291	0.1345	888582	keystroke_e	e	n/a
444.4405	0.2105	888881	keystroke_r	r	n/a
444.6655	0.1505	889331	keystroke_e	e	n/a
445.0855	0.2095	890171	keystroke_l	l	n/a
445.3105	0.091	890621	keystroke_y	y	n/a
445.6105	0.105	891221	keystroke_Key.enter	Key.enter	n/a
445.722	10.0595	891444	prompt	n/a	turkish recognize thought junior\n
446.5555	0.0755	893111	keystroke_t	t	n/a
446.7805	0.0905	893561	keystroke_u	u	n/a
446.9455	0.12	893891	keystroke_r	r	n/a
447.201	0.09	894402	keystroke_k	k	n/a
447.456	0.075	894912	keystroke_i	i	n/a
447.7555	0.0905	895511	keystroke_s	s	n/a
447.8755	0.135	895751	keystroke_h	h	n/a
448.0405	0.15	896081	keystroke_Key.space	Key.space	n/a
448.5655	0.106	897131	keystroke_r	r	n/a
448.656	0.135	897312	keystroke_e	e	n/a
450.441	0.09	900882	keystroke_c	c	n/a
450.906	0.105	901812	keystroke_o	o	n/a
451.101	0.1055	902202	keystroke_g	g	n/a
451.446	0.1195	902892	keystroke_n	n	n/a
451.551	0.09	903102	keystroke_i	i	n/a
451.791	0.135	903582	keystroke_z	z	n/a
452.2565	0.0895	904513	keystroke_e	e	n/a
452.646	0.1345	905292	keystroke_Key.space	Key.space	n/a
453.021	0.0745	906042	keystroke_t	t	n/a
453.0805	0.0905	906161	keystroke_h	h	n/a
453.2915	0.104	906583	keystroke_o	o	n/a
453.336	0.075	906672	keystroke_u	u	n/a
453.471	0.09	906942	keystroke_g	g	n/a
453.591	0.12	907182	keystroke_h	h	n/a
453.6805	0.0755	907361	keystroke_t	t	n/a
453.876	0.0895	907752	keystroke_Key.space	Key.space	n/a
454.386	0.045	908772	keystroke_j	j	n/a
454.506	0.0895	909012	keystroke_u	u	n/a
454.716	0.135	909432	keystroke_n	n	n/a
454.956	0.15	909912	keystroke_i	i	n/a
455.136	0.12	910272	keystroke_o	o	n/a
455.361	0.09	910722	keystroke_r	r	n/a
455.676	0.1045	911352	keystroke_Key.enter	Key.enter	n/a
455.7855	7.286	911571	prompt	n/a	roland wifi centers destinations\n
456.6655	0.0905	913331	keystroke_r	r	n/a
456.831	0.075	913662	keystroke_o	o	n/a
457.086	0.12	914172	keystroke_l	l	n/a
457.221	0.09	914442	keystroke_a	a	n/a
457.416	0.09	914832	keystroke_n	n	n/a
457.536	0.12	915072	keystroke_d	d	n/a
457.686	0.105	915372	keystroke_Key.space	Key.space	n/a
457.851	0.075	915702	keystroke_w	w	n/a
458.016	0.105	916032	keystroke_i	i	n/a
458.286	0.09	916572	keystroke_f	f	n/a
458.4955	0.12	916991	keystroke_i	i	n/a
459.0955	0.15	918191	keystroke_Key.space	Key.space	n/a
459.276	0.1355	918552	keystroke_c	c	n/a
459.576	0.15	919152	keystroke_e	e	n/a
459.771	0.1045	919542	keystroke_n	n	n/a
459.921	0.105	919842	keystroke_t	t	n/a
460.161	0.18	920322	keystroke_e	e	n/a
460.326	0.09	920652	keystroke_r	r	n/a
460.551	0.135	921102	keystroke_s	s	n/a
460.671	0.15	921342	keystroke_Key.space	Key.space	n/a
460.851	0.06	921702	keystroke_d	d	n/a
461.016	0.075	922032	keystroke_e	e	n/a
461.1955	0.0905	922391	keystroke_s	s	n/a
461.286	0.12	922572	keystroke_t	t	n/a
461.4655	0.0905	922931	keystroke_i	i	n/a
461.661	0.1045	923322	keystroke_n	n	n/a
461.7805	0.1505	923561	keystroke_a	a	n/a
461.916	0.06	923832	keystroke_t	t	n/a
462.186	0.135	924372	keystroke_i	i	n/a
462.336	0.165	924672	keystroke_o	o	n/a
462.501	0.12	925002	keystroke_n	n	n/a
462.636	0.105	925272	keystroke_s	s	n/a
462.981	0.0895	925962	keystroke_Key.enter	Key.enter	n/a
463.0745	6.2525	926149	prompt	n/a	roger north cargo disclose\n
463.746	0.09	927492	keystroke_r	r	n/a
463.851	0.09	927702	keystroke_o	o	n/a
463.986	0.105	927972	keystroke_g	g	n/a
464.3605	0.12	928721	keystroke_e	e	n/a
464.541	0.075	929082	keystroke_r	r	n/a
464.691	0.15	929382	keystroke_Key.space	Key.space	n/a
464.916	0.1045	929832	keystroke_n	n	n/a
465.036	0.09	930072	keystroke_o	o	n/a
465.3955	0.0905	930791	keystroke_r	r	n/a
465.6655	0.0905	931331	keystroke_t	t	n/a
465.8165	0.1045	931633	keystroke_h	h	n/a
465.936	0.135	931872	keystroke_Key.space	Key.space	n/a
466.476	0.0895	932952	keystroke_c	c	n/a
466.611	0.135	933222	keystroke_a	a	n/a
466.7015	0.1045	933403	keystroke_r	r	n/a
467.016	0.09	934032	keystroke_g	g	n/a
467.1655	0.1055	934331	keystroke_o	o	n/a
467.331	0.1345	934662	keystroke_Key.space	Key.space	n/a
467.841	0.09	935682	keystroke_d	d	n/a
467.946	0.09	935892	keystroke_i	i	n/a
468.052	0.104	936104	keystroke_s	s	n/a
468.126	0.12	936252	keystroke_c	c	n/a
468.3515	0.044	936703	keystroke_l	l	n/a
468.486	0.06	936972	keystroke_o	o	n/a
468.756	0.1045	937512	keystroke_s	s	n/a
469.026	0.09	938052	keystroke_e	e	n/a
469.251	0.075	938502	keystroke_Key.enter	Key.enter	n/a
469.33	7.977	938660	prompt	n/a	maybe defining amsterdam susan\n
470.9465	0.0895	941893	keystroke_m	m	n/a
470.991	0.0895	941982	keystroke_a	a	n/a
471.186	0.06	942372	keystroke_y	y	n/a
471.321	0.1045	942642	keystroke_b	b	n/a
471.531	0.0915	943062	keystroke_e	e	n/a
471.6655	0.107	943331	keystroke_Key.space	Key.space	n/a
472.446	0.06	944892	keystroke_d	d	n/a
472.5805	0.091	945161	keystroke_e	e	n/a
472.716	0.1055	945432	keystroke_f	f	n/a
472.971	0.105	945942	keystroke_i	i	n/a
473.3155	0.0755	946631	keystroke_n	n	n/a
473.451	0.12	946902	keystroke_i	i	n/a
473.541	0.1065	947082	keystroke_n	n	n/a
473.676	0.075	947352	keystroke_g	g	n/a
473.736	0.105	947472	keystroke_Key.space	Key.space	n/a
474.561	0.1045	949122	keystroke_a	a	n/a
474.711	0.075	949422	keystroke_m	m	n/a
474.831	0.105	949662	keystroke_s	s	n/a
475.011	0.105	950022	keystroke_t	t	n/a
475.221	0.135	950442	keystroke_e	e	n/a
475.341	0.105	950682	keystroke_r	r	n/a
475.5805	0.1055	951161	keystroke_d	d	n/a
475.746	0.09	951492	keystroke_a	a	n/a
475.8805	0.1355	951761	keystroke_m	m	n/a
476.091	0.15	952182	keystroke_Key.space	Key.space	n/a
476.511	0.075	953022	keystroke_s	s	n/a
476.631	0.09	953262	keystroke_u	u	n/a
476.751	0.12	953502	keystroke_s	s	n/a
476.901	0.135	953802	keystroke_a	a	n/a
476.9915	0.104	953983	keystroke_n	n	n/a
477.201	0.105	954402	keystroke_Key.enter	Key.enter	n/a
477.3095	5.4725	954619	prompt	n/a	private eligible rachel core\n
478.086	0.12	956172	keystroke_p	p	n/a
478.191	0.0745	956382	keystroke_r	r	n/a
478.2955	0.1055	956591	keystroke_i	i	n/a
478.386	0.135	956772	keystroke_v	v	n/a
478.5805	0.1505	957161	keystroke_a	a	n/a
478.716	0.105	957432	keystroke_t	t	n/a
478.911	0.045	957822	keystroke_e	e	n/a
478.971	0.135	957942	keystroke_Key.space	Key.space	n/a
479.256	0.105	958512	keystroke_e	e	n/a
479.391	0.135	958782	keystroke_l	l	n/a
479.541	0.12	959082	keystroke_i	i	n/a
479.811	0.12	959622	keystroke_g	g	n/a
480.0955	0.1055	960191	keystroke_i	i	n/a
480.231	0.105	960462	keystroke_b	b	n/a
480.3955	0.1355	960791	keystroke_l	l	n/a
480.516	0.075	961032	keystroke_e	e	n/a
480.6655	0.1205	961331	keystroke_Key.space	Key.space	n/a
480.8615	0.104	961723	keystroke_r	r	n/a
481.056	0.12	962112	keystroke_a	a	n/a
481.221	0.135	962442	keystroke_c	c	n/a
481.356	0.1055	962712	keystroke_h	h	n/a
481.476	0.0895	962952	keystroke_e	e	n/a
481.5805	0.1355	963161	keystroke_l	l	n/a
481.686	0.15	963372	keystroke_Key.space	Key.space	n/a
481.971	0.12	963942	keystroke_c	c	n/a
482.076	0.0895	964152	keystroke_o	o	n/a
482.211	0.0745	964422	keystroke_r	r	n/a
482.406	0.0895	964812	keystroke_e	e	n/a
482.676	0.1045	965352	keystroke_Key.enter	Key.enter	n/a
482.7855	5.6815	965571	prompt	n/a	lake feeds desktop showers\n
483.5755	0.1355	967151	keystroke_l	l	n/a
483.6955	0.1055	967391	keystroke_a	a	n/a
483.816	0.135	967632	keystroke_k	k	n/a
483.936	0.075	967872	keystroke_e	e	n/a
484.041	0.12	968082	keystroke_Key.space	Key.space	n/a
484.311	0.09	968622	keystroke_f	f	n/a
484.386	0.105	968772	keystroke_e	e	n/a
484.5655	0.1055	969131	keystroke_e	e	n/a
484.776	0.0895	969552	keystroke_d	d	n/a
484.8955	0.1055	969791	keystroke_s	s	n/a
485.121	0.105	970242	keystroke_Key.space	Key.space	n/a
485.436	0.045	970872	keystroke_d	d	n/a
485.571	0.0605	971142	keystroke_e	e	n/a
485.691	0.15	971382	keystroke_s	s	n/a
485.7955	0.1205	971591	keystroke_k	k	n/a
485.991	0.1045	971982	keystroke_t	t	n/a
486.411	0.18	972822	keystroke_o	o	n/a
486.576	0.15	973152	keystroke_p	p	n/a
486.711	0.135	973422	keystroke_Key.space	Key.space	n/a
487.041	0.105	974082	keystroke_s	s	n/a
487.131	0.135	974262	keystroke_h	h	n/a
487.251	0.105	974502	keystroke_o	o	n/a
487.386	0.12	974772	keystroke_w	w	n/a
487.567	0.1495	975134	keystroke_e	e	n/a
487.701	0.12	975402	keystroke_r	r	n/a
487.911	0.1345	975822	keystroke_s	s	n/a
488.376	0.0895	976752	keystroke_Key.enter	Key.enter	n/a
488.47	7.557	976940	prompt	n/a	display copper tribute jersey\n
489.351	0.075	978702	keystroke_d	d	n/a
489.471	0.105	978942	keystroke_i	i	n/a
489.546	0.1345	979092	keystroke_s	s	n/a
489.6955	0.1355	979391	keystroke_p	p	n/a
489.906	0.1195	979812	keystroke_l	l	n/a
490.0105	0.1055	980021	keystroke_a	a	n/a
490.146	0.075	980292	keystroke_y	y	n/a
490.851	0.135	981702	keystroke_Key.space	Key.space	n/a
491.121	0.105	982242	keystroke_c	c	n/a
491.331	0.09	982662	keystroke_o	o	n/a
491.691	0.0745	983382	keystroke_p	p	n/a
491.841	0.135	983682	keystroke_p	p	n/a
491.961	0.1195	983922	keystroke_e	e	n/a
492.051	0.12	984102	keystroke_r	r	n/a
492.1865	0.1195	984373	keystroke_Key.space	Key.space	n/a
492.411	0.09	984822	keystroke_t	t	n/a
492.621	0.0745	985242	keystroke_r	r	n/a
492.9365	0.1345	985873	keystroke_i	i	n/a
493.731	0.0895	987462	keystroke_b	b	n/a
493.8655	0.0905	987731	keystroke_u	u	n/a
494.016	0.09	988032	keystroke_t	t	n/a
494.211	0.105	988422	keystroke_e	e	n/a
494.4955	0.1355	988991	keystroke_Key.space	Key.space	n/a
494.706	0.0895	989412	keystroke_j	j	n/a
494.841	0.135	989682	keystroke_e	e	n/a
494.961	0.09	989922	keystroke_r	r	n/a
495.291	0.1045	990582	keystroke_s	s	n/a
495.471	0.09	990942	keystroke_e	e	n/a
495.6805	0.0905	991361	keystroke_y	y	n/a
495.9065	0.1195	991813	keystroke_Key.enter	Key.enter	n/a
496.0295	14.1725	992059	prompt	n/a	mediterranean associates bowl modelling\n
500.7365	0.104	1001473	keystroke_m	m	n/a
500.8265	0.0595	1001653	keystroke_e	e	n/a
500.977	0.1035	1001954	keystroke_d	d	n/a
501.051	0.075	1002102	keystroke_i	i	n/a
501.246	0.045	1002492	keystroke_t	t	n/a
501.411	0.105	1002822	keystroke_e	e	n/a
501.621	0.0595	1003242	keystroke_r	r	n/a
501.756	0.075	1003512	keystroke_r	r	n/a
501.906	0.0895	1003812	keystroke_a	a	n/a
502.1305	0.1055	1004261	keystroke_n	n	n/a
502.2805	0.0605	1004561	keystroke_e	e	n/a
502.6265	0.0745	1005253	keystroke_a	a	n/a
502.7755	0.09	1005551	keystroke_n	n	n/a
503.526	0.15	1007052	keystroke_Key.space	Key.space	n/a
503.8115	0.1045	1007623	keystroke_a	a	n/a
504.0065	0.074	1008013	keystroke_s	s	n/a
504.156	0.12	1008312	keystroke_s	s	n/a
504.246	0.1195	1008492	keystroke_o	o	n/a
504.456	0.135	1008912	keystroke_c	c	n/a
504.576	0.1045	1009152	keystroke_i	i	n/a
504.636	0.18	1009272	keystroke_a	a	n/a
504.756	0.15	1009512	keystroke_t	t	n/a
504.876	0.1045	1009752	keystroke_e	e	n/a
505.1155	0.0755	1010231	keystroke_s	s	n/a
505.236	0.135	1010472	keystroke_Key.space	Key.space	n/a
505.716	0.075	1011432	keystroke_b	b	n/a
505.9705	0.0905	1011941	keystroke_o	o	n/a
506.121	0.09	1012242	keystroke_w	w	n/a
506.241	0.1345	1012482	keystroke_l	l	n/a
506.3605	0.12	1012721	keystroke_Key.space	Key.space	n/a
506.646	0.119	1013292	keystroke_m	m	n/a
506.706	0.1345	1013412	keystroke_o	o	n/a
506.781	0.075	1013562	keystroke_d	d	n/a
506.961	0.06	1013922	keystroke_e	e	n/a
507.2455	0.0905	1014491	keystroke_l	l	n/a
507.786	0.12	1015572	keystroke_i	i	n/a
508.2355	0.06	1016471	keystroke_Key.backspace	Key.backspace	n/a
508.506	0.0295	1017012	keystroke_l	l	n/a
509.4655	0.1205	1018931	keystroke_i	i	n/a
509.601	0.135	1019202	keystroke_n	n	n/a
509.751	0.09	1019502	keystroke_g	g	n/a
510.1405	0.0605	1020281	keystroke_Key.enter	Key.enter	n/a
510.206	12.926	1020412	prompt	n/a	concord transport thermal tongue\n
512.061	0.09	1024122	keystroke_c	c	n/a
512.136	0.105	1024272	keystroke_o	o	n/a
512.256	0.1195	1024512	keystroke_n	n	n/a
512.331	0.12	1024662	keystroke_c	c	n/a
512.496	0.06	1024992	keystroke_o	o	n/a
512.646	0.06	1025292	keystroke_r	r	n/a
512.841	0.09	1025682	keystroke_d	d	n/a
512.931	0.1495	1025862	keystroke_Key.space	Key.space	n/a
513.741	0.075	1027482	keystroke_t	t	n/a
513.9215	0.074	1027843	keystroke_r	r	n/a
514.011	0.135	1028022	keystroke_a	a	n/a
514.837	0.1035	1029674	keystroke_n	n	n/a
515.031	0.09	1030062	keystroke_s	s	n/a
515.256	0.12	1030512	keystroke_p	p	n/a
515.406	0.135	1030812	keystroke_o	o	n/a
515.5705	0.0755	1031141	keystroke_r	r	n/a
515.706	0.12	1031412	keystroke_t	t	n/a
515.826	0.105	1031652	keystroke_Key.space	Key.space	n/a
519.951	0.0895	1039902	keystroke_t	t	n/a
520.026	0.105	1040052	keystroke_h	h	n/a
520.161	0.09	1040322	keystroke_e	e	n/a
520.671	0.06	1041342	keystroke_r	r	n/a
520.8955	0.1205	1041791	keystroke_m	m	n/a
521.061	0.075	1042122	keystroke_a	a	n/a
521.211	0.1045	1042422	keystroke_l	l	n/a
521.361	0.1195	1042722	keystroke_Key.space	Key.space	n/a
522.216	0.06	1044432	keystroke_t	t	n/a
522.292	0.074	1044584	keystroke_o	o	n/a
522.486	0.09	1044972	keystroke_n	n	n/a
522.592	0.0735	1045184	keystroke_g	g	n/a
522.711	0.06	1045422	keystroke_u	u	n/a
522.801	0.075	1045602	keystroke_e	e	n/a
523.056	0.075	1046112	keystroke_Key.enter	Key.enter	n/a
523.1345	7.2275	1046269	prompt	n/a	reduce collection status keeping\n
524.091	0.105	1048182	keystroke_r	r	n/a
524.181	0.09	1048362	keystroke_e	e	n/a
524.376	0.1045	1048752	keystroke_d	d	n/a
524.4955	0.0755	1048991	keystroke_u	u	n/a
524.601	0.12	1049202	keystroke_c	c	n/a
524.676	0.0895	1049352	keystroke_e	e	n/a
524.7805	0.1505	1049561	keystroke_Key.space	Key.space	n/a
525.021	0.1345	1050042	keystroke_c	c	n/a
525.111	0.0595	1050222	keystroke_o	o	n/a
525.306	0.0445	1050612	keystroke_l	l	n/a
525.426	0.1055	1050852	keystroke_l	l	n/a
525.486	0.105	1050972	keystroke_e	e	n/a
525.621	0.105	1051242	keystroke_c	c	n/a
525.8615	0.0745	1051723	keystroke_t	t	n/a
525.951	0.15	1051902	keystroke_i	i	n/a
526.3565	0.1945	1052713	keystroke_n	n	n/a
526.791	0.045	1053582	keystroke_Key.backspace	Key.backspace	n/a
526.986	0.12	1053972	keystroke_o	o	n/a
527.121	0.15	1054242	keystroke_n	n	n/a
527.316	0.105	1054632	keystroke_Key.space	Key.space	n/a
527.601	0.075	1055202	keystroke_s	s	n/a
527.691	0.105	1055382	keystroke_t	t	n/a
527.811	0.1205	1055622	keystroke_a	a	n/a
527.886	0.105	1055772	keystroke_t	t	n/a
528.097	0.104	1056194	keystroke_u	u	n/a
528.186	0.105	1056372	keystroke_s	s	n/a
528.336	0.15	1056672	keystroke_Key.space	Key.space	n/a
528.7715	0.075	1057543	keystroke_k	k	n/a
528.996	0.0755	1057992	keystroke_e	e	n/a
529.191	0.0745	1058382	keystroke_e	e	n/a
529.476	0.1355	1058952	keystroke_p	p	n/a
529.7615	0.1495	1059523	keystroke_i	i	n/a
529.866	0.135	1059732	keystroke_n	n	n/a
530.106	0.0895	1060212	keystroke_g	g	n/a
530.2715	0.0895	1060543	keystroke_Key.enter	Key.enter	n/a
530.3655	6.2965	1060731	prompt	n/a	windsor investigate indie skating\n
531.3515	0.1045	1062703	keystroke_w	w	n/a
531.4415	0.1345	1062883	keystroke_i	i	n/a
531.5315	0.12	1063063	keystroke_n	n	n/a
531.606	0.12	1063212	keystroke_d	d	n/a
531.966	0.09	1063932	keystroke_s	s	n/a
532.1015	0.104	1064203	keystroke_o	o	n/a
532.2205	0.1055	1064441	keystroke_r	r	n/a
532.341	0.1505	1064682	keystroke_Key.space	Key.space	n/a
532.6565	0.1045	1065313	keystroke_i	i	n/a
532.731	0.135	1065462	keystroke_n	n	n/a
532.851	0.075	1065702	keystroke_v	v	n/a
532.986	0.075	1065972	keystroke_e	e	n/a
533.151	0.075	1066302	keystroke_s	s	n/a
533.256	0.105	1066512	keystroke_t	t	n/a
533.421	0.12	1066842	keystroke_i	i	n/a
533.526	0.12	1067052	keystroke_g	g	n/a
533.721	0.1805	1067442	keystroke_a	a	n/a
533.841	0.12	1067682	keystroke_t	t	n/a
533.9315	0.0895	1067863	keystroke_e	e	n/a
534.066	0.1205	1068132	keystroke_Key.space	Key.space	n/a
534.201	0.135	1068402	keystroke_i	i	n/a
534.2765	0.1345	1068553	keystroke_n	n	n/a
534.3655	0.0755	1068731	keystroke_d	d	n/a
534.5015	0.135	1069003	keystroke_i	i	n/a
534.591	0.105	1069182	keystroke_e	e	n/a
534.8015	0.1195	1069603	keystroke_Key.space	Key.space	n/a
534.936	0.09	1069872	keystroke_s	s	n/a
535.0865	0.1195	1070173	keystroke_k	k	n/a
535.371	0.15	1070742	keystroke_a	a	n/a
535.686	0.105	1071372	keystroke_t	t	n/a
535.9565	0.075	1071913	keystroke_i	i	n/a
536.2415	0.075	1072483	keystroke_n	n	n/a
536.391	0.105	1072782	keystroke_g	g	n/a
536.5715	0.09	1073143	keystroke_Key.enter	Key.enter	n/a
536.6655	4.1965	1073331	prompt	n/a	vids lyric formed ieee\n
537.516	0.06	1075032	keystroke_v	v	n/a
537.561	0.105	1075122	keystroke_i	i	n/a
537.7875	0.0735	1075575	keystroke_d	d	n/a
537.9515	0.0895	1075903	keystroke_s	s	n/a
538.1315	0.0595	1076263	keystroke_Key.space	Key.space	n/a
538.221	0.09	1076442	keystroke_l	l	n/a
538.4615	0.06	1076923	keystroke_y	y	n/a
538.5515	0.12	1077103	keystroke_r	r	n/a
538.686	0.151	1077372	keystroke_i	i	n/a
538.8515	0.12	1077703	keystroke_c	c	n/a
538.9565	0.135	1077913	keystroke_Key.space	Key.space	n/a
539.1365	0.075	1078273	keystroke_f	f	n/a
539.256	0.06	1078512	keystroke_o	o	n/a
539.3315	0.09	1078663	keystroke_r	r	n/a
539.4515	0.135	1078903	keystroke_m	m	n/a
539.5565	0.105	1079113	keystroke_e	e	n/a
539.781	0.091	1079562	keystroke_d	d	n/a
539.9165	0.09	1079833	keystroke_Key.space	Key.space	n/a
540.066	0.0905	1080132	keystroke_i	i	n/a
540.2315	0.105	1080463	keystroke_e	e	n/a
540.411	0.0905	1080822	keystroke_e	e	n/a
540.6065	0.0745	1081213	keystroke_e	e	n/a
540.7565	0.1045	1081513	keystroke_Key.enter	Key.enter	n/a
540.865	6.702	1081730	prompt	n/a	beneath roberts theorem delhi\n
541.6265	0.06	1083253	keystroke_b	b	n/a
541.836	0.0905	1083672	keystroke_e	e	n/a
542.046	0.1055	1084092	keystroke_n	n	n/a
542.181	0.1205	1084362	keystroke_e	e	n/a
542.3915	0.1045	1084783	keystroke_a	a	n/a
542.5415	0.09	1085083	keystroke_t	t	n/a
542.6765	0.135	1085353	keystroke_h	h	n/a
542.796	0.1205	1085592	keystroke_Key.space	Key.space	n/a
543.2315	0.12	1086463	keystroke_r	r	n/a
543.4115	0.135	1086823	keystroke_o	o	n/a
543.5615	0.1045	1087123	keystroke_b	b	n/a
543.7715	0.18	1087543	keystroke_e	e	n/a
543.981	0.0905	1087962	keystroke_r	r	n/a
544.192	0.089	1088384	keystroke_t	t	n/a
544.356	0.1205	1088712	keystroke_s	s	n/a
544.5215	0.12	1089043	keystroke_Key.space	Key.space	n/a
544.7015	0.135	1089403	keystroke_t	t	n/a
544.8215	0.105	1089643	keystroke_h	h	n/a
544.9715	0.075	1089943	keystroke_e	e	n/a
545.3315	0.1345	1090663	keystroke_o	o	n/a
545.5865	0.165	1091173	keystroke_r	r	n/a
545.781	0.1355	1091562	keystroke_e	e	n/a
546.0365	0.15	1092073	keystroke_m	m	n/a
546.2165	0.12	1092433	keystroke_Key.space	Key.space	n/a
546.4565	0.03	1092913	keystroke_d	d	n/a
546.6065	0.0745	1093213	keystroke_e	e	n/a
546.7865	0.105	1093573	keystroke_l	l	n/a
547.0415	0.12	1094083	keystroke_h	h	n/a
547.177	0.119	1094354	keystroke_i	i	n/a
547.4615	0.1045	1094923	keystroke_Key.enter	Key.enter	n/a
547.57	5.427	1095140	prompt	n/a	accessing smooth link thomson\n
548.196	0.0905	1096392	keystroke_a	a	n/a
548.3615	0.09	1096723	keystroke_c	c	n/a
548.5415	0.12	1097083	keystroke_c	c	n/a
548.6015	0.09	1097203	keystroke_e	e	n/a
548.781	0.0905	1097562	keystroke_s	s	n/a
548.962	0.119	1097924	keystroke_s	s	n/a
549.0515	0.12	1098103	keystroke_i	i	n/a
549.1265	0.12	1098253	keystroke_n	n	n/a
549.2165	0.075	1098433	keystroke_g	g	n/a
549.3065	0.135	1098613	keystroke_Key.space	Key.space	n/a
549.501	0.1205	1099002	keystroke_s	s	n/a
549.6515	0.12	1099303	keystroke_m	m	n/a
549.7565	0.075	1099513	keystroke_o	o	n/a
549.9065	0.135	1099813	keystroke_o	o	n/a
550.0865	0.105	1100173	keystroke_t	t	n/a
550.1915	0.135	1100383	keystroke_h	h	n/a
550.3415	0.135	1100683	keystroke_Key.space	Key.space	n/a
550.5365	0.211	1101073	keystroke_l	l	n/a
550.7015	0.1795	1101403	keystroke_i	i	n/a
550.9265	0.165	1101853	keystroke_n	n	n/a
551.0765	0.195	1102153	keystroke_k	k	n/a
551.2265	0.105	1102453	keystroke_Key.space	Key.space	n/a
551.421	0.0905	1102842	keystroke_t	t	n/a
551.481	0.1205	1102962	keystroke_h	h	n/a
551.6915	0.15	1103383	keystroke_o	o	n/a
551.8265	0.15	1103653	keystroke_m	m	n/a
552.1115	0.09	1104223	keystroke_s	s	n/a
552.2765	0.165	1104553	keystroke_o	o	n/a
552.5165	0.1495	1105033	keystroke_n	n	n/a
552.9065	0.0895	1105813	keystroke_Key.enter	Key.enter	n/a
553	6.5375	1106000	prompt	n/a	logos roommate seller delete\n
554.2565	0.045	1108513	keystroke_l	l	n/a
554.4065	0.045	1108813	keystroke_o	o	n/a
554.496	0.105	1108992	keystroke_g	g	n/a
554.616	0.0455	1109232	keystroke_o	o	n/a
554.8115	0.06	1109623	keystroke_s	s	n/a
554.9015	0.12	1109803	keystroke_Key.space	Key.space	n/a
555.3365	0.075	1110673	keystroke_r	r	n/a
555.396	0.0755	1110792	keystroke_o	o	n/a
555.5765	0.15	1111153	keystroke_o	o	n/a
555.696	0.1355	1111392	keystroke_m	m	n/a
555.8315	0.18	1111663	keystroke_a	a	n/a
556.5515	0.06	1113103	keystroke_Key.backspace	Key.backspace	n/a
556.7465	0.105	1113493	keystroke_m	m	n/a
556.866	0.12	1113732	keystroke_a	a	n/a
556.971	0.1655	1113942	keystroke_t	t	n/a
557.1215	0.0895	1114243	keystroke_e	e	n/a
557.2715	0.12	1114543	keystroke_Key.space	Key.space	n/a
557.6315	0.06	1115263	keystroke_s	s	n/a
557.781	0.1055	1115562	keystroke_e	e	n/a
557.9315	0.075	1115863	keystroke_l	l	n/a
558.1115	0.075	1116223	keystroke_l	l	n/a
558.1715	0.12	1116343	keystroke_e	e	n/a
558.2465	0.105	1116493	keystroke_r	r	n/a
558.381	0.12	1116762	keystroke_Key.space	Key.space	n/a
558.6065	0.0745	1117213	keystroke_d	d	n/a
558.802	0.1045	1117604	keystroke_e	e	n/a
558.9515	0.105	1117903	keystroke_l	l	n/a
558.996	0.1205	1117992	keystroke_e	e	n/a
559.1915	0.1045	1118383	keystroke_t	t	n/a
559.2515	0.09	1118503	keystroke_e	e	n/a
559.4465	0.09	1118893	keystroke_Key.enter	Key.enter	n/a
559.5405	4.8565	1119081	prompt	n/a	topic lamp pants consists\n
560.2265	0.09	1120453	keystroke_t	t	n/a
560.4215	0.18	1120843	keystroke_o	o	n/a
560.5875	0.164	1121175	keystroke_p	p	n/a
561.1115	0.09	1122223	keystroke_i	i	n/a
561.2015	0.1355	1122403	keystroke_c	c	n/a
561.3215	0.105	1122643	keystroke_Key.space	Key.space	n/a
561.5015	0.105	1123003	keystroke_l	l	n/a
561.5615	0.0895	1123123	keystroke_a	a	n/a
561.7715	0.165	1123543	keystroke_m	m	n/a
561.996	0.1055	1123992	keystroke_p	p	n/a
562.1465	0.1195	1124293	keystroke_Key.space	Key.space	n/a
562.326	0.1355	1124652	keystroke_p	p	n/a
562.4315	0.0905	1124863	keystroke_a	a	n/a
562.581	0.1355	1125162	keystroke_n	n	n/a
562.672	0.1045	1125344	keystroke_t	t	n/a
562.881	0.1055	1125762	keystroke_s	s	n/a
563.0165	0.1055	1126033	keystroke_Key.space	Key.space	n/a
563.1515	0.121	1126303	keystroke_c	c	n/a
563.2415	0.195	1126483	keystroke_o	o	n/a
563.3465	0.1195	1126693	keystroke_n	n	n/a
563.4515	0.09	1126903	keystroke_s	s	n/a
563.6015	0.121	1127203	keystroke_i	i	n/a
563.6915	0.1045	1127383	keystroke_s	s	n/a
563.9765	0.0895	1127953	keystroke_t	t	n/a
564.1565	0.09	1128313	keystroke_s	s	n/a
564.3215	0.0745	1128643	keystroke_Key.enter	Key.enter	n/a
564.4	6.988	1128800	prompt	n/a	jurisdiction diana marble whose\n
565.312	0.046	1130624	keystroke_j	j	n/a
565.4615	0.06	1130923	keystroke_u	u	n/a
565.747	0.075	1131494	keystroke_r	r	n/a
565.8515	0.105	1131703	keystroke_i	i	n/a
565.9715	0.09	1131943	keystroke_s	s	n/a
566.2415	0.06	1132483	keystroke_d	d	n/a
566.3165	0.09	1132633	keystroke_i	i	n/a
566.4215	0.09	1132843	keystroke_c	c	n/a
566.6165	0.105	1133233	keystroke_t	t	n/a
566.6765	0.1495	1133353	keystroke_i	i	n/a
566.9165	0.24	1133833	keystroke_o	o	n/a
567.1265	0.15	1134253	keystroke_n	n	n/a
567.292	0.15	1134584	keystroke_Key.space	Key.space	n/a
567.4865	0.075	1134973	keystroke_d	d	n/a
567.5765	0.075	1135153	keystroke_i	i	n/a
567.666	0.1355	1135332	keystroke_a	a	n/a
567.9515	0.15	1135903	keystroke_n	n	n/a
568.1315	0.12	1136263	keystroke_a	a	n/a
568.2365	0.135	1136473	keystroke_Key.space	Key.space	n/a
568.9415	0.12	1137883	keystroke_m	m	n/a
569.0465	0.105	1138093	keystroke_a	a	n/a
569.1215	0.0745	1138243	keystroke_r	r	n/a
569.316	0.0905	1138632	keystroke_b	b	n/a
569.5415	0.09	1139083	keystroke_l	l	n/a
569.6615	0.075	1139323	keystroke_e	e	n/a
569.7815	0.135	1139563	keystroke_Key.space	Key.space	n/a
570.1865	0.075	1140373	keystroke_w	w	n/a
570.307	0.0745	1140614	keystroke_h	h	n/a
570.4865	0.09	1140973	keystroke_o	o	n/a
570.7125	0.0895	1141425	keystroke_l	l	n/a
570.877	0.0595	1141754	keystroke_e	e	n/a
571.312	0.075	1142624	keystroke_Key.enter	Key.enter	n/a
571.3915	7.827	1142783	prompt	n/a	if prayers reality ceramic\n
572.287	0.09	1144574	keystroke_i	i	n/a
572.3625	0.089	1144725	keystroke_f	f	n/a
572.4665	0.1055	1144933	keystroke_Key.space	Key.space	n/a
572.6765	0.0755	1145353	keystroke_Key.backspace	Key.backspace	n/a
572.8125	0.059	1145625	keystroke_Key.backspace	Key.backspace	n/a
572.9465	0.0755	1145893	keystroke_Key.backspace	Key.backspace	n/a
573.247	0.105	1146494	keystroke_i	i	n/a
573.3665	0.0755	1146733	keystroke_f	f	n/a
573.457	0.12	1146914	keystroke_Key.space	Key.space	n/a
573.697	0.075	1147394	keystroke_p	p	n/a
573.787	0.09	1147574	keystroke_r	r	n/a
573.952	0.105	1147904	keystroke_a	a	n/a
574.2365	0.0445	1148473	keystroke_y	y	n/a
574.3265	0.15	1148653	keystroke_e	e	n/a
574.432	0.12	1148864	keystroke_r	r	n/a
574.6565	0.105	1149313	keystroke_s	s	n/a
574.8065	0.12	1149613	keystroke_Key.space	Key.space	n/a
574.987	0.135	1149974	keystroke_r	r	n/a
575.107	0.105	1150214	keystroke_e	e	n/a
575.332	0.1045	1150664	keystroke_a	a	n/a
575.591	0.101	1151182	keystroke_l	l	n/a
575.827	0.1065	1151654	keystroke_i	i	n/a
576.052	0.09	1152104	keystroke_t	t	n/a
576.142	0.091	1152284	keystroke_y	y	n/a
576.5765	0.105	1153153	keystroke_Key.space	Key.space	n/a
576.712	0.121	1153424	keystroke_c	c	n/a
576.907	0.1045	1153814	keystroke_e	e	n/a
576.9665	0.1055	1153933	keystroke_r	r	n/a
577.177	0.0895	1154354	keystroke_a	a	n/a
577.327	0.06	1154654	keystroke_m	m	n/a
577.537	0.09	1155074	keystroke_i	i	n/a
577.672	0.105	1155344	keystroke_c	c	n/a
577.837	0.0595	1155674	keystroke_Key.backspace	Key.backspace	n/a
577.987	0.06	1155974	keystroke_Key.backspace	Key.backspace	n/a
578.152	0.0445	1156304	keystroke_Key.backspace	Key.backspace	n/a
578.332	0.1045	1156664	keystroke_m	m	n/a
578.4965	0.1055	1156993	keystroke_i	i	n/a
578.632	0.12	1157264	keystroke_c	c	n/a
579.142	0.0755	1158284	keystroke_Key.enter	Key.enter	n/a
579.2215	13.7515	1158443	prompt	n/a	handbags photographers combine belts\n
585.007	0.0745	1170014	keystroke_h	h	n/a
585.0965	0.0905	1170193	keystroke_a	a	n/a
585.187	0.105	1170374	keystroke_n	n	n/a
585.262	0.1045	1170524	keystroke_d	d	n/a
585.5465	0.0755	1171093	keystroke_b	b	n/a
585.727	0.06	1171454	keystroke_a	a	n/a
585.9665	0.0905	1171933	keystroke_g	g	n/a
586.2665	0.0755	1172533	keystroke_s	s	n/a
586.6115	0.1205	1173223	keystroke_Key.space	Key.space	n/a
586.9865	0.0755	1173973	keystroke_p	p	n/a
587.0465	0.12	1174093	keystroke_h	h	n/a
587.152	0.0895	1174304	keystroke_o	o	n/a
587.302	0.075	1174604	keystroke_t	t	n/a
587.392	0.0745	1174784	keystroke_o	o	n/a
587.662	0.0745	1175324	keystroke_g	g	n/a
587.842	0.0745	1175684	keystroke_r	r	n/a
587.8865	0.09	1175773	keystroke_a	a	n/a
588.1265	0.15	1176253	keystroke_p	p	n/a
588.337	0.1215	1176674	keystroke_h	h	n/a
588.472	0.1355	1176944	keystroke_e	e	n/a
588.5615	0.12	1177123	keystroke_r	r	n/a
588.772	0.1045	1177544	keystroke_s	s	n/a
588.952	0.12	1177904	keystroke_Key.space	Key.space	n/a
589.237	0.12	1178474	keystroke_c	c	n/a
589.462	0.1345	1178924	keystroke_o	o	n/a
589.552	0.135	1179104	keystroke_m	m	n/a
589.702	0.0905	1179404	keystroke_b	b	n/a
589.8815	0.0905	1179763	keystroke_i	i	n/a
590.0315	0.0755	1180063	keystroke_n	n	n/a
590.1965	0.0755	1180393	keystroke_e	e	n/a
590.842	0.1355	1181684	keystroke_Key.space	Key.space	n/a
590.992	0.0895	1181984	keystroke_b	b	n/a
591.157	0.105	1182314	keystroke_e	e	n/a
591.277	0.0895	1182554	keystroke_l	l	n/a
591.3815	0.0755	1182763	keystroke_t	t	n/a
591.577	0.0895	1183154	keystroke_s	s	n/a
591.757	0.06	1183514	keystroke_Key.backspace	Key.backspace	n/a
591.907	0.0595	1183814	keystroke_Key.backspace	Key.backspace	n/a
592.552	0.06	1185104	keystroke_t	t	n/a
592.732	0.075	1185464	keystroke_s	s	n/a
592.8965	0.0755	1185793	keystroke_Key.enter	Key.enter	n/a
592.9765	6.9715	1185953	prompt	n/a	seventh original light occurring\n
593.9015	0.0755	1187803	keystroke_s	s	n/a
594.052	0.06	1188104	keystroke_e	e	n/a
594.217	0.0745	1188434	keystroke_v	v	n/a
594.3665	0.0905	1188733	keystroke_e	e	n/a
594.502	0.075	1189004	keystroke_n	n	n/a
594.622	0.0745	1189244	keystroke_t	t	n/a
594.712	0.06	1189424	keystroke_h	h	n/a
594.832	0.0895	1189664	keystroke_Key.space	Key.space	n/a
595.357	0.06	1190714	keystroke_o	o	n/a
595.477	0.0895	1190954	keystroke_r	r	n/a
595.6265	0.0605	1191253	keystroke_i	i	n/a
596.092	0.0745	1192184	keystroke_g	g	n/a
596.2115	0.1205	1192423	keystroke_i	i	n/a
596.302	0.105	1192604	keystroke_n	n	n/a
596.527	0.12	1193054	keystroke_a	a	n/a
596.662	0.06	1193324	keystroke_l	l	n/a
596.7975	0.1505	1193595	keystroke_Key.space	Key.space	n/a
597.202	0.12	1194404	keystroke_l	l	n/a
597.352	0.06	1194704	keystroke_i	i	n/a
597.847	0.0895	1195694	keystroke_g	g	n/a
597.952	0.075	1195904	keystroke_h	h	n/a
598.057	0.09	1196114	keystroke_t	t	n/a
598.162	0.1045	1196324	keystroke_Key.space	Key.space	n/a
598.4915	0.0905	1196983	keystroke_o	o	n/a
598.612	0.09	1197224	keystroke_c	c	n/a
598.7765	0.09	1197553	keystroke_c	c	n/a
598.8665	0.0605	1197733	keystroke_u	u	n/a
599.002	0.09	1198004	keystroke_r	r	n/a
599.1665	0.0905	1198333	keystroke_r	r	n/a
599.287	0.1345	1198574	keystroke_i	i	n/a
599.377	0.1045	1198754	keystroke_n	n	n/a
599.512	0.075	1199024	keystroke_g	g	n/a
599.8865	0.0605	1199773	keystroke_Key.enter	Key.enter	n/a
599.951	14.2165	1199902	prompt	n/a	criticism vaccine individually minnesota\n
600.862	0.06	1201724	keystroke_c	c	n/a
601.027	0.075	1202054	keystroke_r	r	n/a
601.132	0.06	1202264	keystroke_i	i	n/a
601.222	0.09	1202444	keystroke_t	t	n/a
601.3415	0.0755	1202683	keystroke_i	i	n/a
601.462	0.105	1202924	keystroke_c	c	n/a
601.5965	0.0755	1203193	keystroke_i	i	n/a
601.717	0.105	1203434	keystroke_s	s	n/a
601.942	0.105	1203884	keystroke_m	m	n/a
602.122	0.15	1204244	keystroke_Key.space	Key.space	n/a
602.377	0.075	1204754	keystroke_v	v	n/a
602.872	0.105	1205744	keystroke_a	a	n/a
603.053	0.089	1206106	keystroke_c	c	n/a
603.2465	0.0605	1206493	keystroke_c	c	n/a
603.322	0.0745	1206644	keystroke_i	i	n/a
603.517	0.09	1207034	keystroke_n	n	n/a
603.6525	0.0595	1207305	keystroke_e	e	n/a
603.757	0.105	1207514	keystroke_Key.space	Key.space	n/a
604.087	0.09	1208174	keystroke_i	i	n/a
604.252	0.12	1208504	keystroke_n	n	n/a
604.357	0.075	1208714	keystroke_d	d	n/a
604.477	0.0595	1208954	keystroke_i	i	n/a
604.5665	0.0755	1209133	keystroke_v	v	n/a
604.657	0.09	1209314	keystroke_i	i	n/a
604.9875	0.0745	1209975	keystroke_u	u	n/a
605.0915	0.105	1210183	keystroke_a	a	n/a
605.242	0.03	1210484	keystroke_l	l	n/a
605.377	0.15	1210754	keystroke_l	l	n/a
605.977	0.075	1211954	keystroke_y	y	n/a
606.3965	0.045	1212793	keystroke_Key.backspace	Key.backspace	n/a
606.517	0.075	1213034	keystroke_Key.backspace	Key.backspace	n/a
606.6965	0.0605	1213393	keystroke_Key.backspace	Key.backspace	n/a
606.847	0.06	1213694	keystroke_Key.backspace	Key.backspace	n/a
607.027	0.0595	1214054	keystroke_Key.backspace	Key.backspace	n/a
609.0815	0.0605	1218163	keystroke_d	d	n/a
609.292	0.0895	1218584	keystroke_u	u	n/a
609.3965	0.0905	1218793	keystroke_a	a	n/a
609.502	0.06	1219004	keystroke_l	l	n/a
609.6515	0.0755	1219303	keystroke_l	l	n/a
609.772	0.09	1219544	keystroke_y	y	n/a
610.132	0.06	1220264	keystroke_Key.space	Key.space	n/a
610.6865	0.0755	1221373	keystroke_m	m	n/a
611.332	0.06	1222664	keystroke_i	i	n/a
611.512	0.075	1223024	keystroke_n	n	n/a
611.737	0.075	1223474	keystroke_n	n	n/a
611.872	0.075	1223744	keystroke_e	e	n/a
612.037	0.105	1224074	keystroke_s	s	n/a
612.3815	0.0755	1224763	keystroke_o	o	n/a
612.487	0.1055	1224974	keystroke_t	t	n/a
612.727	0.105	1225454	keystroke_g	g	n/a
613.132	0.09	1226264	keystroke_a	a	n/a
613.372	0.06	1226744	keystroke_Key.backspace	Key.backspace	n/a
613.717	0.076	1227434	keystroke_Key.backspace	Key.backspace	n/a
613.822	0.1055	1227644	keystroke_a	a	n/a
614.107	0.0595	1228214	keystroke_Key.enter	Key.enter	n/a
614.172	7.121	1228344	prompt	n/a	download banana memo brilliant\n
615.172	0.09	1230344	keystroke_d	d	n/a
615.262	0.1045	1230524	keystroke_o	o	n/a
615.3815	0.0905	1230763	keystroke_w	w	n/a
615.472	0.105	1230944	keystroke_n	n	n/a
615.6965	0.0755	1231393	keystroke_l	l	n/a
615.847	0.105	1231694	keystroke_o	o	n/a
615.952	0.12	1231904	keystroke_a	a	n/a
616.117	0.09	1232234	keystroke_d	d	n/a
616.2665	0.1355	1232533	keystroke_Key.space	Key.space	n/a
616.417	0.075	1232834	keystroke_b	b	n/a
616.552	0.105	1233104	keystroke_a	a	n/a
616.672	0.0905	1233344	keystroke_n	n	n/a
616.777	0.0895	1233554	keystroke_a	a	n/a
616.8815	0.0755	1233763	keystroke_n	n	n/a
616.987	0.105	1233974	keystroke_a	a	n/a
617.527	0.105	1235054	keystroke_Key.space	Key.space	n/a
617.917	0.075	1235834	keystroke_m	m	n/a
618.052	0.075	1236104	keystroke_e	e	n/a
618.157	0.09	1236314	keystroke_m	m	n/a
618.472	0.09	1236944	keystroke_o	o	n/a
618.712	0.135	1237424	keystroke_Key.space	Key.space	n/a
619.057	0.075	1238114	keystroke_b	b	n/a
619.507	0.0595	1239014	keystroke_r	r	n/a
619.612	0.105	1239224	keystroke_i	i	n/a
619.852	0.0595	1239704	keystroke_l	l	n/a
620.002	0.12	1240004	keystroke_l	l	n/a
620.092	0.135	1240184	keystroke_i	i	n/a
620.242	0.105	1240484	keystroke_a	a	n/a
620.362	0.1045	1240724	keystroke_n	n	n/a
620.4965	0.0905	1240993	keystroke_t	t	n/a
621.217	0.075	1242434	keystroke_Key.enter	Key.enter	n/a
621.2955	7.002	1242591	prompt	n/a	compound racial further intervals\n
622.177	0.1195	1244354	keystroke_c	c	n/a
622.2665	0.0755	1244533	keystroke_o	o	n/a
622.433	0.119	1244866	keystroke_m	m	n/a
622.5815	0.1655	1245163	keystroke_p	p	n/a
622.777	0.15	1245554	keystroke_o	o	n/a
622.852	0.09	1245704	keystroke_u	u	n/a
623.062	0.1045	1246124	keystroke_n	n	n/a
623.227	0.105	1246454	keystroke_d	d	n/a
623.317	0.1645	1246634	keystroke_Key.space	Key.space	n/a
623.587	0.09	1247174	keystroke_r	r	n/a
623.7815	0.1055	1247563	keystroke_a	a	n/a
624.202	0.12	1248404	keystroke_c	c	n/a
624.307	0.15	1248614	keystroke_i	i	n/a
624.4115	0.106	1248823	keystroke_a	a	n/a
624.547	0.1345	1249094	keystroke_l	l	n/a
624.6665	0.1355	1249333	keystroke_Key.space	Key.space	n/a
624.907	0.0895	1249814	keystroke_f	f	n/a
625.0115	0.0605	1250023	keystroke_u	u	n/a
625.132	0.075	1250264	keystroke_r	r	n/a
625.312	0.105	1250624	keystroke_t	t	n/a
625.522	0.1345	1251044	keystroke_h	h	n/a
625.762	0.195	1251524	keystroke_e	e	n/a
625.972	0.105	1251944	keystroke_r	r	n/a
626.1965	0.1205	1252393	keystroke_Key.space	Key.space	n/a
626.542	0.135	1253084	keystroke_i	i	n/a
626.632	0.1345	1253264	keystroke_n	n	n/a
626.752	0.105	1253504	keystroke_t	t	n/a
626.947	0.1495	1253894	keystroke_e	e	n/a
627.022	0.135	1254044	keystroke_r	r	n/a
627.412	0.09	1254824	keystroke_v	v	n/a
627.5765	0.09	1255153	keystroke_a	a	n/a
627.742	0.0605	1255484	keystroke_l	l	n/a
628.012	0.09	1256024	keystroke_s	s	n/a
628.238	0.0585	1256476	keystroke_Key.enter	Key.enter	n/a
628.3	9.343	1256600	prompt	n/a	trial original childrens wrapped\n
629.212	0.075	1258424	keystroke_t	t	n/a
629.407	0.1045	1258814	keystroke_r	r	n/a
629.5265	0.1055	1259053	keystroke_i	i	n/a
629.662	0.09	1259324	keystroke_a	a	n/a
629.7965	0.1205	1259593	keystroke_l	l	n/a
629.902	0.135	1259804	keystroke_Key.space	Key.space	n/a
630.3965	0.0755	1260793	keystroke_o	o	n/a
630.487	0.09	1260974	keystroke_r	r	n/a
630.624	0.088	1261248	keystroke_i	i	n/a
630.742	0.105	1261484	keystroke_g	g	n/a
630.862	0.15	1261724	keystroke_i	i	n/a
630.9665	0.1355	1261933	keystroke_n	n	n/a
631.102	0.12	1262204	keystroke_a	a	n/a
631.252	0.135	1262504	keystroke_l	l	n/a
631.373	0.104	1262746	keystroke_Key.space	Key.space	n/a
631.5665	0.1355	1263133	keystroke_c	c	n/a
631.642	0.165	1263284	keystroke_h	h	n/a
631.837	0.12	1263674	keystroke_i	i	n/a
631.8815	0.1355	1263763	keystroke_l	l	n/a
632.227	0.045	1264454	keystroke_r	r	n/a
632.617	0.03	1265234	keystroke_=	=	n/a
632.632	0.03	1265264	keystroke_Key.backspace	Key.backspace	n/a
632.6915	0.061	1265383	keystroke_d	d	n/a
633.112	0.06	1266224	keystroke_Key.backspace	Key.backspace	n/a
633.247	0.0455	1266494	keystroke_Key.backspace	Key.backspace	n/a
633.3965	0.0455	1266793	keystroke_Key.backspace	Key.backspace	n/a
633.487	0.075	1266974	keystroke_d	d	n/a
634.027	0.0755	1268054	keystroke_Key.backspace	Key.backspace	n/a
634.2665	0.0755	1268533	keystroke_l	l	n/a
634.4015	0.1055	1268803	keystroke_d	d	n/a
634.6265	0.1205	1269253	keystroke_r	r	n/a
634.717	0.045	1269434	keystroke_e	e	n/a
635.093	0.0885	1270186	keystroke_n	n	n/a
635.2425	0.0745	1270485	keystroke_s	s	n/a
635.737	0.12	1271474	keystroke_Key.space	Key.space	n/a
636.4415	0.09	1272883	keystroke_w	w	n/a
636.637	0.09	1273274	keystroke_r	r	n/a
636.772	0.06	1273544	keystroke_a	a	n/a
636.907	0.0595	1273814	keystroke_p	p	n/a
637.057	0.09	1274114	keystroke_p	p	n/a
637.177	0.075	1274354	keystroke_e	e	n/a
637.372	0.09	1274744	keystroke_d	d	n/a
637.537	0.105	1275074	keystroke_Key.enter	Key.enter	n/a
637.646	7.2115	1275292	prompt	n/a	counsel oregon intellectual douglas\n
638.602	0.135	1277204	keystroke_c	c	n/a
638.6635	0.1635	1277327	keystroke_o	o	n/a
638.7815	0.0605	1277563	keystroke_u	u	n/a
638.947	0.1195	1277894	keystroke_n	n	n/a
639.0815	0.1055	1278163	keystroke_s	s	n/a
639.337	0.09	1278674	keystroke_e	e	n/a
639.487	0.105	1278974	keystroke_l	l	n/a
639.607	0.1195	1279214	keystroke_Key.space	Key.space	n/a
639.863	0.089	1279726	keystroke_o	o	n/a
640.042	0.135	1280084	keystroke_r	r	n/a
640.163	0.1035	1280326	keystroke_e	e	n/a
640.7015	0.1055	1281403	keystroke_g	g	n/a
640.837	0.09	1281674	keystroke_o	o	n/a
640.972	0.135	1281944	keystroke_n	n	n/a
641.092	0.135	1282184	keystroke_Key.space	Key.space	n/a
641.347	0.15	1282694	keystroke_i	i	n/a
641.4815	0.1205	1282963	keystroke_n	n	n/a
641.617	0.09	1283234	keystroke_t	t	n/a
641.7975	0.0745	1283595	keystroke_e	e	n/a
641.947	0.06	1283894	keystroke_l	l	n/a
642.0965	0.1205	1284193	keystroke_l	l	n/a
642.157	0.075	1284314	keystroke_e	e	n/a
642.307	0.105	1284614	keystroke_c	c	n/a
642.502	0.09	1285004	keystroke_t	t	n/a
642.607	0.0895	1285214	keystroke_u	u	n/a
642.787	0.12	1285574	keystroke_a	a	n/a
642.9365	0.1355	1285873	keystroke_l	l	n/a
643.117	0.135	1286234	keystroke_Key.space	Key.space	n/a
643.5965	0.1055	1287193	keystroke_d	d	n/a
643.687	0.165	1287374	keystroke_o	o	n/a
643.807	0.135	1287614	keystroke_u	u	n/a
643.957	0.0755	1287914	keystroke_g	g	n/a
644.122	0.12	1288244	keystroke_l	l	n/a
644.287	0.135	1288574	keystroke_a	a	n/a
644.557	0.105	1289114	keystroke_s	s	n/a
644.797	0.0595	1289594	keystroke_Key.enter	Key.enter	n/a
644.8605	7.213	1289721	prompt	n/a	indicate hitachi noticed representations\n
645.622	0.09	1291244	keystroke_i	i	n/a
645.742	0.135	1291484	keystroke_n	n	n/a
645.862	0.0905	1291724	keystroke_d	d	n/a
645.967	0.09	1291934	keystroke_i	i	n/a
646.102	0.135	1292204	keystroke_c	c	n/a
646.2965	0.181	1292593	keystroke_a	a	n/a
646.462	0.09	1292924	keystroke_t	t	n/a
646.627	0.12	1293254	keystroke_e	e	n/a
646.7615	0.0755	1293523	keystroke_Key.space	Key.space	n/a
646.942	0.12	1293884	keystroke_h	h	n/a
647.032	0.1345	1294064	keystroke_i	i	n/a
647.152	0.09	1294304	keystroke_t	t	n/a
647.347	0.105	1294694	keystroke_a	a	n/a
647.5725	0.1195	1295145	keystroke_c	c	n/a
647.707	0.1055	1295414	keystroke_h	h	n/a
647.857	0.135	1295714	keystroke_i	i	n/a
648.007	0.12	1296014	keystroke_Key.space	Key.space	n/a
648.1715	0.1655	1296343	keystroke_n	n	n/a
648.262	0.135	1296524	keystroke_o	o	n/a
648.382	0.09	1296764	keystroke_t	t	n/a
648.517	0.1215	1297034	keystroke_i	i	n/a
648.667	0.15	1297334	keystroke_c	c	n/a
648.832	0.105	1297664	keystroke_e	e	n/a
649.027	0.105	1298054	keystroke_d	d	n/a
649.162	0.105	1298324	keystroke_Key.space	Key.space	n/a
649.538	0.149	1299076	keystroke_r	r	n/a
649.612	0.12	1299224	keystroke_e	e	n/a
649.7475	0.0895	1299495	keystroke_p	p	n/a
649.852	0.1045	1299704	keystroke_r	r	n/a
649.927	0.075	1299854	keystroke_e	e	n/a
650.107	0.15	1300214	keystroke_s	s	n/a
650.227	0.135	1300454	keystroke_e	e	n/a
650.452	0.1355	1300904	keystroke_n	n	n/a
650.602	0.105	1301204	keystroke_t	t	n/a
650.888	0.15	1301776	keystroke_a	a	n/a
651.0525	0.1355	1302105	keystroke_t	t	n/a
651.322	0.195	1302644	keystroke_i	i	n/a
651.397	0.15	1302794	keystroke_o	o	n/a
651.5025	0.1195	1303005	keystroke_n	n	n/a
651.788	0.074	1303576	keystroke_s	s	n/a
651.9665	0.1055	1303933	keystroke_Key.enter	Key.enter	n/a
652.0765	8.1565	1304153	prompt	n/a	jersey capabilities florence width\n
652.777	0.0895	1305554	keystroke_j	j	n/a
652.9125	0.1345	1305825	keystroke_e	e	n/a
653.0025	0.105	1306005	keystroke_r	r	n/a
653.2875	0.15	1306575	keystroke_s	s	n/a
653.4525	0.15	1306905	keystroke_e	e	n/a
653.6325	0.091	1307265	keystroke_y	y	n/a
653.7375	0.12	1307475	keystroke_Key.space	Key.space	n/a
653.9175	0.1495	1307835	keystroke_c	c	n/a
654.0235	0.134	1308047	keystroke_a	a	n/a
654.1425	0.135	1308285	keystroke_p	p	n/a
654.2325	0.195	1308465	keystroke_a	a	n/a
654.5025	0.105	1309005	keystroke_b	b	n/a
654.7125	0.12	1309425	keystroke_i	i	n/a
654.9525	0.165	1309905	keystroke_l	l	n/a
655.0725	0.105	1310145	keystroke_i	i	n/a
655.2375	0.105	1310475	keystroke_t	t	n/a
655.4025	0.1055	1310805	keystroke_i	i	n/a
655.5225	0.1045	1311045	keystroke_e	e	n/a
655.717	0.12	1311434	keystroke_s	s	n/a
656.467	0.1355	1312934	keystroke_Key.space	Key.space	n/a
656.617	0.09	1313234	keystroke_f	f	n/a
656.9325	0.0895	1313865	keystroke_l	l	n/a
657.067	0.105	1314134	keystroke_o	o	n/a
657.127	0.12	1314254	keystroke_r	r	n/a
657.352	0.1205	1314704	keystroke_e	e	n/a
657.517	0.105	1315034	keystroke_n	n	n/a
657.607	0.1355	1315214	keystroke_c	c	n/a
657.6815	0.091	1315363	keystroke_e	e	n/a
657.7575	0.1345	1315515	keystroke_Key.space	Key.space	n/a
657.907	0.0745	1315814	keystroke_w	w	n/a
657.9965	0.121	1315993	keystroke_i	i	n/a
658.102	0.0915	1316204	keystroke_d	d	n/a
658.343	0.119	1316686	keystroke_t	t	n/a
658.4925	0.1195	1316985	keystroke_h	h	n/a
658.957	0.06	1317914	keystroke_Key.backspace	Key.backspace	n/a
659.0925	0.0745	1318185	keystroke_Key.backspace	Key.backspace	n/a
659.2725	0.045	1318545	keystroke_Key.backspace	Key.backspace	n/a
659.6175	0.09	1319235	keystroke_d	d	n/a
659.872	0.12	1319744	keystroke_t	t	n/a
659.9775	0.06	1319955	keystroke_h	h	n/a
660.1425	0.0895	1320285	keystroke_Key.enter	Key.enter	n/a
660.236	9.2525	1320472	prompt	n/a	counters dimensional spiritual motors\n
661.2375	0.21	1322475	keystroke_c	c	n/a
661.3275	0.135	1322655	keystroke_o	o	n/a
661.3875	0.075	1322775	keystroke_u	u	n/a
661.582	0.0905	1323164	keystroke_n	n	n/a
661.6725	0.09	1323345	keystroke_t	t	n/a
661.867	0.1955	1323734	keystroke_e	e	n/a
662.0325	0.1045	1324065	keystroke_r	r	n/a
662.2425	0.135	1324485	keystroke_s	s	n/a
662.4225	0.12	1324845	keystroke_Key.space	Key.space	n/a
662.6025	0.12	1325205	keystroke_d	d	n/a
662.7225	0.135	1325445	keystroke_i	i	n/a
662.887	0.1505	1325774	keystroke_m	m	n/a
663.067	0.0905	1326134	keystroke_e	e	n/a
663.1725	0.12	1326345	keystroke_n	n	n/a
663.3975	0.12	1326795	keystroke_s	s	n/a
663.7425	0.12	1327485	keystroke_i	i	n/a
663.8325	0.24	1327665	keystroke_o	o	n/a
663.9975	0.15	1327995	keystroke_n	n	n/a
664.1775	0.1495	1328355	keystroke_a	a	n/a
664.3125	0.1645	1328625	keystroke_l	l	n/a
664.4925	0.135	1328985	keystroke_Key.space	Key.space	n/a
665.1075	0.1045	1330215	keystroke_s	s	n/a
665.197	0.15	1330394	keystroke_p	p	n/a
665.3625	0.1195	1330725	keystroke_r	r	n/a
665.497	0.0755	1330994	keystroke_i	i	n/a
665.6025	0.105	1331205	keystroke_t	t	n/a
665.6925	0.0895	1331385	keystroke_i	i	n/a
666.1725	0.105	1332345	keystroke_u	u	n/a
666.4725	0.045	1332945	keystroke_Key.backspace	Key.backspace	n/a
666.607	0.12	1333214	keystroke_Key.backspace	Key.backspace	n/a
667.267	0.0605	1334534	keystroke_u	u	n/a
667.3725	0.105	1334745	keystroke_a	a	n/a
667.5075	0.135	1335015	keystroke_l	l	n/a
668.167	0.1055	1336334	keystroke_Key.space	Key.space	n/a
668.482	0.1055	1336964	keystroke_m	m	n/a
668.5575	0.12	1337115	keystroke_o	o	n/a
668.7675	0.075	1337535	keystroke_t	t	n/a
668.8575	0.09	1337715	keystroke_o	o	n/a
668.9625	0.09	1337925	keystroke_r	r	n/a
669.1875	0.09	1338375	keystroke_s	s	n/a
669.382	0.1055	1338764	keystroke_Key.enter	Key.enter	n/a
669.492	11.276	1338984	prompt	n/a	valued broadcast functional slideshow\n
670.462	0.105	1340924	keystroke_v	v	n/a
670.597	0.1205	1341194	keystroke_a	a	n/a
670.703	0.194	1341406	keystroke_l	l	n/a
670.7775	0.0895	1341555	keystroke_u	u	n/a
670.9575	0.1045	1341915	keystroke_e	e	n/a
671.182	0.1055	1342364	keystroke_d	d	n/a
671.303	0.1345	1342606	keystroke_Key.space	Key.space	n/a
671.797	0.0455	1343594	keystroke_b	b	n/a
671.9475	0.1195	1343895	keystroke_r	r	n/a
672.1725	0.12	1344345	keystroke_o	o	n/a
672.2625	0.1195	1344525	keystroke_a	a	n/a
672.4725	0.105	1344945	keystroke_d	d	n/a
672.682	0.1205	1345364	keystroke_c	c	n/a
672.8775	0.1345	1345755	keystroke_a	a	n/a
673.027	0.1355	1346054	keystroke_s	s	n/a
673.2075	0.1045	1346415	keystroke_t	t	n/a
673.4025	0.105	1346805	keystroke_Key.space	Key.space	n/a
673.5525	0.0895	1347105	keystroke_f	f	n/a
673.6725	0.06	1347345	keystroke_u	u	n/a
673.8525	0.12	1347705	keystroke_n	n	n/a
673.988	0.0895	1347976	keystroke_c	c	n/a
674.167	0.12	1348334	keystroke_t	t	n/a
674.302	0.18	1348604	keystroke_i	i	n/a
674.588	0.2695	1349176	keystroke_o	o	n/a
