onset	duration	sample	value	key	prompt_text
11.21	18.1455	22420	prompt	n/a	the quick brown fox jumps over a lazy dog\n
12.8705	0.042	25741	keystroke_t	t	n/a
12.8975	0.075	25795	keystroke_h	h	n/a
12.9425	0.105	25885	keystroke_e	e	n/a
13.0625	0.075	26125	keystroke_Key.space	Key.space	n/a
13.798	0.09	27596	keystroke_q	q	n/a
13.978	0.12	27956	keystroke_u	u	n/a
14.053	0.12	28106	keystroke_i	i	n/a
14.203	0.105	28406	keystroke_c	c	n/a
14.383	0.09	28766	keystroke_k	k	n/a
14.563	0.0745	29126	keystroke_Key.space	Key.space	n/a
14.7735	0.09	29547	keystroke_b	b	n/a
14.9235	0.074	29847	keystroke_r	r	n/a
15.0575	0.105	30115	keystroke_o	o	n/a
15.2075	0.0905	30415	keystroke_w	w	n/a
15.508	0.075	31016	keystroke_n	n	n/a
15.718	0.09	31436	keystroke_Key.space	Key.space	n/a
16.9785	0.059	33957	keystroke_f	f	n/a
17.0975	0.09	34195	keystroke_o	o	n/a
17.3525	0.075	34705	keystroke_x	x	n/a
17.4725	0.0895	34945	keystroke_Key.space	Key.space	n/a
17.923	0.06	35846	keystroke_j	j	n/a
18.073	0.045	36146	keystroke_u	u	n/a
18.253	0.075	36506	keystroke_m	m	n/a
18.388	0.105	36776	keystroke_p	p	n/a
18.523	0.0895	37046	keystroke_s	s	n/a
18.6575	0.09	37315	keystroke_Key.space	Key.space	n/a
18.8075	0.106	37615	keystroke_o	o	n/a
18.9725	0.12	37945	keystroke_v	v	n/a
19.1675	0.151	38335	keystroke_e	e	n/a
19.2725	0.105	38545	keystroke_r	r	n/a
19.3925	0.09	38785	keystroke_Key.space	Key.space	n/a
19.4985	0.089	38997	keystroke_a	a	n/a
19.6175	0.06	39235	keystroke_Key.space	Key.space	n/a
19.738	0.105	39476	keystroke_l	l	n/a
19.858	0.225	39716	keystroke_a	a	n/a
20.188	0.09	40376	keystroke_z	z	n/a
20.323	0.075	40646	keystroke_t	t	n/a
20.6225	0.1055	41245	keystroke_Key.space	Key.space	n/a
21.3725	0.06	42745	keystroke_Key.backspace	Key.backspace	n/a
21.5375	0.06	43075	keystroke_Key.backspace	Key.backspace	n/a
27.0005	0	54001	keystroke_y	y	n/a
27.2085	0.0595	54417	keystroke_Key.space	Key.space	n/a
27.913	0.075	55826	keystroke_d	d	n/a
28.078	0.075	56156	keystroke_o	o	n/a
28.3785	0.075	56757	keystroke_g	g	n/a
29.2635	0.09	58527	keystroke_Key.enter	Key.enter	n/a
29.3595	7.9905	58719	prompt	n/a	ships notebooks assets already\n
30.3885	0.09	60777	keystroke_s	s	n/a
30.5085	0.15	61017	keystroke_h	h	n/a
31.6035	0.09	63207	keystroke_i	i	n/a
31.798	0.1055	63596	keystroke_p	p	n/a
32.1885	0.12	64377	keystroke_s	s	n/a
32.4435	0.09	64887	keystroke_Key.space	Key.space	n/a
32.6685	0.1795	65337	keystroke_n	n	n/a
32.818	0.06	65636	keystroke_o	o	n/a
32.893	0.12	65786	keystroke_t	t	n/a
32.983	0.105	65966	keystroke_e	e	n/a
33.418	0.0755	66836	keystroke_b	b	n/a
33.598	0.075	67196	keystroke_o	o	n/a
33.764	0.075	67528	keystroke_o	o	n/a
33.779	0.119	67558	keystroke_k	k	n/a
33.928	0.091	67856	keystroke_s	s	n/a
34.438	0.1055	68876	keystroke_Key.space	Key.space	n/a
34.6485	0.15	69297	keystroke_a	a	n/a
34.7685	0.075	69537	keystroke_s	s	n/a
34.9185	0.09	69837	keystroke_s	s	n/a
35.1285	0.09	70257	keystroke_e	e	n/a
35.3685	0.104	70737	keystroke_t	t	n/a
35.6535	0.09	71307	keystroke_s	s	n/a
35.8485	0.104	71697	keystroke_Key.space	Key.space	n/a
36.0885	0.24	72177	keystroke_a	a	n/a
36.1785	0.135	72357	keystroke_l	l	n/a
36.3735	0.165	72747	keystroke_r	r	n/a
36.5085	0.195	73017	keystroke_e	e	n/a
36.6135	0.15	73227	keystroke_a	a	n/a
36.7035	0.105	73407	keystroke_d	d	n/a
36.8225	0.091	73645	keystroke_y	y	n/a
37.2435	0.105	74487	keystroke_Key.enter	Key.enter	n/a
37.353	8.727	74706	prompt	n/a	adaptor quest herb activity\n
37.8885	0.18	75777	keystroke_a	a	n/a
38.0535	0.1205	76107	keystroke_d	d	n/a
38.188	0.135	76376	keystroke_a	a	n/a
38.369	0.089	76738	keystroke_p	p	n/a
38.773	0.12	77546	keystroke_t	t	n/a
38.908	0.091	77816	keystroke_o	o	n/a
39.043	0.105	78086	keystroke_r	r	n/a
39.478	0.12	78956	keystroke_Key.space	Key.space	n/a
40.393	0.12	80786	keystroke_q	q	n/a
41.203	0.1055	82406	keystroke_u	u	n/a
41.3235	0.09	82647	keystroke_e	e	n/a
41.578	0.1055	83156	keystroke_s	s	n/a
41.9385	0.135	83877	keystroke_t	t	n/a
42.1335	0.105	84267	keystroke_Key.space	Key.space	n/a
42.3585	0.105	84717	keystroke_h	h	n/a
42.4785	0.15	84957	keystroke_e	e	n/a
42.5685	0.105	85137	keystroke_r	r	n/a
42.8235	0.03	85647	keystroke_b	b	n/a
43.3485	0.105	86697	keystroke_Key.space	Key.space	n/a
43.6485	0.06	87297	keystroke_a	a	n/a
43.7535	0.12	87507	keystroke_c	c	n/a
44.0835	0.075	88167	keystroke_t	t	n/a
44.2035	0.105	88407	keystroke_i	i	n/a
44.3685	0.165	88737	keystroke_v	v	n/a
44.4885	0.075	88977	keystroke_i	i	n/a
44.8185	0.045	89637	keystroke_y	y	n/a
45.223	0.075	90446	keystroke_Key.backspace	Key.backspace	n/a
45.328	0.09	90656	keystroke_t	t	n/a
45.508	0.075	91016	keystroke_y	y	n/a
45.988	0.09	91976	keystroke_Key.enter	Key.enter	n/a
46.0825	15.023	92165	prompt	n/a	acoustic expedia colleagues resulted\n
46.6485	0.1645	93297	keystroke_a	a	n/a
47.083	0.135	94166	keystroke_c	c	n/a
47.233	0.136	94466	keystroke_o	o	n/a
47.308	0.105	94616	keystroke_u	u	n/a
47.578	0.12	95156	keystroke_s	s	n/a
48.358	0.09	96716	keystroke_t	t	n/a
48.523	0.0455	97046	keystroke_i	i	n/a
48.7185	0.12	97437	keystroke_c	c	n/a
48.8235	0.12	97647	keystroke_Key.space	Key.space	n/a
49.1085	0.09	98217	keystroke_e	e	n/a
49.3785	0.09	98757	keystroke_x	x	n/a
49.6035	0.075	99207	keystroke_p	p	n/a
49.7985	0.12	99597	keystroke_e	e	n/a
50.1135	0.105	100227	keystroke_r	r	n/a
50.2785	0.06	100557	keystroke_i	i	n/a
50.578	0.06	101156	keystroke_Key.backspace	Key.backspace	n/a
50.698	0.075	101396	keystroke_Key.backspace	Key.backspace	n/a
50.788	0.105	101576	keystroke_d	d	n/a
51.103	0.075	102206	keystroke_i	i	n/a
51.749	0.0895	103498	keystroke_a	a	n/a
51.9735	0.12	103947	keystroke_Key.space	Key.space	n/a
55.2455	0.088	110491	keystroke_c	c	n/a
55.7085	0.06	111417	keystroke_o	o	n/a
55.9485	0.06	111897	keystroke_l	l	n/a
56.1285	0.075	112257	keystroke_l	l	n/a
57.104	0.105	114208	keystroke_e	e	n/a
57.4185	0.075	114837	keystroke_a	a	n/a
57.8685	0.12	115737	keystroke_g	g	n/a
58.1085	0.09	116217	keystroke_u	u	n/a
58.2285	0.075	116457	keystroke_e	e	n/a
58.4235	0.09	116847	keystroke_s	s	n/a
58.9935	0.105	117987	keystroke_Key.space	Key.space	n/a
59.399	0.15	118798	keystroke_r	r	n/a
59.504	0.105	119008	keystroke_e	e	n/a
59.6985	0.105	119397	keystroke_s	s	n/a
59.7885	0.075	119577	keystroke_u	u	n/a
59.9835	0.105	119967	keystroke_l	l	n/a
60.1185	0.12	120237	keystroke_t	t	n/a
60.2685	0.18	120537	keystroke_e	e	n/a
60.3885	0.105	120777	keystroke_d	d	n/a
61.0035	0.09	122007	keystroke_Key.enter	Key.enter	n/a
61.111	13.642	122222	prompt	n/a	pmid introduction twiki manager\n
61.754	0.105	123508	keystroke_p	p	n/a
62.068	0.105	124136	keystroke_m	m	n/a
62.624	0.135	125248	keystroke_i	i	n/a
62.7285	0.075	125457	keystroke_n	n	n/a
63.089	0.075	126178	keystroke_Key.backspace	Key.backspace	n/a
63.179	0.1195	126358	keystroke_d	d	n/a
63.9435	0.0605	127887	keystroke_Key.space	Key.space	n/a
64.199	0.165	128398	keystroke_i	i	n/a
64.319	0.104	128638	keystroke_n	n	n/a
64.453	0.075	128906	keystroke_t	t	n/a
64.603	0.105	129206	keystroke_r	r	n/a
64.753	0.09	129506	keystroke_o	o	n/a
65.248	0.135	130496	keystroke_f	f	n/a
65.4135	0.0895	130827	keystroke_u	u	n/a
65.788	0.075	131576	keystroke_Key.backspace	Key.backspace	n/a
65.923	0.075	131846	keystroke_Key.backspace	Key.backspace	n/a
66.043	0.105	132086	keystroke_g	g	n/a
66.703	0.091	133406	keystroke_Key.backspace	Key.backspace	n/a
66.8385	0.03	133677	keystroke_d	d	n/a
67.2585	0.0905	134517	keystroke_u	u	n/a
67.364	0.12	134728	keystroke_c	c	n/a
67.664	0.105	135328	keystroke_t	t	n/a
67.754	0.195	135508	keystroke_i	i	n/a
67.874	0.105	135748	keystroke_o	o	n/a
67.934	0.09	135868	keystroke_n	n	n/a
68.9685	0.12	137937	keystroke_Key.space	Key.space	n/a
69.6435	0.135	139287	keystroke_t	t	n/a
70.0785	0.105	140157	keystroke_w	w	n/a
70.6035	0.06	141207	keystroke_i	i	n/a
70.979	0.09	141958	keystroke_k	k	n/a
71.219	0.06	142438	keystroke_i	i	n/a
72.328	0.135	144656	keystroke_Key.space	Key.space	n/a
72.868	0.1055	145736	keystroke_m	m	n/a
72.9885	0.09	145977	keystroke_a	a	n/a
73.0935	0.075	146187	keystroke_n	n	n/a
73.1985	0.09	146397	keystroke_a	a	n/a
73.4985	0.165	146997	keystroke_g	g	n/a
73.6185	0.195	147237	keystroke_e	e	n/a
73.7685	0.105	147537	keystroke_r	r	n/a
74.654	0.09	149308	keystroke_Key.enter	Key.enter	n/a
74.757	9.2365	149514	prompt	n/a	emails escorts episodes independent\n
75.6435	0.09	151287	keystroke_e	e	n/a
76.0185	0.075	152037	keystroke_m	m	n/a
76.1385	0.105	152277	keystroke_a	a	n/a
76.2885	0.0755	152577	keystroke_i	i	n/a
76.454	0.105	152908	keystroke_l	l	n/a
76.574	0.09	153148	keystroke_s	s	n/a
76.949	0.045	153898	keystroke_Key.space	Key.space	n/a
77.114	0.09	154228	keystroke_e	e	n/a
77.309	0.09	154618	keystroke_s	s	n/a
77.534	0.12	155068	keystroke_c	c	n/a
77.669	0.105	155338	keystroke_o	o	n/a
77.879	0.105	155758	keystroke_r	r	n/a
78.134	0.09	156268	keystroke_t	t	n/a
78.418	0.09	156836	keystroke_s	s	n/a
79.033	0.136	158066	keystroke_Key.space	Key.space	n/a
79.439	0.12	158878	keystroke_e	e	n/a
79.603	0.076	159206	keystroke_p	p	n/a
79.843	0.0755	159686	keystroke_i	i	n/a
80.1285	0.09	160257	keystroke_s	s	n/a
80.2785	0.09	160557	keystroke_o	o	n/a
80.429	0.164	160858	keystroke_d	d	n/a
80.519	0.104	161038	keystroke_e	e	n/a
80.773	0.105	161546	keystroke_s	s	n/a
81.2535	0.1055	162507	keystroke_Key.space	Key.space	n/a
81.479	0.1645	162958	keystroke_i	i	n/a
81.569	0.105	163138	keystroke_n	n	n/a
81.8835	0.165	163767	keystroke_d	d	n/a
82.004	0.1645	164008	keystroke_e	e	n/a
82.4385	0.075	164877	keystroke_p	p	n/a
82.5435	0.0905	165087	keystroke_e	e	n/a
82.679	0.089	165358	keystroke_n	n	n/a
83.279	0.165	166558	keystroke_d	d	n/a
83.3835	0.15	166767	keystroke_e	e	n/a
83.5185	0.1045	167037	keystroke_n	n	n/a
83.6385	0.09	167277	keystroke_t	t	n/a
83.9235	0.06	167847	keystroke_Key.enter	Key.enter	n/a
83.998	11.2605	167996	prompt	n/a	introduces analysis antonio supplements\n
84.6135	0.135	169227	keystroke_i	i	n/a
84.7335	0.105	169467	keystroke_n	n	n/a
84.8985	0.105	169797	keystroke_t	t	n/a
85.319	0.12	170638	keystroke_r	r	n/a
85.529	0.075	171058	keystroke_o	o	n/a
85.919	0.09	171838	keystroke_d	d	n/a
86.129	0.09	172258	keystroke_u	u	n/a
86.414	0.12	172828	keystroke_c	c	n/a
86.564	0.09	173128	keystroke_e	e	n/a
86.8185	0.09	173637	keystroke_s	s	n/a
87.0585	0.135	174117	keystroke_Key.space	Key.space	n/a
87.254	0.105	174508	keystroke_a	a	n/a
87.404	0.09	174808	keystroke_n	n	n/a
87.554	0.075	175108	keystroke_a	a	n/a
87.824	0.09	175648	keystroke_l	l	n/a
88.154	0.06	176308	keystroke_y	y	n/a
88.454	0.06	176908	keystroke_s	s	n/a
88.559	0.03	177118	keystroke_i	i	n/a
88.634	0.089	177268	keystroke_s	s	n/a
89.159	0.12	178318	keystroke_Key.space	Key.space	n/a
89.399	0.135	178798	keystroke_a	a	n/a
89.519	0.15	179038	keystroke_n	n	n/a
89.744	0.075	179488	keystroke_t	t	n/a
89.984	0.089	179968	keystroke_o	o	n/a
90.434	0.105	180868	keystroke_n	n	n/a
90.628	0.09	181256	keystroke_i	i	n/a
91.019	0.09	182038	keystroke_o	o	n/a
91.634	0.105	183268	keystroke_Key.space	Key.space	n/a
91.994	0.105	183988	keystroke_s	s	n/a
92.189	0.075	184378	keystroke_u	u	n/a
92.594	0.075	185188	keystroke_p	p	n/a
92.7735	0.06	185547	keystroke_p	p	n/a
93.1935	0.1955	186387	keystroke_l	l	n/a
93.374	0.03	186748	keystroke_i	i	n/a
93.749	0.075	187498	keystroke_Key.backspace	Key.backspace	n/a
93.869	0.075	187738	keystroke_e	e	n/a
94.229	0.105	188458	keystroke_m	m	n/a
94.364	0.104	188728	keystroke_e	e	n/a
94.484	0.105	188968	keystroke_n	n	n/a
94.574	0.09	189148	keystroke_t	t	n/a
94.783	0.105	189566	keystroke_s	s	n/a
95.188	0.06	190376	keystroke_Key.enter	Key.enter	n/a
95.2645	11.933	190529	prompt	n/a	focused scales oriented arbitrary\n
95.9685	0.09	191937	keystroke_g	g	n/a
96.539	0.075	193078	keystroke_Key.backspace	Key.backspace	n/a
96.6585	0.1055	193317	keystroke_f	f	n/a
96.8085	0.09	193617	keystroke_o	o	n/a
97.0185	0.105	194037	keystroke_c	c	n/a
97.1835	0.105	194367	keystroke_u	u	n/a
97.379	0.105	194758	keystroke_s	s	n/a
97.604	0.075	195208	keystroke_e	e	n/a
97.814	0.09	195628	keystroke_d	d	n/a
98.188	0.12	196376	keystroke_Key.space	Key.space	n/a
98.473	0.09	196946	keystroke_s	s	n/a
99.043	0.091	198086	keystroke_v	v	n/a
99.553	0.076	199106	keystroke_Key.backspace	Key.backspace	n/a
99.719	0.06	199438	keystroke_c	c	n/a
100.364	0.105	200728	keystroke_a	a	n/a
100.633	0.091	201266	keystroke_l	l	n/a
100.783	0.045	201566	keystroke_e	e	n/a
100.9935	0.09	201987	keystroke_s	s	n/a
101.1135	0.105	202227	keystroke_Key.space	Key.space	n/a
101.3235	0.105	202647	keystroke_o	o	n/a
101.5185	0.1205	203037	keystroke_r	r	n/a
101.654	0.12	203308	keystroke_i	i	n/a
101.804	0.105	203608	keystroke_e	e	n/a
101.954	0.12	203908	keystroke_n	n	n/a
102.149	0.1345	204298	keystroke_t	t	n/a
102.3585	0.195	204717	keystroke_e	e	n/a
102.5085	0.105	205017	keystroke_d	d	n/a
102.7185	0.1205	205437	keystroke_Key.space	Key.space	n/a
102.899	0.09	205798	keystroke_a	a	n/a
103.2735	0.1055	206547	keystroke_r	r	n/a
103.484	0.12	206968	keystroke_n	n	n/a
103.784	0.075	207568	keystroke_i	i	n/a
104.129	0.06	208258	keystroke_Key.backspace	Key.backspace	n/a
104.294	0.045	208588	keystroke_Key.backspace	Key.backspace	n/a
104.504	0.09	209008	keystroke_b	b	n/a
105.044	0.075	210088	keystroke_i	i	n/a
105.403	0.121	210806	keystroke_t	t	n/a
105.7485	0.135	211497	keystroke_r	r	n/a
105.9885	0.12	211977	keystroke_a	a	n/a
106.0635	0.105	212127	keystroke_r	r	n/a
106.529	0.045	213058	keystroke_y	y	n/a
107.129	0.06	214258	keystroke_Key.enter	Key.enter	n/a
107.202	13.9905	214404	prompt	n/a	concluded concentration may harmony\n
107.8335	0.12	215667	keystroke_c	c	n/a
107.9545	0.134	215909	keystroke_o	o	n/a
108.0435	0.135	216087	keystroke_n	n	n/a
108.3435	0.06	216687	keystroke_c	c	n/a
108.5685	0.075	217137	keystroke_l	l	n/a
109.034	0.09	218068	keystroke_u	u	n/a
109.529	0.09	219058	keystroke_d	d	n/a
109.829	0.075	219658	keystroke_e	e	n/a
110.233	0.091	220466	keystroke_d	d	n/a
111.179	0.104	222358	keystroke_Key.space	Key.space	n/a
111.493	0.135	222986	keystroke_c	c	n/a
111.613	0.121	223226	keystroke_o	o	n/a
111.689	0.15	223378	keystroke_n	n	n/a
111.989	0.1045	223978	keystroke_c	c	n/a
112.169	0.165	224338	keystroke_e	e	n/a
112.3485	0.105	224697	keystroke_n	n	n/a
112.799	0.09	225598	keystroke_t	t	n/a
112.964	0.12	225928	keystroke_r	r	n/a
113.114	0.12	226228	keystroke_a	a	n/a
113.339	0.105	226678	keystroke_t	t	n/a
113.429	0.255	226858	keystroke_i	i	n/a
113.534	0.135	227068	keystroke_o	o	n/a
113.609	0.18	227218	keystroke_n	n	n/a
114.029	0.135	228058	keystroke_Key.space	Key.space	n/a
114.449	0.1345	228898	keystroke_m	m	n/a
114.5985	0.105	229197	keystroke_a	a	n/a
114.8235	0.12	229647	keystroke_y	y	n/a
115.0185	0.075	230037	keystroke_Key.space	Key.space	n/a
115.604	0.135	231208	keystroke_h	h	n/a
115.724	0.179	231448	keystroke_a	a	n/a
115.873	0.12	231746	keystroke_r	r	n/a
116.6835	0.03	233367	keystroke_m	m	n/a
116.8035	0.12	233607	keystroke_o	o	n/a
116.8935	0.105	233787	keystroke_n	n	n/a
117.1335	0.0755	234267	keystroke_y	y	n/a
121.141	0.043	242282	keystroke_Key.enter	Key.enter	n/a
121.197	10.0905	242394	prompt	n/a	executives accidents like amanda\n
122.279	0.06	244558	keystroke_e	e	n/a
122.594	0.0745	245188	keystroke_x	x	n/a
122.9835	0.075	245967	keystroke_e	e	n/a
123.1185	0.135	246237	keystroke_c	c	n/a
123.5835	0.105	247167	keystroke_u	u	n/a
124.1535	0.06	248307	keystroke_t	t	n/a
124.2585	0.09	248517	keystroke_i	i	n/a
124.4235	0.12	248847	keystroke_v	v	n/a
124.5585	0.12	249117	keystroke_e	e	n/a
124.7685	0.105	249537	keystroke_s	s	n/a
124.9785	0.09	249957	keystroke_Key.space	Key.space	n/a
125.1735	0.12	250347	keystroke_a	a	n/a
125.3085	0.105	250617	keystroke_c	c	n/a
125.4735	0.075	250947	keystroke_c	c	n/a
125.5635	0.09	251127	keystroke_i	i	n/a
125.6985	0.12	251397	keystroke_d	d	n/a
125.7735	0.12	251547	keystroke_e	e	n/a
126.1335	0.09	252267	keystroke_n	n	n/a
126.2085	0.09	252417	keystroke_t	t	n/a
126.4485	0.09	252897	keystroke_s	s	n/a
126.6585	0.09	253317	keystroke_Key.space	Key.space	n/a
126.9735	0.15	253947	keystroke_l	l	n/a
127.0785	0.105	254157	keystroke_i	i	n/a
127.2585	0.165	254517	keystroke_k	k	n/a
127.4085	0.03	254817	keystroke_e	e	n/a
127.4535	0.105	254907	keystroke_Key.space	Key.space	n/a
127.5885	0.105	255177	keystroke_a	a	n/a
127.7235	0.105	255447	keystroke_m	m	n/a
127.8435	0.18	255687	keystroke_a	a	n/a
128.2035	0.1055	256407	keystroke_n	n	n/a
128.5335	0.12	257067	keystroke_d	d	n/a
128.6235	0.135	257247	keystroke_a	a	n/a
131.251	0.028	262502	keystroke_Key.enter	Key.enter	n/a
131.2925	12.8055	262585	prompt	n/a	qualifying wesley executive formation\n
132.374	0.0895	264748	keystroke_q	q	n/a
132.5985	0.0905	265197	keystroke_u	u	n/a
132.719	0.09	265438	keystroke_a	a	n/a
132.854	0.15	265708	keystroke_l	l	n/a
132.958	0.1065	265916	keystroke_i	i	n/a
133.6185	0.12	267237	keystroke_f	f	n/a
133.7985	0.09	267597	keystroke_y	y	n/a
134.0535	0.135	268107	keystroke_i	i	n/a
134.1735	0.105	268347	keystroke_n	n	n/a
134.3395	0.134	268679	keystroke_g	g	n/a
134.5935	0.105	269187	keystroke_Key.space	Key.space	n/a
135.119	0.09	270238	keystroke_w	w	n/a
135.359	0.075	270718	keystroke_e	e	n/a
135.794	0.075	271588	keystroke_s	s	n/a
135.9285	0.075	271857	keystroke_l	l	n/a
136.1385	0.09	272277	keystroke_e	e	n/a
136.3785	0.105	272757	keystroke_t	t	n/a
136.9935	0.015	273987	keystroke_Key.backspace	Key.backspace	n/a
137.324	0.015	274648	keystroke_y	y	n/a
137.819	0.09	275638	keystroke_Key.space	Key.space	n/a
138.104	0.075	276208	keystroke_e	e	n/a
138.7635	0.105	277527	keystroke_x	x	n/a
139.4095	0.0895	278819	keystroke_e	e	n/a
139.724	0.105	279448	keystroke_c	c	n/a
139.859	0.105	279718	keystroke_u	u	n/a
140.174	0.09	280348	keystroke_t	t	n/a
140.278	0.091	280556	keystroke_i	i	n/a
140.4885	0.1655	280977	keystroke_v	v	n/a
140.609	0.105	281218	keystroke_e	e	n/a
140.804	0.089	281608	keystroke_Key.space	Key.space	n/a
141.419	0.12	282838	keystroke_f	f	n/a
141.718	0.106	283436	keystroke_o	o	n/a
141.869	0.105	283738	keystroke_r	r	n/a
142.079	0.075	284158	keystroke_m	m	n/a
142.124	0.104	284248	keystroke_a	a	n/a
142.3795	0.075	284759	keystroke_t	t	n/a
142.4095	0.2095	284819	keystroke_i	i	n/a
142.5435	0.1505	285087	keystroke_n	n	n/a
143.0085	0.075	286017	keystroke_Key.backspace	Key.backspace	n/a
143.249	0.0895	286498	keystroke_o	o	n/a
143.2935	0.12	286587	keystroke_n	n	n/a
144.0135	0.075	288027	keystroke_Key.enter	Key.enter	n/a
144.1035	8.86	288207	prompt	n/a	dairy fans publication singing\n
144.749	0.105	289498	keystroke_f	f	n/a
145.334	0.075	290668	keystroke_Key.backspace	Key.backspace	n/a
145.424	0.105	290848	keystroke_d	d	n/a
145.9785	0.09	291957	keystroke_a	a	n/a
146.1145	0.089	292229	keystroke_i	i	n/a
146.4885	0.1205	292977	keystroke_r	r	n/a
146.774	0.105	293548	keystroke_y	y	n/a
147.359	0.12	294718	keystroke_Key.space	Key.space	n/a
147.644	0.12	295288	keystroke_f	f	n/a
147.764	0.135	295528	keystroke_a	a	n/a
148.049	0.075	296098	keystroke_n	n	n/a
148.199	0.0895	296398	keystroke_s	s	n/a
148.664	0.12	297328	keystroke_Key.space	Key.space	n/a
149.084	0.075	298168	keystroke_p	p	n/a
149.3245	0.074	298649	keystroke_u	u	n/a
149.5195	0.074	299039	keystroke_b	b	n/a
149.7145	0.134	299429	keystroke_l	l	n/a
149.8045	0.105	299609	keystroke_i	i	n/a
149.939	0.135	299878	keystroke_c	c	n/a
150.044	0.135	300088	keystroke_a	a	n/a
150.314	0.105	300628	keystroke_t	t	n/a
150.404	0.27	300808	keystroke_i	i	n/a
150.509	0.165	301018	keystroke_o	o	n/a
150.629	0.105	301258	keystroke_n	n	n/a
150.899	0.12	301798	keystroke_Key.space	Key.space	n/a
151.3495	0.105	302699	keystroke_s	s	n/a
151.469	0.105	302938	keystroke_i	i	n/a
151.544	0.105	303088	keystroke_n	n	n/a
151.634	0.09	303268	keystroke_g	g	n/a
151.754	0.1195	303508	keystroke_i	i	n/a
151.829	0.1045	303658	keystroke_n	n	n/a
152.3835	0.105	304767	keystroke_g	g	n/a
152.8645	0.089	305729	keystroke_Key.enter	Key.enter	n/a
152.968	12.011	305936	prompt	n/a	quilt characterized keith tuesday\n
153.944	0.105	307888	keystroke_q	q	n/a
154.139	0.15	308278	keystroke_u	u	n/a
154.229	0.12	308458	keystroke_i	i	n/a
154.529	0.135	309058	keystroke_l	l	n/a
154.934	0.12	309868	keystroke_y	y	n/a
155.519	0.075	311038	keystroke_Key.backspace	Key.backspace	n/a
155.609	0.12	311218	keystroke_t	t	n/a
156.179	0.12	312358	keystroke_Key.space	Key.space	n/a
156.584	0.09	313168	keystroke_c	c	n/a
156.659	0.1055	313318	keystroke_h	h	n/a
156.7795	0.135	313559	keystroke_a	a	n/a
156.9295	0.135	313859	keystroke_r	r	n/a
157.0495	0.18	314099	keystroke_a	a	n/a
157.2295	0.18	314459	keystroke_c	c	n/a
157.5735	0.121	315147	keystroke_t	t	n/a
157.7385	0.135	315477	keystroke_e	e	n/a
157.8285	0.12	315657	keystroke_r	r	n/a
158.0845	0.104	316169	keystroke_i	i	n/a
158.4885	0.045	316977	keystroke_z	z	n/a
158.5485	0.045	317097	keystroke_z	z	n/a
158.6995	0.044	317399	keystroke_x	x	n/a
159.1035	0.045	318207	keystroke_Key.backspace	Key.backspace	n/a
159.2385	0.06	318477	keystroke_Key.backspace	Key.backspace	n/a
159.5085	0.075	319017	keystroke_e	e	n/a
159.6735	0.12	319347	keystroke_d	d	n/a
160.3635	0.105	320727	keystroke_Key.space	Key.space	n/a
160.904	0.09	321808	keystroke_k	k	n/a
161.159	0.09	322318	keystroke_e	e	n/a
161.264	0.09	322528	keystroke_i	i	n/a
161.399	0.105	322798	keystroke_t	t	n/a
161.519	0.12	323038	keystroke_h	h	n/a
162.149	0.105	324298	keystroke_Key.space	Key.space	n/a
162.539	0.06	325078	keystroke_t	t	n/a
162.824	0.105	325648	keystroke_u	u	n/a
162.944	0.075	325888	keystroke_e	e	n/a
163.124	0.09	326248	keystroke_s	s	n/a
163.3335	0.105	326667	keystroke_d	d	n/a
163.4235	0.105	326847	keystroke_a	a	n/a
163.5435	0.1055	327087	keystroke_y	y	n/a
164.8935	0.0755	329787	keystroke_Key.enter	Key.enter	n/a
164.984	11.604	329968	prompt	n/a	laid encouraged detailed lewis\n
165.6745	0.104	331349	keystroke_l	l	n/a
165.7945	0.104	331589	keystroke_a	a	n/a
166.2595	0.089	332519	keystroke_i	i	n/a
166.4235	0.135	332847	keystroke_d	d	n/a
166.8285	0.12	333657	keystroke_Key.space	Key.space	n/a
167.1885	0.09	334377	keystroke_e	e	n/a
167.294	0.09	334588	keystroke_n	n	n/a
167.819	0.06	335638	keystroke_o	o	n/a
168.269	0.075	336538	keystroke_Key.backspace	Key.backspace	n/a
168.3735	0.09	336747	keystroke_c	c	n/a
168.7635	0.136	337527	keystroke_o	o	n/a
169.109	0.12	338218	keystroke_r	r	n/a
169.7545	0.015	339509	keystroke_=	=	n/a
169.9495	0.045	339899	keystroke_u	u	n/a
170.804	0.06	341608	keystroke_Key.backspace	Key.backspace	n/a
171.059	0.075	342118	keystroke_Key.backspace	Key.backspace	n/a
171.3135	0.06	342627	keystroke_Key.backspace	Key.backspace	n/a
171.9435	0.06	343887	keystroke_u	u	n/a
172.1535	0.075	344307	keystroke_r	r	n/a
172.3485	0.075	344697	keystroke_a	a	n/a
172.604	0.105	345208	keystroke_g	g	n/a
172.7695	0.1045	345539	keystroke_e	e	n/a
172.994	0.06	345988	keystroke_d	d	n/a
173.249	0.1045	346498	keystroke_Key.space	Key.space	n/a
173.9535	0.105	347907	keystroke_d	d	n/a
174.0285	0.105	348057	keystroke_e	e	n/a
174.2685	0.075	348537	keystroke_t	t	n/a
174.4335	0.105	348867	keystroke_a	a	n/a
174.5685	0.09	349137	keystroke_i	i	n/a
174.7195	0.134	349439	keystroke_l	l	n/a
174.8845	0.075	349769	keystroke_e	e	n/a
174.8995	0.134	349799	keystroke_d	d	n/a
175.0785	0.105	350157	keystroke_Key.space	Key.space	n/a
175.2285	0.135	350457	keystroke_l	l	n/a
175.3485	0.12	350697	keystroke_e	e	n/a
175.7985	0.09	351597	keystroke_w	w	n/a
175.9935	0.075	351987	keystroke_i	i	n/a
176.1135	0.09	352227	keystroke_s	s	n/a
176.5035	0.075	353007	keystroke_Key.enter	Key.enter	n/a
176.592	9.4015	353184	prompt	n/a	fleet glasses jamaica eagle\n
177.959	0.105	355918	keystroke_f	f	n/a
178.0795	0.0595	356159	keystroke_l	l	n/a
178.154	0.015	356308	keystroke_e	e	n/a
178.844	0.15	357688	keystroke_e	e	n/a
178.995	0.089	357990	keystroke_t	t	n/a
179.204	0.1045	358408	keystroke_Key.space	Key.space	n/a
179.5335	0.135	359067	keystroke_f	f	n/a
180.1035	0.09	360207	keystroke_Key.backspace	Key.backspace	n/a
180.2095	0.104	360419	keystroke_g	g	n/a
180.3885	0.105	360777	keystroke_l	l	n/a
180.5395	0.135	361079	keystroke_a	a	n/a
180.6445	0.089	361289	keystroke_s	s	n/a
180.8235	0.0755	361647	keystroke_s	s	n/a
181.004	0.105	362008	keystroke_e	e	n/a
181.229	0.09	362458	keystroke_s	s	n/a
181.379	0.09	362758	keystroke_Key.space	Key.space	n/a
181.7085	0.165	363417	keystroke_j	j	n/a
181.8585	0.09	363717	keystroke_a	a	n/a
182.324	0.1345	364648	keystroke_m	m	n/a
182.759	0.105	365518	keystroke_a	a	n/a
182.909	0.09	365818	keystroke_i	i	n/a
183.089	0.135	366178	keystroke_c	c	n/a
183.164	0.075	366328	keystroke_e	e	n/a
183.5545	0.075	367109	keystroke_Key.backspace	Key.backspace	n/a
183.6595	0.06	367319	keystroke_a	a	n/a
183.9595	0.12	367919	keystroke_Key.space	Key.space	n/a
184.4695	0.119	368939	keystroke_e	e	n/a
184.6345	0.09	369269	keystroke_a	a	n/a
185.174	0.105	370348	keystroke_g	g	n/a
185.429	0.09	370858	keystroke_l	l	n/a
185.534	0.09	371068	keystroke_e	e	n/a
185.924	0.06	371848	keystroke_Key.enter	Key.enter	n/a
185.9975	11.2465	371995	prompt	n/a	address celtic quantities christopher\n
186.719	0.15	373438	keystroke_a	a	n/a
186.884	0.12	373768	keystroke_d	d	n/a
187.4995	0.06	374999	keystroke_d	d	n/a
187.6795	0.135	375359	keystroke_r	r	n/a
187.7695	0.09	375539	keystroke_e	e	n/a
188.0095	0.075	376019	keystroke_s	s	n/a
188.2045	0.075	376409	keystroke_s	s	n/a
188.4145	0.134	376829	keystroke_Key.space	Key.space	n/a
188.8485	0.091	377697	keystroke_c	c	n/a
189.0145	0.09	378029	keystroke_e	e	n/a
189.1335	0.105	378267	keystroke_l	l	n/a
189.2845	0.074	378569	keystroke_t	t	n/a
189.4645	0.089	378929	keystroke_i	i	n/a
189.6885	0.105	379377	keystroke_c	c	n/a
190.1385	0.0755	380277	keystroke_Key.space	Key.space	n/a
190.724	0.12	381448	keystroke_q	q	n/a
191.5195	0.105	383039	keystroke_u	u	n/a
191.8795	0.12	383759	keystroke_a	a	n/a
192.0595	0.12	384119	keystroke_n	n	n/a
192.359	0.09	384718	keystroke_t	t	n/a
192.479	0.075	384958	keystroke_i	i	n/a
192.674	0.075	385348	keystroke_t	t	n/a
192.794	0.03	385588	keystroke_i	i	n/a
192.884	0.045	385768	keystroke_t	t	n/a
193.5435	0.0905	387087	keystroke_Key.backspace	Key.backspace	n/a
193.799	0.075	387598	keystroke_e	e	n/a
194.099	0.045	388198	keystroke_s	s	n/a
194.204	0.105	388408	keystroke_Key.space	Key.space	n/a
195.089	0.09	390178	keystroke_c	c	n/a
195.194	0.12	390388	keystroke_h	h	n/a
195.374	0.12	390748	keystroke_r	r	n/a
195.509	0.09	391018	keystroke_i	i	n/a
195.614	0.09	391228	keystroke_s	s	n/a
195.824	0.075	391648	keystroke_t	t	n/a
196.004	0.15	392008	keystroke_o	o	n/a
196.139	0.105	392278	keystroke_p	p	n/a
196.4685	0.105	392937	keystroke_h	h	n/a
196.5745	0.134	393149	keystroke_e	e	n/a
196.6485	0.09	393297	keystroke_r	r	n/a
197.1585	0.075	394317	keystroke_Key.enter	Key.enter	n/a
197.249	15.6695	394498	prompt	n/a	witness surrounding numerical theoretical\n
198.0735	0.045	396147	keystroke_w	w	n/a
198.1335	0.075	396267	keystroke_i	i	n/a
198.2835	0.105	396567	keystroke_t	t	n/a
198.524	0.105	397048	keystroke_n	n	n/a
198.659	0.06	397318	keystroke_e	e	n/a
198.854	0.06	397708	keystroke_s	s	n/a
199.019	0.03	398038	keystroke_s	s	n/a
199.349	0.12	398698	keystroke_Key.space	Key.space	n/a
199.679	0.12	399358	keystroke_s	s	n/a
199.829	0.18	399658	keystroke_o	o	n/a
199.934	0.09	399868	keystroke_u	u	n/a
200.144	0.09	400288	keystroke_r	r	n/a
200.6545	0.06	401309	keystroke_Key.backspace	Key.backspace	n/a
200.7895	0.075	401579	keystroke_Key.backspace	Key.backspace	n/a
200.8655	0.089	401731	keystroke_r	r	n/a
201.0445	0.09	402089	keystroke_r	r	n/a
201.2545	0.1495	402509	keystroke_o	o	n/a
202.004	0.045	404008	keystroke_Key.backspace	Key.backspace	n/a
202.064	0.015	404128	keystroke_Key.backspace	Key.backspace	n/a
202.169	0.075	404338	keystroke_Key.backspace	Key.backspace	n/a
202.334	0.045	404668	keystroke_Key.backspace	Key.backspace	n/a
202.694	0.045	405388	keystroke_u	u	n/a
202.8735	0.0905	405747	keystroke_r	r	n/a
203.0985	0.0755	406197	keystroke_r	r	n/a
203.2485	0.1805	406497	keystroke_p	p	n/a
203.4135	0.09	406827	keystroke_i	i	n/a
203.924	0.075	407848	keystroke_Key.backspace	Key.backspace	n/a
204.149	0.03	408298	keystroke_Key.backspace	Key.backspace	n/a
204.8235	0.09	409647	keystroke_o	o	n/a
205.0935	0.03	410187	keystroke_u	u	n/a
205.2595	0.1045	410519	keystroke_n	n	n/a
205.649	0.12	411298	keystroke_d	d	n/a
206.219	0.105	412438	keystroke_i	i	n/a
206.309	0.105	412618	keystroke_n	n	n/a
206.414	0.105	412828	keystroke_g	g	n/a
206.5485	0.09	413097	keystroke_Key.space	Key.space	n/a
206.7735	0.09	413547	keystroke_n	n	n/a
206.9385	0.12	413877	keystroke_u	u	n/a
207.3145	0.105	414629	keystroke_m	m	n/a
207.4345	0.18	414869	keystroke_e	e	n/a
207.5545	0.12	415109	keystroke_r	r	n/a
207.7495	0.105	415499	keystroke_i	i	n/a
208.0345	0.135	416069	keystroke_c	c	n/a
208.1395	0.135	416279	keystroke_a	a	n/a
208.2295	0.165	416459	keystroke_l	l	n/a
208.3495	0.12	416699	keystroke_Key.space	Key.space	n/a
208.589	0.1355	417178	keystroke_t	t	n/a
208.7085	0.09	417417	keystroke_h	h	n/a
208.8135	0.105	417627	keystroke_e	e	n/a
209.0085	0.135	418017	keystroke_r	r	n/a
209.2485	0.076	418497	keystroke_o	o	n/a
209.7745	0.075	419549	keystroke_Key.backspace	Key.backspace	n/a
209.924	0.06	419848	keystroke_Key.backspace	Key.backspace	n/a
210.209	0.09	420418	keystroke_o	o	n/a
210.539	0.135	421078	keystroke_r	r	n/a
210.644	0.075	421288	keystroke_e	e	n/a
211.169	0.075	422338	keystroke_t	t	n/a
211.259	0.0895	422518	keystroke_i	i	n/a
211.4235	0.1505	422847	keystroke_c	c	n/a
211.5435	0.1205	423087	keystroke_a	a	n/a
211.649	0.09	423298	keystroke_l	l	n/a
212.849	0.06	425698	keystroke_Key.enter	Key.enter	n/a
212.9225	7.36	425845	prompt	n/a	debt protection criterion sharing\n
213.689	0.12	427378	keystroke_d	d	n/a
213.734	0.135	427468	keystroke_e	e	n/a
214.064	0.12	428128	keystroke_b	b	n/a
214.319	0.105	428638	keystroke_t	t	n/a
214.604	0.12	429208	keystroke_Key.space	Key.space	n/a
214.829	0.09	429658	keystroke_p	p	n/a
215.069	0.12	430138	keystroke_r	r	n/a
215.219	0.105	430438	keystroke_o	o	n/a
215.474	0.09	430948	keystroke_t	t	n/a
215.639	0.105	431278	keystroke_e	e	n/a
215.834	0.105	431668	keystroke_c	c	n/a
216.104	0.09	432208	keystroke_t	t	n/a
216.179	0.285	432358	keystroke_i	i	n/a
216.284	0.21	432568	keystroke_o	o	n/a
216.374	0.105	432748	keystroke_n	n	n/a
216.449	0.105	432898	keystroke_Key.space	Key.space	n/a
216.764	0.105	433528	keystroke_c	c	n/a
216.989	0.105	433978	keystroke_r	r	n/a
217.109	0.09	434218	keystroke_i	i	n/a
217.274	0.12	434548	keystroke_t	t	n/a
217.469	0.15	434938	keystroke_e	e	n/a
217.664	0.12	435328	keystroke_r	r	n/a
217.784	0.105	435568	keystroke_i	i	n/a
218.054	0.18	436108	keystroke_o	o	n/a
218.219	0.12	436438	keystroke_n	n	n/a
218.534	0.105	437068	keystroke_Key.space	Key.space	n/a
218.849	0.09	437698	keystroke_s	s	n/a
218.984	0.09	437968	keystroke_h	h	n/a
219.104	0.105	438208	keystroke_a	a	n/a
219.269	0.12	438538	keystroke_r	r	n/a
219.419	0.1055	438838	keystroke_i	i	n/a
219.4945	0.12	438989	keystroke_n	n	n/a
219.7045	0.06	439409	keystroke_g	g	n/a
220.1995	0.074	440399	keystroke_Key.enter	Key.enter	n/a
220.288	9.97	440576	prompt	n/a	british we aged prediction\n
221.039	0.12	442078	keystroke_v	v	n/a
221.579	0.0895	443158	keystroke_Key.backspace	Key.backspace	n/a
222.1485	0.031	444297	keystroke_b	b	n/a
222.3295	0.105	444659	keystroke_r	r	n/a
222.4495	0.09	444899	keystroke_i	i	n/a
222.6145	0.105	445229	keystroke_t	t	n/a
222.7345	0.09	445469	keystroke_i	i	n/a
222.8845	0.12	445769	keystroke_s	s	n/a
223.0495	0.09	446099	keystroke_h	h	n/a
223.2595	0.09	446519	keystroke_Key.space	Key.space	n/a
223.5895	0.119	447179	keystroke_w	w	n/a
223.6645	0.12	447329	keystroke_e	e	n/a
223.8435	0.12	447687	keystroke_Key.space	Key.space	n/a
224.5945	0.105	449189	keystroke_a	a	n/a
225.2245	0.1345	450449	keystroke_g	g	n/a
225.659	0.105	451318	keystroke_e	e	n/a
225.749	0.09	451498	keystroke_d	d	n/a
226.019	0.105	452038	keystroke_Key.space	Key.space	n/a
226.319	0.09	452638	keystroke_o	o	n/a
226.439	0.135	452878	keystroke_r	r	n/a
226.769	0.075	453538	keystroke_Key.backspace	Key.backspace	n/a
226.904	0.06	453808	keystroke_Key.backspace	Key.backspace	n/a
227.084	0.105	454168	keystroke_p	p	n/a
227.204	0.105	454408	keystroke_r	r	n/a
227.279	0.105	454558	keystroke_e	e	n/a
227.669	0.09	455338	keystroke_d	d	n/a
227.744	0.075	455488	keystroke_i	i	n/a
227.879	0.12	455758	keystroke_c	c	n/a
228.5835	0.106	457167	keystroke_t	t	n/a
228.7035	0.195	457407	keystroke_i	i	n/a
228.8385	0.12	457677	keystroke_o	o	n/a
228.8995	0.104	457799	keystroke_n	n	n/a
230.189	0.06	460378	keystroke_Key.enter	Key.enter	n/a
230.262	8.546	460524	prompt	n/a	have hdtv costs importantly\n
230.9395	0.15	461879	keystroke_h	h	n/a
231.0745	0.09	462149	keystroke_a	a	n/a
231.1495	0.1645	462299	keystroke_v	v	n/a
231.2695	0.1045	462539	keystroke_e	e	n/a
231.404	0.09	462808	keystroke_Key.space	Key.space	n/a
231.704	0.105	463408	keystroke_d	d	n/a
232.049	0.075	464098	keystroke_f	f	n/a
232.394	0.075	464788	keystroke_Key.backspace	Key.backspace	n/a
232.5445	0.09	465089	keystroke_Key.backspace	Key.backspace	n/a
233.369	0.105	466738	keystroke_h	h	n/a
233.639	0.105	467278	keystroke_d	d	n/a
233.9695	0.074	467939	keystroke_t	t	n/a
234.3595	0.089	468719	keystroke_v	v	n/a
234.8535	0.106	469707	keystroke_Key.space	Key.space	n/a
235.1095	0.135	470219	keystroke_c	c	n/a
235.2145	0.105	470429	keystroke_o	o	n/a
235.3795	0.105	470759	keystroke_s	s	n/a
235.9045	0.105	471809	keystroke_t	t	n/a
236.1295	0.105	472259	keystroke_s	s	n/a
236.3245	0.12	472649	keystroke_Key.space	Key.space	n/a
236.5945	0.15	473189	keystroke_i	i	n/a
236.6995	0.105	473399	keystroke_m	m	n/a
236.8345	0.165	473669	keystroke_p	p	n/a
236.9395	0.12	473879	keystroke_o	o	n/a
237.0445	0.09	474089	keystroke_r	r	n/a
237.239	0.075	474478	keystroke_t	t	n/a
237.419	0.105	474838	keystroke_a	a	n/a
237.539	0.105	475078	keystroke_n	n	n/a
237.645	0.089	475290	keystroke_t	t	n/a
237.854	0.09	475708	keystroke_l	l	n/a
238.109	0.09	476218	keystroke_y	y	n/a
238.724	0.075	477448	keystroke_Key.enter	Key.enter	n/a
238.812	8.4035	477624	prompt	n/a	meetings room done qualifications\n
239.4745	0.09	478949	keystroke_m	m	n/a
239.5645	0.09	479129	keystroke_e	e	n/a
239.7595	0.105	479519	keystroke_e	e	n/a
239.8495	0.105	479699	keystroke_t	t	n/a
239.9695	0.12	479939	keystroke_i	i	n/a
240.0595	0.09	480119	keystroke_n	n	n/a
240.1345	0.075	480269	keystroke_g	g	n/a
240.3895	0.09	480779	keystroke_s	s	n/a
240.5995	0.089	481199	keystroke_Key.space	Key.space	n/a
241.1845	0.06	482369	keystroke_d	d	n/a
241.6185	0.0755	483237	keystroke_Key.backspace	Key.backspace	n/a
241.709	0.09	483418	keystroke_r	r	n/a
241.844	0.075	483688	keystroke_o	o	n/a
242.039	0.135	484078	keystroke_o	o	n/a
242.114	0.135	484228	keystroke_m	m	n/a
242.219	0.105	484438	keystroke_Key.space	Key.space	n/a
242.489	0.075	484978	keystroke_d	d	n/a
242.549	0.12	485098	keystroke_o	o	n/a
242.639	0.12	485278	keystroke_n	n	n/a
242.774	0.06	485548	keystroke_e	e	n/a
243.134	0.135	486268	keystroke_Key.space	Key.space	n/a
243.959	0.09	487918	keystroke_q	q	n/a
244.409	0.12	488818	keystroke_u	u	n/a
244.544	0.09	489088	keystroke_a	a	n/a
244.769	0.15	489538	keystroke_l	l	n/a
244.874	0.135	489748	keystroke_i	i	n/a
245.339	0.105	490678	keystroke_f	f	n/a
245.624	0.135	491248	keystroke_i	i	n/a
246.149	0.12	492298	keystroke_c	c	n/a
246.224	0.105	492448	keystroke_a	a	n/a
246.434	0.09	492868	keystroke_t	t	n/a
246.479	0.285	492958	keystroke_i	i	n/a
246.599	0.15	493198	keystroke_o	o	n/a
246.704	0.105	493408	keystroke_n	n	n/a
246.809	0.075	493618	keystroke_s	s	n/a
247.124	0.09	494248	keystroke_Key.enter	Key.enter	n/a
247.2185	7.4005	494437	prompt	n/a	solely reprints credit medline\n
247.799	0.075	495598	keystroke_s	s	n/a
248.2345	0.075	496469	keystroke_o	o	n/a
248.4145	0.09	496829	keystroke_l	l	n/a
248.6245	0.09	497249	keystroke_e	e	n/a
248.9095	0.075	497819	keystroke_l	l	n/a
249.1795	0.075	498359	keystroke_y	y	n/a
249.4035	0.0905	498807	keystroke_Key.space	Key.space	n/a
249.659	0.12	499318	keystroke_r	r	n/a
249.839	0.09	499678	keystroke_e	e	n/a
250.034	0.06	500068	keystroke_p	p	n/a
250.259	0.105	500518	keystroke_r	r	n/a
250.394	0.195	500788	keystroke_i	i	n/a
250.544	0.12	501088	keystroke_n	n	n/a
250.709	0.0905	501418	keystroke_t	t	n/a
250.919	0.1055	501838	keystroke_s	s	n/a
251.084	0.1055	502168	keystroke_Key.space	Key.space	n/a
251.2795	0.12	502559	keystroke_c	c	n/a
251.5045	0.15	503009	keystroke_r	r	n/a
251.6095	0.1195	503219	keystroke_e	e	n/a
251.879	0.105	503758	keystroke_d	d	n/a
251.999	0.105	503998	keystroke_i	i	n/a
252.269	0.12	504538	keystroke_t	t	n/a
252.404	0.09	504808	keystroke_Key.space	Key.space	n/a
252.614	0.105	505228	keystroke_m	m	n/a
252.749	0.045	505498	keystroke_e	e	n/a
253.139	0.075	506278	keystroke_d	d	n/a
253.5295	0.21	507059	keystroke_l	l	n/a
253.6645	0.165	507329	keystroke_i	i	n/a
253.7695	0.105	507539	keystroke_n	n	n/a
253.8895	0.105	507779	keystroke_e	e	n/a
254.5045	0.105	509009	keystroke_Key.enter	Key.enter	n/a
254.623	13.075	509246	prompt	n/a	universities zealand aims newman\n
255.404	0.105	510808	keystroke_u	u	n/a
255.584	0.12	511168	keystroke_n	n	n/a
255.749	0.12	511498	keystroke_i	i	n/a
256.199	0.18	512398	keystroke_v	v	n/a
256.454	0.12	512908	keystroke_e	e	n/a
256.514	0.12	513028	keystroke_r	r	n/a
256.7685	0.121	513537	keystroke_s	s	n/a
256.9045	0.089	513809	keystroke_i	i	n/a
257.0545	0.089	514109	keystroke_t	t	n/a
257.2185	0.0755	514437	keystroke_i	i	n/a
257.549	0.105	515098	keystroke_e	e	n/a
257.909	0.09	515818	keystroke_s	s	n/a
259.0185	0.105	518037	keystroke_Key.space	Key.space	n/a
259.6635	0.1205	519327	keystroke_z	z	n/a
260.4295	0.1345	520859	keystroke_e	e	n/a
260.624	0.12	521248	keystroke_a	a	n/a
260.984	0.09	521968	keystroke_l	l	n/a
261.134	0.135	522268	keystroke_a	a	n/a
261.254	0.09	522508	keystroke_n	n	n/a
261.359	0.09	522718	keystroke_d	d	n/a
261.509	0.09	523018	keystroke_Key.space	Key.space	n/a
261.749	0.105	523498	keystroke_a	a	n/a
262.019	0.165	524038	keystroke_i	i	n/a
262.244	0.09	524488	keystroke_m	m	n/a
265.232	0.012	530464	keystroke_s	s	n/a
265.439	0.075	530878	keystroke_Key.space	Key.space	n/a
265.724	0.09	531448	keystroke_n	n	n/a
265.784	0.18	531568	keystroke_e	e	n/a
266.099	0.09	532198	keystroke_w	w	n/a
266.31	0.074	532620	keystroke_m	m	n/a
266.399	0.09	532798	keystroke_a	a	n/a
266.519	0.09	533038	keystroke_n	n	n/a
267.6745	0.015	535349	keystroke_Key.enter	Key.enter	n/a
267.7025	10.9155	535405	prompt	n/a	that're newport nearby venue\n
268.5445	0.135	537089	keystroke_t	t	n/a
268.6805	0.119	537361	keystroke_h	h	n/a
269.3545	0.135	538709	keystroke_a	a	n/a
269.4295	0.12	538859	keystroke_r	r	n/a
269.5945	0.15	539189	keystroke_'	'	n/a
269.7295	0.105	539459	keystroke_r	r	n/a
269.7895	0.105	539579	keystroke_e	e	n/a
270.2545	0.06	540509	keystroke_Key.backspace	Key.backspace	n/a
270.4045	0.075	540809	keystroke_Key.backspace	Key.backspace	n/a
270.5395	0.075	541079	keystroke_Key.backspace	Key.backspace	n/a
270.8395	0.09	541679	keystroke_Key.backspace	Key.backspace	n/a
270.9595	0.09	541919	keystroke_t	t	n/a
271.3495	0.09	542699	keystroke_'	'	n/a
271.4695	0.12	542939	keystroke_r	r	n/a
271.5595	0.105	543119	keystroke_e	e	n/a
272.0095	0.1195	544019	keystroke_Key.space	Key.space	n/a
272.444	0.135	544888	keystroke_n	n	n/a
272.519	0.165	545038	keystroke_e	e	n/a
272.654	0.105	545308	keystroke_w	w	n/a
272.939	0.165	545878	keystroke_p	p	n/a
273.074	0.12	546148	keystroke_o	o	n/a
273.179	0.12	546358	keystroke_r	r	n/a
273.404	0.105	546808	keystroke_t	t	n/a
273.884	0.15	547768	keystroke_Key.space	Key.space	n/a
274.259	0.12	548518	keystroke_n	n	n/a
274.349	0.165	548698	keystroke_e	e	n/a
274.499	0.2405	548998	keystroke_a	a	n/a
274.6645	0.12	549329	keystroke_r	r	n/a
275.024	0.1055	550048	keystroke_b	b	n/a
275.204	0.136	550408	keystroke_y	y	n/a
275.579	0.106	551158	keystroke_Key.space	Key.space	n/a
276.06	0.119	552120	keystroke_e	e	n/a
276.27	0.06	552540	keystroke_b	b	n/a
276.615	0.075	553230	keystroke_Key.backspace	Key.backspace	n/a
276.764	0.075	553528	keystroke_Key.backspace	Key.backspace	n/a
276.884	0.12	553768	keystroke_v	v	n/a
277.184	0.1205	554368	keystroke_e	e	n/a
277.4095	0.135	554819	keystroke_n	n	n/a
277.7995	0.09	555599	keystroke_u	u	n/a
278.0395	0.075	556079	keystroke_e	e	n/a
278.5345	0.075	557069	keystroke_Key.enter	Key.enter	n/a
278.6225	13.3905	557245	prompt	n/a	really specialist integration built\n
279.315	0.1945	558630	keystroke_r	r	n/a
279.42	0.1495	558840	keystroke_e	e	n/a
279.4945	0.165	558989	keystroke_a	a	n/a
279.6145	0.105	559229	keystroke_l	l	n/a
279.7795	0.12	559559	keystroke_l	l	n/a
279.9445	0.045	559889	keystroke_l	l	n/a
280.7545	0.0895	561509	keystroke_Key.backspace	Key.backspace	n/a
281.054	0.075	562108	keystroke_u	u	n/a
281.519	0.09	563038	keystroke_Key.backspace	Key.backspace	n/a
282.299	0.091	564598	keystroke_y	y	n/a
282.404	0.015	564808	keystroke_Key.space	Key.space	n/a
282.57	0.105	565140	keystroke_s	s	n/a
282.704	0.091	565408	keystroke_p	p	n/a
282.855	0.075	565710	keystroke_e	e	n/a
283.034	0.106	566068	keystroke_c	c	n/a
283.169	0.09	566338	keystroke_i	i	n/a
283.32	0.105	566640	keystroke_a	a	n/a
283.44	0.09	566880	keystroke_l	l	n/a
284.34	0.045	568680	keystroke_i	i	n/a
284.445	0.089	568890	keystroke_s	s	n/a
284.684	0.091	569368	keystroke_t	t	n/a
284.8945	0.09	569789	keystroke_Key.space	Key.space	n/a
285.1795	0.1645	570359	keystroke_i	i	n/a
285.345	0.119	570690	keystroke_n	n	n/a
285.659	0.12	571318	keystroke_t	t	n/a
285.824	0.135	571648	keystroke_e	e	n/a
285.929	0.12	571858	keystroke_r	r	n/a
287.1295	0.075	574259	keystroke_Key.backspace	Key.backspace	n/a
287.2195	0.09	574439	keystroke_g	g	n/a
287.6095	0.1495	575219	keystroke_r	r	n/a
287.714	0.105	575428	keystroke_e	e	n/a
288.179	0.075	576358	keystroke_Key.backspace	Key.backspace	n/a
288.27	0.104	576540	keystroke_a	a	n/a
288.449	0.09	576898	keystroke_t	t	n/a
288.569	0.105	577138	keystroke_i	i	n/a
288.8995	0.1345	577799	keystroke_o	o	n/a
289.079	0.105	578158	keystroke_n	n	n/a
289.334	0.09	578668	keystroke_Key.space	Key.space	n/a
290.0395	0.12	580079	keystroke_b	b	n/a
290.1895	0.105	580379	keystroke_u	u	n/a
290.384	0.135	580768	keystroke_i	i	n/a
290.5495	0.135	581099	keystroke_l	l	n/a
290.6995	0.06	581399	keystroke_d	d	n/a
291.0445	0.075	582089	keystroke_Key.backspace	Key.backspace	n/a
291.1495	0.105	582299	keystroke_t	t	n/a
291.9445	0.06	583889	keystroke_Key.enter	Key.enter	n/a
292.017	10.6615	584034	prompt	n/a	with admissions memory britannica\n
292.634	0.1205	585268	keystroke_w	w	n/a
292.7695	0.105	585539	keystroke_i	i	n/a
292.9195	0.135	585839	keystroke_t	t	n/a
293.0395	0.1195	586079	keystroke_h	h	n/a
293.114	0.135	586228	keystroke_Key.space	Key.space	n/a
293.279	0.151	586558	keystroke_a	a	n/a
293.385	0.105	586770	keystroke_d	d	n/a
293.61	0.105	587220	keystroke_m	m	n/a
293.79	0.09	587580	keystroke_i	i	n/a
293.895	0.075	587790	keystroke_s	s	n/a
294.06	0.09	588120	keystroke_s	s	n/a
294.12	0.21	588240	keystroke_i	i	n/a
294.225	0.15	588450	keystroke_o	o	n/a
294.315	0.135	588630	keystroke_n	n	n/a
294.48	0.119	588960	keystroke_s	s	n/a
294.8845	0.105	589769	keystroke_Key.space	Key.space	n/a
295.1545	0.105	590309	keystroke_m	m	n/a
295.2745	0.06	590549	keystroke_e	e	n/a
295.3945	0.09	590789	keystroke_m	m	n/a
295.7095	0.0745	591419	keystroke_o	o	n/a
295.829	0.105	591658	keystroke_r	r	n/a
296.069	0.105	592138	keystroke_y	y	n/a
296.339	0.075	592678	keystroke_Key.space	Key.space	n/a
297.09	0.105	594180	keystroke_b	b	n/a
297.21	0.0895	594420	keystroke_r	r	n/a
297.3745	0.09	594749	keystroke_i	i	n/a
297.7495	0.1055	595499	keystroke_t	t	n/a
297.9145	0.135	595829	keystroke_a	a	n/a
298.0345	0.06	596069	keystroke_n	n	n/a
298.1995	0.075	596399	keystroke_n	n	n/a
298.3195	0.12	596639	keystroke_i	i	n/a
298.4545	0.12	596909	keystroke_c	c	n/a
298.5595	0.12	597119	keystroke_a	a	n/a
302.657	0.013	605314	keystroke_Key.enter	Key.enter	n/a
302.6825	13.766	605365	prompt	n/a	gradually total singh algeria\n
303.554	0.03	607108	keystroke_f	f	n/a
304.0345	0.09	608069	keystroke_Key.backspace	Key.backspace	n/a
304.1395	0.105	608279	keystroke_g	g	n/a
304.4095	0.105	608819	keystroke_r	r	n/a
304.6195	0.12	609239	keystroke_a	a	n/a
304.9045	0.075	609809	keystroke_d	d	n/a
305.2795	0.0745	610559	keystroke_u	u	n/a
305.744	0.135	611488	keystroke_l	l	n/a
306.7495	0.06	613499	keystroke_Key.backspace	Key.backspace	n/a
306.8845	0.075	613769	keystroke_Key.backspace	Key.backspace	n/a
308.2495	0.06	616499	keystroke_u	u	n/a
308.4295	0.075	616859	keystroke_a	a	n/a
308.5195	0.06	617039	keystroke_l	l	n/a
308.6845	0.06	617369	keystroke_l	l	n/a
308.8795	0.15	617759	keystroke_y	y	n/a
309.1495	0.12	618299	keystroke_Key.space	Key.space	n/a
309.48	0.105	618960	keystroke_t	t	n/a
309.57	0.105	619140	keystroke_o	o	n/a
309.69	0.09	619380	keystroke_t	t	n/a
309.84	0.135	619680	keystroke_a	a	n/a
309.93	0.165	619860	keystroke_l	l	n/a
310.08	0.09	620160	keystroke_Key.space	Key.space	n/a
310.815	0.0895	621630	keystroke_s	s	n/a
311.2645	0.165	622529	keystroke_i	i	n/a
311.3995	0.075	622799	keystroke_n	n	n/a
311.5945	0.09	623189	keystroke_g	g	n/a
311.8345	0.12	623669	keystroke_h	h	n/a
313.2	0.1045	626400	keystroke_Key.space	Key.space	n/a
313.574	0.105	627148	keystroke_a	a	n/a
313.664	0.075	627328	keystroke_l	l	n/a
314.61	0.104	629220	keystroke_f	f	n/a
315.1345	0.075	630269	keystroke_Key.backspace	Key.backspace	n/a
315.2245	0.12	630449	keystroke_g	g	n/a
315.5545	0.09	631109	keystroke_e	e	n/a
315.5995	0.12	631199	keystroke_r	r	n/a
315.7495	0.105	631499	keystroke_i	i	n/a
315.8395	0.105	631679	keystroke_a	a	n/a
316.395	0.045	632790	keystroke_Key.enter	Key.enter	n/a
316.4535	10.4805	632907	prompt	n/a	foul organisms structures timber\n
317.3245	0.075	634649	keystroke_f	f	n/a
317.52	0.1345	635040	keystroke_o	o	n/a
317.5945	0.12	635189	keystroke_u	u	n/a
317.8045	0.09	635609	keystroke_l	l	n/a
318.2845	0.1205	636569	keystroke_Key.space	Key.space	n/a
318.66	0.075	637320	keystroke_o	o	n/a
318.825	0.1045	637650	keystroke_r	r	n/a
319.2595	0.135	638519	keystroke_g	g	n/a
319.4845	0.12	638969	keystroke_a	a	n/a
319.6345	0.105	639269	keystroke_n	n	n/a
319.9045	0.075	639809	keystroke_i	i	n/a
320.0695	0.075	640139	keystroke_s	s	n/a
320.2795	0.105	640559	keystroke_m	m	n/a
320.4595	0.06	640919	keystroke_s	s	n/a
320.924	0.135	641848	keystroke_Key.space	Key.space	n/a
321.36	0.134	642720	keystroke_s	s	n/a
321.614	0.075	643228	keystroke_t	t	n/a
321.7795	0.105	643559	keystroke_r	r	n/a
321.9145	0.105	643829	keystroke_u	u	n/a
322.0795	0.105	644159	keystroke_c	c	n/a
322.4395	0.105	644879	keystroke_t	t	n/a
322.905	0.09	645810	keystroke_u	u	n/a
323.01	0.135	646020	keystroke_r	r	n/a
323.115	0.105	646230	keystroke_e	e	n/a
323.355	0.09	646710	keystroke_s	s	n/a
323.865	0.105	647730	keystroke_Key.space	Key.space	n/a
324.104	0.09	648208	keystroke_t	t	n/a
324.284	0.09	648568	keystroke_u	u	n/a
324.525	0.09	649050	keystroke_m	m	n/a
324.87	0.06	649740	keystroke_Key.backspace	Key.backspace	n/a
325.005	0.105	650010	keystroke_Key.backspace	Key.backspace	n/a
325.23	0.0745	650460	keystroke_i	i	n/a
325.4245	0.09	650849	keystroke_m	m	n/a
325.6795	0.075	651359	keystroke_b	b	n/a
325.964	0.121	651928	keystroke_e	e	n/a
326.025	0.09	652050	keystroke_r	r	n/a
326.85	0.075	653700	keystroke_Key.enter	Key.enter	n/a
326.94	5.281	653880	prompt	n/a	method formed rail legal\n
327.6445	0.12	655289	keystroke_m	m	n/a
327.7795	0.075	655559	keystroke_e	e	n/a
327.9295	0.075	655859	keystroke_t	t	n/a
328.0645	0.09	656129	keystroke_h	h	n/a
328.2145	0.105	656429	keystroke_o	o	n/a
328.3495	0.135	656699	keystroke_d	d	n/a
328.53	0.105	657060	keystroke_Key.space	Key.space	n/a
328.95	0.09	657900	keystroke_f	f	n/a
329.13	0.06	658260	keystroke_o	o	n/a
329.265	0.12	658530	keystroke_r	r	n/a
329.43	0.06	658860	keystroke_m	m	n/a
329.64	0.15	659280	keystroke_e	e	n/a
329.73	0.105	659460	keystroke_d	d	n/a
329.925	0.09	659850	keystroke_Key.space	Key.space	n/a
330.2545	0.18	660509	keystroke_r	r	n/a
330.3895	0.135	660779	keystroke_a	a	n/a
330.5095	0.12	661019	keystroke_i	i	n/a
330.6445	0.12	661289	keystroke_l	l	n/a
330.8695	0.075	661739	keystroke_Key.space	Key.space	n/a
331.319	0.105	662638	keystroke_l	l	n/a
331.395	0.09	662790	keystroke_e	e	n/a
331.649	0.075	663298	keystroke_g	g	n/a
331.785	0.12	663570	keystroke_a	a	n/a
331.89	0.104	663780	keystroke_l	l	n/a
332.145	0.075	664290	keystroke_Key.enter	Key.enter	n/a
332.2235	13.9855	664447	prompt	n/a	greensboro alarm requested genesis\n
333.1945	0.075	666389	keystroke_g	g	n/a
333.6445	0.105	667289	keystroke_r	r	n/a
333.8395	0.06	667679	keystroke_e	e	n/a
334.1095	0.09	668219	keystroke_e	e	n/a
334.2895	0.09	668579	keystroke_n	n	n/a
334.425	0.0745	668850	keystroke_s	s	n/a
334.77	0.1195	669540	keystroke_b	b	n/a
334.9045	0.12	669809	keystroke_o	o	n/a
335.2045	0.0905	670409	keystroke_r	r	n/a
335.355	0.075	670710	keystroke_o	o	n/a
335.82	0.1195	671640	keystroke_Key.space	Key.space	n/a
336.1195	0.0755	672239	keystroke_a	a	n/a
336.2245	0.1055	672449	keystroke_l	l	n/a
336.3745	0.1205	672749	keystroke_a	a	n/a
336.735	0.135	673470	keystroke_r	r	n/a
336.87	0.12	673740	keystroke_a	a	n/a
337.4545	0.0905	674909	keystroke_Key.backspace	Key.backspace	n/a
337.665	0.105	675330	keystroke_m	m	n/a
340.187	0.058	680374	keystroke_Key.space	Key.space	n/a
340.425	0.15	680850	keystroke_r	r	n/a
340.515	0.09	681030	keystroke_e	e	n/a
341.145	0.104	682290	keystroke_q	q	n/a
341.3695	0.075	682739	keystroke_u	u	n/a
341.5645	0.09	683129	keystroke_e	e	n/a
341.8495	0.015	683699	keystroke_s	s	n/a
341.9545	0.105	683909	keystroke_t	t	n/a
342.1195	0.195	684239	keystroke_e	e	n/a
342.2695	0.09	684539	keystroke_d	d	n/a
342.4045	0.135	684809	keystroke_Key.space	Key.space	n/a
343.1395	0.06	686279	keystroke_g	g	n/a
343.5595	0.105	687119	keystroke_e	e	n/a
343.7695	0.09	687539	keystroke_n	n	n/a
344.1895	0.075	688379	keystroke_i	i	n/a
344.7295	0.075	689459	keystroke_Key.backspace	Key.backspace	n/a
344.849	0.0905	689698	keystroke_e	e	n/a
345.1645	0.075	690329	keystroke_s	s	n/a
345.2695	0.06	690539	keystroke_i	i	n/a
345.3595	0.075	690719	keystroke_s	s	n/a
346.1245	0.075	692249	keystroke_Key.enter	Key.enter	n/a
346.214	16.6775	692428	prompt	n/a	auditor partially business malta\n
346.8295	0.12	693659	keystroke_a	a	n/a
346.9645	0.105	693929	keystroke_u	u	n/a
347.1445	0.075	694289	keystroke_r	r	n/a
347.5195	0.0755	695039	keystroke_Key.backspace	Key.backspace	n/a
347.64	0.105	695280	keystroke_d	d	n/a
347.985	0.09	695970	keystroke_i	i	n/a
348.3745	0.09	696749	keystroke_t	t	n/a
348.4945	0.075	696989	keystroke_o	o	n/a
348.6595	0.12	697319	keystroke_r	r	n/a
349.259	0.105	698518	keystroke_Key.space	Key.space	n/a
353.8965	0.001	707793	keystroke_p	p	n/a
353.9095	0.105	707819	keystroke_a	a	n/a
354.0895	0.105	708179	keystroke_r	r	n/a
355.2745	0.105	710549	keystroke_t	t	n/a
355.5895	0.075	711179	keystroke_i	i	n/a
355.83	0.105	711660	keystroke_a	a	n/a
355.98	0.06	711960	keystroke_l	l	n/a
356.13	0.09	712260	keystroke_l	l	n/a
356.325	0.135	712650	keystroke_y	y	n/a
356.49	0.105	712980	keystroke_Key.space	Key.space	n/a
356.685	0.12	713370	keystroke_b	b	n/a
357.135	0.015	714270	keystroke_u	u	n/a
357.465	0.105	714930	keystroke_s	s	n/a
357.8095	0.09	715619	keystroke_s	s	n/a
358.0045	0.06	716009	keystroke_i	i	n/a
358.2145	0.09	716429	keystroke_n	n	n/a
358.3495	0.075	716699	keystroke_e	e	n/a
358.56	0.06	717120	keystroke_s	s	n/a
358.74	0.06	717480	keystroke_s	s	n/a
359.685	0.045	719370	keystroke_Key.backspace	Key.backspace	n/a
359.82	0.0445	719640	keystroke_Key.backspace	Key.backspace	n/a
359.9545	0.075	719909	keystroke_Key.backspace	Key.backspace	n/a
360.1045	0.06	720209	keystroke_Key.backspace	Key.backspace	n/a
360.27	0.09	720540	keystroke_Key.backspace	Key.backspace	n/a
360.435	0.075	720870	keystroke_Key.backspace	Key.backspace	n/a
360.675	0.06	721350	keystroke_i	i	n/a
360.9	0.075	721800	keystroke_n	n	n/a
361.0645	0.075	722129	keystroke_e	e	n/a
361.26	0.06	722520	keystroke_s	s	n/a
361.41	0.09	722820	keystroke_s	s	n/a
361.545	0.12	723090	keystroke_Key.space	Key.space	n/a
361.89	0.105	723780	keystroke_m	m	n/a
362.01	0.09	724020	keystroke_a	a	n/a
362.205	0.075	724410	keystroke_l	l	n/a
362.4	0.09	724800	keystroke_t	t	n/a
362.67	0.06	725340	keystroke_a	a	n/a
362.805	0.075	725610	keystroke_Key.enter	Key.enter	n/a
362.8965	8.512	725793	prompt	n/a	series firms products lists\n
363.5995	0.09	727199	keystroke_s	s	n/a
363.7945	0.09	727589	keystroke_e	e	n/a
364.1995	0.105	728399	keystroke_r	r	n/a
364.47	0.06	728940	keystroke_i	i	n/a
364.545	0.15	729090	keystroke_e	e	n/a
364.74	0.105	729480	keystroke_s	s	n/a
364.965	0.105	729930	keystroke_Key.space	Key.space	n/a
365.5195	0.135	731039	keystroke_f	f	n/a
365.8795	0.075	731759	keystroke_i	i	n/a
366.1495	0.105	732299	keystroke_r	r	n/a
366.3145	0.105	732629	keystroke_m	m	n/a
366.5395	0.045	733079	keystroke_s	s	n/a
366.69	0.074	733380	keystroke_Key.space	Key.space	n/a
366.93	0.06	733860	keystroke_p	p	n/a
367.11	0.09	734220	keystroke_r	r	n/a
367.23	0.105	734460	keystroke_o	o	n/a
367.65	0.09	735300	keystroke_f	f	n/a
367.8	0.075	735600	keystroke_u	u	n/a
368.22	0.06	736440	keystroke_Key.backspace	Key.backspace	n/a
368.37	0.075	736740	keystroke_Key.backspace	Key.backspace	n/a
368.475	0.09	736950	keystroke_d	d	n/a
368.64	0.09	737280	keystroke_u	u	n/a
368.79	0.12	737580	keystroke_c	c	n/a
369.3595	0.09	738719	keystroke_t	t	n/a
369.5995	0.09	739199	keystroke_s	s	n/a
369.8695	0.12	739739	keystroke_Key.space	Key.space	n/a
370.2445	0.12	740489	keystroke_l	l	n/a
370.3195	0.105	740639	keystroke_i	i	n/a
370.6645	0.03	741329	keystroke_s	s	n/a
370.829	0.106	741658	keystroke_t	t	n/a
371.07	0.12	742140	keystroke_s	s	n/a
371.295	0.1045	742590	keystroke_Key.enter	Key.enter	n/a
371.413	8.3655	742826	prompt	n/a	thick stomach configured honolulu\n
372.1195	0.06	744239	keystroke_t	t	n/a
372.1945	0.15	744389	keystroke_h	h	n/a
372.3145	0.09	744629	keystroke_i	i	n/a
372.5395	0.12	745079	keystroke_c	c	n/a
373.0945	0.105	746189	keystroke_k	k	n/a
373.3645	0.105	746729	keystroke_Key.space	Key.space	n/a
373.68	0.1345	747360	keystroke_s	s	n/a
373.9195	0.09	747839	keystroke_t	t	n/a
374.0395	0.1955	748079	keystroke_o	o	n/a
374.22	0.105	748440	keystroke_m	m	n/a
374.355	0.15	748710	keystroke_a	a	n/a
374.46	0.12	748920	keystroke_c	c	n/a
374.61	0.165	749220	keystroke_h	h	n/a
374.76	0.1195	749520	keystroke_Key.space	Key.space	n/a
374.9695	0.15	749939	keystroke_c	c	n/a
375.0595	0.165	750119	keystroke_o	o	n/a
375.1945	0.075	750389	keystroke_n	n	n/a
375.4495	0.105	750899	keystroke_f	f	n/a
375.6595	0.12	751319	keystroke_i	i	n/a
376.29	0.105	752580	keystroke_g	g	n/a
376.5	0.03	753000	keystroke_u	u	n/a
376.635	0.135	753270	keystroke_r	r	n/a
376.785	0.1345	753570	keystroke_e	e	n/a
376.9645	0.1495	753929	keystroke_d	d	n/a
377.31	0.12	754620	keystroke_Key.space	Key.space	n/a
377.805	0.135	755610	keystroke_h	h	n/a
377.97	0.135	755940	keystroke_o	o	n/a
378.075	0.135	756150	keystroke_n	n	n/a
378.255	0.105	756510	keystroke_o	o	n/a
378.6145	0.09	757229	keystroke_l	l	n/a
378.8545	0.075	757709	keystroke_u	u	n/a
379.11	0.135	758220	keystroke_l	l	n/a
379.305	0.06	758610	keystroke_u	u	n/a
379.695	0.075	759390	keystroke_Key.enter	Key.enter	n/a
379.783	7.3905	759566	prompt	n/a	kevin peter modern stem\n
380.55	0.12	761100	keystroke_k	k	n/a
380.715	0.075	761430	keystroke_e	e	n/a
380.895	0.09	761790	keystroke_v	v	n/a
381.015	0.15	762030	keystroke_i	i	n/a
381.12	0.1645	762240	keystroke_n	n	n/a
381.27	0.0895	762540	keystroke_Key.space	Key.space	n/a
381.4045	0.09	762809	keystroke_p	p	n/a
381.5245	0.12	763049	keystroke_e	e	n/a
381.705	0.09	763410	keystroke_t	t	n/a
383.25	0.165	766500	keystroke_e	e	n/a
383.385	0.105	766770	keystroke_r	r	n/a
383.7	0.045	767400	keystroke_Key.space	Key.space	n/a
383.985	0.135	767970	keystroke_m	m	n/a
384.09	0.075	768180	keystroke_o	o	n/a
384.5095	0.135	769019	keystroke_d	d	n/a
384.6305	0.194	769261	keystroke_e	e	n/a
384.7945	0.105	769589	keystroke_r	r	n/a
384.9595	0.15	769919	keystroke_n	n	n/a
385.1245	0.105	770249	keystroke_Key.space	Key.space	n/a
385.3795	0.09	770759	keystroke_s	s	n/a
385.5745	0.12	771149	keystroke_t	t	n/a
385.6645	0.15	771329	keystroke_e	e	n/a
385.8295	0.135	771659	keystroke_m	m	n/a
387.09	0.075	774180	keystroke_Key.enter	Key.enter	n/a
387.1775	7.564	774355	prompt	n/a	like invitation dried germany\n
387.975	0.15	775950	keystroke_l	l	n/a
388.08	0.09	776160	keystroke_i	i	n/a
388.23	0.135	776460	keystroke_k	k	n/a
388.38	0.06	776760	keystroke_e	e	n/a
388.4995	0.09	776999	keystroke_Key.space	Key.space	n/a
388.6495	0.1805	777299	keystroke_i	i	n/a
388.785	0.135	777570	keystroke_n	n	n/a
388.995	0.09	777990	keystroke_v	v	n/a
389.115	0.105	778230	keystroke_i	i	n/a
389.37	0.09	778740	keystroke_t	t	n/a
389.535	0.165	779070	keystroke_a	a	n/a
389.67	0.105	779340	keystroke_t	t	n/a
389.79	0.2405	779580	keystroke_i	i	n/a
389.8645	0.27	779729	keystroke_o	o	n/a
389.9845	0.165	779969	keystroke_n	n	n/a
390.0895	0.105	780179	keystroke_Key.space	Key.space	n/a
391.0645	0.135	782129	keystroke_d	d	n/a
391.5605	0.12	783121	keystroke_r	r	n/a
391.7105	0.075	783421	keystroke_i	i	n/a
391.8605	0.12	783721	keystroke_e	e	n/a
391.9955	0.135	783991	keystroke_d	d	n/a
392.2195	0.121	784439	keystroke_Key.space	Key.space	n/a
392.73	0.09	785460	keystroke_g	g	n/a
392.94	0.165	785880	keystroke_e	e	n/a
393.03	0.105	786060	keystroke_r	r	n/a
393.2855	0.1045	786571	keystroke_m	m	n/a
393.42	0.12	786840	keystroke_a	a	n/a
393.555	0.06	787110	keystroke_n	n	n/a
393.735	0.09	787470	keystroke_y	y	n/a
394.665	0.075	789330	keystroke_Key.enter	Key.enter	n/a
394.7445	10.0095	789489	prompt	n/a	globe requests cohen investors\n
395.46	0.12	790920	keystroke_g	g	n/a
395.685	0.075	791370	keystroke_l	l	n/a
395.865	0.075	791730	keystroke_o	o	n/a
396.09	0.105	792180	keystroke_b	b	n/a
396.225	0.12	792450	keystroke_e	e	n/a
396.36	0.075	792720	keystroke_Key.space	Key.space	n/a
396.495	0.15	792990	keystroke_r	r	n/a
396.615	0.105	793230	keystroke_e	e	n/a
397.02	0.105	794040	keystroke_q	q	n/a
397.26	0.075	794520	keystroke_u	u	n/a
397.4705	0.0745	794941	keystroke_e	e	n/a
397.605	0.1195	795210	keystroke_s	s	n/a
397.8455	0.075	795691	keystroke_t	t	n/a
398.0695	0.105	796139	keystroke_s	s	n/a
398.2195	0.12	796439	keystroke_Key.space	Key.space	n/a
398.4595	0.12	796919	keystroke_c	c	n/a
398.5955	0.119	797191	keystroke_h	h	n/a
398.6995	0.105	797399	keystroke_o	o	n/a
399.0445	0.075	798089	keystroke_e	e	n/a
399.1495	0.105	798299	keystroke_n	n	n/a
399.6895	0.06	799379	keystroke_Key.backspace	Key.backspace	n/a
399.8245	0.09	799649	keystroke_Key.backspace	Key.backspace	n/a
399.9745	0.06	799949	keystroke_Key.backspace	Key.backspace	n/a
400.1095	0.075	800219	keystroke_Key.backspace	Key.backspace	n/a
400.3345	0.09	800669	keystroke_o	o	n/a
401.3705	0.075	802741	keystroke_h	h	n/a
401.4905	0.075	802981	keystroke_e	e	n/a
401.7305	0.09	803461	keystroke_n	n	n/a
402.1355	0.09	804271	keystroke_Key.space	Key.space	n/a
402.3305	0.135	804661	keystroke_i	i	n/a
402.4205	0.09	804841	keystroke_n	n	n/a
402.765	0.075	805530	keystroke_v	v	n/a
403.02	0.105	806040	keystroke_e	e	n/a
403.215	0.105	806430	keystroke_s	s	n/a
403.455	0.075	806910	keystroke_t	t	n/a
403.635	0.09	807270	keystroke_o	o	n/a
403.7545	0.09	807509	keystroke_r	r	n/a
403.965	0.105	807930	keystroke_s	s	n/a
404.6395	0.1055	809279	keystroke_Key.enter	Key.enter	n/a
404.7585	9.9105	809517	prompt	n/a	locations wordpress on oklahoma\n
405.3455	0.075	810691	keystroke_l	l	n/a
405.5395	0.09	811079	keystroke_o	o	n/a
405.6595	0.121	811319	keystroke_c	c	n/a
405.7355	0.12	811471	keystroke_a	a	n/a
405.9905	0.089	811981	keystroke_t	t	n/a
406.0645	0.2405	812129	keystroke_i	i	n/a
406.1395	0.1805	812279	keystroke_o	o	n/a
406.245	0.135	812490	keystroke_n	n	n/a
406.425	0.12	812850	keystroke_s	s	n/a
406.605	0.105	813210	keystroke_Key.space	Key.space	n/a
406.875	0.15	813750	keystroke_w	w	n/a
407.01	0.09	814020	keystroke_o	o	n/a
407.22	0.09	814440	keystroke_r	r	n/a
407.505	0.09	815010	keystroke_d	d	n/a
408.06	0.09	816120	keystroke_p	p	n/a
408.225	0.15	816450	keystroke_r	r	n/a
408.33	0.0895	816660	keystroke_e	e	n/a
408.555	0.06	817110	keystroke_s	s	n/a
408.735	0.045	817470	keystroke_s	s	n/a
408.795	0.105	817590	keystroke_Key.space	Key.space	n/a
408.915	0.165	817830	keystroke_o	o	n/a
409.035	0.135	818070	keystroke_n	n	n/a
409.11	0.09	818220	keystroke_Key.space	Key.space	n/a
410.2955	0.165	820591	keystroke_o	o	n/a
410.4005	0.0895	820801	keystroke_k	k	n/a
410.565	0.105	821130	keystroke_l	l	n/a
410.7	0.09	821400	keystroke_a	a	n/a
410.97	0.12	821940	keystroke_h	h	n/a
411.105	0.15	822210	keystroke_o	o	n/a
411.21	0.0895	822420	keystroke_k	k	n/a
411.3145	0.105	822629	keystroke_m	m	n/a
411.75	0.06	823500	keystroke_Key.backspace	Key.backspace	n/a
411.885	0.135	823770	keystroke_Key.backspace	Key.backspace	n/a
412.2445	0.09	824489	keystroke_m	m	n/a
412.3645	0.06	824729	keystroke_a	a	n/a
414.602	0.058	829204	keystroke_Key.enter	Key.enter	n/a
414.673	10.961	829346	prompt	n/a	undertake loves commented tunisia\n
415.4705	0.105	830941	keystroke_u	u	n/a
415.6955	0.089	831391	keystroke_n	n	n/a
415.7555	0.135	831511	keystroke_d	d	n/a
415.8605	0.195	831721	keystroke_e	e	n/a
415.9955	0.105	831991	keystroke_r	r	n/a
416.2655	0.105	832531	keystroke_t	t	n/a
416.4005	0.134	832801	keystroke_a	a	n/a
416.5205	0.104	833041	keystroke_k	k	n/a
416.76	0.105	833520	keystroke_e	e	n/a
416.91	0.09	833820	keystroke_Key.space	Key.space	n/a
417.1055	0.059	834211	keystroke_l	l	n/a
417.3005	0.075	834601	keystroke_o	o	n/a
417.3905	0.1495	834781	keystroke_v	v	n/a
417.4955	0.105	834991	keystroke_e	e	n/a
417.7055	0.105	835411	keystroke_s	s	n/a
417.8255	0.12	835651	keystroke_Key.space	Key.space	n/a
418.0655	0.105	836131	keystroke_c	c	n/a
418.1555	0.135	836311	keystroke_o	o	n/a
418.2455	0.09	836491	keystroke_m	m	n/a
418.4105	0.089	836821	keystroke_m	m	n/a
418.5155	0.119	837031	keystroke_e	e	n/a
418.695	0.045	837390	keystroke_n	n	n/a
418.785	0.105	837570	keystroke_t	t	n/a
418.935	0.18	837870	keystroke_e	e	n/a
419.04	0.12	838080	keystroke_d	d	n/a
419.175	0.0895	838350	keystroke_Key.space	Key.space	n/a
419.4605	0.105	838921	keystroke_t	t	n/a
419.5805	0.105	839161	keystroke_u	u	n/a
419.7755	0.09	839551	keystroke_n	n	n/a
420.0005	0.09	840001	keystroke_i	i	n/a
420.9755	0.09	841951	keystroke_s	s	n/a
421.1255	0.06	842251	keystroke_i	i	n/a
421.2145	0.046	842429	keystroke_s	s	n/a
421.6355	0.075	843271	keystroke_Key.backspace	Key.backspace	n/a
421.7255	0.075	843451	keystroke_a	a	n/a
425.567	0.058	851134	keystroke_Key.enter	Key.enter	n/a
425.64	8.109	851280	prompt	n/a	export princess households chuck\n
426.45	0.06	852900	keystroke_e	e	n/a
426.705	0.105	853410	keystroke_x	x	n/a
426.855	0.075	853710	keystroke_p	p	n/a
427.125	0.075	854250	keystroke_o	o	n/a
427.32	0.105	854640	keystroke_r	r	n/a
427.545	0.135	855090	keystroke_t	t	n/a
427.8	0.1205	855600	keystroke_Key.space	Key.space	n/a
428.25	0.09	856500	keystroke_p	p	n/a
428.445	0.06	856890	keystroke_r	r	n/a
428.595	0.09	857190	keystroke_i	i	n/a
428.76	0.09	857520	keystroke_n	n	n/a
428.97	0.18	857940	keystroke_c	c	n/a
429.105	0.105	858210	keystroke_e	e	n/a
429.3295	0.075	858659	keystroke_s	s	n/a
429.4795	0.075	858959	keystroke_s	s	n/a
429.5845	0.09	859169	keystroke_Key.space	Key.space	n/a
429.8095	0.135	859619	keystroke_h	h	n/a
429.9295	0.1505	859859	keystroke_o	o	n/a
430.0355	0.1345	860071	keystroke_u	u	n/a
430.155	0.2105	860310	keystroke_s	s	n/a
430.92	0.105	861840	keystroke_e	e	n/a
431.355	0.135	862710	keystroke_h	h	n/a
431.505	0.12	863010	keystroke_o	o	n/a
431.67	0.135	863340	keystroke_l	l	n/a
431.79	0.12	863580	keystroke_d	d	n/a
431.865	0.135	863730	keystroke_s	s	n/a
432.045	0.12	864090	keystroke_Key.space	Key.space	n/a
432.27	0.135	864540	keystroke_c	c	n/a
432.39	0.165	864780	keystroke_h	h	n/a
432.57	0.09	865140	keystroke_u	u	n/a
432.72	0.09	865440	keystroke_c	c	n/a
432.84	0.09	865680	keystroke_k	k	n/a
433.6655	0.075	867331	keystroke_Key.enter	Key.enter	n/a
433.7535	10.6155	867507	prompt	n/a	syndrome identifying dealer consultation\n
434.3555	0.12	868711	keystroke_s	s	n/a
434.5805	0.09	869161	keystroke_y	y	n/a
434.835	0.0605	869670	keystroke_n	n	n/a
435.2995	0.12	870599	keystroke_d	d	n/a
435.5245	0.12	871049	keystroke_r	r	n/a
435.6895	0.165	871379	keystroke_o	o	n/a
435.8255	0.089	871651	keystroke_m	m	n/a
435.9595	0.09	871919	keystroke_e	e	n/a
436.71	0.105	873420	keystroke_Key.space	Key.space	n/a
437.1295	0.1205	874259	keystroke_i	i	n/a
437.355	0.15	874710	keystroke_d	d	n/a
437.745	0.09	875490	keystroke_e	e	n/a
437.985	0.135	875970	keystroke_n	n	n/a
438.165	0.09	876330	keystroke_t	t	n/a
438.3	0.075	876600	keystroke_i	i	n/a
438.495	0.105	876990	keystroke_f	f	n/a
438.645	0.09	877290	keystroke_y	y	n/a
438.885	0.15	877770	keystroke_i	i	n/a
438.975	0.12	877950	keystroke_n	n	n/a
439.11	0.09	878220	keystroke_g	g	n/a
439.5	0.135	879000	keystroke_Key.space	Key.space	n/a
440.1445	0.1655	880289	keystroke_d	d	n/a
440.325	0.15	880650	keystroke_e	e	n/a
440.476	0.134	880952	keystroke_a	a	n/a
440.655	0.105	881310	keystroke_l	l	n/a
440.85	0.135	881700	keystroke_e	e	n/a
440.94	0.135	881880	keystroke_r	r	n/a
441.165	0.12	882330	keystroke_Key.space	Key.space	n/a
441.585	0.075	883170	keystroke_c	c	n/a
441.661	0.134	883322	keystroke_o	o	n/a
441.81	0.135	883620	keystroke_n	n	n/a
442.02	0.09	884040	keystroke_s	s	n/a
442.17	0.075	884340	keystroke_u	u	n/a
442.53	0.1195	885060	keystroke_l	l	n/a
442.7845	0.075	885569	keystroke_t	t	n/a
442.9645	0.151	885929	keystroke_a	a	n/a
443.13	0.0905	886260	keystroke_t	t	n/a
443.2205	0.269	886441	keystroke_i	i	n/a
443.2805	0.194	886561	keystroke_o	o	n/a
443.415	0.1045	886830	keystroke_n	n	n/a
444.285	0.075	888570	keystroke_Key.enter	Key.enter	n/a
444.3735	7.8705	888747	prompt	n/a	expedia begins holland have\n
445.1245	0.045	890249	keystroke_e	e	n/a
445.7395	0.0905	891479	keystroke_x	x	n/a
446.22	0.06	892440	keystroke_p	p	n/a
446.415	0.12	892830	keystroke_e	e	n/a
447.105	0.06	894210	keystroke_d	d	n/a
447.1795	0.045	894359	keystroke_i	i	n/a
447.435	0.09	894870	keystroke_a	a	n/a
447.705	0.105	895410	keystroke_Key.space	Key.space	n/a
448.08	0.045	896160	keystroke_b	b	n/a
448.29	0.06	896580	keystroke_e	e	n/a
448.905	0.06	897810	keystroke_g	g	n/a
449.01	0.15	898020	keystroke_i	i	n/a
449.115	0.105	898230	keystroke_n	n	n/a
449.2805	0.1045	898561	keystroke_s	s	n/a
449.505	0.045	899010	keystroke_Key.space	Key.space	n/a
450.12	0.135	900240	keystroke_h	h	n/a
450.225	0.105	900450	keystroke_o	o	n/a
450.42	0.06	900840	keystroke_l	l	n/a
450.57	0.075	901140	keystroke_l	l	n/a
450.66	0.15	901320	keystroke_a	a	n/a
450.84	0.09	901680	keystroke_n	n	n/a
450.96	0.12	901920	keystroke_d	d	n/a
451.095	0.0905	902190	keystroke_Key.space	Key.space	n/a
451.3055	0.1195	902611	keystroke_h	h	n/a
451.425	0.135	902850	keystroke_a	a	n/a
451.575	0.09	903150	keystroke_v	v	n/a
451.635	0.1055	903270	keystroke_e	e	n/a
452.145	0.09	904290	keystroke_Key.enter	Key.enter	n/a
452.2485	8.47	904497	prompt	n/a	bufing learned forward reduces\n
452.9845	0.121	905969	keystroke_b	b	n/a
453.1795	0.1055	906359	keystroke_u	u	n/a
453.4055	0.12	906811	keystroke_f	f	n/a
454.1105	0.135	908221	keystroke_i	i	n/a
454.2305	0.12	908461	keystroke_n	n	n/a
454.4255	0.135	908851	keystroke_g	g	n/a
455.19	0.0895	910380	keystroke_Key.space	Key.space	n/a
455.3845	0.075	910769	keystroke_l	l	n/a
455.4295	0.2705	910859	keystroke_e	e	n/a
455.5645	0.18	911129	keystroke_a	a	n/a
455.6845	0.15	911369	keystroke_r	r	n/a
455.8495	0.12	911699	keystroke_n	n	n/a
455.9395	0.15	911879	keystroke_e	e	n/a
456.0445	0.09	912089	keystroke_d	d	n/a
456.1795	0.135	912359	keystroke_Key.space	Key.space	n/a
456.4045	0.1505	912809	keystroke_f	f	n/a
456.495	0.135	912990	keystroke_o	o	n/a
456.69	0.105	913380	keystroke_r	r	n/a
457.11	0.09	914220	keystroke_w	w	n/a
457.29	0.135	914580	keystroke_a	a	n/a
458.01	0.045	916020	keystroke_r	r	n/a
458.19	0.12	916380	keystroke_d	d	n/a
458.49	0.105	916980	keystroke_Key.space	Key.space	n/a
459.345	0.12	918690	keystroke_r	r	n/a
459.42	0.12	918840	keystroke_e	e	n/a
459.6	0.105	919200	keystroke_d	d	n/a
459.735	0.09	919470	keystroke_u	u	n/a
459.9	0.165	919800	keystroke_c	c	n/a
460.005	0.105	920010	keystroke_e	e	n/a
460.29	0.12	920580	keystroke_s	s	n/a
460.605	0.105	921210	keystroke_Key.enter	Key.enter	n/a
460.723	7.3535	921446	prompt	n/a	cancer reducing resource knife\n
461.3095	0.151	922619	keystroke_c	c	n/a
461.4445	0.166	922889	keystroke_a	a	n/a
461.5955	0.105	923191	keystroke_n	n	n/a
462.1345	0.136	924269	keystroke_c	c	n/a
462.2545	0.196	924509	keystroke_e	e	n/a
462.3745	0.12	924749	keystroke_r	r	n/a
462.5245	0.136	925049	keystroke_Key.space	Key.space	n/a
462.8255	0.105	925651	keystroke_r	r	n/a
462.8855	0.165	925771	keystroke_e	e	n/a
463.1105	0.09	926221	keystroke_d	d	n/a
463.23	0.0895	926460	keystroke_u	u	n/a
463.4705	0.135	926941	keystroke_c	c	n/a
463.9505	0.12	927901	keystroke_i	i	n/a
464.0555	0.12	928111	keystroke_n	n	n/a
464.2055	0.12	928411	keystroke_g	g	n/a
464.3705	0.09	928741	keystroke_Key.space	Key.space	n/a
464.7155	0.134	929431	keystroke_r	r	n/a
464.8055	0.104	929611	keystroke_e	e	n/a
465.0295	0.106	930059	keystroke_s	s	n/a
465.1795	0.1355	930359	keystroke_o	o	n/a
465.465	0.075	930930	keystroke_u	u	n/a
465.6	0.09	931200	keystroke_r	r	n/a
465.87	0.195	931740	keystroke_c	c	n/a
466.0805	0.0895	932161	keystroke_e	e	n/a
466.3055	0.105	932611	keystroke_Key.space	Key.space	n/a
466.7855	0.135	933571	keystroke_k	k	n/a
466.8905	0.15	933781	keystroke_n	n	n/a
467.0555	0.135	934111	keystroke_i	i	n/a
467.3255	0.105	934651	keystroke_f	f	n/a
467.5495	0.135	935099	keystroke_e	e	n/a
468.0145	0.06	936029	keystroke_Key.enter	Key.enter	n/a
468.079	13.7305	936158	prompt	n/a	pizza transition physiology serious\n
468.735	0.105	937470	keystroke_p	p	n/a
469.38	0.105	938760	keystroke_i	i	n/a
469.68	0.105	939360	keystroke_z	z	n/a
469.89	0.075	939780	keystroke_z	z	n/a
470.055	0.09	940110	keystroke_a	a	n/a
470.22	0.135	940440	keystroke_Key.space	Key.space	n/a
470.7	0.105	941400	keystroke_t	t	n/a
470.91	0.12	941820	keystroke_r	r	n/a
471.045	0.135	942090	keystroke_a	a	n/a
471.21	0.105	942420	keystroke_n	n	n/a
471.6905	0.075	943381	keystroke_s	s	n/a
472.1105	0.09	944221	keystroke_i	i	n/a
472.2305	0.105	944461	keystroke_t	t	n/a
472.3655	0.2395	944731	keystroke_i	i	n/a
472.4845	0.165	944969	keystroke_o	o	n/a
472.5595	0.15	945119	keystroke_n	n	n/a
472.785	0.1045	945570	keystroke_Key.space	Key.space	n/a
473.25	0.09	946500	keystroke_p	p	n/a
473.835	0.075	947670	keystroke_h	h	n/a
474.3	0.09	948600	keystroke_y	y	n/a
474.9905	0.075	949981	keystroke_s	s	n/a
475.1255	0.15	950251	keystroke_i	i	n/a
475.2455	0.135	950491	keystroke_o	o	n/a
475.8895	0.09	951779	keystroke_l	l	n/a
476.0995	0.09	952199	keystroke_o	o	n/a
476.295	0.105	952590	keystroke_g	g	n/a
477.015	0.075	954030	keystroke_y	y	n/a
478.3795	0.1205	956759	keystroke_Key.space	Key.space	n/a
478.8305	0.074	957661	keystroke_s	s	n/a
479.0095	0.151	958019	keystroke_e	e	n/a
479.1155	0.1045	958231	keystroke_r	r	n/a
479.2505	0.1345	958501	keystroke_i	i	n/a
479.386	0.179	958772	keystroke_o	o	n/a
479.505	0.105	959010	keystroke_u	u	n/a
479.655	0.09	959310	keystroke_d	d	n/a
480.885	0.06	961770	keystroke_Key.backspace	Key.backspace	n/a
481.065	0.1205	962130	keystroke_s	s	n/a
481.7095	0.091	963419	keystroke_Key.enter	Key.enter	n/a
481.8135	6.798	963627	prompt	n/a	asks decades disposition swim\n
482.4605	0.135	964921	keystroke_a	a	n/a
482.5655	0.135	965131	keystroke_s	s	n/a
482.7455	0.15	965491	keystroke_k	k	n/a
482.91	0.09	965820	keystroke_s	s	n/a
483.15	0.09	966300	keystroke_Key.space	Key.space	n/a
483.3755	0.165	966751	keystroke_d	d	n/a
483.4805	0.119	966961	keystroke_e	e	n/a
483.6895	0.15	967379	keystroke_c	c	n/a
483.8545	0.195	967709	keystroke_a	a	n/a
484.0195	0.211	968039	keystroke_d	d	n/a
484.1695	0.135	968339	keystroke_e	e	n/a
484.4395	0.12	968879	keystroke_s	s	n/a
484.7395	0.135	969479	keystroke_Key.space	Key.space	n/a
485.1295	0.1205	970259	keystroke_d	d	n/a
485.3395	0.075	970679	keystroke_i	i	n/a
485.4295	0.105	970859	keystroke_s	s	n/a
485.9855	0.12	971971	keystroke_p	p	n/a
486.1505	0.09	972301	keystroke_o	o	n/a
486.3755	0.075	972751	keystroke_s	s	n/a
486.4955	0.06	972991	keystroke_i	i	n/a
486.66	0.105	973320	keystroke_t	t	n/a
486.75	0.225	973500	keystroke_i	i	n/a
486.84	0.165	973680	keystroke_o	o	n/a
486.93	0.165	973860	keystroke_n	n	n/a
487.08	0.12	974160	keystroke_Key.space	Key.space	n/a
487.3945	0.075	974789	keystroke_s	s	n/a
487.6055	0.104	975211	keystroke_w	w	n/a
487.8145	0.15	975629	keystroke_i	i	n/a
487.9495	0.1655	975899	keystroke_m	m	n/a
488.52	0.09	977040	keystroke_Key.enter	Key.enter	n/a
488.614	10.2655	977228	prompt	n/a	weblog eligible adolescent advances\n
489.405	0.135	978810	keystroke_w	w	n/a
489.51	0.12	979020	keystroke_e	e	n/a
489.99	0.06	979980	keystroke_b	b	n/a
490.245	0.09	980490	keystroke_l	l	n/a
490.635	0.0905	981270	keystroke_o	o	n/a
490.9055	0.105	981811	keystroke_g	g	n/a
491.385	0.12	982770	keystroke_Key.space	Key.space	n/a
491.7	0.09	983400	keystroke_e	e	n/a
491.82	0.165	983640	keystroke_l	l	n/a
491.925	0.12	983850	keystroke_i	i	n/a
492.195	0.105	984390	keystroke_g	g	n/a
492.3605	0.1045	984721	keystroke_i	i	n/a
492.645	0.06	985290	keystroke_b	b	n/a
492.81	0.1205	985620	keystroke_l	l	n/a
492.9455	0.045	985891	keystroke_e	e	n/a
493.1405	0.105	986281	keystroke_Key.space	Key.space	n/a
493.62	0.1055	987240	keystroke_a	a	n/a
493.8605	0.09	987721	keystroke_d	d	n/a
493.9955	0.06	987991	keystroke_o	o	n/a
494.1755	0.0895	988351	keystroke_l	l	n/a
494.295	0.075	988590	keystroke_e	e	n/a
494.7	0.09	989400	keystroke_s	s	n/a
495.15	0.165	990300	keystroke_c	c	n/a
495.285	0.12	990570	keystroke_e	e	n/a
495.4505	0.1195	990901	keystroke_n	n	n/a
495.5845	0.0905	991169	keystroke_t	t	n/a
496.0345	0.09	992069	keystroke_Key.space	Key.space	n/a
496.41	0.075	992820	keystroke_a	a	n/a
496.875	0.105	993750	keystroke_d	d	n/a
497.175	0.09	994350	keystroke_v	v	n/a
497.295	0.135	994590	keystroke_a	a	n/a
497.445	0.15	994890	keystroke_n	n	n/a
497.79	0.105	995580	keystroke_c	c	n/a
497.835	0.12	995670	keystroke_e	e	n/a
498.045	0.1055	996090	keystroke_s	s	n/a
498.735	0.135	997470	keystroke_Key.enter	Key.enter	n/a
498.884	11.7405	997768	prompt	n/a	reject maine internship programmes\n
499.8005	0.165	999601	keystroke_r	r	n/a
499.8755	0.18	999751	keystroke_e	e	n/a
500.1755	0.12	1000351	keystroke_g	g	n/a
500.3255	0.105	1000651	keystroke_e	e	n/a
500.4755	0.15	1000951	keystroke_c	c	n/a
501.0455	0.06	1002091	keystroke_Key.backspace	Key.backspace	n/a
501.2255	0.03	1002451	keystroke_Key.backspace	Key.backspace	n/a
501.36	0.06	1002720	keystroke_Key.backspace	Key.backspace	n/a
501.585	0.1355	1003170	keystroke_j	j	n/a
501.9755	0.09	1003951	keystroke_c	c	n/a
502.0205	0.0895	1004041	keystroke_e	e	n/a
502.7105	0.075	1005421	keystroke_Key.backspace	Key.backspace	n/a
502.8	0.015	1005600	keystroke_Key.backspace	Key.backspace	n/a
502.83	0.12	1005660	keystroke_e	e	n/a
502.89	0.1205	1005780	keystroke_c	c	n/a
503.2055	0.075	1006411	keystroke_t	t	n/a
503.5505	0.09	1007101	keystroke_Key.space	Key.space	n/a
503.7605	0.105	1007521	keystroke_m	m	n/a
503.8505	0.105	1007701	keystroke_a	a	n/a
504.0005	0.105	1008001	keystroke_i	i	n/a
504.0905	0.105	1008181	keystroke_n	n	n/a
504.2405	0.075	1008481	keystroke_e	e	n/a
504.4205	0.045	1008841	keystroke_Key.space	Key.space	n/a
504.6455	0.135	1009291	keystroke_i	i	n/a
504.7505	0.12	1009501	keystroke_n	n	n/a
505.41	0.09	1010820	keystroke_t	t	n/a
505.59	0.105	1011180	keystroke_e	e	n/a
505.665	0.12	1011330	keystroke_r	r	n/a
505.935	0.0755	1011870	keystroke_n	n	n/a
506.22	0.106	1012440	keystroke_s	s	n/a
506.355	0.166	1012710	keystroke_h	h	n/a
506.46	0.121	1012920	keystroke_i	i	n/a
506.625	0.12	1013250	keystroke_p	p	n/a
507.1955	0.09	1014391	keystroke_Key.space	Key.space	n/a
507.405	0.06	1014810	keystroke_p	p	n/a
507.51	0.105	1015020	keystroke_r	r	n/a
507.69	0.03	1015380	keystroke_o	o	n/a
507.975	0.09	1015950	keystroke_g	g	n/a
508.215	0.12	1016430	keystroke_r	r	n/a
508.38	0.1205	1016760	keystroke_a	a	n/a
509.025	0.06	1018050	keystroke_m	m	n/a
509.16	0.1055	1018320	keystroke_m	m	n/a
509.2805	0.075	1018561	keystroke_e	e	n/a
509.4605	0.09	1018921	keystroke_s	s	n/a
510.4805	0.135	1020961	keystroke_Key.enter	Key.enter	n/a
510.6285	11.621	1021257	prompt	n/a	outcomes absorption editorials guidelines\n
511.185	0.105	1022370	keystroke_o	o	n/a
511.35	0.135	1022700	keystroke_c	c	n/a
511.7845	0.076	1023569	keystroke_Key.backspace	Key.backspace	n/a
512.0105	0.075	1024021	keystroke_u	u	n/a
512.1305	0.09	1024261	keystroke_t	t	n/a
512.3855	0.1345	1024771	keystroke_c	c	n/a
512.49	0.135	1024980	keystroke_o	o	n/a
512.595	0.12	1025190	keystroke_m	m	n/a
512.73	0.075	1025460	keystroke_e	e	n/a
512.94	0.075	1025880	keystroke_s	s	n/a
513.105	0.12	1026210	keystroke_Key.space	Key.space	n/a
513.4205	0.21	1026841	keystroke_a	a	n/a
513.5555	0.12	1027111	keystroke_b	b	n/a
513.8105	0.12	1027621	keystroke_s	s	n/a
513.9905	0.105	1027981	keystroke_o	o	n/a
514.1555	0.09	1028311	keystroke_r	r	n/a
514.5155	0.075	1029031	keystroke_p	p	n/a
514.7405	0.105	1029481	keystroke_t	t	n/a
514.8605	0.285	1029721	keystroke_i	i	n/a
515.0105	0.18	1030021	keystroke_o	o	n/a
515.1005	0.1945	1030201	keystroke_n	n	n/a
515.37	0.045	1030740	keystroke_Key.space	Key.space	n/a
515.52	0.105	1031040	keystroke_e	e	n/a
515.67	0.135	1031340	keystroke_d	d	n/a
515.821	0.089	1031642	keystroke_i	i	n/a
516.09	0.075	1032180	keystroke_t	t	n/a
516.255	0.12	1032510	keystroke_o	o	n/a
516.42	0.09	1032840	keystroke_r	r	n/a
516.57	0.075	1033140	keystroke_i	i	n/a
516.735	0.075	1033470	keystroke_a	a	n/a
516.84	0.12	1033680	keystroke_l	l	n/a
516.99	0.075	1033980	keystroke_s	s	n/a
517.245	0.09	1034490	keystroke_Key.space	Key.space	n/a
517.9805	0.1195	1035961	keystroke_g	g	n/a
518.5205	0.15	1037041	keystroke_u	u	n/a
518.6255	0.12	1037251	keystroke_i	i	n/a
518.8655	0.09	1037731	keystroke_k	k	n/a
519.3755	0.03	1038751	keystroke_d	d	n/a
519.7505	0.075	1039501	keystroke_Key.backspace	Key.backspace	n/a
519.9155	0.06	1039831	keystroke_Key.backspace	Key.backspace	n/a
520.1105	0.12	1040221	keystroke_d	d	n/a
520.5605	0.105	1041121	keystroke_e	e	n/a
520.8005	0.165	1041601	keystroke_l	l	n/a
520.9205	0.165	1041841	keystroke_i	i	n/a
521.0555	0.135	1042111	keystroke_n	n	n/a
521.1605	0.09	1042321	keystroke_e	e	n/a
521.3405	0.075	1042681	keystroke_s	s	n/a
522.1955	0.045	1044391	keystroke_Key.enter	Key.enter	n/a
522.255	15.1595	1044510	prompt	n/a	panasonic assignment bomb convert\n
523.065	0.09	1046130	keystroke_p	p	n/a
523.216	0.089	1046432	keystroke_a	a	n/a
523.32	0.1205	1046640	keystroke_n	n	n/a
523.7105	0.135	1047421	keystroke_a	a	n/a
524.2355	0.09	1048471	keystroke_s	s	n/a
524.4305	0.09	1048861	keystroke_o	o	n/a
524.7755	0.09	1049551	keystroke_m	m	n/a
524.9705	0.075	1049941	keystroke_i	i	n/a
525.66	0.06	1051320	keystroke_Key.backspace	Key.backspace	n/a
525.81	0.06	1051620	keystroke_Key.backspace	Key.backspace	n/a
527.2955	0.12	1054591	keystroke_n	n	n/a
527.4305	0.015	1054861	keystroke_i	i	n/a
527.9705	0.045	1055941	keystroke_c	c	n/a
528.54	0.105	1057080	keystroke_Key.space	Key.space	n/a
531.993	0.027	1063986	keystroke_a	a	n/a
532.1255	0.075	1064251	keystroke_s	s	n/a
532.3205	0.075	1064641	keystroke_s	s	n/a
532.4555	0.09	1064911	keystroke_i	i	n/a
532.7105	0.0905	1065421	keystroke_g	g	n/a
532.86	0.15	1065720	keystroke_n	n	n/a
533.265	0.106	1066530	keystroke_m	m	n/a
533.386	0.105	1066772	keystroke_e	e	n/a
533.521	0.09	1067042	keystroke_n	n	n/a
533.626	0.09	1067252	keystroke_t	t	n/a
533.775	0.091	1067550	keystroke_Key.space	Key.space	n/a
533.971	0.12	1067942	keystroke_b	b	n/a
534.106	0.18	1068212	keystroke_o	o	n/a
534.241	0.09	1068482	keystroke_m	m	n/a
534.496	0.09	1068992	keystroke_b	b	n/a
534.721	0.059	1069442	keystroke_Key.space	Key.space	n/a
535.35	0.135	1070700	keystroke_c	c	n/a
535.47	0.1205	1070940	keystroke_o	o	n/a
535.5755	0.12	1071151	keystroke_n	n	n/a
535.92	0.135	1071840	keystroke_v	v	n/a
536.04	0.15	1072080	keystroke_e	e	n/a
536.205	0.105	1072410	keystroke_r	r	n/a
536.49	0.075	1072980	keystroke_t	t	n/a
537.331	0.075	1074662	keystroke_Key.enter	Key.enter	n/a
537.4185	8.621	1074837	prompt	n/a	provider engage competent attorney\n
538.096	0.09	1076192	keystroke_p	p	n/a
538.261	0.105	1076522	keystroke_r	r	n/a
538.411	0.0895	1076822	keystroke_o	o	n/a
538.6355	0.09	1077271	keystroke_v	v	n/a
538.8	0.09	1077600	keystroke_i	i	n/a
539.01	0.1355	1078020	keystroke_d	d	n/a
539.1005	0.18	1078201	keystroke_e	e	n/a
539.2355	0.1055	1078471	keystroke_r	r	n/a
539.371	0.12	1078742	keystroke_Key.space	Key.space	n/a
539.671	0.06	1079342	keystroke_e	e	n/a
539.776	0.12	1079552	keystroke_n	n	n/a
540.091	0.105	1080182	keystroke_g	g	n/a
540.286	0.12	1080572	keystroke_a	a	n/a
540.391	0.135	1080782	keystroke_g	g	n/a
540.481	0.135	1080962	keystroke_e	e	n/a
540.691	0.105	1081382	keystroke_Key.space	Key.space	n/a
541.006	0.029	1082012	keystroke_c	c	n/a
541.021	0.075	1082042	keystroke_o	o	n/a
541.756	0.105	1083512	keystroke_m	m	n/a
541.981	0.06	1083962	keystroke_p	p	n/a
542.161	0.105	1084322	keystroke_e	e	n/a
542.386	0.06	1084772	keystroke_t	t	n/a
542.6105	0.015	1085221	keystroke_e	e	n/a
542.9405	0.06	1085881	keystroke_n	n	n/a
543.1355	0.075	1086271	keystroke_t	t	n/a
544.186	0.104	1088372	keystroke_Key.space	Key.space	n/a
544.47	0.105	1088940	keystroke_a	a	n/a
544.68	0.075	1089360	keystroke_t	t	n/a
544.83	0.09	1089660	keystroke_t	t	n/a
544.935	0.105	1089870	keystroke_o	o	n/a
545.055	0.09	1090110	keystroke_r	r	n/a
545.37	0.09	1090740	keystroke_n	n	n/a
545.49	0.0755	1090980	keystroke_e	e	n/a
545.611	0.09	1091222	keystroke_y	y	n/a
545.9555	0.075	1091911	keystroke_Key.enter	Key.enter	n/a
546.0435	10.916	1092087	prompt	n/a	behalf yourself versus antibodies\n
546.736	0.105	1093472	keystroke_b	b	n/a
546.842	0.074	1093684	keystroke_e	e	n/a
547.11	0.106	1094220	keystroke_h	h	n/a
547.276	0.0895	1094552	keystroke_a	a	n/a
547.5605	0.105	1095121	keystroke_l	l	n/a
548.2355	0.045	1096471	keystroke_f	f	n/a
548.7755	0.1345	1097551	keystroke_Key.space	Key.space	n/a
549.135	0.105	1098270	keystroke_y	y	n/a
549.27	0.1505	1098540	keystroke_o	o	n/a
549.3305	0.12	1098661	keystroke_u	u	n/a
549.5255	0.075	1099051	keystroke_r	r	n/a
549.7655	0.075	1099531	keystroke_s	s	n/a
549.9605	0.06	1099921	keystroke_e	e	n/a
550.0655	0.09	1100131	keystroke_l	l	n/a
550.2005	0.12	1100401	keystroke_f	f	n/a
550.7105	0.12	1101421	keystroke_Key.space	Key.space	n/a
551.1	0.1505	1102200	keystroke_v	v	n/a
551.296	0.1495	1102592	keystroke_e	e	n/a
551.4005	0.105	1102801	keystroke_r	r	n/a
551.6705	0.12	1103341	keystroke_s	s	n/a
552.105	0.12	1104210	keystroke_u	u	n/a
552.21	0.105	1104420	keystroke_s	s	n/a
552.84	0.075	1105680	keystroke_Key.space	Key.space	n/a
553.005	0.105	1106010	keystroke_a	a	n/a
553.125	0.105	1106250	keystroke_n	n	n/a
553.366	0.09	1106732	keystroke_t	t	n/a
553.516	0.075	1107032	keystroke_i	i	n/a
554.31	0.105	1108620	keystroke_b	b	n/a
554.461	0.149	1108922	keystroke_o	o	n/a
554.565	0.12	1109130	keystroke_n	n	n/a
555.0905	0.09	1110181	keystroke_Key.backspace	Key.backspace	n/a
555.2255	0.09	1110451	keystroke_d	d	n/a
555.3755	0.075	1110751	keystroke_i	i	n/a
555.4805	0.09	1110961	keystroke_e	e	n/a
555.6755	0.075	1111351	keystroke_s	s	n/a
556.8605	0.09	1113721	keystroke_Key.enter	Key.enter	n/a
556.9635	6.8435	1113927	prompt	n/a	icons clinical agents bread\n
557.6855	0.12	1115371	keystroke_i	i	n/a
557.8655	0.12	1115731	keystroke_c	c	n/a
558.0005	0.15	1116001	keystroke_o	o	n/a
558.1055	0.105	1116211	keystroke_n	n	n/a
558.2855	0.1045	1116571	keystroke_s	s	n/a
558.495	0.105	1116990	keystroke_Key.space	Key.space	n/a
558.855	0.075	1117710	keystroke_c	c	n/a
558.96	0.165	1117920	keystroke_l	l	n/a
559.05	0.21	1118100	keystroke_i	i	n/a
559.245	0.12	1118490	keystroke_n	n	n/a
559.53	0.09	1119060	keystroke_i	i	n/a
559.815	0.135	1119630	keystroke_c	c	n/a
559.905	0.135	1119810	keystroke_a	a	n/a
560.055	0.105	1120110	keystroke_l	l	n/a
560.355	0.091	1120710	keystroke_Key.space	Key.space	n/a
560.565	0.1055	1121130	keystroke_a	a	n/a
560.8205	0.12	1121641	keystroke_g	g	n/a
560.9415	0.104	1121883	keystroke_e	e	n/a
561.3605	0.15	1122721	keystroke_n	n	n/a
561.63	0.105	1123260	keystroke_t	t	n/a
561.855	0.075	1123710	keystroke_s	s	n/a
562.395	0.075	1124790	keystroke_Key.space	Key.space	n/a
562.8455	0.12	1125691	keystroke_b	b	n/a
562.9955	0.15	1125991	keystroke_r	r	n/a
563.0855	0.195	1126171	keystroke_e	e	n/a
563.2055	0.1655	1126411	keystroke_a	a	n/a
563.356	0.135	1126712	keystroke_d	d	n/a
563.761	0.0445	1127522	keystroke_Key.enter	Key.enter	n/a
563.8095	7.58	1127619	prompt	n/a	joint criminal nicole finding\n
564.6905	0.1355	1129381	keystroke_j	j	n/a
564.871	0.21	1129742	keystroke_o	o	n/a
565.201	0.09	1130402	keystroke_i	i	n/a
565.3805	0.12	1130761	keystroke_n	n	n/a
565.5755	0.1495	1131151	keystroke_t	t	n/a
565.785	0.09	1131570	keystroke_Key.space	Key.space	n/a
566.056	0.09	1132112	keystroke_c	c	n/a
566.266	0.12	1132532	keystroke_r	r	n/a
566.341	0.135	1132682	keystroke_i	i	n/a
566.446	0.135	1132892	keystroke_m	m	n/a
566.596	0.179	1133192	keystroke_i	i	n/a
566.76	0.135	1133520	keystroke_n	n	n/a
566.94	0.1055	1133880	keystroke_a	a	n/a
567.0755	0.15	1134151	keystroke_l	l	n/a
567.2555	0.105	1134511	keystroke_Key.space	Key.space	n/a
567.6755	0.075	1135351	keystroke_n	n	n/a
567.7355	0.105	1135471	keystroke_i	i	n/a
567.8255	0.135	1135651	keystroke_c	c	n/a
567.9755	0.075	1135951	keystroke_o	o	n/a
568.1555	0.105	1136311	keystroke_l	l	n/a
568.2755	0.09	1136551	keystroke_e	e	n/a
568.47	0.075	1136940	keystroke_Key.space	Key.space	n/a
569.056	0.0895	1138112	keystroke_d	d	n/a
569.6705	0.075	1139341	keystroke_Key.backspace	Key.backspace	n/a
569.7605	0.0905	1139521	keystroke_f	f	n/a
569.866	0.15	1139732	keystroke_i	i	n/a
570.001	0.075	1140002	keystroke_n	n	n/a
570.466	0.105	1140932	keystroke_d	d	n/a
570.646	0.1045	1141292	keystroke_i	i	n/a
570.7205	0.12	1141441	keystroke_n	n	n/a
570.8255	0.09	1141651	keystroke_g	g	n/a
571.29	0.0905	1142580	keystroke_Key.enter	Key.enter	n/a
571.394	8.8755	1142788	prompt	n/a	westminster size pleased exposed\n
572.1755	0.135	1144351	keystroke_w	w	n/a
572.3255	0.09	1144651	keystroke_e	e	n/a
572.5205	0.105	1145041	keystroke_s	s	n/a
572.7605	0.09	1145521	keystroke_t	t	n/a
573.0155	0.09	1146031	keystroke_m	m	n/a
573.1655	0.1345	1146331	keystroke_i	i	n/a
573.2855	0.0895	1146571	keystroke_n	n	n/a
573.42	0.09	1146840	keystroke_s	s	n/a
573.645	0.105	1147290	keystroke_t	t	n/a
573.795	0.135	1147590	keystroke_e	e	n/a
573.9	0.105	1147800	keystroke_r	r	n/a
574.155	0.105	1148310	keystroke_Key.space	Key.space	n/a
574.921	0.165	1149842	keystroke_s	s	n/a
575.131	0.09	1150262	keystroke_o	o	n/a
575.37	0.121	1150740	keystroke_z	z	n/a
575.656	0.075	1151312	keystroke_Key.backspace	Key.backspace	n/a
575.8205	0.045	1151641	keystroke_Key.backspace	Key.backspace	n/a
575.9855	0.09	1151971	keystroke_i	i	n/a
576.0905	0.09	1152181	keystroke_z	z	n/a
576.346	0.0595	1152692	keystroke_e	e	n/a
576.7805	0.09	1153561	keystroke_Key.space	Key.space	n/a
577.2155	0.1645	1154431	keystroke_p	p	n/a
577.32	0.121	1154640	keystroke_l	l	n/a
577.425	0.076	1154850	keystroke_e	e	n/a
577.561	0.15	1155122	keystroke_a	a	n/a
577.65	0.091	1155300	keystroke_s	s	n/a
577.845	0.076	1155690	keystroke_e	e	n/a
578.055	0.12	1156110	keystroke_d	d	n/a
578.22	0.105	1156440	keystroke_Key.space	Key.space	n/a
578.55	0.075	1157100	keystroke_e	e	n/a
578.775	0.105	1157550	keystroke_x	x	n/a
579.09	0.12	1158180	keystroke_p	p	n/a
579.285	0.075	1158570	keystroke_o	o	n/a
579.585	0.075	1159170	keystroke_s	s	n/a
579.78	0.105	1159560	keystroke_e	e	n/a
579.84	0.12	1159680	keystroke_d	d	n/a
580.17	0.09	1160340	keystroke_Key.enter	Key.enter	n/a
580.2735	8.576	1160547	prompt	n/a	maintains identity usage require\n
580.891	0.105	1161782	keystroke_m	m	n/a
581.011	0.03	1162022	keystroke_a	a	n/a
581.086	0.119	1162172	keystroke_i	i	n/a
581.191	0.09	1162382	keystroke_n	n	n/a
581.3105	0.09	1162621	keystroke_t	t	n/a
581.4755	0.135	1162951	keystroke_a	a	n/a
581.5955	0.105	1163191	keystroke_i	i	n/a
581.6705	0.105	1163341	keystroke_n	n	n/a
582.105	0.12	1164210	keystroke_s	s	n/a
582.495	0.0905	1164990	keystroke_Key.space	Key.space	n/a
582.7955	0.075	1165591	keystroke_i	i	n/a
582.9755	0.165	1165951	keystroke_d	d	n/a
583.0955	0.12	1166191	keystroke_e	e	n/a
583.2455	0.1355	1166491	keystroke_n	n	n/a
583.41	0.09	1166820	keystroke_t	t	n/a
583.56	0.09	1167120	keystroke_i	i	n/a
583.83	0.06	1167660	keystroke_t	t	n/a
584.371	0.209	1168742	keystroke_y	y	n/a
584.745	0.0905	1169490	keystroke_Key.space	Key.space	n/a
585.1505	0.09	1170301	keystroke_u	u	n/a
585.301	0.075	1170602	keystroke_s	s	n/a
585.556	0.105	1171112	keystroke_a	a	n/a
586.1555	0.105	1172311	keystroke_g	g	n/a
586.2155	0.12	1172431	keystroke_e	e	n/a
586.5455	0.12	1173091	keystroke_Key.space	Key.space	n/a
586.8605	0.18	1173721	keystroke_r	r	n/a
586.9655	0.09	1173931	keystroke_e	e	n/a
587.416	0.075	1174832	keystroke_q	q	n/a
587.551	0.119	1175102	keystroke_u	u	n/a
588.06	0.06	1176120	keystroke_i	i	n/a
588.18	0.12	1176360	keystroke_r	r	n/a
588.285	0.075	1176570	keystroke_e	e	n/a
588.78	0.06	1177560	keystroke_Key.enter	Key.enter	n/a
588.8535	10.316	1177707	prompt	n/a	charming appraisal systems indicators\n
589.771	0.09	1179542	keystroke_c	c	n/a
589.831	0.135	1179662	keystroke_h	h	n/a
589.966	0.165	1179932	keystroke_a	a	n/a
590.101	0.12	1180202	keystroke_r	r	n/a
590.251	0.135	1180502	keystroke_m	m	n/a
590.431	0.1495	1180862	keystroke_i	i	n/a
590.536	0.1045	1181072	keystroke_n	n	n/a
590.6555	0.105	1181311	keystroke_g	g	n/a
590.7755	0.105	1181551	keystroke_Key.space	Key.space	n/a
591.0005	0.12	1182001	keystroke_a	a	n/a
591.1505	0.075	1182301	keystroke_p	p	n/a
591.33	0.075	1182660	keystroke_p	p	n/a
591.54	0.1055	1183080	keystroke_r	r	n/a
591.6905	0.165	1183381	keystroke_a	a	n/a
591.9605	0.09	1183921	keystroke_i	i	n/a
592.1555	0.075	1184311	keystroke_s	s	n/a
592.5005	0.1505	1185001	keystroke_a	a	n/a
592.666	0.105	1185332	keystroke_l	l	n/a
592.9505	0.1205	1185901	keystroke_Key.space	Key.space	n/a
593.266	0.09	1186532	keystroke_s	s	n/a
593.476	0.045	1186952	keystroke_y	y	n/a
593.626	0.12	1187252	keystroke_s	s	n/a
595.9825	0.058	1191965	keystroke_t	t	n/a
596.0105	0.105	1192021	keystroke_e	e	n/a
596.1605	0.12	1192321	keystroke_m	m	n/a
596.2815	0.104	1192563	keystroke_s	s	n/a
596.8355	0.0895	1193671	keystroke_Key.space	Key.space	n/a
597.06	0.15	1194120	keystroke_i	i	n/a
597.12	0.166	1194240	keystroke_n	n	n/a
597.315	0.105	1194630	keystroke_d	d	n/a
597.465	0.09	1194930	keystroke_i	i	n/a
597.69	0.106	1195380	keystroke_c	c	n/a
597.78	0.121	1195560	keystroke_a	a	n/a
598.021	0.074	1196042	keystroke_t	t	n/a
598.155	0.105	1196310	keystroke_o	o	n/a
598.275	0.09	1196550	keystroke_r	r	n/a
598.756	0.09	1197512	keystroke_s	s	n/a
599.1155	0.045	1198231	keystroke_Key.enter	Key.enter	n/a
599.174	11.6355	1198348	prompt	n/a	conducting diameter knowledge audi\n
599.9855	0.105	1199971	keystroke_c	c	n/a
600.1505	0.195	1200301	keystroke_o	o	n/a
600.2705	0.105	1200541	keystroke_u	u	n/a
600.3605	0.105	1200721	keystroke_n	n	n/a
600.9455	0.06	1201891	keystroke_Key.backspace	Key.backspace	n/a
601.0505	0.09	1202101	keystroke_Key.backspace	Key.backspace	n/a
601.2605	0.105	1202521	keystroke_n	n	n/a
601.4255	0.09	1202851	keystroke_d	d	n/a
601.6055	0.075	1203211	keystroke_u	u	n/a
601.7555	0.105	1203511	keystroke_c	c	n/a
602.1005	0.075	1204201	keystroke_t	t	n/a
602.3405	0.15	1204681	keystroke_i	i	n/a
602.4605	0.135	1204921	keystroke_n	n	n/a
602.5805	0.09	1205161	keystroke_g	g	n/a
602.7455	0.09	1205491	keystroke_Key.space	Key.space	n/a
603.0605	0.12	1206121	keystroke_d	d	n/a
603.2405	0.0605	1206481	keystroke_i	i	n/a
603.361	0.09	1206722	keystroke_a	a	n/a
603.9605	0.075	1207921	keystroke_m	m	n/a
604.0805	0.15	1208161	keystroke_e	e	n/a
604.2155	0.12	1208431	keystroke_t	t	n/a
604.3655	0.09	1208731	keystroke_e	e	n/a
604.4705	0.075	1208941	keystroke_r	r	n/a
604.7255	0.135	1209451	keystroke_Key.space	Key.space	n/a
605.0405	0.135	1210081	keystroke_k	k	n/a
605.2655	0.165	1210531	keystroke_n	n	n/a
605.5655	0.09	1211131	keystroke_o	o	n/a
605.7455	0.075	1211491	keystroke_w	w	n/a
606.1505	0.12	1212301	keystroke_l	l	n/a
606.2855	0.105	1212571	keystroke_e	e	n/a
606.4805	0.15	1212961	keystroke_d	d	n/a
607.0955	0.12	1214191	keystroke_g	g	n/a
607.2605	0.1055	1214521	keystroke_e	e	n/a
607.8755	0.12	1215751	keystroke_Key.space	Key.space	n/a
608.1005	0.135	1216201	keystroke_a	a	n/a
608.3405	0.165	1216681	keystroke_u	u	n/a
608.7455	0.06	1217491	keystroke_i	i	n/a
609.4205	0.105	1218841	keystroke_Key.backspace	Key.backspace	n/a
609.6605	0.105	1219321	keystroke_d	d	n/a
609.7355	0.075	1219471	keystroke_i	i	n/a
610.7555	0.045	1221511	keystroke_Key.enter	Key.enter	n/a
610.814	5.9285	1221628	prompt	n/a	knit command presence while\n
611.446	0.209	1222892	keystroke_k	k	n/a
611.566	0.164	1223132	keystroke_n	n	n/a
611.656	0.119	1223312	keystroke_o	o	n/a
612.046	0.075	1224092	keystroke_Key.backspace	Key.backspace	n/a
612.256	0.075	1224512	keystroke_i	i	n/a
612.391	0.075	1224782	keystroke_t	t	n/a
612.496	0.105	1224992	keystroke_Key.space	Key.space	n/a
612.676	0.105	1225352	keystroke_c	c	n/a
612.826	0.105	1225652	keystroke_o	o	n/a
612.886	0.075	1225772	keystroke_m	m	n/a
613.051	0.105	1226102	keystroke_m	m	n/a
613.171	0.105	1226342	keystroke_a	a	n/a
613.291	0.104	1226582	keystroke_n	n	n/a
613.531	0.09	1227062	keystroke_d	d	n/a
613.68	0.105	1227360	keystroke_Key.space	Key.space	n/a
613.89	0.09	1227780	keystroke_p	p	n/a
614.01	0.135	1228020	keystroke_r	r	n/a
614.115	0.09	1228230	keystroke_e	e	n/a
614.31	0.09	1228620	keystroke_s	s	n/a
614.476	0.0745	1228952	keystroke_e	e	n/a
614.7305	0.12	1229461	keystroke_n	n	n/a
614.971	0.09	1229942	keystroke_c	c	n/a
615.136	0.09	1230272	keystroke_e	e	n/a
615.316	0.089	1230632	keystroke_Key.space	Key.space	n/a
615.616	0.09	1231232	keystroke_w	w	n/a
615.72	0.136	1231440	keystroke_h	h	n/a
615.826	0.105	1231652	keystroke_i	i	n/a
615.976	0.105	1231952	keystroke_l	l	n/a
616.096	0.0745	1232192	keystroke_e	e	n/a
616.6805	0.06	1233361	keystroke_Key.enter	Key.enter	n/a
616.747	6.1305	1233494	prompt	n/a	wedding invitation staying boss\n
617.3855	0.1805	1234771	keystroke_w	w	n/a
617.521	0.06	1235042	keystroke_e	e	n/a
617.731	0.075	1235462	keystroke_d	d	n/a
617.896	0.06	1235792	keystroke_d	d	n/a
617.971	0.15	1235942	keystroke_i	i	n/a
618.106	0.135	1236212	keystroke_n	n	n/a
618.211	0.1045	1236422	keystroke_g	g	n/a
618.3755	0.0895	1236751	keystroke_Key.space	Key.space	n/a
618.72	0.166	1237440	keystroke_i	i	n/a
618.811	0.15	1237622	keystroke_n	n	n/a
619.096	0.09	1238192	keystroke_v	v	n/a
619.231	0.1045	1238462	keystroke_i	i	n/a
619.5005	0.09	1239001	keystroke_t	t	n/a
619.6355	0.1495	1239271	keystroke_a	a	n/a
619.7405	0.0895	1239481	keystroke_t	t	n/a
619.8605	0.27	1239721	keystroke_i	i	n/a
619.98	0.1655	1239960	keystroke_o	o	n/a
620.071	0.1645	1240142	keystroke_n	n	n/a
620.28	0.06	1240560	keystroke_Key.space	Key.space	n/a
620.4905	0.12	1240981	keystroke_s	s	n/a
620.791	0.09	1241582	keystroke_t	t	n/a
620.926	0.15	1241852	keystroke_a	a	n/a
621.151	0.06	1242302	keystroke_y	y	n/a
621.631	0.105	1243262	keystroke_i	i	n/a
621.706	0.12	1243412	keystroke_n	n	n/a
621.841	0.09	1243682	keystroke_g	g	n/a
621.991	0.06	1243982	keystroke_Key.space	Key.space	n/a
622.201	0.12	1244402	keystroke_b	b	n/a
622.29	0.09	1244580	keystroke_o	o	n/a
622.426	0.075	1244852	keystroke_s	s	n/a
622.606	0.075	1245212	keystroke_s	s	n/a
622.801	0.075	1245602	keystroke_Key.enter	Key.enter	n/a
622.88	10.8945	1245760	prompt	n/a	emma movie restructuring stem\n
623.671	0.09	1247342	keystroke_e	e	n/a
623.806	0.06	1247612	keystroke_m	m	n/a
623.941	0.0895	1247882	keystroke_m	m	n/a
624.0455	0.075	1248091	keystroke_a	a	n/a
624.1805	0.09	1248361	keystroke_Key.space	Key.space	n/a
624.3755	0.15	1248751	keystroke_m	m	n/a
624.4805	0.1205	1248961	keystroke_o	o	n/a
624.886	0.09	1249772	keystroke_v	v	n/a
624.976	0.09	1249952	keystroke_i	i	n/a
625.3065	0.119	1250613	keystroke_e	e	n/a
625.6205	0.12	1251241	keystroke_Key.space	Key.space	n/a
626.0255	0.15	1252051	keystroke_r	r	n/a
626.1455	0.045	1252291	keystroke_e	e	n/a
626.3105	0.105	1252621	keystroke_s	s	n/a
626.5955	0.015	1253191	keystroke_t	t	n/a
627.301	0.09	1254602	keystroke_r	r	n/a
628.2755	0.105	1256551	keystroke_u	u	n/a
628.4555	0.105	1256911	keystroke_c	c	n/a
628.7405	0.06	1257481	keystroke_t	t	n/a
628.9805	0.105	1257961	keystroke_u	u	n/a
629.1305	0.12	1258261	keystroke_r	r	n/a
629.2205	0.0905	1258441	keystroke_e	e	n/a
629.371	0.135	1258742	keystroke_i	i	n/a
629.461	0.105	1258922	keystroke_n	n	n/a
629.58	0.075	1259160	keystroke_g	g	n/a
629.7005	0.0905	1259401	keystroke_Key.space	Key.space	n/a
630.1955	0.06	1260391	keystroke_Key.backspace	Key.backspace	n/a
630.3305	0.06	1260661	keystroke_Key.backspace	Key.backspace	n/a
630.4805	0.075	1260961	keystroke_Key.backspace	Key.backspace	n/a
630.6455	0.045	1261291	keystroke_Key.backspace	Key.backspace	n/a
630.81	0.0605	1261620	keystroke_Key.backspace	Key.backspace	n/a
631.2605	0.1205	1262521	keystroke_i	i	n/a
631.336	0.12	1262672	keystroke_n	n	n/a
631.411	0.089	1262822	keystroke_g	g	n/a
631.77	0.076	1263540	keystroke_Key.space	Key.space	n/a
632.146	0.09	1264292	keystroke_s	s	n/a
632.401	0.09	1264802	keystroke_t	t	n/a
632.476	0.1045	1264952	keystroke_e	e	n/a
632.595	0.09	1265190	keystroke_m	m	n/a
633.6755	0.09	1267351	keystroke_Key.enter	Key.enter	n/a
633.779	11.966	1267558	prompt	n/a	adverse graduate sticky entertaining\n
634.4855	0.045	1268971	keystroke_s	s	n/a
635.1905	0.0905	1270381	keystroke_Key.backspace	Key.backspace	n/a
635.416	0.165	1270832	keystroke_a	a	n/a
635.521	0.09	1271042	keystroke_d	d	n/a
635.851	0.15	1271702	keystroke_v	v	n/a
636.091	0.15	1272182	keystroke_e	e	n/a
636.181	0.105	1272362	keystroke_r	r	n/a
636.466	0.075	1272932	keystroke_s	s	n/a
636.6455	0.09	1273291	keystroke_e	e	n/a
636.8255	0.075	1273651	keystroke_Key.space	Key.space	n/a
637.5005	0.045	1275001	keystroke_g	g	n/a
637.8155	0.09	1275631	keystroke_r	r	n/a
638.026	0.105	1276052	keystroke_a	a	n/a
638.371	0.075	1276742	keystroke_d	d	n/a
638.461	0.105	1276922	keystroke_u	u	n/a
639.271	0.0895	1278542	keystroke_a	a	n/a
639.4205	0.12	1278841	keystroke_t	t	n/a
639.5255	0.105	1279051	keystroke_e	e	n/a
639.781	0.135	1279562	keystroke_Key.space	Key.space	n/a
640.036	0.075	1280072	keystroke_s	s	n/a
640.276	0.075	1280552	keystroke_t	t	n/a
640.411	0.075	1280822	keystroke_i	i	n/a
640.501	0.135	1281002	keystroke_c	c	n/a
640.651	0.1045	1281302	keystroke_k	k	n/a
641.1305	0.12	1282261	keystroke_y	y	n/a
641.3855	0.075	1282771	keystroke_Key.space	Key.space	n/a
641.7905	0.075	1283581	keystroke_e	e	n/a
641.9255	0.09	1283851	keystroke_n	n	n/a
642.121	0.075	1284242	keystroke_t	t	n/a
642.241	0.135	1284482	keystroke_e	e	n/a
642.346	0.105	1284692	keystroke_r	r	n/a
642.826	0.045	1285652	keystroke_t	t	n/a
642.976	0.105	1285952	keystroke_a	a	n/a
643.066	0.135	1286132	keystroke_i	i	n/a
643.156	0.105	1286312	keystroke_n	n	n/a
643.3655	0.12	1286731	keystroke_i	i	n/a
643.4555	0.105	1286911	keystroke_n	n	n/a
644.521	0.06	1289042	keystroke_g	g	n/a
645.646	0.09	1291292	keystroke_Key.enter	Key.enter	n/a
645.749	5.8235	1291498	prompt	n/a	entered brook citations pointer\n
646.456	0.105	1292912	keystroke_e	e	n/a
646.591	0.12	1293182	keystroke_n	n	n/a
646.726	0.12	1293452	keystroke_t	t	n/a
646.861	0.15	1293722	keystroke_e	e	n/a
646.966	0.12	1293932	keystroke_r	r	n/a
647.101	0.15	1294202	keystroke_e	e	n/a
647.206	0.135	1294412	keystroke_d	d	n/a
647.386	0.09	1294772	keystroke_Key.space	Key.space	n/a
647.656	0.105	1295312	keystroke_b	b	n/a
647.776	0.09	1295552	keystroke_r	r	n/a
648.106	0.09	1296212	keystroke_o	o	n/a
648.271	0.135	1296542	keystroke_o	o	n/a
648.346	0.12	1296692	keystroke_k	k	n/a
648.6755	0.015	1297351	keystroke_Key.space	Key.space	n/a
648.8855	0.105	1297771	keystroke_c	c	n/a
649.0365	0.089	1298073	keystroke_i	i	n/a
649.2305	0.075	1298461	keystroke_t	t	n/a
649.3805	0.15	1298761	keystroke_a	a	n/a
649.4865	0.09	1298973	keystroke_t	t	n/a
649.5915	0.2395	1299183	keystroke_i	i	n/a
649.696	0.165	1299392	keystroke_o	o	n/a
649.771	0.15	1299542	keystroke_n	n	n/a
649.936	0.105	1299872	keystroke_s	s	n/a
650.101	0.075	1300202	keystroke_Key.space	Key.space	n/a
650.2655	0.165	1300531	keystroke_p	p	n/a
650.3705	0.105	1300741	keystroke_o	o	n/a
650.5955	0.1205	1301191	keystroke_i	i	n/a
650.686	0.12	1301372	keystroke_n	n	n/a
650.806	0.075	1301612	keystroke_t	t	n/a
650.911	0.12	1301822	keystroke_e	e	n/a
650.986	0.135	1301972	keystroke_r	r	n/a
651.481	0.0895	1302962	keystroke_Key.enter	Key.enter	n/a
651.575	8.285	1303150	prompt	n/a	shake landscape teens amino\n
652.2755	0.09	1304551	keystroke_s	s	n/a
652.4105	0.12	1304821	keystroke_h	h	n/a
652.5315	0.074	1305063	keystroke_a	a	n/a
652.711	0.09	1305422	keystroke_k	k	n/a
652.8455	0.0755	1305691	keystroke_e	e	n/a
652.9805	0.075	1305961	keystroke_Key.space	Key.space	n/a
653.2805	0.0905	1306561	keystroke_l	l	n/a
653.416	0.075	1306832	keystroke_a	a	n/a
653.536	0.09	1307072	keystroke_n	n	n/a
653.626	0.105	1307252	keystroke_d	d	n/a
653.971	0.075	1307942	keystroke_s	s	n/a
654.166	0.12	1308332	keystroke_c	c	n/a
654.4805	0.105	1308961	keystroke_a	a	n/a
654.811	0.09	1309622	keystroke_p	p	n/a
654.916	0.075	1309832	keystroke_e	e	n/a
655.111	0.09	1310222	keystroke_Key.space	Key.space	n/a
655.786	0.135	1311572	keystroke_t	t	n/a
655.936	0.075	1311872	keystroke_e	e	n/a
656.086	0.09	1312172	keystroke_e	e	n/a
656.281	0.105	1312562	keystroke_n	n	n/a
656.8655	0.105	1313731	keystroke_s	s	n/a
