onset	duration	sample	value	key	prompt_text
8.804	13.0875	17608	prompt	n/a	the quick brown fox jumps over a lazy dog\n
13.9255	0.012	27851	keystroke_t	t	n/a
13.9525	0.0605	27905	keystroke_h	h	n/a
14.0275	0.09	28055	keystroke_e	e	n/a
14.1325	0.075	28265	keystroke_Key.space	Key.space	n/a
14.2525	0.09	28505	keystroke_q	q	n/a
14.3425	0.0905	28685	keystroke_u	u	n/a
14.3575	0.0605	28715	keystroke_y	y	n/a
14.403	0.075	28806	keystroke_i	i	n/a
14.508	0.09	29016	keystroke_c	c	n/a
14.628	0.075	29256	keystroke_k	k	n/a
15.002	0.0765	30004	keystroke_Key.backspace	Key.backspace	n/a
15.1375	0.075	30275	keystroke_Key.backspace	Key.backspace	n/a
15.288	0.0895	30576	keystroke_Key.backspace	Key.backspace	n/a
15.453	0.075	30906	keystroke_Key.backspace	Key.backspace	n/a
15.723	0.0595	31446	keystroke_i	i	n/a
15.888	0.0595	31776	keystroke_c	c	n/a
15.9325	0.105	31865	keystroke_k	k	n/a
16.143	0.0745	32286	keystroke_Key.space	Key.space	n/a
16.338	0.03	32676	keystroke_b	b	n/a
16.488	0.1505	32976	keystroke_o	o	n/a
16.5625	0.091	33125	keystroke_r	r	n/a
17.0275	0.075	34055	keystroke_Key.backspace	Key.backspace	n/a
17.1325	0.09	34265	keystroke_Key.backspace	Key.backspace	n/a
17.2675	0.061	34535	keystroke_r	r	n/a
17.598	0.0755	35196	keystroke_o	o	n/a
17.7475	0.075	35495	keystroke_w	w	n/a
17.898	0.06	35796	keystroke_n	n	n/a
17.928	0.09	35856	keystroke_Key.space	Key.space	n/a
18.123	0.075	36246	keystroke_f	f	n/a
18.183	0.0905	36366	keystroke_o	o	n/a
18.3185	0.15	36637	keystroke_x	x	n/a
18.528	0.06	37056	keystroke_Key.space	Key.space	n/a
18.768	0.045	37536	keystroke_j	j	n/a
18.948	0.06	37896	keystroke_u	u	n/a
19.143	0.12	38286	keystroke_m	m	n/a
19.2335	0.0895	38467	keystroke_p	p	n/a
19.428	0.06	38856	keystroke_s	s	n/a
19.518	0.09	39036	keystroke_Key.space	Key.space	n/a
19.593	0.09	39186	keystroke_o	o	n/a
19.728	0.1205	39456	keystroke_v	v	n/a
19.788	0.105	39576	keystroke_e	e	n/a
19.8635	0.0895	39727	keystroke_r	r	n/a
19.968	0.06	39936	keystroke_Key.space	Key.space	n/a
20.163	0.09	40326	keystroke_a	a	n/a
20.298	0.089	40596	keystroke_Key.space	Key.space	n/a
20.508	0.1055	41016	keystroke_l	l	n/a
20.6435	0.089	41287	keystroke_a	a	n/a
20.8535	0.105	41707	keystroke_z	z	n/a
21.0335	0.0595	42067	keystroke_y	y	n/a
21.123	0.075	42246	keystroke_Key.space	Key.space	n/a
21.258	0.06	42516	keystroke_d	d	n/a
21.348	0.0905	42696	keystroke_o	o	n/a
21.467	0.061	42934	keystroke_g	g	n/a
21.813	0.075	43626	keystroke_Key.enter	Key.enter	n/a
21.8965	8.6785	43793	prompt	n/a	initial idaho algorithm unfortunately\n
22.863	0.12	45726	keystroke_i	i	n/a
22.997	0.016	45994	keystroke_n	n	n/a
23.0285	0.0445	46057	keystroke_i	i	n/a
23.103	0.06	46206	keystroke_t	t	n/a
23.193	0.12	46386	keystroke_i	i	n/a
23.6275	0.165	47255	keystroke_a	a	n/a
23.838	0.0595	47676	keystroke_l	l	n/a
23.958	0.1045	47916	keystroke_Key.space	Key.space	n/a
24.288	0.0595	48576	keystroke_i	i	n/a
24.3625	0.06	48725	keystroke_d	d	n/a
24.4525	0.1205	48905	keystroke_a	a	n/a
24.6335	0.06	49267	keystroke_o	o	n/a
24.963	0.045	49926	keystroke_Key.backspace	Key.backspace	n/a
25.158	0.105	50316	keystroke_h	h	n/a
25.218	0.09	50436	keystroke_o	o	n/a
25.383	0.075	50766	keystroke_Key.space	Key.space	n/a
25.5775	0.106	51155	keystroke_a	a	n/a
25.697	0.0765	51394	keystroke_l	l	n/a
26.643	0.105	53286	keystroke_g	g	n/a
26.8085	0.1195	53617	keystroke_o	o	n/a
27.3785	0.0745	54757	keystroke_r	r	n/a
27.498	0.075	54996	keystroke_i	i	n/a
27.708	0.0295	55416	keystroke_t	t	n/a
27.783	0.075	55566	keystroke_h	h	n/a
28.023	0.075	56046	keystroke_m	m	n/a
28.098	0.075	56196	keystroke_Key.space	Key.space	n/a
28.3375	0.0605	56675	keystroke_u	u	n/a
28.5035	0.075	57007	keystroke_n	n	n/a
28.833	0.0455	57666	keystroke_f	f	n/a
29.087	0.0915	58174	keystroke_o	o	n/a
29.2085	0.0445	58417	keystroke_r	r	n/a
29.3435	0.075	58687	keystroke_t	t	n/a
29.4785	0.06	58957	keystroke_u	u	n/a
29.644	0.0585	59288	keystroke_n	n	n/a
29.7325	0.121	59465	keystroke_a	a	n/a
29.793	0.09	59586	keystroke_t	t	n/a
29.898	0.091	59796	keystroke_e	e	n/a
30.018	0.09	60036	keystroke_l	l	n/a
30.123	0.06	60246	keystroke_y	y	n/a
30.4825	0.0905	60965	keystroke_Key.enter	Key.enter	n/a
30.588	6.482	61176	prompt	n/a	instrumentation weed owen companion\n
31.3085	0.0745	62617	keystroke_i	i	n/a
31.3375	0.075	62675	keystroke_n	n	n/a
31.4435	0.165	62887	keystroke_s	s	n/a
31.548	0.09	63096	keystroke_t	t	n/a
31.698	0.0745	63396	keystroke_r	r	n/a
31.818	0.0605	63636	keystroke_u	u	n/a
32.013	0.075	64026	keystroke_m	m	n/a
32.148	0.105	64296	keystroke_e	e	n/a
32.313	0.075	64626	keystroke_n	n	n/a
32.448	0.06	64896	keystroke_t	t	n/a
32.538	0.12	65076	keystroke_a	a	n/a
32.6285	0.0745	65257	keystroke_t	t	n/a
32.7185	0.1045	65437	keystroke_i	i	n/a
32.7485	0.09	65497	keystroke_o	o	n/a
32.7935	0.0895	65587	keystroke_n	n	n/a
33.168	0.075	66336	keystroke_Key.space	Key.space	n/a
33.303	0.06	66606	keystroke_w	w	n/a
33.468	0.075	66936	keystroke_e	e	n/a
33.648	0.119	67296	keystroke_e	e	n/a
33.738	0.0755	67476	keystroke_d	d	n/a
34.1285	0.0895	68257	keystroke_Key.space	Key.space	n/a
34.278	0.105	68556	keystroke_o	o	n/a
34.413	0.1055	68826	keystroke_w	w	n/a
34.563	0.075	69126	keystroke_n	n	n/a
34.684	0.044	69368	keystroke_e	e	n/a
35.118	0.045	70236	keystroke_Key.backspace	Key.backspace	n/a
35.223	0.0895	70446	keystroke_Key.backspace	Key.backspace	n/a
35.373	0.09	70746	keystroke_e	e	n/a
35.5075	0.06	71015	keystroke_n	n	n/a
35.5375	0.0755	71075	keystroke_Key.space	Key.space	n/a
35.6575	0.105	71315	keystroke_c	c	n/a
35.778	0.1205	71556	keystroke_o	o	n/a
35.8535	0.089	71707	keystroke_m	m	n/a
35.9585	0.09	71917	keystroke_p	p	n/a
36.1235	0.105	72247	keystroke_a	a	n/a
36.2585	0.09	72517	keystroke_n	n	n/a
36.4385	0.12	72877	keystroke_i	i	n/a
36.5125	0.091	73025	keystroke_o	o	n/a
36.588	0.075	73176	keystroke_n	n	n/a
37.023	0.045	74046	keystroke_Key.enter	Key.enter	n/a
37.0765	4.7635	74153	prompt	n/a	intro sending respect fixes\n
37.744	0.089	75488	keystroke_i	i	n/a
37.788	0.075	75576	keystroke_n	n	n/a
37.923	0.0755	75846	keystroke_t	t	n/a
38.0735	0.091	76147	keystroke_r	r	n/a
38.1485	0.1055	76297	keystroke_o	o	n/a
38.2975	0.0905	76595	keystroke_Key.space	Key.space	n/a
38.463	0.075	76926	keystroke_s	s	n/a
38.9135	0.0895	77827	keystroke_e	e	n/a
39.1085	0.0745	78217	keystroke_n	n	n/a
39.198	0.105	78396	keystroke_d	d	n/a
39.363	0.09	78726	keystroke_i	i	n/a
39.393	0.105	78786	keystroke_n	n	n/a
39.484	0.09	78968	keystroke_g	g	n/a
39.633	0.09	79266	keystroke_Key.space	Key.space	n/a
39.843	0.09	79686	keystroke_r	r	n/a
39.904	0.104	79808	keystroke_e	e	n/a
40.039	0.134	80078	keystroke_s	s	n/a
40.203	0.075	80406	keystroke_p	p	n/a
40.2935	0.1495	80587	keystroke_e	e	n/a
40.398	0.06	80796	keystroke_c	c	n/a
40.578	0.06	81156	keystroke_t	t	n/a
40.6985	0.0595	81397	keystroke_Key.space	Key.space	n/a
40.834	0.089	81668	keystroke_f	f	n/a
41.0885	0.06	82177	keystroke_i	i	n/a
41.1495	0.164	82299	keystroke_x	x	n/a
41.4335	0.089	82867	keystroke_e	e	n/a
41.6135	0.1195	83227	keystroke_s	s	n/a
41.778	0.06	83556	keystroke_Key.enter	Key.enter	n/a
41.845	5.1695	83690	prompt	n/a	further high kerry gasoline\n
42.4685	0.06	84937	keystroke_f	f	n/a
42.5885	0.03	85177	keystroke_u	u	n/a
42.6625	0.061	85325	keystroke_r	r	n/a
42.7985	0.075	85597	keystroke_t	t	n/a
42.903	0.09	85806	keystroke_h	h	n/a
42.978	0.09	85956	keystroke_e	e	n/a
43.0385	0.075	86077	keystroke_r	r	n/a
43.1285	0.0745	86257	keystroke_Key.space	Key.space	n/a
43.4135	0.0595	86827	keystroke_h	h	n/a
43.4435	0.09	86887	keystroke_i	i	n/a
43.548	0.0605	87096	keystroke_g	g	n/a
43.623	0.0905	87246	keystroke_h	h	n/a
43.728	0.09	87456	keystroke_Key.space	Key.space	n/a
44.088	0.06	88176	keystroke_k	k	n/a
44.194	0.059	88388	keystroke_e	e	n/a
44.328	0.091	88656	keystroke_e	e	n/a
44.403	0.075	88806	keystroke_r	r	n/a
44.703	0.045	89406	keystroke_Key.backspace	Key.backspace	n/a
44.823	0.075	89646	keystroke_Key.backspace	Key.backspace	n/a
44.9735	0.0595	89947	keystroke_r	r	n/a
45.123	0.0605	90246	keystroke_r	r	n/a
45.2285	0.06	90457	keystroke_y	y	n/a
45.2585	0.075	90517	keystroke_Key.space	Key.space	n/a
45.4975	0.091	90995	keystroke_g	g	n/a
45.6185	0.149	91237	keystroke_a	a	n/a
45.7085	0.1195	91417	keystroke_s	s	n/a
46.008	0.09	92016	keystroke_o	o	n/a
46.3225	0.136	92645	keystroke_l	l	n/a
46.4275	0.075	92855	keystroke_i	i	n/a
46.548	0.06	93096	keystroke_n	n	n/a
46.788	0.015	93576	keystroke_e	e	n/a
46.938	0.075	93876	keystroke_Key.enter	Key.enter	n/a
47.0235	6.7425	94047	prompt	n/a	terrorism lopez dynamics vehicles\n
47.763	0.06	95526	keystroke_t	t	n/a
47.928	0.09	95856	keystroke_e	e	n/a
47.9735	0.09	95947	keystroke_r	r	n/a
48.1385	0.0595	96277	keystroke_r	r	n/a
48.303	0.09	96606	keystroke_o	o	n/a
48.498	0.06	96996	keystroke_r	r	n/a
48.603	0.06	97206	keystroke_i	i	n/a
48.693	0.09	97386	keystroke_s	s	n/a
48.8575	0.046	97715	keystroke_m	m	n/a
49.0525	0.061	98105	keystroke_Key.space	Key.space	n/a
49.2325	0.0755	98465	keystroke_l	l	n/a
49.4275	0.09	98855	keystroke_o	o	n/a
49.623	0.0295	99246	keystroke_p	p	n/a
49.789	0.0745	99578	keystroke_e	e	n/a
50.1635	0.1195	100327	keystroke_z	z	n/a
50.403	0.0605	100806	keystroke_Key.space	Key.space	n/a
50.5835	0.075	101167	keystroke_d	d	n/a
50.8375	0.06	101675	keystroke_y	y	n/a
51.3325	0.06	102665	keystroke_n	n	n/a
51.5275	0.106	103055	keystroke_a	a	n/a
51.6635	0.12	103327	keystroke_m	m	n/a
51.7385	0.09	103477	keystroke_i	i	n/a
51.8425	0.106	103685	keystroke_c	c	n/a
51.993	0.1055	103986	keystroke_s	s	n/a
52.1575	0.0455	104315	keystroke_Key.space	Key.space	n/a
52.428	0.0745	104856	keystroke_v	v	n/a
52.5175	0.1205	105035	keystroke_e	e	n/a
52.713	0.075	105426	keystroke_h	h	n/a
52.773	0.06	105546	keystroke_i	i	n/a
52.953	0.105	105906	keystroke_c	c	n/a
53.238	0.0605	106476	keystroke_l	l	n/a
53.343	0.1205	106686	keystroke_e	e	n/a
53.538	0.105	107076	keystroke_s	s	n/a
53.688	0.0745	107376	keystroke_Key.enter	Key.enter	n/a
53.7715	5.618	107543	prompt	n/a	schedule auburn camp athletes\n
54.408	0.1345	108816	keystroke_s	s	n/a
54.483	0.09	108966	keystroke_c	c	n/a
54.6025	0.045	109205	keystroke_h	h	n/a
54.6625	0.1205	109325	keystroke_e	e	n/a
54.753	0.105	109506	keystroke_d	d	n/a
54.859	0.089	109718	keystroke_u	u	n/a
54.963	0.045	109926	keystroke_l	l	n/a
55.053	0.06	110106	keystroke_e	e	n/a
55.6385	0.0895	111277	keystroke_Key.space	Key.space	n/a
55.893	0.075	111786	keystroke_a	a	n/a
56.133	0.06	112266	keystroke_u	u	n/a
56.3735	0.0595	112747	keystroke_b	b	n/a
56.5835	0.0445	113167	keystroke_u	u	n/a
56.7185	0.0455	113437	keystroke_r	r	n/a
56.868	0.075	113736	keystroke_n	n	n/a
57.063	0.0905	114126	keystroke_Key.space	Key.space	n/a
57.229	0.134	114458	keystroke_c	c	n/a
57.333	0.09	114666	keystroke_a	a	n/a
57.438	0.075	114876	keystroke_m	m	n/a
57.483	0.0755	114966	keystroke_p	p	n/a
57.633	0.09	115266	keystroke_Key.space	Key.space	n/a
57.9335	0.1045	115867	keystroke_a	a	n/a
58.008	0.09	116016	keystroke_t	t	n/a
58.143	0.045	116286	keystroke_h	h	n/a
58.278	0.0595	116556	keystroke_l	l	n/a
58.3975	0.0605	116795	keystroke_e	e	n/a
58.548	0.075	117096	keystroke_t	t	n/a
58.6375	0.151	117275	keystroke_e	e	n/a
58.8785	0.06	117757	keystroke_s	s	n/a
59.3135	0.074	118627	keystroke_Key.enter	Key.enter	n/a
59.397	14.813	118794	prompt	n/a	wrist destinations that're fragrance\n
60.0335	0.12	120067	keystroke_w	w	n/a
60.1685	0.0455	120337	keystroke_r	r	n/a
60.229	0.0745	120458	keystroke_i	i	n/a
60.4825	0.166	120965	keystroke_s	s	n/a
60.558	0.0605	121116	keystroke_t	t	n/a
60.708	0.0745	121416	keystroke_Key.space	Key.space	n/a
60.8575	0.1665	121715	keystroke_d	d	n/a
61.0385	0.03	122077	keystroke_e	e	n/a
61.473	0.135	122946	keystroke_s	s	n/a
61.548	0.061	123096	keystroke_t	t	n/a
61.714	0.0595	123428	keystroke_r	r	n/a
62.1325	0.045	124265	keystroke_Key.backspace	Key.backspace	n/a
62.343	0.06	124686	keystroke_i	i	n/a
62.373	0.1055	124746	keystroke_n	n	n/a
62.5675	0.03	125135	keystroke_t	t	n/a
62.628	0.1055	125256	keystroke_a	a	n/a
62.734	0.0595	125468	keystroke_t	t	n/a
62.8385	0.1045	125677	keystroke_i	i	n/a
62.868	0.1205	125736	keystroke_o	o	n/a
62.9135	0.09	125827	keystroke_n	n	n/a
63.0485	0.03	126097	keystroke_s	s	n/a
63.1675	0.045	126335	keystroke_Key.space	Key.space	n/a
63.393	0.06	126786	keystroke_t	t	n/a
63.4985	0.0595	126997	keystroke_h	h	n/a
63.5885	0.0745	127177	keystroke_a	a	n/a
63.6335	0.0745	127267	keystroke_t	t	n/a
63.813	0.046	127626	keystroke_'	'	n/a
64.053	0.061	128106	keystroke_r	r	n/a
64.083	0.075	128166	keystroke_e	e	n/a
64.383	0.045	128766	keystroke_Key.space	Key.space	n/a
64.488	0.06	128976	keystroke_f	f	n/a
64.6385	0.0755	129277	keystroke_r	r	n/a
64.774	0.014	129548	keystroke_a	a	n/a
65.103	0.045	130206	keystroke_g	g	n/a
66.6175	0.03	133235	keystroke_Key.backspace	Key.backspace	n/a
66.8735	0.0745	133747	keystroke_Key.backspace	Key.backspace	n/a
67.098	0.03	134196	keystroke_Key.backspace	Key.backspace	n/a
67.173	0.0605	134346	keystroke_Key.backspace	Key.backspace	n/a
67.3085	0.0595	134617	keystroke_Key.backspace	Key.backspace	n/a
67.458	0.0605	134916	keystroke_Key.backspace	Key.backspace	n/a
67.593	0.06	135186	keystroke_Key.backspace	Key.backspace	n/a
67.743	0.045	135486	keystroke_Key.backspace	Key.backspace	n/a
67.878	0.0445	135756	keystroke_Key.backspace	Key.backspace	n/a
68.013	0.0755	136026	keystroke_Key.backspace	Key.backspace	n/a
68.163	0.0605	136326	keystroke_Key.backspace	Key.backspace	n/a
68.328	0.0595	136656	keystroke_Key.backspace	Key.backspace	n/a
68.4775	0.061	136955	keystroke_Key.backspace	Key.backspace	n/a
68.628	0.0595	137256	keystroke_Key.backspace	Key.backspace	n/a
68.793	0.0455	137586	keystroke_Key.backspace	Key.backspace	n/a
68.928	0.0605	137856	keystroke_Key.backspace	Key.backspace	n/a
69.048	0.075	138096	keystroke_Key.backspace	Key.backspace	n/a
69.1985	0.0595	138397	keystroke_Key.backspace	Key.backspace	n/a
69.333	0.09	138666	keystroke_Key.backspace	Key.backspace	n/a
69.498	0.09	138996	keystroke_Key.backspace	Key.backspace	n/a
69.768	0.1195	139536	keystroke_a	a	n/a
69.8575	0.09	139715	keystroke_t	t	n/a
70.0375	0.12	140075	keystroke_i	i	n/a
70.0525	0.15	140105	keystroke_o	o	n/a
70.1135	0.105	140227	keystroke_n	n	n/a
70.2475	0.105	140495	keystroke_s	s	n/a
70.383	0.0745	140766	keystroke_Key.space	Key.space	n/a
70.4875	0.06	140975	keystroke_t	t	n/a
70.5625	0.075	141125	keystroke_h	h	n/a
70.6525	0.075	141305	keystroke_a	a	n/a
70.6975	0.06	141395	keystroke_t	t	n/a
70.7725	0.075	141545	keystroke_Key.space	Key.space	n/a
70.9225	0.075	141845	keystroke_a	a	n/a
71.358	0.0295	142716	keystroke_Key.backspace	Key.backspace	n/a
71.463	0.0745	142926	keystroke_Key.backspace	Key.backspace	n/a
71.7475	0.061	143495	keystroke_'	'	n/a
71.9575	0.09	143915	keystroke_r	r	n/a
72.0175	0.105	144035	keystroke_e	e	n/a
72.2275	0.0755	144455	keystroke_Key.space	Key.space	n/a
72.3625	0.0905	144725	keystroke_f	f	n/a
72.513	0.075	145026	keystroke_r	r	n/a
72.633	0.105	145266	keystroke_a	a	n/a
72.873	0.015	145746	keystroke_g	g	n/a
73.443	0.075	146886	keystroke_r	r	n/a
73.533	0.075	147066	keystroke_a	a	n/a
73.713	0.0455	147426	keystroke_n	n	n/a
73.773	0.1355	147546	keystroke_c	c	n/a
73.8785	0.06	147757	keystroke_e	e	n/a
74.1475	0.0605	148295	keystroke_Key.enter	Key.enter	n/a
74.216	7.1635	148432	prompt	n/a	norm hired adventure supplement\n
74.9275	0.0605	149855	keystroke_n	n	n/a
74.989	0.119	149978	keystroke_o	o	n/a
75.1535	0.045	150307	keystroke_r	r	n/a
75.3185	0.045	150637	keystroke_m	m	n/a
75.4225	0.091	150845	keystroke_Key.space	Key.space	n/a
75.6325	0.061	151265	keystroke_h	h	n/a
75.6785	0.074	151357	keystroke_i	i	n/a
75.798	0.1055	151596	keystroke_r	r	n/a
75.873	0.0895	151746	keystroke_e	e	n/a
76.038	0.1205	152076	keystroke_d	d	n/a
76.1735	0.06	152347	keystroke_Key.space	Key.space	n/a
76.338	0.1355	152676	keystroke_a	a	n/a
76.4745	0.029	152949	keystroke_f	f	n/a
76.6085	0.045	153217	keystroke_d	d	n/a
76.997	0.0455	153994	keystroke_Key.backspace	Key.backspace	n/a
77.118	0.06	154236	keystroke_Key.backspace	Key.backspace	n/a
77.2235	0.0745	154447	keystroke_d	d	n/a
77.373	0.075	154746	keystroke_v	v	n/a
77.4335	0.0895	154867	keystroke_e	e	n/a
77.613	0.045	155226	keystroke_n	n	n/a
77.778	0.045	155556	keystroke_u	u	n/a
77.808	0.06	155616	keystroke_t	t	n/a
78.0185	0.09	156037	keystroke_r	r	n/a
78.078	0.0755	156156	keystroke_e	e	n/a
78.3625	0.045	156725	keystroke_Key.backspace	Key.backspace	n/a
78.4975	0.045	156995	keystroke_Key.backspace	Key.backspace	n/a
78.6175	0.06	157235	keystroke_Key.backspace	Key.backspace	n/a
78.753	0.0595	157506	keystroke_Key.backspace	Key.backspace	n/a
78.8725	0.061	157745	keystroke_t	t	n/a
78.9785	0.06	157957	keystroke_u	u	n/a
79.0835	0.089	158167	keystroke_r	r	n/a
79.1435	0.074	158287	keystroke_e	e	n/a
79.248	0.06	158496	keystroke_Key.space	Key.space	n/a
79.458	0.0905	158916	keystroke_s	s	n/a
79.624	0.044	159248	keystroke_u	u	n/a
79.7885	0.09	159577	keystroke_p	p	n/a
79.9235	0.2095	159847	keystroke_p	p	n/a
80.449	0.074	160898	keystroke_l	l	n/a
80.6135	0.0595	161227	keystroke_e	e	n/a
80.779	0.029	161558	keystroke_m	m	n/a
80.8985	0.0605	161797	keystroke_e	e	n/a
80.974	0.059	161948	keystroke_n	n	n/a
81.123	0.06	162246	keystroke_t	t	n/a
81.303	0.0745	162606	keystroke_Key.enter	Key.enter	n/a
81.387	4.8675	162774	prompt	n/a	latina approval keeping blonde\n
82.024	0.0595	164048	keystroke_l	l	n/a
82.114	0.104	164228	keystroke_a	a	n/a
82.233	0.031	164466	keystroke_t	t	n/a
82.368	0.09	164736	keystroke_i	i	n/a
82.443	0.045	164886	keystroke_n	n	n/a
82.548	0.075	165096	keystroke_a	a	n/a
82.698	0.075	165396	keystroke_Key.space	Key.space	n/a
82.923	0.09	165846	keystroke_a	a	n/a
83.058	0.0605	166116	keystroke_p	p	n/a
83.2235	0.06	166447	keystroke_p	p	n/a
83.357	0.046	166714	keystroke_r	r	n/a
83.448	0.0605	166896	keystroke_o	o	n/a
83.523	0.09	167046	keystroke_v	v	n/a
83.6275	0.09	167255	keystroke_a	a	n/a
83.7325	0.091	167465	keystroke_l	l	n/a
83.8835	0.075	167767	keystroke_Key.space	Key.space	n/a
84.0935	0.045	168187	keystroke_k	k	n/a
84.1985	0.045	168397	keystroke_e	e	n/a
84.3185	0.06	168637	keystroke_e	e	n/a
84.3785	0.09	168757	keystroke_p	p	n/a
84.5135	0.1205	169027	keystroke_i	i	n/a
84.5875	0.061	169175	keystroke_n	n	n/a
84.7085	0.0745	169417	keystroke_g	g	n/a
84.828	0.0755	169656	keystroke_Key.space	Key.space	n/a
85.0375	0.046	170075	keystroke_b	b	n/a
85.1435	0.06	170287	keystroke_l	l	n/a
85.3235	0.12	170647	keystroke_o	o	n/a
85.4435	0.075	170887	keystroke_n	n	n/a
85.5935	0.1355	171187	keystroke_d	d	n/a
85.698	0.1205	171396	keystroke_e	e	n/a
86.193	0.06	172386	keystroke_Key.enter	Key.enter	n/a
86.2585	7.1205	172517	prompt	n/a	ruling creativity segments kiss\n
86.9285	0.045	173857	keystroke_r	r	n/a
87.0035	0.06	174007	keystroke_u	u	n/a
87.1685	0.15	174337	keystroke_l	l	n/a
87.2735	0.105	174547	keystroke_i	i	n/a
87.3485	0.0445	174697	keystroke_n	n	n/a
87.513	0.06	175026	keystroke_g	g	n/a
87.618	0.06	175236	keystroke_Key.space	Key.space	n/a
87.783	0.06	175566	keystroke_c	c	n/a
87.963	0.091	175926	keystroke_r	r	n/a
88.023	0.1355	176046	keystroke_e	e	n/a
88.3235	0.075	176647	keystroke_t	t	n/a
88.4285	0.09	176857	keystroke_a	a	n/a
88.7275	0.03	177455	keystroke_Key.backspace	Key.backspace	n/a
88.833	0.075	177666	keystroke_Key.backspace	Key.backspace	n/a
88.9235	0.0895	177847	keystroke_a	a	n/a
88.9985	0.06	177997	keystroke_t	t	n/a
89.118	0.06	178236	keystroke_i	i	n/a
89.3135	0.045	178627	keystroke_v	v	n/a
89.4335	0.074	178867	keystroke_i	i	n/a
89.5685	0.0445	179137	keystroke_t	t	n/a
89.6135	0.045	179227	keystroke_i	i	n/a
90.018	0.06	180036	keystroke_Key.backspace	Key.backspace	n/a
90.3335	0.0745	180667	keystroke_y	y	n/a
90.423	0.045	180846	keystroke_Key.space	Key.space	n/a
90.6335	0.06	181267	keystroke_s	s	n/a
90.7975	0.06	181595	keystroke_e	e	n/a
90.9635	0.045	181927	keystroke_g	g	n/a
91.3235	0.105	182647	keystroke_e	e	n/a
91.4885	0.03	182977	keystroke_m	m	n/a
91.758	0.03	183516	keystroke_Key.backspace	Key.backspace	n/a
91.878	0.045	183756	keystroke_Key.backspace	Key.backspace	n/a
92.043	0.06	184086	keystroke_m	m	n/a
92.148	0.075	184296	keystroke_e	e	n/a
92.238	0.076	184476	keystroke_n	n	n/a
92.373	0.0755	184746	keystroke_t	t	n/a
92.4185	0.089	184837	keystroke_s	s	n/a
92.538	0.06	185076	keystroke_Key.space	Key.space	n/a
92.7185	0.06	185437	keystroke_k	k	n/a
92.8535	0.059	185707	keystroke_i	i	n/a
92.9585	0.075	185917	keystroke_s	s	n/a
93.1075	0.105	186215	keystroke_s	s	n/a
93.3335	0.044	186667	keystroke_Key.enter	Key.enter	n/a
93.3855	4.254	186771	prompt	n/a	summer budget feet penny\n
93.9485	0.09	187897	keystroke_s	s	n/a
94.0685	0.0595	188137	keystroke_u	u	n/a
94.2785	0.0595	188557	keystroke_m	m	n/a
94.3985	0.045	188797	keystroke_m	m	n/a
94.5035	0.1045	189007	keystroke_e	e	n/a
94.5635	0.059	189127	keystroke_r	r	n/a
94.6675	0.0605	189335	keystroke_Key.space	Key.space	n/a
95.0135	0.0595	190027	keystroke_b	b	n/a
95.118	0.045	190236	keystroke_u	u	n/a
95.193	0.076	190386	keystroke_d	d	n/a
95.343	0.06	190686	keystroke_g	g	n/a
95.418	0.0605	190836	keystroke_e	e	n/a
95.5385	0.0595	191077	keystroke_t	t	n/a
95.703	0.0455	191406	keystroke_Key.space	Key.space	n/a
95.883	0.045	191766	keystroke_f	f	n/a
95.958	0.091	191916	keystroke_e	e	n/a
96.108	0.106	192216	keystroke_e	e	n/a
96.289	0.06	192578	keystroke_t	t	n/a
96.468	0.06	192936	keystroke_Key.space	Key.space	n/a
96.738	0.06	193476	keystroke_p	p	n/a
96.874	0.059	193748	keystroke_e	e	n/a
97.008	0.06	194016	keystroke_n	n	n/a
97.1425	0.0605	194285	keystroke_n	n	n/a
97.338	0.0455	194676	keystroke_y	y	n/a
97.578	0.06	195156	keystroke_Key.enter	Key.enter	n/a
97.6445	9.9855	195289	prompt	n/a	prevent valve beijing confidential\n
98.313	0.0755	196626	keystroke_p	p	n/a
98.4185	0.06	196837	keystroke_r	r	n/a
98.4635	0.074	196927	keystroke_e	e	n/a
98.5975	0.106	197195	keystroke_v	v	n/a
98.6875	0.091	197375	keystroke_e	e	n/a
98.8235	0.06	197647	keystroke_n	n	n/a
98.9435	0.045	197887	keystroke_t	t	n/a
99.0325	0.0605	198065	keystroke_Key.space	Key.space	n/a
99.3035	0.12	198607	keystroke_v	v	n/a
99.3785	0.105	198757	keystroke_a	a	n/a
99.5125	0.061	199025	keystroke_l	l	n/a
99.6485	0.09	199297	keystroke_v	v	n/a
99.8135	0.06	199627	keystroke_e	e	n/a
100.0075	0.0755	200015	keystroke_Key.space	Key.space	n/a
100.264	0.044	200528	keystroke_b	b	n/a
100.353	0.075	200706	keystroke_a	a	n/a
100.788	0.0295	201576	keystroke_Key.backspace	Key.backspace	n/a
101.0125	0.0455	202025	keystroke_e	e	n/a
101.313	0.09	202626	keystroke_i	i	n/a
101.748	0.076	203496	keystroke_j	j	n/a
101.899	0.075	203798	keystroke_i	i	n/a
101.989	0.0585	203978	keystroke_n	n	n/a
102.243	0.0445	204486	keystroke_g	g	n/a
102.3475	0.045	204695	keystroke_Key.space	Key.space	n/a
102.5885	0.059	205177	keystroke_c	c	n/a
102.633	0.09	205266	keystroke_o	o	n/a
102.6925	0.076	205385	keystroke_n	n	n/a
103.383	0.06	206766	keystroke_Key.backspace	Key.backspace	n/a
103.518	0.06	207036	keystroke_Key.backspace	Key.backspace	n/a
103.637	0.0605	207274	keystroke_Key.backspace	Key.backspace	n/a
103.7575	0.0605	207515	keystroke_Key.backspace	Key.backspace	n/a
103.893	0.075	207786	keystroke_Key.backspace	Key.backspace	n/a
104.028	0.06	208056	keystroke_Key.backspace	Key.backspace	n/a
104.163	0.06	208326	keystroke_Key.backspace	Key.backspace	n/a
104.7785	0.0895	209557	keystroke_i	i	n/a
104.838	0.06	209676	keystroke_n	n	n/a
104.9585	0.0745	209917	keystroke_g	g	n/a
105.168	0.0595	210336	keystroke_Key.space	Key.space	n/a
105.4825	0.0765	210965	keystroke_c	c	n/a
105.843	0.09	211686	keystroke_o	o	n/a
105.9475	0.075	211895	keystroke_n	n	n/a
106.1425	0.0455	212285	keystroke_f	f	n/a
106.2335	0.09	212467	keystroke_i	i	n/a
106.3385	0.1355	212677	keystroke_d	d	n/a
106.4285	0.12	212857	keystroke_e	e	n/a
106.5935	0.06	213187	keystroke_n	n	n/a
106.7275	0.046	213455	keystroke_t	t	n/a
106.9975	0.0605	213995	keystroke_i	i	n/a
107.1485	0.0745	214297	keystroke_a	a	n/a
107.298	0.06	214596	keystroke_l	l	n/a
107.568	0.06	215136	keystroke_Key.enter	Key.enter	n/a
107.6345	6.835	215269	prompt	n/a	combines yesterday plastics chain\n
108.2735	0.06	216547	keystroke_c	c	n/a
108.3485	0.105	216697	keystroke_o	o	n/a
108.4085	0.09	216817	keystroke_m	m	n/a
108.5135	0.0885	217027	keystroke_p	p	n/a
108.6475	0.061	217295	keystroke_b	b	n/a
109.0085	0.0585	218017	keystroke_Key.backspace	Key.backspace	n/a
109.157	0.0305	218314	keystroke_Key.backspace	Key.backspace	n/a
109.1885	0.06	218377	keystroke_b	b	n/a
109.323	0.09	218646	keystroke_i	i	n/a
109.3985	0.044	218797	keystroke_n	n	n/a
109.5925	0.061	219185	keystroke_e	e	n/a
109.743	0.0745	219486	keystroke_s	s	n/a
109.848	0.06	219696	keystroke_Key.space	Key.space	n/a
110.0875	0.046	220175	keystroke_y	y	n/a
110.1785	0.09	220357	keystroke_e	e	n/a
110.3585	0.09	220717	keystroke_s	s	n/a
110.418	0.06	220836	keystroke_t	t	n/a
110.508	0.106	221016	keystroke_e	e	n/a
110.5975	0.091	221195	keystroke_r	r	n/a
110.7485	0.1345	221497	keystroke_d	d	n/a
110.8375	0.105	221675	keystroke_a	a	n/a
110.988	0.0455	221976	keystroke_y	y	n/a
111.168	0.0755	222336	keystroke_Key.space	Key.space	n/a
111.858	0.09	223716	keystroke_p	p	n/a
112.0985	0.0295	224197	keystroke_a	a	n/a
112.158	0.09	224316	keystroke_l	l	n/a
112.518	0.045	225036	keystroke_Key.backspace	Key.backspace	n/a
112.623	0.045	225246	keystroke_Key.backspace	Key.backspace	n/a
112.803	0.0605	225606	keystroke_l	l	n/a
112.878	0.12	225756	keystroke_a	a	n/a
112.953	0.135	225906	keystroke_s	s	n/a
113.028	0.045	226056	keystroke_t	t	n/a
113.1335	0.0595	226267	keystroke_i	i	n/a
113.2675	0.0755	226535	keystroke_c	c	n/a
113.3285	0.149	226657	keystroke_s	s	n/a
113.5675	0.0605	227135	keystroke_Key.space	Key.space	n/a
113.748	0.0755	227496	keystroke_c	c	n/a
113.8835	0.06	227767	keystroke_h	h	n/a
113.9885	0.09	227977	keystroke_a	a	n/a
114.1085	0.075	228217	keystroke_i	i	n/a
114.1535	0.059	228307	keystroke_n	n	n/a
114.4075	0.06	228815	keystroke_Key.enter	Key.enter	n/a
114.474	7.061	228948	prompt	n/a	poison attachment where've luxury\n
115.128	0.09	230256	keystroke_p	p	n/a
115.4735	0.135	230947	keystroke_o	o	n/a
115.638	0.135	231276	keystroke_i	i	n/a
115.878	0.075	231756	keystroke_s	s	n/a
115.983	0.12	231966	keystroke_o	o	n/a
116.058	0.075	232116	keystroke_n	n	n/a
116.283	0.075	232566	keystroke_Key.space	Key.space	n/a
116.5685	0.1045	233137	keystroke_a	a	n/a
116.7175	0.075	233435	keystroke_t	t	n/a
116.8685	0.0895	233737	keystroke_t	t	n/a
116.9725	0.1655	233945	keystroke_a	a	n/a
117.1075	0.105	234215	keystroke_c	c	n/a
117.2725	0.061	234545	keystroke_h	h	n/a
117.4675	0.076	234935	keystroke_m	m	n/a
117.603	0.0745	235206	keystroke_e	e	n/a
117.6925	0.0755	235385	keystroke_n	n	n/a
117.7975	0.06	235595	keystroke_t	t	n/a
117.9325	0.045	235865	keystroke_Key.space	Key.space	n/a
118.7285	0.045	237457	keystroke_w	w	n/a
118.863	0.06	237726	keystroke_h	h	n/a
118.953	0.105	237906	keystroke_e	e	n/a
119.028	0.12	238056	keystroke_r	r	n/a
119.148	0.075	238296	keystroke_e	e	n/a
119.253	0.075	238506	keystroke_'	'	n/a
119.508	0.06	239016	keystroke_v	v	n/a
119.673	0.0605	239346	keystroke_e	e	n/a
119.8825	0.06	239765	keystroke_Key.space	Key.space	n/a
120.0775	0.0605	240155	keystroke_l	l	n/a
120.303	0.03	240606	keystroke_u	u	n/a
120.4835	0.0595	240967	keystroke_x	x	n/a
120.783	0.045	241566	keystroke_u	u	n/a
121.038	0.045	242076	keystroke_r	r	n/a
121.128	0.0455	242256	keystroke_y	y	n/a
121.473	0.06	242946	keystroke_Key.enter	Key.enter	n/a
121.5405	7.644	243081	prompt	n/a	lists pottery elementary encouraged\n
122.2685	0.1045	244537	keystroke_l	l	n/a
122.328	0.075	244656	keystroke_i	i	n/a
122.418	0.12	244836	keystroke_s	s	n/a
122.493	0.06	244986	keystroke_t	t	n/a
122.5685	0.1795	245137	keystroke_s	s	n/a
122.8525	0.03	245705	keystroke_s	s	n/a
123.288	0.0295	246576	keystroke_Key.backspace	Key.backspace	n/a
123.438	0.0595	246876	keystroke_Key.space	Key.space	n/a
123.6475	0.075	247295	keystroke_p	p	n/a
124.022	0.106	248044	keystroke_o	o	n/a
124.203	0.0445	248406	keystroke_t	t	n/a
124.5485	0.0445	249097	keystroke_t	t	n/a
124.6085	0.089	249217	keystroke_e	e	n/a
124.6685	0.0745	249337	keystroke_r	r	n/a
124.8185	0.06	249637	keystroke_y	y	n/a
125.283	0.0595	250566	keystroke_Key.space	Key.space	n/a
125.5085	0.045	251017	keystroke_e	e	n/a
125.6285	0.0755	251257	keystroke_l	l	n/a
125.778	0.0905	251556	keystroke_e	e	n/a
125.898	0.06	251796	keystroke_m	m	n/a
126.002	0.0315	252004	keystroke_e	e	n/a
126.2285	0.0295	252457	keystroke_n	n	n/a
126.423	0.06	252846	keystroke_t	t	n/a
126.708	0.12	253416	keystroke_a	a	n/a
126.7985	0.0445	253597	keystroke_r	r	n/a
126.917	0.046	253834	keystroke_y	y	n/a
127.143	0.0605	254286	keystroke_Key.space	Key.space	n/a
127.353	0.0605	254706	keystroke_e	e	n/a
127.4725	0.0455	254945	keystroke_n	n	n/a
127.5625	0.0605	255125	keystroke_c	c	n/a
127.6975	0.09	255395	keystroke_o	o	n/a
127.7575	0.06	255515	keystroke_u	u	n/a
127.8925	0.061	255785	keystroke_r	r	n/a
128.1485	0.074	256297	keystroke_g	g	n/a
128.598	0.045	257196	keystroke_Key.backspace	Key.backspace	n/a
128.688	0.09	257376	keystroke_a	a	n/a
128.718	0.105	257436	keystroke_g	g	n/a
128.793	0.195	257586	keystroke_e	e	n/a
128.944	0.119	257888	keystroke_d	d	n/a
129.108	0.075	258216	keystroke_Key.enter	Key.enter	n/a
129.195	7.0995	258390	prompt	n/a	figure response inflation majority\n
129.844	0.059	259688	keystroke_f	f	n/a
129.889	0.044	259778	keystroke_i	i	n/a
130.0525	0.045	260105	keystroke_g	g	n/a
130.1275	0.061	260255	keystroke_u	u	n/a
130.2335	0.0745	260467	keystroke_r	r	n/a
130.2785	0.0895	260557	keystroke_e	e	n/a
130.473	0.015	260946	keystroke_Key.space	Key.space	n/a
130.878	0.09	261756	keystroke_r	r	n/a
130.923	0.105	261846	keystroke_e	e	n/a
131.043	0.105	262086	keystroke_s	s	n/a
131.163	0.06	262326	keystroke_p	p	n/a
131.238	0.105	262476	keystroke_o	o	n/a
131.268	0.06	262536	keystroke_n	n	n/a
131.388	0.075	262776	keystroke_s	s	n/a
131.5685	0.0445	263137	keystroke_e	e	n/a
131.733	0.0305	263466	keystroke_s	s	n/a
132.1835	0.029	264367	keystroke_Key.backspace	Key.backspace	n/a
132.303	0.0595	264606	keystroke_Key.space	Key.space	n/a
132.694	0.0895	265388	keystroke_i	i	n/a
132.738	0.06	265476	keystroke_n	n	n/a
132.888	0.0595	265776	keystroke_f	f	n/a
132.9785	0.045	265957	keystroke_a	a	n/a
133.0235	0.059	266047	keystroke_l	l	n/a
133.593	0.045	267186	keystroke_Key.backspace	Key.backspace	n/a
133.6975	0.06	267395	keystroke_Key.backspace	Key.backspace	n/a
133.894	0.0445	267788	keystroke_l	l	n/a
133.9985	0.075	267997	keystroke_a	a	n/a
134.043	0.0595	268086	keystroke_t	t	n/a
134.133	0.119	268266	keystroke_i	i	n/a
134.163	0.165	268326	keystroke_o	o	n/a
134.223	0.06	268446	keystroke_n	n	n/a
134.343	0.0305	268686	keystroke_Key.space	Key.space	n/a
134.5235	0.0445	269047	keystroke_m	m	n/a
134.643	0.06	269286	keystroke_a	a	n/a
134.793	0.03	269586	keystroke_j	j	n/a
135.2285	0.075	270457	keystroke_o	o	n/a
135.4235	0.045	270847	keystroke_r	r	n/a
135.4385	0.059	270877	keystroke_i	i	n/a
135.7385	0.045	271477	keystroke_t	t	n/a
135.8735	0.015	271747	keystroke_y	y	n/a
136.248	0.045	272496	keystroke_Key.enter	Key.enter	n/a
136.3065	6.5605	272613	prompt	n/a	installations hardly expenditure madison\n
136.9075	0.0755	273815	keystroke_i	i	n/a
136.953	0.075	273906	keystroke_n	n	n/a
137.058	0.1205	274116	keystroke_s	s	n/a
137.163	0.06	274326	keystroke_t	t	n/a
137.2975	0.09	274595	keystroke_a	a	n/a
137.4475	0.0755	274895	keystroke_l	l	n/a
137.5975	0.0755	275195	keystroke_l	l	n/a
137.703	0.105	275406	keystroke_a	a	n/a
137.778	0.06	275556	keystroke_t	t	n/a
137.8525	0.1205	275705	keystroke_i	i	n/a
137.883	0.105	275766	keystroke_o	o	n/a
137.928	0.0745	275856	keystroke_n	n	n/a
138.018	0.0745	276036	keystroke_s	s	n/a
138.1525	0.045	276305	keystroke_Key.space	Key.space	n/a
138.303	0.0455	276606	keystroke_h	h	n/a
138.4235	0.105	276847	keystroke_a	a	n/a
138.4825	0.016	276965	keystroke_r	r	n/a
138.6475	0.076	277295	keystroke_d	d	n/a
138.7835	0.059	277567	keystroke_l	l	n/a
139.0825	0.0455	278165	keystroke_y	y	n/a
139.1725	0.0755	278345	keystroke_Key.space	Key.space	n/a
139.443	0.06	278886	keystroke_e	e	n/a
139.623	0.06	279246	keystroke_x	x	n/a
139.6535	0.06	279307	keystroke_p	p	n/a
140.1175	0.1505	280235	keystroke_e	e	n/a
140.3275	0.06	280655	keystroke_n	n	n/a
140.4635	0.06	280927	keystroke_d	d	n/a
140.583	0.075	281166	keystroke_i	i	n/a
140.733	0.06	281466	keystroke_t	t	n/a
140.838	0.06	281676	keystroke_u	u	n/a
140.928	0.105	281856	keystroke_r	r	n/a
140.9885	0.105	281977	keystroke_e	e	n/a
141.138	0.0455	282276	keystroke_Key.space	Key.space	n/a
141.394	0.059	282788	keystroke_m	m	n/a
141.498	0.12	282996	keystroke_a	a	n/a
141.648	0.09	283296	keystroke_d	d	n/a
141.753	0.06	283506	keystroke_i	i	n/a
141.918	0.076	283836	keystroke_s	s	n/a
142.023	0.0905	284046	keystroke_o	o	n/a
142.533	0.0605	285066	keystroke_n	n	n/a
142.848	0.015	285696	keystroke_Key.enter	Key.enter	n/a
142.8725	8.1365	285745	prompt	n/a	modems unknown sterling riverside\n
143.524	0.1045	287048	keystroke_m	m	n/a
143.7475	0.091	287495	keystroke_o	o	n/a
143.9585	0.1345	287917	keystroke_d	d	n/a
144.0335	0.0895	288067	keystroke_e	e	n/a
144.378	0.06	288756	keystroke_m	m	n/a
144.528	0.0745	289056	keystroke_s	s	n/a
144.6775	0.0905	289355	keystroke_Key.space	Key.space	n/a
144.9185	0.0745	289837	keystroke_u	u	n/a
145.113	0.135	290226	keystroke_n	n	n/a
145.233	0.135	290466	keystroke_k	k	n/a
145.983	0.1045	291966	keystroke_o	o	n/a
146.3435	0.0445	292687	keystroke_Key.backspace	Key.backspace	n/a
146.508	0.075	293016	keystroke_n	n	n/a
146.568	0.075	293136	keystroke_o	o	n/a
146.823	0.0755	293646	keystroke_w	w	n/a
147.003	0.045	294006	keystroke_n	n	n/a
147.108	0.075	294216	keystroke_Key.space	Key.space	n/a
147.5135	0.165	295027	keystroke_s	s	n/a
147.6485	0.06	295297	keystroke_t	t	n/a
147.7535	0.12	295507	keystroke_e	e	n/a
147.843	0.0905	295686	keystroke_r	r	n/a
148.0075	0.106	296015	keystroke_l	l	n/a
148.0825	0.12	296165	keystroke_i	i	n/a
148.1885	0.0595	296377	keystroke_n	n	n/a
148.4575	0.0305	296915	keystroke_Key.space	Key.space	n/a
148.8325	0.0305	297665	keystroke_Key.backspace	Key.backspace	n/a
148.893	0.06	297786	keystroke_g	g	n/a
148.998	0.06	297996	keystroke_Key.space	Key.space	n/a
149.253	0.09	298506	keystroke_r	r	n/a
149.328	0.075	298656	keystroke_e	e	n/a
149.763	0.045	299526	keystroke_Key.backspace	Key.backspace	n/a
149.958	0.06	299916	keystroke_i	i	n/a
150.063	0.12	300126	keystroke_v	v	n/a
150.138	0.12	300276	keystroke_e	e	n/a
150.243	0.135	300486	keystroke_r	r	n/a
150.3485	0.105	300697	keystroke_s	s	n/a
150.5285	0.0895	301057	keystroke_i	i	n/a
150.603	0.12	301206	keystroke_d	d	n/a
150.6785	0.1045	301357	keystroke_e	e	n/a
150.9325	0.075	301865	keystroke_Key.enter	Key.enter	n/a
151.0135	9.491	302027	prompt	n/a	conducted guarantee desktop divorce\n
151.6835	0.104	303367	keystroke_c	c	n/a
151.7725	0.076	303545	keystroke_o	o	n/a
151.818	0.075	303636	keystroke_n	n	n/a
151.9675	0.09	303935	keystroke_s	s	n/a
152.103	0.0595	304206	keystroke_u	u	n/a
152.2375	0.061	304475	keystroke_d	d	n/a
152.418	0.0445	304836	keystroke_Key.backspace	Key.backspace	n/a
152.553	0.0595	305106	keystroke_Key.backspace	Key.backspace	n/a
152.688	0.09	305376	keystroke_Key.backspace	Key.backspace	n/a
152.793	0.0745	305586	keystroke_d	d	n/a
152.8975	0.046	305795	keystroke_u	u	n/a
152.9735	0.0745	305947	keystroke_c	c	n/a
153.213	0.0745	306426	keystroke_t	t	n/a
153.3175	0.15	306635	keystroke_e	e	n/a
153.4225	0.0905	306845	keystroke_d	d	n/a
153.528	0.0595	307056	keystroke_Key.space	Key.space	n/a
154.218	0.045	308436	keystroke_g	g	n/a
154.7435	0.06	309487	keystroke_u	u	n/a
154.863	0.105	309726	keystroke_a	a	n/a
155.478	0.0595	310956	keystroke_r	r	n/a
155.658	0.09	311316	keystroke_a	a	n/a
155.838	0.06	311676	keystroke_n	n	n/a
155.9585	0.0745	311917	keystroke_t	t	n/a
156.063	0.09	312126	keystroke_e	e	n/a
156.2575	0.0905	312515	keystroke_e	e	n/a
156.4675	0.0605	312935	keystroke_Key.space	Key.space	n/a
156.5885	0.149	313177	keystroke_d	d	n/a
156.7085	0.1045	313417	keystroke_e	e	n/a
157.0525	0.06	314105	keystroke_s	s	n/a
157.143	0.0895	314286	keystroke_s	s	n/a
157.6075	0.046	315215	keystroke_Key.backspace	Key.backspace	n/a
157.8185	0.059	315637	keystroke_k	k	n/a
158.073	0.0445	316146	keystroke_t	t	n/a
158.1775	0.1355	316355	keystroke_o	o	n/a
158.433	0.09	316866	keystroke_Key.space	Key.space	n/a
158.823	0.0295	317646	keystroke_Key.backspace	Key.backspace	n/a
159.003	0.0595	318006	keystroke_p	p	n/a
159.1075	0.0905	318215	keystroke_Key.space	Key.space	n/a
159.348	0.06	318696	keystroke_d	d	n/a
159.453	0.0605	318906	keystroke_i	i	n/a
159.603	0.045	319206	keystroke_v	v	n/a
159.783	0.0595	319566	keystroke_o	o	n/a
159.9325	0.0305	319865	keystroke_r	r	n/a
160.0535	0.134	320107	keystroke_c	c	n/a
160.1425	0.076	320285	keystroke_e	e	n/a
160.4425	0.0605	320885	keystroke_Key.enter	Key.enter	n/a
160.5095	8.785	321019	prompt	n/a	presentation nowhere mortgages allied\n
161.298	0.0905	322596	keystroke_p	p	n/a
161.403	0.09	322806	keystroke_r	r	n/a
161.463	0.075	322926	keystroke_e	e	n/a
161.568	0.089	323136	keystroke_s	s	n/a
161.778	0.06	323556	keystroke_n	n	n/a
162.167	0.0465	324334	keystroke_Key.backspace	Key.backspace	n/a
162.2285	0.075	324457	keystroke_e	e	n/a
162.3635	0.06	324727	keystroke_n	n	n/a
162.469	0.074	324938	keystroke_t	t	n/a
162.558	0.09	325116	keystroke_a	a	n/a
162.633	0.09	325266	keystroke_t	t	n/a
162.724	0.089	325448	keystroke_i	i	n/a
162.7385	0.0895	325477	keystroke_o	o	n/a
162.768	0.075	325536	keystroke_n	n	n/a
163.518	0.09	327036	keystroke_Key.space	Key.space	n/a
163.729	0.09	327458	keystroke_n	n	n/a
163.773	0.075	327546	keystroke_o	o	n/a
163.923	0.06	327846	keystroke_w	w	n/a
164.5385	0.029	329077	keystroke_h	h	n/a
164.6425	0.09	329285	keystroke_e	e	n/a
164.6875	0.151	329375	keystroke_r	r	n/a
164.8235	0.0755	329647	keystroke_e	e	n/a
165.3335	0.045	330667	keystroke_Key.space	Key.space	n/a
165.6635	0.045	331327	keystroke_m	m	n/a
165.828	0.076	331656	keystroke_o	o	n/a
165.978	0.045	331956	keystroke_r	r	n/a
166.113	0.15	332226	keystroke_g	g	n/a
166.383	0.045	332766	keystroke_a	a	n/a
166.8475	0.03	333695	keystroke_Key.backspace	Key.backspace	n/a
166.9375	0.075	333875	keystroke_Key.backspace	Key.backspace	n/a
167.1035	0.044	334207	keystroke_t	t	n/a
167.2985	0.075	334597	keystroke_g	g	n/a
167.4035	0.134	334807	keystroke_a	a	n/a
167.7185	0.06	335437	keystroke_g	g	n/a
167.7625	0.045	335525	keystroke_e	e	n/a
168.0475	0.045	336095	keystroke_s	s	n/a
168.213	0.06	336426	keystroke_Key.space	Key.space	n/a
168.378	0.12	336756	keystroke_a	a	n/a
168.528	0.0605	337056	keystroke_l	l	n/a
168.6785	0.089	337357	keystroke_l	l	n/a
168.7375	0.076	337475	keystroke_i	i	n/a
168.8435	0.074	337687	keystroke_e	e	n/a
168.8885	0.09	337777	keystroke_d	d	n/a
169.2175	0.075	338435	keystroke_Key.enter	Key.enter	n/a
169.299	6.401	338598	prompt	n/a	collectors product confidential calls\n
170.0285	0.06	340057	keystroke_c	c	n/a
170.1025	0.06	340205	keystroke_o	o	n/a
170.2825	0.0755	340565	keystroke_l	l	n/a
170.4175	0.06	340835	keystroke_l	l	n/a
170.4925	0.1055	340985	keystroke_e	e	n/a
170.553	0.075	341106	keystroke_c	c	n/a
170.7485	0.045	341497	keystroke_t	t	n/a
170.823	0.0905	341646	keystroke_o	o	n/a
170.928	0.045	341856	keystroke_r	r	n/a
171.0025	0.076	342005	keystroke_s	s	n/a
171.1225	0.06	342245	keystroke_Key.space	Key.space	n/a
171.2425	0.1055	342485	keystroke_p	p	n/a
171.4825	0.09	342965	keystroke_o	o	n/a
171.6625	0.0755	343325	keystroke_d	d	n/a
171.933	0.06	343866	keystroke_Key.backspace	Key.backspace	n/a
172.0525	0.06	344105	keystroke_Key.backspace	Key.backspace	n/a
172.1575	0.0455	344315	keystroke_r	r	n/a
172.233	0.075	344466	keystroke_o	o	n/a
172.323	0.0895	344646	keystroke_d	d	n/a
172.428	0.0595	344856	keystroke_u	u	n/a
172.503	0.075	345006	keystroke_c	c	n/a
172.6975	0.061	345395	keystroke_t	t	n/a
172.8175	0.0605	345635	keystroke_Key.space	Key.space	n/a
173.313	0.075	346626	keystroke_c	c	n/a
173.373	0.09	346746	keystroke_o	o	n/a
173.4485	0.0745	346897	keystroke_n	n	n/a
173.553	0.075	347106	keystroke_f	f	n/a
173.628	0.075	347256	keystroke_i	i	n/a
173.7625	0.135	347525	keystroke_d	d	n/a
173.8525	0.09	347705	keystroke_e	e	n/a
173.9875	0.0755	347975	keystroke_n	n	n/a
174.123	0.0455	348246	keystroke_t	t	n/a
174.258	0.075	348516	keystroke_i	i	n/a
174.438	0.0755	348876	keystroke_a	a	n/a
174.558	0.09	349116	keystroke_l	l	n/a
174.828	0.06	349656	keystroke_Key.space	Key.space	n/a
174.933	0.0905	349866	keystroke_c	c	n/a
175.068	0.0895	350136	keystroke_a	a	n/a
175.2475	0.061	350495	keystroke_l	l	n/a
175.3685	0.059	350737	keystroke_l	l	n/a
175.4425	0.091	350885	keystroke_s	s	n/a
175.6225	0.0755	351245	keystroke_Key.enter	Key.enter	n/a
175.7065	8.243	351413	prompt	n/a	episode threat indicated tions\n
176.3885	0.0755	352777	keystroke_e	e	n/a
176.8385	0.105	353677	keystroke_p	p	n/a
177.018	0.0895	354036	keystroke_i	i	n/a
177.198	0.1045	354396	keystroke_s	s	n/a
177.423	0.09	354846	keystroke_o	o	n/a
177.543	0.135	355086	keystroke_d	d	n/a
177.618	0.105	355236	keystroke_e	e	n/a
177.798	0.0905	355596	keystroke_Key.space	Key.space	n/a
177.9935	0.0755	355987	keystroke_t	t	n/a
178.053	0.06	356106	keystroke_h	h	n/a
178.173	0.105	356346	keystroke_r	r	n/a
178.2185	0.1195	356437	keystroke_e	e	n/a
178.863	0.06	357726	keystroke_t	t	n/a
178.8935	0.0455	357787	keystroke_a	a	n/a
179.5825	0.061	359165	keystroke_Key.backspace	Key.backspace	n/a
179.7025	0.0605	359405	keystroke_Key.backspace	Key.backspace	n/a
179.7185	0.1185	359437	keystroke_a	a	n/a
179.778	0.105	359556	keystroke_t	t	n/a
179.9125	0.045	359825	keystroke_Key.space	Key.space	n/a
180.0485	0.09	360097	keystroke_i	i	n/a
180.108	0.091	360216	keystroke_n	n	n/a
180.243	0.09	360486	keystroke_d	d	n/a
180.363	0.09	360726	keystroke_i	i	n/a
180.438	0.075	360876	keystroke_c	c	n/a
180.693	0.12	361386	keystroke_a	a	n/a
180.767	0.061	361534	keystroke_t	t	n/a
180.9785	0.1045	361957	keystroke_e	e	n/a
181.0675	0.075	362135	keystroke_d	d	n/a
181.2325	0.06	362465	keystroke_Key.space	Key.space	n/a
182.0125	0.091	364025	keystroke_t	t	n/a
183.123	0.135	366246	keystroke_i	i	n/a
183.243	0.075	366486	keystroke_o	o	n/a
183.273	0.105	366546	keystroke_n	n	n/a
183.528	0.1055	367056	keystroke_s	s	n/a
183.888	0.0595	367776	keystroke_Key.enter	Key.enter	n/a
183.963	6.317	367926	prompt	n/a	associations rankings mime ratings\n
184.743	0.15	369486	keystroke_a	a	n/a
184.863	0.3595	369726	keystroke_s	s	n/a
185.433	0.105	370866	keystroke_s	s	n/a
185.598	0.09	371196	keystroke_o	o	n/a
185.748	0.075	371496	keystroke_c	c	n/a
185.883	0.075	371766	keystroke_i	i	n/a
186.018	0.15	372036	keystroke_a	a	n/a
186.108	0.075	372216	keystroke_t	t	n/a
186.228	0.075	372456	keystroke_i	i	n/a
186.273	0.0605	372546	keystroke_o	o	n/a
186.288	0.06	372576	keystroke_n	n	n/a
186.363	0.12	372726	keystroke_s	s	n/a
186.5285	0.0595	373057	keystroke_Key.space	Key.space	n/a
187.219	0.1045	374438	keystroke_r	r	n/a
187.3385	0.135	374677	keystroke_a	a	n/a
187.5185	0.06	375037	keystroke_n	n	n/a
187.7285	0.06	375457	keystroke_k	k	n/a
187.9235	0.09	375847	keystroke_i	i	n/a
187.9535	0.075	375907	keystroke_n	n	n/a
188.0885	0.0895	376177	keystroke_g	g	n/a
188.163	0.09	376326	keystroke_s	s	n/a
188.267	0.0605	376534	keystroke_Key.space	Key.space	n/a
188.4475	0.121	376895	keystroke_m	m	n/a
188.5985	0.075	377197	keystroke_i	i	n/a
188.688	0.0455	377376	keystroke_m	m	n/a
188.9125	0.075	377825	keystroke_e	e	n/a
189.0775	0.06	378155	keystroke_Key.space	Key.space	n/a
189.243	0.0895	378486	keystroke_r	r	n/a
189.3635	0.166	378727	keystroke_a	a	n/a
189.4835	0.075	378967	keystroke_t	t	n/a
189.6185	0.1045	379237	keystroke_i	i	n/a
189.663	0.0895	379326	keystroke_n	n	n/a
189.7375	0.1055	379475	keystroke_g	g	n/a
189.813	0.09	379626	keystroke_s	s	n/a
190.218	0.0595	380436	keystroke_Key.enter	Key.enter	n/a
190.287	5.482	380574	prompt	n/a	bread frames respective joyce\n
191.6735	0.075	383347	keystroke_b	b	n/a
191.868	0.12	383736	keystroke_r	r	n/a
191.943	0.15	383886	keystroke_e	e	n/a
192.018	0.1055	384036	keystroke_a	a	n/a
192.213	0.0755	384426	keystroke_d	d	n/a
192.378	0.06	384756	keystroke_Key.space	Key.space	n/a
192.513	0.059	385026	keystroke_f	f	n/a
192.663	0.09	385326	keystroke_r	r	n/a
192.738	0.075	385476	keystroke_a	a	n/a
192.917	0.061	385834	keystroke_m	m	n/a
193.098	0.075	386196	keystroke_e	e	n/a
193.263	0.075	386526	keystroke_s	s	n/a
193.413	0.0445	386826	keystroke_Key.space	Key.space	n/a
193.578	0.089	387156	keystroke_r	r	n/a
193.6385	0.1045	387277	keystroke_e	e	n/a
193.743	0.1045	387486	keystroke_s	s	n/a
193.8635	0.075	387727	keystroke_p	p	n/a
193.9675	0.136	387935	keystroke_e	e	n/a
194.0735	0.074	388147	keystroke_c	c	n/a
194.283	0.06	388566	keystroke_t	t	n/a
194.4775	0.0605	388955	keystroke_i	i	n/a
194.5675	0.0905	389135	keystroke_v	v	n/a
194.6135	0.104	389227	keystroke_e	e	n/a
194.7625	0.045	389525	keystroke_Key.space	Key.space	n/a
194.9735	0.119	389947	keystroke_j	j	n/a
195.0785	0.0745	390157	keystroke_o	o	n/a
195.2135	0.075	390427	keystroke_y	y	n/a
195.3935	0.0745	390787	keystroke_c	c	n/a
195.453	0.09	390906	keystroke_e	e	n/a
195.723	0.045	391446	keystroke_Key.enter	Key.enter	n/a
195.7725	6.357	391545	prompt	n/a	venue travelling january extended\n
196.563	0.0605	393126	keystroke_v	v	n/a
196.608	0.15	393216	keystroke_e	e	n/a
196.803	0.06	393606	keystroke_n	n	n/a
196.968	0.075	393936	keystroke_u	u	n/a
197.1485	0.0455	394297	keystroke_e	e	n/a
197.313	0.03	394626	keystroke_Key.space	Key.space	n/a
197.4475	0.121	394895	keystroke_t	t	n/a
197.6275	0.06	395255	keystroke_r	r	n/a
197.6725	0.076	395345	keystroke_a	a	n/a
198.2575	0.09	396515	keystroke_v	v	n/a
198.318	0.074	396636	keystroke_e	e	n/a
198.5135	0.09	397027	keystroke_l	l	n/a
198.6785	0.165	397357	keystroke_l	l	n/a
198.783	0.105	397566	keystroke_i	i	n/a
198.828	0.075	397656	keystroke_n	n	n/a
198.963	0.0455	397926	keystroke_g	g	n/a
199.053	0.0755	398106	keystroke_Key.space	Key.space	n/a
199.398	0.045	398796	keystroke_j	j	n/a
199.5335	0.1045	399067	keystroke_a	a	n/a
199.639	0.0445	399278	keystroke_n	n	n/a
199.7725	0.09	399545	keystroke_u	u	n/a
199.9375	0.091	399875	keystroke_a	a	n/a
200.0135	0.074	400027	keystroke_r	r	n/a
200.1475	0.046	400295	keystroke_y	y	n/a
200.3275	0.075	400655	keystroke_Key.space	Key.space	n/a
200.4925	0.075	400985	keystroke_e	e	n/a
200.658	0.105	401316	keystroke_x	x	n/a
200.764	0.089	401528	keystroke_t	t	n/a
200.868	0.076	401736	keystroke_e	e	n/a
200.958	0.06	401916	keystroke_n	n	n/a
201.078	0.1195	402156	keystroke_d	d	n/a
201.2575	0.0905	402515	keystroke_e	e	n/a
201.648	0.119	403296	keystroke_d	d	n/a
202.068	0.06	404136	keystroke_Key.enter	Key.enter	n/a
202.1425	6.7685	404285	prompt	n/a	hughes preparing inspector montana\n
202.8035	0.0595	405607	keystroke_h	h	n/a
202.923	0.0895	405846	keystroke_u	u	n/a
203.088	0.0595	406176	keystroke_g	g	n/a
203.178	0.06	406356	keystroke_h	h	n/a
203.3585	0.0895	406717	keystroke_e	e	n/a
203.553	0.09	407106	keystroke_s	s	n/a
203.688	0.0745	407376	keystroke_Key.space	Key.space	n/a
203.853	0.09	407706	keystroke_p	p	n/a
204.018	0.015	408036	keystroke_r	r	n/a
204.093	0.06	408186	keystroke_o	o	n/a
204.543	0.015	409086	keystroke_Key.backspace	Key.backspace	n/a
204.588	0.09	409176	keystroke_e	e	n/a
204.737	0.046	409474	keystroke_p	p	n/a
205.2925	0.12	410585	keystroke_a	a	n/a
205.3835	0.0595	410767	keystroke_r	r	n/a
205.503	0.09	411006	keystroke_i	i	n/a
205.548	0.075	411096	keystroke_n	n	n/a
205.668	0.06	411336	keystroke_g	g	n/a
205.803	0.044	411606	keystroke_Key.space	Key.space	n/a
206.418	0.105	412836	keystroke_i	i	n/a
206.463	0.075	412926	keystroke_n	n	n/a
206.6735	0.0745	413347	keystroke_s	s	n/a
206.808	0.074	413616	keystroke_p	p	n/a
206.868	0.15	413736	keystroke_e	e	n/a
206.9885	0.0745	413977	keystroke_c	c	n/a
207.198	0.045	414396	keystroke_t	t	n/a
207.288	0.06	414576	keystroke_o	o	n/a
207.393	0.09	414786	keystroke_r	r	n/a
207.4975	0.06	414995	keystroke_Key.space	Key.space	n/a
207.6925	0.075	415385	keystroke_m	m	n/a
207.8275	0.045	415655	keystroke_o	o	n/a
207.8875	0.06	415775	keystroke_n	n	n/a
208.0675	0.06	416135	keystroke_t	t	n/a
208.1575	0.076	416315	keystroke_a	a	n/a
208.3375	0.046	416675	keystroke_n	n	n/a
208.5485	0.06	417097	keystroke_a	a	n/a
208.8475	0.06	417695	keystroke_Key.enter	Key.enter	n/a
208.919	5.4805	417838	prompt	n/a	fridge swift symbol highs\n
209.613	0.0895	419226	keystroke_f	f	n/a
209.8075	0.06	419615	keystroke_r	r	n/a
209.9275	0.061	419855	keystroke_i	i	n/a
210.063	0.09	420126	keystroke_d	d	n/a
210.183	0.075	420366	keystroke_g	g	n/a
210.258	0.075	420516	keystroke_e	e	n/a
210.843	0.0295	421686	keystroke_Key.space	Key.space	n/a
210.9785	0.0445	421957	keystroke_w	w	n/a
211.458	0.0455	422916	keystroke_Key.backspace	Key.backspace	n/a
211.5175	0.061	423035	keystroke_s	s	n/a
211.6375	0.106	423275	keystroke_w	w	n/a
211.8025	0.0615	423605	keystroke_i	i	n/a
211.9235	0.015	423847	keystroke_t	t	n/a
212.2825	0.0455	424565	keystroke_Key.backspace	Key.backspace	n/a
212.3435	0.074	424687	keystroke_f	f	n/a
212.4925	0.0755	424985	keystroke_t	t	n/a
212.6125	0.0605	425225	keystroke_Key.space	Key.space	n/a
212.703	0.105	425406	keystroke_s	s	n/a
212.8535	0.0595	425707	keystroke_y	y	n/a
213.0325	0.09	426065	keystroke_m	m	n/a
213.1685	0.074	426337	keystroke_b	b	n/a
213.2725	0.0605	426545	keystroke_o	o	n/a
213.4375	0.09	426875	keystroke_l	l	n/a
213.6325	0.045	427265	keystroke_Key.space	Key.space	n/a
213.813	0.0595	427626	keystroke_h	h	n/a
213.8575	0.076	427715	keystroke_i	i	n/a
213.9635	0.044	427927	keystroke_g	g	n/a
214.023	0.0595	428046	keystroke_h	h	n/a
214.0985	0.1045	428197	keystroke_s	s	n/a
214.337	0.0605	428674	keystroke_Key.enter	Key.enter	n/a
214.404	5.2915	428808	prompt	n/a	extend kruger arrested none\n
214.982	0.091	429964	keystroke_e	e	n/a
215.148	0.1195	430296	keystroke_x	x	n/a
215.2525	0.061	430505	keystroke_t	t	n/a
215.3575	0.0755	430715	keystroke_e	e	n/a
215.4925	0.06	430985	keystroke_n	n	n/a
215.5675	0.075	431135	keystroke_d	d	n/a
216.1225	0.0605	432245	keystroke_Key.space	Key.space	n/a
216.3925	0.09	432785	keystroke_k	k	n/a
216.5575	0.0605	433115	keystroke_r	r	n/a
216.6775	0.0605	433355	keystroke_u	u	n/a
216.7525	0.0605	433505	keystroke_g	g	n/a
216.8425	0.075	433685	keystroke_e	e	n/a
217.0535	0.044	434107	keystroke_r	r	n/a
217.353	0.06	434706	keystroke_Key.space	Key.space	n/a
217.488	0.075	434976	keystroke_a	a	n/a
217.8335	0.09	435667	keystroke_r	r	n/a
218.1785	0.1195	436357	keystroke_r	r	n/a
218.2385	0.1195	436477	keystroke_e	e	n/a
218.448	0.135	436896	keystroke_s	s	n/a
218.5685	0.0595	437137	keystroke_t	t	n/a
218.7035	0.1645	437407	keystroke_e	e	n/a
218.808	0.105	437616	keystroke_d	d	n/a
218.973	0.06	437946	keystroke_Key.space	Key.space	n/a
219.138	0.09	438276	keystroke_n	n	n/a
219.2585	0.0595	438517	keystroke_o	o	n/a
219.333	0.06	438666	keystroke_n	n	n/a
219.438	0.06	438876	keystroke_e	e	n/a
219.633	0.06	439266	keystroke_Key.enter	Key.enter	n/a
219.7015	6.368	439403	prompt	n/a	changes recognized implied imported\n
220.339	0.0735	440678	keystroke_c	c	n/a
220.443	0.0595	440886	keystroke_h	h	n/a
220.5175	0.1055	441035	keystroke_a	a	n/a
220.608	0.06	441216	keystroke_n	n	n/a
220.758	0.06	441516	keystroke_g	g	n/a
220.7875	0.12	441575	keystroke_e	e	n/a
220.953	0.135	441906	keystroke_s	s	n/a
221.103	0.045	442206	keystroke_Key.space	Key.space	n/a
221.2685	0.0895	442537	keystroke_r	r	n/a
221.344	0.0595	442688	keystroke_e	e	n/a
221.478	0.09	442956	keystroke_c	c	n/a
221.583	0.0905	443166	keystroke_o	o	n/a
221.733	0.0455	443466	keystroke_g	g	n/a
221.8835	0.09	443767	keystroke_n	n	n/a
221.9875	0.1205	443975	keystroke_i	i	n/a
222.123	0.1205	444246	keystroke_z	z	n/a
222.1835	0.105	444367	keystroke_e	e	n/a
222.378	0.0605	444756	keystroke_d	d	n/a
222.528	0.06	445056	keystroke_Key.space	Key.space	n/a
223.443	0.105	446886	keystroke_i	i	n/a
223.533	0.1505	447066	keystroke_m	m	n/a
223.6685	0.12	447337	keystroke_p	p	n/a
223.8475	0.1805	447695	keystroke_l	l	n/a
223.983	0.105	447966	keystroke_i	i	n/a
224.133	0.104	448266	keystroke_e	e	n/a
224.178	0.105	448356	keystroke_d	d	n/a
224.328	0.06	448656	keystroke_Key.space	Key.space	n/a
224.523	0.135	449046	keystroke_i	i	n/a
224.628	0.18	449256	keystroke_m	m	n/a
224.763	0.09	449526	keystroke_p	p	n/a
224.868	0.1655	449736	keystroke_o	o	n/a
225.108	0.0605	450216	keystroke_r	r	n/a
225.228	0.1045	450456	keystroke_t	t	n/a
225.3785	0.134	450757	keystroke_e	e	n/a
225.4975	0.076	450995	keystroke_d	d	n/a
226.008	0.06	452016	keystroke_Key.enter	Key.enter	n/a
226.0755	6.654	452151	prompt	n/a	diagnostic safe creates lately\n
226.653	0.075	453306	keystroke_d	d	n/a
226.773	0.075	453546	keystroke_i	i	n/a
226.878	0.135	453756	keystroke_a	a	n/a
227.043	0.0745	454086	keystroke_g	g	n/a
227.1475	0.09	454295	keystroke_n	n	n/a
227.193	0.1195	454386	keystroke_o	o	n/a
227.3275	0.1355	454655	keystroke_s	s	n/a
227.4175	0.0755	454835	keystroke_t	t	n/a
227.5075	0.03	455015	keystroke_i	i	n/a
227.643	0.0745	455286	keystroke_c	c	n/a
227.7925	0.06	455585	keystroke_Key.space	Key.space	n/a
228.4525	0.075	456905	keystroke_s	s	n/a
228.6025	0.106	457205	keystroke_a	a	n/a
228.7535	0.06	457507	keystroke_f	f	n/a
228.8425	0.0905	457685	keystroke_e	e	n/a
229.2025	0.015	458405	keystroke_c	c	n/a
229.518	0.0295	459036	keystroke_Key.backspace	Key.backspace	n/a
229.593	0.075	459186	keystroke_Key.space	Key.space	n/a
229.713	0.06	459426	keystroke_c	c	n/a
229.893	0.0905	459786	keystroke_r	r	n/a
229.9535	0.135	459907	keystroke_e	e	n/a
230.0285	0.075	460057	keystroke_a	a	n/a
230.1175	0.0605	460235	keystroke_t	t	n/a
230.208	0.1345	460416	keystroke_e	e	n/a
230.4635	0.119	460927	keystroke_s	s	n/a
230.673	0.0605	461346	keystroke_Key.space	Key.space	n/a
230.8675	0.09	461735	keystroke_l	l	n/a
230.9435	0.09	461887	keystroke_i	i	n/a
231.1385	0.059	462277	keystroke_k	k	n/a
231.408	0.045	462816	keystroke_Key.backspace	Key.backspace	n/a
231.5125	0.09	463025	keystroke_Key.backspace	Key.backspace	n/a
231.648	0.1195	463296	keystroke_a	a	n/a
231.6935	0.075	463387	keystroke_t	t	n/a
231.828	0.0595	463656	keystroke_e	e	n/a
232.2775	0.0755	464555	keystroke_l	l	n/a
232.3825	0.061	464765	keystroke_y	y	n/a
232.6825	0.0455	465365	keystroke_Key.enter	Key.enter	n/a
232.734	9.9405	465468	prompt	n/a	accommodation unnecessary diesel valves\n
233.3885	0.0445	466777	keystroke_a	a	n/a
233.553	0.06	467106	keystroke_c	c	n/a
233.6875	0.12	467375	keystroke_c	c	n/a
233.7925	0.1205	467585	keystroke_o	o	n/a
233.868	0.135	467736	keystroke_m	m	n/a
234.048	0.045	468096	keystroke_p	p	n/a
234.528	0.0595	469056	keystroke_Key.backspace	Key.backspace	n/a
234.9185	0.09	469837	keystroke_m	m	n/a
235.0225	0.091	470045	keystroke_o	o	n/a
235.2335	0.075	470467	keystroke_d	d	n/a
235.3985	0.12	470797	keystroke_a	a	n/a
235.503	0.076	471006	keystroke_t	t	n/a
235.5935	0.119	471187	keystroke_i	i	n/a
235.623	0.1045	471246	keystroke_o	o	n/a
235.6825	0.09	471365	keystroke_n	n	n/a
235.8785	0.059	471757	keystroke_Key.space	Key.space	n/a
236.2075	0.061	472415	keystroke_u	u	n/a
236.3885	0.059	472777	keystroke_n	n	n/a
236.599	0.134	473198	keystroke_c	c	n/a
236.913	0.045	473826	keystroke_Key.backspace	Key.backspace	n/a
237.093	0.0605	474186	keystroke_n	n	n/a
237.168	0.15	474336	keystroke_c	c	n/a
237.288	0.075	474576	keystroke_e	e	n/a
237.468	0.075	474936	keystroke_s	s	n/a
237.603	0.1505	475206	keystroke_s	s	n/a
238.3975	0.0305	476795	keystroke_Key.backspace	Key.backspace	n/a
238.503	0.06	477006	keystroke_Key.backspace	Key.backspace	n/a
238.6085	0.074	477217	keystroke_Key.backspace	Key.backspace	n/a
238.743	0.12	477486	keystroke_Key.backspace	Key.backspace	n/a
239.103	0.12	478206	keystroke_e	e	n/a
239.238	0.075	478476	keystroke_c	c	n/a
239.3585	0.1045	478717	keystroke_e	e	n/a
239.568	0.12	479136	keystroke_s	s	n/a
239.778	0.12	479556	keystroke_s	s	n/a
239.958	0.105	479916	keystroke_a	a	n/a
240.078	0.045	480156	keystroke_r	r	n/a
240.153	0.06	480306	keystroke_y	y	n/a
240.408	0.059	480816	keystroke_Key.space	Key.space	n/a
240.543	0.09	481086	keystroke_d	d	n/a
240.6635	0.06	481327	keystroke_i	i	n/a
240.8135	0.0295	481627	keystroke_e	e	n/a
240.962	0.076	481924	keystroke_s	s	n/a
241.248	0.059	482496	keystroke_e	e	n/a
241.412	0.076	482824	keystroke_l	l	n/a
241.5635	0.0595	483127	keystroke_Key.space	Key.space	n/a
241.653	0.0755	483306	keystroke_v	v	n/a
241.7295	0.1185	483459	keystroke_a	a	n/a
241.863	0.0605	483726	keystroke_l	l	n/a
241.968	0.089	483936	keystroke_v	v	n/a
242.208	0.03	484416	keystroke_e	e	n/a
242.373	0.045	484746	keystroke_s	s	n/a
242.613	0.059	485226	keystroke_Key.enter	Key.enter	n/a
242.687	7.0825	485374	prompt	n/a	there're assisted promoting personalized\n
243.5125	0.046	487025	keystroke_t	t	n/a
243.5725	0.0605	487145	keystroke_h	h	n/a
243.7075	0.09	487415	keystroke_e	e	n/a
243.857	0.0615	487714	keystroke_y	y	n/a
244.0235	0.0595	488047	keystroke_'	'	n/a
244.188	0.105	488376	keystroke_r	r	n/a
244.248	0.09	488496	keystroke_e	e	n/a
244.683	0.089	489366	keystroke_Key.space	Key.space	n/a
244.788	0.1045	489576	keystroke_a	a	n/a
244.8475	0.195	489695	keystroke_s	s	n/a
245.1475	0.0605	490295	keystroke_i	i	n/a
245.283	0.0745	490566	keystroke_s	s	n/a
245.447	0.0605	490894	keystroke_Key.backspace	Key.backspace	n/a
245.5675	0.075	491135	keystroke_Key.backspace	Key.backspace	n/a
245.703	0.0755	491406	keystroke_s	s	n/a
245.7925	0.076	491585	keystroke_i	i	n/a
245.9885	0.089	491977	keystroke_s	s	n/a
246.0475	0.06	492095	keystroke_t	t	n/a
246.1375	0.151	492275	keystroke_e	e	n/a
246.2575	0.091	492515	keystroke_d	d	n/a
246.3935	0.0595	492787	keystroke_Key.space	Key.space	n/a
246.978	0.074	493956	keystroke_p	p	n/a
247.1585	0.045	494317	keystroke_r	r	n/a
247.218	0.0605	494436	keystroke_o	o	n/a
247.293	0.075	494586	keystroke_m	m	n/a
247.383	0.075	494766	keystroke_o	o	n/a
247.503	0.0445	495006	keystroke_t	t	n/a
247.6225	0.06	495245	keystroke_i	i	n/a
247.833	0.075	495666	keystroke_n	n	n/a
247.953	0.06	495906	keystroke_g	g	n/a
248.058	0.045	496116	keystroke_Key.space	Key.space	n/a
248.343	0.074	496686	keystroke_p	p	n/a
248.462	0.0905	496924	keystroke_e	e	n/a
248.538	0.149	497076	keystroke_r	r	n/a
248.642	0.121	497284	keystroke_s	s	n/a
248.7485	0.0895	497497	keystroke_o	o	n/a
248.808	0.0755	497616	keystroke_n	n	n/a
248.973	0.059	497946	keystroke_a	a	n/a
249.0925	0.1195	498185	keystroke_l	l	n/a
249.168	0.0605	498336	keystroke_i	i	n/a
249.2575	0.1645	498515	keystroke_z	z	n/a
249.3175	0.1805	498635	keystroke_e	e	n/a
249.453	0.134	498906	keystroke_d	d	n/a
249.708	0.06	499416	keystroke_Key.enter	Key.enter	n/a
249.778	7.6715	499556	prompt	n/a	arrange envelope distributed marketplace\n
250.6075	0.075	501215	keystroke_a	a	n/a
250.8025	0.076	501605	keystroke_r	r	n/a
250.968	0.045	501936	keystroke_a	a	n/a
251.358	0.03	502716	keystroke_Key.backspace	Key.backspace	n/a
251.433	0.0605	502866	keystroke_r	r	n/a
251.524	0.074	503048	keystroke_a	a	n/a
251.703	0.0445	503406	keystroke_n	n	n/a
251.763	0.0895	503526	keystroke_g	g	n/a
251.823	0.0745	503646	keystroke_e	e	n/a
252.243	0.045	504486	keystroke_Key.space	Key.space	n/a
252.469	0.059	504938	keystroke_e	e	n/a
252.618	0.045	505236	keystroke_n	n	n/a
252.693	0.075	505386	keystroke_v	v	n/a
252.783	0.09	505566	keystroke_e	e	n/a
252.948	0.06	505896	keystroke_l	l	n/a
253.129	0.164	506258	keystroke_o	o	n/a
253.232	0.091	506464	keystroke_p	p	n/a
253.398	0.0605	506796	keystroke_e	e	n/a
253.5925	0.046	507185	keystroke_Key.space	Key.space	n/a
254.073	0.09	508146	keystroke_d	d	n/a
254.178	0.059	508356	keystroke_i	i	n/a
254.268	0.165	508536	keystroke_s	s	n/a
254.388	0.06	508776	keystroke_t	t	n/a
254.5385	0.0745	509077	keystroke_r	r	n/a
254.643	0.0595	509286	keystroke_i	i	n/a
254.763	0.06	509526	keystroke_b	b	n/a
254.8675	0.0455	509735	keystroke_u	u	n/a
254.9425	0.0755	509885	keystroke_t	t	n/a
255.033	0.0755	510066	keystroke_e	e	n/a
255.1825	0.0605	510365	keystroke_Key.space	Key.space	n/a
255.258	0.06	510516	keystroke_d	d	n/a
255.513	0.0595	511026	keystroke_Key.backspace	Key.backspace	n/a
255.6475	0.0305	511295	keystroke_Key.backspace	Key.backspace	n/a
255.708	0.059	511416	keystroke_d	d	n/a
255.812	0.0605	511624	keystroke_Key.space	Key.space	n/a
255.9625	0.0755	511925	keystroke_m	m	n/a
256.053	0.09	512106	keystroke_a	a	n/a
256.112	0.045	512224	keystroke_r	r	n/a
256.202	0.061	512404	keystroke_k	k	n/a
256.337	0.06	512674	keystroke_e	e	n/a
256.518	0.03	513036	keystroke_t	t	n/a
256.758	0.12	513516	keystroke_p	p	n/a
256.953	0.0895	513906	keystroke_l	l	n/a
257.0725	0.12	514145	keystroke_a	a	n/a
257.1635	0.09	514327	keystroke_c	c	n/a
257.2385	0.105	514477	keystroke_e	e	n/a
257.4025	0.0455	514805	keystroke_Key.enter	Key.enter	n/a
257.4545	8.2	514909	prompt	n/a	choice commissions indicators i'm\n
258.093	0.075	516186	keystroke_c	c	n/a
258.2135	0.0595	516427	keystroke_h	h	n/a
258.273	0.12	516546	keystroke_o	o	n/a
258.393	0.075	516786	keystroke_i	i	n/a
258.7375	0.105	517475	keystroke_c	c	n/a
258.798	0.105	517596	keystroke_e	e	n/a
259.038	0.0445	518076	keystroke_Key.space	Key.space	n/a
259.217	0.075	518434	keystroke_c	c	n/a
259.352	0.1205	518704	keystroke_o	o	n/a
259.458	0.075	518916	keystroke_m	m	n/a
259.592	0.121	519184	keystroke_m	m	n/a
259.728	0.044	519456	keystroke_m	m	n/a
259.743	0.104	519486	keystroke_i	i	n/a
259.862	0.27	519724	keystroke_s	s	n/a
260.733	0.045	521466	keystroke_Key.backspace	Key.backspace	n/a
260.838	0.075	521676	keystroke_Key.backspace	Key.backspace	n/a
260.9875	0.075	521975	keystroke_Key.backspace	Key.backspace	n/a
261.2125	0.0595	522425	keystroke_i	i	n/a
261.3335	0.1045	522667	keystroke_s	s	n/a
261.468	0.1345	522936	keystroke_s	s	n/a
262.053	0.1495	524106	keystroke_i	i	n/a
262.1275	0.15	524255	keystroke_o	o	n/a
262.218	0.0745	524436	keystroke_n	n	n/a
262.3375	0.1055	524675	keystroke_s	s	n/a
262.4875	0.06	524975	keystroke_Key.space	Key.space	n/a
263.1325	0.1955	526265	keystroke_i	i	n/a
263.313	0.03	526626	keystroke_n	n	n/a
263.358	0.015	526716	keystroke_d	d	n/a
263.388	0.105	526776	keystroke_i	i	n/a
263.4785	0.0745	526957	keystroke_c	c	n/a
263.5685	0.1055	527137	keystroke_a	a	n/a
263.658	0.075	527316	keystroke_t	t	n/a
263.748	0.0745	527496	keystroke_o	o	n/a
263.8375	0.106	527675	keystroke_r	r	n/a
263.9585	0.09	527917	keystroke_s	s	n/a
264.108	0.0445	528216	keystroke_Key.space	Key.space	n/a
264.8575	0.06	529715	keystroke_i	i	n/a
265.0675	0.06	530135	keystroke_'	'	n/a
265.0975	0.0755	530195	keystroke_m	m	n/a
265.5625	0.0905	531125	keystroke_Key.enter	Key.enter	n/a
265.659	5.4555	531318	prompt	n/a	innocent alpha prayers detail\n
266.283	0.0895	532566	keystroke_i	i	n/a
266.343	0.0755	532686	keystroke_n	n	n/a
266.4785	0.15	532957	keystroke_n	n	n/a
266.643	0.0745	533286	keystroke_o	o	n/a
266.943	0.12	533886	keystroke_c	c	n/a
267.0475	0.075	534095	keystroke_e	e	n/a
267.2725	0.0155	534545	keystroke_n	n	n/a
267.4685	0.06	534937	keystroke_t	t	n/a
267.663	0.015	535326	keystroke_Key.space	Key.space	n/a
268.158	0.015	536316	keystroke_a	a	n/a
268.218	0.06	536436	keystroke_l	l	n/a
268.488	0.074	536976	keystroke_p	p	n/a
268.578	0.09	537156	keystroke_h	h	n/a
268.818	0.09	537636	keystroke_a	a	n/a
268.953	0.06	537906	keystroke_Key.space	Key.space	n/a
269.118	0.09	538236	keystroke_p	p	n/a
269.313	0.06	538626	keystroke_r	r	n/a
269.433	0.075	538866	keystroke_a	a	n/a
269.598	0.045	539196	keystroke_y	y	n/a
269.733	0.1055	539466	keystroke_e	e	n/a
269.808	0.1645	539616	keystroke_r	r	n/a
269.928	0.1045	539856	keystroke_s	s	n/a
270.0475	0.0605	540095	keystroke_Key.space	Key.space	n/a
270.152	0.135	540304	keystroke_d	d	n/a
270.243	0.105	540486	keystroke_e	e	n/a
270.498	0.06	540996	keystroke_t	t	n/a
270.573	0.075	541146	keystroke_a	a	n/a
270.738	0.075	541476	keystroke_i	i	n/a
270.798	0.12	541596	keystroke_l	l	n/a
271.038	0.075	542076	keystroke_Key.enter	Key.enter	n/a
271.122	9.9105	542244	prompt	n/a	applicants restoration textiles zoning\n
271.938	0.09	543876	keystroke_a	a	n/a
272.0875	0.075	544175	keystroke_p	p	n/a
272.253	0.1195	544506	keystroke_p	p	n/a
272.3725	0.1805	544745	keystroke_l	l	n/a
272.508	0.1045	545016	keystroke_i	i	n/a
272.688	0.105	545376	keystroke_c	c	n/a
272.778	0.089	545556	keystroke_a	a	n/a
272.9135	0.074	545827	keystroke_n	n	n/a
273.032	0.0605	546064	keystroke_t	t	n/a
273.1375	0.075	546275	keystroke_s	s	n/a
274.172	0.09	548344	keystroke_Key.space	Key.space	n/a
274.368	0.105	548736	keystroke_r	r	n/a
274.428	0.15	548856	keystroke_e	e	n/a
274.518	0.18	549036	keystroke_s	s	n/a
274.668	0.075	549336	keystroke_t	t	n/a
274.773	0.075	549546	keystroke_o	o	n/a
274.938	0.075	549876	keystroke_r	r	n/a
275.043	0.1055	550086	keystroke_a	a	n/a
275.133	0.075	550266	keystroke_t	t	n/a
275.268	0.15	550536	keystroke_i	i	n/a
275.298	0.105	550596	keystroke_o	o	n/a
275.358	0.075	550716	keystroke_n	n	n/a
276.1375	0.09	552275	keystroke_Key.space	Key.space	n/a
276.2885	0.09	552577	keystroke_t	t	n/a
276.3485	0.09	552697	keystroke_e	e	n/a
276.7685	0.1495	553537	keystroke_x	x	n/a
276.8725	0.165	553745	keystroke_t	t	n/a
277.158	0.089	554316	keystroke_i	i	n/a
277.564	0.089	555128	keystroke_l	l	n/a
277.758	0.1055	555516	keystroke_e	e	n/a
277.9385	0.15	555877	keystroke_s	s	n/a
278.163	0.089	556326	keystroke_Key.space	Key.space	n/a
278.5225	0.135	557045	keystroke_z	z	n/a
278.628	0.0895	557256	keystroke_o	o	n/a
278.7475	0.075	557495	keystroke_n	n	n/a
278.8525	0.105	557705	keystroke_i	i	n/a
279.0325	0.075	558065	keystroke_g	g	n/a
279.1225	0.06	558245	keystroke_n	n	n/a
279.1375	0.06	558275	keystroke_i	i	n/a
279.5275	0.045	559055	keystroke_Key.backspace	Key.backspace	n/a
279.648	0.2095	559296	keystroke_Key.backspace	Key.backspace	n/a
280.128	0.0445	560256	keystroke_Key.backspace	Key.backspace	n/a
280.3085	0.06	560617	keystroke_n	n	n/a
280.4275	0.06	560855	keystroke_g	g	n/a
280.968	0.06	561936	keystroke_Key.enter	Key.enter	n/a
281.0375	11.0165	562075	prompt	n/a	cassette kinase zope newspapers\n
281.6875	0.135	563375	keystroke_c	c	n/a
281.7925	0.091	563585	keystroke_a	a	n/a
281.8525	0.106	563705	keystroke_s	s	n/a
282.0335	0.09	564067	keystroke_s	s	n/a
282.1975	0.03	564395	keystroke_s	s	n/a
282.3025	0.061	564605	keystroke_e	e	n/a
282.4535	0.015	564907	keystroke_t	t	n/a
282.5285	0.045	565057	keystroke_t	t	n/a
282.9775	0.0455	565955	keystroke_Key.backspace	Key.backspace	n/a
283.0825	0.075	566165	keystroke_Key.backspace	Key.backspace	n/a
283.773	0.0605	567546	keystroke_t	t	n/a
283.9085	0.105	567817	keystroke_t	t	n/a
283.9825	0.105	567965	keystroke_e	e	n/a
284.4925	0.015	568985	keystroke_Key.backspace	Key.backspace	n/a
284.5225	0.06	569045	keystroke_Key.backspace	Key.backspace	n/a
284.6575	0.045	569315	keystroke_Key.backspace	Key.backspace	n/a
284.7925	0.045	569585	keystroke_Key.backspace	Key.backspace	n/a
284.8825	0.0755	569765	keystroke_Key.backspace	Key.backspace	n/a
285.1825	0.075	570365	keystroke_e	e	n/a
285.3025	0.0455	570605	keystroke_t	t	n/a
285.438	0.075	570876	keystroke_t	t	n/a
285.528	0.075	571056	keystroke_e	e	n/a
285.8125	0.06	571625	keystroke_Key.space	Key.space	n/a
286.338	0.09	572676	keystroke_k	k	n/a
286.5925	0.015	573185	keystroke_i	i	n/a
286.6985	0.06	573397	keystroke_n	n	n/a
286.9825	0.15	573965	keystroke_a	a	n/a
287.0575	0.015	574115	keystroke_s	s	n/a
287.1475	0.0755	574295	keystroke_s	s	n/a
287.3135	0.044	574627	keystroke_e	e	n/a
288.047	0.045	576094	keystroke_Key.backspace	Key.backspace	n/a
288.168	0.06	576336	keystroke_Key.backspace	Key.backspace	n/a
288.273	0.045	576546	keystroke_e	e	n/a
288.422	0.061	576844	keystroke_Key.space	Key.space	n/a
288.9485	0.149	577897	keystroke_z	z	n/a
289.1135	0.1645	578227	keystroke_o	o	n/a
289.263	0.105	578526	keystroke_p	p	n/a
289.428	0.075	578856	keystroke_e	e	n/a
289.608	0.0595	579216	keystroke_Key.space	Key.space	n/a
290.343	0.014	580686	keystroke_n	n	n/a
290.388	0.044	580776	keystroke_e	e	n/a
290.508	0.09	581016	keystroke_w	w	n/a
290.702	0.0605	581404	keystroke_s	s	n/a
290.868	0.0905	581736	keystroke_p	p	n/a
291.363	0.0905	582726	keystroke_a	a	n/a
291.4835	0.074	582967	keystroke_p	p	n/a
291.588	0.1195	583176	keystroke_e	e	n/a
291.663	0.165	583326	keystroke_r	r	n/a
291.798	0.105	583596	keystroke_s	s	n/a
291.9925	0.0605	583985	keystroke_Key.enter	Key.enter	n/a
292.0685	8.821	584137	prompt	n/a	tremendous basis toll elected\n
293.0425	0.015	586085	keystroke_t	t	n/a
293.088	0.1195	586176	keystroke_r	r	n/a
293.1775	0.091	586355	keystroke_e	e	n/a
293.343	0.06	586686	keystroke_m	m	n/a
293.538	0.045	587076	keystroke_d	d	n/a
293.8685	0.089	587737	keystroke_e	e	n/a
294.2575	0.0605	588515	keystroke_Key.backspace	Key.backspace	n/a
294.393	0.0445	588786	keystroke_Key.backspace	Key.backspace	n/a
294.468	0.1045	588936	keystroke_e	e	n/a
294.7375	0.046	589475	keystroke_n	n	n/a
294.858	0.0745	589716	keystroke_d	d	n/a
295.1585	0.0595	590317	keystroke_o	o	n/a
295.3975	0.045	590795	keystroke_u	u	n/a
295.6075	0.135	591215	keystroke_s	s	n/a
295.893	0.015	591786	keystroke_Key.space	Key.space	n/a
296.073	0.105	592146	keystroke_b	b	n/a
296.193	0.12	592386	keystroke_a	a	n/a
296.283	0.105	592566	keystroke_s	s	n/a
296.583	0.0745	593166	keystroke_i	i	n/a
296.7035	0.1045	593407	keystroke_s	s	n/a
296.8975	0.03	593795	keystroke_Key.space	Key.space	n/a
297.1235	0.029	594247	keystroke_t	t	n/a
297.1985	0.0745	594397	keystroke_o	o	n/a
297.5135	0.1195	595027	keystroke_l	l	n/a
297.678	0.165	595356	keystroke_l	l	n/a
297.858	0.044	595716	keystroke_Key.space	Key.space	n/a
298.053	0.165	596106	keystroke_e	e	n/a
298.188	0.12	596376	keystroke_c	c	n/a
298.4575	0.075	596915	keystroke_l	l	n/a
298.7275	0.06	597455	keystroke_Key.backspace	Key.backspace	n/a
298.8475	0.075	597695	keystroke_Key.backspace	Key.backspace	n/a
299.0735	0.044	598147	keystroke_l	l	n/a
299.1635	0.1045	598327	keystroke_e	e	n/a
299.2225	0.09	598445	keystroke_c	c	n/a
299.433	0.0745	598866	keystroke_t	t	n/a
299.5825	0.06	599165	keystroke_e	e	n/a
299.6585	0.029	599317	keystroke_e	e	n/a
299.6735	0.074	599347	keystroke_d	d	n/a
300.3625	0.06	600725	keystroke_Key.backspace	Key.backspace	n/a
300.468	0.0745	600936	keystroke_Key.backspace	Key.backspace	n/a
300.5725	0.075	601145	keystroke_d	d	n/a
300.8275	0.06	601655	keystroke_Key.enter	Key.enter	n/a
300.895	6.219	601790	prompt	n/a	holland missing gossip kings\n
301.638	0.0745	603276	keystroke_h	h	n/a
301.7285	0.0595	603457	keystroke_o	o	n/a
301.878	0.0755	603756	keystroke_l	l	n/a
302.028	0.105	604056	keystroke_l	l	n/a
302.268	0.06	604536	keystroke_n	n	n/a
302.283	0.12	604566	keystroke_a	a	n/a
302.853	0.045	605706	keystroke_Key.backspace	Key.backspace	n/a
302.958	0.075	605916	keystroke_Key.backspace	Key.backspace	n/a
303.048	0.135	606096	keystroke_a	a	n/a
303.168	0.075	606336	keystroke_n	n	n/a
303.273	0.075	606546	keystroke_d	d	n/a
303.378	0.059	606756	keystroke_Key.space	Key.space	n/a
303.543	0.0905	607086	keystroke_m	m	n/a
303.6185	0.075	607237	keystroke_i	i	n/a
303.7235	0.074	607447	keystroke_s	s	n/a
303.828	0.1495	607656	keystroke_s	s	n/a
304.458	0.0745	608916	keystroke_i	i	n/a
304.488	0.09	608976	keystroke_n	n	n/a
304.5925	0.0445	609185	keystroke_g	g	n/a
304.712	0.061	609424	keystroke_Key.space	Key.space	n/a
304.9075	0.0455	609815	keystroke_g	g	n/a
304.967	0.121	609934	keystroke_o	o	n/a
305.207	0.105	610414	keystroke_s	s	n/a
305.402	0.09	610804	keystroke_s	s	n/a
305.5825	0.0905	611165	keystroke_i	i	n/a
305.703	0.105	611406	keystroke_p	p	n/a
305.823	0.105	611646	keystroke_Key.space	Key.space	n/a
306.1085	0.074	612217	keystroke_k	k	n/a
306.273	0.0745	612546	keystroke_i	i	n/a
306.303	0.0745	612606	keystroke_n	n	n/a
306.588	0.075	613176	keystroke_g	g	n/a
306.648	0.09	613296	keystroke_s	s	n/a
307.053	0.06	614106	keystroke_Key.enter	Key.enter	n/a
307.1185	5.981	614237	prompt	n/a	objective dump polls jaguar\n
307.878	0.105	615756	keystroke_o	o	n/a
307.998	0.119	615996	keystroke_b	b	n/a
308.192	0.105	616384	keystroke_j	j	n/a
308.418	0.18	616836	keystroke_e	e	n/a
308.523	0.06	617046	keystroke_c	c	n/a
308.733	0.06	617466	keystroke_t	t	n/a
308.808	0.0905	617616	keystroke_i	i	n/a
308.943	0.089	617886	keystroke_v	v	n/a
309.003	0.06	618006	keystroke_e	e	n/a
309.108	0.075	618216	keystroke_Key.space	Key.space	n/a
309.3325	0.091	618665	keystroke_d	d	n/a
309.5125	0.045	619025	keystroke_u	u	n/a
309.708	0.1055	619416	keystroke_m	m	n/a
309.8135	0.06	619627	keystroke_p	p	n/a
309.933	0.09	619866	keystroke_Key.space	Key.space	n/a
310.218	0.09	620436	keystroke_p	p	n/a
310.353	0.1195	620706	keystroke_o	o	n/a
310.578	0.09	621156	keystroke_l	l	n/a
310.7425	0.1055	621485	keystroke_l	l	n/a
310.878	0.075	621756	keystroke_s	s	n/a
310.983	0.0595	621966	keystroke_Key.space	Key.space	n/a
311.2225	0.045	622445	keystroke_j	j	n/a
311.4785	0.1045	622957	keystroke_a	a	n/a
312.033	0.06	624066	keystroke_g	g	n/a
312.228	0.0745	624456	keystroke_u	u	n/a
312.408	0.09	624816	keystroke_a	a	n/a
312.4385	0.0745	624877	keystroke_r	r	n/a
313.008	0.09	626016	keystroke_Key.enter	Key.enter	n/a
313.104	6.49	626208	prompt	n/a	enhancing hispanic analog seminar\n
313.9525	0.075	627905	keystroke_e	e	n/a
314.058	0.0745	628116	keystroke_n	n	n/a
314.2975	0.0455	628595	keystroke_h	h	n/a
314.4325	0.12	628865	keystroke_a	a	n/a
314.5975	0.045	629195	keystroke_n	n	n/a
314.7475	0.0605	629495	keystroke_c	c	n/a
314.868	0.09	629736	keystroke_i	i	n/a
314.9275	0.045	629855	keystroke_n	n	n/a
315.078	0.044	630156	keystroke_g	g	n/a
315.138	0.044	630276	keystroke_Key.space	Key.space	n/a
315.6035	0.09	631207	keystroke_h	h	n/a
315.678	0.075	631356	keystroke_i	i	n/a
315.8275	0.1055	631655	keystroke_s	s	n/a
315.9925	0.1055	631985	keystroke_p	p	n/a
316.2025	0.1055	632405	keystroke_a	a	n/a
316.3685	0.0745	632737	keystroke_n	n	n/a
316.428	0.1055	632856	keystroke_i	i	n/a
316.5775	0.0755	633155	keystroke_c	c	n/a
316.7275	0.075	633455	keystroke_Key.space	Key.space	n/a
316.923	0.074	633846	keystroke_a	a	n/a
317.058	0.06	634116	keystroke_n	n	n/a
317.193	0.075	634386	keystroke_a	a	n/a
317.343	0.06	634686	keystroke_l	l	n/a
317.6575	0.06	635315	keystroke_o	o	n/a
317.8375	0.0455	635675	keystroke_g	g	n/a
318.227	0.06	636454	keystroke_Key.space	Key.space	n/a
318.393	0.06	636786	keystroke_s	s	n/a
318.5285	0.0745	637057	keystroke_e	e	n/a
318.663	0.075	637326	keystroke_m	m	n/a
318.752	0.045	637504	keystroke_i	i	n/a
318.8285	0.104	637657	keystroke_n	n	n/a
319.0825	0.075	638165	keystroke_a	a	n/a
319.203	0.045	638406	keystroke_r	r	n/a
319.5175	0.075	639035	keystroke_Key.enter	Key.enter	n/a
319.6005	4.314	639201	prompt	n/a	quote optional subject sing\n
320.388	0.105	640776	keystroke_q	q	n/a
320.508	0.105	641016	keystroke_u	u	n/a
320.568	0.105	641136	keystroke_o	o	n/a
320.6885	0.0595	641377	keystroke_t	t	n/a
320.733	0.075	641466	keystroke_e	e	n/a
320.8675	0.06	641735	keystroke_Key.space	Key.space	n/a
321.033	0.1045	642066	keystroke_o	o	n/a
321.1075	0.09	642215	keystroke_p	p	n/a
321.2425	0.045	642485	keystroke_t	t	n/a
321.3775	0.1205	642755	keystroke_i	i	n/a
321.4075	0.075	642815	keystroke_o	o	n/a
321.4525	0.091	642905	keystroke_n	n	n/a
321.5725	0.12	643145	keystroke_a	a	n/a
321.708	0.0595	643416	keystroke_l	l	n/a
322.0525	0.0905	644105	keystroke_Key.space	Key.space	n/a
322.278	0.105	644556	keystroke_s	s	n/a
322.3975	0.076	644795	keystroke_u	u	n/a
322.533	0.0595	645066	keystroke_b	b	n/a
322.6675	0.0755	645335	keystroke_j	j	n/a
322.803	0.135	645606	keystroke_e	e	n/a
322.9075	0.076	645815	keystroke_c	c	n/a
323.1025	0.06	646205	keystroke_t	t	n/a
323.2225	0.0755	646445	keystroke_Key.space	Key.space	n/a
323.3425	0.09	646685	keystroke_s	s	n/a
323.463	0.0745	646926	keystroke_i	i	n/a
323.508	0.06	647016	keystroke_n	n	n/a
323.6125	0.0755	647225	keystroke_g	g	n/a
323.853	0.059	647706	keystroke_Key.enter	Key.enter	n/a
323.9205	5.214	647841	prompt	n/a	tested findings take college\n
324.542	0.076	649084	keystroke_t	t	n/a
324.633	0.105	649266	keystroke_e	e	n/a
324.978	0.12	649956	keystroke_s	s	n/a
325.053	0.075	650106	keystroke_t	t	n/a
325.218	0.105	650436	keystroke_e	e	n/a
325.398	0.09	650796	keystroke_d	d	n/a
325.653	0.0745	651306	keystroke_Key.space	Key.space	n/a
325.818	0.059	651636	keystroke_f	f	n/a
325.923	0.0745	651846	keystroke_i	i	n/a
325.968	0.06	651936	keystroke_n	n	n/a
326.0575	0.075	652115	keystroke_d	d	n/a
326.1925	0.105	652385	keystroke_i	i	n/a
326.253	0.0895	652506	keystroke_n	n	n/a
326.3875	0.09	652775	keystroke_g	g	n/a
326.463	0.0895	652926	keystroke_s	s	n/a
326.958	0.06	653916	keystroke_Key.space	Key.space	n/a
327.033	0.09	654066	keystroke_t	t	n/a
327.138	0.1195	654276	keystroke_a	a	n/a
327.318	0.075	654636	keystroke_k	k	n/a
327.438	0.075	654876	keystroke_e	e	n/a
327.558	0.06	655116	keystroke_Key.space	Key.space	n/a
327.6775	0.0755	655355	keystroke_c	c	n/a
327.768	0.075	655536	keystroke_o	o	n/a
327.963	0.06	655926	keystroke_l	l	n/a
328.098	0.09	656196	keystroke_l	l	n/a
328.173	0.105	656346	keystroke_e	e	n/a
328.248	0.075	656496	keystroke_g	g	n/a
328.8335	0.0595	657667	keystroke_e	e	n/a
329.0575	0.075	658115	keystroke_Key.enter	Key.enter	n/a
329.138	6.3115	658276	prompt	n/a	mature through entertaining situations\n
329.958	0.0445	659916	keystroke_m	m	n/a
330.093	0.1195	660186	keystroke_a	a	n/a
330.167	0.076	660334	keystroke_t	t	n/a
330.318	0.06	660636	keystroke_u	u	n/a
330.437	0.106	660874	keystroke_r	r	n/a
330.4975	0.0895	660995	keystroke_e	e	n/a
330.647	0.075	661294	keystroke_Key.space	Key.space	n/a
330.827	0.09	661654	keystroke_t	t	n/a
330.918	0.045	661836	keystroke_h	h	n/a
331.007	0.09	662014	keystroke_r	r	n/a
331.083	0.0895	662166	keystroke_o	o	n/a
331.128	0.059	662256	keystroke_u	u	n/a
331.233	0.089	662466	keystroke_g	g	n/a
331.323	0.059	662646	keystroke_h	h	n/a
331.427	0.105	662854	keystroke_Key.space	Key.space	n/a
331.7875	0.061	663575	keystroke_e	e	n/a
332.013	0.059	664026	keystroke_n	n	n/a
332.1635	0.09	664327	keystroke_t	t	n/a
332.433	0.0905	664866	keystroke_e	e	n/a
332.478	0.134	664956	keystroke_r	r	n/a
332.7335	0.0745	665467	keystroke_t	t	n/a
332.8225	0.0905	665645	keystroke_a	a	n/a
333.078	0.0745	666156	keystroke_i	i	n/a
333.1685	0.089	666337	keystroke_n	n	n/a
333.2725	0.105	666545	keystroke_i	i	n/a
333.3475	0.075	666695	keystroke_n	n	n/a
333.4975	0.0605	666995	keystroke_g	g	n/a
333.603	0.075	667206	keystroke_Key.space	Key.space	n/a
334.0985	0.1195	668197	keystroke_s	s	n/a
334.427	0.076	668854	keystroke_i	i	n/a
334.578	0.0595	669156	keystroke_t	t	n/a
334.652	0.09	669304	keystroke_u	u	n/a
334.757	0.09	669514	keystroke_a	a	n/a
334.818	0.0605	669636	keystroke_t	t	n/a
334.893	0.105	669786	keystroke_i	i	n/a
334.937	0.0755	669874	keystroke_o	o	n/a
334.9525	0.0605	669905	keystroke_n	n	n/a
335.0725	0.0595	670145	keystroke_s	s	n/a
335.387	0.061	670774	keystroke_Key.enter	Key.enter	n/a
335.454	7.72	670908	prompt	n/a	higher importantly ruby seeks\n
336.228	0.03	672456	keystroke_h	h	n/a
336.6785	0.0895	673357	keystroke_i	i	n/a
336.873	0.0445	673746	keystroke_g	g	n/a
336.933	0.0595	673866	keystroke_h	h	n/a
337.0825	0.09	674165	keystroke_e	e	n/a
337.1275	0.0905	674255	keystroke_r	r	n/a
337.2775	0.0755	674555	keystroke_Key.space	Key.space	n/a
337.5475	0.0755	675095	keystroke_i	i	n/a
337.593	0.12	675186	keystroke_m	m	n/a
337.7275	0.18	675455	keystroke_p	p	n/a
337.8925	0.15	675785	keystroke_o	o	n/a
338.642	0.076	677284	keystroke_r	r	n/a
338.8075	0.0905	677615	keystroke_t	t	n/a
339.107	0.075	678214	keystroke_n	n	n/a
339.272	0.075	678544	keystroke_a	a	n/a
339.527	0.045	679054	keystroke_Key.backspace	Key.backspace	n/a
339.6475	0.075	679295	keystroke_Key.backspace	Key.backspace	n/a
339.7375	0.09	679475	keystroke_a	a	n/a
339.8425	0.06	679685	keystroke_n	n	n/a
339.9925	0.0605	679985	keystroke_t	t	n/a
340.0675	0.075	680135	keystroke_l	l	n/a
340.1875	0.015	680375	keystroke_y	y	n/a
340.2325	0.0605	680465	keystroke_Key.space	Key.space	n/a
340.938	0.074	681876	keystroke_r	r	n/a
341.058	0.059	682116	keystroke_u	u	n/a
341.177	0.091	682354	keystroke_b	b	n/a
341.387	0.046	682774	keystroke_y	y	n/a
341.477	0.0755	682954	keystroke_Key.space	Key.space	n/a
341.643	0.09	683286	keystroke_s	s	n/a
341.823	0.06	683646	keystroke_e	e	n/a
341.972	0.061	683944	keystroke_e	e	n/a
342.047	0.075	684094	keystroke_k	k	n/a
342.138	0.09	684276	keystroke_s	s	n/a
342.3025	0.0595	684605	keystroke_Key.space	Key.space	n/a
342.887	0.061	685774	keystroke_Key.backspace	Key.backspace	n/a
343.113	0.06	686226	keystroke_Key.enter	Key.enter	n/a
343.1795	1.51	686359	prompt	n/a	phil reprint watching aggregate\n
343.878	0.059	687756	keystroke_p	p	n/a
344.043	0.119	688086	keystroke_h	h	n/a
344.133	0.15	688266	keystroke_i	i	n/a
344.238	0.1195	688476	keystroke_l	l	n/a
344.598	0.089	689196	keystroke_Key.enter	Key.enter	n/a
344.6955	8.696	689391	prompt	n/a	couple regarded customize suspected\n
345.8725	0.1205	691745	keystroke_c	c	n/a
346.008	0.18	692016	keystroke_o	o	n/a
346.128	0.0905	692256	keystroke_u	u	n/a
346.173	0.134	692346	keystroke_p	p	n/a
346.353	0.12	692706	keystroke_l	l	n/a
346.5175	0.0755	693035	keystroke_e	e	n/a
346.6825	0.0755	693365	keystroke_Key.space	Key.space	n/a
346.938	0.075	693876	keystroke_r	r	n/a
346.983	0.0755	693966	keystroke_e	e	n/a
347.2235	0.0745	694447	keystroke_g	g	n/a
347.4475	0.0605	694895	keystroke_r	r	n/a
347.583	0.075	695166	keystroke_d	d	n/a
348.0175	0.06	696035	keystroke_Key.backspace	Key.backspace	n/a
348.1375	0.06	696275	keystroke_Key.backspace	Key.backspace	n/a
348.2125	0.1205	696425	keystroke_a	a	n/a
348.2875	0.06	696575	keystroke_r	r	n/a
348.5875	0.0605	697175	keystroke_d	d	n/a
348.633	0.0895	697266	keystroke_e	e	n/a
348.7085	0.089	697417	keystroke_d	d	n/a
348.8875	0.0745	697775	keystroke_Key.space	Key.space	n/a
349.6075	0.1045	699215	keystroke_c	c	n/a
349.728	0.06	699456	keystroke_u	u	n/a
349.833	0.15	699666	keystroke_s	s	n/a
349.968	0.06	699936	keystroke_t	t	n/a
350.058	0.135	700116	keystroke_o	o	n/a
350.163	0.135	700326	keystroke_m	m	n/a
350.313	0.12	700626	keystroke_i	i	n/a
350.5375	0.1655	701075	keystroke_z	z	n/a
350.613	0.1345	701226	keystroke_e	e	n/a
350.8375	0.0605	701675	keystroke_Key.space	Key.space	n/a
350.988	0.09	701976	keystroke_s	s	n/a
351.0925	0.0605	702185	keystroke_u	u	n/a
351.2125	0.09	702425	keystroke_s	s	n/a
351.3925	0.09	702785	keystroke_p	p	n/a
351.6175	0.135	703235	keystroke_e	e	n/a
351.7385	0.0895	703477	keystroke_c	c	n/a
351.947	0.09	703894	keystroke_t	t	n/a
352.068	0.1645	704136	keystroke_e	e	n/a
352.6825	0.076	705365	keystroke_d	d	n/a
353.343	0.045	706686	keystroke_Key.enter	Key.enter	n/a
353.401	5.883	706802	prompt	n/a	networks acute want controversial\n
354.0185	0.0745	708037	keystroke_n	n	n/a
354.153	0.12	708306	keystroke_e	e	n/a
354.2585	0.0745	708517	keystroke_t	t	n/a
354.408	0.09	708816	keystroke_w	w	n/a
354.483	0.0755	708966	keystroke_o	o	n/a
354.692	0.062	709384	keystroke_r	r	n/a
354.738	0.09	709476	keystroke_k	k	n/a
354.932	0.121	709864	keystroke_s	s	n/a
355.158	0.089	710316	keystroke_Key.space	Key.space	n/a
355.322	0.105	710644	keystroke_a	a	n/a
355.413	0.059	710826	keystroke_c	c	n/a
355.562	0.061	711124	keystroke_u	u	n/a
355.698	0.06	711396	keystroke_t	t	n/a
355.773	0.09	711546	keystroke_e	e	n/a
355.953	0.06	711906	keystroke_Key.space	Key.space	n/a
356.5225	0.165	713045	keystroke_w	w	n/a
356.5675	0.1805	713135	keystroke_a	a	n/a
356.778	0.0745	713556	keystroke_n	n	n/a
356.9275	0.061	713855	keystroke_t	t	n/a
357.0175	0.075	714035	keystroke_Key.space	Key.space	n/a
357.1525	0.076	714305	keystroke_c	c	n/a
357.243	0.105	714486	keystroke_o	o	n/a
357.3335	0.075	714667	keystroke_n	n	n/a
357.4825	0.075	714965	keystroke_t	t	n/a
357.618	0.075	715236	keystroke_r	r	n/a
357.768	0.075	715536	keystroke_o	o	n/a
358.113	0.12	716226	keystroke_v	v	n/a
358.2335	0.1645	716467	keystroke_e	e	n/a
358.353	0.21	716706	keystroke_r	r	n/a
358.533	0.149	717066	keystroke_s	s	n/a
358.698	0.0445	717396	keystroke_i	i	n/a
358.8025	0.1205	717605	keystroke_a	a	n/a
358.9525	0.09	717905	keystroke_l	l	n/a
359.208	0.075	718416	keystroke_Key.enter	Key.enter	n/a
359.2945	7.415	718589	prompt	n/a	garlic sony characteristic charity\n
359.973	0.09	719946	keystroke_g	g	n/a
360.077	0.166	720154	keystroke_a	a	n/a
360.182	0.075	720364	keystroke_r	r	n/a
360.392	0.1055	720784	keystroke_l	l	n/a
360.483	0.1045	720966	keystroke_i	i	n/a
360.632	0.0905	721264	keystroke_c	c	n/a
360.888	0.059	721776	keystroke_Key.space	Key.space	n/a
361.0225	0.1195	722045	keystroke_s	s	n/a
361.1275	0.0905	722255	keystroke_o	o	n/a
361.203	0.089	722406	keystroke_n	n	n/a
361.548	0.0595	723096	keystroke_y	y	n/a
361.6675	0.09	723335	keystroke_Key.space	Key.space	n/a
361.8775	0.075	723755	keystroke_c	c	n/a
362.013	0.0445	724026	keystroke_h	h	n/a
362.0875	0.105	724175	keystroke_a	a	n/a
362.208	0.045	724416	keystroke_r	r	n/a
362.298	0.06	724596	keystroke_a	a	n/a
363.243	0.09	726486	keystroke_c	c	n/a
363.647	0.061	727294	keystroke_t	t	n/a
363.723	0.135	727446	keystroke_e	e	n/a
363.8125	0.105	727625	keystroke_r	r	n/a
363.9925	0.075	727985	keystroke_i	i	n/a
364.1725	0.06	728345	keystroke_e	e	n/a
364.578	0.045	729156	keystroke_Key.backspace	Key.backspace	n/a
364.654	0.149	729308	keystroke_s	s	n/a
364.743	0.0755	729486	keystroke_t	t	n/a
364.908	0.06	729816	keystroke_i	i	n/a
365.103	0.09	730206	keystroke_c	c	n/a
365.283	0.06	730566	keystroke_Key.space	Key.space	n/a
365.5525	0.076	731105	keystroke_c	c	n/a
365.6435	0.06	731287	keystroke_h	h	n/a
365.763	0.09	731526	keystroke_a	a	n/a
365.853	0.0595	731706	keystroke_r	r	n/a
366.048	0.0595	732096	keystroke_i	i	n/a
366.198	0.0455	732396	keystroke_t	t	n/a
366.6325	0.075	733265	keystroke_Key.enter	Key.enter	n/a
366.7175	7.597	733435	prompt	n/a	spaces deal prefers politics\n
367.6225	0.12	735245	keystroke_s	s	n/a
367.7575	0.09	735515	keystroke_p	p	n/a
367.8625	0.12	735725	keystroke_a	a	n/a
367.9525	0.136	735905	keystroke_c	c	n/a
368.0725	0.09	736145	keystroke_e	e	n/a
368.283	0.075	736566	keystroke_s	s	n/a
368.403	0.06	736806	keystroke_Key.space	Key.space	n/a
368.568	0.09	737136	keystroke_d	d	n/a
368.748	0.1345	737496	keystroke_e	e	n/a
368.7625	0.015	737525	keystroke_d	d	n/a
368.898	0.045	737796	keystroke_a	a	n/a
368.9875	0.09	737975	keystroke_l	l	n/a
369.483	0.0445	738966	keystroke_Key.backspace	Key.backspace	n/a
369.6025	0.0745	739205	keystroke_Key.backspace	Key.backspace	n/a
369.707	0.1055	739414	keystroke_Key.backspace	Key.backspace	n/a
369.8585	0.135	739717	keystroke_a	a	n/a
370.0375	0.075	740075	keystroke_l	l	n/a
370.158	0.0745	740316	keystroke_Key.space	Key.space	n/a
370.3375	0.09	740675	keystroke_p	p	n/a
370.4875	0.076	740975	keystroke_r	r	n/a
370.5325	0.076	741065	keystroke_e	e	n/a
370.6535	0.1045	741307	keystroke_f	f	n/a
370.7135	0.119	741427	keystroke_e	e	n/a
370.7875	0.0905	741575	keystroke_r	r	n/a
371.043	0.1645	742086	keystroke_s	s	n/a
371.2675	0.09	742535	keystroke_Key.space	Key.space	n/a
371.418	0.0905	742836	keystroke_p	p	n/a
371.6285	0.104	743257	keystroke_o	o	n/a
371.838	0.1345	743676	keystroke_l	l	n/a
371.943	0.0745	743886	keystroke_i	i	n/a
372.1075	0.046	744215	keystroke_t	t	n/a
372.168	0.075	744336	keystroke_i	i	n/a
372.3035	0.105	744607	keystroke_f	f	n/a
372.3475	0.076	744695	keystroke_i	i	n/a
372.753	0.059	745506	keystroke_Key.backspace	Key.backspace	n/a
372.858	0.1045	745716	keystroke_c	c	n/a
372.932	0.061	745864	keystroke_s	s	n/a
373.127	0.075	746254	keystroke_Key.backspace	Key.backspace	n/a
373.2475	0.0905	746495	keystroke_Key.backspace	Key.backspace	n/a
373.383	0.074	746766	keystroke_Key.backspace	Key.backspace	n/a
373.488	0.0895	746976	keystroke_c	c	n/a
373.547	0.0905	747094	keystroke_s	s	n/a
374.1775	0.1355	748355	keystroke_Key.enter	Key.enter	n/a
374.3185	7.0765	748637	prompt	n/a	cincinnati costa uncle dishes\n
375.003	0.1195	750006	keystroke_c	c	n/a
375.2125	0.09	750425	keystroke_i	i	n/a
375.2885	0.1045	750577	keystroke_n	n	n/a
375.5275	0.06	751055	keystroke_c	c	n/a
375.6335	0.0745	751267	keystroke_i	i	n/a
375.9325	0.0755	751865	keystroke_n	n	n/a
376.083	0.0745	752166	keystroke_n	n	n/a
376.218	0.1345	752436	keystroke_a	a	n/a
376.398	0.0745	752796	keystroke_i	i	n/a
377.2525	0.06	754505	keystroke_Key.backspace	Key.backspace	n/a
377.4175	0.045	754835	keystroke_t	t	n/a
377.5385	0.074	755077	keystroke_i	i	n/a
377.7175	0.0605	755435	keystroke_Key.space	Key.space	n/a
377.808	0.09	755616	keystroke_c	c	n/a
377.958	0.09	755916	keystroke_o	o	n/a
378.168	0.135	756336	keystroke_s	s	n/a
378.2885	0.09	756577	keystroke_t	t	n/a
378.393	0.09	756786	keystroke_a	a	n/a
378.6925	0.03	757385	keystroke_Key.space	Key.space	n/a
379.278	0.075	758556	keystroke_u	u	n/a
379.4275	0.06	758855	keystroke_n	n	n/a
379.5475	0.0745	759095	keystroke_c	c	n/a
379.6685	0.06	759337	keystroke_l	l	n/a
379.788	0.045	759576	keystroke_e	e	n/a
380.2825	0.06	760565	keystroke_Key.space	Key.space	n/a
380.3875	0.09	760775	keystroke_d	d	n/a
380.492	0.0755	760984	keystroke_i	i	n/a
380.5835	0.12	761167	keystroke_s	s	n/a
380.7475	0.0605	761495	keystroke_h	h	n/a
380.8375	0.075	761675	keystroke_e	e	n/a
381.0025	0.075	762005	keystroke_s	s	n/a
381.317	0.075	762634	keystroke_Key.enter	Key.enter	n/a
381.3995	4.03	762799	prompt	n/a	bend they've dies labs\n
382.0375	0.09	764075	keystroke_b	b	n/a
382.083	0.1345	764166	keystroke_e	e	n/a
382.263	0.0595	764526	keystroke_n	n	n/a
382.353	0.1045	764706	keystroke_d	d	n/a
382.6075	0.0605	765215	keystroke_Key.space	Key.space	n/a
382.773	0.0595	765546	keystroke_t	t	n/a
382.8925	0.06	765785	keystroke_h	h	n/a
382.953	0.1195	765906	keystroke_e	e	n/a
383.0725	0.0755	766145	keystroke_y	y	n/a
383.1775	0.1055	766355	keystroke_'	'	n/a
383.3425	0.075	766685	keystroke_v	v	n/a
383.373	0.09	766746	keystroke_e	e	n/a
383.778	0.075	767556	keystroke_Key.space	Key.space	n/a
383.868	0.075	767736	keystroke_d	d	n/a
383.9875	0.0905	767975	keystroke_i	i	n/a
384.258	0.09	768516	keystroke_e	e	n/a
384.468	0.09	768936	keystroke_s	s	n/a
384.617	0.076	769234	keystroke_Key.space	Key.space	n/a
384.798	0.074	769596	keystroke_l	l	n/a
384.902	0.1355	769804	keystroke_a	a	n/a
385.0235	0.0745	770047	keystroke_b	b	n/a
385.1575	0.1055	770315	keystroke_s	s	n/a
385.338	0.09	770676	keystroke_Key.enter	Key.enter	n/a
385.436	4.7035	770872	prompt	n/a	disks move dive matt\n
386.0435	0.075	772087	keystroke_d	d	n/a
386.2085	0.059	772417	keystroke_i	i	n/a
386.2835	0.18	772567	keystroke_s	s	n/a
386.3885	0.06	772777	keystroke_c	c	n/a
386.5835	0.075	773167	keystroke_k	k	n/a
386.8975	0.045	773795	keystroke_Key.backspace	Key.backspace	n/a
387.0025	0.06	774005	keystroke_Key.backspace	Key.backspace	n/a
387.2585	0.029	774517	keystroke_k	k	n/a
387.318	0.0895	774636	keystroke_s	s	n/a
387.4825	0.075	774965	keystroke_Key.space	Key.space	n/a
387.6775	0.1045	775355	keystroke_m	m	n/a
387.768	0.075	775536	keystroke_o	o	n/a
387.857	0.09	775714	keystroke_v	v	n/a
387.903	0.0745	775806	keystroke_e	e	n/a
388.0525	0.045	776105	keystroke_Key.space	Key.space	n/a
388.1875	0.075	776375	keystroke_d	d	n/a
388.2785	0.0745	776557	keystroke_i	i	n/a
388.4725	0.09	776945	keystroke_v	v	n/a
388.5325	0.075	777065	keystroke_e	e	n/a
389.073	0.06	778146	keystroke_Key.space	Key.space	n/a
389.268	0.075	778536	keystroke_m	m	n/a
389.373	0.105	778746	keystroke_a	a	n/a
389.553	0.06	779106	keystroke_t	t	n/a
389.6885	0.1045	779377	keystroke_t	t	n/a
390.048	0.089	780096	keystroke_Key.enter	Key.enter	n/a
390.1435	10.361	780287	prompt	n/a	availability jewish band transportation\n
390.8725	0.165	781745	keystroke_a	a	n/a
391.098	0.075	782196	keystroke_c	c	n/a
391.5775	0.06	783155	keystroke_Key.backspace	Key.backspace	n/a
391.6825	0.1055	783365	keystroke_v	v	n/a
391.772	0.091	783544	keystroke_a	a	n/a
391.9235	0.105	783847	keystroke_i	i	n/a
392.043	0.135	784086	keystroke_l	l	n/a
392.133	0.075	784266	keystroke_i	i	n/a
392.148	0.15	784296	keystroke_a	a	n/a
392.492	0.061	784984	keystroke_b	b	n/a
392.763	0.059	785526	keystroke_Key.backspace	Key.backspace	n/a
392.8825	0.0745	785765	keystroke_Key.backspace	Key.backspace	n/a
393.048	0.059	786096	keystroke_Key.backspace	Key.backspace	n/a
393.213	0.044	786426	keystroke_Key.backspace	Key.backspace	n/a
394.0225	0.075	788045	keystroke_l	l	n/a
394.1875	0.1505	788375	keystroke_a	a	n/a
394.3225	0.105	788645	keystroke_b	b	n/a
394.502	0.121	789004	keystroke_i	i	n/a
394.608	0.149	789216	keystroke_l	l	n/a
394.697	0.105	789394	keystroke_i	i	n/a
394.8335	0.0735	789667	keystroke_t	t	n/a
394.967	0.03	789934	keystroke_y	y	n/a
395.042	0.045	790084	keystroke_Key.space	Key.space	n/a
395.253	0.059	790506	keystroke_j	j	n/a
395.358	0.074	790716	keystroke_e	e	n/a
395.522	0.0765	791044	keystroke_w	w	n/a
395.658	0.06	791316	keystroke_i	i	n/a
395.792	0.091	791584	keystroke_s	s	n/a
395.8685	0.0595	791737	keystroke_h	h	n/a
395.942	0.045	791884	keystroke_Key.space	Key.space	n/a
396.123	0.06	792246	keystroke_b	b	n/a
396.167	0.106	792334	keystroke_a	a	n/a
396.304	0.074	792608	keystroke_n	n	n/a
396.4085	0.0735	792817	keystroke_d	d	n/a
396.512	0.076	793024	keystroke_Key.space	Key.space	n/a
396.692	0.0765	793384	keystroke_t	t	n/a
396.828	0.089	793656	keystroke_r	r	n/a
396.903	0.0745	793806	keystroke_a	a	n/a
396.9925	0.061	793985	keystroke_n	n	n/a
397.143	0.0905	794286	keystroke_s	s	n/a
397.458	0.09	794916	keystroke_p	p	n/a
397.653	0.0755	795306	keystroke_o	o	n/a
397.878	0.0745	795756	keystroke_r	r	n/a
397.998	0.0895	795996	keystroke_t	t	n/a
398.2235	0.06	796447	keystroke_a	a	n/a
398.5085	0.059	797017	keystroke_n	n	n/a
398.6725	0.0755	797345	keystroke_t	t	n/a
398.8975	0.075	797795	keystroke_i	i	n/a
398.9285	0.059	797857	keystroke_o	o	n/a
399.1975	0.0305	798395	keystroke_Key.backspace	Key.backspace	n/a
399.3175	0.045	798635	keystroke_Key.backspace	Key.backspace	n/a
399.4225	0.0745	798845	keystroke_Key.backspace	Key.backspace	n/a
399.573	0.0595	799146	keystroke_Key.backspace	Key.backspace	n/a
399.7225	0.06	799445	keystroke_t	t	n/a
399.9175	0.136	799835	keystroke_i	i	n/a
399.9475	0.121	799895	keystroke_o	o	n/a
400.0235	0.0595	800047	keystroke_n	n	n/a
400.443	0.06	800886	keystroke_Key.enter	Key.enter	n/a
400.5145	6.665	801029	prompt	n/a	invalid department experiment ward\n
401.2535	0.09	802507	keystroke_i	i	n/a
401.3135	0.074	802627	keystroke_n	n	n/a
401.4475	0.105	802895	keystroke_v	v	n/a
401.568	0.0445	803136	keystroke_a	a	n/a
401.673	0.09	803346	keystroke_l	l	n/a
401.748	0.075	803496	keystroke_i	i	n/a
401.8985	0.074	803797	keystroke_d	d	n/a
402.0025	0.0595	804005	keystroke_Key.space	Key.space	n/a
402.663	0.18	805326	keystroke_d	d	n/a
402.798	0.09	805596	keystroke_e	e	n/a
402.933	0.075	805866	keystroke_p	p	n/a
403.068	0.135	806136	keystroke_a	a	n/a
403.143	0.0755	806286	keystroke_r	r	n/a
403.278	0.09	806556	keystroke_t	t	n/a
403.443	0.045	806886	keystroke_m	m	n/a
403.533	0.105	807066	keystroke_e	e	n/a
403.623	0.0755	807246	keystroke_n	n	n/a
403.803	0.045	807606	keystroke_t	t	n/a
403.938	0.045	807876	keystroke_Key.space	Key.space	n/a
404.478	0.075	808956	keystroke_e	e	n/a
404.703	0.0595	809406	keystroke_x	x	n/a
404.748	0.0595	809496	keystroke_p	p	n/a
404.883	0.0755	809766	keystroke_e	e	n/a
404.928	0.135	809856	keystroke_r	r	n/a
405.0485	0.0445	810097	keystroke_i	i	n/a
405.183	0.045	810366	keystroke_m	m	n/a
405.213	0.0755	810426	keystroke_e	e	n/a
405.993	0.06	811986	keystroke_n	n	n/a
406.098	0.015	812196	keystroke_t	t	n/a
406.1875	0.075	812375	keystroke_Key.space	Key.space	n/a
406.3675	0.0755	812735	keystroke_w	w	n/a
406.623	0.105	813246	keystroke_a	a	n/a
406.713	0.03	813426	keystroke_r	r	n/a
406.878	0.06	813756	keystroke_d	d	n/a
407.103	0.075	814206	keystroke_Key.enter	Key.enter	n/a
407.183	5.5915	814366	prompt	n/a	retirement ebook brad charging\n
407.763	0.0895	815526	keystroke_r	r	n/a
407.823	0.09	815646	keystroke_e	e	n/a
407.973	0.075	815946	keystroke_t	t	n/a
408.093	0.075	816186	keystroke_i	i	n/a
408.2125	0.076	816425	keystroke_r	r	n/a
408.3185	0.135	816637	keystroke_e	e	n/a
408.5435	0.059	817087	keystroke_m	m	n/a
408.6625	0.0905	817325	keystroke_e	e	n/a
408.768	0.075	817536	keystroke_n	n	n/a
408.9035	0.074	817807	keystroke_t	t	n/a
409.0225	0.0755	818045	keystroke_Key.space	Key.space	n/a
409.728	0.03	819456	keystroke_e	e	n/a
409.9385	0.0445	819877	keystroke_b	b	n/a
410.043	0.045	820086	keystroke_o	o	n/a
410.163	0.09	820326	keystroke_o	o	n/a
410.238	0.09	820476	keystroke_k	k	n/a
410.403	0.075	820806	keystroke_Key.space	Key.space	n/a
410.583	0.045	821166	keystroke_b	b	n/a
410.763	0.074	821526	keystroke_r	r	n/a
410.853	0.09	821706	keystroke_a	a	n/a
411.033	0.075	822066	keystroke_d	d	n/a
411.168	0.0595	822336	keystroke_Key.space	Key.space	n/a
411.3175	0.09	822635	keystroke_c	c	n/a
411.4385	0.06	822877	keystroke_h	h	n/a
411.5275	0.12	823055	keystroke_a	a	n/a
411.6175	0.06	823235	keystroke_r	r	n/a
412.067	0.075	824134	keystroke_g	g	n/a
412.248	0.09	824496	keystroke_i	i	n/a
412.277	0.0755	824554	keystroke_n	n	n/a
412.368	0.075	824736	keystroke_g	g	n/a
412.7125	0.06	825425	keystroke_Key.enter	Key.enter	n/a
412.7775	6.4635	825555	prompt	n/a	inquire separated forwarding careful\n
413.5375	0.0905	827075	keystroke_i	i	n/a
413.613	0.044	827226	keystroke_n	n	n/a
413.7025	0.075	827405	keystroke_q	q	n/a
413.853	0.0895	827706	keystroke_u	u	n/a
413.913	0.06	827826	keystroke_i	i	n/a
414.0175	0.0615	828035	keystroke_r	r	n/a
414.0635	0.0595	828127	keystroke_e	e	n/a
414.3335	0.0445	828667	keystroke_Key.space	Key.space	n/a
414.558	0.075	829116	keystroke_s	s	n/a
414.9625	0.015	829925	keystroke_e	e	n/a
415.383	0.0755	830766	keystroke_p	p	n/a
415.5175	0.1055	831035	keystroke_a	a	n/a
416.073	0.09	832146	keystroke_r	r	n/a
416.298	0.165	832596	keystroke_a	a	n/a
416.418	0.09	832836	keystroke_t	t	n/a
416.553	0.15	833106	keystroke_e	e	n/a
416.643	0.105	833286	keystroke_d	d	n/a
416.808	0.06	833616	keystroke_Key.space	Key.space	n/a
416.928	0.045	833856	keystroke_f	f	n/a
416.988	0.09	833976	keystroke_o	o	n/a
417.108	0.12	834216	keystroke_r	r	n/a
417.183	0.1655	834366	keystroke_w	w	n/a
417.257	0.12	834514	keystroke_a	a	n/a
417.333	0.105	834666	keystroke_r	r	n/a
417.498	0.09	834996	keystroke_d	d	n/a
417.708	0.0895	835416	keystroke_i	i	n/a
417.753	0.0595	835506	keystroke_n	n	n/a
417.888	0.0595	835776	keystroke_g	g	n/a
417.9775	0.0755	835955	keystroke_Key.space	Key.space	n/a
418.143	0.09	836286	keystroke_c	c	n/a
418.248	0.12	836496	keystroke_a	a	n/a
418.383	0.09	836766	keystroke_r	r	n/a
418.473	0.09	836946	keystroke_e	e	n/a
418.6085	0.0745	837217	keystroke_f	f	n/a
418.773	0.0605	837546	keystroke_u	u	n/a
418.953	0.045	837906	keystroke_l	l	n/a
419.163	0.075	838326	keystroke_Key.enter	Key.enter	n/a
419.25	8.0895	838500	prompt	n/a	fails activity providence thermal\n
419.8525	0.1205	839705	keystroke_f	f	n/a
419.958	0.075	839916	keystroke_a	a	n/a
420.093	0.0445	840186	keystroke_i	i	n/a
420.258	0.075	840516	keystroke_l	l	n/a
420.363	0.09	840726	keystroke_s	s	n/a
420.468	0.075	840936	keystroke_Key.space	Key.space	n/a
420.9325	0.1355	841865	keystroke_a	a	n/a
421.098	0.1055	842196	keystroke_c	c	n/a
421.697	0.046	843394	keystroke_t	t	n/a
421.788	0.045	843576	keystroke_i	i	n/a
421.967	0.076	843934	keystroke_v	v	n/a
422.028	0.0905	844056	keystroke_i	i	n/a
422.2235	0.06	844447	keystroke_t	t	n/a
422.238	0.09	844476	keystroke_i	i	n/a
422.523	0.029	845046	keystroke_y	y	n/a
422.9125	0.0595	845825	keystroke_Key.backspace	Key.backspace	n/a
423.033	0.074	846066	keystroke_Key.backspace	Key.backspace	n/a
423.243	0.03	846486	keystroke_y	y	n/a
423.392	0.0605	846784	keystroke_Key.space	Key.space	n/a
423.723	0.014	847446	keystroke_p	p	n/a
423.8425	0.0605	847685	keystroke_r	r	n/a
423.8875	0.045	847775	keystroke_p	p	n/a
424.4425	0.015	848885	keystroke_Key.backspace	Key.backspace	n/a
424.608	0.0455	849216	keystroke_o	o	n/a
424.773	0.0595	849546	keystroke_v	v	n/a
424.833	0.0445	849666	keystroke_i	i	n/a
424.9525	0.135	849905	keystroke_d	d	n/a
425.0275	0.09	850055	keystroke_e	e	n/a
425.1625	0.075	850325	keystroke_n	n	n/a
425.3275	0.03	850655	keystroke_t	t	n/a
425.5225	0.105	851045	keystroke_c	c	n/a
425.823	0.06	851646	keystroke_Key.backspace	Key.backspace	n/a
425.943	0.06	851886	keystroke_Key.backspace	Key.backspace	n/a
425.988	0.09	851976	keystroke_c	c	n/a
426.048	0.06	852096	keystroke_e	e	n/a
426.153	0.074	852306	keystroke_Key.space	Key.space	n/a
426.4075	0.06	852815	keystroke_t	t	n/a
426.498	0.0595	852996	keystroke_h	h	n/a
426.5725	0.1205	853145	keystroke_e	e	n/a
426.6325	0.09	853265	keystroke_r	r	n/a
426.7825	0.06	853565	keystroke_m	m	n/a
426.9175	0.0755	853835	keystroke_a	a	n/a
427.0225	0.0605	854045	keystroke_l	l	n/a
427.278	0.06	854556	keystroke_Key.enter	Key.enter	n/a
427.344	8.0505	854688	prompt	n/a	environments hawaiian sunset yamaha\n
427.412	0.106	854824	keystroke_s	s	n/a
427.9225	0.0445	855845	keystroke_Key.backspace	Key.backspace	n/a
428.3285	0.045	856657	keystroke_e	e	n/a
428.4025	0.075	856805	keystroke_n	n	n/a
428.5075	0.06	857015	keystroke_v	v	n/a
428.6275	0.061	857255	keystroke_i	i	n/a
428.733	0.0755	857466	keystroke_r	r	n/a
428.8385	0.105	857677	keystroke_o	o	n/a
428.9285	0.06	857857	keystroke_n	n	n/a
429.1225	0.075	858245	keystroke_m	m	n/a
429.3025	0.061	858605	keystroke_e	e	n/a
429.3935	0.075	858787	keystroke_n	n	n/a
429.5135	0.045	859027	keystroke_t	t	n/a
429.618	0.1195	859236	keystroke_s	s	n/a
429.7825	0.075	859565	keystroke_Key.space	Key.space	n/a
430.1575	0.045	860315	keystroke_h	h	n/a
430.308	0.15	860616	keystroke_a	a	n/a
430.4425	0.2555	860885	keystroke_w	w	n/a
430.6525	0.09	861305	keystroke_a	a	n/a
431.4775	0.075	862955	keystroke_i	i	n/a
431.6125	0.0905	863225	keystroke_i	i	n/a
431.748	0.135	863496	keystroke_a	a	n/a
431.913	0.075	863826	keystroke_n	n	n/a
432.0925	0.0595	864185	keystroke_Key.space	Key.space	n/a
432.2285	0.09	864457	keystroke_s	s	n/a
432.3335	0.045	864667	keystroke_u	u	n/a
432.4835	0.0735	864967	keystroke_n	n	n/a
432.6025	0.09	865205	keystroke_s	s	n/a
