onset	duration	sample	value	key	prompt_text
11.5365	14.1485	23073	prompt	n/a	the quick brown fox jumps over a lazy dog\n
13.4445	0.001	26889	keystroke	t	n/a
13.4575	0.105	26915	keystroke	h	n/a
13.607	0.1055	27214	keystroke	e	n/a
13.7125	0.075	27425	keystroke	Key.space	n/a
15.453	0.09	30906	keystroke	q	n/a
15.588	0.15	31176	keystroke	u	n/a
15.707	0.091	31414	keystroke	i	n/a
15.828	0.075	31656	keystroke	d	n/a
15.918	0.135	31836	keystroke	k	n/a
16.098	0.105	32196	keystroke	Key.space	n/a
16.728	0.03	33456	keystroke	=	n/a
17.5525	0.09	35105	keystroke	Key.backspace	n/a
17.7625	0.045	35525	keystroke	Key.backspace	n/a
17.9575	0.045	35915	keystroke	Key.backspace	n/a
18.198	0.044	36396	keystroke	Key.backspace	n/a
18.722	0.166	37444	keystroke	c	n/a
18.978	0.089	37956	keystroke	k	n/a
19.097	0.12	38194	keystroke	Key.space	n/a
19.263	0.104	38526	keystroke	b	n/a
19.352	0.075	38704	keystroke	r	n/a
19.517	0.06	39034	keystroke	o	n/a
19.592	0.12	39184	keystroke	w	n/a
19.742	0.12	39484	keystroke	n	n/a
19.877	0.09	39754	keystroke	Key.space	n/a
20.598	0.089	41196	keystroke	f	n/a
20.777	0.09	41554	keystroke	o	n/a
20.958	0.1045	41916	keystroke	x	n/a
21.047	0.1205	42094	keystroke	Key.space	n/a
21.3325	0.105	42665	keystroke	j	n/a
21.5275	0.075	43055	keystroke	u	n/a
21.7375	0.075	43475	keystroke	m	n/a
21.9325	0.06	43865	keystroke	p	n/a
22.1575	0.12	44315	keystroke	s	n/a
22.3225	0.09	44645	keystroke	Key.space	n/a
22.4575	0.09	44915	keystroke	o	n/a
22.5325	0.075	45065	keystroke	v	n/a
22.682	0.12	45364	keystroke	e	n/a
22.742	0.105	45484	keystroke	r	n/a
22.862	0.075	45724	keystroke	Key.space	n/a
22.982	0.075	45964	keystroke	a	n/a
23.027	0.09	46054	keystroke	Key.space	n/a
23.132	0.105	46264	keystroke	l	n/a
23.222	0.06	46444	keystroke	a	n/a
23.702	0.105	47404	keystroke	z	n/a
23.972	0.09	47944	keystroke	y	n/a
24.0925	0.06	48185	keystroke	Key.space	n/a
24.3775	0.075	48755	keystroke	d	n/a
24.4975	0.06	48995	keystroke	o	n/a
24.6175	0.06	49235	keystroke	g	n/a
25.622	0.06	51244	keystroke	Key.enter	n/a
25.6885	7.8405	51377	prompt	n/a	glucose december efficient celebration\n
26.6575	0.09	53315	keystroke	g	n/a
26.7625	0.1045	53525	keystroke	l	n/a
26.957	0.105	53914	keystroke	u	n/a
27.092	0.105	54184	keystroke	c	n/a
27.272	0.09	54544	keystroke	o	n/a
27.407	0.165	54814	keystroke	s	n/a
27.557	0.105	55114	keystroke	e	n/a
27.722	0.09	55444	keystroke	Key.space	n/a
27.902	0.06	55804	keystroke	d	n/a
28.067	0.045	56134	keystroke	e	n/a
28.232	0.075	56464	keystroke	c	n/a
28.397	0.091	56794	keystroke	e	n/a
28.502	0.06	57004	keystroke	m	n/a
28.697	0.075	57394	keystroke	b	n/a
28.802	0.12	57604	keystroke	e	n/a
28.8775	0.1045	57755	keystroke	r	n/a
29.012	0.0605	58024	keystroke	Key.space	n/a
29.2225	0.06	58445	keystroke	e	n/a
29.4175	0.06	58835	keystroke	f	n/a
29.598	0.045	59196	keystroke	f	n/a
29.718	0.09	59436	keystroke	i	n/a
29.943	0.06	59886	keystroke	c	n/a
30.0775	0.0755	60155	keystroke	i	n/a
30.243	0.09	60486	keystroke	e	n/a
30.4225	0.06	60845	keystroke	n	n/a
30.4975	0.09	60995	keystroke	t	n/a
30.6925	0.075	61385	keystroke	Key.space	n/a
31.0375	0.075	62075	keystroke	c	n/a
31.2175	0.06	62435	keystroke	e	n/a
31.2625	0.105	62525	keystroke	l	n/a
31.3825	0.09	62765	keystroke	e	n/a
31.5475	0.075	63095	keystroke	b	n/a
32.0125	0.06	64025	keystroke	r	n/a
32.1775	0.075	64355	keystroke	a	n/a
32.6575	0.075	65315	keystroke	t	n/a
32.8375	0.15	65675	keystroke	i	n/a
32.9725	0.15	65945	keystroke	o	n/a
33.0775	0.105	66155	keystroke	n	n/a
33.4675	0.06	66935	keystroke	Key.enter	n/a
33.532	7.737	67064	prompt	n/a	pregnant alive stay differential\n
34.367	0.09	68734	keystroke	p	n/a
34.622	0.061	69244	keystroke	r	n/a
35.087	0.105	70174	keystroke	e	n/a
35.342	0.091	70684	keystroke	g	n/a
35.567	0.075	71134	keystroke	n	n/a
35.672	0.12	71344	keystroke	a	n/a
35.777	0.09	71554	keystroke	n	n/a
36.122	0.045	72244	keystroke	t	n/a
36.242	0.09	72484	keystroke	Key.space	n/a
36.587	0.105	73174	keystroke	a	n/a
36.767	0.105	73534	keystroke	l	n/a
36.827	0.105	73654	keystroke	i	n/a
36.992	0.105	73984	keystroke	v	n/a
37.187	0.105	74374	keystroke	e	n/a
37.337	0.075	74674	keystroke	Key.space	n/a
37.427	0.12	74854	keystroke	s	n/a
37.622	0.0905	75244	keystroke	t	n/a
37.8175	0.09	75635	keystroke	a	n/a
37.9375	0.12	75875	keystroke	y	n/a
38.0425	0.0895	76085	keystroke	Key.space	n/a
38.237	0.045	76474	keystroke	f	n/a
38.567	0.09	77134	keystroke	Key.backspace	n/a
38.702	0.075	77404	keystroke	d	n/a
39.017	0.075	78034	keystroke	i	n/a
39.107	0.06	78214	keystroke	f	n/a
39.242	0.06	78484	keystroke	f	n/a
39.377	0.105	78754	keystroke	e	n/a
39.437	0.09	78874	keystroke	r	n/a
39.5725	0.105	79145	keystroke	e	n/a
39.6775	0.105	79355	keystroke	n	n/a
39.8425	0.045	79685	keystroke	c	n/a
40.1725	0.075	80345	keystroke	Key.backspace	n/a
40.2925	0.1345	80585	keystroke	t	n/a
40.577	0.015	81154	keystroke	i	n/a
40.652	0.09	81304	keystroke	a	n/a
40.937	0.075	81874	keystroke	l	n/a
41.237	0.03	82474	keystroke	Key.enter	n/a
41.2765	6.1575	82553	prompt	n/a	forge must incomplete hits\n
41.988	0.1045	83976	keystroke	f	n/a
42.1525	0.09	84305	keystroke	o	n/a
42.2425	0.09	84485	keystroke	r	n/a
42.6175	0.06	85235	keystroke	e	n/a
42.9775	0.06	85955	keystroke	Key.backspace	n/a
43.0675	0.105	86135	keystroke	g	n/a
43.2625	0.09	86525	keystroke	e	n/a
43.3675	0.075	86735	keystroke	Key.space	n/a
43.5175	0.105	87035	keystroke	m	n/a
43.7275	0.09	87455	keystroke	u	n/a
43.8025	0.09	87605	keystroke	s	n/a
43.9675	0.075	87935	keystroke	t	n/a
44.0275	0.1055	88055	keystroke	Key.space	n/a
44.223	0.15	88446	keystroke	i	n/a
44.673	0.09	89346	keystroke	n	n/a
44.853	0.09	89706	keystroke	c	n/a
45.018	0.18	90036	keystroke	o	n/a
45.153	0.075	90306	keystroke	m	n/a
45.407	0.121	90814	keystroke	p	n/a
45.467	0.075	90934	keystroke	l	n/a
45.558	0.105	91116	keystroke	e	n/a
45.708	0.09	91416	keystroke	t	n/a
45.843	0.1195	91686	keystroke	e	n/a
45.9775	0.06	91955	keystroke	Key.space	n/a
46.0525	0.075	92105	keystroke	t	n/a
46.1125	0.09	92225	keystroke	h	n/a
46.4575	0.045	92915	keystroke	Key.backspace	n/a
46.5625	0.06	93125	keystroke	Key.backspace	n/a
46.772	0.105	93544	keystroke	h	n/a
46.862	0.09	93724	keystroke	i	n/a
46.922	0.075	93844	keystroke	t	n/a
47.117	0.12	94234	keystroke	s	n/a
47.372	0.06	94744	keystroke	Key.enter	n/a
47.4385	10.6905	94877	prompt	n/a	texture fingers passion santa\n
48.272	0.075	96544	keystroke	t	n/a
48.437	0.075	96874	keystroke	e	n/a
48.692	0.045	97384	keystroke	x	n/a
48.857	0.075	97714	keystroke	t	n/a
49.127	0.09	98254	keystroke	t	n/a
49.278	0.119	98556	keystroke	u	n/a
49.427	0.075	98854	keystroke	r	n/a
49.592	0.09	99184	keystroke	e	n/a
50.432	0.045	100864	keystroke	Key.backspace	n/a
50.567	0.06	101134	keystroke	Key.backspace	n/a
50.822	0.03	101644	keystroke	Key.backspace	n/a
51.7825	0.06	103565	keystroke	Key.backspace	n/a
52.0675	0.09	104135	keystroke	t	n/a
52.2025	0.09	104405	keystroke	u	n/a
52.5775	0.045	105155	keystroke	Key.backspace	n/a
52.682	0.09	105364	keystroke	Key.backspace	n/a
52.937	0.105	105874	keystroke	u	n/a
53.282	0.075	106564	keystroke	r	n/a
53.477	0.06	106954	keystroke	e	n/a
53.687	0.09	107374	keystroke	Key.space	n/a
53.882	0.12	107764	keystroke	f	n/a
54.017	0.09	108034	keystroke	i	n/a
54.077	0.105	108154	keystroke	n	n/a
54.512	0.105	109024	keystroke	g	n/a
54.692	0.165	109384	keystroke	e	n/a
54.752	0.12	109504	keystroke	r	n/a
54.992	0.12	109984	keystroke	s	n/a
55.157	0.105	110314	keystroke	Key.space	n/a
55.457	0.0755	110914	keystroke	p	n/a
55.5475	0.075	111095	keystroke	a	n/a
55.7275	0.045	111455	keystroke	s	n/a
55.8475	0.09	111695	keystroke	s	n/a
55.9225	0.12	111845	keystroke	i	n/a
56.0275	0.12	112055	keystroke	o	n/a
56.0875	0.105	112175	keystroke	n	n/a
56.1775	0.075	112355	keystroke	Key.space	n/a
56.2975	0.105	112595	keystroke	s	n/a
56.6125	0.105	113225	keystroke	a	n/a
56.7325	0.075	113465	keystroke	n	n/a
57.2275	0.165	114455	keystroke	t	n/a
57.6175	0.12	115235	keystroke	a	n/a
58.0525	0.0745	116105	keystroke	Key.enter	n/a
58.1325	6.2365	116265	prompt	n/a	searching whose traditional divided\n
58.877	0.1205	117754	keystroke	s	n/a
59.0575	0.09	118115	keystroke	e	n/a
59.267	0.105	118534	keystroke	a	n/a
59.477	0.09	118954	keystroke	r	n/a
59.792	0.09	119584	keystroke	c	n/a
59.912	0.075	119824	keystroke	h	n/a
60.032	0.15	120064	keystroke	i	n/a
60.122	0.135	120244	keystroke	n	n/a
60.272	0.09	120544	keystroke	g	n/a
60.407	0.1045	120814	keystroke	Key.space	n/a
60.5265	0.105	121053	keystroke	w	n/a
60.6165	0.1055	121233	keystroke	h	n/a
60.6915	0.1205	121383	keystroke	o	n/a
60.827	0.1355	121654	keystroke	s	n/a
60.9475	0.09	121895	keystroke	e	n/a
61.0225	0.09	122045	keystroke	Key.space	n/a
61.2025	0.06	122405	keystroke	t	n/a
61.352	0.06	122704	keystroke	r	n/a
61.532	0.09	123064	keystroke	a	n/a
61.8325	0.09	123665	keystroke	d	n/a
61.9375	0.075	123875	keystroke	i	n/a
62.1475	0.09	124295	keystroke	t	n/a
62.1925	0.21	124385	keystroke	i	n/a
62.3125	0.12	124625	keystroke	o	n/a
62.3875	0.12	124775	keystroke	n	n/a
62.4925	0.135	124985	keystroke	a	n/a
62.6125	0.105	125225	keystroke	l	n/a
62.6875	0.09	125375	keystroke	Key.space	n/a
62.8375	0.075	125675	keystroke	d	n/a
62.9275	0.09	125855	keystroke	i	n/a
63.0475	0.075	126095	keystroke	v	n/a
63.1675	0.09	126335	keystroke	i	n/a
63.3775	0.12	126755	keystroke	d	n/a
63.692	0.06	127384	keystroke	e	n/a
63.8725	0.09	127745	keystroke	d	n/a
64.3075	0.06	128615	keystroke	Key.enter	n/a
64.3725	5.576	128745	prompt	n/a	hood jade areas carb\n
65.162	0.075	130324	keystroke	h	n/a
65.312	0.06	130624	keystroke	o	n/a
65.447	0.135	130894	keystroke	o	n/a
65.567	0.135	131134	keystroke	d	n/a
65.687	0.105	131374	keystroke	Key.space	n/a
65.867	0.105	131734	keystroke	j	n/a
65.987	0.225	131974	keystroke	a	n/a
66.272	0.105	132544	keystroke	d	n/a
66.527	0.075	133054	keystroke	e	n/a
66.632	0.105	133264	keystroke	Key.space	n/a
66.767	0.15	133534	keystroke	a	n/a
67.037	0.105	134074	keystroke	r	n/a
67.307	0.09	134614	keystroke	r	n/a
67.8615	0.076	135723	keystroke	Key.backspace	n/a
67.9225	0.134	135845	keystroke	e	n/a
68.072	0.12	136144	keystroke	a	n/a
68.642	0.12	137284	keystroke	s	n/a
68.852	0.105	137704	keystroke	Key.space	n/a
69.0925	0.105	138185	keystroke	c	n/a
69.2125	0.119	138425	keystroke	a	n/a
69.3925	0.105	138785	keystroke	r	n/a
69.4975	0.105	138995	keystroke	b	n/a
69.8725	0.075	139745	keystroke	Key.enter	n/a
69.9545	8.3525	139909	prompt	n/a	it constraints baptist abstracts\n
70.6825	0.075	141365	keystroke	i	n/a
70.7725	0.105	141545	keystroke	t	n/a
70.8925	0.09	141785	keystroke	Key.space	n/a
71.0875	0.09	142175	keystroke	c	n/a
71.1625	0.09	142325	keystroke	o	n/a
71.2225	0.12	142445	keystroke	n	n/a
71.3875	0.105	142775	keystroke	s	n/a
71.5675	0.105	143135	keystroke	t	n/a
71.7775	0.09	143555	keystroke	r	n/a
72.0025	0.09	144005	keystroke	a	n/a
72.1075	0.15	144215	keystroke	i	n/a
72.2425	0.105	144485	keystroke	n	n/a
72.3625	0.075	144725	keystroke	t	n/a
72.5725	0.09	145145	keystroke	s	n/a
72.6775	0.135	145355	keystroke	Key.space	n/a
72.7975	0.09	145595	keystroke	b	n/a
72.9025	0.075	145805	keystroke	a	n/a
73.0975	0.075	146195	keystroke	p	n/a
73.4575	0.105	146915	keystroke	t	n/a
73.6075	0.06	147215	keystroke	i	n/a
73.6975	0.15	147395	keystroke	s	n/a
73.8775	0.12	147755	keystroke	t	n/a
74.1775	0.09	148355	keystroke	Key.space	n/a
74.4175	0.0895	148835	keystroke	a	n/a
74.522	0.09	149044	keystroke	b	n/a
74.642	0.09	149284	keystroke	s	n/a
74.957	0.075	149914	keystroke	t	n/a
75.137	0.09	150274	keystroke	r	n/a
75.347	0.075	150694	keystroke	a	n/a
75.5275	0.075	151055	keystroke	c	n/a
75.7375	0.045	151475	keystroke	t	n/a
75.9025	0.09	151805	keystroke	s	n/a
78.3045	0.001	156609	keystroke	Key.enter	n/a
78.312	5.347	156624	prompt	n/a	computing rope tamil title\n
79.2475	0.075	158495	keystroke	c	n/a
79.3235	0.134	158647	keystroke	o	n/a
79.4425	0.09	158885	keystroke	m	n/a
79.6375	0.12	159275	keystroke	p	n/a
79.7875	0.09	159575	keystroke	u	n/a
79.9225	0.12	159845	keystroke	t	n/a
80.0575	0.1205	160115	keystroke	i	n/a
80.117	0.106	160234	keystroke	n	n/a
80.237	0.076	160474	keystroke	g	n/a
80.267	0.091	160534	keystroke	Key.space	n/a
80.478	0.09	160956	keystroke	r	n/a
80.643	0.09	161286	keystroke	o	n/a
80.808	0.075	161616	keystroke	p	n/a
80.957	0.12	161914	keystroke	e	n/a
81.138	0.045	162276	keystroke	Key.space	n/a
81.828	0.075	163656	keystroke	t	n/a
82.023	0.0895	164046	keystroke	a	n/a
82.0975	0.105	164195	keystroke	m	n/a
82.2475	0.075	164495	keystroke	i	n/a
82.3825	0.135	164765	keystroke	l	n/a
82.5325	0.06	165065	keystroke	Key.space	n/a
82.7425	0.0755	165485	keystroke	t	n/a
82.833	0.075	165666	keystroke	i	n/a
82.892	0.09	165784	keystroke	t	n/a
83.1175	0.09	166235	keystroke	l	n/a
83.3125	0.075	166625	keystroke	e	n/a
83.5975	0.0595	167195	keystroke	Key.enter	n/a
83.6625	7.826	167325	prompt	n/a	korea vice behavioral freedom\n
84.557	0.105	169114	keystroke	k	n/a
84.767	0.09	169534	keystroke	o	n/a
84.872	0.06	169744	keystroke	r	n/a
85.037	0.06	170074	keystroke	e	n/a
85.2025	0.105	170405	keystroke	a	n/a
85.5625	0.105	171125	keystroke	Key.space	n/a
85.8475	0.105	171695	keystroke	v	n/a
85.9675	0.075	171935	keystroke	i	n/a
86.0875	0.105	172175	keystroke	c	n/a
86.2525	0.105	172505	keystroke	e	n/a
86.4025	0.075	172805	keystroke	Key.space	n/a
86.9275	0.09	173855	keystroke	b	n/a
87.0475	0.105	174095	keystroke	e	n/a
87.2425	0.09	174485	keystroke	h	n/a
87.3475	0.075	174695	keystroke	a	n/a
87.6025	0.105	175205	keystroke	v	n/a
87.7225	0.15	175445	keystroke	i	n/a
87.8425	0.105	175685	keystroke	o	n/a
88.1725	0.075	176345	keystroke	r	n/a
88.3825	0.0745	176765	keystroke	a	n/a
88.472	0.09	176944	keystroke	l	n/a
88.682	0.075	177364	keystroke	Key.space	n/a
89.4625	0.1195	178925	keystroke	f	n/a
89.687	0.09	179374	keystroke	r	n/a
89.882	0.06	179764	keystroke	e	n/a
89.987	0.075	179974	keystroke	e	n/a
90.137	0.09	180274	keystroke	d	n/a
90.242	0.1355	180484	keystroke	o	n/a
90.3325	0.105	180665	keystroke	n	n/a
90.9475	0.06	181895	keystroke	Key.backspace	n/a
91.2475	0.09	182495	keystroke	m	n/a
91.4575	0.03	182915	keystroke	Key.enter	n/a
91.492	8.2165	182984	prompt	n/a	fairly philadelphia controversy tribes\n
92.3875	0.105	184775	keystroke	f	n/a
92.5825	0.105	185165	keystroke	a	n/a
92.7025	0.09	185405	keystroke	i	n/a
92.8225	0.09	185645	keystroke	r	n/a
92.9275	0.09	185855	keystroke	l	n/a
93.1225	0.15	186245	keystroke	y	n/a
93.2575	0.075	186515	keystroke	Key.space	n/a
93.4825	0.0745	186965	keystroke	p	n/a
93.647	0.12	187294	keystroke	h	n/a
93.812	0.09	187624	keystroke	i	n/a
94.022	0.075	188044	keystroke	l	n/a
94.112	0.075	188224	keystroke	a	n/a
94.307	0.105	188614	keystroke	d	n/a
94.637	0.0755	189274	keystroke	e	n/a
94.7425	0.075	189485	keystroke	l	n/a
95.297	0.09	190594	keystroke	p	n/a
95.477	0.135	190954	keystroke	h	n/a
95.672	0.12	191344	keystroke	i	n/a
95.807	0.12	191614	keystroke	a	n/a
96.062	0.075	192124	keystroke	Key.space	n/a
96.467	0.105	192934	keystroke	c	n/a
96.647	0.0455	193294	keystroke	o	n/a
96.6775	0.06	193355	keystroke	n	n/a
97.1425	0.0605	194285	keystroke	t	n/a
97.5025	0.105	195005	keystroke	r	n/a
97.6225	0.105	195245	keystroke	o	n/a
97.8175	0.09	195635	keystroke	v	n/a
97.9825	0.135	195965	keystroke	e	n/a
98.0575	0.105	196115	keystroke	r	n/a
98.2975	0.105	196595	keystroke	s	n/a
98.4175	0.09	196835	keystroke	y	n/a
98.5225	0.105	197045	keystroke	Key.space	n/a
98.7775	0.06	197555	keystroke	t	n/a
98.9275	0.09	197855	keystroke	r	n/a
99.0175	0.0755	198035	keystroke	i	n/a
99.198	0.105	198396	keystroke	b	n/a
99.303	0.075	198606	keystroke	e	n/a
99.468	0.105	198936	keystroke	s	n/a
99.6475	0.06	199295	keystroke	Key.enter	n/a
99.711	7.4525	199422	prompt	n/a	towers finder americans games\n
100.338	0.1045	200676	keystroke	t	n/a
100.5025	0.12	201005	keystroke	o	n/a
100.6075	0.12	201215	keystroke	w	n/a
100.6825	0.12	201365	keystroke	e	n/a
100.8625	0.09	201725	keystroke	r	n/a
101.0275	0.12	202055	keystroke	s	n/a
101.1325	0.0745	202265	keystroke	Key.space	n/a
101.222	0.105	202444	keystroke	f	n/a
101.343	0.12	202686	keystroke	i	n/a
101.448	0.104	202896	keystroke	n	n/a
101.568	0.105	203136	keystroke	d	n/a
101.747	0.195	203494	keystroke	e	n/a
101.852	0.105	203704	keystroke	r	n/a
102.2125	0.09	204425	keystroke	Key.space	n/a
102.4825	0.195	204965	keystroke	a	n/a
102.6025	0.09	205205	keystroke	m	n/a
102.7525	0.15	205505	keystroke	e	n/a
103.2025	0.09	206405	keystroke	r	n/a
103.4425	0.09	206885	keystroke	i	n/a
103.6225	0.09	207245	keystroke	c	n/a
104.0275	0.0445	208055	keystroke	Key.backspace	n/a
104.4175	0.105	208835	keystroke	c	n/a
104.5825	0.135	209165	keystroke	a	n/a
105.0625	0.045	210125	keystroke	n	n/a
105.3025	0.105	210605	keystroke	s	n/a
105.5425	0.12	211085	keystroke	Key.space	n/a
106.0225	0.06	212045	keystroke	g	n/a
106.2025	0.135	212405	keystroke	a	n/a
106.3225	0.075	212645	keystroke	m	n/a
106.4875	0.09	212975	keystroke	e	n/a
106.6975	0.09	213395	keystroke	s	n/a
107.0875	0.075	214175	keystroke	Key.enter	n/a
107.166	9.568	214332	prompt	n/a	marathon speech parents cartridge\n
107.837	0.09	215674	keystroke	m	n/a
107.912	0.135	215824	keystroke	a	n/a
108.5425	0.075	217085	keystroke	e	n/a
109.0075	0.06	218015	keystroke	Key.backspace	n/a
109.1275	0.105	218255	keystroke	r	n/a
109.7125	0.165	219425	keystroke	a	n/a
110.147	0.12	220294	keystroke	t	n/a
110.297	0.075	220594	keystroke	h	n/a
110.462	0.195	220924	keystroke	o	n/a
110.597	0.09	221194	keystroke	n	n/a
110.777	0.075	221554	keystroke	Key.space	n/a
110.913	0.119	221826	keystroke	s	n/a
111.077	0.12	222154	keystroke	p	n/a
111.212	0.06	222424	keystroke	e	n/a
111.302	0.09	222604	keystroke	e	n/a
111.692	0.1655	223384	keystroke	c	n/a
111.8425	0.09	223685	keystroke	h	n/a
112.172	0.09	224344	keystroke	Key.space	n/a
112.307	0.135	224614	keystroke	p	n/a
112.397	0.135	224794	keystroke	a	n/a
112.577	0.12	225154	keystroke	r	n/a
112.817	0.15	225634	keystroke	e	n/a
112.997	0.09	225994	keystroke	n	n/a
113.192	0.09	226384	keystroke	t	n/a
113.402	0.12	226804	keystroke	s	n/a
113.552	0.09	227104	keystroke	Key.space	n/a
114.362	0.12	228724	keystroke	c	n/a
114.497	0.15	228994	keystroke	a	n/a
114.917	0.106	229834	keystroke	r	n/a
115.173	0.105	230346	keystroke	t	n/a
115.398	0.105	230796	keystroke	r	n/a
115.517	0.106	231034	keystroke	i	n/a
115.953	0.105	231906	keystroke	d	n/a
116.1475	0.15	232295	keystroke	g	n/a
116.3275	0.15	232655	keystroke	e	n/a
116.6275	0.105	233255	keystroke	Key.enter	n/a
116.7365	6.5525	233473	prompt	n/a	terrorist empire logging interval\n
117.6325	0.09	235265	keystroke	t	n/a
117.7675	0.12	235535	keystroke	e	n/a
117.8275	0.105	235655	keystroke	r	n/a
118.0075	0.0905	236015	keystroke	r	n/a
118.098	0.09	236196	keystroke	o	n/a
118.203	0.105	236406	keystroke	r	n/a
118.368	0.075	236736	keystroke	i	n/a
118.473	0.105	236946	keystroke	s	n/a
118.653	0.105	237306	keystroke	t	n/a
118.937	0.061	237874	keystroke	Key.space	n/a
119.088	0.149	238176	keystroke	e	n/a
119.2525	0.105	238505	keystroke	m	n/a
119.462	0.06	238924	keystroke	p	n/a
119.822	0.09	239644	keystroke	i	n/a
119.928	0.059	239856	keystroke	r	n/a
120.092	0.106	240184	keystroke	e	n/a
120.212	0.135	240424	keystroke	Key.space	n/a
120.407	0.09	240814	keystroke	l	n/a
120.573	0.074	241146	keystroke	o	n/a
120.677	0.075	241354	keystroke	g	n/a
120.812	0.0905	241624	keystroke	g	n/a
120.8875	0.12	241775	keystroke	i	n/a
121.0225	0.075	242045	keystroke	n	n/a
121.1575	0.12	242315	keystroke	g	n/a
121.2925	0.09	242585	keystroke	Key.space	n/a
121.3975	0.105	242795	keystroke	i	n/a
121.4725	0.1045	242945	keystroke	n	n/a
121.532	0.105	243064	keystroke	t	n/a
121.682	0.12	243364	keystroke	e	n/a
121.757	0.1655	243514	keystroke	r	n/a
122.0275	0.045	244055	keystroke	f	n/a
122.4925	0.09	244985	keystroke	Key.backspace	n/a
122.5675	0.135	245135	keystroke	v	n/a
122.7775	0.18	245555	keystroke	a	n/a
122.9425	0.09	245885	keystroke	l	n/a
123.1975	0.09	246395	keystroke	Key.enter	n/a
123.2915	6.897	246583	prompt	n/a	christian penetration rising ebook\n
124.1425	0.135	248285	keystroke	c	n/a
124.2625	0.09	248525	keystroke	h	n/a
124.3675	0.09	248735	keystroke	r	n/a
124.4875	0.09	248975	keystroke	i	n/a
124.5925	0.09	249185	keystroke	s	n/a
124.742	0.09	249484	keystroke	t	n/a
124.847	0.15	249694	keystroke	i	n/a
125.027	0.15	250054	keystroke	a	n/a
125.178	0.074	250356	keystroke	n	n/a
125.312	0.075	250624	keystroke	Key.space	n/a
125.402	0.09	250804	keystroke	p	n/a
125.522	0.0905	251044	keystroke	e	n/a
125.6425	0.09	251285	keystroke	n	n/a
125.747	0.0755	251494	keystroke	e	n/a
125.9875	0.09	251975	keystroke	t	n/a
126.1675	0.06	252335	keystroke	r	n/a
126.3325	0.0745	252665	keystroke	a	n/a
126.527	0.1055	253054	keystroke	t	n/a
126.617	0.135	253234	keystroke	i	n/a
126.692	0.136	253384	keystroke	o	n/a
126.767	0.106	253534	keystroke	n	n/a
126.873	0.09	253746	keystroke	Key.space	n/a
127.008	0.105	254016	keystroke	r	n/a
127.203	0.06	254406	keystroke	i	n/a
127.323	0.075	254646	keystroke	d	n/a
127.473	0.06	254946	keystroke	i	n/a
127.803	0.03	255606	keystroke	Key.backspace	n/a
127.893	0.075	255786	keystroke	Key.backspace	n/a
127.983	0.105	255966	keystroke	s	n/a
128.163	0.105	256326	keystroke	i	n/a
128.298	0.09	256596	keystroke	n	n/a
128.448	0.105	256896	keystroke	g	n/a
128.568	0.075	257136	keystroke	Key.space	n/a
128.763	0.09	257526	keystroke	e	n/a
129.063	0.09	258126	keystroke	b	n/a
129.243	0.06	258486	keystroke	o	n/a
129.363	0.09	258726	keystroke	o	n/a
129.5125	0.135	259025	keystroke	k	n/a
130.0825	0.1045	260165	keystroke	Key.enter	n/a
130.192	9.432	260384	prompt	n/a	reload solution unix manufactured\n
130.892	0.075	261784	keystroke	r	n/a
131.057	0.105	262114	keystroke	e	n/a
131.177	0.06	262354	keystroke	l	n/a
131.4025	0.0745	262805	keystroke	a	n/a
131.462	0.06	262924	keystroke	o	n/a
131.747	0.0455	263494	keystroke	Key.backspace	n/a
131.853	0.075	263706	keystroke	Key.backspace	n/a
132.003	0.0895	264006	keystroke	o	n/a
132.1075	0.075	264215	keystroke	a	n/a
132.288	0.075	264576	keystroke	d	n/a
132.378	0.105	264756	keystroke	Key.space	n/a
132.513	0.12	265026	keystroke	s	n/a
132.618	0.03	265236	keystroke	o	n/a
132.918	0.105	265836	keystroke	l	n/a
133.1725	0.09	266345	keystroke	u	n/a
133.3975	0.075	266795	keystroke	t	n/a
133.7425	0.135	267485	keystroke	i	n/a
133.8175	0.135	267635	keystroke	o	n/a
134.4475	0.075	268895	keystroke	n	n/a
134.6575	0.03	269315	keystroke	Key.space	n/a
134.8825	0.09	269765	keystroke	u	n/a
135.1075	0.075	270215	keystroke	n	n/a
135.2575	0.105	270515	keystroke	i	n/a
135.6775	0.09	271355	keystroke	x	n/a
135.9175	0.075	271835	keystroke	Key.space	n/a
136.233	0.09	272466	keystroke	m	n/a
136.368	0.09	272736	keystroke	a	n/a
136.487	0.06	272974	keystroke	n	n/a
136.6975	0.075	273395	keystroke	u	n/a
137.222	0.075	274444	keystroke	v	n/a
137.567	0.06	275134	keystroke	Key.backspace	n/a
137.612	0.076	275224	keystroke	f	n/a
137.762	0.106	275524	keystroke	a	n/a
138.002	0.0905	276004	keystroke	c	n/a
138.2725	0.075	276545	keystroke	t	n/a
138.4225	0.105	276845	keystroke	u	n/a
138.4975	0.0745	276995	keystroke	r	n/a
138.692	0.045	277384	keystroke	e	n/a
138.887	0.09	277774	keystroke	d	n/a
139.517	0.105	279034	keystroke	Key.enter	n/a
139.6265	8.6675	279253	prompt	n/a	expedia focal accounting advised\n
140.2825	0.105	280565	keystroke	e	n/a
140.6275	0.06	281255	keystroke	p	n/a
141.647	0.045	283294	keystroke	Key.backspace	n/a
141.812	0.135	283624	keystroke	x	n/a
141.962	0.06	283924	keystroke	p	n/a
142.172	0.075	284344	keystroke	e	n/a
142.367	0.105	284734	keystroke	d	n/a
142.487	0.075	284974	keystroke	i	n/a
142.592	0.1205	285184	keystroke	a	n/a
142.8175	0.075	285635	keystroke	Key.space	n/a
142.9525	0.09	285905	keystroke	f	n/a
143.072	0.105	286144	keystroke	o	n/a
143.207	0.09	286414	keystroke	c	n/a
143.567	0.135	287134	keystroke	a	n/a
143.687	0.105	287374	keystroke	l	n/a
143.912	0.06	287824	keystroke	Key.space	n/a
144.063	0.0745	288126	keystroke	a	n/a
144.2575	0.075	288515	keystroke	c	n/a
144.4225	0.06	288845	keystroke	c	n/a
144.4675	0.12	288935	keystroke	o	n/a
144.5275	0.075	289055	keystroke	u	n/a
144.7225	0.105	289445	keystroke	n	n/a
144.9775	0.12	289955	keystroke	t	n/a
145.1125	0.135	290225	keystroke	i	n/a
145.2025	0.12	290405	keystroke	n	n/a
145.5775	0.105	291155	keystroke	g	n/a
145.7275	0.09	291455	keystroke	Key.space	n/a
146.4175	0.1045	292835	keystroke	a	n/a
146.627	0.09	293254	keystroke	d	n/a
146.852	0.12	293704	keystroke	v	n/a
147.032	0.09	294064	keystroke	i	n/a
147.497	0.18	294994	keystroke	s	n/a
147.662	0.105	295324	keystroke	e	n/a
147.842	0.105	295684	keystroke	d	n/a
148.2025	0.09	296405	keystroke	Key.enter	n/a
148.298	6.0855	296596	prompt	n/a	solutions fixed views fountain\n
148.937	0.1205	297874	keystroke	s	n/a
149.1775	0.06	298355	keystroke	o	n/a
149.3725	0.045	298745	keystroke	l	n/a
149.567	0.091	299134	keystroke	u	n/a
149.748	0.135	299496	keystroke	t	n/a
149.928	0.1795	299856	keystroke	i	n/a
150.033	0.1645	300066	keystroke	o	n/a
150.1225	0.12	300245	keystroke	n	n/a
150.2725	0.12	300545	keystroke	s	n/a
150.4075	0.075	300815	keystroke	Key.space	n/a
150.6475	0.105	301295	keystroke	f	n/a
150.7675	0.075	301535	keystroke	i	n/a
150.9325	0.09	301865	keystroke	x	n/a
151.1725	0.09	302345	keystroke	e	n/a
151.653	0.104	303306	keystroke	d	n/a
151.772	0.09	303544	keystroke	Key.space	n/a
152.0725	0.15	304145	keystroke	v	n/a
152.2075	0.105	304415	keystroke	i	n/a
152.3575	0.105	304715	keystroke	e	n/a
152.5225	0.09	305045	keystroke	w	n/a
152.7175	0.105	305435	keystroke	s	n/a
152.8375	0.09	305675	keystroke	Key.space	n/a
153.1675	0.09	306335	keystroke	f	n/a
153.2725	0.135	306545	keystroke	o	n/a
153.3625	0.06	306725	keystroke	u	n/a
153.5725	0.09	307145	keystroke	n	n/a
153.6925	0.105	307385	keystroke	t	n/a
153.9325	0.09	307865	keystroke	a	n/a
153.9775	0.12	307955	keystroke	i	n/a
154.0675	0.09	308135	keystroke	n	n/a
154.3225	0.0595	308645	keystroke	Key.enter	n/a
154.3875	6.3565	308775	prompt	n/a	miles press perry compatibility\n
155.027	0.09	310054	keystroke	m	n/a
155.207	0.045	310414	keystroke	i	n/a
155.327	0.12	310654	keystroke	l	n/a
155.747	0.09	311494	keystroke	e	n/a
155.927	0.105	311854	keystroke	s	n/a
156.122	0.09	312244	keystroke	Key.space	n/a
156.3025	0.105	312605	keystroke	p	n/a
156.3925	0.09	312785	keystroke	r	n/a
156.5875	0.06	313175	keystroke	e	n/a
156.7825	0.045	313565	keystroke	s	n/a
156.8875	0.105	313775	keystroke	s	n/a
157.007	0.105	314014	keystroke	Key.space	n/a
157.082	0.075	314164	keystroke	p	n/a
157.172	0.105	314344	keystroke	e	n/a
157.382	0.045	314764	keystroke	r	n/a
157.502	0.12	315004	keystroke	r	n/a
157.712	0.12	315424	keystroke	y	n/a
157.847	0.075	315694	keystroke	Key.space	n/a
158.102	0.09	316204	keystroke	c	n/a
158.177	0.135	316354	keystroke	o	n/a
158.297	0.105	316594	keystroke	m	n/a
158.657	0.075	317314	keystroke	p	n/a
158.777	0.105	317554	keystroke	a	n/a
159.0325	0.12	318065	keystroke	t	n/a
159.1675	0.075	318335	keystroke	i	n/a
159.3325	0.075	318665	keystroke	b	n/a
159.7525	0.075	319505	keystroke	i	n/a
159.947	0.105	319894	keystroke	l	n/a
160.037	0.135	320074	keystroke	i	n/a
160.157	0.12	320314	keystroke	t	n/a
160.367	0.09	320734	keystroke	y	n/a
160.697	0.045	321394	keystroke	Key.enter	n/a
160.7465	9.507	321493	prompt	n/a	duncan reducing australia motivation\n
161.417	0.15	322834	keystroke	d	n/a
161.597	0.105	323194	keystroke	u	n/a
161.822	0.09	323644	keystroke	n	n/a
162.032	0.1055	324064	keystroke	c	n/a
162.2125	0.12	324425	keystroke	a	n/a
162.3175	0.09	324635	keystroke	n	n/a
162.4225	0.09	324845	keystroke	Key.space	n/a
162.647	0.075	325294	keystroke	r	n/a
162.797	0.09	325594	keystroke	e	n/a
162.992	0.0905	325984	keystroke	d	n/a
163.1125	0.09	326225	keystroke	u	n/a
163.2175	0.1055	326435	keystroke	c	n/a
163.428	0.135	326856	keystroke	i	n/a
163.503	0.12	327006	keystroke	n	n/a
163.653	0.09	327306	keystroke	g	n/a
163.773	0.045	327546	keystroke	Key.space	n/a
163.893	0.135	327786	keystroke	a	n/a
164.073	0.12	328146	keystroke	u	n/a
164.222	0.076	328444	keystroke	d	n/a
164.583	0.06	329166	keystroke	Key.backspace	n/a
164.613	0.12	329226	keystroke	s	n/a
164.792	0.091	329584	keystroke	t	n/a
164.988	0.075	329976	keystroke	r	n/a
165.1525	0.1195	330305	keystroke	a	n/a
165.2875	0.0605	330575	keystroke	i	n/a
165.528	0.135	331056	keystroke	l	n/a
165.693	0.105	331386	keystroke	i	n/a
165.813	0.12	331626	keystroke	a	n/a
166.308	0.044	332616	keystroke	Key.backspace	n/a
166.442	0.045	332884	keystroke	Key.backspace	n/a
166.577	0.06	333154	keystroke	Key.backspace	n/a
166.8475	0.134	333695	keystroke	l	n/a
167.1465	0.016	334293	keystroke	Key.backspace	n/a
167.237	0.0745	334474	keystroke	Key.backspace	n/a
167.4015	0.0755	334803	keystroke	l	n/a
167.717	0.06	335434	keystroke	i	n/a
167.837	0.09	335674	keystroke	a	n/a
168.272	0.075	336544	keystroke	Key.space	n/a
168.587	0.0755	337174	keystroke	m	n/a
168.7815	0.015	337563	keystroke	o	n/a
168.9615	0.1055	337923	keystroke	t	n/a
169.082	0.0895	338164	keystroke	i	n/a
169.262	0.0895	338524	keystroke	v	n/a
169.4715	0.105	338943	keystroke	a	n/a
169.6825	0.105	339365	keystroke	t	n/a
169.7575	0.12	339515	keystroke	i	n/a
169.8165	0.135	339633	keystroke	o	n/a
169.8915	0.106	339783	keystroke	n	n/a
170.1615	0.09	340323	keystroke	Key.enter	n/a
170.256	8.2325	340512	prompt	n/a	america concentrations approved wooden\n
170.9275	0.09	341855	keystroke	a	n/a
171.0475	0.105	342095	keystroke	m	n/a
171.2425	0.12	342485	keystroke	e	n/a
171.3325	0.09	342665	keystroke	r	n/a
171.7375	0.075	343475	keystroke	i	n/a
171.8575	0.075	343715	keystroke	c	n/a
172.0225	0.1195	344045	keystroke	a	n/a
172.202	0.105	344404	keystroke	Key.space	n/a
172.412	0.09	344824	keystroke	c	n/a
172.532	0.135	345064	keystroke	o	n/a
172.622	0.105	345244	keystroke	n	n/a
173.492	0.075	346984	keystroke	c	n/a
173.867	0.105	347734	keystroke	e	n/a
174.017	0.075	348034	keystroke	n	n/a
174.197	0.075	348394	keystroke	t	n/a
174.392	0.06	348784	keystroke	r	n/a
174.797	0.12	349594	keystroke	a	n/a
175.067	0.09	350134	keystroke	t	n/a
175.202	0.15	350404	keystroke	i	n/a
175.292	0.2105	350584	keystroke	o	n/a
175.3825	0.135	350765	keystroke	n	n/a
175.6075	0.12	351215	keystroke	s	n/a
175.8625	0.045	351725	keystroke	Key.space	n/a
175.9225	0.045	351845	keystroke	a	n/a
176.132	0.075	352264	keystroke	p	n/a
176.267	0.09	352534	keystroke	p	n/a
176.342	0.09	352684	keystroke	r	n/a
176.447	0.09	352894	keystroke	o	n/a
176.612	0.15	353224	keystroke	v	n/a
176.912	0.1055	353824	keystroke	e	n/a
177.0925	0.105	354185	keystroke	d	n/a
177.227	0.105	354454	keystroke	Key.space	n/a
177.467	0.105	354934	keystroke	w	n/a
177.692	0.045	355384	keystroke	o	n/a
177.812	0.12	355624	keystroke	o	n/a
177.917	0.06	355834	keystroke	d	n/a
178.0975	0.075	356195	keystroke	e	n/a
178.1875	0.09	356375	keystroke	n	n/a
178.3975	0.09	356795	keystroke	Key.enter	n/a
178.491	11.008	356982	prompt	n/a	unable satin fisheries january\n
178.9525	0.075	357905	keystroke	a	n/a
179.3275	0.075	358655	keystroke	Key.backspace	n/a
179.6725	0.09	359345	keystroke	u	n/a
179.8525	0.09	359705	keystroke	n	n/a
179.9875	0.1045	359975	keystroke	a	n/a
180.107	0.045	360214	keystroke	b	n/a
180.257	0.12	360514	keystroke	l	n/a
180.362	0.0905	360724	keystroke	e	n/a
180.4375	0.09	360875	keystroke	Key.space	n/a
180.7375	0.06	361475	keystroke	s	n/a
180.8875	0.075	361775	keystroke	a	n/a
181.1125	0.105	362225	keystroke	t	n/a
181.2625	0.075	362525	keystroke	i	n/a
181.4575	0.06	362915	keystroke	n	n/a
181.9525	0.105	363905	keystroke	Key.space	n/a
182.1775	0.105	364355	keystroke	f	n/a
182.2675	0.09	364535	keystroke	i	n/a
182.3575	0.075	364715	keystroke	n	n/a
182.4625	0.105	364925	keystroke	i	n/a
182.5675	0.105	365135	keystroke	s	n/a
182.6425	0.09	365285	keystroke	h	n/a
182.7475	0.12	365495	keystroke	e	n/a
182.9875	0.09	365975	keystroke	s	n/a
183.1675	0.06	366335	keystroke	Key.space	n/a
183.4225	0.06	366845	keystroke	j	n/a
183.5275	0.105	367055	keystroke	a	n/a
183.6175	0.09	367235	keystroke	n	n/a
183.7825	0.105	367565	keystroke	u	n/a
185.9275	0.045	371855	keystroke	Key.backspace	n/a
186.482	0.09	372964	keystroke	s	n/a
186.602	0.075	373204	keystroke	h	n/a
186.767	0.12	373534	keystroke	e	n/a
186.827	0.105	373654	keystroke	r	n/a
186.992	0.075	373984	keystroke	i	n/a
187.3225	0.06	374645	keystroke	e	n/a
187.5175	0.06	375035	keystroke	s	n/a
187.7875	0.09	375575	keystroke	Key.space	n/a
187.9975	0.045	375995	keystroke	j	n/a
188.072	0.12	376144	keystroke	a	n/a
188.177	0.105	376354	keystroke	n	n/a
188.342	0.09	376684	keystroke	u	n/a
188.447	0.09	376894	keystroke	a	n/a
188.657	0.075	377314	keystroke	r	n/a
188.792	0.06	377584	keystroke	y	n/a
189.437	0.06	378874	keystroke	Key.enter	n/a
189.501	6.898	379002	prompt	n/a	charges fairly desired anywhere\n
190.4575	0.09	380915	keystroke	c	n/a
190.5325	0.075	381065	keystroke	h	n/a
190.6225	0.09	381245	keystroke	a	n/a
190.7875	0.075	381575	keystroke	r	n/a
190.9975	0.075	381995	keystroke	g	n/a
191.1475	0.075	382295	keystroke	e	n/a
191.3425	0.075	382685	keystroke	s	n/a
191.4775	0.105	382955	keystroke	Key.space	n/a
191.762	0.09	383524	keystroke	f	n/a
191.972	0.09	383944	keystroke	a	n/a
192.047	0.0755	384094	keystroke	i	n/a
192.2575	0.075	384515	keystroke	r	n/a
192.4825	0.045	384965	keystroke	l	n/a
192.7075	0.105	385415	keystroke	y	n/a
192.8275	0.075	385655	keystroke	Key.space	n/a
193.1275	0.075	386255	keystroke	d	n/a
193.2925	0.075	386585	keystroke	e	n/a
193.5775	0.075	387155	keystroke	s	n/a
193.7275	0.075	387455	keystroke	i	n/a
193.9075	0.075	387815	keystroke	r	n/a
194.1025	0.06	388205	keystroke	e	n/a
194.2675	0.09	388535	keystroke	d	n/a
194.3725	0.075	388745	keystroke	Key.space	n/a
194.5375	0.09	389075	keystroke	a	n/a
194.6425	0.075	389285	keystroke	h	n/a
195.0175	0.045	390035	keystroke	Key.backspace	n/a
195.2425	0.075	390485	keystroke	n	n/a
195.4675	0.06	390935	keystroke	y	n/a
195.5875	0.12	391175	keystroke	w	n/a
195.6925	0.075	391385	keystroke	h	n/a
195.7975	0.09	391595	keystroke	e	n/a
195.9775	0.06	391955	keystroke	r	n/a
196.1275	0.09	392255	keystroke	e	n/a
196.3525	0.045	392705	keystroke	Key.enter	n/a
196.4015	8.652	392803	prompt	n/a	multiple reproductive bronze additionally\n
197.0125	0.075	394025	keystroke	m	n/a
197.2075	0.075	394415	keystroke	u	n/a
197.4025	0.075	394805	keystroke	l	n/a
197.4925	0.105	394985	keystroke	t	n/a
197.6125	0.09	395225	keystroke	i	n/a
197.8525	0.12	395705	keystroke	p	n/a
198.0775	0.09	396155	keystroke	l	n/a
198.1975	0.105	396395	keystroke	e	n/a
198.2875	0.09	396575	keystroke	Key.space	n/a
198.5425	0.06	397085	keystroke	r	n/a
198.6925	0.075	397385	keystroke	e	n/a
198.9775	0.09	397955	keystroke	p	n/a
199.0975	0.135	398195	keystroke	r	n/a
199.2175	0.075	398435	keystroke	o	n/a
199.4725	0.075	398945	keystroke	d	n/a
199.7275	0.105	399455	keystroke	c	n/a
200.0875	0.06	400175	keystroke	Key.backspace	n/a
200.3425	0.06	400685	keystroke	u	n/a
200.4175	0.09	400835	keystroke	c	n/a
200.6725	0.09	401345	keystroke	t	n/a
200.7925	0.09	401585	keystroke	i	n/a
201.047	0.09	402094	keystroke	v	n/a
201.227	0.105	402454	keystroke	e	n/a
201.407	0.09	402814	keystroke	Key.space	n/a
201.6475	0.09	403295	keystroke	b	n/a
201.7525	0.09	403505	keystroke	r	n/a
201.9025	0.075	403805	keystroke	o	n/a
202.3075	0.045	404615	keystroke	n	n/a
202.4725	0.09	404945	keystroke	z	n/a
202.8325	0.075	405665	keystroke	e	n/a
203.0275	0.075	406055	keystroke	Key.space	n/a
203.1475	0.075	406295	keystroke	a	n/a
203.3575	0.03	406715	keystroke	d	n/a
203.4625	0.09	406925	keystroke	d	n/a
203.5675	0.06	407135	keystroke	i	n/a
203.7925	0.09	407585	keystroke	t	n/a
203.8675	0.165	407735	keystroke	i	n/a
203.9725	0.12	407945	keystroke	o	n/a
204.0175	0.12	408035	keystroke	n	n/a
204.1525	0.105	408305	keystroke	a	n/a
204.2585	0.074	408517	keystroke	l	n/a
204.4075	0.09	408815	keystroke	l	n/a
204.7225	0.06	409445	keystroke	y	n/a
204.9925	0.06	409985	keystroke	Key.enter	n/a
205.056	7.903	410112	prompt	n/a	mechanism vacancies cottages witch\n
205.8025	0.09	411605	keystroke	m	n/a
205.8775	0.075	411755	keystroke	e	n/a
206.0875	0.105	412175	keystroke	c	n/a
206.2075	0.045	412415	keystroke	h	n/a
206.2825	0.09	412565	keystroke	a	n/a
206.4025	0.075	412805	keystroke	n	n/a
206.5675	0.075	413135	keystroke	i	n/a
206.6875	0.09	413375	keystroke	s	n/a
206.8975	0.09	413795	keystroke	m	n/a
206.9875	0.09	413975	keystroke	Key.space	n/a
207.2875	0.105	414575	keystroke	v	n/a
207.4825	0.06	414965	keystroke	a	n/a
207.6925	0.045	415385	keystroke	c	n/a
207.8125	0.09	415625	keystroke	a	n/a
207.9325	0.075	415865	keystroke	n	n/a
208.112	0.09	416224	keystroke	s	n/a
208.607	0.06	417214	keystroke	Key.backspace	n/a
208.682	0.12	417364	keystroke	c	n/a
208.862	0.06	417724	keystroke	i	n/a
208.967	0.075	417934	keystroke	e	n/a
209.147	0.105	418294	keystroke	s	n/a
209.312	0.09	418624	keystroke	Key.space	n/a
209.537	0.09	419074	keystroke	c	n/a
209.612	0.09	419224	keystroke	o	n/a
210.032	0.0605	420064	keystroke	t	n/a
210.1525	0.075	420305	keystroke	t	n/a
210.3475	0.075	420695	keystroke	a	n/a
210.7075	0.045	421415	keystroke	g	n/a
210.8425	0.075	421685	keystroke	e	n/a
211.0225	0.09	422045	keystroke	s	n/a
211.1275	0.075	422255	keystroke	Key.space	n/a
211.2175	0.09	422435	keystroke	w	n/a
211.3225	0.075	422645	keystroke	h	n/a
211.7275	0.03	423455	keystroke	Key.backspace	n/a
211.9675	0.045	423935	keystroke	i	n/a
212.0575	0.045	424115	keystroke	t	n/a
212.2525	0.075	424505	keystroke	c	n/a
212.3125	0.06	424625	keystroke	h	n/a
212.8825	0.075	425765	keystroke	Key.enter	n/a
212.965	10.8985	425930	prompt	n/a	wagon consciousness academics encourage\n
213.797	0.075	427594	keystroke	w	n/a
213.977	0.075	427954	keystroke	a	n/a
214.217	0.135	428434	keystroke	v	n/a
214.652	0.06	429304	keystroke	Key.backspace	n/a
214.727	0.12	429454	keystroke	g	n/a
214.9075	0.135	429815	keystroke	o	n/a
215.0125	0.105	430025	keystroke	n	n/a
215.1465	0.091	430293	keystroke	Key.space	n/a
215.4175	0.105	430835	keystroke	c	n/a
215.5375	0.12	431075	keystroke	o	n/a
215.5825	0.105	431165	keystroke	n	n/a
216.0325	0.089	432065	keystroke	s	n/a
216.287	0.105	432574	keystroke	c	n/a
216.512	0.09	433024	keystroke	i	n/a
216.662	0.15	433324	keystroke	o	n/a
216.782	0.075	433564	keystroke	u	n/a
216.917	0.12	433834	keystroke	s	n/a
217.262	0.06	434524	keystroke	n	n/a
217.367	0.105	434734	keystroke	e	n/a
217.6225	0.045	435245	keystroke	s	n/a
217.7425	0.075	435485	keystroke	s	n/a
217.8325	0.089	435665	keystroke	Key.space	n/a
217.9965	0.0905	435993	keystroke	a	n/a
218.387	0.06	436774	keystroke	c	n/a
218.567	0.09	437134	keystroke	a	n/a
218.807	0.06	437614	keystroke	d	n/a
218.972	0.09	437944	keystroke	e	n/a
219.122	0.09	438244	keystroke	m	n/a
219.317	0.075	438634	keystroke	i	n/a
219.617	0.12	439234	keystroke	c	n/a
219.812	0.15	439624	keystroke	s	n/a
220.067	0.0595	440134	keystroke	Key.space	n/a
220.2925	0.089	440585	keystroke	e	n/a
220.4125	0.089	440825	keystroke	n	n/a
221.0425	0.06	442085	keystroke	g	n/a
221.432	0.075	442864	keystroke	c	n/a
221.777	0.0755	443554	keystroke	Key.backspace	n/a
221.8975	0.105	443795	keystroke	Key.backspace	n/a
222.0475	0.09	444095	keystroke	c	n/a
222.2875	0.15	444575	keystroke	o	n/a
222.4075	0.09	444815	keystroke	u	n/a
222.6625	0.105	445325	keystroke	r	n/a
222.9325	0.09	445865	keystroke	a	n/a
223.112	0.075	446224	keystroke	g	n/a
223.172	0.105	446344	keystroke	e	n/a
223.817	0.045	447634	keystroke	Key.enter	n/a
223.866	5.413	447732	prompt	n/a	neon editors phase sand\n
225.3925	0.045	450785	keystroke	Key.backspace	n/a
225.827	0.09	451654	keystroke	n	n/a
225.962	0.105	451924	keystroke	e	n/a
226.082	0.06	452164	keystroke	o	n/a
226.292	0.03	452584	keystroke	n	n/a
226.412	0.075	452824	keystroke	Key.space	n/a
226.517	0.06	453034	keystroke	e	n/a
226.727	0.105	453454	keystroke	d	n/a
226.847	0.06	453694	keystroke	i	n/a
227.012	0.09	454024	keystroke	t	n/a
227.117	0.075	454234	keystroke	o	n/a
227.207	0.105	454414	keystroke	r	n/a
227.447	0.105	454894	keystroke	s	n/a
227.582	0.06	455164	keystroke	Key.space	n/a
227.717	0.09	455434	keystroke	p	n/a
227.912	0.06	455824	keystroke	h	n/a
228.062	0.06	456124	keystroke	a	n/a
228.242	0.12	456484	keystroke	s	n/a
228.332	0.12	456664	keystroke	e	n/a
228.467	0.075	456934	keystroke	Key.space	n/a
228.587	0.12	457174	keystroke	s	n/a
228.752	0.075	457504	keystroke	a	n/a
228.842	0.06	457684	keystroke	n	n/a
228.932	0.105	457864	keystroke	d	n/a
229.232	0.045	458464	keystroke	Key.enter	n/a
229.2815	5.547	458563	prompt	n/a	nissan common copies gone\n
229.922	0.075	459844	keystroke	n	n/a
230.072	0.0905	460144	keystroke	i	n/a
230.1775	0.06	460355	keystroke	s	n/a
230.2975	0.09	460595	keystroke	s	n/a
230.4925	0.105	460985	keystroke	a	n/a
230.5825	0.09	461165	keystroke	n	n/a
230.6875	0.09	461375	keystroke	Key.space	n/a
230.8525	0.075	461705	keystroke	c	n/a
230.9425	0.09	461885	keystroke	o	n/a
231.0925	0.075	462185	keystroke	m	n/a
231.2125	0.105	462425	keystroke	m	n/a
231.3625	0.15	462725	keystroke	o	n/a
231.4825	0.105	462965	keystroke	n	n/a
231.6475	0.09	463295	keystroke	Key.space	n/a
232.0075	0.09	464015	keystroke	p	n/a
232.3675	0.075	464735	keystroke	Key.backspace	n/a
232.4725	0.15	464945	keystroke	c	n/a
232.6375	0.1345	465275	keystroke	o	n/a
232.742	0.12	465484	keystroke	p	n/a
232.967	0.105	465934	keystroke	i	n/a
233.0875	0.0895	466175	keystroke	e	n/a
233.252	0.09	466504	keystroke	s	n/a
233.357	0.09	466714	keystroke	Key.space	n/a
233.612	0.075	467224	keystroke	g	n/a
233.672	0.15	467344	keystroke	o	n/a
233.807	0.09	467614	keystroke	n	n/a
233.852	0.12	467704	keystroke	e	n/a
234.737	0.09	469474	keystroke	Key.enter	n/a
234.8335	5.65	469667	prompt	n/a	compiler always ministry releases\n
235.397	0.075	470794	keystroke	c	n/a
235.502	0.135	471004	keystroke	o	n/a
235.622	0.09	471244	keystroke	m	n/a
235.862	0.06	471724	keystroke	p	n/a
236.012	0.09	472024	keystroke	i	n/a
236.267	0.075	472534	keystroke	l	n/a
236.402	0.135	472804	keystroke	e	n/a
236.507	0.12	473014	keystroke	r	n/a
236.642	0.0895	473284	keystroke	Key.space	n/a
236.7915	0.135	473583	keystroke	a	n/a
236.8665	0.106	473733	keystroke	l	n/a
237.0025	0.104	474005	keystroke	w	n/a
237.1975	0.09	474395	keystroke	a	n/a
237.3615	0.075	474723	keystroke	y	n/a
237.4825	0.089	474965	keystroke	s	n/a
237.6165	0.06	475233	keystroke	Key.space	n/a
237.9765	0.106	475953	keystroke	m	n/a
238.1575	0.1345	476315	keystroke	i	n/a
238.2475	0.075	476495	keystroke	n	n/a
238.367	0.105	476734	keystroke	i	n/a
238.457	0.1055	476914	keystroke	s	n/a
238.667	0.06	477334	keystroke	t	n/a
238.832	0.09	477664	keystroke	r	n/a
238.952	0.135	477904	keystroke	y	n/a
239.1165	0.0905	478233	keystroke	Key.space	n/a
239.252	0.075	478504	keystroke	r	n/a
239.432	0.06	478864	keystroke	e	n/a
239.522	0.075	479044	keystroke	l	n/a
239.627	0.075	479254	keystroke	e	n/a
239.822	0.075	479644	keystroke	a	n/a
240.002	0.135	480004	keystroke	s	n/a
240.092	0.09	480184	keystroke	e	n/a
240.257	0.105	480514	keystroke	s	n/a
240.437	0.045	480874	keystroke	Key.enter	n/a
240.486	5.6975	480972	prompt	n/a	margin convertible followed motels\n
241.007	0.12	482014	keystroke	m	n/a
241.142	0.12	482284	keystroke	a	n/a
241.337	0.075	482674	keystroke	r	n/a
241.652	0.09	483304	keystroke	g	n/a
241.817	0.15	483634	keystroke	i	n/a
241.907	0.12	483814	keystroke	n	n/a
241.997	0.105	483994	keystroke	Key.space	n/a
242.192	0.105	484384	keystroke	c	n/a
242.267	0.1195	484534	keystroke	o	n/a
242.357	0.075	484714	keystroke	n	n/a
242.447	0.135	484894	keystroke	v	n/a
242.597	0.1195	485194	keystroke	e	n/a
242.6565	0.1055	485313	keystroke	r	n/a
242.8665	0.09	485733	keystroke	t	n/a
242.9415	0.06	485883	keystroke	i	n/a
243.2265	0.075	486453	keystroke	b	n/a
243.3915	0.105	486783	keystroke	l	n/a
243.4665	0.09	486933	keystroke	e	n/a
243.5715	0.075	487143	keystroke	Key.space	n/a
243.7515	0.075	487503	keystroke	f	n/a
243.8415	0.06	487683	keystroke	o	n/a
244.0215	0.045	488043	keystroke	l	n/a
244.157	0.045	488314	keystroke	l	n/a
244.322	0.06	488644	keystroke	o	n/a
244.383	0.104	488766	keystroke	w	n/a
244.502	0.105	489004	keystroke	e	n/a
244.757	0.075	489514	keystroke	d	n/a
244.892	0.075	489784	keystroke	Key.space	n/a
245.222	0.06	490444	keystroke	m	n/a
245.327	0.09	490654	keystroke	o	n/a
245.447	0.075	490894	keystroke	t	n/a
245.597	0.09	491194	keystroke	e	n/a
245.732	0.06	491464	keystroke	l	n/a
245.822	0.105	491644	keystroke	s	n/a
246.092	0.09	492184	keystroke	Key.enter	n/a
246.187	6.8815	492374	prompt	n/a	seasonal cleaners mirror evening\n
246.7525	0.09	493505	keystroke	s	n/a
246.8875	0.075	493775	keystroke	e	n/a
247.0075	0.09	494015	keystroke	a	n/a
247.2025	0.09	494405	keystroke	s	n/a
247.3075	0.12	494615	keystroke	o	n/a
247.3825	0.09	494765	keystroke	n	n/a
247.4875	0.105	494975	keystroke	a	n/a
247.6075	0.105	495215	keystroke	l	n/a
247.9075	0.075	495815	keystroke	Key.space	n/a
248.0575	0.105	496115	keystroke	c	n/a
248.1775	0.09	496355	keystroke	l	n/a
248.2975	0.075	496595	keystroke	e	n/a
248.4475	0.105	496895	keystroke	a	n/a
248.5675	0.075	497135	keystroke	n	n/a
248.7625	0.12	497525	keystroke	e	n/a
248.8375	0.09	497675	keystroke	r	n/a
249.047	0.105	498094	keystroke	s	n/a
249.137	0.105	498274	keystroke	Key.space	n/a
249.257	0.12	498514	keystroke	m	n/a
249.437	0.09	498874	keystroke	i	n/a
249.512	0.09	499024	keystroke	r	n/a
249.647	0.105	499294	keystroke	r	n/a
249.767	0.075	499534	keystroke	o	n/a
249.872	0.09	499744	keystroke	r	n/a
249.977	0.09	499954	keystroke	Key.space	n/a
250.277	0.09	500554	keystroke	e	n/a
250.802	0.105	501604	keystroke	v	n/a
251.042	0.105	502084	keystroke	e	n/a
251.177	0.09	502354	keystroke	n	n/a
251.417	0.12	502834	keystroke	n	n/a
251.492	0.075	502984	keystroke	i	n/a
252.0025	0.045	504005	keystroke	Key.backspace	n/a
252.1075	0.075	504215	keystroke	Key.backspace	n/a
252.3475	0.135	504695	keystroke	i	n/a
252.4225	0.12	504845	keystroke	n	n/a
252.5275	0.075	505055	keystroke	g	n/a
253.022	0.045	506044	keystroke	Key.enter	n/a
253.0745	6.699	506149	prompt	n/a	lounge shops innovation applies\n
253.892	0.075	507784	keystroke	l	n/a
254.1325	0.165	508265	keystroke	o	n/a
254.2375	0.105	508475	keystroke	u	n/a
254.462	0.075	508924	keystroke	n	n/a
254.777	0.09	509554	keystroke	g	n/a
254.912	0.105	509824	keystroke	e	n/a
255.062	0.09	510124	keystroke	Key.space	n/a
255.302	0.09	510604	keystroke	c	n/a
255.662	0.075	511324	keystroke	Key.backspace	n/a
255.752	0.105	511504	keystroke	s	n/a
255.962	0.09	511924	keystroke	h	n/a
256.112	0.075	512224	keystroke	o	n/a
256.577	0.1045	513154	keystroke	p	n/a
256.7115	0.12	513423	keystroke	s	n/a
256.8915	0.105	513783	keystroke	Key.space	n/a
257.1165	0.12	514233	keystroke	i	n/a
257.2515	0.045	514503	keystroke	n	n/a
257.3565	0.091	514713	keystroke	n	n/a
257.5365	0.09	515073	keystroke	o	n/a
257.7015	0.091	515403	keystroke	v	n/a
257.8815	0.105	515763	keystroke	a	n/a
258.137	0.09	516274	keystroke	t	n/a
258.197	0.18	516394	keystroke	i	n/a
258.287	0.15	516574	keystroke	o	n/a
258.362	0.12	516724	keystroke	n	n/a
258.482	0.09	516964	keystroke	Key.space	n/a
258.662	0.165	517324	keystroke	a	n/a
258.812	0.03	517624	keystroke	p	n/a
258.887	0.105	517774	keystroke	p	n/a
259.022	0.105	518044	keystroke	l	n/a
259.217	0.09	518434	keystroke	i	n/a
259.277	0.075	518554	keystroke	e	n/a
259.427	0.105	518854	keystroke	s	n/a
259.697	0.075	519394	keystroke	Key.enter	n/a
259.7775	8.426	519555	prompt	n/a	grammar hungarian brian worldcat\n
260.507	0.105	521014	keystroke	g	n/a
260.747	0.075	521494	keystroke	r	n/a
260.987	0.075	521974	keystroke	a	n/a
261.077	0.06	522154	keystroke	m	n/a
261.212	0.0895	522424	keystroke	m	n/a
261.2865	0.091	522573	keystroke	a	n/a
261.5275	0.104	523055	keystroke	r	n/a
261.6915	0.09	523383	keystroke	Key.space	n/a
262.1115	0.09	524223	keystroke	h	n/a
262.1865	0.09	524373	keystroke	u	n/a
262.3965	0.09	524793	keystroke	n	n/a
262.5015	0.12	525003	keystroke	g	n/a
262.8465	0.09	525693	keystroke	a	n/a
263.0415	0.09	526083	keystroke	r	n/a
263.1915	0.09	526383	keystroke	i	n/a
263.3115	0.12	526623	keystroke	a	n/a
263.4615	0.09	526923	keystroke	n	n/a
263.5665	0.075	527133	keystroke	Key.space	n/a
263.7015	0.075	527403	keystroke	b	n/a
263.7915	0.105	527583	keystroke	r	n/a
263.9125	0.089	527825	keystroke	i	n/a
264.0475	0.104	528095	keystroke	a	n/a
264.1365	0.09	528273	keystroke	n	n/a
264.2565	0.09	528513	keystroke	Key.space	n/a
264.647	0.105	529294	keystroke	w	n/a
264.767	0.09	529534	keystroke	o	n/a
264.902	0.075	529804	keystroke	r	n/a
265.127	0.06	530254	keystroke	k	n/a
265.4565	0.06	530913	keystroke	Key.backspace	n/a
265.7115	0.06	531423	keystroke	l	n/a
265.7865	0.105	531573	keystroke	d	n/a
266.1465	0.09	532293	keystroke	c	n/a
266.3415	0.09	532683	keystroke	a	n/a
266.5965	0.06	533193	keystroke	t	n/a
268.127	0.075	536254	keystroke	Key.enter	n/a
268.206	6.8675	536412	prompt	n/a	fancy utilize cheat stewart\n
268.937	0.105	537874	keystroke	f	n/a
269.117	0.09	538234	keystroke	a	n/a
269.222	0.075	538444	keystroke	n	n/a
269.372	0.1195	538744	keystroke	c	n/a
269.5215	0.105	539043	keystroke	y	n/a
269.6415	0.06	539283	keystroke	Key.space	n/a
270.0315	0.075	540063	keystroke	u	n/a
270.4665	0.09	540933	keystroke	t	n/a
270.6015	0.09	541203	keystroke	i	n/a
270.7965	0.15	541593	keystroke	l	n/a
270.9615	0.06	541923	keystroke	i	n/a
271.2465	0.135	542493	keystroke	z	n/a
271.562	0.075	543124	keystroke	e	n/a
271.727	0.0595	543454	keystroke	Key.space	n/a
271.8015	0.12	543603	keystroke	c	n/a
271.9365	0.06	543873	keystroke	h	n/a
272.0415	0.075	544083	keystroke	e	n/a
272.2065	0.105	544413	keystroke	a	n/a
272.4165	0.105	544833	keystroke	t	n/a
272.5815	0.09	545163	keystroke	Key.space	n/a
272.702	0.135	545404	keystroke	s	n/a
272.987	0.09	545974	keystroke	t	n/a
273.257	0.06	546514	keystroke	r	n/a
273.602	0.0455	547204	keystroke	Key.backspace	n/a
273.632	0.09	547264	keystroke	e	n/a
273.797	0.12	547594	keystroke	w	n/a
274.022	0.105	548044	keystroke	a	n/a
274.292	0.015	548584	keystroke	r	n/a
274.607	0.06	549214	keystroke	t	n/a
275.012	0.06	550024	keystroke	Key.enter	n/a
275.077	6.1015	550154	prompt	n/a	professor hart supplier tracking\n
275.852	0.09	551704	keystroke	p	n/a
275.972	0.09	551944	keystroke	r	n/a
276.077	0.105	552154	keystroke	o	n/a
276.287	0.1205	552574	keystroke	f	n/a
276.4375	0.1195	552875	keystroke	e	n/a
276.677	0.06	553354	keystroke	s	n/a
276.797	0.1055	553594	keystroke	s	n/a
276.9175	0.075	553835	keystroke	o	n/a
277.0375	0.104	554075	keystroke	r	n/a
277.1275	0.06	554255	keystroke	Key.space	n/a
277.2775	0.12	554555	keystroke	h	n/a
277.3825	0.089	554765	keystroke	a	n/a
277.5615	0.091	555123	keystroke	r	n/a
277.8625	0.075	555725	keystroke	t	n/a
277.9825	0.105	555965	keystroke	Key.space	n/a
278.237	0.165	556474	keystroke	s	n/a
278.357	0.09	556714	keystroke	u	n/a
278.582	0.03	557164	keystroke	p	n/a
278.702	0.09	557404	keystroke	p	n/a
278.867	0.075	557734	keystroke	l	n/a
279.0775	0.105	558155	keystroke	i	n/a
279.1825	0.15	558365	keystroke	e	n/a
279.2875	0.15	558575	keystroke	r	n/a
279.4825	0.045	558965	keystroke	Key.space	n/a
279.6775	0.075	559355	keystroke	t	n/a
279.8275	0.06	559655	keystroke	r	n/a
279.9925	0.075	559985	keystroke	a	n/a
280.172	0.105	560344	keystroke	c	n/a
280.247	0.0895	560494	keystroke	k	n/a
280.4265	0.135	560853	keystroke	i	n/a
280.4875	0.134	560975	keystroke	n	n/a
280.5765	0.105	561153	keystroke	g	n/a
281.0865	0.09	562173	keystroke	Key.enter	n/a
281.1855	6.563	562371	prompt	n/a	auction andale placement henry\n
281.747	0.105	563494	keystroke	a	n/a
281.912	0.075	563824	keystroke	u	n/a
282.1515	0.09	564303	keystroke	c	n/a
282.3915	0.075	564783	keystroke	t	n/a
282.4965	0.165	564993	keystroke	i	n/a
282.6015	0.15	565203	keystroke	o	n/a
282.6915	0.106	565383	keystroke	n	n/a
282.8265	0.06	565653	keystroke	Key.space	n/a
283.0215	0.09	566043	keystroke	a	n/a
283.1265	0.061	566253	keystroke	n	n/a
283.3365	0.09	566673	keystroke	d	n/a
283.5325	0.119	567065	keystroke	a	n/a
283.6215	0.075	567243	keystroke	l	n/a
283.8015	0.105	567603	keystroke	e	n/a
283.9665	0.09	567933	keystroke	Key.space	n/a
284.1915	0.06	568383	keystroke	p	n/a
284.3715	0.1205	568743	keystroke	l	n/a
284.507	0.075	569014	keystroke	a	n/a
284.702	0.105	569404	keystroke	c	n/a
284.867	0.105	569734	keystroke	e	n/a
285.032	0.135	570064	keystroke	m	n/a
285.122	0.105	570244	keystroke	e	n/a
285.242	0.075	570484	keystroke	n	n/a
285.332	0.105	570664	keystroke	t	n/a
285.422	0.0745	570844	keystroke	Key.space	n/a
285.6165	0.06	571233	keystroke	t	n/a
285.9165	0.075	571833	keystroke	Key.backspace	n/a
286.1565	0.09	572313	keystroke	h	n/a
286.2615	0.1655	572523	keystroke	e	n/a
286.3965	0.075	572793	keystroke	n	n/a
286.4115	0.03	572823	keystroke	r	n/a
286.877	0.015	573754	keystroke	Key.backspace	n/a
287.222	0.105	574444	keystroke	r	n/a
287.372	0.105	574744	keystroke	y	n/a
287.672	0.075	575344	keystroke	Key.enter	n/a
287.751	7.347	575502	prompt	n/a	corn august swap protective\n
288.5715	0.105	577143	keystroke	c	n/a
288.6615	0.106	577323	keystroke	o	n/a
288.9175	0.014	577835	keystroke	n	n/a
289.202	0.075	578404	keystroke	Key.backspace	n/a
289.292	0.105	578584	keystroke	r	n/a
289.472	0.09	578944	keystroke	n	n/a
289.592	0.09	579184	keystroke	Key.space	n/a
289.832	0.135	579664	keystroke	a	n/a
289.982	0.0895	579964	keystroke	u	n/a
290.2375	0.105	580475	keystroke	g	n/a
290.3715	0.061	580743	keystroke	u	n/a
290.5825	0.105	581165	keystroke	s	n/a
290.8075	0.075	581615	keystroke	t	n/a
290.8975	0.06	581795	keystroke	Key.space	n/a
291.0925	0.105	582185	keystroke	w	n/a
291.542	0.09	583084	keystroke	Key.backspace	n/a
291.602	0.075	583204	keystroke	s	n/a
291.842	0.075	583684	keystroke	w	n/a
292.022	0.0905	584044	keystroke	a	n/a
292.1275	0.12	584255	keystroke	p	n/a
292.2615	0.091	584523	keystroke	Key.space	n/a
292.9825	0.075	585965	keystroke	p	n/a
293.1025	0.104	586205	keystroke	r	n/a
293.2225	0.105	586445	keystroke	o	n/a
293.5515	0.075	587103	keystroke	t	n/a
293.687	0.075	587374	keystroke	e	n/a
293.882	0.075	587764	keystroke	c	n/a
294.107	0.075	588214	keystroke	t	n/a
294.272	0.075	588544	keystroke	i	n/a
294.362	0.09	588724	keystroke	v	n/a
294.497	0.12	588994	keystroke	e	n/a
295.022	0.075	590044	keystroke	Key.enter	n/a
295.1005	4.9325	590201	prompt	n/a	currently glenn depression holly\n
295.7275	0.09	591455	keystroke	c	n/a
295.8475	0.075	591695	keystroke	u	n/a
295.9525	0.06	591905	keystroke	r	n/a
296.087	0.075	592174	keystroke	r	n/a
296.237	0.09	592474	keystroke	e	n/a
296.327	0.075	592654	keystroke	n	n/a
296.4475	0.0895	592895	keystroke	t	n/a
296.582	0.12	593164	keystroke	l	n/a
296.747	0.0755	593494	keystroke	y	n/a
296.807	0.1055	593614	keystroke	Key.space	n/a
297.1525	0.105	594305	keystroke	g	n/a
297.2875	0.075	594575	keystroke	l	n/a
297.3475	0.12	594695	keystroke	e	n/a
297.4815	0.046	594963	keystroke	n	n/a
297.6025	0.105	595205	keystroke	n	n/a
297.7215	0.061	595443	keystroke	Key.space	n/a
297.7675	0.105	595535	keystroke	d	n/a
297.9775	0.075	595955	keystroke	e	n/a
298.067	0.105	596134	keystroke	p	n/a
298.187	0.06	596374	keystroke	r	n/a
298.292	0.105	596584	keystroke	e	n/a
298.487	0.075	596974	keystroke	s	n/a
298.607	0.105	597214	keystroke	s	n/a
298.697	0.135	597394	keystroke	i	n/a
298.772	0.12	597544	keystroke	o	n/a
298.817	0.12	597634	keystroke	n	n/a
298.922	0.105	597844	keystroke	Key.space	n/a
299.057	0.12	598114	keystroke	h	n/a
299.207	0.105	598414	keystroke	o	n/a
299.402	0.075	598804	keystroke	l	n/a
299.552	0.105	599104	keystroke	l	n/a
299.702	0.135	599404	keystroke	y	n/a
299.927	0.105	599854	keystroke	Key.enter	n/a
300.037	8.081	600074	prompt	n/a	charitable temperatures rendered churches\n
300.797	0.075	601594	keystroke	c	n/a
300.932	0.045	601864	keystroke	h	n/a
301.022	0.06	602044	keystroke	a	n/a
301.202	0.105	602404	keystroke	r	n/a
301.292	0.09	602584	keystroke	i	n/a
301.427	0.075	602854	keystroke	t	n/a
301.637	0.135	603274	keystroke	a	n/a
301.712	0.075	603424	keystroke	b	n/a
301.877	0.12	603754	keystroke	l	n/a
302.012	0.105	604024	keystroke	e	n/a
302.117	0.12	604234	keystroke	Key.space	n/a
302.462	0.0755	604924	keystroke	t	n/a
302.6265	0.09	605253	keystroke	e	n/a
302.7315	0.045	605463	keystroke	m	n/a
303.2415	0.075	606483	keystroke	p	n/a
303.3015	0.135	606603	keystroke	e	n/a
303.4065	0.09	606813	keystroke	r	n/a
303.7515	0.135	607503	keystroke	a	n/a
304.1115	0.09	608223	keystroke	t	n/a
304.3065	0.09	608613	keystroke	u	n/a
304.4565	0.105	608913	keystroke	r	n/a
304.7415	0.105	609483	keystroke	e	n/a
304.967	0.075	609934	keystroke	s	n/a
305.176	0.076	610352	keystroke	Key.space	n/a
305.372	0.105	610744	keystroke	r	n/a
305.522	0.0895	611044	keystroke	e	n/a
305.6415	0.075	611283	keystroke	n	n/a
305.7915	0.105	611583	keystroke	d	n/a
305.9415	0.12	611883	keystroke	e	n/a
306.0315	0.12	612063	keystroke	r	n/a
306.1815	0.105	612363	keystroke	e	n/a
306.3465	0.09	612693	keystroke	d	n/a
306.5115	0.09	613023	keystroke	Key.space	n/a
306.6165	0.105	613233	keystroke	c	n/a
306.7065	0.075	613413	keystroke	h	n/a
306.9925	0.1045	613985	keystroke	u	n/a
307.186	0.076	614372	keystroke	r	n/a
307.412	0.135	614824	keystroke	c	n/a
307.502	0.075	615004	keystroke	h	n/a
307.622	0.104	615244	keystroke	e	n/a
307.816	0.09	615632	keystroke	s	n/a
308.0715	0.045	616143	keystroke	Key.enter	n/a
308.1215	4.512	616243	prompt	n/a	near cutting intl isn't\n
308.7765	0.09	617553	keystroke	n	n/a
308.8815	0.075	617763	keystroke	e	n/a
309.0175	0.1195	618035	keystroke	a	n/a
309.212	0.105	618424	keystroke	r	n/a
309.347	0.105	618694	keystroke	Key.space	n/a
309.467	0.075	618934	keystroke	h	n/a
309.827	0.075	619654	keystroke	Key.backspace	n/a
309.932	0.135	619864	keystroke	c	n/a
310.1115	0.06	620223	keystroke	u	n/a
310.2165	0.075	620433	keystroke	t	n/a
310.3515	0.121	620703	keystroke	t	n/a
310.5315	0.136	621063	keystroke	i	n/a
310.6515	0.045	621303	keystroke	n	n/a
310.6825	0.09	621365	keystroke	g	n/a
310.8015	0.075	621603	keystroke	Key.space	n/a
310.922	0.12	621844	keystroke	i	n/a
310.967	0.105	621934	keystroke	n	n/a
311.147	0.12	622294	keystroke	t	n/a
311.297	0.09	622594	keystroke	l	n/a
311.432	0.075	622864	keystroke	Key.space	n/a
311.627	0.1045	623254	keystroke	i	n/a
311.8365	0.105	623673	keystroke	s	n/a
311.9275	0.089	623855	keystroke	n	n/a
312.0625	0.1045	624125	keystroke	'	n/a
312.152	0.09	624304	keystroke	t	n/a
312.557	0.075	625114	keystroke	Key.enter	n/a
312.636	6.7175	625272	prompt	n/a	adopted white television jessica\n
313.3825	0.104	626765	keystroke	a	n/a
313.6215	0.105	627243	keystroke	d	n/a
313.7415	0.075	627483	keystroke	p	n/a
314.0115	0.075	628023	keystroke	l	n/a
314.3715	0.06	628743	keystroke	Key.backspace	n/a
314.4765	0.06	628953	keystroke	Key.backspace	n/a
314.642	0.075	629284	keystroke	o	n/a
314.822	0.075	629644	keystroke	p	n/a
314.927	0.105	629854	keystroke	t	n/a
315.137	0.075	630274	keystroke	e	n/a
315.332	0.105	630664	keystroke	d	n/a
315.422	0.075	630844	keystroke	Key.space	n/a
315.632	0.105	631264	keystroke	w	n/a
315.722	0.0895	631444	keystroke	h	n/a
315.7665	0.105	631533	keystroke	i	n/a
315.9315	0.075	631863	keystroke	t	n/a
316.127	0.105	632254	keystroke	e	n/a
316.337	0.075	632674	keystroke	Key.space	n/a
316.982	0.09	633964	keystroke	t	n/a
317.177	0.075	634354	keystroke	e	n/a
317.282	0.075	634564	keystroke	l	n/a
317.357	0.075	634714	keystroke	e	n/a
317.582	0.135	635164	keystroke	v	n/a
317.687	0.075	635374	keystroke	i	n/a
317.837	0.075	635674	keystroke	s	n/a
317.897	0.12	635794	keystroke	i	n/a
317.972	0.15	635944	keystroke	o	n/a
318.047	0.105	636094	keystroke	n	n/a
318.137	0.09	636274	keystroke	Key.space	n/a
318.332	0.075	636664	keystroke	j	n/a
318.392	0.09	636784	keystroke	e	n/a
318.587	0.03	637174	keystroke	s	n/a
318.722	0.045	637444	keystroke	s	n/a
318.782	0.09	637564	keystroke	i	n/a
318.917	0.135	637834	keystroke	c	n/a
319.067	0.105	638134	keystroke	a	n/a
319.262	0.09	638524	keystroke	Key.enter	n/a
319.356	6.7775	638712	prompt	n/a	frozen powerseller worthy crossword\n
319.922	0.105	639844	keystroke	f	n/a
320.072	0.105	640144	keystroke	r	n/a
320.192	0.09	640384	keystroke	o	n/a
320.567	0.075	641134	keystroke	z	n/a
320.792	0.075	641584	keystroke	e	n/a
320.927	0.09	641854	keystroke	n	n/a
321.002	0.09	642004	keystroke	Key.space	n/a
321.167	0.1495	642334	keystroke	p	n/a
321.3015	0.106	642603	keystroke	o	n/a
321.4075	0.119	642815	keystroke	w	n/a
321.4975	0.105	642995	keystroke	e	n/a
321.6775	0.104	643355	keystroke	r	n/a
322.0215	0.136	644043	keystroke	s	n/a
322.1415	0.075	644283	keystroke	e	n/a
322.277	0.045	644554	keystroke	l	n/a
322.412	0.105	644824	keystroke	l	n/a
322.487	0.075	644974	keystroke	e	n/a
322.6665	0.076	645333	keystroke	r	n/a
322.7565	0.09	645513	keystroke	Key.space	n/a
322.9065	0.1205	645813	keystroke	w	n/a
323.012	0.105	646024	keystroke	o	n/a
323.102	0.09	646204	keystroke	r	n/a
323.297	0.105	646594	keystroke	t	n/a
323.387	0.06	646774	keystroke	h	n/a
323.567	0.075	647134	keystroke	y	n/a
323.627	0.09	647254	keystroke	Key.space	n/a
323.747	0.12	647494	keystroke	c	n/a
323.972	0.075	647944	keystroke	r	n/a
324.062	0.075	648124	keystroke	o	n/a
324.167	0.06	648334	keystroke	s	n/a
324.302	0.075	648604	keystroke	s	n/a
324.482	0.105	648964	keystroke	w	n/a
324.572	0.06	649144	keystroke	e	n/a
324.633	0.074	649266	keystroke	o	n/a
325.1715	0.045	650343	keystroke	Key.backspace	n/a
325.2615	0.075	650523	keystroke	Key.backspace	n/a
325.4265	0.075	650853	keystroke	o	n/a
325.4865	0.075	650973	keystroke	r	n/a
325.9365	0.075	651873	keystroke	d	n/a
326.0715	0.06	652143	keystroke	Key.enter	n/a
326.139	20.2145	652278	prompt	n/a	admin accommodate normally years\n
327.092	0.105	654184	keystroke	a	n/a
327.272	0.09	654544	keystroke	d	n/a
327.407	0.075	654814	keystroke	m	n/a
327.572	0.105	655144	keystroke	i	n/a
327.662	0.075	655324	keystroke	n	n/a
327.8565	0.06	655713	keystroke	Key.space	n/a
328.0065	0.0605	656013	keystroke	a	n/a
328.3215	0.045	656643	keystroke	c	n/a
328.4425	0.09	656885	keystroke	c	n/a
328.5465	0.105	657093	keystroke	o	n/a
328.7415	0.075	657483	keystroke	m	n/a
328.9515	0.09	657903	keystroke	o	n/a
329.1925	0.059	658385	keystroke	d	n/a
329.3265	0.0905	658653	keystroke	a	n/a
329.567	0.075	659134	keystroke	t	n/a
329.702	0.075	659404	keystroke	e	n/a
329.792	0.09	659584	keystroke	Key.space	n/a
329.972	0.075	659944	keystroke	n	n/a
330.137	0.09	660274	keystroke	o	n/a
330.212	0.09	660424	keystroke	r	n/a
330.362	0.09	660724	keystroke	m	n/a
330.527	0.12	661054	keystroke	a	n/a
330.587	0.075	661174	keystroke	l	n/a
330.722	0.09	661444	keystroke	l	n/a
330.917	0.09	661834	keystroke	y	n/a
330.992	0.09	661984	keystroke	Key.space	n/a
331.277	0.09	662554	keystroke	y	n/a
331.367	0.075	662734	keystroke	e	n/a
331.502	0.12	663004	keystroke	a	n/a
331.697	0.09	663394	keystroke	r	n/a
331.877	0.12	663754	keystroke	s	n/a
336.1395	0.012	672279	keystroke	Key.left	n/a
336.2865	0.06	672573	keystroke	Key.left	n/a
336.6015	0.105	673203	keystroke	Key.left	n/a
337.3965	0.06	674793	keystroke	Key.right	n/a
337.5765	0.03	675153	keystroke	Key.right	n/a
337.7115	0.075	675423	keystroke	Key.right	n/a
338.0565	0.03	676113	keystroke	Key.backspace	n/a
338.2065	0.03	676413	keystroke	Key.backspace	n/a
338.3265	0.045	676653	keystroke	Key.backspace	n/a
338.4615	0.075	676923	keystroke	Key.backspace	n/a
338.6115	0.06	677223	keystroke	Key.backspace	n/a
338.7915	0.03	677583	keystroke	Key.backspace	n/a
338.9265	0.075	677853	keystroke	Key.backspace	n/a
339.1065	0.03	678213	keystroke	Key.backspace	n/a
339.2565	0.045	678513	keystroke	Key.backspace	n/a
339.4065	0.045	678813	keystroke	Key.backspace	n/a
339.5565	0.045	679113	keystroke	Key.backspace	n/a
339.7065	0.0455	679413	keystroke	Key.backspace	n/a
339.857	0.045	679714	keystroke	Key.backspace	n/a
340.007	0.06	680014	keystroke	Key.backspace	n/a
340.142	0.075	680284	keystroke	Key.backspace	n/a
340.4715	0.06	680943	keystroke	Key.backspace	n/a
340.7565	0.045	681513	keystroke	Key.backspace	n/a
341.0865	0.03	682173	keystroke	Key.backspace	n/a
341.2065	0.06	682413	keystroke	Key.backspace	n/a
341.5815	0.03	683163	keystroke	Key.backspace	n/a
343.172	0.09	686344	keystroke	m	n/a
343.337	0.075	686674	keystroke	o	n/a
343.427	0.0905	686854	keystroke	d	n/a
343.562	0.12	687124	keystroke	a	n/a
343.802	0.09	687604	keystroke	t	n/a
343.922	0.12	687844	keystroke	e	n/a
344.0125	0.1495	688025	keystroke	Key.space	n/a
344.117	0.075	688234	keystroke	n	n/a
344.207	0.105	688414	keystroke	o	n/a
344.282	0.105	688564	keystroke	r	n/a
344.462	0.0745	688924	keystroke	m	n/a
344.5515	0.12	689103	keystroke	a	n/a
344.6565	0.045	689313	keystroke	l	n/a
344.7915	0.06	689583	keystroke	l	n/a
344.9565	0.105	689913	keystroke	y	n/a
345.0465	0.12	690093	keystroke	Key.space	n/a
345.1815	0.075	690363	keystroke	y	n/a
345.2415	0.075	690483	keystroke	e	n/a
345.3765	0.135	690753	keystroke	a	n/a
345.6165	0.06	691233	keystroke	r	n/a
345.767	0.105	691534	keystroke	s	n/a
346.3065	0.045	692613	keystroke	Key.enter	n/a
346.364	6.0495	692728	prompt	n/a	focal changed these're outlet\n
346.922	0.135	693844	keystroke	f	n/a
347.087	0.12	694174	keystroke	o	n/a
347.252	0.105	694504	keystroke	c	n/a
347.402	0.12	694804	keystroke	a	n/a
347.492	0.09	694984	keystroke	l	n/a
347.567	0.09	695134	keystroke	Key.space	n/a
347.702	0.09	695404	keystroke	c	n/a
347.822	0.045	695644	keystroke	h	n/a
347.882	0.135	695764	keystroke	a	n/a
348.032	0.0455	696064	keystroke	n	n/a
348.1225	0.18	696245	keystroke	g	n/a
348.497	0.075	696994	keystroke	e	n/a
348.692	0.075	697384	keystroke	d	n/a
348.887	0.09	697774	keystroke	Key.space	n/a
349.352	0.105	698704	keystroke	t	n/a
349.472	0.075	698944	keystroke	h	n/a
349.592	0.105	699184	keystroke	e	n/a
349.817	0.225	699634	keystroke	s	n/a
350.087	0.105	700174	keystroke	e	n/a
350.582	0.06	701164	keystroke	'	n/a
350.672	0.0905	701344	keystroke	r	n/a
350.8225	0.105	701645	keystroke	e	n/a
351.0625	0.09	702125	keystroke	Key.space	n/a
351.512	0.15	703024	keystroke	o	n/a
351.6315	0.0755	703263	keystroke	u	n/a
351.7075	0.089	703415	keystroke	t	n/a
351.8565	0.12	703713	keystroke	l	n/a
351.9465	0.09	703893	keystroke	e	n/a
352.1865	0.09	704373	keystroke	t	n/a
352.3665	0.045	704733	keystroke	Key.enter	n/a
352.4155	6.1775	704831	prompt	n/a	communist ports north fixed\n
352.967	0.165	705934	keystroke	c	n/a
353.072	0.075	706144	keystroke	o	n/a
353.2815	0.03	706563	keystroke	m	n/a
353.3865	0.06	706773	keystroke	m	n/a
353.5665	0.0755	707133	keystroke	u	n/a
353.6865	0.0755	707373	keystroke	n	n/a
354.092	0.0595	708184	keystroke	i	n/a
354.2115	0.1055	708423	keystroke	t	n/a
354.422	0.0445	708844	keystroke	y	n/a
355.1115	0.046	710223	keystroke	Key.backspace	n/a
355.3075	0.029	710615	keystroke	Key.backspace	n/a
355.5015	0.09	711003	keystroke	s	n/a
355.6825	0.089	711365	keystroke	t	n/a
355.8015	0.09	711603	keystroke	Key.space	n/a
356.0125	0.119	712025	keystroke	p	n/a
356.2075	0.105	712415	keystroke	o	n/a
356.2975	0.075	712595	keystroke	r	n/a
356.4765	0.045	712953	keystroke	t	n/a
356.6575	0.09	713315	keystroke	s	n/a
356.7475	0.089	713495	keystroke	Key.space	n/a
356.8515	0.075	713703	keystroke	n	n/a
356.9865	0.105	713973	keystroke	o	n/a
357.0765	0.061	714153	keystroke	r	n/a
357.2415	0.106	714483	keystroke	t	n/a
357.3015	0.06	714603	keystroke	h	n/a
357.3765	0.075	714753	keystroke	Key.space	n/a
357.4965	0.106	714993	keystroke	f	n/a
357.5875	0.12	715175	keystroke	i	n/a
357.7225	0.179	715445	keystroke	x	n/a
358.0215	0.09	716043	keystroke	e	n/a
358.3065	0.105	716613	keystroke	d	n/a
358.5765	0.015	717153	keystroke	Key.enter	n/a
358.596	9.1625	717192	prompt	n/a	google thereafter involved attack\n
359.252	0.075	718504	keystroke	g	n/a
359.312	0.06	718624	keystroke	o	n/a
359.447	0.06	718894	keystroke	o	n/a
359.537	0.12	719074	keystroke	g	n/a
359.642	0.075	719284	keystroke	l	n/a
359.747	0.09	719494	keystroke	e	n/a
359.852	0.09	719704	keystroke	Key.space	n/a
360.047	0.075	720094	keystroke	t	n/a
360.123	0.089	720246	keystroke	h	n/a
360.242	0.15	720484	keystroke	e	n/a
360.377	0.2095	720754	keystroke	r	n/a
360.5415	0.075	721083	keystroke	e	n/a
360.7365	0.121	721473	keystroke	a	n/a
361.0375	0.045	722075	keystroke	t	n/a
361.4425	0.045	722885	keystroke	Key.backspace	n/a
361.4575	0.075	722915	keystroke	f	n/a
361.6525	0.06	723305	keystroke	t	n/a
361.8475	0.12	723695	keystroke	e	n/a
361.9375	0.09	723875	keystroke	r	n/a
362.432	0.09	724864	keystroke	Key.space	n/a
362.837	0.1805	725674	keystroke	o	n/a
362.9425	0.119	725885	keystroke	n	n/a
363.1075	0.105	726215	keystroke	v	n/a
363.2725	0.104	726545	keystroke	o	n/a
363.617	0.015	727234	keystroke	=	n/a
363.842	0.075	727684	keystroke	Key.backspace	n/a
363.977	0.09	727954	keystroke	Key.backspace	n/a
364.1265	0.075	728253	keystroke	Key.backspace	n/a
364.2765	0.045	728553	keystroke	Key.backspace	n/a
364.4265	0.0595	728853	keystroke	Key.backspace	n/a
364.772	0.149	729544	keystroke	i	n/a
364.892	0.105	729784	keystroke	n	n/a
365.026	0.1055	730052	keystroke	v	n/a
365.087	0.0905	730174	keystroke	o	n/a
365.2515	0.105	730503	keystroke	l	n/a
366.002	0.105	732004	keystroke	v	n/a
366.152	0.075	732304	keystroke	e	n/a
366.317	0.09	732634	keystroke	d	n/a
366.422	0.09	732844	keystroke	Key.space	n/a
366.527	0.075	733054	keystroke	a	n/a
366.767	0.015	733534	keystroke	t	n/a
366.887	0.03	733774	keystroke	t	n/a
367.037	0.09	734074	keystroke	a	n/a
367.262	0.076	734524	keystroke	c	n/a
367.352	0.06	734704	keystroke	k	n/a
367.6815	0.075	735363	keystroke	Key.enter	n/a
367.762	6.746	735524	prompt	n/a	master licenses clearly dress\n
368.4025	0.104	736805	keystroke	m	n/a
368.4765	0.105	736953	keystroke	a	n/a
368.6865	0.136	737373	keystroke	s	n/a
369.3015	0.091	738603	keystroke	t	n/a
369.5265	0.135	739053	keystroke	e	n/a
369.6165	0.09	739233	keystroke	r	n/a
369.7675	0.089	739535	keystroke	Key.space	n/a
369.9915	0.045	739983	keystroke	l	n/a
370.172	0.105	740344	keystroke	i	n/a
370.262	0.1045	740524	keystroke	c	n/a
370.5615	0.015	741123	keystroke	e	n/a
370.5915	0.09	741183	keystroke	n	n/a
370.7715	0.061	741543	keystroke	c	n/a
371.1015	0.045	742203	keystroke	Key.backspace	n/a
371.1625	0.134	742325	keystroke	s	n/a
371.2815	0.09	742563	keystroke	e	n/a
371.4765	0.105	742953	keystroke	s	n/a
371.5665	0.075	743133	keystroke	Key.space	n/a
371.8515	0.06	743703	keystroke	c	n/a
371.9415	0.075	743883	keystroke	l	n/a
372.0615	0.0755	744123	keystroke	e	n/a
372.212	0.09	744424	keystroke	a	n/a
372.377	0.09	744754	keystroke	r	n/a
372.572	0.105	745144	keystroke	i	n/a
372.932	0.045	745864	keystroke	Key.backspace	n/a
373.112	0.09	746224	keystroke	l	n/a
373.232	0.105	746464	keystroke	y	n/a
373.367	0.075	746734	keystroke	Key.space	n/a
373.607	0.105	747214	keystroke	d	n/a
373.8315	0.075	747663	keystroke	r	n/a
373.9965	0.06	747993	keystroke	e	n/a
374.1615	0.045	748323	keystroke	s	n/a
374.2815	0.09	748563	keystroke	s	n/a
374.4315	0.0755	748863	keystroke	Key.enter	n/a
374.5105	6.748	749021	prompt	n/a	charter viewers david involved\n
375.1815	0.09	750363	keystroke	c	n/a
375.2565	0.06	750513	keystroke	h	n/a
375.3915	0.135	750783	keystroke	a	n/a
375.6015	0.105	751203	keystroke	r	n/a
375.8265	0.075	751653	keystroke	t	n/a
376.0365	0.121	752073	keystroke	e	n/a
376.1275	0.074	752255	keystroke	r	n/a
376.2615	0.09	752523	keystroke	Key.space	n/a
376.531	0.0905	753062	keystroke	v	n/a
376.6515	0.075	753303	keystroke	i	n/a
376.8015	0.136	753603	keystroke	e	n/a
377.5815	0.075	755163	keystroke	w	n/a
377.8225	0.06	755645	keystroke	e	n/a
377.9875	0.075	755975	keystroke	r	n/a
378.2115	0.09	756423	keystroke	s	n/a
378.3475	0.074	756695	keystroke	Key.space	n/a
378.782	0.135	757564	keystroke	d	n/a
378.947	0.09	757894	keystroke	a	n/a
379.127	0.105	758254	keystroke	v	n/a
379.322	0.045	758644	keystroke	i	n/a
379.487	0.09	758974	keystroke	d	n/a
379.607	0.09	759214	keystroke	Key.space	n/a
379.772	0.105	759544	keystroke	i	n/a
379.847	0.105	759694	keystroke	n	n/a
380.132	0.075	760264	keystroke	v	n/a
380.237	0.075	760474	keystroke	o	n/a
380.402	0.09	760804	keystroke	l	n/a
380.477	0.09	760954	keystroke	v	n/a
380.657	0.075	761314	keystroke	e	n/a
380.837	0.105	761674	keystroke	d	n/a
381.152	0.1045	762304	keystroke	Key.enter	n/a
381.262	8.1865	762524	prompt	n/a	beginner antivirus disorders how're\n
381.9775	0.074	763955	keystroke	b	n/a
382.1715	0.121	764343	keystroke	e	n/a
382.4265	0.076	764853	keystroke	g	n/a
382.4875	0.1345	764975	keystroke	i	n/a
382.607	0.03	765214	keystroke	n	n/a
382.712	0.09	765424	keystroke	n	n/a
382.907	0.09	765814	keystroke	e	n/a
382.952	0.09	765904	keystroke	r	n/a
383.057	0.06	766114	keystroke	Key.space	n/a
383.207	0.075	766414	keystroke	a	n/a
383.417	0.045	766834	keystroke	d	n/a
383.732	0.045	767464	keystroke	Key.backspace	n/a
383.927	0.09	767854	keystroke	n	n/a
384.032	0.0895	768064	keystroke	t	n/a
384.1815	0.09	768363	keystroke	i	n/a
384.7665	0.075	769533	keystroke	v	n/a
384.8265	0.076	769653	keystroke	i	n/a
385.1715	0.09	770343	keystroke	r	n/a
385.2765	0.0905	770553	keystroke	u	n/a
385.442	0.09	770884	keystroke	s	n/a
385.727	0.09	771454	keystroke	Key.space	n/a
385.967	0.075	771934	keystroke	d	n/a
386.057	0.0895	772114	keystroke	i	n/a
386.1475	0.104	772295	keystroke	s	n/a
386.4925	0.074	772985	keystroke	r	n/a
386.927	0.045	773854	keystroke	Key.backspace	n/a
387.107	0.075	774214	keystroke	o	n/a
387.167	0.075	774334	keystroke	r	n/a
387.407	0.06	774814	keystroke	d	n/a
387.572	0.135	775144	keystroke	e	n/a
387.632	0.105	775264	keystroke	r	n/a
387.857	0.105	775714	keystroke	s	n/a
387.977	0.1195	775954	keystroke	Key.space	n/a
388.0825	0.104	776165	keystroke	h	n/a
388.1565	0.105	776313	keystroke	o	n/a
388.2165	0.105	776433	keystroke	w	n/a
388.4265	0.105	776853	keystroke	'	n/a
388.8765	0.03	777753	keystroke	r	n/a
389.0265	0.105	778053	keystroke	e	n/a
389.3565	0.09	778713	keystroke	Key.enter	n/a
389.4515	14.502	778903	prompt	n/a	nicaragua editor pretty weblogs\n
390.0165	0.075	780033	keystroke	n	n/a
390.1215	0.06	780243	keystroke	a	n/a
390.4815	0.045	780963	keystroke	Key.backspace	n/a
390.6765	0.075	781353	keystroke	i	n/a
390.8565	0.075	781713	keystroke	g	n/a
391.1565	0.045	782313	keystroke	Key.backspace	n/a
391.2025	0.0895	782405	keystroke	c	n/a
391.338	0.119	782676	keystroke	a	n/a
391.592	0.09	783184	keystroke	r	n/a
391.802	0.06	783604	keystroke	a	n/a
392.012	0.06	784024	keystroke	g	n/a
392.132	0.09	784264	keystroke	u	n/a
392.267	0.105	784534	keystroke	a	n/a
392.507	0.075	785014	keystroke	Key.space	n/a
392.6715	0.09	785343	keystroke	e	n/a
392.8965	0.09	785793	keystroke	d	n/a
393.0315	0.105	786063	keystroke	i	n/a
393.5715	0.1055	787143	keystroke	t	n/a
393.722	0.09	787444	keystroke	o	n/a
393.857	0.12	787714	keystroke	r	n/a
394.2465	0.075	788493	keystroke	Key.space	n/a
396.529	0.058	793058	keystroke	p	n/a
396.602	0.09	793204	keystroke	a	n/a
396.827	0.105	793654	keystroke	r	n/a
397.262	0.03	794524	keystroke	Key.backspace	n/a
397.382	0.06	794764	keystroke	Key.backspace	n/a
398.252	0.09	796504	keystroke	r	n/a
398.522	0.0895	797044	keystroke	e	n/a
398.7165	0.06	797433	keystroke	t	n/a
398.8365	0.1055	797673	keystroke	t	n/a
398.972	0.075	797944	keystroke	y	n/a
399.167	0.09	798334	keystroke	Key.space	n/a
399.422	0.105	798844	keystroke	w	n/a
399.662	0.105	799324	keystroke	d	n/a
400.007	0.09	800014	keystroke	b	n/a
400.337	0.045	800674	keystroke	Key.backspace	n/a
400.442	0.075	800884	keystroke	Key.backspace	n/a
400.502	0.105	801004	keystroke	e	n/a
400.697	0.075	801394	keystroke	b	n/a
401.087	0.06	802174	keystroke	l	n/a
401.252	0.075	802504	keystroke	o	n/a
401.537	0.075	803074	keystroke	b	n/a
402.0915	0.06	804183	keystroke	Key.backspace	n/a
402.1665	0.09	804333	keystroke	g	n/a
402.4065	0.075	804813	keystroke	s	n/a
403.877	0.075	807754	keystroke	Key.enter	n/a
403.9635	9.785	807927	prompt	n/a	riding maps diverse hold\n
407.8545	0.028	815709	keystroke	r	n/a
407.957	0.075	815914	keystroke	i	n/a
408.062	0.105	816124	keystroke	d	n/a
408.152	0.135	816304	keystroke	i	n/a
408.227	0.12	816454	keystroke	n	n/a
408.332	0.09	816664	keystroke	g	n/a
408.512	0.075	817024	keystroke	Key.space	n/a
408.782	0.075	817564	keystroke	m	n/a
409.142	0.09	818284	keystroke	a	n/a
409.247	0.09	818494	keystroke	p	n/a
409.772	0.12	819544	keystroke	s	n/a
409.967	0.075	819934	keystroke	Key.space	n/a
410.522	0.12	821044	keystroke	d	n/a
410.762	0.075	821524	keystroke	i	n/a
411.002	0.105	822004	keystroke	v	n/a
411.242	0.135	822484	keystroke	e	n/a
411.287	0.12	822574	keystroke	r	n/a
411.542	0.1195	823084	keystroke	s	n/a
412.097	0.135	824194	keystroke	e	n/a
412.262	0.075	824524	keystroke	Key.space	n/a
412.472	0.0895	824944	keystroke	h	n/a
412.5915	0.06	825183	keystroke	o	n/a
412.7415	0.09	825483	keystroke	l	n/a
412.8165	0.075	825633	keystroke	d	n/a
413.027	0.045	826054	keystroke	s	n/a
413.477	0.09	826954	keystroke	Key.backspace	n/a
413.717	0.03	827434	keystroke	Key.enter	n/a
413.752	5.3365	827504	prompt	n/a	tier undefined cars suffering\n
414.602	0.06	829204	keystroke	t	n/a
414.767	0.075	829534	keystroke	i	n/a
414.827	0.12	829654	keystroke	e	n/a
414.902	0.105	829804	keystroke	r	n/a
415.022	0.075	830044	keystroke	Key.space	n/a
415.247	0.045	830494	keystroke	u	n/a
415.277	0.105	830554	keystroke	n	n/a
415.397	0.09	830794	keystroke	d	n/a
415.517	0.12	831034	keystroke	e	n/a
415.997	0.1045	831994	keystroke	f	n/a
416.1165	0.15	832233	keystroke	i	n/a
416.2215	0.135	832443	keystroke	n	n/a
416.3415	0.09	832683	keystroke	e	n/a
416.5215	0.12	833043	keystroke	d	n/a
416.6715	0.09	833343	keystroke	Key.space	n/a
416.7915	0.075	833583	keystroke	c	n/a
416.9265	0.12	833853	keystroke	a	n/a
417.1215	0.09	834243	keystroke	r	n/a
417.3165	0.09	834633	keystroke	s	n/a
417.4365	0.075	834873	keystroke	Key.space	n/a
417.5715	0.12	835143	keystroke	s	n/a
417.7665	0.105	835533	keystroke	u	n/a
417.9165	0.06	835833	keystroke	f	n/a
418.0365	0.06	836073	keystroke	f	n/a
418.1715	0.135	836343	keystroke	e	n/a
418.2915	0.09	836583	keystroke	r	n/a
418.4265	0.135	836853	keystroke	i	n/a
418.5165	0.135	837033	keystroke	n	n/a
418.6525	0.074	837305	keystroke	g	n/a
418.9965	0.09	837993	keystroke	Key.enter	n/a
419.095	8.529	838190	prompt	n/a	limit advertisements upon emission\n
419.8665	0.075	839733	keystroke	l	n/a
420.0165	0.0755	840033	keystroke	i	n/a
420.212	0.075	840424	keystroke	m	n/a
420.332	0.0895	840664	keystroke	i	n/a
420.5115	0.075	841023	keystroke	t	n/a
420.6315	0.09	841263	keystroke	Key.space	n/a
420.8115	0.105	841623	keystroke	a	n/a
420.9765	0.075	841953	keystroke	d	n/a
421.1715	0.075	842343	keystroke	v	n/a
421.3965	0.06	842793	keystroke	s	n/a
421.5015	0.12	843003	keystroke	e	n/a
421.7565	0.06	843513	keystroke	r	n/a
421.9065	0.09	843813	keystroke	i	n/a
422.6265	0.03	845253	keystroke	Key.backspace	n/a
422.7315	0.06	845463	keystroke	Key.backspace	n/a
422.8815	0.075	845763	keystroke	Key.backspace	n/a
423.032	0.075	846064	keystroke	Key.backspace	n/a
423.7665	0.09	847533	keystroke	e	n/a
423.8115	0.12	847623	keystroke	r	n/a
424.0365	0.09	848073	keystroke	t	n/a
424.1415	0.06	848283	keystroke	i	n/a
424.4115	0.135	848823	keystroke	s	n/a
424.5315	0.105	849063	keystroke	e	n/a
424.7115	0.075	849423	keystroke	m	n/a
424.7715	0.105	849543	keystroke	e	n/a
424.9215	0.075	849843	keystroke	n	n/a
425.0115	0.045	850023	keystroke	t	n/a
425.1765	0.105	850353	keystroke	s	n/a
425.2065	0.09	850413	keystroke	Key.space	n/a
425.3115	0.105	850623	keystroke	u	n/a
425.4015	0.165	850803	keystroke	p	n/a
425.7615	0.135	851523	keystroke	o	n/a
425.8815	0.105	851763	keystroke	n	n/a
425.9565	0.09	851913	keystroke	Key.space	n/a
426.0615	0.12	852123	keystroke	e	n/a
426.1665	0.06	852333	keystroke	m	n/a
426.3165	0.0605	852633	keystroke	i	n/a
426.617	0.06	853234	keystroke	s	n/a
426.767	0.075	853534	keystroke	s	n/a
426.812	0.15	853624	keystroke	i	n/a
426.902	0.135	853804	keystroke	o	n/a
426.977	0.105	853954	keystroke	n	n/a
427.5465	0.075	855093	keystroke	Key.enter	n/a
427.634	7.834	855268	prompt	n/a	parental verizon semester recommendations\n
428.327	0.105	856654	keystroke	p	n/a
428.507	0.135	857014	keystroke	a	n/a
428.762	0.105	857524	keystroke	r	n/a
429.122	0.105	858244	keystroke	e	n/a
429.257	0.06	858514	keystroke	n	n/a
429.332	0.075	858664	keystroke	t	n/a
429.527	0.12	859054	keystroke	a	n/a
429.677	0.105	859354	keystroke	l	n/a
429.797	0.075	859594	keystroke	Key.space	n/a
430.202	0.09	860404	keystroke	v	n/a
430.367	0.12	860734	keystroke	e	n/a
430.442	0.09	860884	keystroke	r	n/a
430.592	0.105	861184	keystroke	i	n/a
430.832	0.12	861664	keystroke	z	n/a
430.982	0.18	861964	keystroke	o	n/a
431.117	0.105	862234	keystroke	n	n/a
431.237	0.06	862474	keystroke	Key.space	n/a
431.462	0.06	862924	keystroke	s	n/a
431.882	0.09	863764	keystroke	e	n/a
431.987	0.06	863974	keystroke	m	n/a
432.092	0.06	864184	keystroke	e	n/a
432.197	0.12	864394	keystroke	s	n/a
432.407	0.09	864814	keystroke	t	n/a
432.557	0.135	865114	keystroke	e	n/a
432.647	0.09	865294	keystroke	r	n/a
432.812	0.105	865624	keystroke	Key.space	n/a
433.157	0.075	866314	keystroke	r	n/a
433.307	0.075	866614	keystroke	e	n/a
433.532	0.06	867064	keystroke	c	n/a
433.577	0.06	867154	keystroke	o	n/a
433.907	0.075	867814	keystroke	m	n/a
434.042	0.12	868084	keystroke	m	n/a
434.147	0.075	868294	keystroke	e	n/a
434.252	0.09	868504	keystroke	n	n/a
434.387	0.06	868774	keystroke	d	n/a
434.5215	0.09	869043	keystroke	a	n/a
434.7315	0.075	869463	keystroke	t	n/a
434.8215	0.135	869643	keystroke	i	n/a
434.8815	0.135	869763	keystroke	o	n/a
434.9415	0.12	869883	keystroke	n	n/a
435.0465	0.12	870093	keystroke	s	n/a
435.3915	0.075	870783	keystroke	Key.enter	n/a
435.471	8.472	870942	prompt	n/a	tires repository inputs tigers\n
436.202	0.1045	872404	keystroke	t	n/a
436.3365	0.075	872673	keystroke	i	n/a
436.4265	0.075	872853	keystroke	e	n/a
436.4715	0.105	872943	keystroke	r	n/a
436.6215	0.105	873243	keystroke	e	n/a
437.2215	0.045	874443	keystroke	Key.backspace	n/a
437.4165	0.12	874833	keystroke	s	n/a
437.927	0.03	875854	keystroke	Key.backspace	n/a
438.047	0.045	876094	keystroke	Key.backspace	n/a
438.167	0.075	876334	keystroke	Key.backspace	n/a
438.6765	0.18	877353	keystroke	r	n/a
438.9465	0.075	877893	keystroke	e	n/a
439.1115	0.09	878223	keystroke	s	n/a
439.2915	0.09	878583	keystroke	Key.space	n/a
439.7865	0.06	879573	keystroke	r	n/a
439.9365	0.06	879873	keystroke	e	n/a
440.0565	0.1505	880113	keystroke	p	n/a
440.192	0.09	880384	keystroke	o	n/a
440.357	0.12	880714	keystroke	s	n/a
440.492	0.075	880984	keystroke	i	n/a
440.657	0.09	881314	keystroke	t	n/a
440.942	0.075	881884	keystroke	o	n/a
441.032	0.12	882064	keystroke	r	n/a
441.2415	0.12	882483	keystroke	y	n/a
441.3765	0.06	882753	keystroke	Key.space	n/a
441.6915	0.135	883383	keystroke	i	n/a
441.8415	0.105	883683	keystroke	n	n/a
442.0215	0.1505	884043	keystroke	p	n/a
442.142	0.075	884284	keystroke	u	n/a
442.262	0.09	884524	keystroke	t	n/a
442.487	0.1045	884974	keystroke	s	n/a
442.5925	0.089	885185	keystroke	Key.space	n/a
442.8465	0.06	885693	keystroke	t	n/a
443.057	0.089	886114	keystroke	i	n/a
443.221	0.075	886442	keystroke	g	n/a
443.432	0.045	886864	keystroke	e	n/a
443.447	0.075	886894	keystroke	r	n/a
443.642	0.149	887284	keystroke	s	n/a
443.851	0.09	887702	keystroke	Key.enter	n/a
443.947	6.926	887894	prompt	n/a	accessible smilies indie lodging\n
444.512	0.09	889024	keystroke	a	n/a
444.707	0.06	889414	keystroke	c	n/a
444.857	0.075	889714	keystroke	c	n/a
445.007	0.1195	890014	keystroke	e	n/a
445.3815	0.06	890763	keystroke	s	n/a
445.532	0.074	891064	keystroke	s	n/a
445.682	0.0895	891364	keystroke	i	n/a
445.9215	0.075	891843	keystroke	b	n/a
446.1165	0.09	892233	keystroke	l	n/a
446.1915	0.06	892383	keystroke	e	n/a
446.2665	0.06	892533	keystroke	Key.space	n/a
446.3715	0.135	892743	keystroke	s	n/a
446.5815	0.105	893163	keystroke	m	n/a
447.002	0.09	894004	keystroke	i	n/a
447.257	0.03	894514	keystroke	l	n/a
447.797	0.075	895594	keystroke	i	n/a
447.977	0.06	895954	keystroke	e	n/a
448.142	0.105	896284	keystroke	s	n/a
448.382	0.09	896764	keystroke	Key.space	n/a
448.8615	0.15	897723	keystroke	i	n/a
448.9815	0.12	897963	keystroke	n	n/a
449.1165	0.09	898233	keystroke	d	n/a
449.2215	0.09	898443	keystroke	i	n/a
449.357	0.075	898714	keystroke	e	n/a
449.447	0.075	898894	keystroke	Key.space	n/a
449.552	0.045	899104	keystroke	l	n/a
449.717	0.075	899434	keystroke	o	n/a
449.837	0.075	899674	keystroke	d	n/a
450.047	0.074	900094	keystroke	g	n/a
450.226	0.075	900452	keystroke	i	n/a
450.3915	0.105	900783	keystroke	n	n/a
450.4815	0.09	900963	keystroke	g	n/a
450.8115	0.06	901623	keystroke	Key.enter	n/a
450.8755	6.6125	901751	prompt	n/a	guarantees unlike across discusses\n
451.4865	0.09	902973	keystroke	g	n/a
451.727	0.075	903454	keystroke	u	n/a
451.862	0.105	903724	keystroke	a	n/a
452.222	0.09	904444	keystroke	r	n/a
452.582	0.09	905164	keystroke	a	n/a
452.672	0.075	905344	keystroke	n	n/a
452.867	0.06	905734	keystroke	t	n/a
453.032	0.06	906064	keystroke	e	n/a
453.182	0.06	906364	keystroke	e	n/a
453.377	0.09	906754	keystroke	s	n/a
453.452	0.12	906904	keystroke	Key.space	n/a
453.617	0.135	907234	keystroke	u	n/a
453.737	0.09	907474	keystroke	n	n/a
453.902	0.12	907804	keystroke	l	n/a
453.977	0.0895	907954	keystroke	i	n/a
454.1865	0.075	908373	keystroke	k	n/a
454.3065	0.075	908613	keystroke	e	n/a
454.4415	0.09	908883	keystroke	Key.space	n/a
454.7265	0.0755	909453	keystroke	a	n/a
454.907	0.075	909814	keystroke	c	n/a
455.102	0.075	910204	keystroke	r	n/a
455.207	0.075	910414	keystroke	o	n/a
455.312	0.075	910624	keystroke	s	n/a
455.402	0.12	910804	keystroke	s	n/a
455.657	0.045	911314	keystroke	Key.space	n/a
455.822	0.075	911644	keystroke	d	n/a
455.972	0.09	911944	keystroke	i	n/a
456.077	0.09	912154	keystroke	s	n/a
456.257	0.09	912514	keystroke	c	n/a
456.497	0.09	912994	keystroke	u	n/a
456.767	0.045	913534	keystroke	s	n/a
456.902	0.075	913804	keystroke	s	n/a
457.082	0.06	914164	keystroke	e	n/a
457.247	0.075	914494	keystroke	s	n/a
457.397	0.09	914794	keystroke	Key.enter	n/a
457.4915	9.1615	914983	prompt	n/a	consultants indicate throughout camps\n
458.1615	0.075	916323	keystroke	c	n/a
458.2515	0.105	916503	keystroke	o	n/a
458.3265	0.105	916653	keystroke	n	n/a
458.4165	0.075	916833	keystroke	s	n/a
458.6265	0.075	917253	keystroke	u	n/a
459.062	0.06	918124	keystroke	l	n/a
459.212	0.09	918424	keystroke	t	n/a
459.437	0.09	918874	keystroke	a	n/a
459.5565	0.09	919113	keystroke	n	n/a
459.6765	0.0755	919353	keystroke	t	n/a
459.872	0.165	919744	keystroke	s	n/a
460.082	0.105	920164	keystroke	Key.space	n/a
460.232	0.135	920464	keystroke	i	n/a
460.307	0.105	920614	keystroke	n	n/a
460.622	0.075	921244	keystroke	d	n/a
460.727	0.075	921454	keystroke	i	n/a
460.877	0.09	921754	keystroke	v	n/a
461.132	0.075	922264	keystroke	a	n/a
461.387	0.045	922774	keystroke	Key.backspace	n/a
461.492	0.09	922984	keystroke	Key.backspace	n/a
461.567	0.0595	923134	keystroke	c	n/a
461.7165	0.105	923433	keystroke	a	n/a
461.9565	0.09	923913	keystroke	t	n/a
462.107	0.09	924214	keystroke	e	n/a
462.257	0.06	924514	keystroke	Key.space	n/a
462.437	0.075	924874	keystroke	t	n/a
462.497	0.075	924994	keystroke	h	n/a
462.647	0.135	925294	keystroke	o	n/a
462.767	0.06	925534	keystroke	u	n/a
463.7415	0.045	927483	keystroke	Key.backspace	n/a
463.8615	0.075	927723	keystroke	Key.backspace	n/a
463.9515	0.105	927903	keystroke	r	n/a
464.2515	0.135	928503	keystroke	o	n/a
464.3565	0.075	928713	keystroke	u	n/a
464.4915	0.105	928983	keystroke	g	n/a
464.5665	0.075	929133	keystroke	h	n/a
464.8965	0.12	929793	keystroke	o	n/a
464.9565	0.09	929913	keystroke	u	n/a
465.0615	0.105	930123	keystroke	t	n/a
465.2715	0.105	930543	keystroke	Key.space	n/a
465.8565	0.09	931713	keystroke	c	n/a
465.9765	0.135	931953	keystroke	a	n/a
466.0965	0.1205	932193	keystroke	m	n/a
466.262	0.09	932524	keystroke	p	n/a
466.353	0.104	932706	keystroke	s	n/a
466.561	0.09	933122	keystroke	Key.enter	n/a
466.657	7.736	933314	prompt	n/a	fruits zoning photographic consultation\n
467.2065	0.09	934413	keystroke	f	n/a
467.3565	0.105	934713	keystroke	r	n/a
467.4765	0.1195	934953	keystroke	u	n/a
467.566	0.105	935132	keystroke	i	n/a
467.656	0.076	935312	keystroke	t	n/a
467.852	0.105	935704	keystroke	s	n/a
467.986	0.105	935972	keystroke	Key.space	n/a
468.452	0.135	936904	keystroke	z	n/a
468.512	0.135	937024	keystroke	o	n/a
468.662	0.075	937324	keystroke	n	n/a
468.887	0.12	937774	keystroke	i	n/a
468.962	0.12	937924	keystroke	n	n/a
469.052	0.135	938104	keystroke	g	n/a
469.202	0.0895	938404	keystroke	Key.space	n/a
469.3965	0.075	938793	keystroke	p	n/a
469.5465	0.075	939093	keystroke	h	n/a
469.6515	0.15	939303	keystroke	o	n/a
469.9515	0.09	939903	keystroke	t	n/a
470.1315	0.06	940263	keystroke	o	n/a
470.5965	0.075	941193	keystroke	g	n/a
470.8065	0.045	941613	keystroke	r	n/a
470.9715	0.105	941943	keystroke	a	n/a
471.0615	0.075	942123	keystroke	p	n/a
471.2415	0.09	942483	keystroke	h	n/a
471.4515	0.09	942903	keystroke	c	n/a
471.8265	0.06	943653	keystroke	Key.backspace	n/a
472.0365	0.075	944073	keystroke	i	n/a
472.1265	0.1055	944253	keystroke	c	n/a
472.247	0.09	944494	keystroke	Key.space	n/a
472.607	0.105	945214	keystroke	c	n/a
472.697	0.12	945394	keystroke	o	n/a
472.787	0.09	945574	keystroke	n	n/a
472.877	0.149	945754	keystroke	s	n/a
473.072	0.09	946144	keystroke	u	n/a
473.327	0.06	946654	keystroke	l	n/a
473.447	0.09	946894	keystroke	t	n/a
473.642	0.105	947284	keystroke	a	n/a
473.852	0.06	947704	keystroke	t	n/a
473.881	0.196	947762	keystroke	i	n/a
473.942	0.15	947884	keystroke	o	n/a
474.047	0.12	948094	keystroke	n	n/a
474.302	0.09	948604	keystroke	Key.enter	n/a
474.3965	5.3065	948793	prompt	n/a	groove letting madness hitting\n
475.127	0.09	950254	keystroke	g	n/a
475.277	0.12	950554	keystroke	r	n/a
475.531	0.046	951062	keystroke	o	n/a
475.667	0.105	951334	keystroke	o	n/a
475.816	0.135	951632	keystroke	v	n/a
475.936	0.121	951872	keystroke	e	n/a
476.086	0.075	952172	keystroke	Key.space	n/a
476.252	0.105	952504	keystroke	l	n/a
476.342	0.089	952684	keystroke	e	n/a
476.537	0.074	953074	keystroke	t	n/a
476.686	0.06	953372	keystroke	t	n/a
476.761	0.151	953522	keystroke	i	n/a
476.867	0.119	953734	keystroke	n	n/a
476.971	0.076	953942	keystroke	g	n/a
477.061	0.12	954122	keystroke	Key.space	n/a
477.196	0.075	954392	keystroke	m	n/a
477.317	0.074	954634	keystroke	a	n/a
477.481	0.09	954962	keystroke	d	n/a
477.616	0.09	955232	keystroke	n	n/a
477.737	0.074	955474	keystroke	e	n/a
478.186	0.06	956372	keystroke	s	n/a
478.321	0.09	956642	keystroke	s	n/a
478.412	0.119	956824	keystroke	Key.space	n/a
478.516	0.09	957032	keystroke	h	n/a
478.621	0.106	957242	keystroke	i	n/a
478.727	0.059	957454	keystroke	t	n/a
478.846	0.105	957692	keystroke	t	n/a
478.906	0.151	957812	keystroke	i	n/a
479.191	0.121	958382	keystroke	n	n/a
479.326	0.075	958652	keystroke	g	n/a
479.611	0.09	959222	keystroke	Key.enter	n/a
479.7065	6.9715	959413	prompt	n/a	corrections magazine steering rabbit\n
480.511	0.12	961022	keystroke	c	n/a
480.601	0.09	961202	keystroke	o	n/a
480.7965	0.015	961593	keystroke	r	n/a
480.9015	0.06	961803	keystroke	r	n/a
481.0365	0.075	962073	keystroke	e	n/a
481.2315	0.075	962463	keystroke	c	n/a
481.4565	0.075	962913	keystroke	t	n/a
481.5465	0.12	963093	keystroke	i	n/a
481.6215	0.105	963243	keystroke	o	n/a
481.6815	0.105	963363	keystroke	n	n/a
481.8165	0.12	963633	keystroke	s	n/a
481.9515	0.06	963903	keystroke	Key.space	n/a
482.1765	0.075	964353	keystroke	m	n/a
482.2515	0.06	964503	keystroke	a	n/a
482.5815	0.105	965163	keystroke	g	n/a
482.8065	0.075	965613	keystroke	a	n/a
483.0015	0.1505	966003	keystroke	z	n/a
483.167	0.135	966334	keystroke	i	n/a
483.272	0.12	966544	keystroke	n	n/a
483.422	0.0895	966844	keystroke	e	n/a
483.5865	0.06	967173	keystroke	Key.space	n/a
483.8115	0.105	967623	keystroke	s	n/a
484.0215	0.0905	968043	keystroke	t	n/a
484.382	0.105	968764	keystroke	e	n/a
484.547	0.09	969094	keystroke	e	n/a
484.742	0.0745	969484	keystroke	r	n/a
485.0115	0.135	970023	keystroke	i	n/a
485.1015	0.12	970203	keystroke	n	n/a
485.2365	0.09	970473	keystroke	g	n/a
485.3415	0.075	970683	keystroke	Key.space	n/a
485.7015	0.09	971403	keystroke	r	n/a
485.9115	0.12	971823	keystroke	a	n/a
486.0165	0.045	972033	keystroke	b	n/a
486.1365	0.075	972273	keystroke	b	n/a
486.2565	0.12	972513	keystroke	i	n/a
486.3775	0.104	972755	keystroke	t	n/a
486.6015	0.075	973203	keystroke	Key.enter	n/a
486.681	7.617	973362	prompt	n/a	physics regulations upgrades given\n
487.3065	0.015	974613	keystroke	o	n/a
487.6665	0.075	975333	keystroke	Key.backspace	n/a
487.8765	0.105	975753	keystroke	p	n/a
488.1015	0.0755	976203	keystroke	h	n/a
488.342	0.075	976684	keystroke	y	n/a
488.477	0.105	976954	keystroke	s	n/a
488.642	0.09	977284	keystroke	i	n/a
488.807	0.09	977614	keystroke	c	n/a
488.957	0.15	977914	keystroke	s	n/a
489.137	0.09	978274	keystroke	Key.space	n/a
489.392	0.06	978784	keystroke	r	n/a
489.557	0.045	979114	keystroke	e	n/a
489.782	0.0895	979564	keystroke	g	n/a
489.8565	0.075	979713	keystroke	u	n/a
490.1415	0.075	980283	keystroke	l	n/a
490.2315	0.105	980463	keystroke	a	n/a
490.4715	0.075	980943	keystroke	t	n/a
490.5315	0.165	981063	keystroke	i	n/a
490.6065	0.15	981213	keystroke	o	n/a
490.6815	0.12	981363	keystroke	n	n/a
490.8165	0.105	981633	keystroke	s	n/a
490.9815	0.075	981963	keystroke	Key.space	n/a
491.2515	0.045	982503	keystroke	u	n/a
491.4015	0.105	982803	keystroke	p	n/a
491.702	0.06	983404	keystroke	g	n/a
491.882	0.06	983764	keystroke	r	n/a
492.032	0.09	984064	keystroke	a	n/a
492.3615	0.045	984723	keystroke	t	n/a
492.6765	0.06	985353	keystroke	Key.backspace	n/a
492.7215	0.06	985443	keystroke	d	n/a
492.9015	0.045	985803	keystroke	e	n/a
493.1115	0.1205	986223	keystroke	s	n/a
493.247	0.09	986494	keystroke	Key.space	n/a
493.532	0.075	987064	keystroke	g	n/a
493.637	0.09	987274	keystroke	i	n/a
493.712	0.09	987424	keystroke	v	n/a
493.847	0.135	987694	keystroke	e	n/a
493.967	0.075	987934	keystroke	n	n/a
494.2365	0.06	988473	keystroke	Key.enter	n/a
494.3005	7.7225	988601	prompt	n/a	conclusions adapter brad manufacturing\n
494.9715	0.135	989943	keystroke	c	n/a
495.0765	0.15	990153	keystroke	o	n/a
495.1665	0.105	990333	keystroke	n	n/a
495.5565	0.09	991113	keystroke	c	n/a
495.6615	0.09	991323	keystroke	l	n/a
495.8715	0.09	991743	keystroke	u	n/a
496.2165	0.15	992433	keystroke	s	n/a
496.3515	0.105	992703	keystroke	i	n/a
496.3965	0.21	992793	keystroke	o	n/a
496.5015	0.12	993003	keystroke	n	n/a
496.7415	0.105	993483	keystroke	s	n/a
496.8915	0.075	993783	keystroke	Key.space	n/a
497.0115	0.0905	994023	keystroke	a	n/a
497.207	0.059	994414	keystroke	d	n/a
497.341	0.09	994682	keystroke	a	n/a
497.461	0.106	994922	keystroke	p	n/a
497.702	0.059	995404	keystroke	t	n/a
497.866	0.135	995732	keystroke	e	n/a
497.956	0.09	995912	keystroke	r	n/a
498.091	0.0755	996182	keystroke	Key.space	n/a
498.3915	0.075	996783	keystroke	b	n/a
498.4815	0.045	996963	keystroke	r	n/a
498.7365	0.015	997473	keystroke	a	n/a
498.842	0.09	997684	keystroke	d	n/a
498.9765	0.075	997953	keystroke	Key.space	n/a
499.2615	0.075	998523	keystroke	m	n/a
499.3215	0.105	998643	keystroke	a	n/a
499.4415	0.09	998883	keystroke	n	n/a
499.6365	0.09	999273	keystroke	u	n/a
499.9065	0.075	999813	keystroke	g	n/a
500.3265	0.06	1000653	keystroke	Key.backspace	n/a
500.4015	0.06	1000803	keystroke	f	n/a
500.5665	0.075	1001133	keystroke	a	n/a
500.7915	0.09	1001583	keystroke	c	n/a
501.0615	0.075	1002123	keystroke	t	n/a
501.2115	0.075	1002423	keystroke	u	n/a
501.3465	0.03	1002693	keystroke	r	n/a
501.527	0.1195	1003054	keystroke	i	n/a
501.6015	0.105	1003203	keystroke	n	n/a
501.6765	0.09	1003353	keystroke	g	n/a
501.9765	0.0455	1003953	keystroke	Key.enter	n/a
502.026	5.502	1004052	prompt	n/a	cooperation parameters sara peter\n
502.697	0.12	1005394	keystroke	c	n/a
502.787	0.045	1005574	keystroke	o	n/a
502.922	0.06	1005844	keystroke	o	n/a
503.102	0.06	1006204	keystroke	p	n/a
503.192	0.12	1006384	keystroke	e	n/a
503.267	0.09	1006534	keystroke	r	n/a
503.492	0.09	1006984	keystroke	a	n/a
503.702	0.075	1007404	keystroke	t	n/a
503.762	0.1345	1007524	keystroke	i	n/a
503.852	0.1495	1007704	keystroke	o	n/a
503.9265	0.12	1007853	keystroke	n	n/a
504.0615	0.0905	1008123	keystroke	Key.space	n/a
504.197	0.09	1008394	keystroke	p	n/a
504.257	0.105	1008514	keystroke	a	n/a
504.437	0.075	1008874	keystroke	r	n/a
504.617	0.105	1009234	keystroke	a	n/a
504.722	0.075	1009444	keystroke	m	n/a
504.917	0.075	1009834	keystroke	e	n/a
505.142	0.045	1010284	keystroke	t	n/a
505.292	0.105	1010584	keystroke	e	n/a
505.352	0.09	1010704	keystroke	r	n/a
505.547	0.09	1011094	keystroke	s	n/a
505.652	0.09	1011304	keystroke	Key.space	n/a
505.757	0.09	1011514	keystroke	s	n/a
505.922	0.09	1011844	keystroke	a	n/a
506.102	0.09	1012204	keystroke	r	n/a
506.282	0.105	1012564	keystroke	a	n/a
506.372	0.075	1012744	keystroke	Key.space	n/a
506.492	0.12	1012984	keystroke	p	n/a
506.582	0.12	1013164	keystroke	e	n/a
506.867	0.09	1013734	keystroke	t	n/a
507.017	0.09	1014034	keystroke	e	n/a
507.077	0.09	1014154	keystroke	r	n/a
507.467	0.06	1014934	keystroke	Key.enter	n/a
507.5345	10.1485	1015069	prompt	n/a	attempted reproduction defines brakes\n
508.247	0.09	1016494	keystroke	a	n/a
508.517	0.03	1017034	keystroke	t	n/a
508.637	0.06	1017274	keystroke	t	n/a
508.7565	0.105	1017513	keystroke	e	n/a
509.1465	0.105	1018293	keystroke	m	n/a
509.2965	0.075	1018593	keystroke	p	n/a
509.4615	0.06	1018923	keystroke	t	n/a
509.6265	0.075	1019253	keystroke	e	n/a
509.7915	0.09	1019583	keystroke	d	n/a
509.8965	0.09	1019793	keystroke	Key.space	n/a
510.092	0.075	1020184	keystroke	r	n/a
510.272	0.06	1020544	keystroke	e	n/a
510.437	0.1195	1020874	keystroke	p	n/a
510.6615	0.0905	1021323	keystroke	d	n/a
510.797	0.105	1021594	keystroke	o	n/a
510.962	0.105	1021924	keystroke	c	n/a
511.142	0.075	1022284	keystroke	u	n/a
511.877	0.044	1023754	keystroke	Key.backspace	n/a
511.997	0.045	1023994	keystroke	Key.backspace	n/a
512.132	0.06	1024264	keystroke	Key.backspace	n/a
512.282	0.045	1024564	keystroke	Key.backspace	n/a
512.401	0.091	1024802	keystroke	Key.backspace	n/a
513.1515	0.105	1026303	keystroke	p	n/a
513.2715	0.105	1026543	keystroke	r	n/a
513.481	0.09	1026962	keystroke	o	n/a
513.586	0.106	1027172	keystroke	d	n/a
513.9915	0.075	1027983	keystroke	u	n/a
514.2465	0.075	1028493	keystroke	c	n/a
514.5015	0.075	1029003	keystroke	t	n/a
514.6065	0.135	1029213	keystroke	i	n/a
514.6665	0.165	1029333	keystroke	o	n/a
514.7565	0.12	1029513	keystroke	n	n/a
514.9365	0.09	1029873	keystroke	Key.space	n/a
515.2365	0.075	1030473	keystroke	d	n/a
515.4315	0.045	1030863	keystroke	e	n/a
515.5815	0.1045	1031163	keystroke	f	n/a
515.656	0.135	1031312	keystroke	i	n/a
515.716	0.12	1031432	keystroke	n	n/a
515.821	0.09	1031642	keystroke	e	n/a
516.016	0.1205	1032032	keystroke	s	n/a
516.106	0.1055	1032212	keystroke	Key.space	n/a
516.2265	0.06	1032453	keystroke	b	n/a
516.3915	0.09	1032783	keystroke	r	n/a
516.5865	0.105	1033173	keystroke	a	n/a
516.6615	0.105	1033323	keystroke	k	n/a
516.8115	0.09	1033623	keystroke	e	n/a
517.0365	0.15	1034073	keystroke	s	n/a
517.621	0.06	1035242	keystroke	Key.enter	n/a
517.6865	15.5665	1035373	prompt	n/a	judicial editorial sullivan stat\n
519.212	0.06	1038424	keystroke	j	n/a
519.497	0.06	1038994	keystroke	u	n/a
519.722	0.15	1039444	keystroke	d	n/a
520.097	0.075	1040194	keystroke	i	n/a
520.262	0.105	1040524	keystroke	c	n/a
520.382	0.09	1040764	keystroke	i	n/a
520.502	0.105	1041004	keystroke	a	n/a
520.667	0.105	1041334	keystroke	l	n/a
520.727	0.105	1041454	keystroke	Key.space	n/a
520.952	0.045	1041904	keystroke	e	n/a
521.372	0.045	1042744	keystroke	c	n/a
521.7015	0.06	1043403	keystroke	Key.backspace	n/a
521.8065	0.075	1043613	keystroke	d	n/a
521.9565	0.075	1043913	keystroke	i	n/a
522.347	0.09	1044694	keystroke	t	n/a
522.467	0.075	1044934	keystroke	o	n/a
522.557	0.09	1045114	keystroke	r	n/a
522.677	0.075	1045354	keystroke	i	n/a
522.827	0.1195	1045654	keystroke	a	n/a
523.0065	0.12	1046013	keystroke	l	n/a
523.1115	0.06	1046223	keystroke	Key.space	n/a
523.2015	0.105	1046403	keystroke	s	n/a
523.3365	0.06	1046673	keystroke	u	n/a
523.6515	0.075	1047303	keystroke	l	n/a
523.8015	0.135	1047603	keystroke	l	n/a
523.9215	0.105	1047843	keystroke	i	n/a
524.0415	0.0605	1048083	keystroke	c	n/a
524.1915	0.1205	1048383	keystroke	a	n/a
524.312	0.105	1048624	keystroke	n	n/a
524.432	0.075	1048864	keystroke	Key.space	n/a
524.492	0.105	1048984	keystroke	s	n/a
524.702	0.045	1049404	keystroke	t	n/a
524.852	0.075	1049704	keystroke	a	n/a
525.047	0.06	1050094	keystroke	t	n/a
526.5765	0.03	1053153	keystroke	Key.left	n/a
526.8315	0.09	1053663	keystroke	Key.left	n/a
526.9815	0.075	1053963	keystroke	Key.left	n/a
527.2665	0.045	1054533	keystroke	Key.left	n/a
527.4765	0.06	1054953	keystroke	Key.left	n/a
527.7465	0.045	1055493	keystroke	Key.left	n/a
527.9865	0.075	1055973	keystroke	Key.left	n/a
528.2415	0.09	1056483	keystroke	Key.left	n/a
528.8715	0.105	1057743	keystroke	Key.right	n/a
529.1865	0.045	1058373	keystroke	Key.backspace	n/a
529.7565	0.075	1059513	keystroke	v	n/a
531.0015	0.3455	1062003	keystroke	Key.right	n/a
531.647	0.06	1063294	keystroke	Key.right	n/a
531.827	0.075	1063654	keystroke	Key.right	n/a
532.126	0.046	1064252	keystroke	Key.right	n/a
532.321	0.076	1064642	keystroke	Key.right	n/a
532.456	0.06	1064912	keystroke	Key.right	n/a
532.802	0.059	1065604	keystroke	Key.right	n/a
533.206	0.045	1066412	keystroke	Key.enter	n/a
533.2635	7.7595	1066527	prompt	n/a	align marcus subtle menus\n
534.2265	0.09	1068453	keystroke	Key.caps_lock	n/a
535.5015	0.075	1071003	keystroke	Key.caps_lock	n/a
535.8915	0.105	1071783	keystroke	a	n/a
535.9975	0.089	1071995	keystroke	l	n/a
536.1615	0.12	1072323	keystroke	i	n/a
536.4765	0.075	1072953	keystroke	g	n/a
536.8215	0.09	1073643	keystroke	n	n/a
536.9415	0.135	1073883	keystroke	Key.space	n/a
537.2715	0.09	1074543	keystroke	m	n/a
537.3315	0.105	1074663	keystroke	a	n/a
537.5265	0.075	1075053	keystroke	r	n/a
537.7665	0.105	1075533	keystroke	c	n/a
537.8565	0.09	1075713	keystroke	u	n/a
