onset	duration	sample	value	key	prompt_text
24.696	0.0565	49392	keystroke_Key.media_volume_up	Key.media_volume_up	n/a
24.8535	0.079	49707	keystroke_Key.media_volume_up	Key.media_volume_up	n/a
25.022	0.045	50044	keystroke_Key.media_volume_up	Key.media_volume_up	n/a
25.5845	0.0905	51169	keystroke_Key.media_volume_down	Key.media_volume_down	n/a
27.1145	0.0225	54229	keystroke_Key.media_volume_down	Key.media_volume_down	n/a
35.0915	0.101	70183	keystroke_s	s	n/a
35.1585	0.1125	70317	keystroke_e	e	n/a
35.2495	0.1565	70499	keystroke_a	a	n/a
35.2935	0.1235	70587	keystroke_n	n	n/a
35.5525	0.0675	71105	keystroke_b	b	n/a
35.676	0.0785	71352	keystroke_i	i	n/a
35.7435	0.09	71487	keystroke_t	t	n/a
35.9235	0.034	71847	keystroke_t	t	n/a
36.1035	0.034	72207	keystroke_n	n	n/a
36.1485	0.068	72297	keystroke_e	e	n/a
36.205	0.056	72410	keystroke_r	r	n/a
47.5335	0.0675	95067	keystroke_c	c	n/a
47.702	0.1125	95404	keystroke_c	c	n/a
49.1645	0.203	98329	keystroke_Key.cmd	Key.cmd	n/a
49.2885	0.0675	98577	keystroke_v	v	n/a
55.037	0.0565	110074	keystroke_Key.media_volume_down	Key.media_volume_down	n/a
55.1835	0.068	110367	keystroke_Key.media_volume_down	Key.media_volume_down	n/a
56.643	8.262	113286	prompt	n/a	the quick brown fox jumps over a lazy dog\n
57.962	0.0675	115924	keystroke_t	t	n/a
58.12	0.034	116240	keystroke_h	h	n/a
58.142	0.0565	116284	keystroke_e	e	n/a
58.221	0.0785	116442	keystroke_Key.space	Key.space	n/a
58.4345	0.079	116869	keystroke_q	q	n/a
58.5025	0.0895	117005	keystroke_u	u	n/a
58.6935	0.1125	117387	keystroke_i	i	n/a
58.7045	0.034	117409	keystroke_c	c	n/a
59.3685	0.1465	118737	keystroke_k	k	n/a
59.5035	0.0675	119007	keystroke_Key.space	Key.space	n/a
59.661	0.1125	119322	keystroke_b	b	n/a
60.0885	0.0125	120177	keystroke_o	o	n/a
60.7295	0.045	121459	keystroke_Key.backspace	Key.backspace	n/a
60.786	0.09	121572	keystroke_r	r	n/a
60.8985	0.0785	121797	keystroke_o	o	n/a
60.9885	0.079	121977	keystroke_w	w	n/a
61.1125	0.112	122225	keystroke_n	n	n/a
61.1795	0.1125	122359	keystroke_Key.space	Key.space	n/a
61.3035	0.0675	122607	keystroke_f	f	n/a
61.3935	0.0675	122787	keystroke_o	o	n/a
61.506	0.1125	123012	keystroke_x	x	n/a
61.6185	0.112	123237	keystroke_Key.space	Key.space	n/a
61.72	0.0785	123440	keystroke_j	j	n/a
61.956	0.0225	123912	keystroke_u	u	n/a
62.091	0.124	124182	keystroke_m	m	n/a
62.181	0.09	124362	keystroke_p	p	n/a
62.361	0.09	124722	keystroke_s	s	n/a
62.462	0.079	124924	keystroke_Key.space	Key.space	n/a
62.676	0.057	125352	keystroke_o	o	n/a
62.7435	0.1125	125487	keystroke_v	v	n/a
63.1375	0.101	126275	keystroke_e	e	n/a
63.1935	0.0905	126387	keystroke_r	r	n/a
63.2955	0.1005	126591	keystroke_Key.space	Key.space	n/a
63.408	0.078	126816	keystroke_a	a	n/a
63.5425	0.0905	127085	keystroke_Key.space	Key.space	n/a
63.801	0.079	127602	keystroke_l	l	n/a
63.846	0.079	127692	keystroke_a	a	n/a
64.06	0.1005	128120	keystroke_z	z	n/a
64.1495	0.0905	128299	keystroke_y	y	n/a
64.217	0.1125	128434	keystroke_Key.space	Key.space	n/a
64.3865	0.0555	128773	keystroke_d	d	n/a
64.4535	0.09	128907	keystroke_o	o	n/a
64.577	0.068	129154	keystroke_g	g	n/a
64.8365	0.067	129673	keystroke_Key.enter	Key.enter	n/a
64.908	5.475	129816	prompt	n/a	phones moment achieve alternatives\n
65.7245	0.0455	131449	keystroke_p	p	n/a
65.7585	0.1125	131517	keystroke_h	h	n/a
65.95	0.101	131900	keystroke_o	o	n/a
66.0395	0.09	132079	keystroke_n	n	n/a
66.062	0.1125	132124	keystroke_e	e	n/a
66.1635	0.101	132327	keystroke_s	s	n/a
66.265	0.0785	132530	keystroke_Key.space	Key.space	n/a
66.501	0.056	133002	keystroke_m	m	n/a
66.5685	0.124	133137	keystroke_o	o	n/a
66.681	0.1125	133362	keystroke_m	m	n/a
66.805	0.0785	133610	keystroke_e	e	n/a
66.918	0.123	133836	keystroke_n	n	n/a
67.0525	0.0335	134105	keystroke_t	t	n/a
67.12	0.101	134240	keystroke_Key.space	Key.space	n/a
67.311	0.1125	134622	keystroke_a	a	n/a
67.536	0.09	135072	keystroke_c	c	n/a
67.7165	0.0895	135433	keystroke_h	h	n/a
67.896	0.0675	135792	keystroke_i	i	n/a
68.02	0.0895	136040	keystroke_e	e	n/a
68.256	0.1125	136512	keystroke_v	v	n/a
68.3795	0.079	136759	keystroke_e	e	n/a
68.526	0.0905	137052	keystroke_Key.space	Key.space	n/a
68.65	0.0895	137300	keystroke_a	a	n/a
68.785	0.0895	137570	keystroke_l	l	n/a
68.9195	0.0675	137839	keystroke_t	t	n/a
69.067	0.134	138134	keystroke_e	e	n/a
69.1785	0.09	138357	keystroke_r	r	n/a
69.302	0.135	138604	keystroke_n	n	n/a
69.482	0.1355	138964	keystroke_a	a	n/a
69.606	0.056	139212	keystroke_t	t	n/a
69.7635	0.0675	139527	keystroke_i	i	n/a
69.8535	0.1135	139707	keystroke_v	v	n/a
69.921	0.113	139842	keystroke_e	e	n/a
70.022	0.1015	140044	keystroke_s	s	n/a
70.315	0.067	140630	keystroke_Key.enter	Key.enter	n/a
70.387	5.4645	140774	prompt	n/a	thriller planner practices rain\n
70.99	0.056	141980	keystroke_t	t	n/a
71.0795	0.09	142159	keystroke_h	h	n/a
71.192	0.09	142384	keystroke_r	r	n/a
71.3275	0.0675	142655	keystroke_i	i	n/a
71.53	0.045	143060	keystroke_l	l	n/a
71.71	0.0335	143420	keystroke_l	l	n/a
72.036	0.147	144072	keystroke_e	e	n/a
72.1035	0.09	144207	keystroke_r	r	n/a
72.261	0.09	144522	keystroke_Key.space	Key.space	n/a
72.396	0.0675	144792	keystroke_p	p	n/a
72.542	0.09	145084	keystroke_l	l	n/a
72.666	0.101	145332	keystroke_a	a	n/a
72.801	0.056	145602	keystroke_n	n	n/a
72.9475	0.0895	145895	keystroke_n	n	n/a
73.0825	0.0895	146165	keystroke_e	e	n/a
73.127	0.1015	146254	keystroke_r	r	n/a
73.2395	0.1015	146479	keystroke_Key.space	Key.space	n/a
73.442	0.1015	146884	keystroke_p	p	n/a
73.577	0.1015	147154	keystroke_r	r	n/a
73.6895	0.1015	147379	keystroke_a	a	n/a
73.9485	0.079	147897	keystroke_c	c	n/a
74.1285	0.045	148257	keystroke_t	t	n/a
74.241	0.1015	148482	keystroke_i	i	n/a
74.376	0.0675	148752	keystroke_c	c	n/a
74.601	0.1015	149202	keystroke_e	e	n/a
74.6905	0.079	149381	keystroke_s	s	n/a
74.7925	0.1235	149585	keystroke_Key.space	Key.space	n/a
75.1635	0.1465	150327	keystroke_r	r	n/a
75.276	0.0785	150552	keystroke_a	a	n/a
75.4335	0.1125	150867	keystroke_i	i	n/a
75.468	0.145	150936	keystroke_n	n	n/a
75.737	0.113	151474	keystroke_Key.enter	Key.enter	n/a
75.855	7.2295	151710	prompt	n/a	mods coupons kill areas\n
76.6935	0.0675	153387	keystroke_Key.media_volume_down	Key.media_volume_down	n/a
76.896	0.067	153792	keystroke_Key.media_volume_down	Key.media_volume_down	n/a
77.2	0.0105	154400	keystroke_Key.media_volume_down	Key.media_volume_down	n/a
77.7955	0.192	155591	keystroke_m	m	n/a
77.8865	0.089	155773	keystroke_o	o	n/a
77.998	0.0355	155996	keystroke_d	d	n/a
78.313	0.0565	156626	keystroke_s	s	n/a
78.4255	0.1015	156851	keystroke_Key.space	Key.space	n/a
78.6845	0.09	157369	keystroke_c	c	n/a
78.763	0.113	157526	keystroke_o	o	n/a
78.842	0.0785	157684	keystroke_u	u	n/a
78.887	0.1125	157774	keystroke_p	p	n/a
79.236	0.0675	158472	keystroke_o	o	n/a
79.2925	0.124	158585	keystroke_n	n	n/a
79.36	0.0905	158720	keystroke_s	s	n/a
79.528	0.09	159056	keystroke_Key.space	Key.space	n/a
79.653	0.0895	159306	keystroke_k	k	n/a
79.877	0.011	159754	keystroke_i	i	n/a
80.0005	0.09	160001	keystroke_l	l	n/a
80.17	0.1005	160340	keystroke_l	l	n/a
80.338	0.0125	160676	keystroke_Key.space	Key.space	n/a
80.44	0.1235	160880	keystroke_a	a	n/a
80.608	0.1245	161216	keystroke_r	r	n/a
80.6875	0.123	161375	keystroke_e	e	n/a
80.777	0.1685	161554	keystroke_a	a	n/a
80.8895	0.1235	161779	keystroke_s	s	n/a
83.0155	0.068	166031	keystroke_Key.enter	Key.enter	n/a
83.0875	7.759	166175	prompt	n/a	linked specifies casinos permits\n
83.871	0.1015	167742	keystroke_l	l	n/a
83.9605	0.113	167921	keystroke_i	i	n/a
84.062	0.18	168124	keystroke_n	n	n/a
84.2305	0.045	168461	keystroke_k	k	n/a
84.298	0.0675	168596	keystroke_e	e	n/a
84.4895	0.079	168979	keystroke_d	d	n/a
84.557	0.1575	169114	keystroke_Key.space	Key.space	n/a
84.9505	0.09	169901	keystroke_s	s	n/a
85.052	0.09	170104	keystroke_p	p	n/a
85.153	0.0905	170306	keystroke_e	e	n/a
85.423	0.1125	170846	keystroke_c	c	n/a
85.7605	0.1015	171521	keystroke_i	i	n/a
85.941	0.0895	171882	keystroke_f	f	n/a
86.0425	0.123	172085	keystroke_i	i	n/a
87.493	0.102	174986	keystroke_e	e	n/a
87.5835	0.0895	175167	keystroke_s	s	n/a
87.685	0.101	175370	keystroke_Key.space	Key.space	n/a
88.045	0.0675	176090	keystroke_c	c	n/a
88.101	0.18	176202	keystroke_a	a	n/a
88.2925	0.1005	176585	keystroke_s	s	n/a
88.5845	0.113	177169	keystroke_i	i	n/a
88.765	0.0675	177530	keystroke_n	n	n/a
88.888	0.09	177776	keystroke_o	o	n/a
89.035	0.078	178070	keystroke_s	s	n/a
89.2145	0.101	178429	keystroke_Key.space	Key.space	n/a
89.4055	0.0675	178811	keystroke_p	p	n/a
89.653	0.1015	179306	keystroke_e	e	n/a
89.721	0.1125	179442	keystroke_r	r	n/a
89.867	0.0785	179734	keystroke_m	m	n/a
90.013	0.1015	180026	keystroke_i	i	n/a
90.148	0.124	180296	keystroke_t	t	n/a
90.2835	0.0785	180567	keystroke_s	s	n/a
90.778	0.0675	181556	keystroke_Key.enter	Key.enter	n/a
90.8495	4.531	181699	prompt	n/a	retail agent mailing fishing\n
91.6335	0.0895	183267	keystroke_r	r	n/a
91.678	0.1465	183356	keystroke_e	e	n/a
91.836	0.0895	183672	keystroke_t	t	n/a
91.982	0.0335	183964	keystroke_a	a	n/a
92.05	0.2025	184100	keystroke_i	i	n/a
92.128	0.1125	184256	keystroke_l	l	n/a
92.263	0.09	184526	keystroke_Key.space	Key.space	n/a
92.4655	0.1125	184931	keystroke_a	a	n/a
92.612	0.0785	185224	keystroke_g	g	n/a
92.7805	0.09	185561	keystroke_e	e	n/a
92.8825	0.078	185765	keystroke_n	n	n/a
92.961	0.0895	185922	keystroke_t	t	n/a
93.1075	0.123	186215	keystroke_Key.space	Key.space	n/a
93.4105	0.09	186821	keystroke_m	m	n/a
93.535	0.078	187070	keystroke_a	a	n/a
93.658	0.09	187316	keystroke_i	i	n/a
93.7035	0.1015	187407	keystroke_l	l	n/a
94.1875	0.078	188375	keystroke_i	i	n/a
94.198	0.1125	188396	keystroke_n	n	n/a
94.288	0.09	188576	keystroke_g	g	n/a
94.3895	0.1125	188779	keystroke_Key.space	Key.space	n/a
94.513	0.102	189026	keystroke_f	f	n/a
94.6035	0.1345	189207	keystroke_i	i	n/a
94.75	0.078	189500	keystroke_s	s	n/a
94.8395	0.0675	189679	keystroke_h	h	n/a
94.9855	0.135	189971	keystroke_i	i	n/a
95.0535	0.147	190107	keystroke_n	n	n/a
95.1545	0.0675	190309	keystroke_g	g	n/a
95.312	0.0675	190624	keystroke_Key.enter	Key.enter	n/a
95.387	6.9795	190774	prompt	n/a	universe cotton womens standards\n
96.1	0.078	192200	keystroke_u	u	n/a
96.2905	0.203	192581	keystroke_n	n	n/a
96.3245	0.158	192649	keystroke_i	i	n/a
96.471	0.056	192942	keystroke_v	v	n/a
96.5945	0.1235	193189	keystroke_e	e	n/a
96.6735	0.1235	193347	keystroke_r	r	n/a
96.763	0.169	193526	keystroke_s	s	n/a
96.898	0.09	193796	keystroke_e	e	n/a
97.1575	0.1455	194315	keystroke_Key.space	Key.space	n/a
97.4835	0.112	194967	keystroke_c	c	n/a
97.6975	0.078	195395	keystroke_o	o	n/a
97.7875	0.123	195575	keystroke_t	t	n/a
98.3725	0.078	196745	keystroke_t	t	n/a
98.4955	0.124	196991	keystroke_o	o	n/a
98.5745	0.135	197149	keystroke_n	n	n/a
98.6645	0.1355	197329	keystroke_Key.space	Key.space	n/a
99.1255	0.1015	198251	keystroke_w	w	n/a
99.2495	0.1125	198499	keystroke_o	o	n/a
99.3175	0.1345	198635	keystroke_m	m	n/a
99.486	0.101	198972	keystroke_e	e	n/a
99.6655	0.102	199331	keystroke_n	n	n/a
99.7785	0.0895	199557	keystroke_s	s	n/a
99.947	0.101	199894	keystroke_Key.space	Key.space	n/a
100.2395	0.0335	200479	keystroke_s	s	n/a
100.3295	0.101	200659	keystroke_t	t	n/a
100.442	0.1125	200884	keystroke_a	a	n/a
100.9375	0.113	201875	keystroke_n	n	n/a
101.0725	0.123	202145	keystroke_d	d	n/a
101.2525	0.1575	202505	keystroke_a	a	n/a
101.398	0.09	202796	keystroke_r	r	n/a
101.501	0.0545	203002	keystroke_s	s	n/a
102.0955	0.0345	204191	keystroke_Key.backspace	Key.backspace	n/a
102.1075	0.0675	204215	keystroke_d	d	n/a
102.1185	0.1345	204237	keystroke_s	s	n/a
102.2875	0.078	204575	keystroke_Key.enter	Key.enter	n/a
102.3695	4.418	204739	prompt	n/a	aruba excuse concepts club\n
103.108	0.1015	206216	keystroke_a	a	n/a
103.1755	0.09	206351	keystroke_r	r	n/a
103.356	0.0895	206712	keystroke_u	u	n/a
103.435	0.123	206870	keystroke_b	b	n/a
103.5695	0.101	207139	keystroke_a	a	n/a
103.705	0.1005	207410	keystroke_Key.space	Key.space	n/a
103.8955	0.09	207791	keystroke_e	e	n/a
104.098	0.09	208196	keystroke_x	x	n/a
104.3125	0.0675	208625	keystroke_c	c	n/a
104.413	0.1125	208826	keystroke_u	u	n/a
104.548	0.1465	209096	keystroke_s	s	n/a
104.6605	0.09	209321	keystroke_e	e	n/a
104.8075	0.1455	209615	keystroke_Key.space	Key.space	n/a
105.088	0.09	210176	keystroke_c	c	n/a
105.167	0.101	210334	keystroke_o	o	n/a
105.212	0.079	210424	keystroke_n	n	n/a
105.2795	0.09	210559	keystroke_c	c	n/a
105.527	0.045	211054	keystroke_e	e	n/a
105.6395	0.0785	211279	keystroke_p	p	n/a
105.7295	0.101	211459	keystroke_t	t	n/a
105.797	0.0905	211594	keystroke_s	s	n/a
105.943	0.0905	211886	keystroke_Key.space	Key.space	n/a
106.2355	0.102	212471	keystroke_c	c	n/a
106.348	0.1125	212696	keystroke_l	l	n/a
106.393	0.1245	212786	keystroke_u	u	n/a
106.5055	0.09	213011	keystroke_b	b	n/a
106.7195	0.0675	213439	keystroke_Key.enter	Key.enter	n/a
106.7905	8.6485	213581	prompt	n/a	civilization deck installation lock\n
108.0805	0.0675	216161	keystroke_c	c	n/a
108.3055	0.045	216611	keystroke_i	i	n/a
108.7225	0.101	217445	keystroke_v	v	n/a
108.913	0.09	217826	keystroke_i	i	n/a
109.1155	0.1125	218231	keystroke_l	l	n/a
109.408	0.09	218816	keystroke_i	i	n/a
109.69	0.0555	219380	keystroke_z	z	n/a
109.9375	0.0675	219875	keystroke_a	a	n/a
110.545	0.0675	221090	keystroke_t	t	n/a
110.7355	0.034	221471	keystroke_i	i	n/a
110.9155	0.0455	221831	keystroke_o	o	n/a
111.062	0.1015	222124	keystroke_n	n	n/a
111.1855	0.135	222371	keystroke_Key.space	Key.space	n/a
111.5005	0.0675	223001	keystroke_d	d	n/a
111.748	0.0115	223496	keystroke_e	e	n/a
111.9055	0.0565	223811	keystroke_c	c	n/a
112.03	0.1345	224060	keystroke_k	k	n/a
112.153	0.079	224306	keystroke_Key.space	Key.space	n/a
112.322	0.1355	224644	keystroke_i	i	n/a
112.3895	0.113	224779	keystroke_n	n	n/a
112.503	0.112	225006	keystroke_s	s	n/a
112.603	0.102	225206	keystroke_t	t	n/a
112.7155	0.09	225431	keystroke_a	a	n/a
112.8395	0.056	225679	keystroke_l	l	n/a
112.9855	0.09	225971	keystroke_l	l	n/a
113.1655	0.09	226331	keystroke_a	a	n/a
113.447	0.045	226894	keystroke_t	t	n/a
113.5705	0.1015	227141	keystroke_i	i	n/a
113.953	0.1125	227906	keystroke_o	o	n/a
114.0545	0.079	228109	keystroke_n	n	n/a
114.268	0.09	228536	keystroke_Key.space	Key.space	n/a
114.4255	0.0565	228851	keystroke_l	l	n/a
114.6055	0.0675	229211	keystroke_o	o	n/a
114.808	0.0675	229616	keystroke_c	c	n/a
114.9545	0.101	229909	keystroke_k	k	n/a
115.3705	0.0675	230741	keystroke_Key.enter	Key.enter	n/a
115.442	4.6655	230884	prompt	n/a	vertex took varied scales\n
116.192	0.1125	232384	keystroke_v	v	n/a
116.4055	0.068	232811	keystroke_e	e	n/a
116.462	0.1015	232924	keystroke_r	r	n/a
116.642	0.09	233284	keystroke_t	t	n/a
116.7435	0.0785	233487	keystroke_e	e	n/a
117.002	0.0565	234004	keystroke_x	x	n/a
117.1145	0.146	234229	keystroke_Key.space	Key.space	n/a
117.4855	0.09	234971	keystroke_t	t	n/a
117.61	0.078	235220	keystroke_o	o	n/a
117.7675	0.0555	235535	keystroke_o	o	n/a
117.88	0.1005	235760	keystroke_k	k	n/a
117.981	0.157	235962	keystroke_Key.space	Key.space	n/a
118.1505	0.1345	236301	keystroke_v	v	n/a
118.2505	0.135	236501	keystroke_a	a	n/a
118.5655	0.0115	237131	keystroke_r	r	n/a
118.69	0.09	237380	keystroke_i	i	n/a
118.8025	0.0555	237605	keystroke_e	e	n/a
118.9705	0.09	237941	keystroke_d	d	n/a
119.072	0.1235	238144	keystroke_Key.space	Key.space	n/a
119.207	0.101	238414	keystroke_s	s	n/a
119.443	0.091	238886	keystroke_c	c	n/a
119.5105	0.1125	239021	keystroke_a	a	n/a
119.6685	0.0895	239337	keystroke_l	l	n/a
119.7695	0.101	239539	keystroke_e	e	n/a
119.8595	0.09	239719	keystroke_s	s	n/a
120.051	0.056	240102	keystroke_Key.enter	Key.enter	n/a
120.1105	5.893	240221	prompt	n/a	seriously rider nathan specialist\n
120.793	0.079	241586	keystroke_s	s	n/a
121.097	0.135	242194	keystroke_e	e	n/a
121.187	0.1235	242374	keystroke_r	r	n/a
121.378	0.147	242756	keystroke_i	i	n/a
121.4905	0.0455	242981	keystroke_o	o	n/a
121.5365	0.089	243073	keystroke_u	u	n/a
122.042	0.101	244084	keystroke_s	s	n/a
122.234	0.1005	244468	keystroke_l	l	n/a
122.301	0.1235	244602	keystroke_y	y	n/a
122.4355	0.1125	244871	keystroke_Key.space	Key.space	n/a
122.728	0.034	245456	keystroke_r	r	n/a
122.7955	0.0905	245591	keystroke_i	i	n/a
122.897	0.101	245794	keystroke_d	d	n/a
123.088	0.113	246176	keystroke_e	e	n/a
123.1675	0.0675	246335	keystroke_r	r	n/a
123.2455	0.0905	246491	keystroke_Key.space	Key.space	n/a
123.3925	0.1125	246785	keystroke_n	n	n/a
123.5155	0.09	247031	keystroke_a	a	n/a
123.584	0.078	247168	keystroke_t	t	n/a
123.673	0.0795	247346	keystroke_h	h	n/a
123.786	0.079	247572	keystroke_a	a	n/a
123.876	0.112	247752	keystroke_n	n	n/a
123.9545	0.1135	247909	keystroke_Key.space	Key.space	n/a
124.1005	0.135	248201	keystroke_s	s	n/a
124.247	0.0785	248494	keystroke_p	p	n/a
124.4155	0.0355	248831	keystroke_e	e	n/a
124.5955	0.057	249191	keystroke_c	c	n/a
124.663	0.102	249326	keystroke_i	i	n/a
124.8325	0.0785	249665	keystroke_a	a	n/a
125.2375	0.09	250475	keystroke_l	l	n/a
125.2705	0.102	250541	keystroke_i	i	n/a
125.3605	0.1245	250721	keystroke_s	s	n/a
125.473	0.0675	250946	keystroke_t	t	n/a
125.9455	0.057	251891	keystroke_Key.enter	Key.enter	n/a
126.006	7.4555	252012	prompt	n/a	latitude scheduling vatican julian\n
126.778	0.0575	253556	keystroke_l	l	n/a
126.823	0.113	253646	keystroke_a	a	n/a
126.9245	0.0905	253849	keystroke_t	t	n/a
127.138	0.1125	254276	keystroke_i	i	n/a
127.262	0.101	254524	keystroke_t	t	n/a
127.5435	0.0895	255087	keystroke_u	u	n/a
127.7795	0.101	255559	keystroke_d	d	n/a
128.0275	0.078	256055	keystroke_e	e	n/a
128.2295	0.101	256459	keystroke_Key.space	Key.space	n/a
128.32	0.1125	256640	keystroke_s	s	n/a
128.5225	0.078	257045	keystroke_c	c	n/a
128.6905	0.09	257381	keystroke_h	h	n/a
128.9495	0.0785	257899	keystroke_e	e	n/a
129.118	0.079	258236	keystroke_d	d	n/a
129.208	0.135	258416	keystroke_u	u	n/a
129.3095	0.135	258619	keystroke_l	l	n/a
129.546	0.112	259092	keystroke_i	i	n/a
129.603	0.1	259206	keystroke_n	n	n/a
129.6925	0.078	259385	keystroke_g	g	n/a
129.782	0.0905	259564	keystroke_Key.space	Key.space	n/a
130.153	0.1125	260306	keystroke_v	v	n/a
130.4905	0.1015	260981	keystroke_a	a	n/a
131.098	0.079	262196	keystroke_t	t	n/a
131.234	0.1005	262468	keystroke_i	i	n/a
131.3235	0.135	262647	keystroke_c	c	n/a
131.458	0.0905	262916	keystroke_a	a	n/a
131.616	0.146	263232	keystroke_n	n	n/a
131.7505	0.124	263501	keystroke_Key.space	Key.space	n/a
131.9305	0.079	263861	keystroke_j	j	n/a
132.122	0.0785	264244	keystroke_u	u	n/a
132.4145	0.0675	264829	keystroke_l	l	n/a
132.6395	0.0785	265279	keystroke_i	i	n/a
132.7405	0.079	265481	keystroke_a	a	n/a
132.831	0.0785	265662	keystroke_n	n	n/a
133.427	0.0335	266854	keystroke_Key.enter	Key.enter	n/a
133.4645	5.1165	266929	prompt	n/a	sleep trash mounts practitioner\n
134.338	0.0675	268676	keystroke_s	s	n/a
134.418	0.1115	268836	keystroke_l	l	n/a
134.5745	0.0675	269149	keystroke_e	e	n/a
134.7655	0.057	269531	keystroke_e	e	n/a
134.8225	0.1005	269645	keystroke_p	p	n/a
134.9115	0.1125	269823	keystroke_Key.space	Key.space	n/a
135.002	0.0675	270004	keystroke_t	t	n/a
135.148	0.124	270296	keystroke_r	r	n/a
135.238	0.113	270476	keystroke_a	a	n/a
135.3395	0.09	270679	keystroke_s	s	n/a
135.497	0.0905	270994	keystroke_h	h	n/a
135.5645	0.101	271129	keystroke_Key.space	Key.space	n/a
135.733	0.079	271466	keystroke_m	m	n/a
135.9245	0.1235	271849	keystroke_o	o	n/a
135.9925	0.0895	271985	keystroke_u	u	n/a
136.1845	0.0885	272369	keystroke_n	n	n/a
136.251	0.112	272502	keystroke_t	t	n/a
136.33	0.078	272660	keystroke_s	s	n/a
136.4195	0.0785	272839	keystroke_Key.space	Key.space	n/a
136.6105	0.057	273221	keystroke_p	p	n/a
136.723	0.135	273446	keystroke_r	r	n/a
137.083	0.0785	274166	keystroke_a	a	n/a
137.342	0.079	274684	keystroke_c	c	n/a
137.522	0.0675	275044	keystroke_t	t	n/a
137.668	0.09	275336	keystroke_i	i	n/a
137.848	0.045	275696	keystroke_t	t	n/a
137.9045	0.147	275809	keystroke_i	i	n/a
137.9605	0.079	275921	keystroke_o	o	n/a
138.028	0.079	276056	keystroke_n	n	n/a
138.2305	0.09	276461	keystroke_e	e	n/a
138.265	0.112	276530	keystroke_r	r	n/a
138.5005	0.079	277001	keystroke_Key.enter	Key.enter	n/a
138.584	5.2165	277168	prompt	n/a	zimbabwe tapes anyway lover\n
139.333	0.102	278666	keystroke_z	z	n/a
139.39	0.1005	278780	keystroke_i	i	n/a
139.4575	0.123	278915	keystroke_m	m	n/a
139.626	0.0895	279252	keystroke_b	b	n/a
139.783	0.113	279566	keystroke_a	a	n/a
139.8845	0.1235	279769	keystroke_b	b	n/a
140.2105	0.124	280421	keystroke_w	w	n/a
140.2895	0.0895	280579	keystroke_e	e	n/a
140.368	0.1015	280736	keystroke_Key.space	Key.space	n/a
140.5255	0.1575	281051	keystroke_t	t	n/a
140.672	0.0455	281344	keystroke_a	a	n/a
140.7175	0.123	281435	keystroke_p	p	n/a
140.8745	0.0785	281749	keystroke_e	e	n/a
140.9415	0.1355	281883	keystroke_s	s	n/a
141.054	0.136	282108	keystroke_Key.space	Key.space	n/a
141.3805	0.09	282761	keystroke_a	a	n/a
141.482	0.0335	282964	keystroke_n	n	n/a
141.628	0.09	283256	keystroke_y	y	n/a
141.797	0.146	283594	keystroke_w	w	n/a
141.8875	0.089	283775	keystroke_a	a	n/a
142.0445	0.101	284089	keystroke_y	y	n/a
142.1345	0.101	284269	keystroke_Key.space	Key.space	n/a
142.348	0.09	284696	keystroke_l	l	n/a
142.618	0.0785	285236	keystroke_o	o	n/a
142.764	0.068	285528	keystroke_v	v	n/a
142.8095	0.0785	285619	keystroke_e	e	n/a
143.259	0.034	286518	keystroke_e	e	n/a
143.282	0.079	286564	keystroke_r	r	n/a
143.743	0.056	287486	keystroke_Key.enter	Key.enter	n/a
143.803	6.3535	287606	prompt	n/a	browser instructions enabling accomplish\n
144.6765	0.1015	289353	keystroke_b	b	n/a
145.059	0.068	290118	keystroke_r	r	n/a
145.161	0.078	290322	keystroke_o	o	n/a
145.2395	0.1345	290479	keystroke_w	w	n/a
145.6895	0.1465	291379	keystroke_s	s	n/a
145.8015	0.079	291603	keystroke_e	e	n/a
145.8355	0.09	291671	keystroke_r	r	n/a
145.959	0.1465	291918	keystroke_Key.space	Key.space	n/a
146.139	0.1465	292278	keystroke_i	i	n/a
146.218	0.135	292436	keystroke_n	n	n/a
146.353	0.1125	292706	keystroke_s	s	n/a
146.432	0.0675	292864	keystroke_t	t	n/a
146.578	0.1125	293156	keystroke_r	r	n/a
146.713	0.135	293426	keystroke_u	u	n/a
146.8595	0.0675	293719	keystroke_c	c	n/a
147.0395	0.0785	294079	keystroke_t	t	n/a
147.107	0.135	294214	keystroke_i	i	n/a
147.163	0.0675	294326	keystroke_o	o	n/a
147.1975	0.1005	294395	keystroke_n	n	n/a
147.3095	0.067	294619	keystroke_s	s	n/a
147.4215	0.1015	294843	keystroke_Key.space	Key.space	n/a
147.5455	0.079	295091	keystroke_e	e	n/a
147.6355	0.1015	295271	keystroke_n	n	n/a
147.7595	0.124	295519	keystroke_a	a	n/a
147.838	0.113	295676	keystroke_b	b	n/a
147.9955	0.135	295991	keystroke_l	l	n/a
148.0745	0.1355	296149	keystroke_i	i	n/a
148.5025	0.078	297005	keystroke_n	n	n/a
148.615	0.078	297230	keystroke_g	g	n/a
148.7605	0.09	297521	keystroke_Key.space	Key.space	n/a
148.9185	0.0675	297837	keystroke_a	a	n/a
149.1655	0.0115	298331	keystroke_c	c	n/a
149.278	0.09	298556	keystroke_c	c	n/a
149.312	0.146	298624	keystroke_o	o	n/a
149.38	0.168	298760	keystroke_m	m	n/a
149.469	0.0905	298938	keystroke_p	p	n/a
149.7055	0.068	299411	keystroke_l	l	n/a
149.739	0.169	299478	keystroke_i	i	n/a
149.807	0.1235	299614	keystroke_s	s	n/a
149.919	0.079	299838	keystroke_h	h	n/a
150.0655	0.09	300131	keystroke_Key.enter	Key.enter	n/a
150.159	4.4635	300318	prompt	n/a	equations reno hottest treat\n
151.1005	0.101	302201	keystroke_e	e	n/a
151.247	0.09	302494	keystroke_q	q	n/a
151.3825	0.1125	302765	keystroke_u	u	n/a
151.4945	0.101	302989	keystroke_a	a	n/a
151.585	0.078	303170	keystroke_t	t	n/a
151.663	0.1575	303326	keystroke_i	i	n/a
151.7305	0.09	303461	keystroke_o	o	n/a
151.753	0.1575	303506	keystroke_n	n	n/a
151.9215	0.0565	303843	keystroke_s	s	n/a
152.023	0.101	304046	keystroke_Key.space	Key.space	n/a
152.282	0.136	304564	keystroke_r	r	n/a
152.3715	0.0795	304743	keystroke_e	e	n/a
152.439	0.1465	304878	keystroke_n	n	n/a
152.518	0.0785	305036	keystroke_o	o	n/a
152.6415	0.1125	305283	keystroke_Key.space	Key.space	n/a
152.9565	0.113	305913	keystroke_h	h	n/a
153.0465	0.0675	306093	keystroke_o	o	n/a
153.148	0.068	306296	keystroke_t	t	n/a
153.3165	0.0795	306633	keystroke_t	t	n/a
153.429	0.1245	306858	keystroke_e	e	n/a
153.5415	0.124	307083	keystroke_s	s	n/a
153.621	0.101	307242	keystroke_t	t	n/a
153.7555	0.101	307511	keystroke_Key.space	Key.space	n/a
153.8685	0.1005	307737	keystroke_t	t	n/a
154.172	0.101	308344	keystroke_r	r	n/a
154.2615	0.102	308523	keystroke_e	e	n/a
154.307	0.1235	308614	keystroke_a	a	n/a
154.419	0.0905	308838	keystroke_t	t	n/a
154.543	0.0785	309086	keystroke_Key.enter	Key.enter	n/a
154.6265	4.0925	309253	prompt	n/a	assumed ground theft taken\n
155.342	0.1235	310684	keystroke_a	a	n/a
155.4765	0.079	310953	keystroke_s	s	n/a
155.6455	0.0905	311291	keystroke_s	s	n/a
155.736	0.0785	311472	keystroke_u	u	n/a
155.927	0.0675	311854	keystroke_m	m	n/a
156.028	0.0565	312056	keystroke_e	e	n/a
156.1855	0.0675	312371	keystroke_d	d	n/a
156.2305	0.1125	312461	keystroke_Key.space	Key.space	n/a
156.3655	0.09	312731	keystroke_g	g	n/a
156.6245	0.0445	313249	keystroke_r	r	n/a
156.6355	0.1125	313271	keystroke_o	o	n/a
156.6805	0.1015	313361	keystroke_u	u	n/a
156.883	0.0785	313766	keystroke_n	n	n/a
156.9515	0.089	313903	keystroke_d	d	n/a
157.0965	0.079	314193	keystroke_Key.space	Key.space	n/a
157.299	0.0565	314598	keystroke_t	t	n/a
157.3665	0.1125	314733	keystroke_h	h	n/a
157.4905	0.0785	314981	keystroke_e	e	n/a
157.648	0.0785	315296	keystroke_f	f	n/a
157.828	0.0565	315656	keystroke_t	t	n/a
157.885	0.1565	315770	keystroke_Key.space	Key.space	n/a
158.0535	0.078	316107	keystroke_t	t	n/a
158.1655	0.0675	316331	keystroke_a	a	n/a
158.278	0.101	316556	keystroke_k	k	n/a
158.391	0.0785	316782	keystroke_e	e	n/a
158.4805	0.0905	316961	keystroke_n	n	n/a
158.638	0.0785	317276	keystroke_Key.enter	Key.enter	n/a
158.7225	5.6315	317445	prompt	n/a	disable fought profiles syndrome\n
159.3915	0.1125	318783	keystroke_d	d	n/a
159.5155	0.113	319031	keystroke_i	i	n/a
159.594	0.1015	319188	keystroke_s	s	n/a
159.774	0.124	319548	keystroke_a	a	n/a
159.831	0.123	319662	keystroke_b	b	n/a
160.348	0.056	320696	keystroke_l	l	n/a
160.449	0.0565	320898	keystroke_e	e	n/a
160.5165	0.1015	321033	keystroke_Key.space	Key.space	n/a
160.7305	0.101	321461	keystroke_f	f	n/a
160.843	0.09	321686	keystroke_o	o	n/a
160.888	0.1015	321776	keystroke_u	u	n/a
161.001	0.067	322002	keystroke_g	g	n/a
161.0795	0.0895	322159	keystroke_h	h	n/a
161.203	0.09	322406	keystroke_t	t	n/a
161.3605	0.1125	322721	keystroke_Key.space	Key.space	n/a
161.6645	0.056	323329	keystroke_p	p	n/a
161.7995	0.056	323599	keystroke_r	r	n/a
161.8895	0.056	323779	keystroke_o	o	n/a
162.0355	0.056	324071	keystroke_f	f	n/a
162.5755	0.157	325151	keystroke_i	i	n/a
162.654	0.1015	325308	keystroke_l	l	n/a
162.744	0.113	325488	keystroke_e	e	n/a
162.8455	0.09	325691	keystroke_s	s	n/a
162.9465	0.0905	325893	keystroke_Key.space	Key.space	n/a
163.1605	0.057	326321	keystroke_s	s	n/a
163.2055	0.09	326411	keystroke_y	y	n/a
163.4645	0.0785	326929	keystroke_n	n	n/a
163.5765	0.091	327153	keystroke_d	d	n/a
163.903	0.1125	327806	keystroke_r	r	n/a
164.027	0.068	328054	keystroke_o	o	n/a
164.0605	0.112	328121	keystroke_m	m	n/a
164.1615	0.0455	328323	keystroke_e	e	n/a
164.2855	0.0675	328571	keystroke_Key.enter	Key.enter	n/a
164.36	5.169	328720	prompt	n/a	media cooperative briefs seven\n
165.051	0.1115	330102	keystroke_m	m	n/a
165.152	0.0785	330304	keystroke_e	e	n/a
165.3205	0.067	330641	keystroke_d	d	n/a
165.3995	0.09	330799	keystroke_i	i	n/a
165.523	0.079	331046	keystroke_a	a	n/a
165.613	0.1125	331226	keystroke_Key.space	Key.space	n/a
165.928	0.09	331856	keystroke_c	c	n/a
166.029	0.101	332058	keystroke_o	o	n/a
166.243	0.1015	332486	keystroke_o	o	n/a
166.3325	0.045	332665	keystroke_p	p	n/a
166.423	0.1235	332846	keystroke_e	e	n/a
166.5025	0.1005	333005	keystroke_r	r	n/a
166.659	0.113	333318	keystroke_a	a	n/a
166.7375	0.0805	333475	keystroke_t	t	n/a
166.851	0.112	333702	keystroke_i	i	n/a
166.9745	0.135	333949	keystroke_v	v	n/a
167.0645	0.078	334129	keystroke_e	e	n/a
167.154	0.1125	334308	keystroke_Key.space	Key.space	n/a
167.503	0.0895	335006	keystroke_b	b	n/a
167.8625	0.0905	335725	keystroke_r	r	n/a
168.043	0.09	336086	keystroke_i	i	n/a
168.133	0.068	336266	keystroke_e	e	n/a
168.2455	0.157	336491	keystroke_f	f	n/a
168.38	0.1015	336760	keystroke_s	s	n/a
168.5265	0.09	337053	keystroke_Key.space	Key.space	n/a
168.6725	0.1465	337345	keystroke_s	s	n/a
168.8305	0.09	337661	keystroke_e	e	n/a
169.0555	0.1345	338111	keystroke_v	v	n/a
169.179	0.0565	338358	keystroke_e	e	n/a
169.269	0.1125	338538	keystroke_n	n	n/a
169.438	0.09	338876	keystroke_Key.enter	Key.enter	n/a
169.5325	6.1725	339065	prompt	n/a	joseph exclusively impaired salem\n
170.1805	0.112	340361	keystroke_j	j	n/a
170.349	0.09	340698	keystroke_o	o	n/a
170.45	0.079	340900	keystroke_s	s	n/a
170.945	0.0905	341890	keystroke_e	e	n/a
171.024	0.1235	342048	keystroke_p	p	n/a
171.069	0.1235	342138	keystroke_h	h	n/a
171.3275	0.079	342655	keystroke_Key.space	Key.space	n/a
171.89	0.0565	343780	keystroke_e	e	n/a
172.0595	0.1005	344119	keystroke_x	x	n/a
172.1945	0.1345	344389	keystroke_l	l	n/a
172.779	0.0785	345558	keystroke_Key.backspace	Key.backspace	n/a
172.8465	0.0785	345693	keystroke_c	c	n/a
172.959	0.113	345918	keystroke_l	l	n/a
173.015	0.102	346030	keystroke_u	u	n/a
173.252	0.1005	346504	keystroke_s	s	n/a
173.4425	0.068	346885	keystroke_i	i	n/a
173.4995	0.123	346999	keystroke_v	v	n/a
173.567	0.0895	347134	keystroke_e	e	n/a
173.6685	0.1005	347337	keystroke_l	l	n/a
173.7355	0.1015	347471	keystroke_y	y	n/a
173.8145	0.09	347629	keystroke_Key.space	Key.space	n/a
174.084	0.1235	348168	keystroke_i	i	n/a
174.1745	0.123	348349	keystroke_m	m	n/a
174.208	0.146	348416	keystroke_p	p	n/a
174.41	0.102	348820	keystroke_a	a	n/a
174.501	0.044	349002	keystroke_r	r	n/a
174.5795	0.078	349159	keystroke_i	i	n/a
174.7475	0.0345	349495	keystroke_e	e	n/a
174.8825	0.1125	349765	keystroke_d	d	n/a
175.6475	0.057	351295	keystroke_Key.enter	Key.enter	n/a
175.708	6.545	351416	prompt	n/a	cathedral oasis influences balance\n
176.8965	0.101	353793	keystroke_c	c	n/a
177.0765	0.1685	354153	keystroke_a	a	n/a
177.178	0.0785	354356	keystroke_t	t	n/a
177.3125	0.079	354625	keystroke_h	h	n/a
177.4025	0.045	354805	keystroke_e	e	n/a
177.842	0.123	355684	keystroke_d	d	n/a
178.0775	0.1015	356155	keystroke_r	r	n/a
178.157	0.078	356314	keystroke_a	a	n/a
178.2575	0.1015	356515	keystroke_l	l	n/a
178.359	0.1125	356718	keystroke_Key.space	Key.space	n/a
178.5165	0.0785	357033	keystroke_o	o	n/a
178.6625	0.1125	357325	keystroke_a	a	n/a
178.753	0.0895	357506	keystroke_s	s	n/a
178.944	0.0905	357888	keystroke_i	i	n/a
179.0225	0.102	358045	keystroke_s	s	n/a
179.1575	0.09	358315	keystroke_Key.space	Key.space	n/a
179.4165	0.1235	358833	keystroke_i	i	n/a
179.4615	0.124	358923	keystroke_n	n	n/a
179.574	0.1125	359148	keystroke_f	f	n/a
179.6975	0.1465	359395	keystroke_l	l	n/a
179.765	0.09	359530	keystroke_u	u	n/a
179.8665	0.0785	359733	keystroke_e	e	n/a
180.0015	0.101	360003	keystroke_n	n	n/a
180.114	0.0565	360228	keystroke_c	c	n/a
180.3055	0.113	360611	keystroke_e	e	n/a
180.4065	0.101	360813	keystroke_s	s	n/a
180.519	0.1125	361038	keystroke_Key.space	Key.space	n/a
180.8905	0.101	361781	keystroke_b	b	n/a
180.98	0.0905	361960	keystroke_a	a	n/a
181.374	0.0675	362748	keystroke_l	l	n/a
181.475	0.1015	362950	keystroke_a	a	n/a
181.61	0.102	363220	keystroke_n	n	n/a
181.7	0.1125	363400	keystroke_c	c	n/a
181.925	0.135	363850	keystroke_e	e	n/a
182.015	0.102	364030	keystroke_s	s	n/a
182.185	0.067	364370	keystroke_Key.enter	Key.enter	n/a
182.256	5.599	364512	prompt	n/a	oxygen remark gather copyright\n
182.8815	0.101	365763	keystroke_o	o	n/a
183.05	0.1125	366100	keystroke_x	x	n/a
183.219	0.101	366438	keystroke_y	y	n/a
183.759	0.079	367518	keystroke_g	g	n/a
183.9615	0.0675	367923	keystroke_e	e	n/a
184.063	0.146	368126	keystroke_n	n	n/a
184.1525	0.1125	368305	keystroke_Key.space	Key.space	n/a
184.2995	0.1795	368599	keystroke_r	r	n/a
184.4225	0.0675	368845	keystroke_e	e	n/a
184.4905	0.0895	368981	keystroke_m	m	n/a
184.6365	0.113	369273	keystroke_a	a	n/a
184.715	0.09	369430	keystroke_r	r	n/a
184.8955	0.1345	369791	keystroke_k	k	n/a
185.0195	0.1005	370039	keystroke_Key.space	Key.space	n/a
185.402	0.1125	370804	keystroke_g	g	n/a
185.6495	0.1005	371299	keystroke_a	a	n/a
185.7725	0.09	371545	keystroke_t	t	n/a
186.3805	0.0785	372761	keystroke_h	h	n/a
186.459	0.09	372918	keystroke_e	e	n/a
186.515	0.09	373030	keystroke_r	r	n/a
186.616	0.102	373232	keystroke_Key.space	Key.space	n/a
186.8525	0.034	373705	keystroke_c	c	n/a
186.8975	0.1125	373795	keystroke_o	o	n/a
186.9875	0.079	373975	keystroke_p	p	n/a
187.055	0.09	374110	keystroke_y	y	n/a
187.359	0.045	374718	keystroke_r	r	n/a
187.4155	0.1005	374831	keystroke_i	i	n/a
187.5055	0.079	375011	keystroke_g	g	n/a
187.5845	0.0895	375169	keystroke_h	h	n/a
187.6855	0.0675	375371	keystroke_t	t	n/a
187.7755	0.0785	375551	keystroke_Key.enter	Key.enter	n/a
187.858	4.7105	375716	prompt	n/a	ensemble paxil anxiety snow\n
188.529	0.0675	377058	keystroke_e	e	n/a
188.6305	0.112	377261	keystroke_n	n	n/a
188.7315	0.1125	377463	keystroke_s	s	n/a
188.8555	0.0895	377711	keystroke_e	e	n/a
188.979	0.112	377958	keystroke_m	m	n/a
189.1255	0.135	378251	keystroke_b	b	n/a
189.328	0.0785	378656	keystroke_l	l	n/a
189.4185	0.1005	378837	keystroke_e	e	n/a
189.5755	0.1235	379151	keystroke_Key.space	Key.space	n/a
189.789	0.0895	379578	keystroke_p	p	n/a
189.8905	0.067	379781	keystroke_a	a	n/a
190.1265	0.0675	380253	keystroke_x	x	n/a
190.2275	0.079	380455	keystroke_i	i	n/a
190.3965	0.1015	380793	keystroke_l	l	n/a
190.4865	0.09	380973	keystroke_Key.space	Key.space	n/a
190.6665	0.09	381333	keystroke_a	a	n/a
190.768	0.112	381536	keystroke_n	n	n/a
191.1615	0.1125	382323	keystroke_x	x	n/a
191.364	0.1125	382728	keystroke_i	i	n/a
191.488	0.078	382976	keystroke_e	e	n/a
191.702	0.0895	383404	keystroke_t	t	n/a
191.8255	0.1125	383651	keystroke_y	y	n/a
191.9265	0.1125	383853	keystroke_Key.space	Key.space	n/a
192.0725	0.0795	384145	keystroke_s	s	n/a
192.2075	0.09	384415	keystroke_n	n	n/a
192.2415	0.09	384483	keystroke_o	o	n/a
192.3425	0.135	384685	keystroke_w	w	n/a
192.5115	0.0565	385023	keystroke_Key.enter	Key.enter	n/a
192.5715	6.083	385143	prompt	n/a	unwrap enhanced sensor fuji\n
193.2425	0.079	386485	keystroke_u	u	n/a
193.3885	0.1015	386777	keystroke_n	n	n/a
194.0195	0.1235	388039	keystroke_w	w	n/a
194.131	0.1245	388262	keystroke_r	r	n/a
194.255	0.113	388510	keystroke_a	a	n/a
194.3785	0.1125	388757	keystroke_p	p	n/a
194.525	0.1125	389050	keystroke_Key.space	Key.space	n/a
194.672	0.1005	389344	keystroke_e	e	n/a
194.84	0.09	389680	keystroke_n	n	n/a
195.02	0.09	390040	keystroke_h	h	n/a
195.122	0.09	390244	keystroke_a	a	n/a
195.257	0.067	390514	keystroke_n	n	n/a
195.3915	0.0785	390783	keystroke_c	c	n/a
195.6725	0.0675	391345	keystroke_e	e	n/a
195.853	0.067	391706	keystroke_d	d	n/a
196.01	0.079	392020	keystroke_Key.space	Key.space	n/a
196.4265	0.1575	392853	keystroke_s	s	n/a
196.5615	0.124	393123	keystroke_e	e	n/a
196.775	0.1575	393550	keystroke_n	n	n/a
196.944	0.113	393888	keystroke_s	s	n/a
197.068	0.0895	394136	keystroke_o	o	n/a
197.248	0.0895	394496	keystroke_r	r	n/a
197.349	0.068	394698	keystroke_Key.space	Key.space	n/a
197.5855	0.101	395171	keystroke_f	f	n/a
198.0125	0.09	396025	keystroke_u	u	n/a
198.2375	0.1015	396475	keystroke_j	j	n/a
198.3275	0.045	396655	keystroke_i	i	n/a
198.5865	0.0675	397173	keystroke_Key.enter	Key.enter	n/a
198.6575	5.0145	397315	prompt	n/a	followed nylon area pete\n
199.3065	0.079	398613	keystroke_f	f	n/a
199.4415	0.034	398883	keystroke_o	o	n/a
199.5765	0.034	399153	keystroke_l	l	n/a
199.723	0.056	399446	keystroke_o	o	n/a
200.229	0.057	400458	keystroke_Key.backspace	Key.backspace	n/a
200.4315	0.011	400863	keystroke_l	l	n/a
200.544	0.0675	401088	keystroke_o	o	n/a
200.623	0.1015	401246	keystroke_w	w	n/a
200.724	0.09	401448	keystroke_e	e	n/a
200.904	0.0895	401808	keystroke_d	d	n/a
201.1065	0.1125	402213	keystroke_Key.space	Key.space	n/a
201.309	0.045	402618	keystroke_n	n	n/a
201.534	0.1015	403068	keystroke_y	y	n/a
201.7365	0.0675	403473	keystroke_l	l	n/a
201.9165	0.079	403833	keystroke_o	o	n/a
202.0405	0.1575	404081	keystroke_n	n	n/a
202.1865	0.0785	404373	keystroke_Key.space	Key.space	n/a
202.2765	0.1125	404553	keystroke_a	a	n/a
202.4115	0.1355	404823	keystroke_r	r	n/a
202.5015	0.0785	405003	keystroke_e	e	n/a
202.5465	0.1245	405093	keystroke_a	a	n/a
202.726	0.102	405452	keystroke_Key.space	Key.space	n/a
203.1315	0.09	406263	keystroke_p	p	n/a
203.221	0.102	406442	keystroke_e	e	n/a
203.3235	0.134	406647	keystroke_t	t	n/a
203.424	0.0895	406848	keystroke_e	e	n/a
203.5815	0.0895	407163	keystroke_Key.enter	Key.enter	n/a
203.675	6.792	407350	prompt	n/a	governance presenting capacity ultimate\n
204.4365	0.056	408873	keystroke_g	g	n/a
204.526	0.0905	409052	keystroke_o	o	n/a
204.6275	0.1015	409255	keystroke_v	v	n/a
204.74	0.1465	409480	keystroke_e	e	n/a
204.8525	0.1015	409705	keystroke_r	r	n/a
205.01	0.057	410020	keystroke_n	n	n/a
205.0665	0.1125	410133	keystroke_a	a	n/a
205.19	0.0675	410380	keystroke_n	n	n/a
205.28	0.0565	410560	keystroke_c	c	n/a
205.4945	0.033	410989	keystroke_e	e	n/a
205.5615	0.1125	411123	keystroke_Key.space	Key.space	n/a
205.7415	0.0785	411483	keystroke_p	p	n/a
205.8425	0.124	411685	keystroke_r	r	n/a
205.9215	0.1235	411843	keystroke_e	e	n/a
206.035	0.145	412070	keystroke_s	s	n/a
206.1245	0.123	412249	keystroke_e	e	n/a
206.315	0.1235	412630	keystroke_n	n	n/a
206.4275	0.1015	412855	keystroke_t	t	n/a
206.6645	0.1115	413329	keystroke_i	i	n/a
206.709	0.157	413418	keystroke_n	n	n/a
206.855	0.045	413710	keystroke_g	g	n/a
206.9565	0.112	413913	keystroke_Key.space	Key.space	n/a
207.3165	0.1685	414633	keystroke_c	c	n/a
207.497	0.0895	414994	keystroke_p	p	n/a
207.5075	0.0675	415015	keystroke_a	a	n/a
208.16	0.0565	416320	keystroke_Key.backspace	Key.backspace	n/a
208.2845	0.078	416569	keystroke_Key.backspace	Key.backspace	n/a
208.374	0.1235	416748	keystroke_a	a	n/a
208.509	0.0785	417018	keystroke_p	p	n/a
208.599	0.0785	417198	keystroke_a	a	n/a
208.745	0.0785	417490	keystroke_c	c	n/a
208.937	0.0895	417874	keystroke_i	i	n/a
208.9815	0.09	417963	keystroke_t	t	n/a
209.105	0.1575	418210	keystroke_y	y	n/a
209.274	0.0785	418548	keystroke_Key.space	Key.space	n/a
209.69	0.09	419380	keystroke_u	u	n/a
209.769	0.1015	419538	keystroke_l	l	n/a
209.8585	0.0905	419717	keystroke_t	t	n/a
209.96	0.101	419920	keystroke_i	i	n/a
210.0275	0.1125	420055	keystroke_m	m	n/a
210.129	0.0895	420258	keystroke_a	a	n/a
210.2075	0.0785	420415	keystroke_t	t	n/a
210.23	0.0675	420460	keystroke_e	e	n/a
210.3425	0.1235	420685	keystroke_Key.enter	Key.enter	n/a
210.47	4.4295	420940	prompt	n/a	hugo income memphis total\n
211.2535	0.0905	422507	keystroke_h	h	n/a
211.4115	0.0905	422823	keystroke_u	u	n/a
211.4905	0.067	422981	keystroke_g	g	n/a
211.5685	0.102	423137	keystroke_o	o	n/a
211.738	0.123	423476	keystroke_Key.space	Key.space	n/a
212.0075	0.09	424015	keystroke_i	i	n/a
212.03	0.135	424060	keystroke_n	n	n/a
212.39	0.1015	424780	keystroke_c	c	n/a
212.48	0.101	424960	keystroke_o	o	n/a
212.525	0.09	425050	keystroke_m	m	n/a
212.626	0.09	425252	keystroke_e	e	n/a
212.7275	0.0905	425455	keystroke_Key.space	Key.space	n/a
212.8285	0.1015	425657	keystroke_m	m	n/a
212.9415	0.0785	425883	keystroke_e	e	n/a
213.0425	0.09	426085	keystroke_m	m	n/a
213.3015	0.112	426603	keystroke_p	p	n/a
213.3355	0.1345	426671	keystroke_h	h	n/a
213.8415	0.0785	427683	keystroke_i	i	n/a
213.8975	0.0785	427795	keystroke_s	s	n/a
213.9985	0.0905	427997	keystroke_Key.space	Key.space	n/a
214.325	0.0565	428650	keystroke_t	t	n/a
214.415	0.057	428830	keystroke_o	o	n/a
214.4825	0.146	428965	keystroke_t	t	n/a
214.595	0.09	429190	keystroke_a	a	n/a
214.696	0.079	429392	keystroke_l	l	n/a
214.865	0.0335	429730	keystroke_Key.enter	Key.enter	n/a
214.9025	6.6125	429805	prompt	n/a	treatment processing roberts directly\n
215.6075	0.101	431215	keystroke_t	t	n/a
215.855	0.1135	431710	keystroke_r	r	n/a
215.934	0.135	431868	keystroke_e	e	n/a
216.0015	0.09	432003	keystroke_a	a	n/a
216.0805	0.0895	432161	keystroke_t	t	n/a
216.463	0.078	432926	keystroke_m	m	n/a
216.5635	0.057	433127	keystroke_e	e	n/a
216.6085	0.0675	433217	keystroke_n	n	n/a
216.789	0.0115	433578	keystroke_t	t	n/a
216.8335	0.1125	433667	keystroke_Key.space	Key.space	n/a
217.0135	0.079	434027	keystroke_p	p	n/a
217.081	0.124	434162	keystroke_r	r	n/a
217.475	0.0785	434950	keystroke_o	o	n/a
217.621	0.012	435242	keystroke_c	c	n/a
217.8125	0.056	435625	keystroke_i	i	n/a
218.1955	0.056	436391	keystroke_Key.backspace	Key.backspace	n/a
218.263	0.0785	436526	keystroke_e	e	n/a
218.3755	0.1005	436751	keystroke_s	s	n/a
218.611	0.0905	437222	keystroke_s	s	n/a
218.8585	0.102	437717	keystroke_i	i	n/a
218.893	0.123	437786	keystroke_n	n	n/a
219.0055	0.067	438011	keystroke_g	g	n/a
219.106	0.1125	438212	keystroke_Key.space	Key.space	n/a
219.3535	0.057	438707	keystroke_r	r	n/a
219.421	0.09	438842	keystroke_o	o	n/a
219.5335	0.0795	439067	keystroke_b	b	n/a
219.725	0.113	439450	keystroke_e	e	n/a
219.8155	0.1005	439631	keystroke_r	r	n/a
220.0405	0.1005	440081	keystroke_t	t	n/a
220.153	0.0895	440306	keystroke_s	s	n/a
220.2995	0.112	440599	keystroke_Key.space	Key.space	n/a
220.4455	0.0675	440891	keystroke_d	d	n/a
220.5685	0.0795	441137	keystroke_i	i	n/a
220.636	0.135	441272	keystroke_r	r	n/a
220.7605	0.0225	441521	keystroke_e	e	n/a
220.906	0.1125	441812	keystroke_c	c	n/a
221.03	0.0905	442060	keystroke_t	t	n/a
221.1535	0.1245	442307	keystroke_l	l	n/a
221.2665	0.0445	442533	keystroke_y	y	n/a
221.4685	0.0455	442937	keystroke_Key.enter	Key.enter	n/a
221.5175	6.0725	443035	prompt	n/a	winston region circulation intersection\n
222.515	0.0905	445030	keystroke_w	w	n/a
222.5935	0.1125	445187	keystroke_i	i	n/a
222.6385	0.1135	445277	keystroke_n	n	n/a
222.7185	0.0895	445437	keystroke_s	s	n/a
222.886	0.09	445772	keystroke_t	t	n/a
223.0435	0.0675	446087	keystroke_o	o	n/a
223.066	0.1355	446132	keystroke_n	n	n/a
223.235	0.09	446470	keystroke_Key.space	Key.space	n/a
223.4825	0.09	446965	keystroke_r	r	n/a
223.55	0.09	447100	keystroke_e	e	n/a
223.685	0.09	447370	keystroke_g	g	n/a
223.786	0.1805	447572	keystroke_i	i	n/a
223.82	0.0785	447640	keystroke_o	o	n/a
223.8875	0.1235	447775	keystroke_n	n	n/a
223.9775	0.101	447955	keystroke_Key.space	Key.space	n/a
224.1125	0.1125	448225	keystroke_c	c	n/a
224.236	0.1125	448472	keystroke_i	i	n/a
224.349	0.0895	448698	keystroke_r	r	n/a
224.596	0.0115	449192	keystroke_c	c	n/a
224.6185	0.1135	449237	keystroke_u	u	n/a
224.72	0.0785	449440	keystroke_l	l	n/a
224.8775	0.1125	449755	keystroke_a	a	n/a
224.934	0.0905	449868	keystroke_t	t	n/a
225.024	0.146	450048	keystroke_i	i	n/a
225.08	0.0675	450160	keystroke_o	o	n/a
225.1365	0.101	450273	keystroke_n	n	n/a
225.215	0.1015	450430	keystroke_Key.space	Key.space	n/a
225.3725	0.0795	450745	keystroke_i	i	n/a
225.44	0.09	450880	keystroke_n	n	n/a
225.5415	0.1235	451083	keystroke_t	t	n/a
225.755	0.124	451510	keystroke_e	e	n/a
225.845	0.0905	451690	keystroke_r	r	n/a
226.5425	0.1125	453085	keystroke_s	s	n/a
226.599	0.101	453198	keystroke_e	e	n/a
226.846	0.068	453692	keystroke_c	c	n/a
227.015	0.0795	454030	keystroke_t	t	n/a
227.06	0.1125	454120	keystroke_i	i	n/a
227.105	0.079	454210	keystroke_o	o	n/a
227.1385	0.124	454277	keystroke_n	n	n/a
227.5325	0.0565	455065	keystroke_Key.enter	Key.enter	n/a
227.593	9.2675	455186	prompt	n/a	woman mixing dealtime exception\n
228.3985	0.0905	456797	keystroke_s	s	n/a
228.455	0.1235	456910	keystroke_o	o	n/a
228.5115	0.09	457023	keystroke_m	m	n/a
228.59	0.101	457180	keystroke_a	a	n/a
228.7025	0.1235	457405	keystroke_n	n	n/a
228.804	0.101	457608	keystroke_Key.space	Key.space	n/a
228.9615	0.1795	457923	keystroke_m	m	n/a
228.9725	0.0335	457945	keystroke_i	i	n/a
229.096	0.0345	458192	keystroke_i	i	n/a
229.4785	0.3825	458957	keystroke_Key.backspace	Key.backspace	n/a
230.176	0.1015	460352	keystroke_w	w	n/a
230.289	0.101	460578	keystroke_o	o	n/a
230.3675	0.09	460735	keystroke_m	m	n/a
231.5825	0.1125	463165	keystroke_a	a	n/a
231.7065	0.1685	463413	keystroke_n	n	n/a
231.8075	0.101	463615	keystroke_Key.space	Key.space	n/a
231.976	0.113	463952	keystroke_m	m	n/a
232.303	0.0895	464606	keystroke_i	i	n/a
232.404	0.0895	464808	keystroke_x	x	n/a
232.516	0.1135	465032	keystroke_i	i	n/a
232.595	0.124	465190	keystroke_n	n	n/a
232.7415	0.09	465483	keystroke_g	g	n/a
232.91	0.1015	465820	keystroke_Key.space	Key.space	n/a
233.3035	0.0225	466607	keystroke_d	d	n/a
233.4385	0.124	466877	keystroke_e	e	n/a
233.5175	0.09	467035	keystroke_a	a	n/a
233.585	0.1125	467170	keystroke_l	l	n/a
234.181	0.124	468362	keystroke_t	t	n/a
234.3165	0.056	468633	keystroke_i	i	n/a
234.3275	0.101	468655	keystroke_m	m	n/a
234.406	0.0795	468812	keystroke_e	e	n/a
234.4735	0.1125	468947	keystroke_Key.space	Key.space	n/a
234.6425	0.034	469285	keystroke_e	e	n/a
234.8115	0.101	469623	keystroke_x	x	n/a
235.036	0.045	470072	keystroke_e	e	n/a
235.948	0.067	471896	keystroke_Key.backspace	Key.backspace	n/a
235.9815	0.146	471963	keystroke_c	c	n/a
236.2175	0.0565	472435	keystroke_e	e	n/a
236.2855	0.0895	472571	keystroke_p	p	n/a
236.4655	0.0335	472931	keystroke_t	t	n/a
236.555	0.1015	473110	keystroke_i	i	n/a
236.5665	0.0785	473133	keystroke_o	o	n/a
236.634	0.101	473268	keystroke_n	n	n/a
236.7915	0.0675	473583	keystroke_Key.enter	Key.enter	n/a
236.8635	5.666	473727	prompt	n/a	ellen runtime thermal lesbians\n
237.95	0.09	475900	keystroke_e	e	n/a
238.0515	0.0785	476103	keystroke_l	l	n/a
238.2095	0.123	476419	keystroke_l	l	n/a
238.3665	0.056	476733	keystroke_e	e	n/a
238.456	0.1125	476912	keystroke_n	n	n/a
238.569	0.123	477138	keystroke_Key.space	Key.space	n/a
238.771	0.124	477542	keystroke_r	r	n/a
239.1085	0.09	478217	keystroke_u	u	n/a
239.2885	0.1015	478577	keystroke_n	n	n/a
239.5025	0.0335	479005	keystroke_t	t	n/a
239.547	0.079	479094	keystroke_i	i	n/a
239.57	0.1125	479140	keystroke_m	m	n/a
239.705	0.0785	479410	keystroke_e	e	n/a
239.8285	0.1015	479657	keystroke_Key.space	Key.space	n/a
240.1885	0.0565	480377	keystroke_t	t	n/a
240.2335	0.102	480467	keystroke_h	h	n/a
240.357	0.1015	480714	keystroke_e	e	n/a
240.4135	0.1245	480827	keystroke_r	r	n/a
240.526	0.1575	481052	keystroke_m	m	n/a
240.695	0.0785	481390	keystroke_a	a	n/a
240.8075	0.1235	481615	keystroke_l	l	n/a
240.886	0.1355	481772	keystroke_Key.space	Key.space	n/a
241.156	0.1015	482312	keystroke_l	l	n/a
241.246	0.0675	482492	keystroke_e	e	n/a
241.37	0.1575	482740	keystroke_s	s	n/a
241.6285	0.1015	483257	keystroke_b	b	n/a
241.719	0.0895	483438	keystroke_i	i	n/a
241.8425	0.079	483685	keystroke_a	a	n/a
241.9325	0.101	483865	keystroke_n	n	n/a
242.112	0.0905	484224	keystroke_s	s	n/a
242.461	0.0675	484922	keystroke_Key.enter	Key.enter	n/a
242.534	6.8355	485068	prompt	n/a	broke impressive marion footwear\n
243.226	0.09	486452	keystroke_b	b	n/a
243.4735	0.0675	486947	keystroke_r	r	n/a
243.53	0.101	487060	keystroke_o	o	n/a
243.6205	0.09	487241	keystroke_k	k	n/a
243.6985	0.09	487397	keystroke_e	e	n/a
243.8225	0.1345	487645	keystroke_Key.space	Key.space	n/a
244.0365	0.1015	488073	keystroke_i	i	n/a
244.126	0.102	488252	keystroke_m	m	n/a
244.183	0.123	488366	keystroke_p	p	n/a
244.34	0.1125	488680	keystroke_r	r	n/a
244.4635	0.124	488927	keystroke_e	e	n/a
244.677	0.09	489354	keystroke_s	s	n/a
244.846	0.146	489692	keystroke_s	s	n/a
245.0485	0.1125	490097	keystroke_i	i	n/a
245.15	0.056	490300	keystroke_v	v	n/a
245.1725	0.09	490345	keystroke_e	e	n/a
245.2735	0.101	490547	keystroke_Key.space	Key.space	n/a
245.465	0.1125	490930	keystroke_m	m	n/a
245.645	0.101	491290	keystroke_a	a	n/a
245.701	0.1235	491402	keystroke_r	r	n/a
245.836	0.2025	491672	keystroke_i	i	n/a
245.926	0.101	491852	keystroke_o	o	n/a
245.9825	0.157	491965	keystroke_n	n	n/a
246.106	0.1465	492212	keystroke_Key.space	Key.space	n/a
246.838	0.123	493676	keystroke_f	f	n/a
247.5235	0.0675	495047	keystroke_o	o	n/a
247.67	0.101	495340	keystroke_o	o	n/a
247.7835	0.0775	495567	keystroke_t	t	n/a
247.996	0.146	495992	keystroke_w	w	n/a
248.1085	0.1015	496217	keystroke_a	a	n/a
248.1985	0.045	496397	keystroke_e	e	n/a
248.5135	0.0345	497027	keystroke_Key.backspace	Key.backspace	n/a
248.626	0.1015	497252	keystroke_Key.backspace	Key.backspace	n/a
249.0535	0.1355	498107	keystroke_e	e	n/a
249.1325	0.09	498265	keystroke_a	a	n/a
249.177	0.079	498354	keystroke_r	r	n/a
249.302	0.0665	498604	keystroke_Key.enter	Key.enter	n/a
249.3725	7.58	498745	prompt	n/a	tobacco journalism poll planner\n
250.156	0.0675	500312	keystroke_t	t	n/a
250.246	0.1125	500492	keystroke_o	o	n/a
250.3475	0.1235	500695	keystroke_b	b	n/a
250.4595	0.1125	500919	keystroke_a	a	n/a
250.6285	0.1015	501257	keystroke_c	c	n/a
250.7975	0.0785	501595	keystroke_c	c	n/a
250.9325	0.079	501865	keystroke_o	o	n/a
252.1925	0.09	504385	keystroke_Key.space	Key.space	n/a
252.2935	0.101	504587	keystroke_j	j	n/a
252.507	0.124	505014	keystroke_o	o	n/a
252.541	0.101	505082	keystroke_u	u	n/a
252.6535	0.101	505307	keystroke_r	r	n/a
252.766	0.09	505532	keystroke_n	n	n/a
252.912	0.09	505824	keystroke_a	a	n/a
253.081	0.045	506162	keystroke_l	l	n/a
253.992	0.0675	507984	keystroke_i	i	n/a
254.0375	0.079	508075	keystroke_s	s	n/a
254.1495	0.124	508299	keystroke_m	m	n/a
254.2625	0.1015	508525	keystroke_Key.space	Key.space	n/a
254.3745	0.1015	508749	keystroke_p	p	n/a
254.7025	0.089	509405	keystroke_o	o	n/a
255.2745	0.0675	510549	keystroke_l	l	n/a
255.4095	0.1015	510819	keystroke_l	l	n/a
255.522	0.135	511044	keystroke_Key.space	Key.space	n/a
255.927	0.09	511854	keystroke_p	p	n/a
256.052	0.0775	512104	keystroke_l	l	n/a
256.1635	0.0785	512327	keystroke_a	a	n/a
256.276	0.056	512552	keystroke_n	n	n/a
256.3995	0.09	512799	keystroke_n	n	n/a
256.524	0.09	513048	keystroke_e	e	n/a
256.5685	0.0905	513137	keystroke_r	r	n/a
256.8945	0.0565	513789	keystroke_Key.enter	Key.enter	n/a
256.955	4.688	513910	prompt	n/a	repair limitation reform robert\n
258.042	0.124	516084	keystroke_r	r	n/a
258.1325	0.0675	516265	keystroke_e	e	n/a
258.211	0.09	516422	keystroke_p	p	n/a
258.346	0.1125	516692	keystroke_a	a	n/a
258.481	0.101	516962	keystroke_i	i	n/a
258.594	0.0785	517188	keystroke_r	r	n/a
258.706	0.09	517412	keystroke_Key.space	Key.space	n/a
258.9085	0.1355	517817	keystroke_l	l	n/a
259.032	0.0905	518064	keystroke_i	i	n/a
259.1115	0.124	518223	keystroke_m	m	n/a
259.201	0.1125	518402	keystroke_i	i	n/a
259.347	0.0905	518694	keystroke_t	t	n/a
259.4825	0.112	518965	keystroke_a	a	n/a
259.561	0.09	519122	keystroke_t	t	n/a
259.6395	0.1465	519279	keystroke_i	i	n/a
259.6855	0.078	519371	keystroke_o	o	n/a
259.719	0.1345	519438	keystroke_n	n	n/a
259.831	0.0675	519662	keystroke_Key.space	Key.space	n/a
259.9435	0.135	519887	keystroke_r	r	n/a
260.0445	0.091	520089	keystroke_e	e	n/a
260.18	0.101	520360	keystroke_f	f	n/a
260.2925	0.056	520585	keystroke_o	o	n/a
260.3825	0.067	520765	keystroke_r	r	n/a
260.461	0.135	520922	keystroke_m	m	n/a
260.5855	0.1005	521171	keystroke_Key.space	Key.space	n/a
260.742	0.0905	521484	keystroke_r	r	n/a
260.8775	0.0785	521755	keystroke_o	o	n/a
261.046	0.09	522092	keystroke_b	b	n/a
261.271	0.079	522542	keystroke_e	e	n/a
261.316	0.135	522632	keystroke_r	r	n/a
261.4625	0.101	522925	keystroke_t	t	n/a
261.5975	0.0445	523195	keystroke_Key.enter	Key.enter	n/a
261.646	7.737	523292	prompt	n/a	trailers surveys webmasters doom\n
262.351	0.0675	524702	keystroke_t	t	n/a
262.5205	0.123	525041	keystroke_r	r	n/a
262.5985	0.0795	525197	keystroke_a	a	n/a
262.655	0.1235	525310	keystroke_i	i	n/a
262.7	0.1235	525400	keystroke_l	l	n/a
262.857	0.124	525714	keystroke_e	e	n/a
262.9475	0.135	525895	keystroke_r	r	n/a
263.071	0.1575	526142	keystroke_s	s	n/a
263.2395	0.1465	526479	keystroke_Key.space	Key.space	n/a
263.5435	0.09	527087	keystroke_s	s	n/a
263.645	0.112	527290	keystroke_u	u	n/a
263.7235	0.0785	527447	keystroke_r	r	n/a
263.9035	0.0785	527807	keystroke_v	v	n/a
264.0495	0.1125	528099	keystroke_e	e	n/a
264.1285	0.0785	528257	keystroke_r	r	n/a
264.275	0.1125	528550	keystroke_y	y	n/a
264.9385	0.056	529877	keystroke_Key.backspace	Key.backspace	n/a
265.062	0.0565	530124	keystroke_Key.backspace	Key.backspace	n/a
265.231	0.0785	530462	keystroke_y	y	n/a
265.2985	0.0785	530597	keystroke_s	s	n/a
265.422	0.079	530844	keystroke_Key.space	Key.space	n/a
266.007	0.0795	532014	keystroke_e	e	n/a
266.176	0.101	532352	keystroke_b	b	n/a
267.0195	0.0565	534039	keystroke_Key.backspace	Key.backspace	n/a
267.1435	0.1235	534287	keystroke_Key.backspace	Key.backspace	n/a
267.256	0.1125	534512	keystroke_w	w	n/a
267.2785	0.101	534557	keystroke_e	e	n/a
267.459	0.1005	534918	keystroke_b	b	n/a
267.672	0.079	535344	keystroke_m	m	n/a
267.762	0.0905	535524	keystroke_a	a	n/a
267.8295	0.1695	535659	keystroke_s	s	n/a
267.9875	0.0445	535975	keystroke_t	t	n/a
268.134	0.135	536268	keystroke_e	e	n/a
268.212	0.1125	536424	keystroke_r	r	n/a
268.2915	0.113	536583	keystroke_s	s	n/a
268.4265	0.078	536853	keystroke_Key.space	Key.space	n/a
268.831	0.079	537662	keystroke_d	d	n/a
268.932	0.0565	537864	keystroke_o	o	n/a
269.067	0.1025	538134	keystroke_o	o	n/a
269.1355	0.1005	538271	keystroke_m	m	n/a
269.326	0.056	538652	keystroke_Key.enter	Key.enter	n/a
269.386	4.9695	538772	prompt	n/a	molecules quick improved arabia\n
270.012	0.0905	540024	keystroke_m	m	n/a
270.0695	0.0675	540139	keystroke_o	o	n/a
270.2595	0.1125	540519	keystroke_l	l	n/a
270.384	0.0225	540768	keystroke_e	e	n/a
270.552	0.0675	541104	keystroke_c	c	n/a
270.6315	0.123	541263	keystroke_u	u	n/a
270.7095	0.0675	541419	keystroke_l	l	n/a
270.822	0.2025	541644	keystroke_e	e	n/a
270.957	0.1245	541914	keystroke_s	s	n/a
271.104	0.1005	542208	keystroke_Key.space	Key.space	n/a
271.374	0.078	542748	keystroke_q	q	n/a
271.419	0.112	542838	keystroke_u	u	n/a
271.464	0.1005	542928	keystroke_i	i	n/a
271.5985	0.0785	543197	keystroke_c	c	n/a
271.689	0.135	543378	keystroke_k	k	n/a
271.7895	0.09	543579	keystroke_Key.space	Key.space	n/a
272.2175	0.146	544435	keystroke_i	i	n/a
272.3295	0.1015	544659	keystroke_m	m	n/a
272.386	0.146	544772	keystroke_p	p	n/a
272.701	0.0675	545402	keystroke_r	r	n/a
272.825	0.0785	545650	keystroke_o	o	n/a
272.9485	0.101	545897	keystroke_v	v	n/a
273.0385	0.09	546077	keystroke_e	e	n/a
273.253	0.067	546506	keystroke_d	d	n/a
273.3535	0.101	546707	keystroke_Key.space	Key.space	n/a
273.511	0.135	547022	keystroke_a	a	n/a
273.6125	0.101	547225	keystroke_r	r	n/a
273.7475	0.0895	547495	keystroke_a	a	n/a
273.8935	0.09	547787	keystroke_b	b	n/a
274.017	0.1125	548034	keystroke_i	i	n/a
274.1195	0.089	548239	keystroke_a	a	n/a
274.276	0.0785	548552	keystroke_Key.enter	Key.enter	n/a
274.359	7.0615	548718	prompt	n/a	dictionary opposite transportation sole\n
274.9285	0.09	549857	keystroke_d	d	n/a
275.0975	0.0905	550195	keystroke_i	i	n/a
275.176	0.1015	550352	keystroke_c	c	n/a
275.367	0.069	550734	keystroke_t	t	n/a
275.4235	0.1575	550847	keystroke_i	i	n/a
275.5135	0.0225	551027	keystroke_o	o	n/a
275.525	0.1125	551050	keystroke_n	n	n/a
275.5925	0.1235	551185	keystroke_a	a	n/a
275.7495	0.0565	551499	keystroke_r	r	n/a
275.84	0.146	551680	keystroke_y	y	n/a
275.997	0.079	551994	keystroke_Key.space	Key.space	n/a
276.7735	0.09	553547	keystroke_o	o	n/a
276.8975	0.0785	553795	keystroke_p	p	n/a
277.0885	0.057	554177	keystroke_p	p	n/a
277.5385	0.1125	555077	keystroke_o	o	n/a
277.6625	0.0785	555325	keystroke_s	s	n/a
277.82	0.0895	555640	keystroke_i	i	n/a
277.921	0.101	555842	keystroke_t	t	n/a
278.045	0.0895	556090	keystroke_e	e	n/a
278.202	0.1015	556404	keystroke_Key.space	Key.space	n/a
278.326	0.101	556652	keystroke_t	t	n/a
278.4945	0.135	556989	keystroke_r	r	n/a
278.6195	0.089	557239	keystroke_a	a	n/a
278.776	0.09	557552	keystroke_n	n	n/a
278.8775	0.09	557755	keystroke_s	s	n/a
279.0355	0.0895	558071	keystroke_p	p	n/a
279.7435	0.1015	559487	keystroke_o	o	n/a
279.8335	0.09	559667	keystroke_r	r	n/a
280.0025	0.0785	560005	keystroke_t	t	n/a
280.0925	0.101	560185	keystroke_a	a	n/a
280.183	0.1005	560366	keystroke_t	t	n/a
280.295	0.124	560590	keystroke_i	i	n/a
280.3285	0.079	560657	keystroke_o	o	n/a
280.396	0.101	560792	keystroke_n	n	n/a
280.4745	0.09	560949	keystroke_Key.space	Key.space	n/a
280.936	0.0675	561872	keystroke_s	s	n/a
281.0145	0.0905	562029	keystroke_o	o	n/a
281.161	0.0675	562322	keystroke_l	l	n/a
281.217	0.0795	562434	keystroke_e	e	n/a
281.3525	0.067	562705	keystroke_Key.enter	Key.enter	n/a
281.424	4.9915	562848	prompt	n/a	mali glasgow reef destiny\n
282.1865	0.1105	564373	keystroke_m	m	n/a
282.4095	0.09	564819	keystroke_a	a	n/a
282.5115	0.1125	565023	keystroke_i	i	n/a
282.5445	0.0675	565089	keystroke_l	l	n/a
282.6345	0.1125	565269	keystroke_Key.space	Key.space	n/a
282.905	0.112	565810	keystroke_g	g	n/a
283.0285	0.0905	566057	keystroke_l	l	n/a
283.119	0.068	566238	keystroke_a	a	n/a
283.175	0.124	566350	keystroke_s	s	n/a
283.5025	0.0435	567005	keystroke_g	g	n/a
283.929	0.0675	567858	keystroke_o	o	n/a
284.019	0.0675	568038	keystroke_w	w	n/a
284.097	0.102	568194	keystroke_Key.space	Key.space	n/a
284.267	0.1	568534	keystroke_r	r	n/a
284.356	0.101	568712	keystroke_e	e	n/a
284.547	0.09	569094	keystroke_e	e	n/a
284.7495	0.09	569499	keystroke_f	f	n/a
284.8845	0.1015	569769	keystroke_Key.space	Key.space	n/a
285.099	0.0675	570198	keystroke_d	d	n/a
285.267	0.1125	570534	keystroke_e	e	n/a
285.3915	0.1125	570783	keystroke_s	s	n/a
285.4815	0.056	570963	keystroke_t	t	n/a
285.5265	0.112	571053	keystroke_i	i	n/a
285.582	0.135	571164	keystroke_n	n	n/a
286.0775	0.1235	572155	keystroke_y	y	n/a
286.325	0.0895	572650	keystroke_Key.enter	Key.enter	n/a
286.419	6.8375	572838	prompt	n/a	chess to punishment behavioral\n
287.349	0.0105	574698	keystroke_c	c	n/a
287.416	0.09	574832	keystroke_h	h	n/a
287.4945	0.0675	574989	keystroke_e	e	n/a
287.641	0.101	575282	keystroke_s	s	n/a
287.8095	0.1015	575619	keystroke_s	s	n/a
287.8995	0.1015	575799	keystroke_Key.space	Key.space	n/a
288.035	0.101	576070	keystroke_t	t	n/a
288.1245	0.045	576249	keystroke_o	o	n/a
288.181	0.09	576362	keystroke_Key.space	Key.space	n/a
288.361	0.0335	576722	keystroke_m	m	n/a
288.732	0.079	577464	keystroke_Key.backspace	Key.backspace	n/a
288.9345	0.0905	577869	keystroke_[	[	n/a
288.946	0.0565	577892	keystroke_p	p	n/a
288.9795	0.09	577959	keystroke_u	u	n/a
289.5315	0.0555	579063	keystroke_Key.backspace	Key.backspace	n/a
289.6775	0.0565	579355	keystroke_Key.backspace	Key.backspace	n/a
289.812	0.0795	579624	keystroke_Key.backspace	Key.backspace	n/a
290.0935	0.101	580187	keystroke_p	p	n/a
290.1835	0.0335	580367	keystroke_u	u	n/a
290.431	0.0675	580862	keystroke_n	n	n/a
291.0385	0.09	582077	keystroke_i	i	n/a
291.117	0.0565	582234	keystroke_s	s	n/a
291.162	0.0675	582324	keystroke_h	h	n/a
291.376	0.056	582752	keystroke_m	m	n/a
291.4435	0.101	582887	keystroke_e	e	n/a
291.5335	0.101	583067	keystroke_n	n	n/a
291.646	0.0675	583292	keystroke_t	t	n/a
291.748	0.1005	583496	keystroke_Key.space	Key.space	n/a
291.961	0.0785	583922	keystroke_b	b	n/a
292.096	0.079	584192	keystroke_e	e	n/a
292.2085	0.079	584417	keystroke_h	h	n/a
292.31	0.135	584620	keystroke_a	a	n/a
292.3775	0.1235	584755	keystroke_v	v	n/a
292.5125	0.0785	585025	keystroke_i	i	n/a
292.546	0.0335	585092	keystroke_o	o	n/a
292.647	0.0565	585294	keystroke_r	r	n/a
292.76	0.0895	585520	keystroke_a	a	n/a
292.861	0.1015	585722	keystroke_l	l	n/a
293.176	0.0795	586352	keystroke_Key.enter	Key.enter	n/a
293.259	6.2175	586518	prompt	n/a	south wallet relationship safely\n
294.0085	0.09	588017	keystroke_s	s	n/a
294.1325	0.0785	588265	keystroke_o	o	n/a
294.155	0.1015	588310	keystroke_u	u	n/a
294.2335	0.0675	588467	keystroke_t	t	n/a
294.3235	0.124	588647	keystroke_h	h	n/a
294.436	0.09	588872	keystroke_Key.space	Key.space	n/a
294.605	0.191	589210	keystroke_w	w	n/a
294.7285	0.1015	589457	keystroke_a	a	n/a
294.8865	0.0335	589773	keystroke_l	l	n/a
294.9985	0.1015	589997	keystroke_l	l	n/a
295.0885	0.146	590177	keystroke_e	e	n/a
295.201	0.09	590402	keystroke_t	t	n/a
295.3025	0.09	590605	keystroke_Key.space	Key.space	n/a
295.4935	0.124	590987	keystroke_r	r	n/a
295.5835	0.124	591167	keystroke_e	e	n/a
295.6625	0.09	591325	keystroke_a	a	n/a
295.719	0.0895	591438	keystroke_l	l	n/a
296.416	0.0335	592832	keystroke_Key.backspace	Key.backspace	n/a
296.506	0.056	593012	keystroke_Key.backspace	Key.backspace	n/a
296.7085	0.0675	593417	keystroke_l	l	n/a
296.72	0.1235	593440	keystroke_a	a	n/a
296.855	0.101	593710	keystroke_t	t	n/a
296.967	0.1575	593934	keystroke_i	i	n/a
297.0235	0.09	594047	keystroke_o	o	n/a
297.0795	0.1015	594159	keystroke_n	n	n/a
297.462	0.0795	594924	keystroke_s	s	n/a
297.4735	0.146	594947	keystroke_h	h	n/a
297.53	0.101	595060	keystroke_i	i	n/a
297.6085	0.0785	595217	keystroke_p	p	n/a
297.721	0.101	595442	keystroke_Key.space	Key.space	n/a
297.8895	0.124	595779	keystroke_s	s	n/a
298.115	0.0895	596230	keystroke_e	e	n/a
298.5195	0.0795	597039	keystroke_Key.backspace	Key.backspace	n/a
298.587	0.124	597174	keystroke_a	a	n/a
298.655	0.124	597310	keystroke_f	f	n/a
298.6995	0.09	597399	keystroke_e	e	n/a
299.15	0.067	598300	keystroke_l	l	n/a
299.184	0.09	598368	keystroke_y	y	n/a
299.4195	0.0565	598839	keystroke_Key.enter	Key.enter	n/a
299.4795	4.0695	598959	prompt	n/a	observer pike attempt leslie\n
300.1395	0.08	600279	keystroke_o	o	n/a
300.207	0.124	600414	keystroke_b	b	n/a
300.3645	0.1245	600729	keystroke_s	s	n/a
300.477	0.1125	600954	keystroke_e	e	n/a
300.5335	0.0785	601067	keystroke_r	r	n/a
300.7365	0.078	601473	keystroke_v	v	n/a
300.927	0.1015	601854	keystroke_e	e	n/a
300.9835	0.09	601967	keystroke_r	r	n/a
301.062	0.091	602124	keystroke_Key.space	Key.space	n/a
301.1745	0.1015	602349	keystroke_p	p	n/a
301.2645	0.0905	602529	keystroke_i	i	n/a
301.4895	0.0675	602979	keystroke_k	k	n/a
301.5685	0.056	603137	keystroke_e	e	n/a
301.647	0.103	603294	keystroke_Key.space	Key.space	n/a
301.7495	0.157	603499	keystroke_a	a	n/a
301.861	0.056	603722	keystroke_t	t	n/a
301.9965	0.1125	603993	keystroke_t	t	n/a
302.1645	0.0905	604329	keystroke_e	e	n/a
302.2995	0.1245	604599	keystroke_m	m	n/a
302.3445	0.09	604689	keystroke_p	p	n/a
302.457	0.0795	604914	keystroke_t	t	n/a
302.6145	0.09	605229	keystroke_Key.space	Key.space	n/a
302.817	0.079	605634	keystroke_l	l	n/a
302.896	0.0905	605792	keystroke_e	e	n/a
303.042	0.1125	606084	keystroke_s	s	n/a
303.1665	0.123	606333	keystroke_l	l	n/a
303.2225	0.1015	606445	keystroke_i	i	n/a
303.324	0.0895	606648	keystroke_e	e	n/a
303.4695	0.079	606939	keystroke_Key.enter	Key.enter	n/a
303.552	6.3315	607104	prompt	n/a	adapter conference reviewing orientation\n
304.3245	0.1355	608649	keystroke_a	a	n/a
304.46	0.1345	608920	keystroke_d	d	n/a
304.606	0.0785	609212	keystroke_a	a	n/a
304.696	0.0785	609392	keystroke_p	p	n/a
304.8195	0.079	609639	keystroke_t	t	n/a
304.955	0.1235	609910	keystroke_e	e	n/a
305.056	0.0675	610112	keystroke_r	r	n/a
305.157	0.113	610314	keystroke_Key.space	Key.space	n/a
305.36	0.067	610720	keystroke_c	c	n/a
305.461	0.0785	610922	keystroke_o	o	n/a
305.4945	0.124	610989	keystroke_n	n	n/a
305.6295	0.1125	611259	keystroke_f	f	n/a
305.821	0.09	611642	keystroke_e	e	n/a
305.9	0.1235	611800	keystroke_r	r	n/a
306.0235	0.0675	612047	keystroke_e	e	n/a
306.238	0.1005	612476	keystroke_n	n	n/a
306.451	0.0355	612902	keystroke_c	c	n/a
306.631	0.0565	613262	keystroke_e	e	n/a
306.7215	0.1005	613443	keystroke_Key.space	Key.space	n/a
306.8895	0.1355	613779	keystroke_r	r	n/a
307.0135	0.101	614027	keystroke_e	e	n/a
307.2495	0.09	614499	keystroke_v	v	n/a
307.3735	0.1235	614747	keystroke_i	i	n/a
307.5085	0.09	615017	keystroke_e	e	n/a
307.587	0.1125	615174	keystroke_w	w	n/a
307.8795	0.124	615759	keystroke_i	i	n/a
307.9695	0.1125	615939	keystroke_n	n	n/a
308.116	0.056	616232	keystroke_g	g	n/a
308.2395	0.1015	616479	keystroke_Key.space	Key.space	n/a
308.397	0.079	616794	keystroke_o	o	n/a
308.487	0.0905	616974	keystroke_r	r	n/a
308.8815	0.09	617763	keystroke_i	i	n/a
308.9935	0.0785	617987	keystroke_e	e	n/a
309.117	0.103	618234	keystroke_n	n	n/a
309.2415	0.078	618483	keystroke_t	t	n/a
309.387	0.1125	618774	keystroke_a	a	n/a
309.4665	0.09	618933	keystroke_t	t	n/a
309.5785	0.124	619157	keystroke_i	i	n/a
309.6245	0.067	619249	keystroke_o	o	n/a
309.657	0.1125	619314	keystroke_n	n	n/a
309.8145	0.0675	619629	keystroke_Key.enter	Key.enter	n/a
309.887	6.2515	619774	prompt	n/a	browsers sand chaos uzbekistan\n
310.737	0.09	621474	keystroke_b	b	n/a
311.007	0.09	622014	keystroke_r	r	n/a
311.2545	0.09	622509	keystroke_o	o	n/a
311.357	0.1225	622714	keystroke_w	w	n/a
311.7945	0.1015	623589	keystroke_s	s	n/a
312.031	0.1125	624062	keystroke_e	e	n/a
312.1095	0.1125	624219	keystroke_r	r	n/a
312.3235	0.101	624647	keystroke_s	s	n/a
312.5145	0.0565	625029	keystroke_Key.space	Key.space	n/a
312.605	0.123	625210	keystroke_s	s	n/a
312.841	0.034	625682	keystroke_a	a	n/a
312.931	0.09	625862	keystroke_n	n	n/a
313.0325	0.067	626065	keystroke_d	d	n/a
313.122	0.101	626244	keystroke_Key.space	Key.space	n/a
313.2685	0.1015	626537	keystroke_c	c	n/a
313.381	0.1015	626762	keystroke_h	h	n/a
313.471	0.0895	626942	keystroke_a	a	n/a
313.595	0.056	627190	keystroke_o	o	n/a
313.73	0.067	627460	keystroke_s	s	n/a
313.786	0.1575	627572	keystroke_Key.space	Key.space	n/a
314.0785	0.112	628157	keystroke_u	u	n/a
314.3255	0.0795	628651	keystroke_z	z	n/a
314.5735	0.1125	629147	keystroke_b	b	n/a
314.967	0.09	629934	keystroke_e	e	n/a
315.17	0.0905	630340	keystroke_k	k	n/a
315.395	0.09	630790	keystroke_i	i	n/a
315.4735	0.124	630947	keystroke_s	s	n/a
315.586	0.1125	631172	keystroke_t	t	n/a
315.7095	0.079	631419	keystroke_a	a	n/a
315.856	0.135	631712	keystroke_n	n	n/a
316.1035	0.034	632207	keystroke_Key.enter	Key.enter	n/a
316.141	6.3535	632282	prompt	n/a	schools dispatch blond complicated\n
316.7335	0.09	633467	keystroke_s	s	n/a
316.9365	0.067	633873	keystroke_c	c	n/a
317.0145	0.0905	634029	keystroke_h	h	n/a
317.195	0.09	634390	keystroke_o	o	n/a
317.3635	0.067	634727	keystroke_o	o	n/a
317.5435	0.0785	635087	keystroke_l	l	n/a
317.667	0.1015	635334	keystroke_s	s	n/a
317.993	0.0675	635986	keystroke_Key.space	Key.space	n/a
318.758	0.1125	637516	keystroke_d	d	n/a
318.882	0.113	637764	keystroke_i	i	n/a
318.9835	0.0675	637967	keystroke_s	s	n/a
319.073	0.09	638146	keystroke_p	p	n/a
319.208	0.0795	638416	keystroke_a	a	n/a
319.5235	0.079	639047	keystroke_t	t	n/a
319.771	0.0675	639542	keystroke_c	c	n/a
319.8605	0.09	639721	keystroke_h	h	n/a
319.9175	0.1005	639835	keystroke_Key.space	Key.space	n/a
320.3225	0.123	640645	keystroke_b	b	n/a
320.457	0.0115	640914	keystroke_l	l	n/a
320.6255	0.09	641251	keystroke_o	o	n/a
320.7045	0.0675	641409	keystroke_n	n	n/a
320.772	0.0785	641544	keystroke_d	d	n/a
320.8955	0.1015	641791	keystroke_Key.space	Key.space	n/a
321.1095	0.1015	642219	keystroke_c	c	n/a
321.1885	0.101	642377	keystroke_o	o	n/a
321.2335	0.1235	642467	keystroke_m	m	n/a
321.324	0.1005	642648	keystroke_p	p	n/a
321.537	0.0675	643074	keystroke_l	l	n/a
321.5595	0.1125	643119	keystroke_i	i	n/a
321.627	0.1025	643254	keystroke_c	c	n/a
321.8525	0.101	643705	keystroke_a	a	n/a
321.942	0.102	643884	keystroke_t	t	n/a
322.032	0.045	644064	keystroke_e	e	n/a
322.156	0.0785	644312	keystroke_d	d	n/a
322.4375	0.056	644875	keystroke_Key.enter	Key.enter	n/a
322.499	6.172	644998	prompt	n/a	exercises appears pace manufacture\n
323.1345	0.0565	646269	keystroke_e	e	n/a
323.3145	0.135	646629	keystroke_x	x	n/a
323.5395	0.1125	647079	keystroke_e	e	n/a
323.6635	0.0895	647327	keystroke_r	r	n/a
323.9445	0.09	647889	keystroke_c	c	n/a
324.1365	0.0895	648273	keystroke_i	i	n/a
324.2035	0.146	648407	keystroke_s	s	n/a
324.327	0.1015	648654	keystroke_e	e	n/a
324.462	0.1015	648924	keystroke_s	s	n/a
324.6195	0.101	649239	keystroke_Key.space	Key.space	n/a
324.9795	0.1125	649959	keystroke_a	a	n/a
325.1035	0.0785	650207	keystroke_p	p	n/a
325.2165	0.078	650433	keystroke_p	p	n/a
325.3055	0.1355	650611	keystroke_e	e	n/a
325.407	0.2025	650814	keystroke_a	a	n/a
325.677	0.1125	651354	keystroke_r	r	n/a
325.9705	0.089	651941	keystroke_s	s	n/a
326.307	0.09	652614	keystroke_Key.space	Key.space	n/a
326.4985	0.09	652997	keystroke_p	p	n/a
326.5995	0.09	653199	keystroke_a	a	n/a
326.768	0.0685	653536	keystroke_c	c	n/a
326.982	0.0565	653964	keystroke_e	e	n/a
327.0605	0.158	654121	keystroke_Key.space	Key.space	n/a
327.207	0.0795	654414	keystroke_m	m	n/a
327.2745	0.079	654549	keystroke_a	a	n/a
327.3645	0.09	654729	keystroke_n	n	n/a
327.5105	0.1015	655021	keystroke_u	u	n/a
327.6455	0.0905	655291	keystroke_f	f	n/a
327.736	0.0895	655472	keystroke_a	a	n/a
327.9045	0.101	655809	keystroke_c	c	n/a
328.0845	0.09	656169	keystroke_t	t	n/a
328.287	0.0785	656574	keystroke_u	u	n/a
328.343	0.1125	656686	keystroke_r	r	n/a
328.4105	0.079	656821	keystroke_e	e	n/a
328.602	0.068	657204	keystroke_Key.enter	Key.enter	n/a
328.674	5.3745	657348	prompt	n/a	securities usda fossil plot\n
329.356	0.0895	658712	keystroke_s	s	n/a
329.4795	0.0785	658959	keystroke_e	e	n/a
329.705	0.0555	659410	keystroke_c	c	n/a
329.828	0.113	659656	keystroke_u	u	n/a
329.986	0.0895	659972	keystroke_r	r	n/a
330.1435	0.0895	660287	keystroke_i	i	n/a
330.29	0.0555	660580	keystroke_t	t	n/a
330.3905	0.102	660781	keystroke_i	i	n/a
330.5255	0.102	661051	keystroke_e	e	n/a
330.695	0.0555	661390	keystroke_s	s	n/a
330.83	0.112	661660	keystroke_Key.space	Key.space	n/a
331.358	0.068	662716	keystroke_u	u	n/a
331.4705	0.135	662941	keystroke_s	s	n/a
331.808	0.0565	663616	keystroke_d	d	n/a
331.8755	0.09	663751	keystroke_a	a	n/a
332.033	0.09	664066	keystroke_Key.space	Key.space	n/a
332.225	0.0895	664450	keystroke_f	f	n/a
332.348	0.0575	664696	keystroke_o	o	n/a
332.5055	0.102	665011	keystroke_s	s	n/a
332.731	0.0895	665462	keystroke_s	s	n/a
332.8325	0.045	665665	keystroke_i	i	n/a
332.855	0.1005	665710	keystroke_l	l	n/a
333.0685	0.1015	666137	keystroke_Key.space	Key.space	n/a
333.485	0.0675	666970	keystroke_p	p	n/a
333.608	0.0675	667216	keystroke_l	l	n/a
333.788	0.1125	667576	keystroke_o	o	n/a
333.845	0.09	667690	keystroke_t	t	n/a
333.9905	0.057	667981	keystroke_Key.enter	Key.enter	n/a
334.051	5.3635	668102	prompt	n/a	explains decision hindu junction\n
334.6995	0.056	669399	keystroke_e	e	n/a
334.8795	0.079	669759	keystroke_x	x	n/a
334.947	0.0785	669894	keystroke_p	p	n/a
335.1045	0.0675	670209	keystroke_l	l	n/a
335.2395	0.09	670479	keystroke_a	a	n/a
335.375	0.112	670750	keystroke_i	i	n/a
335.442	0.1125	670884	keystroke_n	n	n/a
335.5655	0.0905	671131	keystroke_s	s	n/a
335.712	0.101	671424	keystroke_Key.space	Key.space	n/a
335.903	0.09	671806	keystroke_d	d	n/a
336.106	0.0445	672212	keystroke_e	e	n/a
336.2975	0.0555	672595	keystroke_c	c	n/a
336.398	0.0795	672796	keystroke_i	i	n/a
336.533	0.0795	673066	keystroke_s	s	n/a
336.668	0.1465	673336	keystroke_i	i	n/a
336.7805	0.045	673561	keystroke_o	o	n/a
336.803	0.124	673606	keystroke_n	n	n/a
337.0055	0.09	674011	keystroke_Key.space	Key.space	n/a
337.253	0.09	674506	keystroke_h	h	n/a
337.4	0.101	674800	keystroke_i	i	n/a
337.467	0.101	674934	keystroke_n	n	n/a
337.6925	0.078	675385	keystroke_d	d	n/a
337.793	0.102	675586	keystroke_u	u	n/a
337.9055	0.1245	675811	keystroke_Key.space	Key.space	n/a
338.198	0.0565	676396	keystroke_j	j	n/a
338.3555	0.068	676711	keystroke_u	u	n/a
338.513	0.079	677026	keystroke_n	n	n/a
338.682	0.0785	677364	keystroke_c	c	n/a
338.8395	0.0785	677679	keystroke_t	t	n/a
338.9635	0.146	677927	keystroke_i	i	n/a
339.02	0.1005	678040	keystroke_o	o	n/a
339.0755	0.1125	678151	keystroke_n	n	n/a
339.2895	0.1235	678579	keystroke_Key.enter	Key.enter	n/a
339.4175	4.1365	678835	prompt	n/a	buck drive syndication lights\n
340.167	0.09	680334	keystroke_b	b	n/a
340.257	0.045	680514	keystroke_u	u	n/a
340.3585	0.056	680717	keystroke_c	c	n/a
340.437	0.1235	680874	keystroke_k	k	n/a
340.527	0.0675	681054	keystroke_Key.space	Key.space	n/a
340.7295	0.135	681459	keystroke_d	d	n/a
340.9885	0.123	681977	keystroke_r	r	n/a
341.123	0.09	682246	keystroke_i	i	n/a
341.224	0.1015	682448	keystroke_v	v	n/a
341.3145	0.0785	682629	keystroke_e	e	n/a
341.4045	0.101	682809	keystroke_Key.space	Key.space	n/a
341.551	0.0895	683102	keystroke_s	s	n/a
341.6515	0.079	683303	keystroke_y	y	n/a
341.8545	0.0785	683709	keystroke_n	n	n/a
341.9445	0.0675	683889	keystroke_d	d	n/a
342.0455	0.0795	684091	keystroke_i	i	n/a
342.17	0.078	684340	keystroke_c	c	n/a
342.3605	0.1015	684721	keystroke_a	a	n/a
342.4505	0.0675	684901	keystroke_t	t	n/a
342.53	0.1345	685060	keystroke_i	i	n/a
342.5865	0.067	685173	keystroke_o	o	n/a
342.642	0.1235	685284	keystroke_n	n	n/a
342.732	0.101	685464	keystroke_Key.space	Key.space	n/a
342.8445	0.0905	685689	keystroke_l	l	n/a
342.923	0.09	685846	keystroke_i	i	n/a
343.0245	0.0785	686049	keystroke_g	g	n/a
343.1705	0.1015	686341	keystroke_h	h	n/a
343.2605	0.1125	686521	keystroke_t	t	n/a
343.3625	0.0905	686725	keystroke_s	s	n/a
343.463	0.09	686926	keystroke_Key.enter	Key.enter	n/a
343.5565	5.4535	687113	prompt	n/a	incurred bargains gourmet robin\n
344.183	0.135	688366	keystroke_i	i	n/a
344.2505	0.079	688501	keystroke_n	n	n/a
344.397	0.0335	688794	keystroke_c	c	n/a
344.532	0.0785	689064	keystroke_u	u	n/a
344.622	0.0675	689244	keystroke_r	r	n/a
344.7795	0.0785	689559	keystroke_r	r	n/a
344.9595	0.0565	689919	keystroke_e	e	n/a
345.128	0.0675	690256	keystroke_d	d	n/a
345.1845	0.1235	690369	keystroke_Key.space	Key.space	n/a
345.3415	0.079	690683	keystroke_b	b	n/a
345.4545	0.1575	690909	keystroke_a	a	n/a
345.612	0.045	691224	keystroke_r	r	n/a
345.7695	0.146	691539	keystroke_g	g	n/a
345.9045	0.0785	691809	keystroke_a	a	n/a
346.017	0.101	692034	keystroke_i	i	n/a
346.062	0.1125	692124	keystroke_n	n	n/a
346.2195	0.056	692439	keystroke_s	s	n/a
346.3095	0.101	692619	keystroke_Key.space	Key.space	n/a
346.5455	0.091	693091	keystroke_g	g	n/a
346.7485	0.112	693497	keystroke_o	o	n/a
346.7715	0.1455	693543	keystroke_u	u	n/a
346.9285	0.0785	693857	keystroke_r	r	n/a
347.018	0.079	694036	keystroke_m	m	n/a
347.142	0.1015	694284	keystroke_e	e	n/a
347.3335	0.1455	694667	keystroke_t	t	n/a
347.5585	0.09	695117	keystroke_Key.space	Key.space	n/a
348.0195	0.079	696039	keystroke_r	r	n/a
348.1315	0.079	696263	keystroke_o	o	n/a
348.2895	0.0675	696579	keystroke_b	b	n/a
348.4805	0.1015	696961	keystroke_i	i	n/a
348.6605	0.09	697321	keystroke_n	n	n/a
348.9305	0.0785	697861	keystroke_Key.enter	Key.enter	n/a
349.0135	5.9815	698027	prompt	n/a	functionality excitement cape shanghai\n
349.6505	0.0675	699301	keystroke_f	f	n/a
349.7405	0.0675	699481	keystroke_u	u	n/a
349.943	0.09	699886	keystroke_n	n	n/a
350.0445	0.0785	700089	keystroke_c	c	n/a
350.258	0.09	700516	keystroke_t	t	n/a
350.3595	0.1685	700719	keystroke_i	i	n/a
350.4385	0.079	700877	keystroke_o	o	n/a
350.506	0.0895	701012	keystroke_n	n	n/a
350.607	0.068	701214	keystroke_a	a	n/a
350.675	0.0895	701350	keystroke_l	l	n/a
350.7415	0.1015	701483	keystroke_i	i	n/a
350.9105	0.079	701821	keystroke_t	t	n/a
350.99	0.078	701980	keystroke_y	y	n/a
351.057	0.0785	702114	keystroke_Key.space	Key.space	n/a
351.158	0.1125	702316	keystroke_e	e	n/a
351.3605	0.079	702721	keystroke_x	x	n/a
351.7655	0.1125	703531	keystroke_c	c	n/a
352.0355	0.09	704071	keystroke_i	i	n/a
352.137	0.0675	704274	keystroke_t	t	n/a
352.294	0.0675	704588	keystroke_e	e	n/a
352.418	0.102	704836	keystroke_m	m	n/a
352.531	0.067	705062	keystroke_e	e	n/a
352.609	0.1015	705218	keystroke_n	n	n/a
352.7555	0.0785	705511	keystroke_t	t	n/a
352.868	0.1015	705736	keystroke_Key.space	Key.space	n/a
353.1495	0.124	706299	keystroke_c	c	n/a
353.2615	0.09	706523	keystroke_a	a	n/a
353.329	0.0905	706658	keystroke_p	p	n/a
353.5315	0.057	707063	keystroke_e	e	n/a
353.6665	0.0905	707333	keystroke_Key.space	Key.space	n/a
353.904	0.1	707808	keystroke_s	s	n/a
353.9815	0.079	707963	keystroke_h	h	n/a
354.0945	0.0675	708189	keystroke_a	a	n/a
354.1735	0.101	708347	keystroke_n	n	n/a
354.2965	0.0905	708593	keystroke_g	g	n/a
354.499	0.1125	708998	keystroke_h	h	n/a
354.6235	0.078	709247	keystroke_a	a	n/a
354.7695	0.0565	709539	keystroke_i	i	n/a
354.9385	0.0555	709877	keystroke_Key.enter	Key.enter	n/a
354.998	7.884	709996	prompt	n/a	babes involved competing herbal\n
356.052	0.0675	712104	keystroke_b	b	n/a
356.142	0.147	712284	keystroke_a	a	n/a
356.2765	0.09	712553	keystroke_b	b	n/a
356.468	0.0785	712936	keystroke_e	e	n/a
356.637	0.09	713274	keystroke_s	s	n/a
356.772	0.0895	713544	keystroke_Key.space	Key.space	n/a
357.098	0.09	714196	keystroke_i	i	n/a
357.154	0.102	714308	keystroke_n	n	n/a
357.2445	0.101	714489	keystroke_v	v	n/a
357.683	0.0565	715366	keystroke_o	o	n/a
357.8405	0.056	715681	keystroke_l	l	n/a
357.9195	0.0895	715839	keystroke_v	v	n/a
357.998	0.0905	715996	keystroke_e	e	n/a
358.212	0.067	716424	keystroke_d	d	n/a
358.3245	0.101	716649	keystroke_Key.space	Key.space	n/a
358.5605	0.113	717121	keystroke_c	c	n/a
358.617	0.101	717234	keystroke_o	o	n/a
358.6845	0.0785	717369	keystroke_m	m	n/a
358.7295	0.101	717459	keystroke_p	p	n/a
358.8415	0.079	717683	keystroke_e	e	n/a
358.9995	0.09	717999	keystroke_t	t	n/a
359.179	0.091	718358	keystroke_i	i	n/a
359.202	0.124	718404	keystroke_n	n	n/a
359.3255	0.0675	718651	keystroke_g	g	n/a
359.4605	0.09	718921	keystroke_Key.space	Key.space	n/a
359.562	0.09	719124	keystroke_h	h	n/a
359.6405	0.113	719281	keystroke_e	e	n/a
359.708	0.08	719416	keystroke_r	r	n/a
359.922	0.0785	719844	keystroke_v	v	n/a
359.933	0.0345	719866	keystroke_b	b	n/a
360.0005	0.0675	720001	keystroke_a	a	n/a
360.0565	0.068	720113	keystroke_l	l	n/a
361.0355	0.0565	722071	keystroke_Key.backspace	Key.backspace	n/a
361.2155	0.0115	722431	keystroke_Key.backspace	Key.backspace	n/a
361.3615	0.0675	722723	keystroke_Key.backspace	Key.backspace	n/a
361.6765	0.124	723353	keystroke_Key.backspace	Key.backspace	n/a
361.924	0.1015	723848	keystroke_b	b	n/a
362.194	0.0675	724388	keystroke_a	a	n/a
362.2735	0.0675	724547	keystroke_l	l	n/a
362.824	0.057	725648	keystroke_Key.enter	Key.enter	n/a
362.885	10.47	725770	prompt	n/a	auckland recovery traffic represent\n
367.2455	0.09	734491	keystroke_a	a	n/a
367.3475	0.1005	734695	keystroke_u	u	n/a
367.493	0.0675	734986	keystroke_c	c	n/a
367.583	0.079	735166	keystroke_k	k	n/a
367.718	0.079	735436	keystroke_a	a	n/a
367.82	0.067	735640	keystroke_l	l	n/a
368.382	0.0565	736764	keystroke_Key.backspace	Key.backspace	n/a
368.494	0.0795	736988	keystroke_Key.backspace	Key.backspace	n/a
368.708	0.0565	737416	keystroke_l	l	n/a
368.7645	0.09	737529	keystroke_a	a	n/a
368.911	0.1125	737822	keystroke_n	n	n/a
369.0115	0.0795	738023	keystroke_Key.space	Key.space	n/a
369.1915	0.102	738383	keystroke_r	r	n/a
369.259	0.0675	738518	keystroke_e	e	n/a
369.473	0.0905	738946	keystroke_c	c	n/a
369.6875	0.0675	739375	keystroke_o	o	n/a
369.799	0.09	739598	keystroke_v	v	n/a
370.024	0.1015	740048	keystroke_e	e	n/a
370.114	0.057	740228	keystroke_r	r	n/a
370.1815	0.1015	740363	keystroke_y	y	n/a
370.249	0.1125	740498	keystroke_Key.space	Key.space	n/a
370.4185	0.078	740837	keystroke_t	t	n/a
370.621	0.0895	741242	keystroke_r	r	n/a
370.722	0.112	741444	keystroke_a	a	n/a
370.97	0.067	741940	keystroke_f	f	n/a
371.1265	0.0795	742253	keystroke_f	f	n/a
371.2735	0.101	742547	keystroke_i	i	n/a
371.363	0.101	742726	keystroke_c	c	n/a
371.4985	0.1005	742997	keystroke_Key.space	Key.space	n/a
371.8015	0.1245	743603	keystroke_r	r	n/a
371.892	0.0895	743784	keystroke_e	e	n/a
372.0155	0.101	744031	keystroke_p	p	n/a
372.128	0.1235	744256	keystroke_r	r	n/a
372.218	0.1685	744436	keystroke_e	e	n/a
372.3985	0.1125	744797	keystroke_s	s	n/a
372.432	0.112	744864	keystroke_e	e	n/a
372.601	0.1345	745202	keystroke_n	n	n/a
372.7025	0.112	745405	keystroke_t	t	n/a
373.2865	0.0675	746573	keystroke_Key.enter	Key.enter	n/a
373.358	5.5095	746716	prompt	n/a	railway pump from recording\n
374.704	0.045	749408	keystroke_r	r	n/a
375.2785	0.0895	750557	keystroke_a	a	n/a
375.357	0.0895	750714	keystroke_i	i	n/a
375.379	0.0795	750758	keystroke_l	l	n/a
375.537	0.1235	751074	keystroke_w	w	n/a
375.649	0.0905	751298	keystroke_a	a	n/a
375.751	0.1005	751502	keystroke_y	y	n/a
375.818	0.101	751636	keystroke_Key.space	Key.space	n/a
375.931	0.135	751862	keystroke_p	p	n/a
376.054	0.068	752108	keystroke_u	u	n/a
376.234	0.09	752468	keystroke_m	m	n/a
376.358	0.09	752716	keystroke_p	p	n/a
376.5155	0.079	753031	keystroke_Key.space	Key.space	n/a
376.7065	0.0675	753413	keystroke_f	f	n/a
376.898	0.0905	753796	keystroke_r	r	n/a
376.9655	0.1235	753931	keystroke_o	o	n/a
376.9995	0.1685	753999	keystroke_m	m	n/a
377.1005	0.0785	754201	keystroke_Key.space	Key.space	n/a
377.247	0.0785	754494	keystroke_r	r	n/a
377.2805	0.0785	754561	keystroke_e	e	n/a
377.494	0.135	754988	keystroke_c	c	n/a
377.989	0.0455	755978	keystroke_o	o	n/a
378.023	0.1125	756046	keystroke_r	r	n/a
378.124	0.0795	756248	keystroke_d	d	n/a
378.3495	0.0895	756699	keystroke_i	i	n/a
378.3605	0.1235	756721	keystroke_n	n	n/a
378.4505	0.1015	756901	keystroke_g	g	n/a
378.788	0.0785	757576	keystroke_Key.enter	Key.enter	n/a
378.871	6.0375	757742	prompt	n/a	lives held breathing commented\n
379.5865	0.0675	759173	keystroke_l	l	n/a
379.621	0.101	759242	keystroke_i	i	n/a
379.7105	0.135	759421	keystroke_v	v	n/a
379.834	0.1025	759668	keystroke_e	e	n/a
379.924	0.09	759848	keystroke_s	s	n/a
380.026	0.157	760052	keystroke_Key.space	Key.space	n/a
380.149	0.1125	760298	keystroke_h	h	n/a
380.5995	0.034	761199	keystroke_e	e	n/a
380.7115	0.0675	761423	keystroke_l	l	n/a
380.791	0.0795	761582	keystroke_d	d	n/a
380.914	0.1125	761828	keystroke_Key.space	Key.space	n/a
381.241	0.0785	762482	keystroke_b	b	n/a
381.5215	0.1015	763043	keystroke_r	r	n/a
381.6115	0.09	763223	keystroke_e	e	n/a
381.634	0.1575	763268	keystroke_a	a	n/a
381.736	0.0675	763472	keystroke_t	t	n/a
381.9045	0.112	763809	keystroke_h	h	n/a
382.6465	0.1125	765293	keystroke_i	i	n/a
382.658	0.1235	765316	keystroke_n	n	n/a
382.7705	0.09	765541	keystroke_g	g	n/a
382.8715	0.09	765743	keystroke_Key.space	Key.space	n/a
383.0965	0.091	766193	keystroke_c	c	n/a
383.1755	0.0795	766351	keystroke_o	o	n/a
383.2205	0.0675	766441	keystroke_m	m	n/a
383.3555	0.1125	766711	keystroke_m	m	n/a
383.5015	0.079	767003	keystroke_e	e	n/a
383.592	0.101	767184	keystroke_n	n	n/a
383.693	0.1015	767386	keystroke_t	t	n/a
383.783	0.0675	767566	keystroke_e	e	n/a
383.9405	0.09	767881	keystroke_d	d	n/a
384.8405	0.0675	769681	keystroke_Key.enter	Key.enter	n/a
384.9115	5.532	769823	prompt	n/a	died neighbors levels arguments\n
385.5155	0.079	771031	keystroke_d	d	n/a
385.8305	0.09	771661	keystroke_i	i	n/a
385.932	0.0785	771864	keystroke_e	e	n/a
386.1005	0.0785	772201	keystroke_d	d	n/a
386.1905	0.146	772381	keystroke_Key.space	Key.space	n/a
386.348	0.101	772696	keystroke_n	n	n/a
386.438	0.1125	772876	keystroke_e	e	n/a
386.5615	0.09	773123	keystroke_i	i	n/a
386.663	0.101	773326	keystroke_g	g	n/a
386.7755	0.056	773551	keystroke_h	h	n/a
386.9665	0.09	773933	keystroke_b	b	n/a
387.2485	0.0675	774497	keystroke_o	o	n/a
387.428	0.068	774856	keystroke_r	r	n/a
387.631	0.0555	775262	keystroke_s	s	n/a
387.7435	0.045	775487	keystroke_Key.space	Key.space	n/a
387.8445	0.112	775689	keystroke_l	l	n/a
387.968	0.0335	775936	keystroke_e	e	n/a
388.114	0.1125	776228	keystroke_v	v	n/a
388.204	0.079	776408	keystroke_e	e	n/a
388.3285	0.078	776657	keystroke_l	l	n/a
388.441	0.078	776882	keystroke_s	s	n/a
388.564	0.1015	777128	keystroke_Key.space	Key.space	n/a
388.834	0.1125	777668	keystroke_a	a	n/a
388.924	0.09	777848	keystroke_r	r	n/a
389.138	0.101	778276	keystroke_g	g	n/a
389.273	0.09	778546	keystroke_u	u	n/a
389.464	0.0675	778928	keystroke_m	m	n/a
389.599	0.034	779198	keystroke_e	e	n/a
389.644	0.09	779288	keystroke_n	n	n/a
389.7565	0.1135	779513	keystroke_t	t	n/a
389.8475	0.089	779695	keystroke_s	s	n/a
390.3755	0.0675	780751	keystroke_Key.enter	Key.enter	n/a
390.4465	4.6995	780893	prompt	n/a	mason mastercard automation area\n
391.118	0.101	782236	keystroke_m	m	n/a
391.152	0.0895	782304	keystroke_a	a	n/a
391.2305	0.1015	782461	keystroke_s	s	n/a
391.3885	0.079	782777	keystroke_o	o	n/a
391.4555	0.1125	782911	keystroke_n	n	n/a
391.5005	0.09	783001	keystroke_Key.space	Key.space	n/a
391.658	0.146	783316	keystroke_m	m	n/a
391.8155	0.045	783631	keystroke_a	a	n/a
391.8265	0.135	783653	keystroke_s	s	n/a
392.0065	0.0675	784013	keystroke_t	t	n/a
392.1415	0.124	784283	keystroke_e	e	n/a
392.2315	0.0565	784463	keystroke_r	r	n/a
392.435	0.089	784870	keystroke_c	c	n/a
392.6705	0.135	785341	keystroke_a	a	n/a
392.817	0.1235	785634	keystroke_r	r	n/a
392.918	0.1015	785836	keystroke_d	d	n/a
393.1315	0.0785	786263	keystroke_Key.space	Key.space	n/a
393.3905	0.056	786781	keystroke_a	a	n/a
393.5035	0.101	787007	keystroke_u	u	n/a
393.6155	0.0675	787231	keystroke_t	t	n/a
393.7055	0.09	787411	keystroke_o	o	n/a
393.7615	0.113	787523	keystroke_m	m	n/a
393.8855	0.124	787771	keystroke_a	a	n/a
393.9875	0.1005	787975	keystroke_t	t	n/a
394.178	0.2025	788356	keystroke_i	i	n/a
394.2345	0.1355	788469	keystroke_o	o	n/a
394.2905	0.1465	788581	keystroke_n	n	n/a
394.493	0.1015	788986	keystroke_Key.space	Key.space	n/a
394.6055	0.1125	789211	keystroke_a	a	n/a
394.7075	0.134	789415	keystroke_r	r	n/a
394.8305	0.1015	789661	keystroke_e	e	n/a
394.9205	0.09	789841	keystroke_a	a	n/a
395.0555	0.09	790111	keystroke_Key.enter	Key.enter	n/a
395.149	3.9345	790298	prompt	n/a	meal lloyd dramatic lying\n
395.7535	0.112	791507	keystroke_m	m	n/a
395.8205	0.1125	791641	keystroke_e	e	n/a
395.877	0.1235	791754	keystroke_a	a	n/a
395.9895	0.0785	791979	keystroke_l	l	n/a
396.068	0.1125	792136	keystroke_Key.space	Key.space	n/a
396.2595	0.0335	792519	keystroke_l	l	n/a
396.4055	0.0335	792811	keystroke_l	l	n/a
396.5515	0.079	793103	keystroke_o	o	n/a
396.709	0.1015	793418	keystroke_y	y	n/a
396.8445	0.101	793689	keystroke_d	d	n/a
396.9905	0.113	793981	keystroke_Key.space	Key.space	n/a
397.193	0.1015	794386	keystroke_d	d	n/a
397.3955	0.1015	794791	keystroke_r	r	n/a
397.4525	0.089	794905	keystroke_a	a	n/a
397.5305	0.112	795061	keystroke_m	m	n/a
397.6765	0.147	795353	keystroke_a	a	n/a
397.812	0.0785	795624	keystroke_t	t	n/a
397.9025	0.078	795805	keystroke_i	i	n/a
397.992	0.1125	795984	keystroke_c	c	n/a
398.115	0.113	796230	keystroke_Key.space	Key.space	n/a
398.239	0.101	796478	keystroke_l	l	n/a
398.487	0.0785	796974	keystroke_y	y	n/a
398.723	0.1015	797446	keystroke_i	i	n/a
398.7675	0.135	797535	keystroke_n	n	n/a
398.88	0.0455	797760	keystroke_g	g	n/a
399.004	0.0785	798008	keystroke_Key.enter	Key.enter	n/a
399.087	5.4865	798174	prompt	n/a	platinum medium tanks garage\n
399.837	0.0895	799674	keystroke_p	p	n/a
400.005	0.079	800010	keystroke_l	l	n/a
400.095	0.1015	800190	keystroke_a	a	n/a
400.275	0.034	800550	keystroke_n	n	n/a
400.68	0.034	801360	keystroke_Key.backspace	Key.backspace	n/a
400.714	0.1125	801428	keystroke_t	t	n/a
400.849	0.0785	801698	keystroke_i	i	n/a
401.074	0.08	802148	keystroke_n	n	n/a
401.31	0.0115	802620	keystroke_u	u	n/a
401.434	0.0675	802868	keystroke_m	m	n/a
401.5915	0.0565	803183	keystroke_Key.space	Key.space	n/a
401.704	0.0905	803408	keystroke_m	m	n/a
401.794	0.09	803588	keystroke_e	e	n/a
402.0085	0.0785	804017	keystroke_d	d	n/a
402.154	0.09	804308	keystroke_i	i	n/a
402.4015	0.09	804803	keystroke_u	u	n/a
402.604	0.0675	805208	keystroke_m	m	n/a
402.7055	0.135	805411	keystroke_Key.space	Key.space	n/a
402.8965	0.0785	805793	keystroke_t	t	n/a
402.987	0.0785	805974	keystroke_a	a	n/a
403.054	0.1575	806108	keystroke_n	n	n/a
403.099	0.135	806198	keystroke_k	k	n/a
403.2235	0.078	806447	keystroke_s	s	n/a
403.3355	0.146	806671	keystroke_Key.space	Key.space	n/a
403.4925	0.1465	806985	keystroke_g	g	n/a
403.695	0.124	807390	keystroke_a	a	n/a
403.785	0.0905	807570	keystroke_r	r	n/a
403.943	0.112	807886	keystroke_a	a	n/a
404.1	0.1015	808200	keystroke_g	g	n/a
404.3375	0.1	808675	keystroke_e	e	n/a
404.4715	0.101	808943	keystroke_Key.enter	Key.enter	n/a
404.578	4.608	809156	prompt	n/a	room stress luther regular\n
405.2705	0.101	810541	keystroke_r	r	n/a
405.3825	0.1015	810765	keystroke_o	o	n/a
405.54	0.1015	811080	keystroke_o	o	n/a
405.6525	0.1465	811305	keystroke_m	m	n/a
405.7425	0.09	811485	keystroke_Key.space	Key.space	n/a
405.9	0.079	811800	keystroke_s	s	n/a
406.0125	0.1015	812025	keystroke_t	t	n/a
406.2265	0.079	812453	keystroke_r	r	n/a
406.4065	0.1125	812813	keystroke_e	e	n/a
406.5875	0.0775	813175	keystroke_s	s	n/a
406.7665	0.135	813533	keystroke_s	s	n/a
406.9125	0.09	813825	keystroke_Key.space	Key.space	n/a
407.509	0.0455	815018	keystroke_l	l	n/a
407.734	0.101	815468	keystroke_u	u	n/a
407.824	0.0225	815648	keystroke_t	t	n/a
407.8915	0.0795	815783	keystroke_h	h	n/a
407.959	0.101	815918	keystroke_e	e	n/a
408.0265	0.0785	816053	keystroke_r	r	n/a
408.1055	0.112	816211	keystroke_Key.space	Key.space	n/a
408.33	0.1015	816660	keystroke_r	r	n/a
408.4425	0.1355	816885	keystroke_e	e	n/a
408.6565	0.0785	817313	keystroke_g	g	n/a
408.7575	0.113	817515	keystroke_u	u	n/a
408.837	0.078	817674	keystroke_l	l	n/a
408.859	0.124	817718	keystroke_a	a	n/a
408.949	0.0905	817898	keystroke_r	r	n/a
409.1175	0.0675	818235	keystroke_Key.enter	Key.enter	n/a
409.189	4.981	818378	prompt	n/a	food inch disabled eligible\n
409.8375	0.057	819675	keystroke_f	f	n/a
409.95	0.0345	819900	keystroke_o	o	n/a
410.0625	0.1125	820125	keystroke_o	o	n/a
410.187	0.09	820374	keystroke_d	d	n/a
410.2425	0.102	820485	keystroke_Key.space	Key.space	n/a
410.355	0.1125	820710	keystroke_i	i	n/a
410.4115	0.1235	820823	keystroke_n	n	n/a
410.5465	0.0675	821093	keystroke_c	c	n/a
410.604	0.1225	821208	keystroke_h	h	n/a
410.715	0.09	821430	keystroke_Key.space	Key.space	n/a
410.94	0.1135	821880	keystroke_d	d	n/a
411.064	0.0785	822128	keystroke_i	i	n/a
411.1315	0.0565	822263	keystroke_s	s	n/a
411.2325	0.023	822465	keystroke_a	a	n/a
412.065	0.0905	824130	keystroke_b	b	n/a
412.1775	0.079	824355	keystroke_l	l	n/a
412.279	0.0675	824558	keystroke_e	e	n/a
412.4595	0.0895	824919	keystroke_d	d	n/a
412.5495	0.123	825099	keystroke_Key.space	Key.space	n/a
412.785	0.1125	825570	keystroke_e	e	n/a
412.965	0.135	825930	keystroke_l	l	n/a
413.067	0.112	826134	keystroke_i	i	n/a
413.2125	0.102	826425	keystroke_g	g	n/a
413.337	0.168	826674	keystroke_i	i	n/a
413.6515	0.1125	827303	keystroke_b	b	n/a
413.865	0.079	827730	keystroke_l	l	n/a
413.955	0.045	827910	keystroke_e	e	n/a
414.09	0.079	828180	keystroke_Key.enter	Key.enter	n/a
414.173	5.959	828346	prompt	n/a	luis emma attachments designs\n
415.0015	0.09	830003	keystroke_l	l	n/a
415.1815	0.1245	830363	keystroke_u	u	n/a
415.2715	0.124	830543	keystroke_i	i	n/a
415.429	0.079	830858	keystroke_s	s	n/a
415.519	0.09	831038	keystroke_Key.space	Key.space	n/a
415.744	0.09	831488	keystroke_e	e	n/a
415.845	0.1015	831690	keystroke_m	m	n/a
416.037	0.034	832074	keystroke_m	m	n/a
416.138	0.056	832276	keystroke_a	a	n/a
416.2275	0.079	832455	keystroke_Key.space	Key.space	n/a
416.3405	0.1575	832681	keystroke_a	a	n/a
416.487	0.0785	832974	keystroke_t	t	n/a
416.6215	0.1125	833243	keystroke_t	t	n/a
416.745	0.079	833490	keystroke_a	a	n/a
416.914	0.0905	833828	keystroke_c	c	n/a
417.0155	0.101	834031	keystroke_h	h	n/a
417.229	0.1015	834458	keystroke_m	m	n/a
417.364	0.1235	834728	keystroke_e	e	n/a
417.42	0.102	834840	keystroke_n	n	n/a
417.556	0.1005	835112	keystroke_t	t	n/a
417.6675	0.1015	835335	keystroke_s	s	n/a
417.859	0.113	835718	keystroke_Key.space	Key.space	n/a
417.983	0.101	835966	keystroke_d	d	n/a
418.1515	0.101	836303	keystroke_e	e	n/a
418.2535	0.157	836507	keystroke_s	s	n/a
418.4215	0.068	836843	keystroke_i	i	n/a
418.523	0.101	837046	keystroke_g	g	n/a
418.6355	0.056	837271	keystroke_g	g	n/a
419.119	0.0685	838238	keystroke_Key.backspace	Key.backspace	n/a
419.3105	0.0785	838621	keystroke_n	n	n/a
419.3665	0.0905	838733	keystroke_e	e	n/a
419.4575	0.0665	838915	keystroke_s	s	n/a
419.7375	0.045	839475	keystroke_Key.backspace	Key.backspace	n/a
419.8615	0.113	839723	keystroke_Key.backspace	Key.backspace	n/a
419.985	0.1125	839970	keystroke_s	s	n/a
420.087	0.0445	840174	keystroke_Key.enter	Key.enter	n/a
420.135	4.34	840270	prompt	n/a	major justice dead equity\n
420.8965	0.079	841793	keystroke_m	m	n/a
420.964	0.045	841928	keystroke_a	a	n/a
421.066	0.112	842132	keystroke_j	j	n/a
421.1345	0.089	842269	keystroke_o	o	n/a
421.2115	0.0675	842423	keystroke_r	r	n/a
421.3575	0.1135	842715	keystroke_Key.space	Key.space	n/a
421.628	0.056	843256	keystroke_j	j	n/a
421.808	0.0895	843616	keystroke_u	u	n/a
421.864	0.124	843728	keystroke_s	s	n/a
421.9765	0.068	843953	keystroke_t	t	n/a
422.0775	0.09	844155	keystroke_i	i	n/a
422.224	0.0785	844448	keystroke_c	c	n/a
422.4265	0.0335	844853	keystroke_e	e	n/a
422.494	0.101	844988	keystroke_Key.space	Key.space	n/a
422.6175	0.079	845235	keystroke_d	d	n/a
422.775	0.1015	845550	keystroke_e	e	n/a
422.854	0.1235	845708	keystroke_a	a	n/a
423	0.0675	846000	keystroke_d	d	n/a
423.124	0.09	846248	keystroke_Key.space	Key.space	n/a
423.6195	0.101	847239	keystroke_e	e	n/a
423.6975	0.0795	847395	keystroke_q	q	n/a
423.7995	0.1005	847599	keystroke_u	u	n/a
423.8665	0.1125	847733	keystroke_i	i	n/a
424.0125	0.0795	848025	keystroke_t	t	n/a
424.1025	0.102	848205	keystroke_y	y	n/a
424.4175	0.0565	848835	keystroke_Key.enter	Key.enter	n/a
424.478	3.755	848956	prompt	n/a	cant lanka cyber true\n
425.295	0.09	850590	keystroke_c	c	n/a
425.421	0.0885	850842	keystroke_a	a	n/a
425.4975	0.09	850995	keystroke_n	n	n/a
425.61	0.068	851220	keystroke_t	t	n/a
425.7	0.1125	851400	keystroke_Key.space	Key.space	n/a
425.824	0.056	851648	keystroke_l	l	n/a
425.9375	0.1115	851875	keystroke_a	a	n/a
426.0375	0.102	852075	keystroke_n	n	n/a
426.117	0.123	852234	keystroke_k	k	n/a
426.252	0.078	852504	keystroke_a	a	n/a
426.4315	0.101	852863	keystroke_Key.space	Key.space	n/a
426.983	0.112	853966	keystroke_c	c	n/a
427.1295	0.09	854259	keystroke_y	y	n/a
427.23	0.0675	854460	keystroke_b	b	n/a
427.4325	0.0795	854865	keystroke_e	e	n/a
427.4895	0.067	854979	keystroke_r	r	n/a
427.5565	0.0785	855113	keystroke_Key.space	Key.space	n/a
427.737	0.0555	855474	keystroke_t	t	n/a
427.905	0.0675	855810	keystroke_r	r	n/a
428.007	0.078	856014	keystroke_u	u	n/a
428.097	0.0575	856194	keystroke_e	e	n/a
428.187	0.045	856374	keystroke_Key.enter	Key.enter	n/a
428.236	3.248	856472	prompt	n/a	smooth proportion infinite skip\n
428.929	0.0675	857858	keystroke_s	s	n/a
429.0075	0.09	858015	keystroke_m	m	n/a
429.087	0.0895	858174	keystroke_o	o	n/a
429.244	0.1125	858488	keystroke_o	o	n/a
429.379	0.09	858758	keystroke_t	t	n/a
429.4575	0.079	858915	keystroke_h	h	n/a
429.525	0.09	859050	keystroke_Key.space	Key.space	n/a
429.649	0.0785	859298	keystroke_p	p	n/a
429.7505	0.09	859501	keystroke_r	r	n/a
429.863	0.068	859726	keystroke_o	o	n/a
429.919	0.09	859838	keystroke_p	p	n/a
430.0765	0.09	860153	keystroke_o	o	n/a
430.178	0.101	860356	keystroke_r	r	n/a
430.6615	0.09	861323	keystroke_t	t	n/a
430.763	0.1685	861526	keystroke_i	i	n/a
430.8305	0.1125	861661	keystroke_o	o	n/a
430.9205	0.1015	861841	keystroke_n	n	n/a
431.4265	0.0565	862853	keystroke_Key.enter	Key.enter	n/a
431.487	4.947	862974	prompt	n/a	round stupid assured anime\n
433.2715	0.079	866543	keystroke_r	r	n/a
433.339	0.09	866678	keystroke_o	o	n/a
433.3735	0.123	866747	keystroke_u	u	n/a
433.609	0.0565	867218	keystroke_n	n	n/a
433.6765	0.0565	867353	keystroke_d	d	n/a
433.733	0.112	867466	keystroke_Key.space	Key.space	n/a
433.9685	0.102	867937	keystroke_s	s	n/a
434.048	0.1345	868096	keystroke_t	t	n/a
434.1935	0.0675	868387	keystroke_u	u	n/a
434.2055	0.1125	868411	keystroke_p	p	n/a
434.385	0.09	868770	keystroke_i	i	n/a
434.4865	0.0895	868973	keystroke_d	d	n/a
434.5765	0.101	869153	keystroke_Key.space	Key.space	n/a
434.745	0.1125	869490	keystroke_a	a	n/a
434.959	0.0895	869918	keystroke_s	s	n/a
435.161	0.0675	870322	keystroke_s	s	n/a
435.296	0.079	870592	keystroke_u	u	n/a
435.3635	0.079	870727	keystroke_r	r	n/a
435.3865	0.112	870773	keystroke_e	e	n/a
435.5665	0.09	871133	keystroke_d	d	n/a
435.645	0.1125	871290	keystroke_Key.space	Key.space	n/a
435.8025	0.09	871605	keystroke_a	a	n/a
435.915	0.079	871830	keystroke_n	n	n/a
435.9825	0.124	871965	keystroke_i	i	n/a
436.1175	0.135	872235	keystroke_m	m	n/a
436.2635	0.057	872527	keystroke_e	e	n/a
436.365	0.0675	872730	keystroke_Key.enter	Key.enter	n/a
436.4375	5.8685	872875	prompt	n/a	you'd condo stolen responsibility\n
437.2205	0.067	874441	keystroke_y	y	n/a
437.3435	0.0905	874687	keystroke_o	o	n/a
437.411	0.079	874822	keystroke_u	u	n/a
437.501	0.068	875002	keystroke_'	'	n/a
437.625	0.079	875250	keystroke_d	d	n/a
437.7375	0.1125	875475	keystroke_Key.space	Key.space	n/a
437.8725	0.1125	875745	keystroke_c	c	n/a
437.94	0.09	875880	keystroke_o	o	n/a
437.9965	0.0905	875993	keystroke_n	n	n/a
438.0975	0.0675	876195	keystroke_d	d	n/a
438.177	0.1005	876354	keystroke_o	o	n/a
438.289	0.1125	876578	keystroke_Key.space	Key.space	n/a
438.5475	0.101	877095	keystroke_s	s	n/a
438.66	0.045	877320	keystroke_o	o	n/a
438.8175	0.0675	877635	keystroke_l	l	n/a
438.919	0.1015	877838	keystroke_e	e	n/a
439.054	0.1125	878108	keystroke_n	n	n/a
439.1555	0.112	878311	keystroke_Key.space	Key.space	n/a
439.4475	0.1125	878895	keystroke_r	r	n/a
439.504	0.1235	879008	keystroke_e	e	n/a
439.6275	0.09	879255	keystroke_s	s	n/a
439.684	0.045	879368	keystroke_p	p	n/a
439.7075	0.145	879415	keystroke_o	o	n/a
439.7965	0.101	879593	keystroke_n	n	n/a
440.01	0.1015	880020	keystroke_s	s	n/a
440.3145	0.0445	880629	keystroke_b	b	n/a
440.8315	0.09	881663	keystroke_Key.backspace	Key.backspace	n/a
441.034	0.0785	882068	keystroke_i	i	n/a
441.079	0.0895	882158	keystroke_b	b	n/a
441.2475	0.09	882495	keystroke_i	i	n/a
441.349	0.1235	882698	keystroke_l	l	n/a
441.4385	0.1015	882877	keystroke_i	i	n/a
441.551	0.09	883102	keystroke_t	t	n/a
441.6875	0.1225	883375	keystroke_y	y	n/a
442.2375	0.0675	884475	keystroke_Key.enter	Key.enter	n/a
442.309	5.993	884618	prompt	n/a	directory typically turtle center\n
442.9125	0.1125	885825	keystroke_d	d	n/a
443.036	0.0905	886072	keystroke_i	i	n/a
443.115	0.0675	886230	keystroke_r	r	n/a
443.16	0.0675	886320	keystroke_e	e	n/a
443.34	0.079	886680	keystroke_c	c	n/a
443.4635	0.079	886927	keystroke_t	t	n/a
443.509	0.0785	887018	keystroke_o	o	n/a
443.6775	0.1125	887355	keystroke_r	r	n/a
443.7335	0.1465	887467	keystroke_y	y	n/a
443.824	0.1345	887648	keystroke_Key.space	Key.space	n/a
444.015	0.079	888030	keystroke_t	t	n/a
444.1275	0.0795	888255	keystroke_y	y	n/a
444.184	0.146	888368	keystroke_p	p	n/a
444.3415	0.0895	888683	keystroke_i	i	n/a
444.465	0.079	888930	keystroke_c	c	n/a
444.5895	0.0895	889179	keystroke_a	a	n/a
444.7015	0.056	889403	keystroke_l	l	n/a
444.8375	0.1335	889675	keystroke_l	l	n/a
444.949	0.101	889898	keystroke_y	y	n/a
445.0055	0.101	890011	keystroke_Key.space	Key.space	n/a
445.1965	0.056	890393	keystroke_t	t	n/a
445.275	0.09	890550	keystroke_u	u	n/a
445.838	0.056	891676	keystroke_r	r	n/a
446.8055	0.0105	893611	keystroke_t	t	n/a
446.9515	0.045	893903	keystroke_l	l	n/a
447.0415	0.1125	894083	keystroke_e	e	n/a
447.233	0.1005	894466	keystroke_Key.space	Key.space	n/a
447.424	0.034	894848	keystroke_c	c	n/a
447.604	0.034	895208	keystroke_e	e	n/a
447.7055	0.112	895411	keystroke_n	n	n/a
447.8065	0.0785	895613	keystroke_t	t	n/a
447.964	0.1575	895928	keystroke_e	e	n/a
448.065	0.0675	896130	keystroke_r	r	n/a
448.2225	0.079	896445	keystroke_Key.enter	Key.enter	n/a
448.3055	6.6795	896611	prompt	n/a	remedies converted award impression\n
449.0215	0.09	898043	keystroke_r	r	n/a
449.0665	0.09	898133	keystroke_e	e	n/a
449.1675	0.124	898335	keystroke_m	m	n/a
449.28	0.0675	898560	keystroke_e	e	n/a
449.46	0.056	898920	keystroke_d	d	n/a
449.539	0.0895	899078	keystroke_i	i	n/a
449.6405	0.112	899281	keystroke_e	e	n/a
449.7415	0.101	899483	keystroke_s	s	n/a
449.843	0.1345	899686	keystroke_Key.space	Key.space	n/a
450.1575	0.0785	900315	keystroke_c	c	n/a
450.2365	0.0895	900473	keystroke_o	o	n/a
450.281	0.1125	900562	keystroke_n	n	n/a
450.36	0.101	900720	keystroke_v	v	n/a
450.5965	0.056	901193	keystroke_e	e	n/a
450.6415	0.1125	901283	keystroke_r	r	n/a
450.799	0.045	901598	keystroke_e	e	n/a
450.8775	0.101	901755	keystroke_t	t	n/a
451.44	0.0675	902880	keystroke_Key.backspace	Key.backspace	n/a
451.5975	0.0675	903195	keystroke_Key.backspace	Key.backspace	n/a
451.609	0.09	903218	keystroke_t	t	n/a
451.6875	0.079	903375	keystroke_e	e	n/a
451.9125	0.0565	903825	keystroke_d	d	n/a
452.048	0.0895	904096	keystroke_Key.space	Key.space	n/a
452.4975	0.09	904995	keystroke_a	a	n/a
452.7	0.1025	905400	keystroke_w	w	n/a
452.79	0.09	905580	keystroke_a	a	n/a
452.914	0.1235	905828	keystroke_r	r	n/a
453.0485	0.0905	906097	keystroke_d	d	n/a
453.2065	0.101	906413	keystroke_Key.space	Key.space	n/a
453.3975	0.0675	906795	keystroke_i	i	n/a
453.409	0.1235	906818	keystroke_m	m	n/a
453.465	0.1235	906930	keystroke_p	p	n/a
453.6	0.1235	907200	keystroke_r	r	n/a
453.6905	0.0895	907381	keystroke_e	e	n/a
453.871	0.1005	907742	keystroke_s	s	n/a
454.489	0.0455	908978	keystroke_s	s	n/a
454.5	0.135	909000	keystroke_i	i	n/a
454.5675	0.079	909135	keystroke_o	o	n/a
454.601	0.1015	909202	keystroke_n	n	n/a
454.95	0.0335	909900	keystroke_Key.enter	Key.enter	n/a
454.988	5.8915	909976	prompt	n/a	switches sleeve events database\n
455.7825	0.0675	911565	keystroke_s	s	n/a
455.985	0.079	911970	keystroke_w	w	n/a
456.154	0.1015	912308	keystroke_i	i	n/a
456.2325	0.09	912465	keystroke_t	t	n/a
456.458	0.09	912916	keystroke_c	c	n/a
456.57	0.1245	913140	keystroke_h	h	n/a
456.7055	0.1015	913411	keystroke_e	e	n/a
456.795	0.09	913590	keystroke_s	s	n/a
456.9525	0.09	913905	keystroke_Key.space	Key.space	n/a
457.0765	0.101	914153	keystroke_s	s	n/a
457.2345	0.078	914469	keystroke_l	l	n/a
