onset	duration	sample	value	key	prompt_text
10.5275	15.0235	21055	prompt	n/a	the quick brown fox jumps over a lazy dog\n
16.6705	0.028	33341	keystroke_t	t	n/a
16.6985	0.075	33397	keystroke_h	h	n/a
16.7885	0.09	33577	keystroke_e	e	n/a
16.8635	0.09	33727	keystroke_Key.space	Key.space	n/a
17.0285	0.135	34057	keystroke_w	w	n/a
17.5535	0.075	35107	keystroke_=	=	n/a
17.6885	0.105	35377	keystroke_q	q	n/a
18.3035	0.06	36607	keystroke_Key.backspace	Key.backspace	n/a
18.4535	0.045	36907	keystroke_Key.backspace	Key.backspace	n/a
18.5885	0.09	37177	keystroke_Key.backspace	Key.backspace	n/a
19.1435	0.09	38287	keystroke_q	q	n/a
19.6235	0.09	39247	keystroke_u	u	n/a
19.7285	0.105	39457	keystroke_i	i	n/a
19.8785	0.105	39757	keystroke_c	c	n/a
20.0135	0.105	40027	keystroke_k	k	n/a
20.1035	0.195	40207	keystroke_Key.space	Key.space	n/a
20.4035	0.12	40807	keystroke_b	b	n/a
20.5385	0.09	41077	keystroke_r	r	n/a
20.6435	0.0905	41287	keystroke_o	o	n/a
20.749	0.135	41498	keystroke_w	w	n/a
20.869	0.09	41738	keystroke_n	n	n/a
20.944	0.12	41888	keystroke_Key.space	Key.space	n/a
21.049	0.1045	42098	keystroke_f	f	n/a
21.1685	0.105	42337	keystroke_o	o	n/a
21.3485	0.09	42697	keystroke_x	x	n/a
21.4685	0.135	42937	keystroke_Key.space	Key.space	n/a
21.7985	0.075	43597	keystroke_j	j	n/a
22.233	0.0755	44466	keystroke_u	u	n/a
22.4585	0.09	44917	keystroke_m	m	n/a
22.5935	0.105	45187	keystroke_p	p	n/a
22.7285	0.105	45457	keystroke_s	s	n/a
22.8335	0.075	45667	keystroke_Key.space	Key.space	n/a
22.998	0.09	45996	keystroke_o	o	n/a
23.073	0.075	46146	keystroke_v	v	n/a
23.238	0.12	46476	keystroke_e	e	n/a
23.298	0.105	46596	keystroke_r	r	n/a
23.418	0.075	46836	keystroke_Key.space	Key.space	n/a
23.523	0.106	47046	keystroke_a	a	n/a
23.614	0.104	47228	keystroke_Key.space	Key.space	n/a
23.689	0.105	47378	keystroke_l	l	n/a
23.749	0.06	47498	keystroke_a	a	n/a
24.0485	0.03	48097	keystroke_y	y	n/a
24.393	0.075	48786	keystroke_Key.backspace	Key.backspace	n/a
24.483	0.091	48966	keystroke_z	z	n/a
24.679	0.105	49358	keystroke_y	y	n/a
24.798	0.075	49596	keystroke_Key.space	Key.space	n/a
24.904	0.1045	49808	keystroke_d	d	n/a
25.0535	0.06	50107	keystroke_o	o	n/a
25.2185	0.09	50437	keystroke_g	g	n/a
25.4435	0.105	50887	keystroke_Key.enter	Key.enter	n/a
25.555	8.485	51110	prompt	n/a	blade deemed implemented there're\n
26.3735	0.075	52747	keystroke_b	b	n/a
26.5235	0.09	53047	keystroke_l	l	n/a
26.5835	0.075	53167	keystroke_a	a	n/a
26.8385	0.015	53677	keystroke_d	d	n/a
26.9135	0.075	53827	keystroke_e	e	n/a
27.0635	0.06	54127	keystroke_Key.space	Key.space	n/a
27.2285	0.075	54457	keystroke_d	d	n/a
27.4235	0.03	54847	keystroke_e	e	n/a
27.5285	0.09	55057	keystroke_e	e	n/a
27.6035	0.09	55207	keystroke_m	m	n/a
27.7385	0.06	55477	keystroke_e	e	n/a
27.9035	0.105	55807	keystroke_d	d	n/a
27.9785	0.105	55957	keystroke_Key.space	Key.space	n/a
28.1435	0.135	56287	keystroke_i	i	n/a
28.2485	0.1055	56497	keystroke_m	m	n/a
28.519	0.09	57038	keystroke_p	p	n/a
28.579	0.075	57158	keystroke_l	l	n/a
28.669	0.1195	57338	keystroke_e	e	n/a
29.1035	0.045	58207	keystroke_t	t	n/a
29.4335	0.045	58867	keystroke_Key.backspace	Key.backspace	n/a
29.6435	0.075	59287	keystroke_m	m	n/a
29.7335	0.06	59467	keystroke_e	e	n/a
29.8235	0.09	59647	keystroke_n	n	n/a
29.9285	0.045	59857	keystroke_t	t	n/a
30.0485	0.075	60097	keystroke_e	e	n/a
30.2285	0.135	60457	keystroke_d	d	n/a
30.3185	0.09	60637	keystroke_Key.space	Key.space	n/a
30.5285	0.09	61057	keystroke_t	t	n/a
30.6035	0.09	61207	keystroke_h	h	n/a
30.7085	0.105	61417	keystroke_e	e	n/a
30.7535	0.12	61507	keystroke_r	r	n/a
31.2035	0.105	62407	keystroke_e	e	n/a
31.6985	0.075	63397	keystroke_'	'	n/a
33.2135	0.0605	66427	keystroke_r	r	n/a
33.3185	0.09	66637	keystroke_e	e	n/a
33.9935	0.0455	67987	keystroke_Key.enter	Key.enter	n/a
34.043	6.507	68086	prompt	n/a	johnny rate tony instructions\n
35.434	0.105	70868	keystroke_j	j	n/a
35.614	0.105	71228	keystroke_o	o	n/a
35.794	0.105	71588	keystroke_h	h	n/a
35.929	0.06	71858	keystroke_n	n	n/a
36.064	0.09	72128	keystroke_n	n	n/a
36.559	0.105	73118	keystroke_y	y	n/a
36.964	0.075	73928	keystroke_Key.space	Key.space	n/a
37.084	0.0895	74168	keystroke_r	r	n/a
37.2785	0.12	74557	keystroke_a	a	n/a
37.5185	0.09	75037	keystroke_t	t	n/a
37.6685	0.105	75337	keystroke_e	e	n/a
37.7885	0.09	75577	keystroke_Key.space	Key.space	n/a
37.8935	0.105	75787	keystroke_t	t	n/a
38.0135	0.135	76027	keystroke_o	o	n/a
38.1185	0.09	76237	keystroke_n	n	n/a
38.358	0.105	76716	keystroke_y	y	n/a
38.478	0.105	76956	keystroke_Key.space	Key.space	n/a
38.6585	0.135	77317	keystroke_i	i	n/a
38.7485	0.09	77497	keystroke_n	n	n/a
38.8235	0.12	77647	keystroke_s	s	n/a
39.0635	0.09	78127	keystroke_t	t	n/a
39.3035	0.105	78607	keystroke_r	r	n/a
39.4535	0.09	78907	keystroke_u	u	n/a
39.6785	0.09	79357	keystroke_c	c	n/a
39.9035	0.06	79807	keystroke_t	t	n/a
39.9485	0.165	79897	keystroke_i	i	n/a
40.0535	0.105	80107	keystroke_o	o	n/a
40.0835	0.12	80167	keystroke_n	n	n/a
40.2185	0.1355	80437	keystroke_s	s	n/a
40.504	0.045	81008	keystroke_Key.enter	Key.enter	n/a
40.563	7.097	81126	prompt	n/a	cricket prescribed philips goto\n
41.1185	0.105	82237	keystroke_c	c	n/a
41.2085	0.075	82417	keystroke_h	h	n/a
41.2985	0.09	82597	keystroke_r	r	n/a
41.7485	0.045	83497	keystroke_Key.backspace	Key.backspace	n/a
41.8835	0.06	83767	keystroke_Key.backspace	Key.backspace	n/a
41.9585	0.075	83917	keystroke_r	r	n/a
42.0935	0.075	84187	keystroke_i	i	n/a
42.2435	0.1195	84487	keystroke_c	c	n/a
42.423	0.06	84846	keystroke_k	k	n/a
42.543	0.1055	85086	keystroke_e	e	n/a
42.7235	0.135	85447	keystroke_t	t	n/a
42.9485	0.09	85897	keystroke_Key.space	Key.space	n/a
43.0985	0.105	86197	keystroke_p	p	n/a
43.1885	0.09	86377	keystroke_r	r	n/a
43.3685	0.09	86737	keystroke_e	e	n/a
43.5935	0.09	87187	keystroke_s	s	n/a
43.7885	0.075	87577	keystroke_c	c	n/a
43.9835	0.075	87967	keystroke_r	r	n/a
44.1035	0.075	88207	keystroke_i	i	n/a
44.299	0.09	88598	keystroke_b	b	n/a
44.404	0.045	88808	keystroke_e	e	n/a
44.569	0.09	89138	keystroke_d	d	n/a
44.674	0.09	89348	keystroke_Key.space	Key.space	n/a
44.794	0.1195	89588	keystroke_p	p	n/a
44.9585	0.105	89917	keystroke_h	h	n/a
45.199	0.03	90398	keystroke_i	i	n/a
46.099	0.074	92198	keystroke_l	l	n/a
46.3085	0.045	92617	keystroke_i	i	n/a
46.518	0.06	93036	keystroke_p	p	n/a
46.669	0.089	93338	keystroke_s	s	n/a
46.818	0.09	93636	keystroke_Key.space	Key.space	n/a
47.044	0.09	94088	keystroke_g	g	n/a
47.178	0.046	94356	keystroke_o	o	n/a
47.239	0.09	94478	keystroke_t	t	n/a
47.344	0.075	94688	keystroke_o	o	n/a
47.568	0.0905	95136	keystroke_Key.enter	Key.enter	n/a
47.663	8.9975	95326	prompt	n/a	projector profits welsh sublimedirectory\n
48.273	0.09	96546	keystroke_p	p	n/a
48.378	0.06	96756	keystroke_r	r	n/a
48.499	0.06	96998	keystroke_o	o	n/a
48.783	0.03	97566	keystroke_k	k	n/a
49.2935	0.06	98587	keystroke_Key.backspace	Key.backspace	n/a
49.5335	0.06	99067	keystroke_j	j	n/a
49.6085	0.105	99217	keystroke_e	e	n/a
49.849	0.059	99698	keystroke_c	c	n/a
50.118	0.105	100236	keystroke_t	t	n/a
50.238	0.061	100476	keystroke_o	o	n/a
50.329	0.09	100658	keystroke_r	r	n/a
50.524	0.105	101048	keystroke_Key.space	Key.space	n/a
50.7335	0.105	101467	keystroke_p	p	n/a
50.9885	0.105	101977	keystroke_r	r	n/a
51.1685	0.075	102337	keystroke_o	o	n/a
51.2885	0.15	102577	keystroke_f	f	n/a
51.5585	0.075	103117	keystroke_i	i	n/a
51.6785	0.09	103357	keystroke_t	t	n/a
51.9035	0.1055	103807	keystroke_s	s	n/a
52.203	0.09	104406	keystroke_Key.space	Key.space	n/a
52.3235	0.105	104647	keystroke_w	w	n/a
52.4735	0.135	104947	keystroke_e	e	n/a
52.6685	0.075	105337	keystroke_l	l	n/a
52.923	0.0905	105846	keystroke_s	s	n/a
53.1035	0.105	106207	keystroke_h	h	n/a
53.2235	0.09	106447	keystroke_Key.space	Key.space	n/a
53.613	0.105	107226	keystroke_s	s	n/a
53.913	0.105	107826	keystroke_u	u	n/a
54.108	0.076	108216	keystroke_b	b	n/a
54.333	0.075	108666	keystroke_l	l	n/a
54.483	0.09	108966	keystroke_i	i	n/a
54.6935	0.075	109387	keystroke_m	m	n/a
54.7835	0.09	109567	keystroke_e	e	n/a
55.0085	0.045	110017	keystroke_d	d	n/a
55.1885	0.075	110377	keystroke_i	i	n/a
55.3835	0.06	110767	keystroke_r	r	n/a
55.5335	0.075	111067	keystroke_e	e	n/a
55.7135	0.09	111427	keystroke_c	c	n/a
55.9385	0.075	111877	keystroke_t	t	n/a
56.0285	0.0905	112057	keystroke_o	o	n/a
56.119	0.105	112238	keystroke_r	r	n/a
56.2985	0.075	112597	keystroke_y	y	n/a
56.5985	0.06	113197	keystroke_Key.enter	Key.enter	n/a
56.6635	9.057	113327	prompt	n/a	pack struggle schedule jeff\n
57.3035	0.09	114607	keystroke_p	p	n/a
57.5885	0.09	115177	keystroke_a	a	n/a
57.8435	0.105	115687	keystroke_c	c	n/a
57.9785	0.075	115957	keystroke_k	k	n/a
61.236	0.073	122472	keystroke_Key.space	Key.space	n/a
61.399	0.105	122798	keystroke_s	s	n/a
61.624	0.09	123248	keystroke_t	t	n/a
61.789	0.12	123578	keystroke_r	r	n/a
61.924	0.09	123848	keystroke_u	u	n/a
62.089	0.075	124178	keystroke_g	g	n/a
62.224	0.0895	124448	keystroke_g	g	n/a
62.3435	0.075	124687	keystroke_l	l	n/a
62.4335	0.09	124867	keystroke_e	e	n/a
62.5835	0.0905	125167	keystroke_Key.space	Key.space	n/a
62.899	0.075	125798	keystroke_s	s	n/a
63.064	0.12	126128	keystroke_c	c	n/a
63.349	0.03	126698	keystroke_e	e	n/a
63.394	0.09	126788	keystroke_h	h	n/a
63.739	0.045	127478	keystroke_Key.backspace	Key.backspace	n/a
63.844	0.075	127688	keystroke_Key.backspace	Key.backspace	n/a
64.084	0.075	128168	keystroke_h	h	n/a
64.174	0.045	128348	keystroke_e	e	n/a
64.309	0.135	128618	keystroke_d	d	n/a
64.399	0.075	128798	keystroke_u	u	n/a
64.639	0.06	129278	keystroke_l	l	n/a
64.729	0.105	129458	keystroke_e	e	n/a
64.834	0.09	129668	keystroke_Key.space	Key.space	n/a
64.939	0.105	129878	keystroke_j	j	n/a
65.089	0.03	130178	keystroke_e	e	n/a
65.254	0.075	130508	keystroke_f	f	n/a
65.389	0.105	130778	keystroke_f	f	n/a
65.644	0.075	131288	keystroke_Key.enter	Key.enter	n/a
65.7235	9.117	131447	prompt	n/a	precisely tremendous alabama believe\n
66.409	0.105	132818	keystroke_p	p	n/a
66.574	0.06	133148	keystroke_r	r	n/a
66.739	0.075	133478	keystroke_e	e	n/a
66.994	0.105	133988	keystroke_c	c	n/a
67.189	0.075	134378	keystroke_i	i	n/a
67.534	0.075	135068	keystroke_s	s	n/a
67.699	0.135	135398	keystroke_e	e	n/a
67.849	0.105	135698	keystroke_l	l	n/a
67.999	0.09	135998	keystroke_y	y	n/a
68.224	0.105	136448	keystroke_Key.space	Key.space	n/a
68.344	0.09	136688	keystroke_t	t	n/a
68.554	0.09	137108	keystroke_r	r	n/a
68.764	0.09	137528	keystroke_e	e	n/a
68.884	0.105	137768	keystroke_m	m	n/a
69.004	0.075	138008	keystroke_e	e	n/a
69.109	0.09	138218	keystroke_n	n	n/a
69.379	0.105	138758	keystroke_d	d	n/a
69.529	0.105	139058	keystroke_o	o	n/a
69.604	0.075	139208	keystroke_u	u	n/a
69.739	0.12	139478	keystroke_s	s	n/a
69.994	0.075	139988	keystroke_Key.space	Key.space	n/a
70.249	0.09	140498	keystroke_a	a	n/a
70.324	0.075	140648	keystroke_l	l	n/a
70.444	0.105	140888	keystroke_a	a	n/a
70.579	0.105	141158	keystroke_b	b	n/a
70.699	0.075	141398	keystroke_a	a	n/a
70.909	0.06	141818	keystroke_m	m	n/a
71.014	0.105	142028	keystroke_a	a	n/a
71.1635	0.09	142327	keystroke_Key.space	Key.space	n/a
71.509	0.075	143018	keystroke_b	b	n/a
71.704	0.06	143408	keystroke_l	l	n/a
72.334	0.06	144668	keystroke_Key.backspace	Key.backspace	n/a
72.499	0.105	144998	keystroke_e	e	n/a
72.694	0.075	145388	keystroke_l	l	n/a
72.859	0.09	145718	keystroke_i	i	n/a
73.009	0.105	146018	keystroke_e	e	n/a
73.684	0.075	147368	keystroke_v	v	n/a
73.894	0.0895	147788	keystroke_e	e	n/a
74.734	0.105	149468	keystroke_Key.enter	Key.enter	n/a
74.845	6.01	149690	prompt	n/a	comparison ratings golf uniform\n
75.514	0.12	151028	keystroke_c	c	n/a
75.994	0.075	151988	keystroke_o	o	n/a
76.204	0.0895	152408	keystroke_m	m	n/a
76.429	0.09	152858	keystroke_p	p	n/a
76.534	0.09	153068	keystroke_a	a	n/a
76.759	0.09	153518	keystroke_r	r	n/a
76.864	0.075	153728	keystroke_i	i	n/a
76.999	0.12	153998	keystroke_s	s	n/a
77.164	0.105	154328	keystroke_o	o	n/a
77.284	0.105	154568	keystroke_n	n	n/a
77.419	0.105	154838	keystroke_Key.space	Key.space	n/a
77.614	0.0595	155228	keystroke_r	r	n/a
77.7935	0.0755	155587	keystroke_a	a	n/a
78.004	0.09	156008	keystroke_t	t	n/a
78.109	0.09	156218	keystroke_i	i	n/a
78.168	0.091	156336	keystroke_n	n	n/a
78.243	0.075	156486	keystroke_g	g	n/a
78.453	0.075	156906	keystroke_s	s	n/a
78.573	0.09	157146	keystroke_Key.space	Key.space	n/a
78.798	0.121	157596	keystroke_g	g	n/a
78.903	0.06	157806	keystroke_o	o	n/a
79.083	0.091	158166	keystroke_l	l	n/a
79.158	0.1205	158316	keystroke_f	f	n/a
79.2635	0.09	158527	keystroke_Key.space	Key.space	n/a
79.698	0.06	159396	keystroke_u	u	n/a
79.878	0.06	159756	keystroke_n	n	n/a
80.043	0.06	160086	keystroke_i	i	n/a
80.178	0.106	160356	keystroke_f	f	n/a
80.328	0.06	160656	keystroke_o	o	n/a
80.373	0.105	160746	keystroke_r	r	n/a
80.524	0.059	161048	keystroke_m	m	n/a
80.793	0.06	161586	keystroke_Key.enter	Key.enter	n/a
80.858	7.047	161716	prompt	n/a	forwarding fresh danny feeding\n
81.588	0.09	163176	keystroke_f	f	n/a
81.723	0.075	163446	keystroke_o	o	n/a
81.813	0.105	163626	keystroke_r	r	n/a
82.038	0.075	164076	keystroke_w	w	n/a
82.173	0.121	164346	keystroke_a	a	n/a
82.399	0.074	164798	keystroke_r	r	n/a
82.849	0.1195	165698	keystroke_d	d	n/a
83.0135	0.135	166027	keystroke_i	i	n/a
83.1185	0.09	166237	keystroke_n	n	n/a
83.194	0.105	166388	keystroke_g	g	n/a
83.3285	0.09	166657	keystroke_Key.space	Key.space	n/a
83.4935	0.075	166987	keystroke_f	f	n/a
83.6885	0.06	167377	keystroke_r	r	n/a
83.8535	0.075	167707	keystroke_e	e	n/a
84.0485	0.12	168097	keystroke_s	s	n/a
84.1535	0.09	168307	keystroke_h	h	n/a
84.2445	0.104	168489	keystroke_Key.space	Key.space	n/a
84.469	0.075	168938	keystroke_d	d	n/a
84.844	0.105	169688	keystroke_a	a	n/a
84.9785	0.06	169957	keystroke_n	n	n/a
85.1135	0.075	170227	keystroke_n	n	n/a
85.369	0.135	170738	keystroke_y	y	n/a
85.504	0.104	171008	keystroke_Key.space	Key.space	n/a
85.6985	0.12	171397	keystroke_f	f	n/a
86.1485	0.075	172297	keystroke_e	e	n/a
86.2985	0.0745	172597	keystroke_e	e	n/a
86.494	0.089	172988	keystroke_d	d	n/a
86.599	0.119	173198	keystroke_i	i	n/a
86.703	0.076	173406	keystroke_n	n	n/a
86.794	0.119	173588	keystroke_g	g	n/a
87.798	0.105	175596	keystroke_Key.enter	Key.enter	n/a
87.908	27.568	175816	prompt	n/a	setup mild pill telecharger\n
109.101	0.043	218202	keystroke_s	s	n/a
109.2485	0.09	218497	keystroke_e	e	n/a
109.4735	0.105	218947	keystroke_t	t	n/a
109.6085	0.09	219217	keystroke_u	u	n/a
109.7585	0.12	219517	keystroke_p	p	n/a
109.8635	0.135	219727	keystroke_Key.space	Key.space	n/a
110.0435	0.075	220087	keystroke_m	m	n/a
110.4035	0.045	220807	keystroke_u	u	n/a
110.6885	0.06	221377	keystroke_Key.backspace	Key.backspace	n/a
110.9435	0.06	221887	keystroke_i	i	n/a
111.1085	0.075	222217	keystroke_l	l	n/a
111.2285	0.12	222457	keystroke_d	d	n/a
111.3785	0.09	222757	keystroke_Key.space	Key.space	n/a
111.6035	0.075	223207	keystroke_p	p	n/a
111.7985	0.075	223597	keystroke_i	i	n/a
112.024	0.03	224048	keystroke_l	l	n/a
112.144	0.075	224288	keystroke_l	l	n/a
112.489	0.09	224978	keystroke_Key.space	Key.space	n/a
112.639	0.075	225278	keystroke_t	t	n/a
112.804	0.09	225608	keystroke_e	e	n/a
112.909	0.09	225818	keystroke_l	l	n/a
112.999	0.06	225998	keystroke_e	e	n/a
113.164	0.06	226328	keystroke_g	g	n/a
113.764	0.06	227528	keystroke_Key.backspace	Key.backspace	n/a
113.8695	0.0895	227739	keystroke_c	c	n/a
114.019	0.09	228038	keystroke_h	h	n/a
114.139	0.075	228278	keystroke_a	a	n/a
114.3195	0.075	228639	keystroke_r	r	n/a
114.664	0.06	229328	keystroke_g	g	n/a
114.814	0.105	229628	keystroke_e	e	n/a
114.874	0.0905	229748	keystroke_r	r	n/a
115.3995	0.0745	230799	keystroke_Key.enter	Key.enter	n/a
115.487	4.8035	230974	prompt	n/a	stands lenses gauge knee\n
115.999	0.0895	231998	keystroke_s	s	n/a
116.179	0.0895	232358	keystroke_t	t	n/a
116.374	0.105	232748	keystroke_a	a	n/a
116.494	0.105	232988	keystroke_n	n	n/a
116.584	0.075	233168	keystroke_d	d	n/a
116.734	0.105	233468	keystroke_s	s	n/a
116.854	0.135	233708	keystroke_Key.space	Key.space	n/a
117.049	0.12	234098	keystroke_l	l	n/a
117.199	0.09	234398	keystroke_e	e	n/a
117.364	0.0755	234728	keystroke_n	n	n/a
117.5595	0.135	235119	keystroke_s	s	n/a
117.6495	0.12	235299	keystroke_e	e	n/a
117.8295	0.12	235659	keystroke_s	s	n/a
117.9495	0.105	235899	keystroke_Key.space	Key.space	n/a
118.1595	0.06	236319	keystroke_g	g	n/a
118.3425	0.102	236685	keystroke_a	a	n/a
118.4295	0.105	236859	keystroke_u	u	n/a
118.7595	0.075	237519	keystroke_g	g	n/a
119.0445	0.075	238089	keystroke_e	e	n/a
119.1935	0.106	238387	keystroke_Key.space	Key.space	n/a
119.5095	0.075	239019	keystroke_k	k	n/a
119.7945	0.0745	239589	keystroke_n	n	n/a
119.899	0.06	239798	keystroke_e	e	n/a
120.049	0.0745	240098	keystroke_e	e	n/a
120.1985	0.09	240397	keystroke_Key.enter	Key.enter	n/a
120.2965	5.709	240593	prompt	n/a	portfolio folders generous andrew\n
120.8445	0.105	241689	keystroke_p	p	n/a
121.0685	0.075	242137	keystroke_o	o	n/a
121.1585	0.105	242317	keystroke_r	r	n/a
121.3835	0.12	242767	keystroke_t	t	n/a
121.7135	0.075	243427	keystroke_f	f	n/a
121.9085	0.075	243817	keystroke_o	o	n/a
122.1635	0.075	244327	keystroke_l	l	n/a
122.344	0.12	244688	keystroke_i	i	n/a
122.479	0.105	244958	keystroke_o	o	n/a
122.674	0.09	245348	keystroke_Key.space	Key.space	n/a
122.779	0.1045	245558	keystroke_f	f	n/a
122.8385	0.09	245677	keystroke_o	o	n/a
123.0035	0.105	246007	keystroke_l	l	n/a
123.0635	0.105	246127	keystroke_d	d	n/a
123.2735	0.135	246547	keystroke_e	e	n/a
123.3335	0.105	246667	keystroke_r	r	n/a
123.5585	0.105	247117	keystroke_s	s	n/a
123.6485	0.09	247297	keystroke_Key.space	Key.space	n/a
123.7985	0.09	247597	keystroke_g	g	n/a
123.9785	0.075	247957	keystroke_e	e	n/a
124.0985	0.045	248197	keystroke_n	n	n/a
124.1445	0.1345	248289	keystroke_e	e	n/a
124.2485	0.09	248497	keystroke_r	r	n/a
124.5485	0.075	249097	keystroke_o	o	n/a
124.5935	0.075	249187	keystroke_u	u	n/a
124.8035	0.09	249607	keystroke_s	s	n/a
124.9085	0.075	249817	keystroke_Key.space	Key.space	n/a
125.0135	0.1055	250027	keystroke_a	a	n/a
125.179	0.075	250358	keystroke_n	n	n/a
125.239	0.105	250478	keystroke_d	d	n/a
125.464	0.06	250928	keystroke_r	r	n/a
125.6135	0.06	251227	keystroke_e	e	n/a
125.7785	0.12	251557	keystroke_w	w	n/a
125.9285	0.075	251857	keystroke_Key.enter	Key.enter	n/a
126.0105	28.166	252021	prompt	n/a	dawn rotary prize proposed\n
126.544	0.075	253088	keystroke_d	d	n/a
126.694	0.195	253388	keystroke_a	a	n/a
126.859	0.1195	253718	keystroke_w	w	n/a
126.9935	0.105	253987	keystroke_n	n	n/a
127.2485	0.12	254497	keystroke_Key.space	Key.space	n/a
127.3985	0.12	254797	keystroke_r	r	n/a
127.5335	0.12	255067	keystroke_o	o	n/a
127.7285	0.09	255457	keystroke_t	t	n/a
127.9985	0.12	255997	keystroke_a	a	n/a
128.2235	0.105	256447	keystroke_r	r	n/a
128.5985	0.09	257197	keystroke_y	y	n/a
128.7035	0.075	257407	keystroke_Key.space	Key.space	n/a
151.177	0.043	302354	keystroke_p	p	n/a
151.235	0.105	302470	keystroke_r	r	n/a
151.535	0.06	303070	keystroke_i	i	n/a
151.655	0.12	303310	keystroke_z	z	n/a
151.895	0.09	303790	keystroke_e	e	n/a
152.075	0.119	304150	keystroke_Key.space	Key.space	n/a
152.6295	0.105	305259	keystroke_p	p	n/a
152.7495	0.1205	305499	keystroke_r	r	n/a
152.87	0.06	305740	keystroke_o	o	n/a
153.11	0.06	306220	keystroke_p	p	n/a
153.335	0.06	306670	keystroke_o	o	n/a
153.515	0.12	307030	keystroke_s	s	n/a
153.755	0.09	307510	keystroke_e	e	n/a
153.92	0.09	307840	keystroke_d	d	n/a
154.055	0.119	308110	keystroke_Key.enter	Key.enter	n/a
154.1875	7.7135	308375	prompt	n/a	mold daniel starsmerchant signals\n
154.9095	0.075	309819	keystroke_m	m	n/a
155.3295	0.045	310659	keystroke_o	o	n/a
155.615	0.075	311230	keystroke_l	l	n/a
155.825	0.135	311650	keystroke_d	d	n/a
156.005	0.12	312010	keystroke_Key.space	Key.space	n/a
156.14	0.075	312280	keystroke_d	d	n/a
156.32	0.105	312640	keystroke_a	a	n/a
156.38	0.09	312760	keystroke_n	n	n/a
156.545	0.09	313090	keystroke_i	i	n/a
156.65	0.09	313300	keystroke_e	e	n/a
156.755	0.105	313510	keystroke_l	l	n/a
156.86	0.12	313720	keystroke_Key.space	Key.space	n/a
157.175	0.015	314350	keystroke_s	s	n/a
157.295	0.089	314590	keystroke_t	t	n/a
157.534	0.016	315068	keystroke_a	a	n/a
157.9095	0.105	315819	keystroke_r	r	n/a
158.2695	0.18	316539	keystroke_s	s	n/a
158.5695	0.09	317139	keystroke_m	m	n/a
158.7045	0.12	317409	keystroke_e	e	n/a
158.7645	0.12	317529	keystroke_r	r	n/a
159.1095	0.06	318219	keystroke_h	h	n/a
159.4245	0.045	318849	keystroke_Key.backspace	Key.backspace	n/a
159.5145	0.09	319029	keystroke_c	c	n/a
159.664	0.075	319328	keystroke_h	h	n/a
159.754	0.12	319508	keystroke_a	a	n/a
159.904	0.09	319808	keystroke_n	n	n/a
160.3095	0.12	320619	keystroke_t	t	n/a
160.4745	0.06	320949	keystroke_Key.space	Key.space	n/a
160.7595	0.1045	321519	keystroke_s	s	n/a
160.849	0.09	321698	keystroke_i	i	n/a
160.984	0.105	321968	keystroke_g	g	n/a
161.104	0.09	322208	keystroke_n	n	n/a
161.209	0.105	322418	keystroke_a	a	n/a
161.359	0.09	322718	keystroke_l	l	n/a
161.479	0.09	322958	keystroke_s	s	n/a
161.794	0.105	323588	keystroke_Key.enter	Key.enter	n/a
161.9095	6.382	323819	prompt	n/a	veteran spots syndicate periodically\n
162.514	0.12	325028	keystroke_v	v	n/a
162.709	0.1055	325418	keystroke_e	e	n/a
162.9195	0.075	325839	keystroke_t	t	n/a
163.0545	0.105	326109	keystroke_e	e	n/a
163.1145	0.09	326229	keystroke_r	r	n/a
163.3095	0.12	326619	keystroke_a	a	n/a
163.4445	0.09	326889	keystroke_n	n	n/a
163.5495	0.135	327099	keystroke_Key.space	Key.space	n/a
163.6395	0.12	327279	keystroke_s	s	n/a
163.7595	0.105	327519	keystroke_p	p	n/a
163.8645	0.105	327729	keystroke_o	o	n/a
164.0145	0.075	328029	keystroke_t	t	n/a
164.2095	0.1045	328419	keystroke_s	s	n/a
164.374	0.135	328748	keystroke_Key.space	Key.space	n/a
164.584	0.105	329168	keystroke_s	s	n/a
164.764	0.09	329528	keystroke_y	y	n/a
165.004	0.075	330008	keystroke_n	n	n/a
165.064	0.075	330128	keystroke_d	d	n/a
165.199	0.075	330398	keystroke_i	i	n/a
165.289	0.075	330578	keystroke_c	c	n/a
165.424	0.12	330848	keystroke_a	a	n/a
165.679	0.075	331358	keystroke_t	t	n/a
165.859	0.03	331718	keystroke_e	e	n/a
165.904	0.105	331808	keystroke_Key.space	Key.space	n/a
166.024	0.075	332048	keystroke_p	p	n/a
166.219	0.105	332438	keystroke_e	e	n/a
166.444	0.075	332888	keystroke_r	r	n/a
166.669	0.075	333338	keystroke_i	i	n/a
166.849	0.075	333698	keystroke_o	o	n/a
166.939	0.09	333878	keystroke_d	d	n/a
167.194	0.12	334388	keystroke_i	i	n/a
167.329	0.06	334658	keystroke_c	c	n/a
167.509	0.09	335018	keystroke_a	a	n/a
167.6	0.044	335200	keystroke_l	l	n/a
167.734	0.075	335468	keystroke_l	l	n/a
167.944	0.06	335888	keystroke_y	y	n/a
168.199	0.0905	336398	keystroke_Key.enter	Key.enter	n/a
168.2945	5.9965	336589	prompt	n/a	boots suffered shorts ride\n
168.9495	0.075	337899	keystroke_b	b	n/a
169.2495	0.09	338499	keystroke_o	o	n/a
169.3995	0.105	338799	keystroke_o	o	n/a
169.4745	0.075	338949	keystroke_t	t	n/a
169.6695	0.12	339339	keystroke_s	s	n/a
169.8045	0.09	339609	keystroke_Key.space	Key.space	n/a
169.9095	0.12	339819	keystroke_s	s	n/a
170.0145	0.15	340029	keystroke_u	u	n/a
170.285	0.06	340570	keystroke_f	f	n/a
170.45	0.03	340900	keystroke_f	f	n/a
170.5545	0.105	341109	keystroke_e	e	n/a
170.6295	0.135	341259	keystroke_r	r	n/a
170.7655	0.089	341531	keystroke_e	e	n/a
171.1395	0.09	342279	keystroke_d	d	n/a
171.3345	0.09	342669	keystroke_Key.space	Key.space	n/a
171.6945	0.12	343389	keystroke_s	s	n/a
172.1895	0.06	344379	keystroke_h	h	n/a
172.339	0.105	344678	keystroke_o	o	n/a
172.46	0.089	344920	keystroke_r	r	n/a
172.685	0.074	345370	keystroke_t	t	n/a
172.8945	0.105	345789	keystroke_s	s	n/a
173.0145	0.09	346029	keystroke_Key.space	Key.space	n/a
173.3295	0.045	346659	keystroke_r	r	n/a
173.4195	0.06	346839	keystroke_i	i	n/a
173.7045	0.06	347409	keystroke_d	d	n/a
173.8695	0.09	347739	keystroke_e	e	n/a
174.2445	0.0445	348489	keystroke_Key.enter	Key.enter	n/a
174.2935	7.0325	348587	prompt	n/a	cherry lawyer islands slope\n
175.9245	0.1345	351849	keystroke_c	c	n/a
176.044	0.06	352088	keystroke_h	h	n/a
176.179	0.12	352358	keystroke_e	e	n/a
176.389	0.06	352778	keystroke_r	r	n/a
176.524	0.105	353048	keystroke_r	r	n/a
176.644	0.075	353288	keystroke_y	y	n/a
176.734	0.075	353468	keystroke_Key.space	Key.space	n/a
177.71	0.075	355420	keystroke_l	l	n/a
177.83	0.1345	355660	keystroke_a	a	n/a
177.9945	0.105	355989	keystroke_w	w	n/a
178.2345	0.045	356469	keystroke_y	y	n/a
178.4445	0.09	356889	keystroke_e	e	n/a
178.5195	0.105	357039	keystroke_r	r	n/a
178.6395	0.105	357279	keystroke_Key.space	Key.space	n/a
178.8795	0.075	357759	keystroke_i	i	n/a
178.9995	0.09	357999	keystroke_s	s	n/a
179.3745	0.075	358749	keystroke_l	l	n/a
179.5095	0.09	359019	keystroke_a	a	n/a
179.6295	0.075	359259	keystroke_n	n	n/a
179.6895	0.12	359379	keystroke_d	d	n/a
179.8995	0.12	359799	keystroke_s	s	n/a
180.0045	0.09	360009	keystroke_Key.space	Key.space	n/a
180.1395	0.105	360279	keystroke_s	s	n/a
180.2595	0.0595	360519	keystroke_l	l	n/a
180.439	0.075	360878	keystroke_o	o	n/a
180.664	0.09	361328	keystroke_p	p	n/a
180.83	0.089	361660	keystroke_e	e	n/a
181.1595	0.165	362319	keystroke_Key.enter	Key.enter	n/a
181.3365	8.1495	362673	prompt	n/a	murray immigration psychology airlines\n
182.119	0.075	364238	keystroke_m	m	n/a
182.3145	0.06	364629	keystroke_u	u	n/a
182.3895	0.075	364779	keystroke_r	r	n/a
182.524	0.09	365048	keystroke_r	r	n/a
182.764	0.0905	365528	keystroke_a	a	n/a
182.8995	0.075	365799	keystroke_y	y	n/a
183.1845	0.15	366369	keystroke_Key.space	Key.space	n/a
183.3495	0.09	366699	keystroke_i	i	n/a
183.5895	0.03	367179	keystroke_m	m	n/a
183.6945	0.075	367389	keystroke_m	m	n/a
184.0245	0.06	368049	keystroke_i	i	n/a
184.2795	0.075	368559	keystroke_g	g	n/a
184.4895	0.075	368979	keystroke_r	r	n/a
184.6695	0.105	369339	keystroke_a	a	n/a
184.8945	0.075	369789	keystroke_t	t	n/a
184.9995	0.12	369999	keystroke_i	i	n/a
185.2695	0.135	370539	keystroke_o	o	n/a
185.3595	0.135	370719	keystroke_n	n	n/a
185.4945	0.0895	370989	keystroke_Key.space	Key.space	n/a
185.7645	0.075	371529	keystroke_p	p	n/a
185.9145	0.075	371829	keystroke_s	s	n/a
186.0795	0.075	372159	keystroke_y	y	n/a
186.349	0.06	372698	keystroke_c	c	n/a
186.889	0.0605	373778	keystroke_h	h	n/a
187.0695	0.09	374139	keystroke_o	o	n/a
187.2795	0.03	374559	keystroke_l	l	n/a
187.4445	0.075	374889	keystroke_o	o	n/a
187.6245	0.105	375249	keystroke_g	g	n/a
187.8045	0.1195	375609	keystroke_y	y	n/a
187.939	0.135	375878	keystroke_Key.space	Key.space	n/a
188.089	0.105	376178	keystroke_a	a	n/a
188.254	0.0455	376508	keystroke_i	i	n/a
188.4645	0.135	376929	keystroke_r	r	n/a
188.6595	0.105	377319	keystroke_l	l	n/a
188.8095	0.075	377619	keystroke_i	i	n/a
189.004	0.09	378008	keystroke_n	n	n/a
189.079	0.075	378158	keystroke_e	e	n/a
189.259	0.09	378518	keystroke_s	s	n/a
189.379	0.105	378758	keystroke_Key.enter	Key.enter	n/a
189.49	5.4405	378980	prompt	n/a	decade parallel came cultural\n
190.024	0.105	380048	keystroke_d	d	n/a
190.249	0.06	380498	keystroke_e	e	n/a
190.429	0.075	380858	keystroke_c	c	n/a
190.669	0.015	381338	keystroke_a	a	n/a
191.059	0.06	382118	keystroke_d	d	n/a
191.239	0.06	382478	keystroke_e	e	n/a
191.359	0.105	382718	keystroke_Key.space	Key.space	n/a
191.5695	0.0895	383139	keystroke_p	p	n/a
191.644	0.105	383288	keystroke_a	a	n/a
191.854	0.09	383708	keystroke_r	r	n/a
192.049	0.09	384098	keystroke_a	a	n/a
192.184	0.06	384368	keystroke_l	l	n/a
192.319	0.09	384638	keystroke_l	l	n/a
192.379	0.105	384758	keystroke_e	e	n/a
192.529	0.12	385058	keystroke_l	l	n/a
192.619	0.105	385238	keystroke_Key.space	Key.space	n/a
192.919	0.075	385838	keystroke_c	c	n/a
193.114	0.09	386228	keystroke_a	a	n/a
193.189	0.105	386378	keystroke_m	m	n/a
193.309	0.09	386618	keystroke_e	e	n/a
193.384	0.12	386768	keystroke_Key.space	Key.space	n/a
193.6095	0.1045	387219	keystroke_c	c	n/a
193.729	0.045	387458	keystroke_u	u	n/a
193.894	0.075	387788	keystroke_l	l	n/a
193.999	0.09	387998	keystroke_t	t	n/a
194.209	0.0755	388418	keystroke_u	u	n/a
194.2995	0.075	388599	keystroke_r	r	n/a
194.4795	0.105	388959	keystroke_a	a	n/a
194.6295	0.0745	389259	keystroke_l	l	n/a
194.854	0.075	389708	keystroke_Key.enter	Key.enter	n/a
194.934	7.0765	389868	prompt	n/a	basename conversations grade extent\n
195.649	0.075	391298	keystroke_b	b	n/a
195.739	0.075	391478	keystroke_a	a	n/a
195.934	0.105	391868	keystroke_s	s	n/a
196.009	0.12	392018	keystroke_e	e	n/a
196.354	0.075	392708	keystroke_n	n	n/a
196.4595	0.075	392919	keystroke_a	a	n/a
196.58	0.075	393160	keystroke_m	m	n/a
196.6395	0.075	393279	keystroke_e	e	n/a
196.8195	0.09	393639	keystroke_Key.space	Key.space	n/a
197.3745	0.12	394749	keystroke_c	c	n/a
197.4795	0.135	394959	keystroke_o	o	n/a
197.5995	0.105	395199	keystroke_n	n	n/a
197.6745	0.195	395349	keystroke_v	v	n/a
197.8245	0.075	395649	keystroke_e	e	n/a
197.8705	0.089	395741	keystroke_r	r	n/a
198.0645	0.06	396129	keystroke_s	s	n/a
198.1995	0.0905	396399	keystroke_a	a	n/a
198.424	0.076	396848	keystroke_t	t	n/a
198.514	0.195	397028	keystroke_i	i	n/a
198.649	0.135	397298	keystroke_o	o	n/a
198.694	0.165	397388	keystroke_n	n	n/a
198.829	0.135	397658	keystroke_s	s	n/a
198.994	0.09	397988	keystroke_Key.space	Key.space	n/a
199.219	0.09	398438	keystroke_g	g	n/a
199.429	0.06	398858	keystroke_r	r	n/a
199.594	0.06	399188	keystroke_a	a	n/a
199.774	0.06	399548	keystroke_d	d	n/a
199.954	0.045	399908	keystroke_e	e	n/a
200.029	0.09	400058	keystroke_Key.space	Key.space	n/a
200.194	0.12	400388	keystroke_e	e	n/a
200.374	0.075	400748	keystroke_x	x	n/a
200.644	0.06	401288	keystroke_t	t	n/a
200.914	0.09	401828	keystroke_e	e	n/a
201.109	0.075	402218	keystroke_n	n	n/a
201.289	0.06	402578	keystroke_f	f	n/a
201.964	0.045	403928	keystroke_Key.enter	Key.enter	n/a
202.014	9.8665	404028	prompt	n/a	able component genesis dominican\n
204.816	0.118	409632	keystroke_a	a	n/a
205.084	0.045	410168	keystroke_b	b	n/a
205.279	0.09	410558	keystroke_l	l	n/a
205.429	0.09	410858	keystroke_e	e	n/a
205.504	0.0895	411008	keystroke_Key.space	Key.space	n/a
206.0895	0.104	412179	keystroke_c	c	n/a
206.1795	0.075	412359	keystroke_o	o	n/a
206.4345	0.014	412869	keystroke_m	m	n/a
206.5245	0.165	413049	keystroke_p	p	n/a
206.6145	0.09	413229	keystroke_l	l	n/a
207.1385	0.106	414277	keystroke_Key.backspace	Key.backspace	n/a
207.4235	0.061	414847	keystroke_o	o	n/a
207.5885	0.1055	415177	keystroke_n	n	n/a
207.829	0.12	415658	keystroke_e	e	n/a
207.934	0.09	415868	keystroke_n	n	n/a
208.069	0.105	416138	keystroke_t	t	n/a
208.189	0.1195	416378	keystroke_Key.space	Key.space	n/a
208.5345	0.12	417069	keystroke_f	f	n/a
209.149	0.06	418298	keystroke_Key.backspace	Key.backspace	n/a
209.209	0.105	418418	keystroke_g	g	n/a
209.374	0.135	418748	keystroke_e	e	n/a
209.524	0.12	419048	keystroke_n	n	n/a
209.659	0.06	419318	keystroke_e	e	n/a
209.854	0.09	419708	keystroke_s	s	n/a
209.914	0.09	419828	keystroke_i	i	n/a
210.049	0.0605	420098	keystroke_s	s	n/a
210.1235	0.151	420247	keystroke_Key.space	Key.space	n/a
210.289	0.09	420578	keystroke_d	d	n/a
210.5	0.074	421000	keystroke_o	o	n/a
210.709	0.06	421418	keystroke_m	m	n/a
210.904	0.09	421808	keystroke_i	i	n/a
210.994	0.09	421988	keystroke_n	n	n/a
211.144	0.09	422288	keystroke_i	i	n/a
211.249	0.06	422498	keystroke_c	c	n/a
211.5345	0.015	423069	keystroke_a	a	n/a
211.5645	0.045	423129	keystroke_n	n	n/a
211.8045	0.074	423609	keystroke_Key.enter	Key.enter	n/a
211.8845	6.641	423769	prompt	n/a	statutes memory replies episode\n
212.5685	0.105	425137	keystroke_s	s	n/a
212.7945	0.074	425589	keystroke_t	t	n/a
212.9585	0.12	425917	keystroke_a	a	n/a
213.1835	0.105	426367	keystroke_t	t	n/a
213.3185	0.09	426637	keystroke_u	u	n/a
213.4685	0.105	426937	keystroke_e	e	n/a
213.9185	0.045	427837	keystroke_Key.backspace	Key.backspace	n/a
213.9935	0.075	427987	keystroke_t	t	n/a
214.2045	0.0745	428409	keystroke_e	e	n/a
214.3835	0.135	428767	keystroke_s	s	n/a
214.5035	0.105	429007	keystroke_Key.space	Key.space	n/a
214.7735	0.076	429547	keystroke_m	m	n/a
214.8335	0.12	429667	keystroke_e	e	n/a
214.9685	0.06	429937	keystroke_m	m	n/a
215.1035	0.1055	430207	keystroke_o	o	n/a
215.194	0.12	430388	keystroke_r	r	n/a
215.464	0.09	430928	keystroke_y	y	n/a
215.569	0.075	431138	keystroke_Key.space	Key.space	n/a
215.794	0.09	431588	keystroke_r	r	n/a
215.974	0.105	431948	keystroke_e	e	n/a
216.199	0.0895	432398	keystroke_p	p	n/a
216.244	0.0895	432488	keystroke_l	l	n/a
216.4835	0.075	432967	keystroke_i	i	n/a
216.5735	0.06	433147	keystroke_e	e	n/a
216.8285	0.0905	433657	keystroke_s	s	n/a
216.949	0.075	433898	keystroke_Key.space	Key.space	n/a
217.2195	0.0745	434439	keystroke_e	e	n/a
217.354	0.09	434708	keystroke_p	p	n/a
217.564	0.06	435128	keystroke_i	i	n/a
217.699	0.09	435398	keystroke_s	s	n/a
217.864	0.075	435728	keystroke_o	o	n/a
217.969	0.06	435938	keystroke_d	d	n/a
218.134	0.09	436268	keystroke_e	e	n/a
218.389	0.135	436778	keystroke_Key.enter	Key.enter	n/a
218.53	10.3455	437060	prompt	n/a	interpretation biblical yugoslavia reviewed\n
219.394	0.21	438788	keystroke_i	i	n/a
219.559	0.1045	439118	keystroke_n	n	n/a
219.694	0.075	439388	keystroke_t	t	n/a
219.859	0.105	439718	keystroke_e	e	n/a
219.934	0.105	439868	keystroke_r	r	n/a
220.054	0.09	440108	keystroke_p	p	n/a
220.159	0.105	440318	keystroke_r	r	n/a
220.384	0.075	440768	keystroke_e	e	n/a
220.714	0.075	441428	keystroke_t	t	n/a
220.909	0.0905	441818	keystroke_a	a	n/a
221.1345	0.06	442269	keystroke_t	t	n/a
221.1945	0.12	442389	keystroke_i	i	n/a
221.3145	0.15	442629	keystroke_o	o	n/a
221.4345	0.075	442869	keystroke_n	n	n/a
221.5245	0.105	443049	keystroke_Key.space	Key.space	n/a
221.6445	0.06	443289	keystroke_b	b	n/a
221.7795	0.135	443559	keystroke_i	i	n/a
221.9285	0.09	443857	keystroke_b	b	n/a
222.2585	0.0905	444517	keystroke_l	l	n/a
222.4095	0.105	444819	keystroke_i	i	n/a
222.5595	0.12	445119	keystroke_c	c	n/a
222.7095	0.135	445419	keystroke_a	a	n/a
222.8295	0.105	445659	keystroke_l	l	n/a
222.9185	0.1055	445837	keystroke_Key.space	Key.space	n/a
223.474	0.075	446948	keystroke_y	y	n/a
223.669	0.0895	447338	keystroke_u	u	n/a
223.9985	0.075	447997	keystroke_g	g	n/a
224.1195	0.074	448239	keystroke_o	o	n/a
224.6435	0.106	449287	keystroke_s	s	n/a
224.7935	0.075	449587	keystroke_l	l	n/a
224.8985	0.09	449797	keystroke_a	a	n/a
225.2435	0.105	450487	keystroke_v	v	n/a
225.3785	0.105	450757	keystroke_i	i	n/a
225.5135	0.12	451027	keystroke_a	a	n/a
225.7235	0.075	451447	keystroke_Key.space	Key.space	n/a
226.7745	0.075	453549	keystroke_r	r	n/a
226.9535	0.045	453907	keystroke_e	e	n/a
227.3435	0.105	454687	keystroke_v	v	n/a
227.5085	0.061	455017	keystroke_i	i	n/a
227.6735	0.046	455347	keystroke_e	e	n/a
227.839	0.075	455678	keystroke_w	w	n/a
228.289	0.06	456578	keystroke_e	e	n/a
228.469	0.09	456938	keystroke_d	d	n/a
228.799	0.075	457598	keystroke_Key.enter	Key.enter	n/a
228.8795	5.3815	457759	prompt	n/a	sensors motor sister pour\n
229.5045	0.105	459009	keystroke_s	s	n/a
229.7295	0.1195	459459	keystroke_e	e	n/a
229.864	0.105	459728	keystroke_n	n	n/a
229.999	0.105	459998	keystroke_s	s	n/a
230.179	0.075	460358	keystroke_o	o	n/a
230.374	0.1045	460748	keystroke_r	r	n/a
230.7035	0.105	461407	keystroke_s	s	n/a
230.8535	0.12	461707	keystroke_Key.space	Key.space	n/a
231.0035	0.09	462007	keystroke_m	m	n/a
231.1085	0.09	462217	keystroke_o	o	n/a
231.4235	0.09	462847	keystroke_t	t	n/a
231.4995	0.1045	462999	keystroke_o	o	n/a
231.679	0.105	463358	keystroke_r	r	n/a
231.799	0.09	463598	keystroke_Key.space	Key.space	n/a
231.89	0.104	463780	keystroke_s	s	n/a
231.979	0.09	463958	keystroke_i	i	n/a
232.084	0.075	464168	keystroke_s	s	n/a
232.2945	0.12	464589	keystroke_t	t	n/a
232.4745	0.165	464949	keystroke_e	e	n/a
232.5945	0.12	465189	keystroke_r	r	n/a
232.7295	0.12	465459	keystroke_Key.space	Key.space	n/a
232.9245	0.09	465849	keystroke_p	p	n/a
233.2095	0.03	466419	keystroke_o	o	n/a
233.4945	0.09	466989	keystroke_u	u	n/a
233.7045	0.15	467409	keystroke_r	r	n/a
234.2145	0.045	468429	keystroke_Key.enter	Key.enter	n/a
234.2655	8.845	468531	prompt	n/a	discrimination beast serve refurbished\n
234.769	0.09	469538	keystroke_d	d	n/a
235.0245	0.09	470049	keystroke_i	i	n/a
235.0995	0.105	470199	keystroke_s	s	n/a
235.3695	0.15	470739	keystroke_c	c	n/a
235.6395	0.09	471279	keystroke_r	r	n/a
235.7895	0.09	471579	keystroke_i	i	n/a
236.0895	0.09	472179	keystroke_m	m	n/a
236.2545	0.105	472509	keystroke_i	i	n/a
236.3445	0.105	472689	keystroke_n	n	n/a
236.5245	0.12	473049	keystroke_a	a	n/a
236.7645	0.12	473529	keystroke_t	t	n/a
236.8695	0.165	473739	keystroke_i	i	n/a
236.9745	0.135	473949	keystroke_o	o	n/a
237.0495	0.135	474099	keystroke_n	n	n/a
237.1995	0.09	474399	keystroke_Key.space	Key.space	n/a
237.4095	0.075	474819	keystroke_b	b	n/a
237.4995	0.03	474999	keystroke_r	r	n/a
237.9195	0.0745	475839	keystroke_Key.backspace	Key.backspace	n/a
237.979	0.075	475958	keystroke_e	e	n/a
238.144	0.06	476288	keystroke_a	a	n/a
238.3095	0.12	476619	keystroke_s	s	n/a
238.4895	0.165	476979	keystroke_t	t	n/a
238.6695	0.0895	477339	keystroke_Key.space	Key.space	n/a
238.789	0.15	477578	keystroke_s	s	n/a
238.894	0.105	477788	keystroke_e	e	n/a
239.074	0.09	478148	keystroke_r	r	n/a
239.299	0.12	478598	keystroke_v	v	n/a
239.494	0.15	478988	keystroke_e	e	n/a
239.674	0.09	479348	keystroke_Key.space	Key.space	n/a
240.049	0.105	480098	keystroke_r	r	n/a
240.274	0.075	480548	keystroke_e	e	n/a
240.484	0.075	480968	keystroke_f	f	n/a
240.589	0.075	481178	keystroke_u	u	n/a
240.694	0.105	481388	keystroke_e	e	n/a
241.459	0.06	482918	keystroke_Key.backspace	Key.backspace	n/a
241.534	0.075	483068	keystroke_r	r	n/a
241.789	0.06	483578	keystroke_b	b	n/a
241.969	0.045	483938	keystroke_i	i	n/a
242.3585	0.105	484717	keystroke_s	s	n/a
242.4785	0.061	484957	keystroke_h	h	n/a
242.5835	0.061	485167	keystroke_e	e	n/a
242.7195	0.1195	485439	keystroke_d	d	n/a
243.019	0.09	486038	keystroke_Key.enter	Key.enter	n/a
243.1135	7.647	486227	prompt	n/a	soldier alerts viruses cedar\n
243.649	0.09	487298	keystroke_s	s	n/a
243.784	0.075	487568	keystroke_i	i	n/a
243.949	0.06	487898	keystroke_l	l	n/a
244.024	0.1645	488048	keystroke_v	v	n/a
244.5185	0.045	489037	keystroke_Key.backspace	Key.backspace	n/a
244.6385	0.045	489277	keystroke_Key.backspace	Key.backspace	n/a
244.7585	0.06	489517	keystroke_Key.backspace	Key.backspace	n/a
244.9545	0.045	489909	keystroke_o	o	n/a
245.1335	0.06	490267	keystroke_l	l	n/a
245.3295	0.1045	490659	keystroke_d	d	n/a
245.479	0.0745	490958	keystroke_i	i	n/a
245.7485	0.075	491497	keystroke_e	e	n/a
245.9285	0.09	491857	keystroke_r	r	n/a
246.0485	0.0755	492097	keystroke_Key.space	Key.space	n/a
246.3195	0.105	492639	keystroke_a	a	n/a
246.4395	0.075	492879	keystroke_l	l	n/a
246.844	0.1205	493688	keystroke_e	e	n/a
246.9195	0.12	493839	keystroke_r	r	n/a
247.1745	0.09	494349	keystroke_t	t	n/a
247.444	0.12	494888	keystroke_s	s	n/a
247.579	0.105	495158	keystroke_Key.space	Key.space	n/a
247.939	0.105	495878	keystroke_v	v	n/a
248.074	0.105	496148	keystroke_i	i	n/a
248.224	0.09	496448	keystroke_r	r	n/a
248.359	0.09	496718	keystroke_u	u	n/a
248.464	0.09	496928	keystroke_s	s	n/a
248.749	0.075	497498	keystroke_e	e	n/a
248.899	0.105	497798	keystroke_s	s	n/a
249.034	0.09	498068	keystroke_Key.space	Key.space	n/a
249.304	0.06	498608	keystroke_c	c	n/a
249.484	0.06	498968	keystroke_e	e	n/a
249.6645	0.029	499329	keystroke_d	d	n/a
249.7695	0.119	499539	keystroke_a	a	n/a
250.0395	0.044	500079	keystroke_t	t	n/a
250.444	0.06	500888	keystroke_Key.backspace	Key.backspace	n/a
250.489	0.09	500978	keystroke_r	r	n/a
250.684	0.075	501368	keystroke_Key.enter	Key.enter	n/a
250.764	7.107	501528	prompt	n/a	interact betting neighborhood bedford\n
251.4195	0.165	502839	keystroke_i	i	n/a
251.5395	0.104	503079	keystroke_n	n	n/a
251.8235	0.076	503647	keystroke_t	t	n/a
251.9885	0.091	503977	keystroke_e	e	n/a
252.0335	0.09	504067	keystroke_r	r	n/a
252.2435	0.061	504487	keystroke_a	a	n/a
252.4235	0.076	504847	keystroke_c	c	n/a
252.6485	0.076	505297	keystroke_t	t	n/a
252.7685	0.12	505537	keystroke_Key.space	Key.space	n/a
252.9045	0.075	505809	keystroke_b	b	n/a
253.0535	0.09	506107	keystroke_e	e	n/a
253.2335	0.091	506467	keystroke_t	t	n/a
253.3395	0.105	506679	keystroke_t	t	n/a
253.5495	0.135	507099	keystroke_i	i	n/a
253.6395	0.119	507279	keystroke_n	n	n/a
253.7445	0.075	507489	keystroke_g	g	n/a
253.8035	0.121	507607	keystroke_Key.space	Key.space	n/a
253.9095	0.075	507819	keystroke_n	n	n/a
254.0435	0.105	508087	keystroke_e	e	n/a
254.1785	0.09	508357	keystroke_i	i	n/a
254.329	0.105	508658	keystroke_g	g	n/a
254.464	0.06	508928	keystroke_h	h	n/a
254.839	0.06	509678	keystroke_b	b	n/a
255.064	0.075	510128	keystroke_o	o	n/a
255.184	0.06	510368	keystroke_r	r	n/a
255.379	0.06	510758	keystroke_h	h	n/a
255.559	0.045	511118	keystroke_o	o	n/a
255.679	0.09	511358	keystroke_o	o	n/a
255.754	0.12	511508	keystroke_d	d	n/a
255.994	0.09	511988	keystroke_Key.space	Key.space	n/a
256.219	0.075	512438	keystroke_b	b	n/a
256.354	0.03	512708	keystroke_e	e	n/a
256.549	0.09	513098	keystroke_d	d	n/a
256.759	0.09	513518	keystroke_f	f	n/a
256.834	0.09	513668	keystroke_o	o	n/a
257.014	0.12	514028	keystroke_r	r	n/a
257.524	0.135	515048	keystroke_d	d	n/a
257.779	0.0905	515558	keystroke_Key.enter	Key.enter	n/a
257.8735	9.1775	515747	prompt	n/a	assumptions successful jaguar applicable\n
258.5595	0.06	517119	keystroke_a	a	n/a
258.7545	0.03	517509	keystroke_s	s	n/a
258.8895	0.075	517779	keystroke_s	s	n/a
258.9795	0.075	517959	keystroke_u	u	n/a
259.204	0.075	518408	keystroke_m	m	n/a
259.399	0.015	518798	keystroke_p	p	n/a
259.594	0.0755	519188	keystroke_t	t	n/a
259.7745	0.15	519549	keystroke_i	i	n/a
259.8795	0.12	519759	keystroke_o	o	n/a
259.9545	0.09	519909	keystroke_n	n	n/a
260.0895	0.135	520179	keystroke_s	s	n/a
260.2695	0.0895	520539	keystroke_Key.space	Key.space	n/a
260.5395	0.09	521079	keystroke_s	s	n/a
260.8995	0.075	521799	keystroke_u	u	n/a
261.0645	0.045	522129	keystroke_s	s	n/a
261.1845	0.06	522369	keystroke_s	s	n/a
261.5595	0.06	523119	keystroke_Key.backspace	Key.backspace	n/a
261.6945	0.075	523389	keystroke_Key.backspace	Key.backspace	n/a
261.7995	0.06	523599	keystroke_c	c	n/a
261.9345	0.075	523869	keystroke_c	c	n/a
262.1745	0.09	524349	keystroke_e	e	n/a
262.3995	0.045	524799	keystroke_s	s	n/a
262.5045	0.09	525009	keystroke_s	s	n/a
262.9245	0.0745	525849	keystroke_f	f	n/a
263.029	0.06	526058	keystroke_u	u	n/a
263.4795	0.075	526959	keystroke_l	l	n/a
263.6295	0.06	527259	keystroke_Key.space	Key.space	n/a
263.8695	0.09	527739	keystroke_j	j	n/a
263.9745	0.06	527949	keystroke_a	a	n/a
264.2745	0.0895	528549	keystroke_g	g	n/a
264.409	0.06	528818	keystroke_u	u	n/a
264.514	0.0905	529028	keystroke_a	a	n/a
264.6795	0.105	529359	keystroke_r	r	n/a
264.7995	0.105	529599	keystroke_Key.space	Key.space	n/a
264.9195	0.12	529839	keystroke_a	a	n/a
265.2795	0.075	530559	keystroke_p	p	n/a
265.3695	0.15	530739	keystroke_p	p	n/a
265.729	0.06	531458	keystroke_l	l	n/a
265.9845	0.06	531969	keystroke_i	i	n/a
266.1195	0.06	532239	keystroke_c	c	n/a
266.2545	0.105	532509	keystroke_a	a	n/a
266.4495	0.074	532899	keystroke_b	b	n/a
266.6595	0.06	533319	keystroke_l	l	n/a
266.7345	0.075	533469	keystroke_e	e	n/a
267.0035	0.046	534007	keystroke_Key.enter	Key.enter	n/a
267.055	9.581	534110	prompt	n/a	championships specific francisco surprised\n
267.7095	0.1045	535419	keystroke_c	c	n/a
267.829	0.0605	535658	keystroke_h	h	n/a
267.949	0.105	535898	keystroke_a	a	n/a
268.084	0.0755	536168	keystroke_m	m	n/a
268.279	0.0755	536558	keystroke_p	p	n/a
268.5345	0.135	537069	keystroke_i	i	n/a
268.6845	0.18	537369	keystroke_o	o	n/a
268.7895	0.1195	537579	keystroke_n	n	n/a
268.924	0.12	537848	keystroke_s	s	n/a
270.0495	0.0605	540099	keystroke_h	h	n/a
270.259	0.09	540518	keystroke_i	i	n/a
270.515	0.105	541030	keystroke_p	p	n/a
270.634	0.121	541268	keystroke_s	s	n/a
270.829	0.09	541658	keystroke_Key.space	Key.space	n/a
271.039	0.106	542078	keystroke_s	s	n/a
271.13	0.074	542260	keystroke_p	p	n/a
271.22	0.074	542440	keystroke_e	e	n/a
271.459	0.09	542918	keystroke_c	c	n/a
271.624	0.076	543248	keystroke_i	i	n/a
271.79	0.075	543580	keystroke_f	f	n/a
271.97	0.059	543940	keystroke_i	i	n/a
272.044	0.09	544088	keystroke_c	c	n/a
272.809	0.09	545618	keystroke_Key.space	Key.space	n/a
273.1245	0.075	546249	keystroke_f	f	n/a
273.3045	0.06	546609	keystroke_r	r	n/a
273.4395	0.09	546879	keystroke_a	a	n/a
273.5445	0.075	547089	keystroke_n	n	n/a
273.8295	0.09	547659	keystroke_c	c	n/a
273.9495	0.075	547899	keystroke_i	i	n/a
274.0545	0.1045	548109	keystroke_s	s	n/a
274.429	0.12	548858	keystroke_c	c	n/a
274.594	0.09	549188	keystroke_o	o	n/a
274.759	0.075	549518	keystroke_Key.space	Key.space	n/a
275.0745	0.09	550149	keystroke_s	s	n/a
275.2395	0.09	550479	keystroke_u	u	n/a
275.3445	0.09	550689	keystroke_r	r	n/a
275.4945	0.0745	550989	keystroke_p	p	n/a
275.584	0.06	551168	keystroke_r	r	n/a
275.809	0.06	551618	keystroke_i	i	n/a
275.884	0.12	551768	keystroke_s	s	n/a
275.974	0.09	551948	keystroke_e	e	n/a
276.274	0.12	552548	keystroke_d	d	n/a
276.559	0.075	553118	keystroke_Key.enter	Key.enter	n/a
276.6385	6.627	553277	prompt	n/a	reactions woman shock molecular\n
277.2495	0.075	554499	keystroke_r	r	n/a
277.3995	0.075	554799	keystroke_e	e	n/a
277.5345	0.075	555069	keystroke_a	a	n/a
278.0895	0.0895	556179	keystroke_c	c	n/a
278.3285	0.076	556657	keystroke_t	t	n/a
278.5845	0.15	557169	keystroke_i	i	n/a
278.7795	0.135	557559	keystroke_o	o	n/a
278.8545	0.12	557709	keystroke_n	n	n/a
279.0345	0.12	558069	keystroke_s	s	n/a
279.1995	0.06	558399	keystroke_Key.space	Key.space	n/a
279.4095	0.135	558819	keystroke_w	w	n/a
279.4995	0.135	558999	keystroke_o	o	n/a
279.7095	0.06	559419	keystroke_m	m	n/a
279.8295	0.09	559659	keystroke_a	a	n/a
279.9195	0.105	559839	keystroke_n	n	n/a
280.0395	0.074	560079	keystroke_Key.space	Key.space	n/a
280.309	0.075	560618	keystroke_c	c	n/a
280.699	0.045	561398	keystroke_Key.backspace	Key.backspace	n/a
280.834	0.105	561668	keystroke_s	s	n/a
280.984	0.075	561968	keystroke_h	h	n/a
281.209	0.06	562418	keystroke_o	o	n/a
281.359	0.09	562718	keystroke_c	c	n/a
281.479	0.105	562958	keystroke_k	k	n/a
281.629	0.06	563258	keystroke_Key.space	Key.space	n/a
281.795	0.044	563590	keystroke_m	m	n/a
281.899	0.076	563798	keystroke_o	o	n/a
282.139	0.0905	564278	keystroke_l	l	n/a
282.2595	0.075	564519	keystroke_e	e	n/a
282.4845	0.12	564969	keystroke_c	c	n/a
282.5895	0.045	565179	keystroke_u	u	n/a
282.7845	0.09	565569	keystroke_l	l	n/a
282.8295	0.105	565659	keystroke_a	a	n/a
283.0395	0.06	566079	keystroke_r	r	n/a
283.2045	0.06	566409	keystroke_Key.enter	Key.enter	n/a
283.268	6.1775	566536	prompt	n/a	mime interface allan interested\n
283.8195	0.09	567639	keystroke_m	m	n/a
283.9695	0.135	567939	keystroke_i	i	n/a
284.0895	0.135	568179	keystroke_m	m	n/a
284.2545	0.075	568509	keystroke_e	e	n/a
284.3745	0.09	568749	keystroke_Key.space	Key.space	n/a
284.5845	0.105	569169	keystroke_i	i	n/a
284.6445	0.105	569289	keystroke_n	n	n/a
284.7495	0.075	569499	keystroke_t	t	n/a
284.8995	0.105	569799	keystroke_e	e	n/a
284.9445	0.1045	569889	keystroke_r	r	n/a
285.229	0.06	570458	keystroke_f	f	n/a
285.394	0.06	570788	keystroke_a	a	n/a
285.589	0.075	571178	keystroke_c	c	n/a
285.9795	0.09	571959	keystroke_e	e	n/a
286.1735	0.046	572347	keystroke_Key.space	Key.space	n/a
286.324	0.105	572648	keystroke_a	a	n/a
286.6845	0.03	573369	keystroke_l	l	n/a
286.8195	0.059	573639	keystroke_l	l	n/a
286.9095	0.075	573819	keystroke_a	a	n/a
287.0745	0.03	574149	keystroke_n	n	n/a
287.4035	0.091	574807	keystroke_Key.space	Key.space	n/a
287.5995	0.12	575199	keystroke_i	i	n/a
287.6745	0.089	575349	keystroke_n	n	n/a
287.765	0.089	575530	keystroke_t	t	n/a
287.914	0.12	575828	keystroke_e	e	n/a
287.989	0.12	575978	keystroke_r	r	n/a
288.364	0.1055	576728	keystroke_e	e	n/a
288.5895	0.12	577179	keystroke_s	s	n/a
288.8445	0.075	577689	keystroke_t	t	n/a
289.0095	0.075	578019	keystroke_e	e	n/a
289.175	0.119	578350	keystroke_d	d	n/a
289.414	0.03	578828	keystroke_Key.enter	Key.enter	n/a
289.448	14.653	578896	prompt	n/a	preparing initiative fabulous development\n
290.2095	0.12	580419	keystroke_p	p	n/a
290.3145	0.075	580629	keystroke_r	r	n/a
290.4945	0.0745	580989	keystroke_e	e	n/a
290.57	0.089	581140	keystroke_p	p	n/a
290.809	0.075	581618	keystroke_a	a	n/a
291.034	0.09	582068	keystroke_r	r	n/a
291.199	0.12	582398	keystroke_i	i	n/a
291.289	0.105	582578	keystroke_n	n	n/a
291.364	0.075	582728	keystroke_g	g	n/a
291.454	0.105	582908	keystroke_Key.space	Key.space	n/a
291.574	0.12	583148	keystroke_i	i	n/a
291.649	0.105	583298	keystroke_n	n	n/a
291.859	0.0905	583718	keystroke_i	i	n/a
291.9645	0.06	583929	keystroke_t	t	n/a
292.429	0.06	584858	keystroke_i	i	n/a
292.834	0.12	585668	keystroke_a	a	n/a
293.239	0.105	586478	keystroke_t	t	n/a
293.374	0.075	586748	keystroke_i	i	n/a
293.554	0.135	587108	keystroke_v	v	n/a
293.809	0.1205	587618	keystroke_e	e	n/a
293.9745	0.075	587949	keystroke_Key.space	Key.space	n/a
299.317	0.057	598634	keystroke_f	f	n/a
299.584	0.075	599168	keystroke_b	b	n/a
299.959	0.06	599918	keystroke_Key.backspace	Key.backspace	n/a
300.064	0.09	600128	keystroke_a	a	n/a
300.214	0.1205	600428	keystroke_b	b	n/a
300.484	0.09	600968	keystroke_u	u	n/a
300.709	0.075	601418	keystroke_l	l	n/a
300.949	0.135	601898	keystroke_o	o	n/a
301.024	0.09	602048	keystroke_u	u	n/a
301.204	0.12	602408	keystroke_s	s	n/a
301.309	0.075	602618	keystroke_Key.space	Key.space	n/a
301.49	0.075	602980	keystroke_d	d	n/a
301.685	0.045	603370	keystroke_e	e	n/a
301.895	0.09	603790	keystroke_v	v	n/a
302.09	0.09	604180	keystroke_e	e	n/a
302.195	0.09	604390	keystroke_l	l	n/a
302.7195	0.09	605439	keystroke_o	o	n/a
302.989	0.06	605978	keystroke_p	p	n/a
303.424	0.075	606848	keystroke_m	m	n/a
303.544	0.09	607088	keystroke_e	e	n/a
303.649	0.06	607298	keystroke_n	n	n/a
303.739	0.09	607478	keystroke_t	t	n/a
304.009	0.09	608018	keystroke_Key.enter	Key.enter	n/a
304.104	5.877	608208	prompt	n/a	turkey rating wallpaper goals\n
304.895	0.119	609790	keystroke_t	t	n/a
305.074	0.075	610148	keystroke_u	u	n/a
305.134	0.12	610268	keystroke_r	r	n/a
305.299	0.12	610598	keystroke_k	k	n/a
305.449	0.135	610898	keystroke_e	e	n/a
305.629	0.135	611258	keystroke_y	y	n/a
306.169	0.09	612338	keystroke_Key.space	Key.space	n/a
306.244	0.09	612488	keystroke_r	r	n/a
306.424	0.12	612848	keystroke_a	a	n/a
306.664	0.106	613328	keystroke_t	t	n/a
306.784	0.12	613568	keystroke_i	i	n/a
306.874	0.105	613748	keystroke_n	n	n/a
306.934	0.135	613868	keystroke_g	g	n/a
307.099	0.09	614198	keystroke_Key.space	Key.space	n/a
307.459	0.045	614918	keystroke_w	w	n/a
307.759	0.075	615518	keystroke_a	a	n/a
307.864	0.045	615728	keystroke_l	l	n/a
308.014	0.06	616028	keystroke_l	l	n/a
308.224	0.1195	616448	keystroke_p	p	n/a
308.4195	0.105	616839	keystroke_a	a	n/a
308.4795	0.105	616959	keystroke_p	p	n/a
308.7035	0.136	617407	keystroke_e	e	n/a
308.7645	0.135	617529	keystroke_r	r	n/a
308.9885	0.06	617977	keystroke_Key.space	Key.space	n/a
309.1245	0.074	618249	keystroke_g	g	n/a
309.1995	0.074	618399	keystroke_o	o	n/a
309.3345	0.105	618669	keystroke_a	a	n/a
309.4845	0.075	618969	keystroke_l	l	n/a
309.604	0.12	619208	keystroke_s	s	n/a
309.889	0.09	619778	keystroke_Key.enter	Key.enter	n/a
309.9835	10.8425	619967	prompt	n/a	himself evident guests acknowledge\n
311.239	0.09	622478	keystroke_h	h	n/a
311.6745	0.045	623349	keystroke_i	i	n/a
312.0945	0.06	624189	keystroke_m	m	n/a
312.3045	0.075	624609	keystroke_l	l	n/a
312.994	0.045	625988	keystroke_Key.backspace	Key.backspace	n/a
313.084	0.1505	626168	keystroke_s	s	n/a
313.2945	0.105	626589	keystroke_e	e	n/a
313.5495	0.045	627099	keystroke_l	l	n/a
313.6545	0.135	627309	keystroke_f	f	n/a
313.8345	0.075	627669	keystroke_Key.space	Key.space	n/a
314.4045	0.075	628809	keystroke_e	e	n/a
314.5995	0.12	629199	keystroke_v	v	n/a
314.7495	0.075	629499	keystroke_i	i	n/a
314.8845	0.075	629769	keystroke_d	d	n/a
315.0645	0.09	630129	keystroke_e	e	n/a
315.1695	0.105	630339	keystroke_n	n	n/a
315.3045	0.135	630609	keystroke_t	t	n/a
315.4545	0.105	630909	keystroke_Key.space	Key.space	n/a
315.8145	0.105	631629	keystroke_g	g	n/a
315.994	0.06	631988	keystroke_u	u	n/a
316.159	0.091	632318	keystroke_e	e	n/a
316.3545	0.09	632709	keystroke_s	s	n/a
316.5495	0.09	633099	keystroke_t	t	n/a
316.7595	0.105	633519	keystroke_s	s	n/a
316.8795	0.105	633759	keystroke_Key.space	Key.space	n/a
317.1645	0.075	634329	keystroke_a	a	n/a
317.6595	0.06	635319	keystroke_k	k	n/a
318.0645	0.075	636129	keystroke_Key.backspace	Key.backspace	n/a
318.2445	0.0445	636489	keystroke_c	c	n/a
318.349	0.09	636698	keystroke_k	k	n/a
318.5595	0.1045	637119	keystroke_n	n	n/a
319.594	0.075	639188	keystroke_o	o	n/a
319.67	0.134	639340	keystroke_w	w	n/a
319.819	0.135	639638	keystroke_l	l	n/a
319.924	0.09	639848	keystroke_e	e	n/a
320.119	0.105	640238	keystroke_d	d	n/a
320.314	0.09	640628	keystroke_g	g	n/a
320.479	0.135	640958	keystroke_e	e	n/a
320.749	0.075	641498	keystroke_Key.enter	Key.enter	n/a
320.831	7.12	641662	prompt	n/a	stamp extend limitations cage\n
321.334	0.09	642668	keystroke_s	s	n/a
321.559	0.045	643118	keystroke_t	t	n/a
321.754	0.09	643508	keystroke_a	a	n/a
321.889	0.09	643778	keystroke_m	m	n/a
322.024	0.105	644048	keystroke_p	p	n/a
322.144	0.105	644288	keystroke_Key.space	Key.space	n/a
322.339	0.075	644678	keystroke_e	e	n/a
322.564	0.09	645128	keystroke_x	x	n/a
322.894	0.06	645788	keystroke_t	t	n/a
323.059	0.075	646118	keystroke_e	e	n/a
323.209	0.075	646418	keystroke_n	n	n/a
323.434	0.105	646868	keystroke_d	d	n/a
323.7945	0.105	647589	keystroke_Key.space	Key.space	n/a
324.1245	0.09	648249	keystroke_l	l	n/a
324.379	0.075	648758	keystroke_i	i	n/a
324.574	0.0905	649148	keystroke_m	m	n/a
324.7245	0.105	649449	keystroke_i	i	n/a
324.8445	0.105	649689	keystroke_t	t	n/a
325.0695	0.09	650139	keystroke_a	a	n/a
325.2645	0.135	650529	keystroke_t	t	n/a
325.3245	0.24	650649	keystroke_i	i	n/a
325.4595	0.135	650919	keystroke_o	o	n/a
325.5045	0.135	651009	keystroke_n	n	n/a
325.6245	0.12	651249	keystroke_s	s	n/a
325.8045	0.105	651609	keystroke_Key.space	Key.space	n/a
325.969	0.09	651938	keystroke_g	g	n/a
326.224	0.1355	652448	keystroke_a	a	n/a
326.7945	0.045	653589	keystroke_Key.backspace	Key.backspace	n/a
326.9145	0.09	653829	keystroke_Key.backspace	Key.backspace	n/a
326.9745	0.12	653949	keystroke_c	c	n/a
327.1095	0.135	654219	keystroke_a	a	n/a
327.4245	0.09	654849	keystroke_g	g	n/a
327.5895	0.105	655179	keystroke_e	e	n/a
327.8895	0.06	655779	keystroke_Key.enter	Key.enter	n/a
327.9555	12.16	655911	prompt	n/a	associated final personalized bottles\n
330.862	0.073	661724	keystroke_a	a	n/a
331.339	0.075	662678	keystroke_s	s	n/a
331.519	0.135	663038	keystroke_s	s	n/a
333.847	0.027	667694	keystroke_o	o	n/a
334.2045	0.1195	668409	keystroke_c	c	n/a
334.429	0.105	668858	keystroke_i	i	n/a
334.594	0.105	669188	keystroke_a	a	n/a
334.924	0.045	669848	keystroke_t	t	n/a
335.239	0.09	670478	keystroke_e	e	n/a
335.449	0.1055	670898	keystroke_d	d	n/a
335.5695	0.105	671139	keystroke_Key.space	Key.space	n/a
335.6895	0.135	671379	keystroke_f	f	n/a
335.8095	0.15	671619	keystroke_i	i	n/a
335.9445	0.075	671889	keystroke_n	n	n/a
336.0345	0.12	672069	keystroke_a	a	n/a
336.1995	0.1195	672399	keystroke_l	l	n/a
336.334	0.09	672668	keystroke_Key.space	Key.space	n/a
336.814	0.1055	673628	keystroke_p	p	n/a
336.9945	0.105	673989	keystroke_e	e	n/a
337.0545	0.12	674109	keystroke_r	r	n/a
337.4295	0.15	674859	keystroke_s	s	n/a
337.5645	0.105	675129	keystroke_o	o	n/a
337.6995	0.105	675399	keystroke_n	n	n/a
337.8195	0.12	675639	keystroke_a	a	n/a
337.8945	0.09	675789	keystroke_l	l	n/a
338.1195	0.09	676239	keystroke_i	i	n/a
338.2545	0.1345	676509	keystroke_z	z	n/a
338.479	0.075	676958	keystroke_e	e	n/a
338.659	0.12	677318	keystroke_d	d	n/a
338.704	0.135	677408	keystroke_Key.space	Key.space	n/a
338.824	0.075	677648	keystroke_b	b	n/a
338.929	0.105	677858	keystroke_o	o	n/a
339.139	0.075	678278	keystroke_t	t	n/a
339.274	0.105	678548	keystroke_t	t	n/a
339.484	0.06	678968	keystroke_l	l	n/a
339.514	0.09	679028	keystroke_e	e	n/a
339.739	0.12	679478	keystroke_s	s	n/a
340.054	0.06	680108	keystroke_Key.enter	Key.enter	n/a
340.126	11.705	680252	prompt	n/a	teacher excitement counties interventions\n
340.759	0.075	681518	keystroke_t	t	n/a
340.9395	0.105	681879	keystroke_e	e	n/a
341.1345	0.09	682269	keystroke_a	a	n/a
341.3295	0.135	682659	keystroke_c	c	n/a
341.4795	0.075	682959	keystroke_h	h	n/a
341.9295	0.105	683859	keystroke_e	e	n/a
342.0045	0.105	684009	keystroke_r	r	n/a
342.1545	0.105	684309	keystroke_Key.space	Key.space	n/a
343.1145	0.075	686229	keystroke_e	e	n/a
343.834	0.12	687668	keystroke_x	x	n/a
344.524	0.075	689048	keystroke_c	c	n/a
344.719	0.075	689438	keystroke_i	i	n/a
345.544	0.06	691088	keystroke_t	t	n/a
345.784	0.12	691568	keystroke_e	e	n/a
345.889	0.075	691778	keystroke_m	m	n/a
345.979	0.09	691958	keystroke_e	e	n/a
346.099	0.09	692198	keystroke_n	n	n/a
346.264	0.0905	692528	keystroke_t	t	n/a
346.984	0.0905	693968	keystroke_Key.space	Key.space	n/a
347.1945	0.12	694389	keystroke_c	c	n/a
347.3295	0.12	694659	keystroke_o	o	n/a
347.4195	0.045	694839	keystroke_u	u	n/a
347.7345	0.075	695469	keystroke_n	n	n/a
347.8695	0.105	695739	keystroke_t	t	n/a
348.0045	0.09	696009	keystroke_i	i	n/a
348.1245	0.0745	696249	keystroke_e	e	n/a
348.334	0.135	696668	keystroke_s	s	n/a
348.484	0.09	696968	keystroke_Key.space	Key.space	n/a
348.949	0.135	697898	keystroke_o	o	n/a
349.339	0.075	698678	keystroke_Key.backspace	Key.backspace	n/a
349.594	0.135	699188	keystroke_i	i	n/a
349.684	0.075	699368	keystroke_n	n	n/a
349.744	0.075	699488	keystroke_t	t	n/a
349.939	0.09	699878	keystroke_e	e	n/a
349.969	0.12	699938	keystroke_r	r	n/a
350.4495	0.09	700899	keystroke_v	v	n/a
350.6295	0.075	701259	keystroke_e	e	n/a
350.7195	0.075	701439	keystroke_n	n	n/a
350.8245	0.105	701649	keystroke_t	t	n/a
350.9445	0.165	701889	keystroke_i	i	n/a
351.0345	0.135	702069	keystroke_o	o	n/a
351.1245	0.09	702249	keystroke_n	n	n/a
351.1995	0.135	702399	keystroke_s	s	n/a
351.7395	0.09	703479	keystroke_Key.enter	Key.enter	n/a
351.8415	11.269	703683	prompt	n/a	clock afghanistan ends qualify\n
352.4895	0.12	704979	keystroke_c	c	n/a
352.7445	0.09	705489	keystroke_l	l	n/a
353.0595	0.105	706119	keystroke_o	o	n/a
353.2095	0.165	706419	keystroke_c	c	n/a
353.2995	0.12	706599	keystroke_k	k	n/a
353.5545	0.105	707109	keystroke_Key.space	Key.space	n/a
354.0495	0.12	708099	keystroke_a	a	n/a
354.3795	0.09	708759	keystroke_g	g	n/a
354.9335	0.076	709867	keystroke_Key.backspace	Key.backspace	n/a
355.0245	0.09	710049	keystroke_f	f	n/a
355.4745	0.12	710949	keystroke_g	g	n/a
355.7895	0.074	711579	keystroke_h	h	n/a
356.299	0.12	712598	keystroke_a	a	n/a
356.914	0.105	713828	keystroke_n	n	n/a
357.124	0.105	714248	keystroke_i	i	n/a
357.409	0.075	714818	keystroke_s	s	n/a
357.559	0.09	715118	keystroke_t	t	n/a
357.784	0.105	715568	keystroke_a	a	n/a
357.919	0.09	715838	keystroke_n	n	n/a
358.024	0.075	716048	keystroke_d	d	n/a
358.144	0.105	716288	keystroke_Key.space	Key.space	n/a
358.3095	0.074	716619	keystroke_e	e	n/a
358.4295	0.12	716859	keystroke_n	n	n/a
359.1035	0.046	718207	keystroke_Key.backspace	Key.backspace	n/a
359.2245	0.06	718449	keystroke_Key.backspace	Key.backspace	n/a
359.3595	0.059	718719	keystroke_Key.backspace	Key.backspace	n/a
359.4935	0.09	718987	keystroke_Key.backspace	Key.backspace	n/a
359.5985	0.105	719197	keystroke_Key.space	Key.space	n/a
359.7935	0.09	719587	keystroke_e	e	n/a
359.8985	0.09	719797	keystroke_n	n	n/a
360.0035	0.1205	720007	keystroke_d	d	n/a
360.154	0.1495	720308	keystroke_s	s	n/a
360.3045	0.089	720609	keystroke_Key.space	Key.space	n/a
360.5885	0.12	721177	keystroke_q	q	n/a
360.6935	0.135	721387	keystroke_u	u	n/a
360.784	0.1195	721568	keystroke_i	i	n/a
361.0845	0.0745	722169	keystroke_a	a	n/a
361.354	0.0455	722708	keystroke_Key.backspace	Key.backspace	n/a
361.4445	0.075	722889	keystroke_Key.backspace	Key.backspace	n/a
361.5645	0.09	723129	keystroke_a	a	n/a
361.7595	0.12	723519	keystroke_l	l	n/a
361.9995	0.09	723999	keystroke_i	i	n/a
362.5095	0.09	725019	keystroke_f	f	n/a
362.8095	0.045	725619	keystroke_y	y	n/a
363.0645	0.044	726129	keystroke_Key.enter	Key.enter	n/a
363.1145	7.196	726229	prompt	n/a	antibodies liver expires mechanism\n
363.814	0.105	727628	keystroke_a	a	n/a
364.039	0.0895	728078	keystroke_n	n	n/a
364.2495	0.104	728499	keystroke_t	t	n/a
364.3685	0.076	728737	keystroke_i	i	n/a
364.6835	0.06	729367	keystroke_b	b	n/a
364.8035	0.106	729607	keystroke_o	o	n/a
365.2235	0.09	730447	keystroke_d	d	n/a
365.3295	0.059	730659	keystroke_i	i	n/a
365.4335	0.0755	730867	keystroke_e	e	n/a
365.629	0.075	731258	keystroke_s	s	n/a
365.764	0.12	731528	keystroke_Key.space	Key.space	n/a
365.914	0.075	731828	keystroke_l	l	n/a
365.959	0.12	731918	keystroke_i	i	n/a
366.094	0.105	732188	keystroke_v	v	n/a
366.304	0.105	732608	keystroke_e	e	n/a
366.379	0.09	732758	keystroke_r	r	n/a
366.484	0.105	732968	keystroke_Key.space	Key.space	n/a
366.664	0.0605	733328	keystroke_e	e	n/a
366.874	0.075	733748	keystroke_x	x	n/a
367.009	0.18	734018	keystroke_p	p	n/a
367.144	0.09	734288	keystroke_i	i	n/a
367.594	0.105	735188	keystroke_r	r	n/a
367.864	0.09	735728	keystroke_e	e	n/a
368.419	0.105	736838	keystroke_s	s	n/a
368.584	0.045	737168	keystroke_Key.space	Key.space	n/a
368.779	0.09	737558	keystroke_m	m	n/a
368.854	0.06	737708	keystroke_e	e	n/a
369.064	0.075	738128	keystroke_c	c	n/a
369.169	0.075	738338	keystroke_h	h	n/a
369.244	0.105	738488	keystroke_a	a	n/a
369.379	0.0755	738758	keystroke_n	n	n/a
369.529	0.0755	739058	keystroke_i	i	n/a
369.6195	0.105	739239	keystroke_s	s	n/a
369.7695	0.075	739539	keystroke_m	m	n/a
370.234	0.0755	740468	keystroke_Key.enter	Key.enter	n/a
370.3175	6.0985	740635	prompt	n/a	mcdonald luggage comm browsing\n
370.999	0.09	741998	keystroke_m	m	n/a
371.089	0.105	742178	keystroke_c	c	n/a
371.314	0.075	742628	keystroke_d	d	n/a
371.479	0.045	742958	keystroke_o	o	n/a
371.659	0.09	743318	keystroke_n	n	n/a
371.779	0.09	743558	keystroke_a	a	n/a
371.8995	0.0595	743799	keystroke_l	l	n/a
372.334	0.075	744668	keystroke_d	d	n/a
372.469	0.075	744938	keystroke_Key.space	Key.space	n/a
372.649	0.09	745298	keystroke_l	l	n/a
372.859	0.09	745718	keystroke_u	u	n/a
373.039	0.045	746078	keystroke_g	g	n/a
373.144	0.09	746288	keystroke_g	g	n/a
373.399	0.075	746798	keystroke_a	a	n/a
373.624	0.12	747248	keystroke_g	g	n/a
374.2995	0.09	748599	keystroke_e	e	n/a
374.4495	0.105	748899	keystroke_Key.space	Key.space	n/a
374.6445	0.105	749289	keystroke_c	c	n/a
374.7345	0.105	749469	keystroke_o	o	n/a
374.9595	0.045	749919	keystroke_m	m	n/a
375.094	0.09	750188	keystroke_m	m	n/a
375.185	0.119	750370	keystroke_Key.space	Key.space	n/a
375.319	0.09	750638	keystroke_b	b	n/a
375.41	0.074	750820	keystroke_r	r	n/a
375.544	0.075	751088	keystroke_o	o	n/a
375.634	0.06	751268	keystroke_w	w	n/a
375.829	0.105	751658	keystroke_s	s	n/a
375.919	0.105	751838	keystroke_i	i	n/a
375.964	0.12	751928	keystroke_n	n	n/a
376.069	0.075	752138	keystroke_g	g	n/a
376.354	0.0605	752708	keystroke_Key.enter	Key.enter	n/a
376.4265	8.8545	752853	prompt	n/a	detective alpha cardiovascular uniform\n
377.2995	0.09	754599	keystroke_d	d	n/a
377.4945	0.09	754989	keystroke_e	e	n/a
377.7945	0.075	755589	keystroke_t	t	n/a
377.9745	0.09	755949	keystroke_e	e	n/a
378.2745	0.0895	756549	keystroke_c	c	n/a
378.529	0.06	757058	keystroke_t	t	n/a
378.649	0.075	757298	keystroke_i	i	n/a
378.769	0.0605	757538	keystroke_v	v	n/a
378.9045	0.105	757809	keystroke_e	e	n/a
379.0095	0.12	758019	keystroke_Key.space	Key.space	n/a
379.1895	0.12	758379	keystroke_a	a	n/a
379.3245	0.075	758649	keystroke_l	l	n/a
379.5345	0.075	759069	keystroke_p	p	n/a
379.7295	0.075	759459	keystroke_h	h	n/a
379.8495	0.105	759699	keystroke_a	a	n/a
379.9845	0.075	759969	keystroke_Key.space	Key.space	n/a
380.359	0.06	760718	keystroke_d	d	n/a
380.689	0.075	761378	keystroke_Key.backspace	Key.backspace	n/a
380.749	0.15	761498	keystroke_c	c	n/a
380.884	0.1805	761768	keystroke_a	a	n/a
381.2595	0.074	762519	keystroke_r	r	n/a
381.7095	0.059	763419	keystroke_d	d	n/a
381.7695	0.134	763539	keystroke_i	i	n/a
381.9045	0.089	763809	keystroke_o	o	n/a
382.1435	0.061	764287	keystroke_c	c	n/a
382.4885	0.06	764977	keystroke_Key.backspace	Key.backspace	n/a
382.5185	0.075	765037	keystroke_v	v	n/a
382.7285	0.075	765457	keystroke_a	a	n/a
382.9085	0.075	765817	keystroke_s	s	n/a
383.104	0.12	766208	keystroke_c	c	n/a
383.224	0.045	766448	keystroke_u	u	n/a
383.389	0.09	766778	keystroke_l	l	n/a
383.464	0.105	766928	keystroke_a	a	n/a
383.674	0.075	767348	keystroke_r	r	n/a
383.7785	0.135	767557	keystroke_Key.space	Key.space	n/a
383.9585	0.165	767917	keystroke_u	u	n/a
384.1085	0.09	768217	keystroke_n	n	n/a
384.2735	0.1055	768547	keystroke_i	i	n/a
384.589	0.105	769178	keystroke_f	f	n/a
384.724	0.105	769448	keystroke_o	o	n/a
384.859	0.09	769718	keystroke_r	r	n/a
384.964	0.0905	769928	keystroke_m	m	n/a
385.2045	0.075	770409	keystroke_Key.enter	Key.enter	n/a
385.2965	4.244	770593	prompt	n/a	only twisted fill drink\n
385.939	0.105	771878	keystroke_o	o	n/a
386.089	0.09	772178	keystroke_n	n	n/a
386.224	0.1205	772448	keystroke_l	l	n/a
386.3595	0.105	772719	keystroke_y	y	n/a
386.4795	0.09	772959	keystroke_Key.space	Key.space	n/a
386.6445	0.075	773289	keystroke_t	t	n/a
386.8545	0.0895	773709	keystroke_w	w	n/a
386.959	0.06	773918	keystroke_i	i	n/a
387.154	0.09	774308	keystroke_s	s	n/a
387.3795	0.075	774759	keystroke_t	t	n/a
387.4995	0.105	774999	keystroke_e	e	n/a
387.7395	0.09	775479	keystroke_d	d	n/a
387.8895	0.075	775779	keystroke_Key.space	Key.space	n/a
388.1445	0.09	776289	keystroke_f	f	n/a
388.2195	0.0595	776439	keystroke_i	i	n/a
388.414	0.045	776828	keystroke_l	l	n/a
388.549	0.105	777098	keystroke_l	l	n/a
388.639	0.09	777278	keystroke_Key.space	Key.space	n/a
388.714	0.06	777428	keystroke_d	d	n/a
388.9095	0.09	777819	keystroke_r	r	n/a
389.0145	0.03	778029	keystroke_i	i	n/a
389.1195	0.135	778239	keystroke_n	n	n/a
389.2395	0.075	778479	keystroke_k	k	n/a
389.4945	0.045	778989	keystroke_Key.enter	Key.enter	n/a
389.543	5.6075	779086	prompt	n/a	thin windows violent catalyst\n
390.1995	0.09	780399	keystroke_t	t	n/a
390.2745	0.075	780549	keystroke_h	h	n/a
390.4845	0.09	780969	keystroke_i	i	n/a
390.6345	0.09	781269	keystroke_n	n	n/a
390.7385	0.091	781477	keystroke_Key.space	Key.space	n/a
390.8445	0.105	781689	keystroke_w	w	n/a
390.9345	0.09	781869	keystroke_i	i	n/a
390.9795	0.105	781959	keystroke_n	n	n/a
391.0845	0.09	782169	keystroke_d	d	n/a
391.2495	0.09	782499	keystroke_o	o	n/a
391.3245	0.104	782649	keystroke_w	w	n/a
391.5635	0.12	783127	keystroke_s	s	n/a
391.6985	0.06	783397	keystroke_Key.space	Key.space	n/a
392.1635	0.105	784327	keystroke_v	v	n/a
392.2535	0.1655	784507	keystroke_i	i	n/a
392.404	0.09	784808	keystroke_o	o	n/a
392.644	0.045	785288	keystroke_l	l	n/a
392.749	0.075	785498	keystroke_e	e	n/a
392.869	0.075	785738	keystroke_n	n	n/a
392.974	0.105	785948	keystroke_t	t	n/a
393.094	0.09	786188	keystroke_Key.space	Key.space	n/a
393.349	0.09	786698	keystroke_c	c	n/a
393.514	0.09	787028	keystroke_a	a	n/a
393.784	0.06	787568	keystroke_t	t	n/a
393.9785	0.105	787957	keystroke_a	a	n/a
394.0845	0.0595	788169	keystroke_l	l	n/a
394.3535	0.075	788707	keystroke_y	y	n/a
394.5185	0.09	789037	keystroke_s	s	n/a
394.7285	0.06	789457	keystroke_t	t	n/a
395.0735	0.075	790147	keystroke_Key.enter	Key.enter	n/a
395.1535	6.897	790307	prompt	n/a	investigation realtor transfer sleeve\n
395.9135	0.12	791827	keystroke_i	i	n/a
395.9735	0.12	791947	keystroke_n	n	n/a
396.1985	0.1055	792397	keystroke_v	v	n/a
396.334	0.09	792668	keystroke_e	e	n/a
396.559	0.075	793118	keystroke_s	s	n/a
396.754	0.075	793508	keystroke_t	t	n/a
396.844	0.09	793688	keystroke_i	i	n/a
396.994	0.09	793988	keystroke_c	c	n/a
397.3395	0.06	794679	keystroke_Key.backspace	Key.backspace	n/a
397.3845	0.06	794769	keystroke_g	g	n/a
397.5795	0.075	795159	keystroke_a	a	n/a
397.8795	0.075	795759	keystroke_t	t	n/a
397.9695	0.165	795939	keystroke_i	i	n/a
398.0895	0.12	796179	keystroke_o	o	n/a
398.1495	0.135	796299	keystroke_n	n	n/a
398.2995	0.105	796599	keystroke_Key.space	Key.space	n/a
398.4945	0.09	796989	keystroke_r	r	n/a
398.6595	0.075	797319	keystroke_e	e	n/a
398.824	0.09	797648	keystroke_a	a	n/a
398.899	0.09	797798	keystroke_l	l	n/a
399.109	0.075	798218	keystroke_t	t	n/a
399.259	0.075	798518	keystroke_o	o	n/a
399.364	0.12	798728	keystroke_r	r	n/a
399.499	0.075	798998	keystroke_Key.space	Key.space	n/a
399.724	0.075	799448	keystroke_t	t	n/a
399.874	0.09	799748	keystroke_r	r	n/a
400.069	0.075	800138	keystroke_a	a	n/a
400.159	0.075	800318	keystroke_n	n	n/a
400.249	0.0905	800498	keystroke_s	s	n/a
400.4595	0.075	800919	keystroke_f	f	n/a
400.6845	0.12	801369	keystroke_e	e	n/a
400.7445	0.105	801489	keystroke_r	r	n/a
400.9395	0.075	801879	keystroke_Key.space	Key.space	n/a
401.0895	0.105	802179	keystroke_s	s	n/a
401.2095	0.075	802419	keystroke_l	l	n/a
401.3145	0.06	802629	keystroke_e	e	n/a
401.4495	0.06	802899	keystroke_e	e	n/a
401.6445	0.075	803289	keystroke_v	v	n/a
401.8095	0.09	803619	keystroke_e	e	n/a
401.9445	0.105	803889	keystroke_Key.enter	Key.enter	n/a
402.054	6.1615	804108	prompt	n/a	accessible links risk celebrities\n
402.634	0.045	805268	keystroke_a	a	n/a
402.949	0.045	805898	keystroke_c	c	n/a
403.084	0.06	806168	keystroke_c	c	n/a
403.249	0.075	806498	keystroke_e	e	n/a
403.459	0.045	806918	keystroke_s	s	n/a
403.564	0.1055	807128	keystroke_s	s	n/a
403.7595	0.0745	807519	keystroke_i	i	n/a
403.939	0.045	807878	keystroke_b	b	n/a
404.074	0.09	808148	keystroke_l	l	n/a
404.209	0.06	808418	keystroke_e	e	n/a
404.329	0.105	808658	keystroke_Key.space	Key.space	n/a
404.479	0.105	808958	keystroke_l	l	n/a
404.569	0.105	809138	keystroke_i	i	n/a
404.734	0.12	809468	keystroke_n	n	n/a
404.839	0.09	809678	keystroke_k	k	n/a
404.959	0.12	809918	keystroke_s	s	n/a
405.109	0.075	810218	keystroke_Key.space	Key.space	n/a
405.409	0.06	810818	keystroke_r	r	n/a
405.544	0.075	811088	keystroke_i	i	n/a
405.679	0.105	811358	keystroke_s	s	n/a
406.024	0.09	812048	keystroke_k	k	n/a
406.129	0.09	812258	keystroke_Key.space	Key.space	n/a
406.6845	0.105	813369	keystroke_c	c	n/a
406.8945	0.09	813789	keystroke_e	e	n/a
406.9995	0.075	813999	keystroke_l	l	n/a
407.0895	0.09	814179	keystroke_e	e	n/a
407.1945	0.09	814389	keystroke_b	b	n/a
407.2995	0.0895	814599	keystroke_r	r	n/a
407.434	0.075	814868	keystroke_i	i	n/a
407.629	0.075	815258	keystroke_t	t	n/a
407.705	0.074	815410	keystroke_i	i	n/a
407.809	0.075	815618	keystroke_e	e	n/a
408.004	0.105	816008	keystroke_s	s	n/a
408.139	0.075	816278	keystroke_Key.enter	Key.enter	n/a
408.22	4.6155	816440	prompt	n/a	reaching coat pages external\n
408.7545	0.09	817509	keystroke_r	r	n/a
408.9035	0.09	817807	keystroke_e	e	n/a
409.0545	0.0895	818109	keystroke_a	a	n/a
409.249	0.09	818498	keystroke_c	c	n/a
409.354	0.06	818708	keystroke_h	h	n/a
409.504	0.135	819008	keystroke_i	i	n/a
409.579	0.105	819158	keystroke_n	n	n/a
409.654	0.09	819308	keystroke_g	g	n/a
409.774	0.075	819548	keystroke_Key.space	Key.space	n/a
409.909	0.105	819818	keystroke_c	c	n/a
410.134	0.015	820268	keystroke_o	o	n/a
410.164	0.075	820328	keystroke_a	a	n/a
410.3445	0.059	820689	keystroke_t	t	n/a
410.4335	0.075	820867	keystroke_Key.space	Key.space	n/a
410.5835	0.106	821167	keystroke_p	p	n/a
410.6735	0.075	821347	keystroke_a	a	n/a
410.8535	0.09	821707	keystroke_g	g	n/a
411.0045	0.089	822009	keystroke_e	e	n/a
411.1835	0.09	822367	keystroke_s	s	n/a
411.2745	0.089	822549	keystroke_Key.space	Key.space	n/a
411.4545	0.075	822909	keystroke_e	e	n/a
411.6785	0.03	823357	keystroke_x	x	n/a
411.889	0.075	823778	keystroke_t	t	n/a
412.084	0.09	824168	keystroke_e	e	n/a
412.114	0.12	824228	keystroke_r	r	n/a
412.3385	0.076	824677	keystroke_n	n	n/a
412.4585	0.105	824917	keystroke_a	a	n/a
412.5485	0.06	825097	keystroke_l	l	n/a
412.7885	0.045	825577	keystroke_Key.enter	Key.enter	n/a
412.841	5.8445	825682	prompt	n/a	belfast plumbing frost whole\n
413.809	0.0755	827618	keystroke_b	b	n/a
413.9595	0.075	827919	keystroke_e	e	n/a
414.0945	0.075	828189	keystroke_l	l	n/a
414.4245	0.075	828849	keystroke_f	f	n/a
414.6045	0.075	829209	keystroke_a	a	n/a
414.7995	0.075	829599	keystroke_s	s	n/a
414.9645	0.09	829929	keystroke_t	t	n/a
415.0695	0.09	830139	keystroke_Key.space	Key.space	n/a
415.219	0.105	830438	keystroke_p	p	n/a
415.474	0.09	830948	keystroke_l	l	n/a
415.819	0.105	831638	keystroke_u	u	n/a
416.119	0.075	832238	keystroke_m	m	n/a
416.3595	0.06	832719	keystroke_b	b	n/a
416.5545	0.06	833109	keystroke_i	i	n/a
416.7195	0.09	833439	keystroke_n	n	n/a
416.8245	0.105	833649	keystroke_g	g	n/a
416.9145	0.0895	833829	keystroke_Key.space	Key.space	n/a
417.169	0.075	834338	keystroke_f	f	n/a
417.364	0.06	834728	keystroke_r	r	n/a
417.469	0.03	834938	keystroke_o	o	n/a
417.574	0.075	835148	keystroke_s	s	n/a
417.754	0.06	835508	keystroke_t	t	n/a
417.829	0.075	835658	keystroke_Key.space	Key.space	n/a
417.949	0.12	835898	keystroke_w	w	n/a
418.039	0.12	836078	keystroke_h	h	n/a
418.129	0.0755	836258	keystroke_o	o	n/a
418.339	0.075	836678	keystroke_l	l	n/a
418.399	0.09	836798	keystroke_e	e	n/a
418.639	0.045	837278	keystroke_Key.enter	Key.enter	n/a
418.688	6.6875	837376	prompt	n/a	marvel lang vernon dragon\n
419.614	0.075	839228	keystroke_a	a	n/a
419.944	0.03	839888	keystroke_Key.backspace	Key.backspace	n/a
420.154	0.06	840308	keystroke_m	m	n/a
420.215	0.074	840430	keystroke_a	a	n/a
420.634	0.075	841268	keystroke_r	r	n/a
420.859	0.105	841718	keystroke_v	v	n/a
421.069	0.09	842138	keystroke_e	e	n/a
421.174	0.09	842348	keystroke_l	l	n/a
421.279	0.075	842558	keystroke_Key.space	Key.space	n/a
421.399	0.105	842798	keystroke_l	l	n/a
421.489	0.12	842978	keystroke_a	a	n/a
421.639	0.105	843278	keystroke_n	n	n/a
421.834	0.09	843668	keystroke_g	g	n/a
422.3595	0.075	844719	keystroke_Key.space	Key.space	n/a
422.5095	0.12	845019	keystroke_v	v	n/a
422.7045	0.12	845409	keystroke_e	e	n/a
422.7495	0.15	845499	keystroke_r	r	n/a
422.9145	0.075	845829	keystroke_n	n	n/a
423.1395	0.09	846279	keystroke_n	n	n/a
423.4845	0.045	846969	keystroke_Key.backspace	Key.backspace	n/a
423.7095	0.18	847419	keystroke_o	o	n/a
423.8295	0.105	847659	keystroke_n	n	n/a
424.0085	0.0755	848017	keystroke_Key.space	Key.space	n/a
424.399	0.0445	848798	keystroke_d	d	n/a
424.534	0.045	849068	keystroke_r	r	n/a
424.684	0.06	849368	keystroke_a	a	n/a
424.834	0.12	849668	keystroke_g	g	n/a
424.999	0.12	849998	keystroke_o	o	n/a
425.089	0.075	850178	keystroke_n	n	n/a
425.2985	0.0755	850597	keystroke_Key.enter	Key.enter	n/a
425.3795	5.726	850759	prompt	n/a	licking places subsidiaries y'all\n
425.9895	0.075	851979	keystroke_l	l	n/a
426.1395	0.105	852279	keystroke_i	i	n/a
426.3045	0.09	852609	keystroke_c	c	n/a
426.3645	0.06	852729	keystroke_k	k	n/a
426.5445	0.12	853089	keystroke_i	i	n/a
426.6495	0.075	853299	keystroke_n	n	n/a
426.7095	0.1045	853419	keystroke_g	g	n/a
426.829	0.15	853658	keystroke_Key.space	Key.space	n/a
427.009	0.15	854018	keystroke_p	p	n/a
427.069	0.12	854138	keystroke_l	l	n/a
427.204	0.075	854408	keystroke_a	a	n/a
427.3995	0.09	854799	keystroke_c	c	n/a
427.5795	0.09	855159	keystroke_e	e	n/a
427.8495	0.12	855699	keystroke_s	s	n/a
427.9845	0.075	855969	keystroke_Key.space	Key.space	n/a
428.1195	0.105	856239	keystroke_s	s	n/a
428.2695	0.1045	856539	keystroke_u	u	n/a
428.434	0.105	856868	keystroke_b	b	n/a
428.599	0.105	857198	keystroke_s	s	n/a
428.719	0.09	857438	keystroke_i	i	n/a
428.974	0.1045	857948	keystroke_d	d	n/a
429.0645	0.059	858129	keystroke_i	i	n/a
429.2435	0.105	858487	keystroke_a	a	n/a
429.4385	0.105	858877	keystroke_r	r	n/a
429.6185	0.076	859237	keystroke_i	i	n/a
429.7085	0.06	859417	keystroke_e	e	n/a
429.9035	0.09	859807	keystroke_s	s	n/a
430.0235	0.075	860047	keystroke_Key.space	Key.space	n/a
430.2185	0.09	860437	keystroke_y	y	n/a
430.4285	0.075	860857	keystroke_'	'	n/a
430.5335	0.1055	861067	keystroke_a	a	n/a
430.6845	0.0745	861369	keystroke_l	l	n/a
430.834	0.0895	861668	keystroke_l	l	n/a
431.0285	0.075	862057	keystroke_Key.enter	Key.enter	n/a
431.109	7.0315	862218	prompt	n/a	sponsors moldova impaired classroom\n
431.8535	0.105	863707	keystroke_s	s	n/a
432.2435	0.06	864487	keystroke_p	p	n/a
432.5285	0.075	865057	keystroke_o	o	n/a
432.7235	0.075	865447	keystroke_n	n	n/a
432.8435	0.1055	865687	keystroke_s	s	n/a
433.0085	0.06	866017	keystroke_o	o	n/a
433.1435	0.075	866287	keystroke_r	r	n/a
433.3395	0.104	866679	keystroke_s	s	n/a
433.3985	0.15	866797	keystroke_Key.space	Key.space	n/a
433.5345	0.09	867069	keystroke_m	m	n/a
433.7135	0.075	867427	keystroke_o	o	n/a
433.894	0.075	867788	keystroke_l	l	n/a
434.104	0.1195	868208	keystroke_d	d	n/a
434.2535	0.061	868507	keystroke_o	o	n/a
434.5245	0.09	869049	keystroke_v	v	n/a
434.8845	0.075	869769	keystroke_a	a	n/a
435.0045	0.06	870009	keystroke_Key.space	Key.space	n/a
435.199	0.135	870398	keystroke_i	i	n/a
435.304	0.105	870608	keystroke_m	m	n/a
435.529	0.06	871058	keystroke_p	p	n/a
435.604	0.105	871208	keystroke_a	a	n/a
435.739	0.105	871478	keystroke_i	i	n/a
435.874	0.09	871748	keystroke_r	r	n/a
436.129	0.045	872258	keystroke_e	e	n/a
436.324	0.075	872648	keystroke_d	d	n/a
436.6395	0.09	873279	keystroke_Key.space	Key.space	n/a
436.7895	0.075	873579	keystroke_c	c	n/a
436.9095	0.06	873819	keystroke_l	l	n/a
436.9845	0.06	873969	keystroke_a	a	n/a
437.1645	0.045	874329	keystroke_s	s	n/a
437.2845	0.075	874569	keystroke_s	s	n/a
437.4345	0.105	874869	keystroke_r	r	n/a
437.5545	0.075	875109	keystroke_o	o	n/a
437.7195	0.105	875439	keystroke_o	o	n/a
437.8395	0.12	875679	keystroke_m	m	n/a
438.0645	0.075	876129	keystroke_Key.enter	Key.enter	n/a
438.152	5.4185	876304	prompt	n/a	driver netherlands units passion\n
438.7395	0.105	877479	keystroke_d	d	n/a
438.9795	0.075	877959	keystroke_r	r	n/a
439.0845	0.105	878169	keystroke_i	i	n/a
439.2045	0.06	878409	keystroke_v	v	n/a
439.3545	0.09	878709	keystroke_e	e	n/a
439.3995	0.09	878799	keystroke_r	r	n/a
440.0295	0.075	880059	keystroke_Key.space	Key.space	n/a
440.3445	0.105	880689	keystroke_n	n	n/a
440.4645	0.06	880929	keystroke_e	e	n/a
440.6445	0.075	881289	keystroke_t	t	n/a
440.7045	0.075	881409	keystroke_h	h	n/a
440.8095	0.09	881619	keystroke_e	e	n/a
440.8545	0.09	881709	keystroke_r	r	n/a
441.0195	0.06	882039	keystroke_l	l	n/a
441.1095	0.09	882219	keystroke_a	a	n/a
441.2295	0.09	882459	keystroke_n	n	n/a
441.3045	0.075	882609	keystroke_d	d	n/a
441.4245	0.12	882849	keystroke_s	s	n/a
441.5595	0.09	883119	keystroke_Key.space	Key.space	n/a
441.6945	0.075	883389	keystroke_u	u	n/a
441.8445	0.075	883689	keystroke_n	n	n/a
442.0395	0.015	884079	keystroke_i	i	n/a
442.0845	0.06	884169	keystroke_t	t	n/a
442.3845	0.105	884769	keystroke_s	s	n/a
442.5045	0.09	885009	keystroke_Key.space	Key.space	n/a
442.6395	0.075	885279	keystroke_p	p	n/a
442.7295	0.045	885459	keystroke_a	a	n/a
442.8945	0.045	885789	keystroke_s	s	n/a
443.0145	0.105	886029	keystroke_s	s	n/a
443.0595	0.165	886119	keystroke_i	i	n/a
443.1645	0.135	886329	keystroke_o	o	n/a
443.2395	0.105	886479	keystroke_n	n	n/a
443.5095	0.06	887019	keystroke_Key.enter	Key.enter	n/a
443.573	7.1975	887146	prompt	n/a	compatibility at these're builders\n
444.2895	0.0895	888579	keystroke_c	c	n/a
444.499	0.105	888998	keystroke_o	o	n/a
444.574	0.105	889148	keystroke_m	m	n/a
444.784	0.075	889568	keystroke_p	p	n/a
444.874	0.105	889748	keystroke_a	a	n/a
445.204	0.09	890408	keystroke_t	t	n/a
445.444	0.06	890888	keystroke_i	i	n/a
445.654	0.06	891308	keystroke_b	b	n/a
445.849	0.06	891698	keystroke_i	i	n/a
445.999	0.105	891998	keystroke_l	l	n/a
446.105	0.119	892210	keystroke_i	i	n/a
446.2845	0.105	892569	keystroke_t	t	n/a
446.4495	0.06	892899	keystroke_y	y	n/a
446.5245	0.09	893049	keystroke_Key.space	Key.space	n/a
446.6295	0.09	893259	keystroke_a	a	n/a
446.8545	0.06	893709	keystroke_t	t	n/a
446.8995	0.09	893799	keystroke_Key.space	Key.space	n/a
447.0045	0.06	894009	keystroke_t	t	n/a
447.0795	0.06	894159	keystroke_h	h	n/a
447.1695	0.12	894339	keystroke_e	e	n/a
447.2595	0.12	894519	keystroke_r	r	n/a
447.4245	0.06	894849	keystroke_e	e	n/a
447.904	0.045	895808	keystroke_Key.backspace	Key.backspace	n/a
447.964	0.09	895928	keystroke_s	s	n/a
448.279	0.06	896558	keystroke_Key.backspace	Key.backspace	n/a
448.399	0.105	896798	keystroke_Key.backspace	Key.backspace	n/a
448.489	0.15	896978	keystroke_s	s	n/a
448.609	0.12	897218	keystroke_e	e	n/a
448.849	0.09	897698	keystroke_'	'	n/a
448.984	0.06	897968	keystroke_r	r	n/a
449.134	0.09	898268	keystroke_e	e	n/a
449.239	0.09	898478	keystroke_Key.space	Key.space	n/a
449.554	0.015	899108	keystroke_b	b	n/a
449.689	0.15	899378	keystroke_u	u	n/a
449.8695	0.0895	899739	keystroke_i	i	n/a
450.064	0.12	900128	keystroke_l	l	n/a
450.139	0.105	900278	keystroke_d	d	n/a
450.364	0.105	900728	keystroke_e	e	n/a
450.409	0.09	900818	keystroke_r	r	n/a
450.619	0.075	901238	keystroke_s	s	n/a
450.739	0.03	901478	keystroke_Key.enter	Key.enter	n/a
450.773	7.348	901546	prompt	n/a	network pushing teacher survival\n
451.6845	0.075	903369	keystroke_n	n	n/a
451.7735	0.06	903547	keystroke_e	e	n/a
451.9695	0.059	903939	keystroke_t	t	n/a
452.1795	0.1045	904359	keystroke_w	w	n/a
452.2985	0.06	904597	keystroke_e	e	n/a
452.4045	0.089	904809	keystroke_o	o	n/a
452.7635	0.045	905527	keystroke_Key.backspace	Key.backspace	n/a
452.8685	0.061	905737	keystroke_Key.backspace	Key.backspace	n/a
453.0645	0.044	906129	keystroke_o	o	n/a
453.2295	0.074	906459	keystroke_r	r	n/a
453.3185	0.12	906637	keystroke_k	k	n/a
453.5885	0.09	907177	keystroke_Key.space	Key.space	n/a
453.8585	0.075	907717	keystroke_p	p	n/a
454.0685	0.0605	908137	keystroke_u	u	n/a
454.189	0.105	908378	keystroke_s	s	n/a
454.264	0.075	908528	keystroke_h	h	n/a
454.4295	0.1645	908859	keystroke_i	i	n/a
454.519	0.12	909038	keystroke_n	n	n/a
454.624	0.075	909248	keystroke_g	g	n/a
454.654	0.09	909308	keystroke_Key.space	Key.space	n/a
455.209	0.09	910418	keystroke_t	t	n/a
455.5245	0.015	911049	keystroke_e	e	n/a
455.6745	0.075	911349	keystroke_a	a	n/a
455.8845	0.105	911769	keystroke_c	c	n/a
456.0045	0.075	912009	keystroke_h	h	n/a
456.1845	0.1045	912369	keystroke_e	e	n/a
456.2295	0.1195	912459	keystroke_r	r	n/a
456.379	0.075	912758	keystroke_Key.space	Key.space	n/a
456.514	0.09	913028	keystroke_s	s	n/a
456.754	0.0755	913508	keystroke_u	u	n/a
456.9495	0.075	913899	keystroke_r	r	n/a
457.2045	0.075	914409	keystroke_v	v	n/a
457.3095	0.09	914619	keystroke_i	i	n/a
457.3845	0.09	914769	keystroke_v	v	n/a
457.6695	0.075	915339	keystroke_a	a	n/a
457.7745	0.075	915549	keystroke_l	l	n/a
458.0745	0.045	916149	keystroke_Key.enter	Key.enter	n/a
458.124	6.1165	916248	prompt	n/a	integral sets classes nothing\n
458.914	0.15	917828	keystroke_i	i	n/a
459.019	0.105	918038	keystroke_n	n	n/a
459.469	0.0755	918938	keystroke_t	t	n/a
459.6495	0.06	919299	keystroke_e	e	n/a
459.9495	0.06	919899	keystroke_g	g	n/a
460.1295	0.06	920259	keystroke_r	r	n/a
460.279	0.12	920558	keystroke_a	a	n/a
460.414	0.09	920828	keystroke_l	l	n/a
460.474	0.09	920948	keystroke_Key.space	Key.space	n/a
460.565	0.134	921130	keystroke_s	s	n/a
460.684	0.09	921368	keystroke_e	e	n/a
460.894	0.06	921788	keystroke_t	t	n/a
461.089	0.09	922178	keystroke_s	s	n/a
461.254	0.105	922508	keystroke_Key.space	Key.space	n/a
461.374	0.105	922748	keystroke_c	c	n/a
461.524	0.06	923048	keystroke_l	l	n/a
461.599	0.105	923198	keystroke_a	a	n/a
461.9445	0.06	923889	keystroke_s	s	n/a
462.0645	0.09	924129	keystroke_s	s	n/a
462.1695	0.045	924339	keystroke_s	s	n/a
462.6795	0.06	925359	keystroke_Key.backspace	Key.backspace	n/a
462.7695	0.06	925539	keystroke_e	e	n/a
462.9495	0.075	925899	keystroke_s	s	n/a
463.0395	0.06	926079	keystroke_Key.space	Key.space	n/a
463.2345	0.06	926469	keystroke_n	n	n/a
463.3695	0.075	926739	keystroke_o	o	n/a
463.4895	0.075	926979	keystroke_t	t	n/a
463.5795	0.0595	927159	keystroke_h	h	n/a
463.684	0.24	927368	keystroke_i	i	n/a
463.834	0.12	927668	keystroke_n	n	n/a
463.969	0.09	927938	keystroke_g	g	n/a
464.179	0.06	928358	keystroke_Key.enter	Key.enter	n/a
464.2435	7.182	928487	prompt	n/a	facial patterns patches australia\n
464.7945	0.09	929589	keystroke_f	f	n/a
464.9595	0.0745	929919	keystroke_a	a	n/a
465.184	0.075	930368	keystroke_c	c	n/a
465.304	0.075	930608	keystroke_i	i	n/a
465.4095	0.105	930819	keystroke_a	a	n/a
465.4845	0.135	930969	keystroke_l	l	n/a
465.6035	0.075	931207	keystroke_Key.space	Key.space	n/a
465.7685	0.0755	931537	keystroke_p	p	n/a
465.829	0.09	931658	keystroke_a	a	n/a
466.039	0.0605	932078	keystroke_t	t	n/a
466.1745	0.075	932349	keystroke_t	t	n/a
466.3095	0.105	932619	keystroke_e	e	n/a
466.3695	0.09	932739	keystroke_r	r	n/a
466.789	0.06	933578	keystroke_n	n	n/a
466.999	0.105	933998	keystroke_s	s	n/a
467.164	0.045	934328	keystroke_Key.space	Key.space	n/a
467.554	0.075	935108	keystroke_p	p	n/a
467.644	0.0905	935288	keystroke_a	a	n/a
467.8845	0.045	935769	keystroke_t	t	n/a
468.0945	0.09	936189	keystroke_c	c	n/a
468.2145	0.06	936429	keystroke_h	h	n/a
468.4845	0.045	936969	keystroke_e	e	n/a
468.889	0.105	937778	keystroke_s	s	n/a
469.084	0.09	938168	keystroke_Key.space	Key.space	n/a
469.234	0.12	938468	keystroke_a	a	n/a
469.459	0.075	938918	keystroke_u	u	n/a
469.564	0.09	939128	keystroke_s	s	n/a
469.789	0.06	939578	keystroke_t	t	n/a
469.924	0.09	939848	keystroke_r	r	n/a
470.119	0.105	940238	keystroke_a	a	n/a
470.239	0.1205	940478	keystroke_i	i	n/a
470.629	0.045	941258	keystroke_Key.backspace	Key.backspace	n/a
470.839	0.075	941678	keystroke_l	l	n/a
471.064	0.06	942128	keystroke_i	i	n/a
471.139	0.105	942278	keystroke_a	a	n/a
471.394	0.03	942788	keystroke_Key.enter	Key.enter	n/a
471.429	8.6665	942858	prompt	n/a	territory renewal holy ranks\n
471.9945	0.09	943989	keystroke_t	t	n/a
472.1445	0.135	944289	keystroke_e	e	n/a
472.2645	0.09	944529	keystroke_r	r	n/a
472.4295	0.105	944859	keystroke_r	r	n/a
472.5495	0.06	945099	keystroke_i	i	n/a
472.8495	0.09	945699	keystroke_t	t	n/a
473.1045	0.0745	946209	keystroke_o	o	n/a
473.314	0.135	946628	keystroke_r	r	n/a
473.614	0.12	947228	keystroke_y	y	n/a
474.0795	0.045	948159	keystroke_Key.space	Key.space	n/a
474.559	0.09	949118	keystroke_r	r	n/a
474.739	0.09	949478	keystroke_e	e	n/a
474.814	0.075	949628	keystroke_n	n	n/a
474.904	0.09	949808	keystroke_e	e	n/a
475.414	0.12	950828	keystroke_w	w	n/a
475.654	0.09	951308	keystroke_a	a	n/a
475.774	0.1355	951548	keystroke_l	l	n/a
476.3285	0.075	952657	keystroke_Key.space	Key.space	n/a
476.5395	0.104	953079	keystroke_h	h	n/a
476.6585	0.06	953317	keystroke_o	o	n/a
476.8535	0.06	953707	keystroke_l	l	n/a
477.0635	0.12	954127	keystroke_y	y	n/a
477.1845	0.0595	954369	keystroke_Key.space	Key.space	n/a
479.074	0.076	958148	keystroke_r	r	n/a
479.269	0.09	958538	keystroke_a	a	n/a
479.374	0.09	958748	keystroke_n	n	n/a
479.419	0.12	958838	keystroke_k	k	n/a
479.554	0.075	959108	keystroke_s	s	n/a
480.019	0.075	960038	keystroke_Key.enter	Key.enter	n/a
480.0985	5.052	960197	prompt	n/a	stem former dose cleaners\n
480.994	0.15	961988	keystroke_s	s	n/a
481.249	0.06	962498	keystroke_t	t	n/a
481.4145	0.105	962829	keystroke_e	e	n/a
481.5345	0.075	963069	keystroke_m	m	n/a
481.7295	0.09	963459	keystroke_Key.space	Key.space	n/a
481.9395	0.09	963879	keystroke_f	f	n/a
482.0595	0.075	964119	keystroke_o	o	n/a
482.1495	0.075	964299	keystroke_r	r	n/a
482.2995	0.09	964599	keystroke_m	m	n/a
482.4345	0.09	964869	keystroke_e	e	n/a
482.4795	0.105	964959	keystroke_r	r	n/a
482.6295	0.075	965259	keystroke_Key.space	Key.space	n/a
482.8395	0.105	965679	keystroke_d	d	n/a
482.9745	0.075	965949	keystroke_o	o	n/a
483.154	0.15	966308	keystroke_s	s	n/a
483.274	0.09	966548	keystroke_e	e	n/a
483.424	0.09	966848	keystroke_Key.space	Key.space	n/a
483.694	0.105	967388	keystroke_c	c	n/a
483.829	0.06	967658	keystroke_l	l	n/a
483.934	0.12	967868	keystroke_e	e	n/a
484.1585	0.1205	968317	keystroke_a	a	n/a
484.2495	0.0895	968499	keystroke_n	n	n/a
484.534	0.135	969068	keystroke_e	e	n/a
484.624	0.09	969248	keystroke_r	r	n/a
484.834	0.105	969668	keystroke_s	s	n/a
485.059	0.09	970118	keystroke_Key.enter	Key.enter	n/a
485.154	8.8165	970308	prompt	n/a	concentrate aircraft cleveland weird\n
486.604	0.09	973208	keystroke_c	c	n/a
486.859	0.075	973718	keystroke_o	o	n/a
486.949	0.0905	973898	keystroke_n	n	n/a
487.0695	0.1195	974139	keystroke_c	c	n/a
487.2345	0.1045	974469	keystroke_e	e	n/a
487.4145	0.0895	974829	keystroke_n	n	n/a
487.654	0.06	975308	keystroke_t	t	n/a
487.774	0.105	975548	keystroke_r	r	n/a
487.999	0.09	975998	keystroke_a	a	n/a
488.224	0.045	976448	keystroke_t	t	n/a
488.3745	0.09	976749	keystroke_e	e	n/a
488.5545	0.06	977109	keystroke_Key.space	Key.space	n/a
488.7945	0.09	977589	keystroke_a	a	n/a
488.8695	0.09	977739	keystroke_i	i	n/a
489.0045	0.0895	978009	keystroke_r	r	n/a
489.259	0.075	978518	keystroke_c	c	n/a
489.454	0.06	978908	keystroke_r	r	n/a
489.634	0.045	979268	keystroke_a	a	n/a
489.904	0.09	979808	keystroke_f	f	n/a
490.099	0.09	980198	keystroke_t	t	n/a
490.2935	0.075	980587	keystroke_Key.space	Key.space	n/a
490.8035	0.0905	981607	keystroke_c	c	n/a
490.939	0.06	981878	keystroke_l	l	n/a
491.014	0.06	982028	keystroke_e	e	n/a
491.1945	0.09	982389	keystroke_v	v	n/a
491.3445	0.105	982689	keystroke_e	e	n/a
491.4945	0.075	982989	keystroke_n	n	n/a
491.8545	0.045	983709	keystroke_Key.backspace	Key.backspace	n/a
492.0795	0.075	984159	keystroke_l	l	n/a
492.1995	0.075	984399	keystroke_a	a	n/a
492.334	0.09	984668	keystroke_n	n	n/a
492.409	0.09	984818	keystroke_d	d	n/a
492.754	0.105	985508	keystroke_Key.space	Key.space	n/a
492.889	0.15	985778	keystroke_w	w	n/a
492.979	0.12	985958	keystroke_e	e	n/a
493.144	0.105	986288	keystroke_i	i	n/a
493.309	0.075	986618	keystroke_r	r	n/a
493.489	0.09	986978	keystroke_d	d	n/a
493.8785	0.09	987757	keystroke_Key.enter	Key.enter	n/a
493.975	8.8155	987950	prompt	n/a	targets combine listings step\n
494.6595	0.089	989319	keystroke_t	t	n/a
494.8685	0.1505	989737	keystroke_a	a	n/a
495.139	0.075	990278	keystroke_r	r	n/a
495.619	0.135	991238	keystroke_g	g	n/a
495.889	0.15	991778	keystroke_e	e	n/a
496.159	0.105	992318	keystroke_t	t	n/a
496.399	0.12	992798	keystroke_s	s	n/a
496.534	0.105	993068	keystroke_Key.space	Key.space	n/a
496.759	0.1355	993518	keystroke_c	c	n/a
496.9695	0.12	993939	keystroke_o	o	n/a
497.0435	0.091	994087	keystroke_m	m	n/a
497.2535	0.061	994507	keystroke_p	p	n/a
497.779	0.03	995558	keystroke_Key.backspace	Key.backspace	n/a
498.004	0.075	996008	keystroke_b	b	n/a
498.184	0.105	996368	keystroke_i	i	n/a
498.304	0.09	996608	keystroke_n	n	n/a
498.409	0.09	996818	keystroke_e	e	n/a
498.514	0.0905	997028	keystroke_Key.space	Key.space	n/a
498.6645	0.105	997329	keystroke_l	l	n/a
498.7545	0.09	997509	keystroke_i	i	n/a
498.8595	0.12	997719	keystroke_s	s	n/a
499.0845	0.09	998169	keystroke_t	t	n/a
499.2045	0.135	998409	keystroke_i	i	n/a
499.3095	0.105	998619	keystroke_n	n	n/a
499.4595	0.1045	998919	keystroke_g	g	n/a
499.549	0.09	999098	keystroke_Key.space	Key.space	n/a
499.714	0.135	999428	keystroke_s	s	n/a
499.819	0.045	999638	keystroke_p	p	n/a
500.239	0.1045	1000478	keystroke_t	t	n/a
500.6285	0.21	1001257	keystroke_Key.backspace	Key.backspace	n/a
500.8985	0.09	1001797	keystroke_t	t	n/a
501.3185	0.03	1002637	keystroke_Key.backspace	Key.backspace	n/a
501.4235	0.06	1002847	keystroke_Key.backspace	Key.backspace	n/a
501.829	0.06	1003658	keystroke_t	t	n/a
502.219	0.045	1004438	keystroke_e	e	n/a
502.3385	0.045	1004677	keystroke_p	p	n/a
502.744	0.045	1005488	keystroke_Key.enter	Key.enter	n/a
502.7935	5.637	1005587	prompt	n/a	supervision oval guidance ultra\n
503.3735	0.12	1006747	keystroke_s	s	n/a
503.6435	0.06	1007287	keystroke_u	u	n/a
503.764	0.1045	1007528	keystroke_p	p	n/a
503.9135	0.09	1007827	keystroke_e	e	n/a
503.9585	0.091	1007917	keystroke_r	r	n/a
504.2135	0.0755	1008427	keystroke_v	v	n/a
504.304	0.03	1008608	keystroke_i	i	n/a
504.454	0.0895	1008908	keystroke_s	s	n/a
504.7535	0.12	1009507	keystroke_i	i	n/a
504.8435	0.195	1009687	keystroke_o	o	n/a
505.0085	0.12	1010017	keystroke_n	n	n/a
505.1735	0.06	1010347	keystroke_Key.space	Key.space	n/a
505.4435	0.12	1010887	keystroke_o	o	n/a
505.5495	0.105	1011099	keystroke_v	v	n/a
505.6995	0.164	1011399	keystroke_a	a	n/a
505.8335	0.09	1011667	keystroke_l	l	n/a
505.9385	0.0755	1011877	keystroke_Key.space	Key.space	n/a
506.194	0.06	1012388	keystroke_g	g	n/a
506.269	0.135	1012538	keystroke_u	u	n/a
506.374	0.12	1012748	keystroke_i	i	n/a
506.509	0.105	1013018	keystroke_d	d	n/a
506.719	0.09	1013438	keystroke_a	a	n/a
506.824	0.09	1013648	keystroke_n	n	n/a
506.974	0.09	1013948	keystroke_c	c	n/a
507.109	0.09	1014218	keystroke_e	e	n/a
507.214	0.0745	1014428	keystroke_Key.space	Key.space	n/a
507.3945	0.09	1014789	keystroke_u	u	n/a
507.5895	0.075	1015179	keystroke_l	l	n/a
507.6345	0.105	1015269	keystroke_t	t	n/a
507.9345	0.075	1015869	keystroke_r	r	n/a
508.1295	0.1045	1016259	keystroke_a	a	n/a
508.354	0.075	1016708	keystroke_Key.enter	Key.enter	n/a
508.433	8.2775	1016866	prompt	n/a	simplified civilization insects dome\n
508.9545	0.12	1017909	keystroke_s	s	n/a
509.3595	0.045	1018719	keystroke_i	i	n/a
509.5545	0.06	1019109	keystroke_m	m	n/a
509.8395	0.06	1019679	keystroke_p	p	n/a
509.8545	0.105	1019709	keystroke_l	l	n/a
510.154	0.075	1020308	keystroke_i	i	n/a
510.514	0.06	1021028	keystroke_f	f	n/a
510.634	0.105	1021268	keystroke_i	i	n/a
510.769	0.09	1021538	keystroke_e	e	n/a
510.979	0.075	1021958	keystroke_d	d	n/a
511.084	0.075	1022168	keystroke_Key.space	Key.space	n/a
511.189	0.09	1022378	keystroke_c	c	n/a
511.294	0.075	1022588	keystroke_i	i	n/a
511.459	0.06	1022918	keystroke_v	v	n/a
511.549	0.075	1023098	keystroke_i	i	n/a
511.789	0.09	1023578	keystroke_l	l	n/a
511.969	0.09	1023938	keystroke_i	i	n/a
512.164	0.075	1024328	keystroke_s	s	n/a
512.509	0.045	1025018	keystroke_Key.backspace	Key.backspace	n/a
512.539	0.075	1025078	keystroke_z	z	n/a
512.764	0.09	1025528	keystroke_a	a	n/a
513.034	0.09	1026068	keystroke_t	t	n/a
513.139	0.195	1026278	keystroke_i	i	n/a
513.244	0.105	1026488	keystroke_o	o	n/a
513.274	0.135	1026548	keystroke_n	n	n/a
513.41	0.104	1026820	keystroke_Key.space	Key.space	n/a
513.499	0.09	1026998	keystroke_s	s	n/a
513.604	0.09	1027208	keystroke_i	i	n/a
513.949	0.03	1027898	keystroke_Key.backspace	Key.backspace	n/a
514.054	0.045	1028108	keystroke_Key.backspace	Key.backspace	n/a
514.264	0.12	1028528	keystroke_i	i	n/a
514.324	0.09	1028648	keystroke_n	n	n/a
514.459	0.165	1028918	keystroke_s	s	n/a
514.669	0.105	1029338	keystroke_e	e	n/a
514.999	0.09	1029998	keystroke_c	c	n/a
515.209	0.075	1030418	keystroke_t	t	n/a
515.4345	0.03	1030869	keystroke_s	s	n/a
515.4795	0.105	1030959	keystroke_Key.space	Key.space	n/a
515.5995	0.09	1031199	keystroke_d	d	n/a
515.6745	0.135	1031349	keystroke_o	o	n/a
515.8245	0.045	1031649	keystroke_n	n	n/a
516.1545	0.045	1032309	keystroke_Key.backspace	Key.backspace	n/a
516.349	0.075	1032698	keystroke_m	m	n/a
516.454	0.06	1032908	keystroke_e	e	n/a
516.649	0.06	1033298	keystroke_Key.enter	Key.enter	n/a
516.7135	5.307	1033427	prompt	n/a	thumbs split levels fallen\n
517.159	0.105	1034318	keystroke_s	s	n/a
517.519	0.06	1035038	keystroke_Key.backspace	Key.backspace	n/a
517.594	0.105	1035188	keystroke_t	t	n/a
517.804	0.09	1035608	keystroke_h	h	n/a
517.954	0.075	1035908	keystroke_u	u	n/a
518.164	0.06	1036328	keystroke_m	m	n/a
518.3745	0.06	1036749	keystroke_b	b	n/a
518.4645	0.105	1036929	keystroke_s	s	n/a
518.5845	0.075	1037169	keystroke_Key.space	Key.space	n/a
518.7195	0.12	1037439	keystroke_s	s	n/a
518.8245	0.09	1037649	keystroke_p	p	n/a
519.094	0.075	1038188	keystroke_l	l	n/a
519.409	0.09	1038818	keystroke_i	i	n/a
519.559	0.09	1039118	keystroke_t	t	n/a
519.724	0.075	1039448	keystroke_Key.space	Key.space	n/a
520.099	0.105	1040198	keystroke_l	l	n/a
520.279	0.0755	1040558	keystroke_e	e	n/a
520.4595	0.09	1040919	keystroke_v	v	n/a
520.5945	0.09	1041189	keystroke_e	e	n/a
520.6995	0.075	1041399	keystroke_l	l	n/a
520.8495	0.09	1041699	keystroke_s	s	n/a
520.9545	0.09	1041909	keystroke_Key.space	Key.space	n/a
521.1195	0.075	1042239	keystroke_f	f	n/a
521.2695	0.105	1042539	keystroke_a	a	n/a
521.3595	0.06	1042719	keystroke_l	l	n/a
521.5095	0.075	1043019	keystroke_l	l	n/a
521.5995	0.06	1043199	keystroke_e	e	n/a
521.7045	0.075	1043409	keystroke_n	n	n/a
521.9445	0.075	1043889	keystroke_Key.enter	Key.enter	n/a
522.0235	6.927	1044047	prompt	n/a	manufacture forwarding fold presence\n
522.6945	0.06	1045389	keystroke_m	m	n/a
522.7845	0.135	1045569	keystroke_a	a	n/a
522.9195	0.075	1045839	keystroke_n	n	n/a
523.1595	0.075	1046319	keystroke_u	u	n/a
523.4445	0.075	1046889	keystroke_f	f	n/a
523.6245	0.074	1047249	keystroke_a	a	n/a
523.8195	0.059	1047639	keystroke_c	c	n/a
524.0295	0.0595	1048059	keystroke_t	t	n/a
524.209	0.045	1048418	keystroke_u	u	n/a
524.269	0.075	1048538	keystroke_r	r	n/a
524.494	0.06	1048988	keystroke_e	e	n/a
524.644	0.0905	1049288	keystroke_Key.space	Key.space	n/a
524.8995	0.0595	1049799	keystroke_f	f	n/a
525.0045	0.09	1050009	keystroke_o	o	n/a
525.0795	0.06	1050159	keystroke_r	r	n/a
525.2595	0.045	1050519	keystroke_w	w	n/a
525.4095	0.09	1050819	keystroke_a	a	n/a
525.6045	0.075	1051209	keystroke_r	r	n/a
525.7995	0.075	1051599	keystroke_d	d	n/a
525.9045	0.18	1051809	keystroke_i	i	n/a
526.0395	0.105	1052079	keystroke_n	n	n/a
526.1295	0.075	1052259	keystroke_g	g	n/a
526.2345	0.0895	1052469	keystroke_Key.space	Key.space	n/a
526.4595	0.105	1052919	keystroke_f	f	n/a
526.5495	0.06	1053099	keystroke_o	o	n/a
526.7895	0.074	1053579	keystroke_l	l	n/a
526.9095	0.105	1053819	keystroke_d	d	n/a
527.0145	0.074	1054029	keystroke_Key.space	Key.space	n/a
527.3595	0.09	1054719	keystroke_p	p	n/a
527.4345	0.075	1054869	keystroke_r	r	n/a
527.5835	0.076	1055167	keystroke_e	e	n/a
527.7795	0.074	1055559	keystroke_s	s	n/a
527.9595	0.075	1055919	keystroke_e	e	n/a
528.0795	0.09	1056159	keystroke_n	n	n/a
528.2445	0.075	1056489	keystroke_s	s	n/a
528.5295	0.074	1057059	keystroke_Key.backspace	Key.backspace	n/a
528.5895	0.06	1057179	keystroke_c	c	n/a
528.7095	0.104	1057419	keystroke_e	e	n/a
528.9035	0.045	1057807	keystroke_Key.enter	Key.enter	n/a
528.956	5.9495	1057912	prompt	n/a	lightweight slim earrings phases\n
529.504	0.0905	1059008	keystroke_l	l	n/a
529.6845	0.075	1059369	keystroke_i	i	n/a
529.8045	0.12	1059609	keystroke_g	g	n/a
529.9245	0.06	1059849	keystroke_h	h	n/a
529.9995	0.09	1059999	keystroke_t	t	n/a
530.2395	0.1195	1060479	keystroke_w	w	n/a
530.344	0.0905	1060688	keystroke_e	e	n/a
530.4645	0.075	1060929	keystroke_i	i	n/a
530.8995	0.075	1061799	keystroke_g	g	n/a
531.0045	0.075	1062009	keystroke_h	h	n/a
531.1095	0.09	1062219	keystroke_t	t	n/a
531.3195	0.09	1062639	keystroke_Key.space	Key.space	n/a
531.5895	0.135	1063179	keystroke_s	s	n/a
531.6795	0.1045	1063359	keystroke_l	l	n/a
531.874	0.075	1063748	keystroke_i	i	n/a
532.174	0.09	1064348	keystroke_m	m	n/a
532.324	0.09	1064648	keystroke_Key.space	Key.space	n/a
532.669	0.075	1065338	keystroke_e	e	n/a
532.879	0.09	1065758	keystroke_a	a	n/a
533.119	0.0445	1066238	keystroke_r	r	n/a
533.2385	0.09	1066477	keystroke_r	r	n/a
533.2995	0.119	1066599	keystroke_i	i	n/a
533.3885	0.105	1066777	keystroke_n	n	n/a
533.4785	0.09	1066957	keystroke_g	g	n/a
533.7035	0.061	1067407	keystroke_s	s	n/a
533.7785	0.09	1067557	keystroke_Key.space	Key.space	n/a
533.9435	0.076	1067887	keystroke_p	p	n/a
534.0785	0.09	1068157	keystroke_h	h	n/a
534.1835	0.09	1068367	keystroke_a	a	n/a
534.3785	0.075	1068757	keystroke_s	s	n/a
534.514	0.09	1069028	keystroke_e	e	n/a
534.679	0.12	1069358	keystroke_s	s	n/a
534.814	0.09	1069628	keystroke_Key.enter	Key.enter	n/a
534.9105	7.96	1069821	prompt	n/a	pleasant ethernet disciplinary cooked\n
535.729	0.135	1071458	keystroke_p	p	n/a
535.819	0.1195	1071638	keystroke_l	l	n/a
535.9395	0.074	1071879	keystroke_e	e	n/a
536.1185	0.09	1072237	keystroke_a	a	n/a
536.3135	0.136	1072627	keystroke_s	s	n/a
536.4185	0.105	1072837	keystroke_e	e	n/a
537.1535	0.045	1074307	keystroke_Key.backspace	Key.backspace	n/a
537.2285	0.12	1074457	keystroke_a	a	n/a
537.4085	0.09	1074817	keystroke_n	n	n/a
537.5585	0.075	1075117	keystroke_t	t	n/a
537.7085	0.075	1075417	keystroke_Key.space	Key.space	n/a
538.2345	0.1195	1076469	keystroke_e	e	n/a
538.474	0.075	1076948	keystroke_t	t	n/a
538.564	0.0595	1077128	keystroke_h	h	n/a
538.6385	0.105	1077277	keystroke_e	e	n/a
538.7135	0.075	1077427	keystroke_r	r	n/a
538.909	0.0445	1077818	keystroke_n	n	n/a
538.9545	0.089	1077909	keystroke_e	e	n/a
539.1485	0.075	1078297	keystroke_t	t	n/a
539.2685	0.075	1078537	keystroke_Key.space	Key.space	n/a
539.4785	0.12	1078957	keystroke_d	d	n/a
539.6735	0.045	1079347	keystroke_i	i	n/a
539.7485	0.076	1079497	keystroke_s	s	n/a
539.8985	0.1055	1079797	keystroke_c	c	n/a
540.184	0.06	1080368	keystroke_i	i	n/a
540.6785	0.12	1081357	keystroke_p	p	n/a
540.7545	0.09	1081509	keystroke_l	l	n/a
541.0085	0.06	1082017	keystroke_i	i	n/a
541.1885	0.06	1082377	keystroke_n	n	n/a
541.2635	0.09	1082527	keystroke_a	a	n/a
541.5035	0.106	1083007	keystroke_r	r	n/a
541.6835	0.075	1083367	keystroke_y	y	n/a
541.8185	0.0905	1083637	keystroke_Key.space	Key.space	n/a
542.014	0.09	1084028	keystroke_c	c	n/a
542.089	0.06	1084178	keystroke_o	o	n/a
542.254	0.09	1084508	keystroke_o	o	n/a
542.314	0.12	1084628	keystroke_k	k	n/a
542.419	0.075	1084838	keystroke_e	e	n/a
542.599	0.1045	1085198	keystroke_d	d	n/a
542.8235	0.045	1085647	keystroke_Key.enter	Key.enter	n/a
542.874	8.6215	1085748	prompt	n/a	australia blacks provisions ampland\n
543.5745	0.104	1087149	keystroke_a	a	n/a
543.7385	0.09	1087477	keystroke_u	u	n/a
543.8735	0.12	1087747	keystroke_s	s	n/a
544.0985	0.0755	1088197	keystroke_t	t	n/a
