onset	duration	sample	value	key	prompt_text
2.632	10.04	5264	prompt	n/a	the quick brown fox jumps over a lazy dog\n
3.75	0.001	7500	keystroke_t	t	n/a
3.8225	0.09	7645	keystroke_h	h	n/a
4.617	0.106	9234	keystroke_e	e	n/a
4.798	0.0895	9596	keystroke_Key.space	Key.space	n/a
4.9025	0.1055	9805	keystroke_q	q	n/a
5.1125	0.0755	10225	keystroke_u	u	n/a
5.248	0.1045	10496	keystroke_i	i	n/a
5.4125	0.0905	10825	keystroke_c	c	n/a
5.487	0.121	10974	keystroke_k	k	n/a
5.6375	0.0755	11275	keystroke_Key.space	Key.space	n/a
5.8335	0.0585	11667	keystroke_b	b	n/a
5.9785	0.0745	11957	keystroke_r	r	n/a
6.023	0.1195	12046	keystroke_o	o	n/a
6.188	0.12	12376	keystroke_w	w	n/a
6.2925	0.09	12585	keystroke_n	n	n/a
6.474	0.09	12948	keystroke_Key.space	Key.space	n/a
6.698	0.061	13396	keystroke_f	f	n/a
6.789	0.105	13578	keystroke_o	o	n/a
7.059	0.0755	14118	keystroke_x	x	n/a
7.164	0.076	14328	keystroke_Key.space	Key.space	n/a
7.3	0.105	14600	keystroke_j	j	n/a
7.48	0.105	14960	keystroke_u	u	n/a
7.6895	0.09	15379	keystroke_m	m	n/a
7.8995	0.0905	15799	keystroke_p	p	n/a
8.0045	0.12	16009	keystroke_s	s	n/a
8.1395	0.06	16279	keystroke_Key.space	Key.space	n/a
8.2895	0.0895	16579	keystroke_o	o	n/a
8.5585	0.136	17117	keystroke_v	v	n/a
8.8295	0.165	17659	keystroke_e	e	n/a
8.9495	0.15	17899	keystroke_r	r	n/a
9.0845	0.105	18169	keystroke_Key.space	Key.space	n/a
9.5045	0.105	19009	keystroke_a	a	n/a
9.714	0.105	19428	keystroke_Key.space	Key.space	n/a
9.9095	0.12	19819	keystroke_l	l	n/a
10.0445	0.105	20089	keystroke_a	a	n/a
10.3885	0.121	20777	keystroke_z	z	n/a
10.5685	0.076	21137	keystroke_y	y	n/a
10.7195	0.075	21439	keystroke_Key.space	Key.space	n/a
12.0095	0.0745	24019	keystroke_d	d	n/a
12.1	0.104	24200	keystroke_o	o	n/a
12.3245	0.06	24649	keystroke_g	g	n/a
12.5795	0.09	25159	keystroke_Key.enter	Key.enter	n/a
12.6765	6.805	25353	prompt	n/a	anchor bargains weighted raised\n
13.3895	0.105	26779	keystroke_a	a	n/a
13.5095	0.105	27019	keystroke_n	n	n/a
13.6445	0.075	27289	keystroke_c	c	n/a
13.78	0.0745	27560	keystroke_h	h	n/a
14.079	0.015	28158	keystroke_o	o	n/a
14.095	0.0745	28190	keystroke_r	r	n/a
14.2145	0.09	28429	keystroke_Key.space	Key.space	n/a
14.5145	0.09	29029	keystroke_b	b	n/a
14.6945	0.1495	29389	keystroke_a	a	n/a
14.8745	0.0745	29749	keystroke_r	r	n/a
14.995	0.0895	29990	keystroke_g	g	n/a
15.1295	0.12	30259	keystroke_a	a	n/a
15.2645	0.0905	30529	keystroke_i	i	n/a
15.4445	0.0895	30889	keystroke_n	n	n/a
15.7445	0.06	31489	keystroke_Key.space	Key.space	n/a
16.1045	0.09	32209	keystroke_Key.backspace	Key.backspace	n/a
16.239	0.1055	32478	keystroke_s	s	n/a
16.3895	0.09	32779	keystroke_Key.space	Key.space	n/a
16.6895	0.105	33379	keystroke_w	w	n/a
17.1245	0.0745	34249	keystroke_e	e	n/a
17.274	0.0905	34548	keystroke_i	i	n/a
17.4095	0.075	34819	keystroke_g	g	n/a
17.5445	0.09	35089	keystroke_h	h	n/a
17.6195	0.135	35239	keystroke_t	t	n/a
17.9045	0.1655	35809	keystroke_e	e	n/a
18.055	0.1195	36110	keystroke_d	d	n/a
18.3085	0.0905	36617	keystroke_Key.space	Key.space	n/a
18.55	0.1045	37100	keystroke_r	r	n/a
18.7145	0.12	37429	keystroke_a	a	n/a
18.8195	0.074	37639	keystroke_i	i	n/a
18.924	0.1355	37848	keystroke_s	s	n/a
19.0745	0.12	38149	keystroke_e	e	n/a
19.2245	0.105	38449	keystroke_d	d	n/a
19.4045	0.075	38809	keystroke_Key.enter	Key.enter	n/a
19.486	11.3815	38972	prompt	n/a	hebrew evaluated bangkok trackback\n
20.1995	0.075	40399	keystroke_h	h	n/a
20.2895	0.15	40579	keystroke_e	e	n/a
20.6945	0.0595	41389	keystroke_r	r	n/a
21.114	0.1055	42228	keystroke_Key.backspace	Key.backspace	n/a
21.52	0.09	43040	keystroke_b	b	n/a
21.9095	0.1955	43819	keystroke_r	r	n/a
22.0445	0.21	44089	keystroke_e	e	n/a
22.194	0.1505	44388	keystroke_w	w	n/a
22.7645	0.014	45529	keystroke_Key.space	Key.space	n/a
23.2145	0.075	46429	keystroke_e	e	n/a
23.4545	0.12	46909	keystroke_v	v	n/a
23.5895	0.15	47179	keystroke_a	a	n/a
23.7695	0.105	47539	keystroke_l	l	n/a
23.9795	0.09	47959	keystroke_u	u	n/a
24.1295	0.1195	48259	keystroke_r	r	n/a
24.3845	0.1355	48769	keystroke_a	a	n/a
24.6395	0.09	49279	keystroke_Key.backspace	Key.backspace	n/a
24.8045	0.09	49609	keystroke_Key.backspace	Key.backspace	n/a
24.9845	0.12	49969	keystroke_a	a	n/a
25.1345	0.105	50269	keystroke_t	t	n/a
25.375	0.1945	50750	keystroke_e	e	n/a
25.5245	0.1495	51049	keystroke_d	d	n/a
25.7345	0.1045	51469	keystroke_Key.space	Key.space	n/a
26.6045	0.09	53209	keystroke_b	b	n/a
26.6795	0.105	53359	keystroke_a	a	n/a
26.844	0.0755	53688	keystroke_n	n	n/a
26.979	0.09	53958	keystroke_g	g	n/a
27.174	0.0905	54348	keystroke_k	k	n/a
27.3545	0.12	54709	keystroke_o	o	n/a
27.5345	0.12	55069	keystroke_k	k	n/a
27.6995	0.075	55399	keystroke_Key.space	Key.space	n/a
29.0195	0.1795	58039	keystroke_t	t	n/a
29.184	0.105	58368	keystroke_r	r	n/a
29.244	0.136	58488	keystroke_a	a	n/a
29.499	0.105	58998	keystroke_c	c	n/a
29.619	0.09	59238	keystroke_k	k	n/a
30.279	0.045	60558	keystroke_b	b	n/a
30.3395	0.059	60679	keystroke_a	a	n/a
30.385	0.104	60770	keystroke_c	c	n/a
30.5635	0.0765	61127	keystroke_k	k	n/a
30.7595	0.105	61519	keystroke_Key.enter	Key.enter	n/a
30.8725	6.624	61745	prompt	n/a	generally edit receive isn't\n
31.5845	0.075	63169	keystroke_g	g	n/a
31.6745	0.09	63349	keystroke_e	e	n/a
31.8095	0.105	63619	keystroke_n	n	n/a
31.8995	0.1965	63799	keystroke_e	e	n/a
32.0195	0.135	64039	keystroke_r	r	n/a
32.1395	0.105	64279	keystroke_a	a	n/a
32.2595	0.045	64519	keystroke_l	l	n/a
32.4245	0.045	64849	keystroke_l	l	n/a
32.7095	0.075	65419	keystroke_y	y	n/a
32.9195	0.09	65839	keystroke_Key.space	Key.space	n/a
33.2345	0.105	66469	keystroke_e	e	n/a
33.429	0.0905	66858	keystroke_d	d	n/a
33.625	0.1195	67250	keystroke_i	i	n/a
33.79	0.104	67580	keystroke_t	t	n/a
33.999	0.06	67998	keystroke_Key.space	Key.space	n/a
34.285	0.1195	68570	keystroke_r	r	n/a
34.4205	0.089	68841	keystroke_e	e	n/a
34.6445	0.09	69289	keystroke_c	c	n/a
34.7795	0.1055	69559	keystroke_e	e	n/a
34.9	0.074	69800	keystroke_i	i	n/a
35.2445	0.12	70489	keystroke_v	v	n/a
35.484	0.0905	70968	keystroke_e	e	n/a
35.6495	0.0895	71299	keystroke_Key.space	Key.space	n/a
35.875	0.0745	71750	keystroke_i	i	n/a
36.0245	0.105	72049	keystroke_s	s	n/a
36.2345	0.06	72469	keystroke_n	n	n/a
36.714	0.105	73428	keystroke_'	'	n/a
36.925	0.0895	73850	keystroke_t	t	n/a
37.419	0.0755	74838	keystroke_Key.enter	Key.enter	n/a
37.5015	12.266	75003	prompt	n/a	expenditures anonymous andrew closest\n
38.109	0.09	76218	keystroke_e	e	n/a
38.6045	0.045	77209	keystroke_x	x	n/a
38.695	0.1195	77390	keystroke_p	p	n/a
38.8595	0.0905	77719	keystroke_e	e	n/a
39.159	0.09	78318	keystroke_n	n	n/a
39.445	0.104	78890	keystroke_s	s	n/a
40.0145	0.0595	80029	keystroke_Key.backspace	Key.backspace	n/a
40.33	0.075	80660	keystroke_d	d	n/a
41.6495	0.0895	83299	keystroke_i	i	n/a
42.3995	0.075	84799	keystroke_t	t	n/a
42.5345	0.06	85069	keystroke_u	u	n/a
42.67	0.2245	85340	keystroke_r	r	n/a
42.8345	0.225	85669	keystroke_e	e	n/a
42.9995	0.135	85999	keystroke_s	s	n/a
43.2095	0.09	86419	keystroke_Key.space	Key.space	n/a
43.7945	0.12	87589	keystroke_a	a	n/a
43.8995	0.03	87799	keystroke_n	n	n/a
44.215	0.1045	88430	keystroke_o	o	n/a
44.4395	0.09	88879	keystroke_n	n	n/a
44.7395	0.09	89479	keystroke_y	y	n/a
45.0245	0.09	90049	keystroke_m	m	n/a
45.2945	0.015	90589	keystroke_o	o	n/a
45.3995	0.09	90799	keystroke_u	u	n/a
45.55	0.104	91100	keystroke_s	s	n/a
45.699	0.0745	91398	keystroke_Key.space	Key.space	n/a
45.819	0.091	91638	keystroke_a	a	n/a
45.94	0.0895	91880	keystroke_n	n	n/a
46.1795	0.075	92359	keystroke_d	d	n/a
46.419	0.1505	92838	keystroke_r	r	n/a
46.5545	0.195	93109	keystroke_e	e	n/a
46.7045	0.135	93409	keystroke_w	w	n/a
46.9745	0.075	93949	keystroke_Key.space	Key.space	n/a
47.3795	0.075	94759	keystroke_c	c	n/a
47.515	0.0895	95030	keystroke_l	l	n/a
47.6945	0.0755	95389	keystroke_o	o	n/a
48.2045	0.045	96409	keystroke_s	s	n/a
48.415	0.1045	96830	keystroke_e	e	n/a
48.895	0.089	97790	keystroke_s	s	n/a
49.3	0.089	98600	keystroke_t	t	n/a
49.6895	0.0745	99379	keystroke_Key.enter	Key.enter	n/a
49.772	8.725	99544	prompt	n/a	recognition accurate parents permission\n
50.544	0.12	101088	keystroke_r	r	n/a
50.68	0.059	101360	keystroke_e	e	n/a
50.86	0.0895	101720	keystroke_c	c	n/a
50.9945	0.1045	101989	keystroke_o	o	n/a
51.114	0.0895	102228	keystroke_g	g	n/a
51.235	0.1055	102470	keystroke_n	n	n/a
51.4445	0.1055	102889	keystroke_i	i	n/a
51.895	0.0895	103790	keystroke_t	t	n/a
52.014	0.0755	104028	keystroke_i	i	n/a
52.134	0.1055	104268	keystroke_o	o	n/a
52.36	0.074	104720	keystroke_n	n	n/a
52.5395	0.0745	105079	keystroke_Key.space	Key.space	n/a
52.674	0.105	105348	keystroke_a	a	n/a
52.884	0.045	105768	keystroke_c	c	n/a
53.0345	0.0605	106069	keystroke_c	c	n/a
53.199	0.06	106398	keystroke_u	u	n/a
53.305	0.119	106610	keystroke_r	r	n/a
53.439	0.105	106878	keystroke_a	a	n/a
53.769	0.106	107538	keystroke_t	t	n/a
53.964	0.1055	107928	keystroke_e	e	n/a
54.1445	0.09	108289	keystroke_Key.space	Key.space	n/a
54.4295	0.09	108859	keystroke_p	p	n/a
54.535	0.1195	109070	keystroke_a	a	n/a
54.6695	0.135	109339	keystroke_r	r	n/a
54.8195	0.12	109639	keystroke_e	e	n/a
54.9845	0.09	109969	keystroke_n	n	n/a
55.0895	0.1195	110179	keystroke_t	t	n/a
55.24	0.12	110480	keystroke_s	s	n/a
55.4195	0.1495	110839	keystroke_Key.space	Key.space	n/a
55.719	0.0905	111438	keystroke_p	p	n/a
55.84	0.179	111680	keystroke_e	e	n/a
55.959	0.15	111918	keystroke_r	r	n/a
56.1845	0.075	112369	keystroke_s	s	n/a
56.47	0.075	112940	keystroke_m	m	n/a
56.7545	0.075	113509	keystroke_Key.backspace	Key.backspace	n/a
56.9195	0.045	113839	keystroke_Key.backspace	Key.backspace	n/a
57.189	0.09	114378	keystroke_m	m	n/a
57.399	0.106	114798	keystroke_i	i	n/a
57.55	0.104	115100	keystroke_s	s	n/a
57.7145	0.0895	115429	keystroke_s	s	n/a
57.864	0.06	115728	keystroke_i	i	n/a
57.984	0.0905	115968	keystroke_o	o	n/a
58.149	0.12	116298	keystroke_n	n	n/a
58.4195	0.0745	116839	keystroke_Key.enter	Key.enter	n/a
58.502	9.894	117004	prompt	n/a	detroit translated scripts quotations\n
59.245	0.089	118490	keystroke_d	d	n/a
59.7245	0.09	119449	keystroke_e	e	n/a
59.965	0.1195	119930	keystroke_t	t	n/a
60.145	0.075	120290	keystroke_r	r	n/a
60.385	0.089	120770	keystroke_o	o	n/a
60.5645	0.0905	121129	keystroke_i	i	n/a
60.73	0.104	121460	keystroke_t	t	n/a
61.06	0.09	122120	keystroke_Key.space	Key.space	n/a
61.4495	0.105	122899	keystroke_t	t	n/a
61.584	0.1505	123168	keystroke_r	r	n/a
61.7795	0.105	123559	keystroke_a	a	n/a
61.9895	0.09	123979	keystroke_n	n	n/a
62.1695	0.06	124339	keystroke_s	s	n/a
62.2595	0.15	124519	keystroke_l	l	n/a
62.4245	0.075	124849	keystroke_a	a	n/a
62.5745	0.12	125149	keystroke_t	t	n/a
62.785	0.15	125570	keystroke_e	e	n/a
62.92	0.12	125840	keystroke_d	d	n/a
63.084	0.0905	126168	keystroke_Key.space	Key.space	n/a
63.235	0.119	126470	keystroke_s	s	n/a
63.4745	0.06	126949	keystroke_c	c	n/a
64.3895	0.075	128779	keystroke_r	r	n/a
64.8995	0.1045	129799	keystroke_i	i	n/a
65.1245	0.09	130249	keystroke_p	p	n/a
65.26	0.0905	130520	keystroke_t	t	n/a
65.6345	0.105	131269	keystroke_s	s	n/a
66.054	0.105	132108	keystroke_Key.space	Key.space	n/a
66.594	0.0905	133188	keystroke_q	q	n/a
66.7445	0.0745	133489	keystroke_u	u	n/a
66.909	0.105	133818	keystroke_o	o	n/a
67.044	0.1205	134088	keystroke_t	t	n/a
67.2095	0.15	134419	keystroke_a	a	n/a
67.33	0.1195	134660	keystroke_t	t	n/a
67.585	0.0895	135170	keystroke_i	i	n/a
67.7345	0.1045	135469	keystroke_o	o	n/a
67.9595	0.075	135919	keystroke_n	n	n/a
68.1395	0.0745	136279	keystroke_s	s	n/a
68.319	0.075	136638	keystroke_Key.enter	Key.enter	n/a
68.4035	12.6075	136807	prompt	n/a	escorts limit conservative coastal\n
69.19	0.074	138380	keystroke_e	e	n/a
69.4	0.105	138800	keystroke_s	s	n/a
69.595	0.075	139190	keystroke_c	c	n/a
70.225	0.105	140450	keystroke_o	o	n/a
70.4635	0.1065	140927	keystroke_r	r	n/a
70.7345	0.105	141469	keystroke_t	t	n/a
71.199	0.09	142398	keystroke_s	s	n/a
71.3795	0.075	142759	keystroke_Key.space	Key.space	n/a
71.5595	0.0755	143119	keystroke_l	l	n/a
71.7245	0.0605	143449	keystroke_i	i	n/a
72.3995	0.105	144799	keystroke_m	m	n/a
73.2545	0.09	146509	keystroke_i	i	n/a
73.4045	0.09	146809	keystroke_t	t	n/a
73.6895	0.09	147379	keystroke_Key.space	Key.space	n/a
73.959	0.0755	147918	keystroke_c	c	n/a
74.035	0.0895	148070	keystroke_o	o	n/a
74.1845	0.09	148369	keystroke_n	n	n/a
74.305	0.1495	148610	keystroke_s	s	n/a
74.4395	0.18	148879	keystroke_e	e	n/a
74.6345	0.12	149269	keystroke_r	r	n/a
75.175	0.1195	150350	keystroke_v	v	n/a
75.3995	0.1205	150799	keystroke_a	a	n/a
75.6695	0.1045	151339	keystroke_t	t	n/a
75.819	0.06	151638	keystroke_i	i	n/a
76.8245	0.105	153649	keystroke_v	v	n/a
77.0045	0.1055	154009	keystroke_e	e	n/a
77.169	0.0905	154338	keystroke_Key.space	Key.space	n/a
77.485	0.089	154970	keystroke_c	c	n/a
77.679	0.105	155358	keystroke_o	o	n/a
77.9195	0.1045	155839	keystroke_s	s	n/a
78.564	0.09	157128	keystroke_Key.backspace	Key.backspace	n/a
78.684	0.1355	157368	keystroke_a	a	n/a
78.924	0.0905	157848	keystroke_t	t	n/a
79.6445	0.0895	159289	keystroke_Key.backspace	Key.backspace	n/a
79.8405	0.104	159681	keystroke_s	s	n/a
80.0195	0.105	160039	keystroke_t	t	n/a
80.245	0.1345	160490	keystroke_a	a	n/a
80.3945	0.1045	160789	keystroke_l	l	n/a
80.919	0.0905	161838	keystroke_Key.enter	Key.enter	n/a
81.0155	7.7505	162031	prompt	n/a	news fell machine self\n
81.8045	0.09	163609	keystroke_n	n	n/a
81.9395	0.18	163879	keystroke_e	e	n/a
82.0745	0.135	164149	keystroke_w	w	n/a
82.3145	0.0745	164629	keystroke_Key.space	Key.space	n/a
82.5995	0.09	165199	keystroke_f	f	n/a
82.795	0.089	165590	keystroke_e	e	n/a
83.289	0.06	166578	keystroke_Key.backspace	Key.backspace	n/a
83.4395	0.0745	166879	keystroke_Key.backspace	Key.backspace	n/a
83.6045	0.0905	167209	keystroke_Key.backspace	Key.backspace	n/a
83.8745	0.059	167749	keystroke_e	e	n/a
84.1745	0.06	168349	keystroke_Key.space	Key.space	n/a
84.474	0.0605	168948	keystroke_Key.backspace	Key.backspace	n/a
84.6245	0.075	169249	keystroke_Key.backspace	Key.backspace	n/a
84.7895	0.075	169579	keystroke_s	s	n/a
84.9095	0.09	169819	keystroke_Key.space	Key.space	n/a
85.15	0.135	170300	keystroke_f	f	n/a
85.4195	0.075	170839	keystroke_e	e	n/a
85.5695	0.0905	171139	keystroke_l	l	n/a
85.7495	0.09	171499	keystroke_l	l	n/a
85.9445	0.075	171889	keystroke_Key.space	Key.space	n/a
86.2295	0.09	172459	keystroke_m	m	n/a
86.3345	0.105	172669	keystroke_a	a	n/a
86.5445	0.0755	173089	keystroke_c	c	n/a
86.65	0.0595	173300	keystroke_h	h	n/a
86.9195	0.09	173839	keystroke_i	i	n/a
87.099	0.1055	174198	keystroke_n	n	n/a
87.2195	0.06	174439	keystroke_e	e	n/a
87.3545	0.09	174709	keystroke_Key.space	Key.space	n/a
87.61	0.06	175220	keystroke_e	e	n/a
87.9095	0.0755	175819	keystroke_Key.backspace	Key.backspace	n/a
88.03	0.1035	176060	keystroke_s	s	n/a
88.15	0.104	176300	keystroke_e	e	n/a
88.3135	0.1055	176627	keystroke_l	l	n/a
88.4645	0.09	176929	keystroke_f	f	n/a
88.6145	0.15	177229	keystroke_Key.enter	Key.enter	n/a
88.778	6.348	177556	prompt	n/a	hills essence springer drop\n
89.455	0.074	178910	keystroke_h	h	n/a
89.695	0.09	179390	keystroke_i	i	n/a
89.8895	0.09	179779	keystroke_l	l	n/a
90.055	0.0745	180110	keystroke_l	l	n/a
90.1595	0.09	180319	keystroke_s	s	n/a
90.6095	0.06	181219	keystroke_Key.space	Key.space	n/a
90.82	0.09	181640	keystroke_e	e	n/a
90.985	0.09	181970	keystroke_s	s	n/a
91.165	0.105	182330	keystroke_s	s	n/a
91.345	0.1045	182690	keystroke_e	e	n/a
91.5695	0.105	183139	keystroke_n	n	n/a
91.7795	0.105	183559	keystroke_c	c	n/a
92.0495	0.1055	184099	keystroke_e	e	n/a
92.2145	0.09	184429	keystroke_Key.space	Key.space	n/a
92.4095	0.105	184819	keystroke_s	s	n/a
92.5145	0.105	185029	keystroke_p	p	n/a
92.6645	0.09	185329	keystroke_r	r	n/a
92.7845	0.09	185569	keystroke_i	i	n/a
93.1895	0.075	186379	keystroke_n	n	n/a
93.3695	0.09	186739	keystroke_g	g	n/a
93.655	0.179	187310	keystroke_e	e	n/a
93.789	0.135	187578	keystroke_r	r	n/a
94.044	0.075	188088	keystroke_Key.space	Key.space	n/a
94.299	0.09	188598	keystroke_d	d	n/a
94.525	0.074	189050	keystroke_r	r	n/a
94.629	0.091	189258	keystroke_o	o	n/a
94.7795	0.1195	189559	keystroke_p	p	n/a
95.034	0.0905	190068	keystroke_Key.enter	Key.enter	n/a
95.1305	6.701	190261	prompt	n/a	intense particles concern bone\n
95.8445	0.0895	191689	keystroke_i	i	n/a
96.054	0.09	192108	keystroke_n	n	n/a
96.1895	0.0895	192379	keystroke_t	t	n/a
96.3845	0.0895	192769	keystroke_e	e	n/a
96.4895	0.075	192979	keystroke_n	n	n/a
96.76	0.1195	193520	keystroke_s	s	n/a
96.925	0.1045	193850	keystroke_e	e	n/a
97.0445	0.075	194089	keystroke_Key.space	Key.space	n/a
97.225	0.09	194450	keystroke_p	p	n/a
97.299	0.1515	194598	keystroke_a	a	n/a
97.4645	0.075	194929	keystroke_r	r	n/a
97.6745	0.06	195349	keystroke_t	t	n/a
97.8095	0.09	195619	keystroke_i	i	n/a
98.005	0.075	196010	keystroke_c	c	n/a
98.1845	0.105	196369	keystroke_l	l	n/a
98.3495	0.1495	196699	keystroke_e	e	n/a
98.589	0.135	197178	keystroke_s	s	n/a
98.784	0.075	197568	keystroke_Key.space	Key.space	n/a
98.979	0.1055	197958	keystroke_c	c	n/a
99.0545	0.0895	198109	keystroke_o	o	n/a
99.235	0.104	198470	keystroke_n	n	n/a
99.384	0.0755	198768	keystroke_c	c	n/a
99.714	0.1505	199428	keystroke_e	e	n/a
99.955	0.0745	199910	keystroke_r	r	n/a
100.42	0.0895	200840	keystroke_n	n	n/a
100.6295	0.09	201259	keystroke_Key.space	Key.space	n/a
100.9145	0.06	201829	keystroke_b	b	n/a
101.1545	0.105	202309	keystroke_o	o	n/a
101.3345	0.075	202669	keystroke_n	n	n/a
101.56	0.0445	203120	keystroke_e	e	n/a
101.7395	0.09	203479	keystroke_Key.enter	Key.enter	n/a
101.836	10.96	203672	prompt	n/a	litigation minneapolis preferred fifteen\n
102.6695	0.12	205339	keystroke_l	l	n/a
102.88	0.0745	205760	keystroke_i	i	n/a
103.0745	0.09	206149	keystroke_t	t	n/a
103.2095	0.06	206419	keystroke_i	i	n/a
103.6	0.0595	207200	keystroke_g	g	n/a
103.7645	0.1355	207529	keystroke_a	a	n/a
103.959	0.0905	207918	keystroke_t	t	n/a
104.0645	0.09	208129	keystroke_i	i	n/a
104.1995	0.075	208399	keystroke_o	o	n/a
104.4095	0.09	208819	keystroke_n	n	n/a
104.5595	0.075	209119	keystroke_Key.space	Key.space	n/a
104.9495	0.075	209899	keystroke_m	m	n/a
105.1595	0.06	210319	keystroke_i	i	n/a
105.3845	0.09	210769	keystroke_n	n	n/a
105.5645	0.0745	211129	keystroke_n	n	n/a
105.699	0.165	211398	keystroke_e	e	n/a
105.939	0.135	211878	keystroke_a	a	n/a
106.329	0.1205	212658	keystroke_p	p	n/a
106.5095	0.105	213019	keystroke_o	o	n/a
106.8395	0.075	213679	keystroke_l	l	n/a
107.125	0.0745	214250	keystroke_i	i	n/a
107.379	0.0905	214758	keystroke_s	s	n/a
107.5295	0.059	215059	keystroke_Key.space	Key.space	n/a
107.71	0.0895	215420	keystroke_p	p	n/a
107.8145	0.044	215629	keystroke_e	e	n/a
108.1145	0.09	216229	keystroke_Key.backspace	Key.backspace	n/a
108.2945	0.15	216589	keystroke_r	r	n/a
108.46	0.105	216920	keystroke_e	e	n/a
108.79	0.105	217580	keystroke_f	f	n/a
108.955	0.134	217910	keystroke_e	e	n/a
109.09	0.12	218180	keystroke_r	r	n/a
109.345	0.09	218690	keystroke_r	r	n/a
109.524	0.166	219048	keystroke_e	e	n/a
109.6745	0.105	219349	keystroke_d	d	n/a
109.8395	0.06	219679	keystroke_Key.space	Key.space	n/a
110.1245	0.105	220249	keystroke_f	f	n/a
110.2745	0.09	220549	keystroke_i	i	n/a
110.379	0.0905	220758	keystroke_f	f	n/a
110.5895	0.1195	221179	keystroke_t	t	n/a
110.7695	0.0745	221539	keystroke_e	e	n/a
110.9645	0.0145	221929	keystroke_n	n	n/a
111.2195	0.09	222439	keystroke_n	n	n/a
111.5795	0.09	223159	keystroke_Key.backspace	Key.backspace	n/a
111.7445	0.06	223489	keystroke_Key.backspace	Key.backspace	n/a
111.9545	0.06	223909	keystroke_e	e	n/a
112.36	0.0595	224720	keystroke_n	n	n/a
112.704	0.09	225408	keystroke_Key.enter	Key.enter	n/a
112.8005	6.3705	225601	prompt	n/a	wisdom rewards para night\n
113.4845	0.015	226969	keystroke_w	w	n/a
113.8445	0.075	227689	keystroke_i	i	n/a
114.0245	0.105	228049	keystroke_s	s	n/a
114.2645	0.105	228529	keystroke_d	d	n/a
114.3845	0.105	228769	keystroke_o	o	n/a
114.6545	0.09	229309	keystroke_m	m	n/a
114.8345	0.075	229669	keystroke_Key.space	Key.space	n/a
115.0595	0.1345	230119	keystroke_r	r	n/a
115.21	0.1495	230420	keystroke_e	e	n/a
115.629	0.09	231258	keystroke_w	w	n/a
115.794	0.135	231588	keystroke_a	a	n/a
115.974	0.135	231948	keystroke_r	r	n/a
116.304	0.1505	232608	keystroke_d	d	n/a
116.4695	0.119	232939	keystroke_s	s	n/a
116.6035	0.106	233207	keystroke_Key.space	Key.space	n/a
116.8145	0.09	233629	keystroke_p	p	n/a
116.9345	0.1195	233869	keystroke_a	a	n/a
117.099	0.1205	234198	keystroke_r	r	n/a
117.265	0.105	234530	keystroke_a	a	n/a
117.4595	0.091	234919	keystroke_Key.space	Key.space	n/a
118.134	0.015	236268	keystroke_n	n	n/a
118.344	0.106	236688	keystroke_i	i	n/a
118.54	0.074	237080	keystroke_g	g	n/a
118.704	0.09	237408	keystroke_h	h	n/a
118.8395	0.105	237679	keystroke_t	t	n/a
119.049	0.12	238098	keystroke_Key.enter	Key.enter	n/a
119.175	8.336	238350	prompt	n/a	annoying label appreciation productions\n
119.8	0.1195	239600	keystroke_a	a	n/a
120.0695	0.075	240139	keystroke_n	n	n/a
120.2795	0.075	240559	keystroke_n	n	n/a
120.654	0.1205	241308	keystroke_o	o	n/a
120.969	0.105	241938	keystroke_y	y	n/a
121.239	0.09	242478	keystroke_i	i	n/a
121.5095	0.0745	243019	keystroke_n	n	n/a
121.614	0.075	243228	keystroke_g	g	n/a
121.749	0.0605	243498	keystroke_Key.space	Key.space	n/a
121.915	0.1045	243830	keystroke_l	l	n/a
122.035	0.105	244070	keystroke_a	a	n/a
122.2145	0.1045	244429	keystroke_b	b	n/a
122.6045	0.104	245209	keystroke_e	e	n/a
122.7545	0.135	245509	keystroke_l	l	n/a
122.9345	0.074	245869	keystroke_Key.space	Key.space	n/a
123.0985	0.1065	246197	keystroke_a	a	n/a
123.2645	0.0755	246529	keystroke_p	p	n/a
123.5195	0.015	247039	keystroke_p	p	n/a
123.5645	0.1505	247129	keystroke_r	r	n/a
123.7745	0.105	247549	keystroke_e	e	n/a
124.0445	0.1205	248089	keystroke_c	c	n/a
124.1795	0.105	248359	keystroke_i	i	n/a
124.3445	0.135	248689	keystroke_a	a	n/a
124.6145	0.09	249229	keystroke_t	t	n/a
124.7635	0.0765	249527	keystroke_i	i	n/a
124.9	0.104	249800	keystroke_o	o	n/a
125.1095	0.0895	250219	keystroke_n	n	n/a
125.2585	0.061	250517	keystroke_Key.space	Key.space	n/a
125.4385	0.136	250877	keystroke_p	p	n/a
125.5435	0.09	251087	keystroke_r	r	n/a
125.6645	0.09	251329	keystroke_o	o	n/a
126.0545	0.075	252109	keystroke_d	d	n/a
126.235	0.0745	252470	keystroke_u	u	n/a
126.3395	0.075	252679	keystroke_c	c	n/a
126.58	0.0895	253160	keystroke_t	t	n/a
126.6995	0.075	253399	keystroke_i	i	n/a
126.9095	0.0745	253819	keystroke_o	o	n/a
127.09	0.089	254180	keystroke_n	n	n/a
127.1945	0.12	254389	keystroke_s	s	n/a
127.4185	0.0905	254837	keystroke_Key.enter	Key.enter	n/a
127.5145	6.326	255029	prompt	n/a	baghdad seating wrote things\n
128.409	0.06	256818	keystroke_b	b	n/a
128.514	0.0755	257028	keystroke_a	a	n/a
128.7395	0.09	257479	keystroke_g	g	n/a
128.8595	0.0745	257719	keystroke_h	h	n/a
129.114	0.135	258228	keystroke_d	d	n/a
129.28	0.209	258560	keystroke_a	a	n/a
129.444	0.135	258888	keystroke_d	d	n/a
129.609	0.12	259218	keystroke_Key.space	Key.space	n/a
129.909	0.1205	259818	keystroke_s	s	n/a
130.1045	0.12	260209	keystroke_e	e	n/a
130.27	0.1795	260540	keystroke_a	a	n/a
130.704	0.09	261408	keystroke_t	t	n/a
130.944	0.0605	261888	keystroke_i	i	n/a
131.125	0.105	262250	keystroke_n	n	n/a
131.23	0.12	262460	keystroke_g	g	n/a
131.365	0.1045	262730	keystroke_Key.space	Key.space	n/a
131.679	0.12	263358	keystroke_w	w	n/a
131.889	0.09	263778	keystroke_r	r	n/a
132.039	0.12	264078	keystroke_o	o	n/a
132.1745	0.12	264349	keystroke_t	t	n/a
132.4595	0.09	264919	keystroke_e	e	n/a
132.6245	0.075	265249	keystroke_Key.space	Key.space	n/a
132.8045	0.1045	265609	keystroke_t	t	n/a
132.924	0.091	265848	keystroke_h	h	n/a
133.059	0.1055	266118	keystroke_i	i	n/a
133.24	0.104	266480	keystroke_n	n	n/a
133.329	0.106	266658	keystroke_g	g	n/a
133.554	0.12	267108	keystroke_s	s	n/a
133.719	0.12	267438	keystroke_Key.enter	Key.enter	n/a
133.8445	8.276	267689	prompt	n/a	affairs itself implications locale\n
134.409	0.1505	268818	keystroke_a	a	n/a
134.664	0.091	269328	keystroke_f	f	n/a
134.844	0.0905	269688	keystroke_f	f	n/a
134.9795	0.1345	269959	keystroke_a	a	n/a
135.1295	0.0745	270259	keystroke_i	i	n/a
135.249	0.1055	270498	keystroke_r	r	n/a
135.49	0.104	270980	keystroke_s	s	n/a
135.6695	0.0895	271339	keystroke_Key.space	Key.space	n/a
135.894	0.09	271788	keystroke_i	i	n/a
136.119	0.09	272238	keystroke_t	t	n/a
136.5245	0.075	273049	keystroke_e	e	n/a
136.8845	0.0895	273769	keystroke_Key.backspace	Key.backspace	n/a
136.99	0.104	273980	keystroke_s	s	n/a
137.109	0.091	274218	keystroke_e	e	n/a
137.2595	0.12	274519	keystroke_l	l	n/a
137.4095	0.12	274819	keystroke_f	f	n/a
137.6495	0.045	275299	keystroke_Key.space	Key.space	n/a
138.0845	0.105	276169	keystroke_i	i	n/a
138.3095	0.105	276619	keystroke_m	m	n/a
138.5645	0.0905	277129	keystroke_p	p	n/a
138.7895	0.0895	277579	keystroke_l	l	n/a
138.9545	0.0895	277909	keystroke_i	i	n/a
139.359	0.09	278718	keystroke_c	c	n/a
139.7495	0.0895	279499	keystroke_a	a	n/a
139.9445	0.09	279889	keystroke_t	t	n/a
140.064	0.0755	280128	keystroke_i	i	n/a
140.154	0.166	280308	keystroke_o	o	n/a
140.4095	0.06	280819	keystroke_n	n	n/a
140.545	0.1195	281090	keystroke_s	s	n/a
140.6495	0.105	281299	keystroke_Key.space	Key.space	n/a
140.8745	0.12	281749	keystroke_l	l	n/a
141.0545	0.1045	282109	keystroke_o	o	n/a
141.174	0.12	282348	keystroke_c	c	n/a
141.339	0.1505	282678	keystroke_a	a	n/a
141.564	0.135	283128	keystroke_t	t	n/a
141.7595	0.1195	283519	keystroke_e	e	n/a
142.044	0.075	284088	keystroke_Key.enter	Key.enter	n/a
142.124	9.0725	284248	prompt	n/a	definition carriers football fruit\n
142.855	0.0895	285710	keystroke_f	f	n/a
143.469	0.09	286938	keystroke_Key.backspace	Key.backspace	n/a
143.6795	0.0895	287359	keystroke_d	d	n/a
143.7845	0.1205	287569	keystroke_e	e	n/a
143.9795	0.1045	287959	keystroke_f	f	n/a
144.399	0.09	288798	keystroke_i	i	n/a
144.654	0.0755	289308	keystroke_n	n	n/a
144.835	0.0895	289670	keystroke_i	i	n/a
144.94	0.1045	289880	keystroke_t	t	n/a
145.0595	0.075	290119	keystroke_i	i	n/a
145.1795	0.12	290359	keystroke_o	o	n/a
145.4485	0.075	290897	keystroke_n	n	n/a
145.7045	0.074	291409	keystroke_Key.space	Key.space	n/a
145.975	0.0895	291950	keystroke_c	c	n/a
146.1545	0.1505	292309	keystroke_a	a	n/a
146.3945	0.0455	292789	keystroke_r	r	n/a
146.5895	0.09	293179	keystroke_r	r	n/a
146.7395	0.06	293479	keystroke_i	i	n/a
146.8595	0.15	293719	keystroke_e	e	n/a
147.654	0.1055	295308	keystroke_r	r	n/a
147.8495	0.135	295699	keystroke_s	s	n/a
148.074	0.105	296148	keystroke_Key.space	Key.space	n/a
148.599	0.0905	297198	keystroke_f	f	n/a
148.719	0.075	297438	keystroke_o	o	n/a
148.9145	0.0745	297829	keystroke_o	o	n/a
149.064	0.106	298128	keystroke_t	t	n/a
149.3045	0.1045	298609	keystroke_b	b	n/a
149.5	0.119	299000	keystroke_a	a	n/a
149.62	0.089	299240	keystroke_l	l	n/a
149.7995	0.075	299599	keystroke_l	l	n/a
149.9645	0.075	299929	keystroke_Key.space	Key.space	n/a
150.1895	0.105	300379	keystroke_f	f	n/a
150.4145	0.0445	300829	keystroke_r	r	n/a
150.564	0.075	301128	keystroke_u	u	n/a
150.684	0.15	301368	keystroke_i	i	n/a
150.849	0.0905	301698	keystroke_t	t	n/a
151.074	0.1205	302148	keystroke_Key.enter	Key.enter	n/a
151.2005	7.2555	302401	prompt	n/a	jeremy watching crowd or\n
152.0195	0.075	304039	keystroke_j	j	n/a
152.1095	0.135	304219	keystroke_e	e	n/a
152.245	0.149	304490	keystroke_r	r	n/a
152.3795	0.105	304759	keystroke_e	e	n/a
152.5295	0.09	305059	keystroke_m	m	n/a
152.9645	0.06	305929	keystroke_y	y	n/a
153.204	0.1045	306408	keystroke_Key.space	Key.space	n/a
153.5495	0.1495	307099	keystroke_w	w	n/a
153.7295	0.1355	307459	keystroke_a	a	n/a
154.045	0.09	308090	keystroke_t	t	n/a
154.6145	0.09	309229	keystroke_c	c	n/a
154.9145	0.0895	309829	keystroke_h	h	n/a
155.1095	0.0895	310219	keystroke_i	i	n/a
155.3195	0.105	310639	keystroke_n	n	n/a
155.4395	0.075	310879	keystroke_g	g	n/a
155.5895	0.105	311179	keystroke_Key.space	Key.space	n/a
156.1295	0.0895	312259	keystroke_c	c	n/a
156.3545	0.09	312709	keystroke_r	r	n/a
156.4745	0.135	312949	keystroke_o	o	n/a
156.5945	0.105	313189	keystroke_w	w	n/a
157.3895	0.075	314779	keystroke_d	d	n/a
157.5695	0.075	315139	keystroke_Key.space	Key.space	n/a
158.0045	0.1045	316009	keystroke_o	o	n/a
158.154	0.0755	316308	keystroke_r	r	n/a
158.3645	0.09	316729	keystroke_Key.enter	Key.enter	n/a
158.4605	13.3005	316921	prompt	n/a	yellow software arctic norwegian\n
159.2045	0.06	318409	keystroke_y	y	n/a
159.3695	0.0605	318739	keystroke_e	e	n/a
159.5045	0.06	319009	keystroke_l	l	n/a
159.6695	0.06	319339	keystroke_l	l	n/a
159.8495	0.12	319699	keystroke_o	o	n/a
159.9545	0.075	319909	keystroke_w	w	n/a
160.0895	0.06	320179	keystroke_Key.space	Key.space	n/a
160.7795	0.105	321559	keystroke_s	s	n/a
160.8685	0.1055	321737	keystroke_o	o	n/a
161.079	0.1205	322158	keystroke_f	f	n/a
161.349	0.105	322698	keystroke_t	t	n/a
161.62	0.135	323240	keystroke_w	w	n/a
161.784	0.1205	323568	keystroke_a	a	n/a
162.01	0.149	324020	keystroke_r	r	n/a
162.174	0.135	324348	keystroke_e	e	n/a
162.3395	0.104	324679	keystroke_Key.space	Key.space	n/a
162.489	0.1495	324978	keystroke_a	a	n/a
162.6835	0.105	325367	keystroke_r	r	n/a
163.42	0.0745	326840	keystroke_c	c	n/a
163.7345	0.075	327469	keystroke_t	t	n/a
163.8245	0.105	327649	keystroke_i	i	n/a
164.0795	0.09	328159	keystroke_c	c	n/a
164.2895	0.06	328579	keystroke_Key.space	Key.space	n/a
164.5745	0.075	329149	keystroke_n	n	n/a
164.6795	0.135	329359	keystroke_e	e	n/a
164.815	0.0895	329630	keystroke_o	o	n/a
164.979	0.075	329958	keystroke_r	r	n/a
165.2045	0.18	330409	keystroke_w	w	n/a
165.3695	0.1055	330739	keystroke_e	e	n/a
165.7445	0.075	331489	keystroke_Key.backspace	Key.backspace	n/a
165.9245	0.075	331849	keystroke_Key.backspace	Key.backspace	n/a
166.1045	0.09	332209	keystroke_Key.backspace	Key.backspace	n/a
166.2845	0.0895	332569	keystroke_Key.backspace	Key.backspace	n/a
166.7195	0.074	333439	keystroke_Key.backspace	Key.backspace	n/a
167.0795	0.09	334159	keystroke_o	o	n/a
167.2895	0.104	334579	keystroke_r	r	n/a
167.635	0.134	335270	keystroke_w	w	n/a
167.784	0.105	335568	keystroke_e	e	n/a
167.904	0.105	335808	keystroke_i	i	n/a
168.639	0.09	337278	keystroke_g	g	n/a
170.154	0.06	340308	keystroke_Key.backspace	Key.backspace	n/a
170.304	0.045	340608	keystroke_Key.backspace	Key.backspace	n/a
170.6345	0.1045	341269	keystroke_g	g	n/a
170.7845	0.0745	341569	keystroke_i	i	n/a
170.9045	0.1195	341809	keystroke_a	a	n/a
171.3395	0.09	342679	keystroke_n	n	n/a
171.6695	0.09	343339	keystroke_Key.enter	Key.enter	n/a
171.767	6.114	343534	prompt	n/a	wisdom prepare trans champion\n
172.449	0.09	344898	keystroke_w	w	n/a
172.5845	0.09	345169	keystroke_i	i	n/a
172.7195	0.104	345439	keystroke_s	s	n/a
172.9	0.1045	345800	keystroke_d	d	n/a
173.049	0.0755	346098	keystroke_o	o	n/a
173.275	0.0595	346550	keystroke_m	m	n/a
173.409	0.06	346818	keystroke_Key.space	Key.space	n/a
173.5595	0.09	347119	keystroke_p	p	n/a
173.6795	0.15	347359	keystroke_r	r	n/a
173.8445	0.09	347689	keystroke_e	e	n/a
174.0395	0.1045	348079	keystroke_p	p	n/a
174.1595	0.15	348319	keystroke_a	a	n/a
174.3395	0.18	348679	keystroke_r	r	n/a
174.4745	0.15	348949	keystroke_e	e	n/a
174.67	0.1045	349340	keystroke_Key.space	Key.space	n/a
175.0595	0.1645	350119	keystroke_t	t	n/a
175.254	0.135	350508	keystroke_r	r	n/a
175.404	0.1505	350808	keystroke_a	a	n/a
175.6	0.104	351200	keystroke_n	n	n/a
175.765	0.119	351530	keystroke_s	s	n/a
175.914	0.09	351828	keystroke_Key.space	Key.space	n/a
176.289	0.1055	352578	keystroke_c	c	n/a
176.439	0.076	352878	keystroke_h	h	n/a
176.545	0.0895	353090	keystroke_a	a	n/a
176.7695	0.0745	353539	keystroke_m	m	n/a
176.9795	0.09	353959	keystroke_p	p	n/a
177.2185	0.091	354437	keystroke_i	i	n/a
177.355	0.12	354710	keystroke_o	o	n/a
177.5345	0.09	355069	keystroke_n	n	n/a
177.7895	0.089	355579	keystroke_Key.enter	Key.enter	n/a
177.8855	8.2605	355771	prompt	n/a	segment cyprus issues resolved\n
178.5995	0.12	357199	keystroke_s	s	n/a
178.7345	0.105	357469	keystroke_e	e	n/a
178.9895	0.0755	357979	keystroke_g	g	n/a
179.1985	0.091	358397	keystroke_m	m	n/a
179.3045	0.09	358609	keystroke_e	e	n/a
179.4095	0.105	358819	keystroke_n	n	n/a
179.5595	0.075	359119	keystroke_t	t	n/a
179.7095	0.09	359419	keystroke_Key.space	Key.space	n/a
180.0245	0.09	360049	keystroke_c	c	n/a
180.2495	0.075	360499	keystroke_y	y	n/a
180.5495	0.0895	361099	keystroke_p	p	n/a
180.684	0.09	361368	keystroke_r	r	n/a
181.2545	0.0895	362509	keystroke_u	u	n/a
181.5545	0.1045	363109	keystroke_s	s	n/a
181.7345	0.0895	363469	keystroke_Key.space	Key.space	n/a
181.93	0.0895	363860	keystroke_i	i	n/a
182.0345	0.135	364069	keystroke_s	s	n/a
182.2745	0.105	364549	keystroke_s	s	n/a
182.4845	0.075	364969	keystroke_u	u	n/a
182.634	0.151	365268	keystroke_e	e	n/a
182.7695	0.1055	365539	keystroke_s	s	n/a
183.1435	0.076	366287	keystroke_Key.space	Key.space	n/a
183.4595	0.09	366919	keystroke_r	r	n/a
183.534	0.105	367068	keystroke_e	e	n/a
183.8795	0.06	367759	keystroke_o	o	n/a
184.2385	0.076	368477	keystroke_Key.backspace	Key.backspace	n/a
184.3445	0.12	368689	keystroke_s	s	n/a
184.5695	0.105	369139	keystroke_o	o	n/a
184.7795	0.09	369559	keystroke_l	l	n/a
184.9145	0.105	369829	keystroke_v	v	n/a
185.1545	0.195	370309	keystroke_e	e	n/a
185.3045	0.135	370609	keystroke_s	s	n/a
185.6945	0.09	371389	keystroke_Key.backspace	Key.backspace	n/a
185.814	0.1045	371628	keystroke_d	d	n/a
186.0395	0.105	372079	keystroke_Key.enter	Key.enter	n/a
186.15	7.9165	372300	prompt	n/a	analyzes sunglasses consequences left\n
186.82	0.104	373640	keystroke_a	a	n/a
186.939	0.09	373878	keystroke_n	n	n/a
187.059	0.075	374118	keystroke_a	a	n/a
187.164	0.12	374328	keystroke_l	l	n/a
187.4195	0.0745	374839	keystroke_y	y	n/a
187.839	0.0605	375678	keystroke_z	z	n/a
188.019	0.1205	376038	keystroke_e	e	n/a
188.244	0.1205	376488	keystroke_s	s	n/a
188.4835	0.091	376967	keystroke_Key.space	Key.space	n/a
188.6495	0.105	377299	keystroke_s	s	n/a
188.7695	0.074	377539	keystroke_u	u	n/a
188.9345	0.105	377869	keystroke_n	n	n/a
189.1145	0.09	378229	keystroke_g	g	n/a
189.2645	0.1345	378529	keystroke_l	l	n/a
189.354	0.1355	378708	keystroke_a	a	n/a
189.519	0.1205	379038	keystroke_s	s	n/a
189.7435	0.121	379487	keystroke_s	s	n/a
189.9095	0.165	379819	keystroke_e	e	n/a
190.0595	0.1355	380119	keystroke_s	s	n/a
190.2395	0.09	380479	keystroke_Key.space	Key.space	n/a
190.584	0.15	381168	keystroke_c	c	n/a
190.749	0.091	381498	keystroke_o	o	n/a
190.915	0.104	381830	keystroke_n	n	n/a
191.034	0.1505	382068	keystroke_s	s	n/a
191.199	0.1055	382398	keystroke_e	e	n/a
191.4995	0.105	382999	keystroke_q	q	n/a
191.9795	0.075	383959	keystroke_u	u	n/a
192.1295	0.075	384259	keystroke_e	e	n/a
192.2945	0.12	384589	keystroke_n	n	n/a
192.4745	0.1345	384949	keystroke_c	c	n/a
192.6545	0.15	385309	keystroke_e	e	n/a
192.8195	0.12	385639	keystroke_s	s	n/a
192.9845	0.09	385969	keystroke_Key.space	Key.space	n/a
193.2395	0.12	386479	keystroke_l	l	n/a
193.375	0.1495	386750	keystroke_e	e	n/a
193.5395	0.1055	387079	keystroke_f	f	n/a
193.7945	0.09	387589	keystroke_t	t	n/a
193.9445	0.12	387889	keystroke_Key.enter	Key.enter	n/a
194.071	6.04	388142	prompt	n/a	trained most donors doctrine\n
194.7095	0.12	389419	keystroke_t	t	n/a
194.8745	0.12	389749	keystroke_r	r	n/a
195.0095	0.15	390019	keystroke_a	a	n/a
195.1745	0.0605	390349	keystroke_i	i	n/a
195.3695	0.09	390739	keystroke_n	n	n/a
195.4745	0.18	390949	keystroke_e	e	n/a
195.5945	0.1195	391189	keystroke_d	d	n/a
195.7595	0.075	391519	keystroke_Key.space	Key.space	n/a
195.9545	0.09	391909	keystroke_m	m	n/a
196.1195	0.12	392239	keystroke_o	o	n/a
196.2095	0.15	392419	keystroke_s	s	n/a
196.4045	0.09	392809	keystroke_t	t	n/a
196.524	0.1055	393048	keystroke_Key.space	Key.space	n/a
197.019	0.0905	394038	keystroke_d	d	n/a
197.11	0.0895	394220	keystroke_o	o	n/a
197.259	0.12	394518	keystroke_n	n	n/a
197.4695	0.0895	394939	keystroke_o	o	n/a
197.56	0.119	395120	keystroke_r	r	n/a
197.844	0.1205	395688	keystroke_s	s	n/a
197.9945	0.0745	395989	keystroke_Key.space	Key.space	n/a
198.7595	0.0745	397519	keystroke_d	d	n/a
198.835	0.119	397670	keystroke_o	o	n/a
198.9695	0.0895	397939	keystroke_c	c	n/a
199.269	0.1505	398538	keystroke_t	t	n/a
199.4345	0.075	398869	keystroke_r	r	n/a
199.5235	0.0765	399047	keystroke_i	i	n/a
199.7035	0.091	399407	keystroke_n	n	n/a
199.809	0.12	399618	keystroke_e	e	n/a
200.049	0.06	400098	keystroke_Key.enter	Key.enter	n/a
200.1145	5.0215	400229	prompt	n/a	phone weight wanna profits\n
200.649	0.106	401298	keystroke_p	p	n/a
200.859	0.076	401718	keystroke_h	h	n/a
201.024	0.0905	402048	keystroke_o	o	n/a
201.2195	0.075	402439	keystroke_n	n	n/a
201.4745	0.075	402949	keystroke_e	e	n/a
201.6695	0.09	403339	keystroke_Key.space	Key.space	n/a
201.9545	0.12	403909	keystroke_w	w	n/a
202.0895	0.105	404179	keystroke_e	e	n/a
202.2245	0.105	404449	keystroke_i	i	n/a
202.3895	0.12	404779	keystroke_g	g	n/a
202.5245	0.09	405049	keystroke_h	h	n/a
202.7045	0.075	405409	keystroke_t	t	n/a
202.8535	0.091	405707	keystroke_Key.space	Key.space	n/a
203.0795	0.105	406159	keystroke_w	w	n/a
203.2445	0.075	406489	keystroke_a	a	n/a
203.4395	0.03	406879	keystroke_n	n	n/a
203.5745	0.06	407149	keystroke_n	n	n/a
203.6495	0.1345	407299	keystroke_a	a	n/a
203.799	0.045	407598	keystroke_Key.space	Key.space	n/a
203.964	0.12	407928	keystroke_p	p	n/a
204.0545	0.075	408109	keystroke_r	r	n/a
204.204	0.0755	408408	keystroke_o	o	n/a
204.309	0.105	408618	keystroke_f	f	n/a
204.4595	0.0895	408919	keystroke_i	i	n/a
204.714	0.0905	409428	keystroke_t	t	n/a
204.909	0.105	409818	keystroke_s	s	n/a
205.0595	0.0745	410119	keystroke_Key.enter	Key.enter	n/a
205.141	7.48	410282	prompt	n/a	towns probe bloggers failures\n
205.7945	0.12	411589	keystroke_t	t	n/a
206.0195	0.12	412039	keystroke_o	o	n/a
206.1695	0.105	412339	keystroke_w	w	n/a
206.365	0.09	412730	keystroke_n	n	n/a
206.544	0.06	413088	keystroke_s	s	n/a
206.6495	0.0445	413299	keystroke_Key.space	Key.space	n/a
206.799	0.105	413598	keystroke_p	p	n/a
206.919	0.075	413838	keystroke_r	r	n/a
207.0095	0.0745	414019	keystroke_o	o	n/a
207.264	0.105	414528	keystroke_b	b	n/a
207.474	0.0905	414948	keystroke_e	e	n/a
207.684	0.0905	415368	keystroke_Key.space	Key.space	n/a
209.004	0.045	418008	keystroke_b	b	n/a
209.184	0.09	418368	keystroke_l	l	n/a
209.3485	0.076	418697	keystroke_o	o	n/a
209.7845	0.075	419569	keystroke_g	g	n/a
209.995	0.1045	419990	keystroke_g	g	n/a
210.1445	0.225	420289	keystroke_e	e	n/a
210.2645	0.1795	420529	keystroke_r	r	n/a
210.429	0.1205	420858	keystroke_s	s	n/a
210.609	0.09	421218	keystroke_Key.space	Key.space	n/a
210.8495	0.119	421699	keystroke_f	f	n/a
211.1485	0.121	422297	keystroke_a	a	n/a
211.2535	0.076	422507	keystroke_i	i	n/a
211.4485	0.09	422897	keystroke_l	l	n/a
211.9135	0.0755	423827	keystroke_u	u	n/a
212.0645	0.195	424129	keystroke_r	r	n/a
212.2145	0.225	424429	keystroke_e	e	n/a
212.3795	0.15	424759	keystroke_s	s	n/a
212.5145	0.1045	425029	keystroke_Key.enter	Key.enter	n/a
212.6255	8.5605	425251	prompt	n/a	format singing woods pierce\n
213.324	0.0605	426648	keystroke_f	f	n/a
213.3985	0.0755	426797	keystroke_o	o	n/a
213.5035	0.1055	427007	keystroke_r	r	n/a
213.6245	0.0895	427249	keystroke_n	n	n/a
213.7735	0.106	427547	keystroke_a	a	n/a
214.764	0.075	429528	keystroke_Key.backspace	Key.backspace	n/a
214.9595	0.06	429919	keystroke_Key.backspace	Key.backspace	n/a
215.6945	0.0905	431389	keystroke_m	m	n/a
215.786	0.1635	431572	keystroke_a	a	n/a
215.9945	0.1045	431989	keystroke_t	t	n/a
216.159	0.0745	432318	keystroke_Key.space	Key.space	n/a
216.6085	0.106	433217	keystroke_s	s	n/a
216.6835	0.09	433367	keystroke_i	i	n/a
216.8795	0.0895	433759	keystroke_n	n	n/a
216.984	0.105	433968	keystroke_g	g	n/a
217.0745	0.074	434149	keystroke_i	i	n/a
217.2545	0.074	434509	keystroke_n	n	n/a
217.3745	0.104	434749	keystroke_g	g	n/a
217.8085	0.0905	435617	keystroke_Key.space	Key.space	n/a
218.169	0.105	436338	keystroke_w	w	n/a
218.3045	0.06	436609	keystroke_o	o	n/a
218.4395	0.12	436879	keystroke_o	o	n/a
218.8445	0.18	437689	keystroke_d	d	n/a
218.9945	0.12	437989	keystroke_s	s	n/a
219.1595	0.075	438319	keystroke_Key.space	Key.space	n/a
219.3695	0.104	438739	keystroke_p	p	n/a
219.8345	0.09	439669	keystroke_i	i	n/a
220.1195	0.1645	440239	keystroke_e	e	n/a
220.2995	0.09	440599	keystroke_r	r	n/a
220.6295	0.1345	441259	keystroke_c	c	n/a
220.809	0.135	441618	keystroke_e	e	n/a
221.0945	0.0895	442189	keystroke_Key.enter	Key.enter	n/a
221.1905	7.645	442381	prompt	n/a	removed attribute word spreading\n
222.009	0.075	444018	keystroke_r	r	n/a
222.099	0.105	444198	keystroke_e	e	n/a
222.4145	0.09	444829	keystroke_m	m	n/a
222.5645	0.105	445129	keystroke_o	o	n/a
222.7145	0.0745	445429	keystroke_v	v	n/a
222.9395	0.15	445879	keystroke_e	e	n/a
223.134	0.12	446268	keystroke_d	d	n/a
223.314	0.09	446628	keystroke_Key.space	Key.space	n/a
223.554	0.12	447108	keystroke_a	a	n/a
223.809	0.06	447618	keystroke_t	t	n/a
223.989	0.09	447978	keystroke_t	t	n/a
224.1245	0.1045	448249	keystroke_r	r	n/a
224.3335	0.075	448667	keystroke_i	i	n/a
224.574	0.09	449148	keystroke_b	b	n/a
224.754	0.09	449508	keystroke_u	u	n/a
224.919	0.12	449838	keystroke_t	t	n/a
225.1135	0.12	450227	keystroke_e	e	n/a
225.3235	0.0755	450647	keystroke_Key.space	Key.space	n/a
225.8185	0.1055	451637	keystroke_w	w	n/a
225.939	0.105	451878	keystroke_o	o	n/a
226.134	0.075	452268	keystroke_r	r	n/a
226.4045	0.09	452809	keystroke_d	d	n/a
226.554	0.0905	453108	keystroke_Key.space	Key.space	n/a
226.7495	0.104	453499	keystroke_s	s	n/a
226.8685	0.091	453737	keystroke_p	p	n/a
226.9745	0.18	453949	keystroke_e	e	n/a
227.4245	0.09	454849	keystroke_Key.backspace	Key.backspace	n/a
227.5295	0.165	455059	keystroke_r	r	n/a
227.6335	0.1505	455267	keystroke_e	e	n/a
227.769	0.195	455538	keystroke_a	a	n/a
227.979	0.105	455958	keystroke_d	d	n/a
228.2045	0.0895	456409	keystroke_i	i	n/a
228.399	0.075	456798	keystroke_n	n	n/a
228.489	0.0895	456978	keystroke_g	g	n/a
228.7435	0.09	457487	keystroke_Key.enter	Key.enter	n/a
228.84	7.946	457680	prompt	n/a	passport saddam excessive located\n
229.569	0.105	459138	keystroke_p	p	n/a
229.689	0.165	459378	keystroke_a	a	n/a
229.869	0.0895	459738	keystroke_s	s	n/a
230.064	0.0895	460128	keystroke_s	s	n/a
230.3185	0.105	460637	keystroke_p	p	n/a
230.5295	0.075	461059	keystroke_o	o	n/a
230.6335	0.18	461267	keystroke_r	r	n/a
230.7985	0.135	461597	keystroke_t	t	n/a
231.0835	0.1055	462167	keystroke_Key.space	Key.space	n/a
231.4895	0.164	462979	keystroke_s	s	n/a
231.669	0.1055	463338	keystroke_a	a	n/a
231.909	0.075	463818	keystroke_d	d	n/a
232.104	0.12	464208	keystroke_d	d	n/a
232.254	0.1355	464508	keystroke_a	a	n/a
232.4045	0.1045	464809	keystroke_m	m	n/a
232.584	0.09	465168	keystroke_Key.space	Key.space	n/a
232.7945	0.074	465589	keystroke_e	e	n/a
233.4545	0.06	466909	keystroke_x	x	n/a
233.6645	0.1345	467329	keystroke_c	c	n/a
233.904	0.1205	467808	keystroke_e	e	n/a
234.054	0.09	468108	keystroke_s	s	n/a
234.234	0.075	468468	keystroke_s	s	n/a
234.384	0.0905	468768	keystroke_i	i	n/a
234.654	0.0905	469308	keystroke_v	v	n/a
234.8645	0.12	469729	keystroke_e	e	n/a
235.0445	0.104	470089	keystroke_Key.space	Key.space	n/a
235.4945	0.075	470989	keystroke_l	l	n/a
235.6445	0.09	471289	keystroke_o	o	n/a
235.7795	0.15	471559	keystroke_c	c	n/a
235.9595	0.135	471919	keystroke_a	a	n/a
236.1545	0.135	472309	keystroke_t	t	n/a
236.3345	0.165	472669	keystroke_e	e	n/a
236.4995	0.15	472999	keystroke_d	d	n/a
236.694	0.09	473388	keystroke_Key.enter	Key.enter	n/a
236.791	8.4395	473582	prompt	n/a	cult how'll distribute roger\n
237.444	0.075	474888	keystroke_c	c	n/a
237.5795	0.0895	475159	keystroke_u	u	n/a
237.804	0.12	475608	keystroke_l	l	n/a
237.9245	0.0895	475849	keystroke_t	t	n/a
238.044	0.09	476088	keystroke_Key.space	Key.space	n/a
238.254	0.105	476508	keystroke_h	h	n/a
238.479	0.09	476958	keystroke_o	o	n/a
238.614	0.09	477228	keystroke_w	w	n/a
239.6195	0.134	479239	keystroke_'	'	n/a
240.1445	0.075	480289	keystroke_;	;	n/a
240.459	0.075	480918	keystroke_;	;	n/a
240.804	0.075	481608	keystroke_Key.backspace	Key.backspace	n/a
240.969	0.06	481938	keystroke_Key.backspace	Key.backspace	n/a
241.2695	0.12	482539	keystroke_l	l	n/a
241.7045	0.1195	483409	keystroke_l	l	n/a
242.0345	0.105	484069	keystroke_Key.space	Key.space	n/a
242.2595	0.105	484519	keystroke_d	d	n/a
242.4095	0.074	484819	keystroke_i	i	n/a
242.5435	0.12	485087	keystroke_s	s	n/a
242.8445	0.119	485689	keystroke_t	t	n/a
243.009	0.0905	486018	keystroke_r	r	n/a
243.1145	0.059	486229	keystroke_i	i	n/a
243.2945	0.0745	486589	keystroke_b	b	n/a
243.474	0.09	486948	keystroke_u	u	n/a
243.579	0.15	487158	keystroke_t	t	n/a
243.789	0.12	487578	keystroke_e	e	n/a
244.014	0.075	488028	keystroke_Key.space	Key.space	n/a
244.314	0.09	488628	keystroke_r	r	n/a
244.419	0.075	488838	keystroke_o	o	n/a
244.569	0.105	489138	keystroke_g	g	n/a
244.779	0.1945	489558	keystroke_e	e	n/a
244.9285	0.135	489857	keystroke_r	r	n/a
245.1535	0.075	490307	keystroke_Key.enter	Key.enter	n/a
245.2335	7.542	490467	prompt	n/a	offensive walter peers reception\n
245.8145	0.104	491629	keystroke_o	o	n/a
245.949	0.09	491898	keystroke_f	f	n/a
246.159	0.105	492318	keystroke_f	f	n/a
246.294	0.0905	492588	keystroke_e	e	n/a
246.474	0.0755	492948	keystroke_n	n	n/a
246.6395	0.12	493279	keystroke_s	s	n/a
246.774	0.0755	493548	keystroke_i	i	n/a
246.954	0.135	493908	keystroke_v	v	n/a
247.1645	0.0895	494329	keystroke_e	e	n/a
247.359	0.0905	494718	keystroke_Key.space	Key.space	n/a
247.539	0.09	495078	keystroke_w	w	n/a
247.974	0.0455	495948	keystroke_a	a	n/a
248.0495	0.1195	496099	keystroke_l	l	n/a
248.229	0.0905	496458	keystroke_t	t	n/a
248.454	0.1805	496908	keystroke_e	e	n/a
248.6195	0.09	497239	keystroke_r	r	n/a
248.7845	0.09	497569	keystroke_Key.space	Key.space	n/a
249.0245	0.06	498049	keystroke_p	p	n/a
249.2345	0.06	498469	keystroke_e	e	n/a
249.489	0.135	498978	keystroke_e	e	n/a
249.669	0.09	499338	keystroke_r	r	n/a
249.969	0.105	499938	keystroke_s	s	n/a
250.149	0.09	500298	keystroke_Key.space	Key.space	n/a
250.794	0.12	501588	keystroke_r	r	n/a
250.929	0.12	501858	keystroke_e	e	n/a
251.154	0.12	502308	keystroke_c	c	n/a
251.634	0.105	503268	keystroke_e	e	n/a
251.799	0.105	503598	keystroke_p	p	n/a
251.949	0.09	503898	keystroke_t	t	n/a
252.129	0.075	504258	keystroke_i	i	n/a
252.234	0.12	504468	keystroke_o	o	n/a
252.429	0.12	504858	keystroke_n	n	n/a
252.684	0.0895	505368	keystroke_Key.enter	Key.enter	n/a
252.7815	7.0145	505563	prompt	n/a	buck mounting typing grande\n
253.479	0.09	506958	keystroke_b	b	n/a
253.689	0.105	507378	keystroke_u	u	n/a
253.8245	0.1195	507649	keystroke_c	c	n/a
254.034	0.09	508068	keystroke_j	j	n/a
254.5285	0.076	509057	keystroke_Key.backspace	Key.backspace	n/a
254.8285	0.1205	509657	keystroke_k	k	n/a
255.069	0.075	510138	keystroke_Key.space	Key.space	n/a
255.294	0.075	510588	keystroke_m	m	n/a
255.429	0.12	510858	keystroke_o	o	n/a
255.609	0.075	511218	keystroke_u	u	n/a
255.7745	0.0895	511549	keystroke_n	n	n/a
255.879	0.0755	511758	keystroke_t	t	n/a
255.984	0.09	511968	keystroke_i	i	n/a
256.134	0.1345	512268	keystroke_n	n	n/a
256.3285	0.091	512657	keystroke_g	g	n/a
256.4785	0.075	512957	keystroke_Key.space	Key.space	n/a
256.6745	0.09	513349	keystroke_t	t	n/a
256.9285	0.105	513857	keystroke_y	y	n/a
257.139	0.06	514278	keystroke_p	p	n/a
257.574	0.0755	515148	keystroke_i	i	n/a
257.754	0.1055	515508	keystroke_n	n	n/a
257.889	0.09	515778	keystroke_g	g	n/a
257.994	0.09	515988	keystroke_Key.space	Key.space	n/a
258.504	0.12	517008	keystroke_g	g	n/a
258.684	0.135	517368	keystroke_r	r	n/a
258.849	0.12	517698	keystroke_a	a	n/a
259.194	0.12	518388	keystroke_n	n	n/a
259.404	0.1505	518808	keystroke_d	d	n/a
259.5395	0.105	519079	keystroke_e	e	n/a
259.704	0.09	519408	keystroke_Key.enter	Key.enter	n/a
259.8	8.0955	519600	prompt	n/a	curriculum ralph shipping divide\n
260.424	0.0905	520848	keystroke_c	c	n/a
260.5885	0.0605	521177	keystroke_u	u	n/a
260.8285	0.075	521657	keystroke_r	r	n/a
261.0995	0.09	522199	keystroke_r	r	n/a
261.3095	0.089	522619	keystroke_i	i	n/a
261.5195	0.06	523039	keystroke_c	c	n/a
261.6395	0.09	523279	keystroke_u	u	n/a
261.8645	0.0745	523729	keystroke_l	l	n/a
262.1045	0.105	524209	keystroke_u	u	n/a
262.3885	0.09	524777	keystroke_m	m	n/a
262.5395	0.075	525079	keystroke_Key.space	Key.space	n/a
262.734	0.0905	525468	keystroke_r	r	n/a
262.8845	0.135	525769	keystroke_a	a	n/a
263.2295	0.105	526459	keystroke_l	l	n/a
263.5745	0.09	527149	keystroke_p	p	n/a
263.874	0.09	527748	keystroke_h	h	n/a
264.069	0.09	528138	keystroke_Key.space	Key.space	n/a
264.5485	0.0755	529097	keystroke_s	s	n/a
264.654	0.0605	529308	keystroke_h	h	n/a
264.8185	0.076	529637	keystroke_i	i	n/a
264.9845	0.074	529969	keystroke_p	p	n/a
265.1345	0.075	530269	keystroke_p	p	n/a
265.344	0.06	530688	keystroke_i	i	n/a
266.469	0.0905	532938	keystroke_n	n	n/a
266.604	0.0605	533208	keystroke_g	g	n/a
266.694	0.09	533388	keystroke_Key.space	Key.space	n/a
266.9495	0.1195	533899	keystroke_d	d	n/a
267.099	0.075	534198	keystroke_i	i	n/a
267.2345	0.045	534469	keystroke_v	v	n/a
267.3245	0.0745	534649	keystroke_i	i	n/a
267.489	0.135	534978	keystroke_d	d	n/a
267.609	0.135	535218	keystroke_e	e	n/a
267.774	0.12	535548	keystroke_Key.enter	Key.enter	n/a
267.9005	6.535	535801	prompt	n/a	holocaust we'd local politics\n
268.6135	0.12	537227	keystroke_h	h	n/a
268.824	0.0905	537648	keystroke_o	o	n/a
269.0335	0.105	538067	keystroke_l	l	n/a
269.229	0.105	538458	keystroke_o	o	n/a
269.439	0.12	538878	keystroke_c	c	n/a
269.604	0.1055	539208	keystroke_a	a	n/a
269.7235	0.0755	539447	keystroke_u	u	n/a
269.8445	0.1345	539689	keystroke_s	s	n/a
270.069	0.105	540138	keystroke_t	t	n/a
270.264	0.09	540528	keystroke_Key.space	Key.space	n/a
270.5185	0.1655	541037	keystroke_w	w	n/a
270.654	0.105	541308	keystroke_e	e	n/a
270.939	0.0895	541878	keystroke_'	'	n/a
271.1335	0.105	542267	keystroke_d	d	n/a
271.7035	0.09	543407	keystroke_Key.space	Key.space	n/a
271.9435	0.09	543887	keystroke_l	l	n/a
272.1095	0.09	544219	keystroke_o	o	n/a
272.2295	0.15	544459	keystroke_c	c	n/a
272.3935	0.121	544787	keystroke_a	a	n/a
272.5285	0.09	545057	keystroke_l	l	n/a
272.7235	0.0905	545447	keystroke_Key.space	Key.space	n/a
272.934	0.12	545868	keystroke_p	p	n/a
273.114	0.1055	546228	keystroke_o	o	n/a
273.3245	0.12	546649	keystroke_l	l	n/a
273.5495	0.0895	547099	keystroke_i	i	n/a
273.654	0.075	547308	keystroke_t	t	n/a
273.759	0.1045	547518	keystroke_i	i	n/a
273.9985	0.1505	547997	keystroke_c	c	n/a
274.179	0.1055	548358	keystroke_s	s	n/a
274.374	0.06	548748	keystroke_Key.enter	Key.enter	n/a
274.44	9.476	548880	prompt	n/a	reliable proceeds frequencies high\n
275.0795	0.105	550159	keystroke_r	r	n/a
275.229	0.0905	550458	keystroke_e	e	n/a
275.3345	0.09	550669	keystroke_l	l	n/a
275.5295	0.075	551059	keystroke_i	i	n/a
275.6495	0.1345	551299	keystroke_a	a	n/a
275.9045	0.104	551809	keystroke_b	b	n/a
276.1435	0.105	552287	keystroke_l	l	n/a
276.264	0.0905	552528	keystroke_e	e	n/a
276.399	0.09	552798	keystroke_Key.space	Key.space	n/a
276.6245	0.09	553249	keystroke_p	p	n/a
276.759	0.1355	553518	keystroke_r	r	n/a
277.104	0.09	554208	keystroke_o	o	n/a
277.299	0.105	554598	keystroke_c	c	n/a
277.5095	0.105	555019	keystroke_e	e	n/a
277.734	0.1345	555468	keystroke_e	e	n/a
277.9135	0.18	555827	keystroke_d	d	n/a
278.1085	0.091	556217	keystroke_s	s	n/a
278.2285	0.0755	556457	keystroke_Key.space	Key.space	n/a
278.6035	0.091	557207	keystroke_f	f	n/a
278.889	0.1655	557778	keystroke_r	r	n/a
278.934	0.225	557868	keystroke_e	e	n/a
279.279	0.105	558558	keystroke_q	q	n/a
279.444	0.09	558888	keystroke_u	u	n/a
279.579	0.09	559158	keystroke_e	e	n/a
279.759	0.075	559518	keystroke_n	n	n/a
279.879	0.15	559758	keystroke_c	c	n/a
280.074	0.135	560148	keystroke_e	e	n/a
280.1935	0.135	560387	keystroke_s	s	n/a
280.6735	0.09	561347	keystroke_Key.backspace	Key.backspace	n/a
281.3485	0.0745	562697	keystroke_Key.backspace	Key.backspace	n/a
281.724	0.0595	563448	keystroke_u	u	n/a
282.2035	0.0755	564407	keystroke_Key.backspace	Key.backspace	n/a
282.5045	0.0595	565009	keystroke_i	i	n/a
282.639	0.195	565278	keystroke_e	e	n/a
282.789	0.1345	565578	keystroke_s	s	n/a
282.9685	0.06	565937	keystroke_Key.space	Key.space	n/a
283.194	0.0745	566388	keystroke_h	h	n/a
283.3435	0.106	566687	keystroke_i	i	n/a
283.4645	0.09	566929	keystroke_g	g	n/a
283.5845	0.074	567169	keystroke_h	h	n/a
283.824	0.0895	567648	keystroke_Key.enter	Key.enter	n/a
283.9205	6.7	567841	prompt	n/a	between warner canberra faster\n
284.649	0.0745	569298	keystroke_b	b	n/a
284.7845	0.105	569569	keystroke_e	e	n/a
285.0545	0.12	570109	keystroke_t	t	n/a
285.3385	0.106	570677	keystroke_w	w	n/a
285.4885	0.09	570977	keystroke_e	e	n/a
285.699	0.105	571398	keystroke_e	e	n/a
285.894	0.09	571788	keystroke_n	n	n/a
286.089	0.075	572178	keystroke_Key.space	Key.space	n/a
286.329	0.105	572658	keystroke_w	w	n/a
286.479	0.12	572958	keystroke_a	a	n/a
286.704	0.075	573408	keystroke_r	r	n/a
286.8095	0.1045	573619	keystroke_n	n	n/a
286.959	0.165	573918	keystroke_e	e	n/a
287.064	0.12	574128	keystroke_r	r	n/a
287.199	0.09	574398	keystroke_Key.space	Key.space	n/a
287.5445	0.074	575089	keystroke_c	c	n/a
287.7395	0.135	575479	keystroke_a	a	n/a
287.8595	0.0895	575719	keystroke_n	n	n/a
288.219	0.105	576438	keystroke_b	b	n/a
288.354	0.18	576708	keystroke_e	e	n/a
288.504	0.1055	577008	keystroke_r	r	n/a
288.714	0.165	577428	keystroke_r	r	n/a
288.8945	0.105	577789	keystroke_a	a	n/a
288.984	0.105	577968	keystroke_Key.space	Key.space	n/a
289.344	0.09	578688	keystroke_f	f	n/a
289.4645	0.1795	578929	keystroke_a	a	n/a
289.5995	0.1195	579199	keystroke_s	s	n/a
289.809	0.0745	579618	keystroke_t	t	n/a
290.019	0.1955	580038	keystroke_e	e	n/a
290.1535	0.121	580307	keystroke_r	r	n/a
290.529	0.09	581058	keystroke_Key.enter	Key.enter	n/a
290.624	7.5265	581248	prompt	n/a	diary semi tubes anonymous\n
291.5045	0.134	583009	keystroke_d	d	n/a
291.624	0.09	583248	keystroke_i	i	n/a
291.7435	0.1655	583487	keystroke_a	a	n/a
291.954	0.09	583908	keystroke_r	r	n/a
292.134	0.1195	584268	keystroke_y	y	n/a
292.344	0.0905	584688	keystroke_Key.space	Key.space	n/a
292.7495	0.104	585499	keystroke_s	s	n/a
292.8985	0.0905	585797	keystroke_e	e	n/a
293.0485	0.09	586097	keystroke_m	m	n/a
293.2585	0.1355	586517	keystroke_i	i	n/a
293.423	0.076	586846	keystroke_Key.space	Key.space	n/a
293.739	0.1055	587478	keystroke_t	t	n/a
294.069	0.075	588138	keystroke_u	u	n/a
294.309	0.105	588618	keystroke_b	b	n/a
294.459	0.1055	588918	keystroke_e	e	n/a
294.7285	0.1355	589457	keystroke_s	s	n/a
294.894	0.1045	589788	keystroke_Key.space	Key.space	n/a
295.179	0.0895	590358	keystroke_a	a	n/a
295.314	0.06	590628	keystroke_n	n	n/a
295.5985	0.06	591197	keystroke_o	o	n/a
295.7645	0.0745	591529	keystroke_n	n	n/a
295.899	0.0895	591798	keystroke_t	t	n/a
296.064	0.09	592128	keystroke_m	m	n/a
296.499	0.06	592998	keystroke_Key.backspace	Key.backspace	n/a
296.709	0.015	593418	keystroke_Key.backspace	Key.backspace	n/a
297.114	0.06	594228	keystroke_y	y	n/a
297.384	0.09	594768	keystroke_m	m	n/a
297.549	0.12	595098	keystroke_o	o	n/a
297.729	0.09	595458	keystroke_u	u	n/a
297.8485	0.09	595697	keystroke_s	s	n/a
298.074	0.075	596148	keystroke_Key.enter	Key.enter	n/a
298.155	12.0555	596310	prompt	n/a	healing gratuit fundamental central\n
298.8385	0.105	597677	keystroke_h	h	n/a
298.9445	0.15	597889	keystroke_e	e	n/a
299.109	0.1205	598218	keystroke_a	a	n/a
299.1995	0.104	598399	keystroke_l	l	n/a
299.4085	0.0755	598817	keystroke_i	i	n/a
299.6185	0.075	599237	keystroke_n	n	n/a
299.7085	0.1205	599417	keystroke_g	g	n/a
299.8435	0.105	599687	keystroke_Key.space	Key.space	n/a
300.0985	0.151	600197	keystroke_f	f	n/a
300.6845	0.089	601369	keystroke_Key.backspace	Key.backspace	n/a
301.509	0.059	603018	keystroke_g	g	n/a
301.7495	0.1195	603499	keystroke_r	r	n/a
301.898	0.1205	603796	keystroke_a	a	n/a
302.1235	0.09	604247	keystroke_t	t	n/a
304.3605	0.028	608721	keystroke_u	u	n/a
304.4345	0.119	608869	keystroke_i	i	n/a
304.5235	0.0915	609047	keystroke_t	t	n/a
304.8085	0.1055	609617	keystroke_Key.space	Key.space	n/a
306.549	0.074	613098	keystroke_f	f	n/a
306.6385	0.09	613277	keystroke_u	u	n/a
306.804	0.089	613608	keystroke_n	n	n/a
306.909	0.165	613818	keystroke_d	d	n/a
307.0895	0.119	614179	keystroke_a	a	n/a
307.2385	0.0905	614477	keystroke_m	m	n/a
307.344	0.1495	614688	keystroke_e	e	n/a
307.4785	0.076	614957	keystroke_n	n	n/a
307.5695	0.12	615139	keystroke_t	t	n/a
307.7035	0.1805	615407	keystroke_a	a	n/a
307.884	0.1055	615768	keystroke_l	l	n/a
308.034	0.1045	616068	keystroke_Key.space	Key.space	n/a
308.2595	0.119	616519	keystroke_c	c	n/a
308.3935	0.151	616787	keystroke_e	e	n/a
308.5295	0.105	617059	keystroke_n	n	n/a
308.6785	0.1205	617357	keystroke_t	t	n/a
308.7995	0.1945	617599	keystroke_r	r	n/a
308.949	0.105	617898	keystroke_a	a	n/a
309.655	0.134	619310	keystroke_l	l	n/a
310.1345	0.074	620269	keystroke_Key.enter	Key.enter	n/a
310.214	12.2815	620428	prompt	n/a	alexandria employed enrollment granted\n
310.8085	0.12	621617	keystroke_a	a	n/a
311.0035	0.121	622007	keystroke_l	l	n/a
311.2135	0.091	622427	keystroke_e	e	n/a
312.324	0.15	624648	keystroke_x	x	n/a
312.8345	0.134	625669	keystroke_a	a	n/a
313.0285	0.09	626057	keystroke_n	n	n/a
313.8535	0.121	627707	keystroke_d	d	n/a
314.1835	0.0905	628367	keystroke_r	r	n/a
314.439	0.105	628878	keystroke_i	i	n/a
314.7085	0.12	629417	keystroke_a	a	n/a
314.859	0.105	629718	keystroke_Key.space	Key.space	n/a
315.039	0.0895	630078	keystroke_e	e	n/a
315.1595	0.0745	630319	keystroke_m	m	n/a
315.3395	0.1045	630679	keystroke_p	p	n/a
315.669	0.09	631338	keystroke_l	l	n/a
315.834	0.09	631668	keystroke_o	o	n/a
316.104	0.09	632208	keystroke_t	t	n/a
316.4185	0.06	632837	keystroke_e	e	n/a
316.6285	0.09	633257	keystroke_Key.backspace	Key.backspace	n/a
317.6785	0.0905	635357	keystroke_Key.backspace	Key.backspace	n/a
318.1745	0.059	636349	keystroke_y	y	n/a
318.3385	0.1655	636677	keystroke_e	e	n/a
318.5635	0.105	637127	keystroke_d	d	n/a
318.7735	0.09	637547	keystroke_Key.space	Key.space	n/a
318.9985	0.09	637997	keystroke_e	e	n/a
319.104	0.0895	638208	keystroke_n	n	n/a
319.2835	0.09	638567	keystroke_r	r	n/a
319.4035	0.09	638807	keystroke_o	o	n/a
319.6135	0.046	639227	keystroke_l	l	n/a
319.7645	0.0895	639529	keystroke_l	l	n/a
320.5735	0.0905	641147	keystroke_m	m	n/a
320.6785	0.105	641357	keystroke_e	e	n/a
320.8135	0.091	641627	keystroke_n	n	n/a
320.9185	0.075	641837	keystroke_t	t	n/a
321.0085	0.0755	642017	keystroke_Key.space	Key.space	n/a
321.2485	0.09	642497	keystroke_g	g	n/a
321.3685	0.1355	642737	keystroke_r	r	n/a
321.5185	0.165	643037	keystroke_a	a	n/a
321.6685	0.1055	643337	keystroke_n	n	n/a
321.8035	0.1205	643607	keystroke_t	t	n/a
321.9685	0.196	643937	keystroke_e	e	n/a
322.1335	0.165	644267	keystroke_d	d	n/a
322.3585	0.135	644717	keystroke_Key.enter	Key.enter	n/a
322.4995	10.271	644999	prompt	n/a	michelle oriented geographical effectiveness\n
323.214	0.0445	646428	keystroke_m	m	n/a
323.3485	0.1055	646697	keystroke_i	i	n/a
323.4845	0.089	646969	keystroke_c	c	n/a
323.6335	0.075	647267	keystroke_h	h	n/a
323.829	0.075	647658	keystroke_e	e	n/a
324.054	0.0605	648108	keystroke_l	l	n/a
324.204	0.06	648408	keystroke_l	l	n/a
324.369	0.075	648738	keystroke_e	e	n/a
324.534	0.06	649068	keystroke_Key.space	Key.space	n/a
324.744	0.105	649488	keystroke_o	o	n/a
324.864	0.075	649728	keystroke_r	r	n/a
325.044	0.105	650088	keystroke_i	i	n/a
325.2245	0.0895	650449	keystroke_t	t	n/a
325.824	0.09	651648	keystroke_Key.backspace	Key.backspace	n/a
325.944	0.12	651888	keystroke_e	e	n/a
326.169	0.105	652338	keystroke_n	n	n/a
326.289	0.1345	652578	keystroke_t	t	n/a
326.529	0.15	653058	keystroke_e	e	n/a
326.7385	0.136	653477	keystroke_d	d	n/a
326.9335	0.105	653867	keystroke_Key.space	Key.space	n/a
327.3235	0.09	654647	keystroke_g	g	n/a
327.714	0.0895	655428	keystroke_e	e	n/a
327.7885	0.075	655577	keystroke_o	o	n/a
328.689	0.0905	657378	keystroke_g	g	n/a
328.81	0.134	657620	keystroke_r	r	n/a
328.959	0.12	657918	keystroke_a	a	n/a
329.0045	0.0595	658009	keystroke_p	p	n/a
329.229	0.09	658458	keystroke_h	h	n/a
329.3945	0.119	658789	keystroke_i	i	n/a
329.544	0.1495	659088	keystroke_c	c	n/a
329.7385	0.135	659477	keystroke_a	a	n/a
329.8435	0.1205	659687	keystroke_l	l	n/a
330.0685	0.06	660137	keystroke_Key.space	Key.space	n/a
330.2485	0.075	660497	keystroke_e	e	n/a
330.4735	0.06	660947	keystroke_f	f	n/a
330.6385	0.135	661277	keystroke_f	f	n/a
330.7885	0.09	661577	keystroke_e	e	n/a
330.9395	0.1045	661879	keystroke_c	c	n/a
331.2545	0.0595	662509	keystroke_t	t	n/a
331.404	0.09	662808	keystroke_i	i	n/a
331.5085	0.1505	663017	keystroke_v	v	n/a
331.764	0.0905	663528	keystroke_e	e	n/a
331.8995	0.0895	663799	keystroke_n	n	n/a
332.049	0.1795	664098	keystroke_e	e	n/a
332.184	0.105	664368	keystroke_s	s	n/a
332.439	0.0895	664878	keystroke_s	s	n/a
332.6635	0.1055	665327	keystroke_Key.enter	Key.enter	n/a
332.774	12.0865	665548	prompt	n/a	stats southampton spirits france\n
333.459	0.12	666918	keystroke_s	s	n/a
333.6235	0.105	667247	keystroke_t	t	n/a
333.7445	0.164	667489	keystroke_a	a	n/a
333.8795	0.149	667759	keystroke_t	t	n/a
334.344	0.12	668688	keystroke_s	s	n/a
334.539	0.09	669078	keystroke_Key.space	Key.space	n/a
334.853	0.09	669706	keystroke_s	s	n/a
334.989	0.12	669978	keystroke_o	o	n/a
335.199	0.105	670398	keystroke_u	u	n/a
335.334	0.0895	670668	keystroke_t	t	n/a
335.4685	0.091	670937	keystroke_h	h	n/a
336.444	0.0905	672888	keystroke_h	h	n/a
336.5935	0.12	673187	keystroke_a	a	n/a
336.7735	0.075	673547	keystroke_p	p	n/a
338.6485	0.0905	677297	keystroke_Key.backspace	Key.backspace	n/a
338.844	0.119	677688	keystroke_Key.backspace	Key.backspace	n/a
339.819	0.105	679638	keystroke_Key.backspace	Key.backspace	n/a
341.0495	0.105	682099	keystroke_a	a	n/a
341.3045	0.074	682609	keystroke_m	m	n/a
341.4985	0.12	682997	keystroke_p	p	n/a
341.6335	0.09	683267	keystroke_t	t	n/a
342.084	0.105	684168	keystroke_o	o	n/a
342.429	0.075	684858	keystroke_n	n	n/a
342.594	0.06	685188	keystroke_Key.space	Key.space	n/a
342.714	0.1055	685428	keystroke_s	s	n/a
342.774	0.1045	685548	keystroke_p	p	n/a
342.9685	0.0905	685937	keystroke_i	i	n/a
343.059	0.075	686118	keystroke_r	r	n/a
343.1635	0.09	686327	keystroke_i	i	n/a
343.2685	0.1205	686537	keystroke_t	t	n/a
343.4785	0.1205	686957	keystroke_s	s	n/a
343.614	0.09	687228	keystroke_Key.space	Key.space	n/a
343.7935	0.0755	687587	keystroke_f	f	n/a
343.989	0.135	687978	keystroke_r	r	n/a
344.1385	0.1505	688277	keystroke_a	a	n/a
344.274	0.1055	688548	keystroke_n	n	n/a
344.4535	0.105	688907	keystroke_c	c	n/a
344.6035	0.12	689207	keystroke_e	e	n/a
344.7685	0.09	689537	keystroke_Key.enter	Key.enter	n/a
344.8675	8.183	689735	prompt	n/a	charge fits intend offered\n
345.564	0.12	691128	keystroke_c	c	n/a
345.699	0.0905	691398	keystroke_h	h	n/a
345.804	0.15	691608	keystroke_a	a	n/a
345.984	0.0905	691968	keystroke_r	r	n/a
346.344	0.1345	692688	keystroke_g	g	n/a
346.6735	0.091	693347	keystroke_e	e	n/a
346.9135	0.105	693827	keystroke_Key.space	Key.space	n/a
347.198	0.075	694396	keystroke_f	f	n/a
347.454	0.09	694908	keystroke_i	i	n/a
347.604	0.1055	695208	keystroke_t	t	n/a
347.9045	0.1045	695809	keystroke_s	s	n/a
348.053	0.091	696106	keystroke_Key.space	Key.space	n/a
348.3835	0.06	696767	keystroke_i	i	n/a
348.564	0.0745	697128	keystroke_n	n	n/a
348.6835	0.105	697367	keystroke_e	e	n/a
348.864	0.075	697728	keystroke_t	t	n/a
348.984	0.09	697968	keystroke_n	n	n/a
349.5835	0.0605	699167	keystroke_Key.backspace	Key.backspace	n/a
349.719	0.075	699438	keystroke_Key.backspace	Key.backspace	n/a
349.959	0.09	699918	keystroke_Key.backspace	Key.backspace	n/a
350.319	0.105	700638	keystroke_t	t	n/a
350.799	0.075	701598	keystroke_e	e	n/a
350.964	0.0595	701928	keystroke_n	n	n/a
351.1135	0.105	702227	keystroke_d	d	n/a
351.564	0.09	703128	keystroke_Key.space	Key.space	n/a
351.8035	0.105	703607	keystroke_o	o	n/a
351.969	0.0745	703938	keystroke_f	f	n/a
352.1645	0.0735	704329	keystroke_f	f	n/a
352.329	0.12	704658	keystroke_e	e	n/a
352.419	0.165	704838	keystroke_r	r	n/a
352.599	0.165	705198	keystroke_e	e	n/a
352.749	0.12	705498	keystroke_d	d	n/a
352.944	0.105	705888	keystroke_Key.enter	Key.enter	n/a
353.0545	7.676	706109	prompt	n/a	technique tamil nintendo imports\n
353.724	0.105	707448	keystroke_t	t	n/a
353.889	0.105	707778	keystroke_e	e	n/a
354.084	0.12	708168	keystroke_c	c	n/a
354.234	0.06	708468	keystroke_h	h	n/a
354.459	0.0905	708918	keystroke_n	n	n/a
354.8185	0.1055	709637	keystroke_i	i	n/a
355.028	0.1355	710056	keystroke_q	q	n/a
355.3295	0.0745	710659	keystroke_u	u	n/a
355.509	0.09	711018	keystroke_e	e	n/a
355.719	0.09	711438	keystroke_Key.space	Key.space	n/a
356.019	0.105	712038	keystroke_t	t	n/a
356.364	0.1055	712728	keystroke_a	a	n/a
356.5435	0.105	713087	keystroke_m	m	n/a
356.7685	0.0605	713537	keystroke_i	i	n/a
356.934	0.12	713868	keystroke_l	l	n/a
357.099	0.09	714198	keystroke_Key.space	Key.space	n/a
357.294	0.075	714588	keystroke_n	n	n/a
357.459	0.105	714918	keystroke_i	i	n/a
357.669	0.075	715338	keystroke_n	n	n/a
357.909	0.105	715818	keystroke_t	t	n/a
358.104	0.105	716208	keystroke_e	e	n/a
358.2395	0.09	716479	keystroke_n	n	n/a
358.4335	0.1055	716867	keystroke_d	d	n/a
358.5695	0.119	717139	keystroke_o	o	n/a
359.169	0.105	718338	keystroke_Key.space	Key.space	n/a
359.319	0.1055	718638	keystroke_i	i	n/a
359.499	0.105	718998	keystroke_m	m	n/a
359.724	0.1205	719448	keystroke_p	p	n/a
359.8595	0.1045	719719	keystroke_o	o	n/a
359.979	0.2105	719958	keystroke_r	r	n/a
360.144	0.1655	720288	keystroke_t	t	n/a
360.3535	0.1355	720707	keystroke_s	s	n/a
360.6535	0.0755	721307	keystroke_Key.enter	Key.enter	n/a
360.735	7.616	721470	prompt	n/a	moved ocean backgrounds breathing\n
361.3445	0.0895	722689	keystroke_m	m	n/a
361.479	0.135	722958	keystroke_o	o	n/a
361.6445	0.104	723289	keystroke_v	v	n/a
361.929	0.1345	723858	keystroke_e	e	n/a
362.1245	0.119	724249	keystroke_d	d	n/a
362.259	0.0895	724518	keystroke_Key.space	Key.space	n/a
362.454	0.09	724908	keystroke_o	o	n/a
362.5445	0.1345	725089	keystroke_c	c	n/a
362.739	0.15	725478	keystroke_e	e	n/a
362.904	0.15	725808	keystroke_a	a	n/a
363.024	0.1205	726048	keystroke_n	n	n/a
363.219	0.075	726438	keystroke_Key.space	Key.space	n/a
363.6985	0.12	727397	keystroke_b	b	n/a
363.8635	0.1655	727727	keystroke_a	a	n/a
364.0885	0.106	728177	keystroke_c	c	n/a
365.139	0.12	730278	keystroke_k	k	n/a
365.484	0.105	730968	keystroke_g	g	n/a
365.604	0.09	731208	keystroke_r	r	n/a
365.694	0.105	731388	keystroke_o	o	n/a
365.844	0.1055	731688	keystroke_u	u	n/a
366.0685	0.0755	732137	keystroke_n	n	n/a
366.219	0.0905	732438	keystroke_d	d	n/a
366.3845	0.104	732769	keystroke_Key.space	Key.space	n/a
366.7435	0.075	733487	keystroke_b	b	n/a
366.9385	0.136	733877	keystroke_r	r	n/a
367.059	0.1655	734118	keystroke_e	e	n/a
367.209	0.1945	734418	keystroke_a	a	n/a
367.3895	0.089	734779	keystroke_t	t	n/a
367.494	0.0895	734988	keystroke_h	h	n/a
367.6585	0.09	735317	keystroke_i	i	n/a
367.8535	0.075	735707	keystroke_n	n	n/a
367.9735	0.105	735947	keystroke_g	g	n/a
368.199	0.1495	736398	keystroke_Key.enter	Key.enter	n/a
368.3555	8.08	736711	prompt	n/a	worship gasoline removal amazing\n
369.0085	0.15	738017	keystroke_w	w	n/a
369.1435	0.12	738287	keystroke_o	o	n/a
369.2795	0.074	738559	keystroke_r	r	n/a
369.4735	0.1055	738947	keystroke_s	s	n/a
369.5945	0.0895	739189	keystroke_h	h	n/a
369.8185	0.075	739637	keystroke_i	i	n/a
370.0145	0.089	740029	keystroke_p	p	n/a
370.1335	0.105	740267	keystroke_Key.space	Key.space	n/a
370.374	0.09	740748	keystroke_g	g	n/a
370.4935	0.1805	740987	keystroke_a	a	n/a
370.6435	0.136	741287	keystroke_s	s	n/a
370.854	0.0905	741708	keystroke_o	o	n/a
371.049	0.09	742098	keystroke_l	l	n/a
371.274	0.0605	742548	keystroke_i	i	n/a
371.4985	0.075	742997	keystroke_n	n	n/a
371.649	0.1205	743298	keystroke_e	e	n/a
371.9035	0.106	743807	keystroke_Key.space	Key.space	n/a
372.234	0.12	744468	keystroke_r	r	n/a
372.3685	0.105	744737	keystroke_e	e	n/a
372.459	0.09	744918	keystroke_m	m	n/a
372.7885	0.0905	745577	keystroke_o	o	n/a
373.239	0.0905	746478	keystroke_v	v	n/a
373.404	0.135	746808	keystroke_a	a	n/a
373.539	0.12	747078	keystroke_l	l	n/a
373.764	0.075	747528	keystroke_Key.space	Key.space	n/a
373.959	0.12	747918	keystroke_a	a	n/a
374.094	0.1045	748188	keystroke_m	m	n/a
375.294	0.12	750588	keystroke_a	a	n/a
375.549	0.135	751098	keystroke_z	z	n/a
375.804	0.089	751608	keystroke_i	i	n/a
375.969	0.12	751938	keystroke_n	n	n/a
376.104	0.09	752208	keystroke_g	g	n/a
376.329	0.105	752658	keystroke_Key.enter	Key.enter	n/a
376.4395	9.3575	752879	prompt	n/a	instant moments measurements acute\n
377.0645	0.074	754129	keystroke_i	i	n/a
377.1985	0.105	754397	keystroke_s	s	n/a
377.799	0.0745	755598	keystroke_Key.backspace	Key.backspace	n/a
378.099	0.0745	756198	keystroke_n	n	n/a
378.3385	0.12	756677	keystroke_s	s	n/a
378.4735	0.09	756947	keystroke_t	t	n/a
378.5785	0.165	757157	keystroke_a	a	n/a
379.074	0.09	758148	keystroke_n	n	n/a
379.239	0.09	758478	keystroke_t	t	n/a
379.404	0.12	758808	keystroke_Key.space	Key.space	n/a
379.8385	0.09	759677	keystroke_m	m	n/a
379.9885	0.105	759977	keystroke_o	o	n/a
380.2445	0.104	760489	keystroke_e	e	n/a
380.619	0.105	761238	keystroke_Key.backspace	Key.backspace	n/a
381.1145	0.09	762229	keystroke_m	m	n/a
381.234	0.1345	762468	keystroke_e	e	n/a
381.3535	0.0905	762707	keystroke_n	n	n/a
381.4745	0.104	762949	keystroke_t	t	n/a
381.684	0.09	763368	keystroke_s	s	n/a
381.834	0.12	763668	keystroke_Key.space	Key.space	n/a
382.149	0.09	764298	keystroke_m	m	n/a
382.2845	0.1345	764569	keystroke_e	e	n/a
382.434	0.18	764868	keystroke_a	a	n/a
382.599	0.15	765198	keystroke_s	s	n/a
382.839	0.09	765678	keystroke_u	u	n/a
382.974	0.1205	765948	keystroke_r	r	n/a
383.079	0.12	766158	keystroke_e	e	n/a
383.274	0.0905	766548	keystroke_m	m	n/a
383.379	0.15	766758	keystroke_e	e	n/a
383.514	0.105	767028	keystroke_n	n	n/a
383.649	0.09	767298	keystroke_t	t	n/a
383.814	0.105	767628	keystroke_s	s	n/a
384.144	0.075	768288	keystroke_Key.space	Key.space	n/a
384.594	0.1355	769188	keystroke_a	a	n/a
384.774	0.09	769548	keystroke_c	c	n/a
384.909	0.0755	769818	keystroke_u	u	n/a
385.074	0.1345	770148	keystroke_t	t	n/a
385.2395	0.1345	770479	keystroke_e	e	n/a
385.6885	0.106	771377	keystroke_Key.enter	Key.enter	n/a
385.806	5.39	771612	prompt	n/a	terry rose itself finds\n
386.8895	0.0895	773779	keystroke_t	t	n/a
387.099	0.165	774198	keystroke_e	e	n/a
387.354	0.09	774708	keystroke_r	r	n/a
387.579	0.0905	775158	keystroke_r	r	n/a
387.789	0.075	775578	keystroke_y	y	n/a
388.0135	0.0905	776027	keystroke_Key.space	Key.space	n/a
388.1635	0.1055	776327	keystroke_r	r	n/a
388.284	0.12	776568	keystroke_o	o	n/a
388.4345	0.1645	776869	keystroke_s	s	n/a
388.584	0.135	777168	keystroke_e	e	n/a
388.764	0.09	777528	keystroke_Key.space	Key.space	n/a
388.929	0.09	777858	keystroke_i	i	n/a
389.0795	0.104	778159	keystroke_t	t	n/a
389.3635	0.1505	778727	keystroke_s	s	n/a
389.4985	0.106	778997	keystroke_e	e	n/a
389.6945	0.1045	779389	keystroke_l	l	n/a
389.829	0.1205	779658	keystroke_f	f	n/a
389.9645	0.089	779929	keystroke_Key.space	Key.space	n/a
390.2485	0.0755	780497	keystroke_f	f	n/a
390.5195	0.06	781039	keystroke_i	i	n/a
390.6535	0.1205	781307	keystroke_n	n	n/a
390.8045	0.119	781609	keystroke_d	d	n/a
390.9385	0.136	781877	keystroke_s	s	n/a
391.089	0.105	782178	keystroke_Key.enter	Key.enter	n/a
391.1995	8.0365	782399	prompt	n/a	editions enhancement websites posing\n
392.2885	0.135	784577	keystroke_e	e	n/a
392.994	0.075	785988	keystroke_d	d	n/a
393.219	0.12	786438	keystroke_i	i	n/a
393.399	0.0895	786798	keystroke_t	t	n/a
393.534	0.06	787068	keystroke_i	i	n/a
393.638	0.1065	787276	keystroke_o	o	n/a
393.849	0.09	787698	keystroke_n	n	n/a
394.0285	0.091	788057	keystroke_s	s	n/a
394.1485	0.09	788297	keystroke_Key.space	Key.space	n/a
394.374	0.075	788748	keystroke_e	e	n/a
394.569	0.0605	789138	keystroke_n	n	n/a
394.839	0.09	789678	keystroke_h	h	n/a
394.989	0.135	789978	keystroke_a	a	n/a
395.199	0.105	790398	keystroke_n	n	n/a
395.379	0.12	790758	keystroke_c	c	n/a
395.589	0.105	791178	keystroke_e	e	n/a
395.739	0.09	791478	keystroke_m	m	n/a
395.874	0.135	791748	keystroke_e	e	n/a
395.979	0.0895	791958	keystroke_n	n	n/a
396.1295	0.0895	792259	keystroke_t	t	n/a
396.369	0.0745	792738	keystroke_Key.space	Key.space	n/a
396.6845	0.165	793369	keystroke_w	w	n/a
396.8645	0.1045	793729	keystroke_e	e	n/a
397.089	0.0595	794178	keystroke_b	b	n/a
397.314	0.1055	794628	keystroke_s	s	n/a
397.5235	0.0755	795047	keystroke_i	i	n/a
397.6445	0.1345	795289	keystroke_t	t	n/a
397.809	0.21	795618	keystroke_e	e	n/a
397.974	0.1345	795948	keystroke_s	s	n/a
398.1235	0.0905	796247	keystroke_Key.space	Key.space	n/a
398.3185	0.1355	796637	keystroke_p	p	n/a
398.469	0.105	796938	keystroke_o	o	n/a
398.619	0.105	797238	keystroke_s	s	n/a
398.709	0.105	797418	keystroke_i	i	n/a
398.888	0.1065	797776	keystroke_n	n	n/a
399.009	0.105	798018	keystroke_g	g	n/a
399.129	0.105	798258	keystroke_Key.enter	Key.enter	n/a
399.2405	8.8455	798481	prompt	n/a	ottawa studied striking majority\n
399.8645	0.1045	799729	keystroke_o	o	n/a
400.0145	0.06	800029	keystroke_t	t	n/a
400.194	0.135	800388	keystroke_t	t	n/a
400.3435	0.105	800687	keystroke_a	a	n/a
400.809	0.21	801618	keystroke_w	w	n/a
401.004	0.135	802008	keystroke_a	a	n/a
401.184	0.09	802368	keystroke_Key.space	Key.space	n/a
401.379	0.0745	802758	keystroke_s	s	n/a
401.5595	0.104	803119	keystroke_t	t	n/a
401.8435	0.0755	803687	keystroke_u	u	n/a
402.0535	0.105	804107	keystroke_d	d	n/a
402.2195	0.1045	804439	keystroke_i	i	n/a
402.369	0.135	804738	keystroke_e	e	n/a
402.5935	0.12	805187	keystroke_d	d	n/a
402.834	0.09	805668	keystroke_Key.space	Key.space	n/a
403.089	0.1055	806178	keystroke_s	s	n/a
403.314	0.135	806628	keystroke_t	t	n/a
403.494	0.12	806988	keystroke_r	r	n/a
404.049	0.09	808098	keystroke_k	k	n/a
404.468	0.076	808936	keystroke_Key.backspace	Key.backspace	n/a
404.7995	0.09	809599	keystroke_i	i	n/a
405.069	0.1055	810138	keystroke_k	k	n/a
405.264	0.09	810528	keystroke_i	i	n/a
405.459	0.09	810918	keystroke_n	n	n/a
405.5495	0.089	811099	keystroke_g	g	n/a
405.6685	0.0905	811337	keystroke_Key.space	Key.space	n/a
405.969	0.1045	811938	keystroke_m	m	n/a
406.1045	0.149	812209	keystroke_a	a	n/a
406.269	0.1205	812538	keystroke_j	j	n/a
406.449	0.135	812898	keystroke_o	o	n/a
406.719	0.1945	813438	keystroke_r	r	n/a
406.9285	0.09	813857	keystroke_i	i	n/a
407.139	0.135	814278	keystroke_t	t	n/a
407.6185	0.1055	815237	keystroke_y	y	n/a
407.994	0.0895	815988	keystroke_Key.enter	Key.enter	n/a
408.0905	10.615	816181	prompt	n/a	coordinated textiles emperor found\n
408.714	0.105	817428	keystroke_c	c	n/a
408.909	0.045	817818	keystroke_o	o	n/a
409.0445	0.0745	818089	keystroke_o	o	n/a
409.1635	0.09	818327	keystroke_r	r	n/a
409.4185	0.0905	818837	keystroke_d	d	n/a
409.4935	0.076	818987	keystroke_i	i	n/a
409.659	0.075	819318	keystroke_n	n	n/a
409.764	0.165	819528	keystroke_a	a	n/a
409.914	0.135	819828	keystroke_t	t	n/a
410.124	0.18	820248	keystroke_e	e	n/a
410.289	0.105	820578	keystroke_d	d	n/a
410.439	0.105	820878	keystroke_Key.space	Key.space	n/a
410.6185	0.106	821237	keystroke_t	t	n/a
410.8135	0.12	821627	keystroke_e	e	n/a
411.714	0.12	823428	keystroke_x	x	n/a
412.254	0.105	824508	keystroke_t	t	n/a
412.434	0.1055	824868	keystroke_i	i	n/a
412.6435	0.121	825287	keystroke_l	l	n/a
412.9295	0.164	825859	keystroke_e	e	n/a
413.154	0.1355	826308	keystroke_s	s	n/a
413.319	0.105	826638	keystroke_Key.space	Key.space	n/a
413.634	0.0605	827268	keystroke_e	e	n/a
413.7245	0.09	827449	keystroke_m	m	n/a
413.9045	0.105	827809	keystroke_p	p	n/a
414.0695	0.119	828139	keystroke_o	o	n/a
414.3245	0.1045	828649	keystroke_r	r	n/a
415.359	0.09	830718	keystroke_Key.backspace	Key.backspace	n/a
416.064	0.105	832128	keystroke_Key.backspace	Key.backspace	n/a
416.229	0.135	832458	keystroke_e	e	n/a
416.379	0.06	832758	keystroke_r	r	n/a
416.694	0.135	833388	keystroke_o	o	n/a
416.889	0.1055	833778	keystroke_r	r	n/a
417.219	0.0745	834438	keystroke_Key.space	Key.space	n/a
417.564	0.0755	835128	keystroke_f	f	n/a
417.699	0.12	835398	keystroke_o	o	n/a
417.8945	0.1045	835789	keystroke_u	u	n/a
418.074	0.105	836148	keystroke_n	n	n/a
418.194	0.135	836388	keystroke_d	d	n/a
418.584	0.12	837168	keystroke_Key.enter	Key.enter	n/a
418.7095	12.521	837419	prompt	n/a	basketball adverse synthesis ladder\n
419.6045	0.0895	839209	keystroke_b	b	n/a
419.7235	0.1655	839447	keystroke_a	a	n/a
419.844	0.1505	839688	keystroke_s	s	n/a
419.979	0.1045	839958	keystroke_k	k	n/a
420.8485	0.09	841697	keystroke_Key.backspace	Key.backspace	n/a
421.629	0.1055	843258	keystroke_k	k	n/a
421.7645	0.135	843529	keystroke_e	e	n/a
421.9135	0.091	843827	keystroke_t	t	n/a
422.2295	0.075	844459	keystroke_b	b	n/a
422.3945	0.134	844789	keystroke_a	a	n/a
422.514	0.0595	845028	keystroke_l	l	n/a
422.6795	0.0745	845359	keystroke_l	l	n/a
422.829	0.1055	845658	keystroke_Key.space	Key.space	n/a
423.0395	0.1345	846079	keystroke_a	a	n/a
424.0735	0.121	848147	keystroke_f	f	n/a
424.539	0.0745	849078	keystroke_Key.backspace	Key.backspace	n/a
424.674	0.075	849348	keystroke_d	d	n/a
425.289	0.105	850578	keystroke_v	v	n/a
425.679	0.18	851358	keystroke_e	e	n/a
425.814	0.135	851628	keystroke_r	r	n/a
426.0395	0.1345	852079	keystroke_s	s	n/a
426.174	0.15	852348	keystroke_e	e	n/a
426.339	0.1045	852678	keystroke_Key.space	Key.space	n/a
426.7285	0.1205	853457	keystroke_s	s	n/a
426.8945	0.089	853789	keystroke_u	u	n/a
427.2985	0.0605	854597	keystroke_n	n	n/a
427.554	0.075	855108	keystroke_Key.backspace	Key.backspace	n/a
427.689	0.075	855378	keystroke_Key.backspace	Key.backspace	n/a
428.5895	0.074	857179	keystroke_y	y	n/a
428.874	0.0605	857748	keystroke_n	n	n/a
429.0685	0.1205	858137	keystroke_t	t	n/a
429.2345	0.1045	858469	keystroke_h	h	n/a
429.459	0.1195	858918	keystroke_e	e	n/a
429.789	0.1055	859578	keystroke_s	s	n/a
429.8945	0.1045	859789	keystroke_i	i	n/a
429.984	0.1055	859968	keystroke_s	s	n/a
430.1035	0.09	860207	keystroke_Key.space	Key.space	n/a
430.2835	0.1205	860567	keystroke_l	l	n/a
430.3735	0.2105	860747	keystroke_a	a	n/a
430.5545	0.1045	861109	keystroke_d	d	n/a
430.734	0.12	861468	keystroke_d	d	n/a
430.884	0.1955	861768	keystroke_e	e	n/a
431.0335	0.12	862067	keystroke_r	r	n/a
431.1245	0.104	862249	keystroke_Key.enter	Key.enter	n/a
431.2365	7.704	862473	prompt	n/a	achieving barriers dare innocent\n
431.7845	0.1645	863569	keystroke_a	a	n/a
432.039	0.105	864078	keystroke_c	c	n/a
432.159	0.0755	864318	keystroke_h	h	n/a
432.2795	0.1345	864559	keystroke_i	i	n/a
432.369	0.1205	864738	keystroke_e	e	n/a
432.6545	0.105	865309	keystroke_v	v	n/a
432.9085	0.0605	865817	keystroke_i	i	n/a
433.0895	0.089	866179	keystroke_n	n	n/a
433.914	0.075	867828	keystroke_g	g	n/a
434.094	0.06	868188	keystroke_Key.space	Key.space	n/a
435.174	0.09	870348	keystroke_b	b	n/a
435.369	0.18	870738	keystroke_a	a	n/a
435.594	0.09	871188	keystroke_r	r	n/a
435.8345	0.074	871669	keystroke_r	r	n/a
435.9545	0.0895	871909	keystroke_i	i	n/a
436.059	0.1955	872118	keystroke_e	e	n/a
436.164	0.1795	872328	keystroke_r	r	n/a
436.314	0.165	872628	keystroke_s	s	n/a
436.494	0.105	872988	keystroke_Key.space	Key.space	n/a
436.9445	0.15	873889	keystroke_d	d	n/a
437.1085	0.2105	874217	keystroke_a	a	n/a
437.2745	0.1495	874549	keystroke_r	r	n/a
437.409	0.12	874818	keystroke_e	e	n/a
437.559	0.076	875118	keystroke_Key.space	Key.space	n/a
437.709	0.075	875418	keystroke_i	i	n/a
437.8895	0.0445	875779	keystroke_n	n	n/a
438.039	0.06	876078	keystroke_n	n	n/a
438.189	0.105	876378	keystroke_o	o	n/a
438.3235	0.106	876647	keystroke_c	c	n/a
438.504	0.12	877008	keystroke_e	e	n/a
438.5795	0.105	877159	keystroke_n	n	n/a
438.729	0.105	877458	keystroke_t	t	n/a
438.849	0.0895	877698	keystroke_Key.enter	Key.enter	n/a
438.945	6.5055	877890	prompt	n/a	antiques zones blades earned\n
439.689	0.135	879378	keystroke_a	a	n/a
439.809	0.1045	879618	keystroke_n	n	n/a
439.959	0.105	879918	keystroke_t	t	n/a
440.094	0.0755	880188	keystroke_i	i	n/a
440.319	0.1205	880638	keystroke_q	q	n/a
440.4835	0.1055	880967	keystroke_u	u	n/a
440.7535	0.195	881507	keystroke_e	e	n/a
440.934	0.15	881868	keystroke_s	s	n/a
441.114	0.1045	882228	keystroke_Key.space	Key.space	n/a
441.7885	0.1355	883577	keystroke_z	z	n/a
441.984	0.09	883968	keystroke_o	o	n/a
442.164	0.1055	884328	keystroke_n	n	n/a
442.3295	0.1495	884659	keystroke_e	e	n/a
442.5085	0.12	885017	keystroke_s	s	n/a
442.6135	0.0755	885227	keystroke_Key.space	Key.space	n/a
442.9285	0.075	885857	keystroke_b	b	n/a
443.124	0.15	886248	keystroke_l	l	n/a
443.2595	0.119	886519	keystroke_a	a	n/a
443.6345	0.1495	887269	keystroke_d	d	n/a
443.844	0.195	887688	keystroke_e	e	n/a
443.994	0.15	887988	keystroke_s	s	n/a
444.189	0.105	888378	keystroke_Key.space	Key.space	n/a
444.444	0.1205	888888	keystroke_e	e	n/a
444.624	0.1955	889248	keystroke_a	a	n/a
444.789	0.09	889578	keystroke_r	r	n/a
444.939	0.09	889878	keystroke_n	n	n/a
445.0445	0.134	890089	keystroke_e	e	n/a
445.134	0.135	890268	keystroke_d	d	n/a
445.3435	0.1055	890687	keystroke_Key.enter	Key.enter	n/a
445.455	13.1055	890910	prompt	n/a	genres referral lithuania molecular\n
446.5445	0.074	893089	keystroke_g	g	n/a
446.8885	0.0755	893777	keystroke_e	e	n/a
447.2945	0.09	894589	keystroke_n	n	n/a
447.5645	0.209	895129	keystroke_r	r	n/a
447.7135	0.3005	895427	keystroke_e	e	n/a
447.939	0.135	895878	keystroke_s	s	n/a
448.119	0.09	896238	keystroke_Key.space	Key.space	n/a
448.404	0.105	896808	keystroke_f	f	n/a
448.599	0.165	897198	keystroke_e	e	n/a
448.749	0.09	897498	keystroke_r	r	n/a
449.034	0.075	898068	keystroke_Key.backspace	Key.backspace	n/a
449.199	0.0745	898398	keystroke_Key.backspace	Key.backspace	n/a
449.784	0.09	899568	keystroke_r	r	n/a
449.9185	0.12	899837	keystroke_e	e	n/a
450.0835	0.121	900167	keystroke_f	f	n/a
450.684	0.0745	901368	keystroke_Key.backspace	Key.backspace	n/a
450.8485	0.105	901697	keystroke_Key.backspace	Key.backspace	n/a
451.0135	0.09	902027	keystroke_Key.backspace	Key.backspace	n/a
451.3135	0.0905	902627	keystroke_Key.backspace	Key.backspace	n/a
451.5395	0.1045	903079	keystroke_r	r	n/a
451.7495	0.1195	903499	keystroke_e	e	n/a
451.974	0.12	903948	keystroke_f	f	n/a
452.184	0.195	904368	keystroke_e	e	n/a
452.5585	0.075	905117	keystroke_r	r	n/a
452.8135	0.151	905627	keystroke_r	r	n/a
453.0085	0.1205	906017	keystroke_a	a	n/a
453.1445	0.1045	906289	keystroke_l	l	n/a
453.3395	0.105	906679	keystroke_Key.space	Key.space	n/a
454.389	0.12	908778	keystroke_l	l	n/a
454.629	0.091	909258	keystroke_i	i	n/a
454.794	0.09	909588	keystroke_t	t	n/a
454.9145	0.09	909829	keystroke_h	h	n/a
455.124	0.09	910248	keystroke_u	u	n/a
455.3195	0.1495	910639	keystroke_a	a	n/a
455.619	0.09	911238	keystroke_n	n	n/a
455.799	0.12	911598	keystroke_i	i	n/a
455.904	0.15	911808	keystroke_a	a	n/a
456.0545	0.089	912109	keystroke_Key.space	Key.space	n/a
456.444	0.075	912888	keystroke_m	m	n/a
456.639	0.09	913278	keystroke_o	o	n/a
456.849	0.09	913698	keystroke_l	l	n/a
457.2395	0.0745	914479	keystroke_e	e	n/a
457.659	0.105	915318	keystroke_c	c	n/a
457.824	0.0755	915648	keystroke_u	u	n/a
458.0045	0.104	916009	keystroke_l	l	n/a
458.0935	0.1955	916187	keystroke_a	a	n/a
458.2735	0.1055	916547	keystroke_r	r	n/a
458.424	0.1345	916848	keystroke_Key.enter	Key.enter	n/a
458.5635	10.437	917127	prompt	n/a	bicycle responsibility lexus club\n
459.399	0.09	918798	keystroke_b	b	n/a
459.654	0.075	919308	keystroke_i	i	n/a
459.759	0.1055	919518	keystroke_c	c	n/a
459.909	0.09	919818	keystroke_y	y	n/a
460.599	0.1055	921198	keystroke_c	c	n/a
460.7635	0.105	921527	keystroke_l	l	n/a
460.9595	0.104	921919	keystroke_e	e	n/a
461.244	0.09	922488	keystroke_Key.space	Key.space	n/a
461.6635	0.106	923327	keystroke_r	r	n/a
461.784	0.1195	923568	keystroke_e	e	n/a
461.9935	0.061	923987	keystroke_p	p	n/a
462.4585	0.0905	924917	keystroke_Key.backspace	Key.backspace	n/a
462.5945	0.1045	925189	keystroke_s	s	n/a
462.744	0.0905	925488	keystroke_p	p	n/a
462.9395	0.089	925879	keystroke_o	o	n/a
463.1495	0.089	926299	keystroke_n	n	n/a
463.2685	0.1355	926537	keystroke_s	s	n/a
463.449	0.075	926898	keystroke_i	i	n/a
463.6435	0.0755	927287	keystroke_n	n	n/a
464.304	0.105	928608	keystroke_Key.backspace	Key.backspace	n/a
464.799	0.09	929598	keystroke_b	b	n/a
465.039	0.105	930078	keystroke_i	i	n/a
465.219	0.12	930438	keystroke_l	l	n/a
465.399	0.075	930798	keystroke_i	i	n/a
465.5335	0.105	931067	keystroke_t	t	n/a
465.714	0.1045	931428	keystroke_y	y	n/a
465.984	0.0745	931968	keystroke_Key.space	Key.space	n/a
466.2095	0.104	932419	keystroke_l	l	n/a
466.3285	0.1055	932657	keystroke_e	e	n/a
466.8835	0.0905	933767	keystroke_x	x	n/a
467.259	0.1045	934518	keystroke_u	u	n/a
467.514	0.1195	935028	keystroke_s	s	n/a
467.6785	0.075	935357	keystroke_Key.space	Key.space	n/a
468.174	0.075	936348	keystroke_c	c	n/a
468.2495	0.0895	936499	keystroke_l	l	n/a
468.4435	0.061	936887	keystroke_u	u	n/a
468.609	0.0755	937218	keystroke_b	b	n/a
468.924	0.075	937848	keystroke_Key.enter	Key.enter	n/a
469.005	8.6355	938010	prompt	n/a	varied horses basketball spare\n
469.884	0.089	939768	keystroke_v	v	n/a
470.019	0.15	940038	keystroke_a	a	n/a
470.199	0.1355	940398	keystroke_r	r	n/a
470.348	0.1065	940696	keystroke_i	i	n/a
470.484	0.18	940968	keystroke_e	e	n/a
470.634	0.165	941268	keystroke_s	s	n/a
470.844	0.105	941688	keystroke_Key.space	Key.space	n/a
471.1435	0.09	942287	keystroke_h	h	n/a
471.3245	0.089	942649	keystroke_o	o	n/a
471.4285	0.1355	942857	keystroke_r	r	n/a
471.594	0.1655	943188	keystroke_s	s	n/a
471.7445	0.1645	943489	keystroke_e	e	n/a
471.894	0.1055	943788	keystroke_s	s	n/a
472.059	0.09	944118	keystroke_Key.space	Key.space	n/a
472.6895	0.0745	945379	keystroke_b	b	n/a
472.7485	0.121	945497	keystroke_a	a	n/a
472.9585	0.0905	945917	keystroke_c	c	n/a
473.3485	0.075	946697	keystroke_Key.backspace	Key.backspace	n/a
473.4835	0.106	946967	keystroke_s	s	n/a
473.679	0.0745	947358	keystroke_k	k	n/a
473.8745	0.119	947749	keystroke_e	e	n/a
474.0835	0.0905	948167	keystroke_t	t	n/a
474.354	0.089	948708	keystroke_b	b	n/a
474.5035	0.1355	949007	keystroke_a	a	n/a
474.6685	0.075	949337	keystroke_l	l	n/a
474.8335	0.075	949667	keystroke_l	l	n/a
474.9835	0.1055	949967	keystroke_Key.space	Key.space	n/a
475.329	0.12	950658	keystroke_a	a	n/a
475.494	0.1205	950988	keystroke_p	p	n/a
476.289	0.06	952578	keystroke_Key.backspace	Key.backspace	n/a
476.4235	0.091	952847	keystroke_Key.backspace	Key.backspace	n/a
476.618	0.1065	953236	keystroke_s	s	n/a
476.784	0.1195	953568	keystroke_p	p	n/a
476.964	0.1355	953928	keystroke_a	a	n/a
477.173	0.1065	954346	keystroke_r	r	n/a
477.309	0.105	954618	keystroke_e	e	n/a
477.549	0.0895	955098	keystroke_Key.enter	Key.enter	n/a
477.6445	7.8565	955289	prompt	n/a	concern genome concerts plastic\n
478.314	0.075	956628	keystroke_c	c	n/a
478.374	0.075	956748	keystroke_o	o	n/a
478.554	0.075	957108	keystroke_n	n	n/a
478.644	0.06	957288	keystroke_c	c	n/a
478.809	0.165	957618	keystroke_e	e	n/a
478.914	0.165	957828	keystroke_r	r	n/a
479.064	0.075	958128	keystroke_n	n	n/a
479.1985	0.0605	958397	keystroke_Key.space	Key.space	n/a
479.8135	0.0755	959627	keystroke_g	g	n/a
479.994	0.09	959988	keystroke_e	e	n/a
480.129	0.09	960258	keystroke_n	n	n/a
480.279	0.105	960558	keystroke_o	o	n/a
480.444	0.12	960888	keystroke_m	m	n/a
480.954	0.09	961908	keystroke_e	e	n/a
481.164	0.075	962328	keystroke_Key.space	Key.space	n/a
481.389	0.09	962778	keystroke_c	c	n/a
481.494	0.06	962988	keystroke_o	o	n/a
481.644	0.105	963288	keystroke_n	n	n/a
481.779	0.06	963558	keystroke_c	c	n/a
481.988	0.1365	963976	keystroke_e	e	n/a
482.364	0.09	964728	keystroke_r	r	n/a
482.574	0.1205	965148	keystroke_t	t	n/a
482.8895	0.0895	965779	keystroke_s	s	n/a
483.024	0.06	966048	keystroke_Key.space	Key.space	n/a
483.2045	0.1045	966409	keystroke_p	p	n/a
483.474	0.1345	966948	keystroke_l	l	n/a
483.6685	0.105	967337	keystroke_a	a	n/a
483.789	0.1345	967578	keystroke_s	s	n/a
484.0585	0.075	968117	keystroke_t	t	n/a
484.1785	0.0905	968357	keystroke_i	i	n/a
484.8695	0.104	969739	keystroke_c	c	n/a
485.4085	0.09	970817	keystroke_Key.enter	Key.enter	n/a
485.505	12.161	971010	prompt	n/a	greene player fraud xerox\n
486.339	0.09	972678	keystroke_g	g	n/a
486.4595	0.1495	972919	keystroke_r	r	n/a
486.594	0.105	973188	keystroke_e	e	n/a
486.834	0.105	973668	keystroke_e	e	n/a
487.1645	0.0895	974329	keystroke_n	n	n/a
487.329	0.09	974658	keystroke_e	e	n/a
487.629	0.09	975258	keystroke_Key.space	Key.space	n/a
487.8095	0.0895	975619	keystroke_p	p	n/a
488.0035	0.135	976007	keystroke_l	l	n/a
488.1235	0.1055	976247	keystroke_a	a	n/a
488.6335	0.0455	977267	keystroke_y	y	n/a
488.754	0.24	977508	keystroke_e	e	n/a
488.904	0.165	977808	keystroke_r	r	n/a
489.429	0.1055	978858	keystroke_Key.space	Key.space	n/a
489.849	0.1055	979698	keystroke_f	f	n/a
490.4935	0.1205	980987	keystroke_r	r	n/a
490.659	0.135	981318	keystroke_a	a	n/a
490.7945	0.104	981589	keystroke_u	u	n/a
491.184	0.09	982368	keystroke_s	s	n/a
491.604	0.1045	983208	keystroke_Key.backspace	Key.backspace	n/a
491.9495	0.1045	983899	keystroke_d	d	n/a
492.458	0.0905	984916	keystroke_Key.space	Key.space	n/a
493.704	0.1945	987408	keystroke_z	z	n/a
494.034	0.1045	988068	keystroke_e	e	n/a
494.3335	0.09	988667	keystroke_Key.backspace	Key.backspace	n/a
494.4835	0.1055	988967	keystroke_Key.backspace	Key.backspace	n/a
494.754	0.105	989508	keystroke_x	x	n/a
495.129	0.15	990258	keystroke_e	e	n/a
495.354	0.105	990708	keystroke_r	r	n/a
495.6385	0.1055	991277	keystroke_o	o	n/a
496.404	0.135	992808	keystroke_z	z	n/a
496.944	0.105	993888	keystroke_Key.backspace	Key.backspace	n/a
497.124	0.135	994248	keystroke_x	x	n/a
497.574	0.09	995148	keystroke_Key.enter	Key.enter	n/a
497.6705	7.975	995341	prompt	n/a	our wherever guilty meaning\n
498.4435	0.0155	996887	keystroke_o	o	n/a
498.594	0.1045	997188	keystroke_u	u	n/a
498.7285	0.1055	997457	keystroke_r	r	n/a
498.908	0.091	997816	keystroke_Key.space	Key.space	n/a
499.569	0.119	999138	keystroke_w	w	n/a
499.704	0.09	999408	keystroke_h	h	n/a
499.8385	0.15	999677	keystroke_e	e	n/a
499.974	0.18	999948	keystroke_r	r	n/a
500.1395	0.1195	1000279	keystroke_e	e	n/a
501.9985	0.09	1003997	keystroke_v	v	n/a
502.2085	0.1505	1004417	keystroke_e	e	n/a
502.314	0.12	1004628	keystroke_r	r	n/a
502.494	0.1045	1004988	keystroke_Key.space	Key.space	n/a
503.3335	0.075	1006667	keystroke_g	g	n/a
503.4985	0.09	1006997	keystroke_u	u	n/a
503.6635	0.0605	1007327	keystroke_i	i	n/a
503.859	0.09	1007718	keystroke_l	l	n/a
504.144	0.09	1008288	keystroke_t	t	n/a
504.264	0.09	1008528	keystroke_y	y	n/a
504.443	0.061	1008886	keystroke_Key.space	Key.space	n/a
504.623	0.076	1009246	keystroke_m	m	n/a
504.7295	0.12	1009459	keystroke_e	e	n/a
504.8345	0.1345	1009669	keystroke_a	a	n/a
504.998	0.0615	1009996	keystroke_n	n	n/a
505.134	0.0905	1010268	keystroke_i	i	n/a
505.299	0.075	1010598	keystroke_n	n	n/a
505.389	0.1055	1010778	keystroke_g	g	n/a
505.5385	0.105	1011077	keystroke_Key.enter	Key.enter	n/a
505.6495	10.6615	1011299	prompt	n/a	sick simpsons basketball qualities\n
506.304	0.1045	1012608	keystroke_s	s	n/a
506.4085	0.0905	1012817	keystroke_i	i	n/a
506.5735	0.1205	1013147	keystroke_c	c	n/a
506.6635	0.105	1013327	keystroke_k	k	n/a
506.8135	0.0905	1013627	keystroke_Key.space	Key.space	n/a
506.9795	0.09	1013959	keystroke_s	s	n/a
507.0995	0.0745	1014199	keystroke_i	i	n/a
507.294	0.0905	1014588	keystroke_m	m	n/a
507.5635	0.075	1015127	keystroke_p	p	n/a
508.404	0.105	1016808	keystroke_s	s	n/a
508.494	0.105	1016988	keystroke_o	o	n/a
508.719	0.106	1017438	keystroke_n	n	n/a
508.944	0.09	1017888	keystroke_s	s	n/a
509.0635	0.09	1018127	keystroke_Key.space	Key.space	n/a
509.3335	0.06	1018667	keystroke_b	b	n/a
509.499	0.15	1018998	keystroke_a	a	n/a
509.7095	0.105	1019419	keystroke_s	s	n/a
509.8585	0.105	1019717	keystroke_k	k	n/a
510.159	0.12	1020318	keystroke_e	e	n/a
510.339	0.105	1020678	keystroke_t	t	n/a
510.999	0.1355	1021998	keystroke_n	n	n/a
511.5085	0.0905	1023017	keystroke_Key.backspace	Key.backspace	n/a
512.6195	0.1345	1025239	keystroke_b	b	n/a
512.9795	0.0595	1025959	keystroke_a	a	n/a
513.2045	0.0745	1026409	keystroke_l	l	n/a
513.354	0.1055	1026708	keystroke_l	l	n/a
513.4885	0.135	1026977	keystroke_Key.space	Key.space	n/a
513.7445	0.074	1027489	keystroke_e	e	n/a
514.0585	0.105	1028117	keystroke_Key.backspace	Key.backspace	n/a
514.2095	0.105	1028419	keystroke_q	q	n/a
514.4935	0.091	1028987	keystroke_u	u	n/a
514.614	0.15	1029228	keystroke_a	a	n/a
514.748	0.136	1029496	keystroke_l	l	n/a
514.959	0.0895	1029918	keystroke_i	i	n/a
515.1385	0.106	1030277	keystroke_t	t	n/a
515.259	0.1045	1030518	keystroke_i	i	n/a
515.7535	0.1055	1031507	keystroke_e	e	n/a
515.9935	0.181	1031987	keystroke_s	s	n/a
516.1585	0.1505	1032317	keystroke_Key.enter	Key.enter	n/a
516.3155	8.785	1032631	prompt	n/a	respond murphy broker lite\n
517.1645	0.1645	1034329	keystroke_r	r	n/a
517.254	0.165	1034508	keystroke_e	e	n/a
517.4335	0.09	1034867	keystroke_s	s	n/a
517.539	0.105	1035078	keystroke_p	p	n/a
517.689	0.1055	1035378	keystroke_o	o	n/a
517.9285	0.1205	1035857	keystroke_n	n	n/a
518.349	0.12	1036698	keystroke_f	f	n/a
518.904	0.09	1037808	keystroke_Key.backspace	Key.backspace	n/a
519.0685	0.135	1038137	keystroke_d	d	n/a
519.2935	0.0755	1038587	keystroke_Key.space	Key.space	n/a
519.668	0.106	1039336	keystroke_m	m	n/a
519.8945	0.0895	1039789	keystroke_u	u	n/a
520.2995	0.1045	1040599	keystroke_t	t	n/a
520.839	0.105	1041678	keystroke_Key.backspace	Key.backspace	n/a
521.0045	0.0895	1042009	keystroke_r	r	n/a
521.2145	0.0895	1042429	keystroke_p	p	n/a
521.5435	0.091	1043087	keystroke_h	h	n/a
521.9185	0.1205	1043837	keystroke_y	y	n/a
522.4435	0.0905	1044887	keystroke_Key.space	Key.space	n/a
522.774	0.0605	1045548	keystroke_b	b	n/a
522.8945	0.134	1045789	keystroke_r	r	n/a
523.0595	0.1195	1046119	keystroke_o	o	n/a
523.5095	0.089	1047019	keystroke_k	k	n/a
523.6735	0.1805	1047347	keystroke_e	e	n/a
523.8835	0.12	1047767	keystroke_r	r	n/a
524.0335	0.1055	1048067	keystroke_Key.space	Key.space	n/a
524.244	0.105	1048488	keystroke_l	l	n/a
524.4095	0.0895	1048819	keystroke_i	i	n/a
524.515	0.104	1049030	keystroke_t	t	n/a
524.709	0.1205	1049418	keystroke_e	e	n/a
524.979	0.12	1049958	keystroke_Key.enter	Key.enter	n/a
525.1045	7.5725	1050209	prompt	n/a	guatemala plain castle glucose\n
526.0595	0.105	1052119	keystroke_g	g	n/a
526.209	0.0895	1052418	keystroke_u	u	n/a
526.344	0.12	1052688	keystroke_a	a	n/a
526.5395	0.1045	1053079	keystroke_t	t	n/a
526.779	0.1195	1053558	keystroke_e	e	n/a
527.0635	0.105	1054127	keystroke_m	m	n/a
527.319	0.1495	1054638	keystroke_a	a	n/a
527.454	0.1045	1054908	keystroke_l	l	n/a
527.6335	0.106	1055267	keystroke_a	a	n/a
527.784	0.09	1055568	keystroke_Key.space	Key.space	n/a
528.0395	0.0895	1056079	keystroke_p	p	n/a
528.279	0.105	1056558	keystroke_l	l	n/a
528.414	0.12	1056828	keystroke_a	a	n/a
528.564	0.105	1057128	keystroke_i	i	n/a
528.834	0.075	1057668	keystroke_n	n	n/a
528.984	0.105	1057968	keystroke_Key.space	Key.space	n/a
529.4035	0.1355	1058807	keystroke_c	c	n/a
529.5835	0.1955	1059167	keystroke_a	a	n/a
529.719	0.15	1059438	keystroke_s	s	n/a
529.974	0.09	1059948	keystroke_t	t	n/a
530.139	0.105	1060278	keystroke_l	l	n/a
530.349	0.06	1060698	keystroke_e	e	n/a
530.514	0.09	1061028	keystroke_Key.space	Key.space	n/a
531.099	0.089	1062198	keystroke_g	g	n/a
531.234	0.0905	1062468	keystroke_l	l	n/a
531.4585	0.075	1062917	keystroke_u	u	n/a
531.609	0.1355	1063218	keystroke_c	c	n/a
531.7595	0.12	1063519	keystroke_o	o	n/a
531.9395	0.15	1063879	keystroke_s	s	n/a
532.1045	0.1195	1064209	keystroke_e	e	n/a
532.509	0.165	1065018	keystroke_Key.enter	Key.enter	n/a
532.694	9.7915	1065388	prompt	n/a	fewer there's sized lessons\n
533.6495	0.12	1067299	keystroke_f	f	n/a
533.964	0.135	1067928	keystroke_e	e	n/a
534.1145	0.2095	1068229	keystroke_w	w	n/a
534.294	0.255	1068588	keystroke_e	e	n/a
534.489	0.135	1068978	keystroke_r	r	n/a
534.774	0.09	1069548	keystroke_Key.space	Key.space	n/a
535.0885	0.09	1070177	keystroke_t	t	n/a
535.1935	0.075	1070387	keystroke_h	h	n/a
535.314	0.2105	1070628	keystroke_e	e	n/a
535.4635	0.135	1070927	keystroke_r	r	n/a
535.869	0.1045	1071738	keystroke_'	'	n/a
536.574	0.1195	1073148	keystroke_s	s	n/a
537.1585	0.09	1074317	keystroke_Key.backspace	Key.backspace	n/a
537.324	0.075	1074648	keystroke_Key.backspace	Key.backspace	n/a
537.5045	0.0895	1075009	keystroke_e	e	n/a
537.9385	0.12	1075877	keystroke_'	'	n/a
538.1635	0.105	1076327	keystroke_s	s	n/a
538.479	0.0895	1076958	keystroke_Key.space	Key.space	n/a
538.899	0.0755	1077798	keystroke_s	s	n/a
539.018	0.091	1078036	keystroke_i	i	n/a
539.2585	0.135	1078517	keystroke_z	z	n/a
539.5585	0.151	1079117	keystroke_e	e	n/a
539.7535	0.15	1079507	keystroke_d	d	n/a
539.9785	0.09	1079957	keystroke_Key.space	Key.space	n/a
540.2335	0.151	1080467	keystroke_l	l	n/a
540.3685	0.1505	1080737	keystroke_e	e	n/a
540.5495	0.1035	1081099	keystroke_s	s	n/a
540.759	0.0905	1081518	keystroke_s	s	n/a
540.894	0.075	1081788	keystroke_i	i	n/a
541.254	0.09	1082508	keystroke_Key.backspace	Key.backspace	n/a
541.569	0.075	1083138	keystroke_o	o	n/a
541.764	0.105	1083528	keystroke_n	n	n/a
541.854	0.1205	1083708	keystroke_s	s	n/a
542.018	0.121	1084036	keystroke_Key.space	Key.space	n/a
542.409	0.075	1084818	keystroke_Key.enter	Key.enter	n/a
542.49	10.046	1084980	prompt	n/a	soldier attempt topics provide\n
543.0385	0.105	1086077	keystroke_s	s	n/a
543.2035	0.0755	1086407	keystroke_o	o	n/a
543.4595	0.1195	1086919	keystroke_l	l	n/a
543.729	0.09	1087458	keystroke_d	d	n/a
543.8645	0.09	1087729	keystroke_i	i	n/a
544.0145	0.1945	1088029	keystroke_e	e	n/a
544.149	0.135	1088298	keystroke_r	r	n/a
544.329	0.12	1088658	keystroke_Key.space	Key.space	n/a
544.5695	0.1195	1089139	keystroke_a	a	n/a
544.7795	0.06	1089559	keystroke_t	t	n/a
544.929	0.105	1089858	keystroke_t	t	n/a
545.094	0.0605	1090188	keystroke_m	m	n/a
545.589	0.075	1091178	keystroke_Key.backspace	Key.backspace	n/a
545.739	0.105	1091478	keystroke_e	e	n/a
545.934	0.09	1091868	keystroke_m	m	n/a
546.1295	0.1045	1092259	keystroke_p	p	n/a
546.579	0.1205	1093158	keystroke_t	t	n/a
546.744	0.075	1093488	keystroke_Key.space	Key.space	n/a
546.9245	0.0895	1093849	keystroke_t	t	n/a
547.089	0.09	1094178	keystroke_o	o	n/a
547.2245	0.1345	1094449	keystroke_p	p	n/a
547.479	0.09	1094958	keystroke_i	i	n/a
547.674	0.15	1095348	keystroke_c	c	n/a
547.8395	0.1495	1095679	keystroke_s	s	n/a
548.004	0.09	1096008	keystroke_Key.space	Key.space	n/a
548.3635	0.105	1096727	keystroke_p	p	n/a
548.529	0.105	1097058	keystroke_o	o	n/a
548.754	0.0605	1097508	keystroke_r	r	n/a
548.8895	0.089	1097779	keystroke_i	i	n/a
549.1595	0.0745	1098319	keystroke_v	v	n/a
549.909	0.075	1099818	keystroke_Key.backspace	Key.backspace	n/a
550.074	0.0745	1100148	keystroke_Key.backspace	Key.backspace	n/a
550.2535	0.09	1100507	keystroke_Key.backspace	Key.backspace	n/a
550.5985	0.06	1101197	keystroke_Key.backspace	Key.backspace	n/a
550.7635	0.075	1101527	keystroke_r	r	n/a
550.9585	0.03	1101917	keystroke_o	o	n/a
551.574	0.0455	1103148	keystroke_v	v	n/a
551.6785	0.105	1103357	keystroke_i	i	n/a
551.8735	0.105	1103747	keystroke_d	d	n/a
551.994	0.1805	1103988	keystroke_e	e	n/a
552.414	0.12	1104828	keystroke_Key.enter	Key.enter	n/a
552.5405	8.5605	1105081	prompt	n/a	cottage thursday payroll reminder\n
553.4645	0.089	1106929	keystroke_c	c	n/a
553.584	0.1055	1107168	keystroke_o	o	n/a
553.7345	0.0895	1107469	keystroke_t	t	n/a
553.929	0.105	1107858	keystroke_t	t	n/a
554.168	0.151	1108336	keystroke_a	a	n/a
554.364	0.105	1108728	keystroke_g	g	n/a
554.499	0.12	1108998	keystroke_e	e	n/a
554.634	0.09	1109268	keystroke_Key.space	Key.space	n/a
554.754	0.09	1109508	keystroke_t	t	n/a
554.859	0.06	1109718	keystroke_h	h	n/a
554.979	0.105	1109958	keystroke_u	u	n/a
555.114	0.09	1110228	keystroke_r	r	n/a
555.369	0.1205	1110738	keystroke_s	s	n/a
555.624	0.135	1111248	keystroke_d	d	n/a
555.76	0.134	1111520	keystroke_a	a	n/a
555.909	0.12	1111818	keystroke_y	y	n/a
556.119	0.075	1112238	keystroke_Key.space	Key.space	n/a
556.3295	0.074	1112659	keystroke_p	p	n/a
556.4345	0.12	1112869	keystroke_a	a	n/a
556.6735	0.0905	1113347	keystroke_y	y	n/a
556.8245	0.1045	1113649	keystroke_r	r	n/a
556.989	0.091	1113978	keystroke_o	o	n/a
559.376	0.0435	1118752	keystroke_l	l	n/a
559.509	0.089	1119018	keystroke_l	l	n/a
559.704	0.09	1119408	keystroke_Key.space	Key.space	n/a
559.868	0.121	1119736	keystroke_r	r	n/a
560.034	0.0905	1120068	keystroke_e	e	n/a
560.0945	0.0735	1120189	keystroke_m	m	n/a
560.244	0.0605	1120488	keystroke_i	i	n/a
560.3945	0.105	1120789	keystroke_n	n	n/a
560.5	0.074	1121000	keystroke_d	d	n/a
560.604	0.165	1121208	keystroke_e	e	n/a
560.784	0.135	1121568	keystroke_r	r	n/a
560.9785	0.1205	1121957	keystroke_Key.enter	Key.enter	n/a
561.1055	7.135	1122211	prompt	n/a	beneath sparc dallas uses\n
561.909	0.0755	1123818	keystroke_b	b	n/a
561.998	0.0755	1123996	keystroke_e	e	n/a
562.208	0.0765	1124416	keystroke_n	n	n/a
562.238	0.1815	1124476	keystroke_e	e	n/a
562.4195	0.2095	1124839	keystroke_a	a	n/a
562.6735	0.1055	1125347	keystroke_t	t	n/a
562.8685	0.1055	1125737	keystroke_h	h	n/a
563.0335	0.0905	1126067	keystroke_Key.space	Key.space	n/a
563.304	0.1045	1126608	keystroke_s	s	n/a
563.4235	0.1055	1126847	keystroke_p	p	n/a
564.069	0.15	1128138	keystroke_a	a	n/a
564.263	0.09	1128526	keystroke_r	r	n/a
564.6095	0.09	1129219	keystroke_c	c	n/a
564.8485	0.075	1129697	keystroke_Key.space	Key.space	n/a
565.5995	0.0595	1131199	keystroke_d	d	n/a
565.959	0.135	1131918	keystroke_a	a	n/a
566.154	0.075	1132308	keystroke_l	l	n/a
566.319	0.0895	1132638	keystroke_l	l	n/a
