onset	duration	sample	value	key	prompt_text
9.269	0.1015	18538	keystroke_Key.tab	Key.tab	n/a
9.6735	0.0675	19347	keystroke_Key.space	Key.space	n/a
10.5405	0.0785	21081	keystroke_Key.tab	Key.tab	n/a
11.1945	0.1	22389	keystroke_Key.space	Key.space	n/a
11.879	0.0905	23758	keystroke_Key.tab	Key.tab	n/a
12.3515	0.09	24703	keystroke_Key.tab	Key.tab	n/a
12.723	0.0895	25446	keystroke_Key.tab	Key.tab	n/a
13.196	0.112	26392	keystroke_j	j	n/a
13.252	0.067	26504	keystroke_o	o	n/a
13.3305	0.0895	26661	keystroke_s	s	n/a
13.364	0.0905	26728	keystroke_e	e	n/a
13.4875	0.1245	26975	keystroke_p	p	n/a
13.5895	0.1005	27179	keystroke_h	h	n/a
13.679	0.09	27358	keystroke_z	z	n/a
13.8945	0.066	27789	keystroke_Key.tab	Key.tab	n/a
14.1175	0.0565	28235	keystroke_Key.space	Key.space	n/a
14.703	0.067	29406	keystroke_Key.tab	Key.tab	n/a
15.074	0.0565	30148	keystroke_Key.tab	Key.tab	n/a
15.322	0.078	30644	keystroke_Key.down	Key.down	n/a
15.4675	0.0675	30935	keystroke_Key.down	Key.down	n/a
15.7045	0.0895	31409	keystroke_Key.space	Key.space	n/a
16.064	0.135	32128	keystroke_Key.tab	Key.tab	n/a
16.458	0.1695	32916	keystroke_Key.cmd	Key.cmd	n/a
16.5255	0.1125	33051	keystroke_v	v	n/a
16.863	0.1015	33726	keystroke_Key.tab	Key.tab	n/a
17.504	0.057	35008	keystroke_Key.tab	Key.tab	n/a
17.808	0.067	35616	keystroke_Key.space	Key.space	n/a
18.2465	0.079	36493	keystroke_Key.tab	Key.tab	n/a
18.5505	0.056	37101	keystroke_Key.space	Key.space	n/a
19.5065	0.079	39013	keystroke_Key.tab	Key.tab	n/a
19.5905	7.5205	39181	prompt	n/a	the quick brown fox jumps over a lazy dog\n
20.8125	0.078	41625	keystroke_t	t	n/a
20.947	0.101	41894	keystroke_h	h	n/a
21.07	0.0795	42140	keystroke_e	e	n/a
21.239	0.0785	42478	keystroke_Key.space	Key.space	n/a
21.34	0.1015	42680	keystroke_q	q	n/a
21.554	0.1125	43108	keystroke_u	u	n/a
21.7455	0.0785	43491	keystroke_i	i	n/a
21.88	0.09	43760	keystroke_c	c	n/a
21.994	0.111	43988	keystroke_k	k	n/a
22.1615	0.079	44323	keystroke_Key.space	Key.space	n/a
22.263	0.09	44526	keystroke_b	b	n/a
22.465	0.0675	44930	keystroke_r	r	n/a
22.589	0.1125	45178	keystroke_o	o	n/a
22.724	0.079	45448	keystroke_w	w	n/a
22.8145	0.101	45629	keystroke_n	n	n/a
22.927	0.067	45854	keystroke_Key.space	Key.space	n/a
23.062	0.0895	46124	keystroke_f	f	n/a
23.1965	0.101	46393	keystroke_o	o	n/a
23.3435	0.0895	46687	keystroke_x	x	n/a
23.489	0.067	46978	keystroke_Key.space	Key.space	n/a
23.6805	0.113	47361	keystroke_j	j	n/a
23.9045	0.068	47809	keystroke_u	u	n/a
24.0965	0.134	48193	keystroke_m	m	n/a
24.265	0.1115	48530	keystroke_p	p	n/a
24.422	0.0895	48844	keystroke_s	s	n/a
24.5235	0.0785	49047	keystroke_Key.space	Key.space	n/a
24.726	0.112	49452	keystroke_o	o	n/a
24.872	0.0895	49744	keystroke_v	v	n/a
25.085	0.124	50170	keystroke_e	e	n/a
25.13	0.1125	50260	keystroke_r	r	n/a
25.2765	0.1005	50553	keystroke_Key.space	Key.space	n/a
25.422	0.1015	50844	keystroke_a	a	n/a
25.614	0.0895	51228	keystroke_Key.space	Key.space	n/a
25.827	0.1015	51654	keystroke_l	l	n/a
25.962	0.0905	51924	keystroke_a	a	n/a
26.154	0.0895	52308	keystroke_z	z	n/a
26.2785	0.0995	52557	keystroke_y	y	n/a
26.367	0.147	52734	keystroke_Key.space	Key.space	n/a
26.547	0.1015	53094	keystroke_d	d	n/a
26.6145	0.1015	53229	keystroke_o	o	n/a
26.7835	0.0895	53567	keystroke_g	g	n/a
27.019	0.09	54038	keystroke_Key.enter	Key.enter	n/a
27.114	7.6235	54228	prompt	n/a	defining committee nonprofit chester\n
27.751	0.0675	55502	keystroke_d	d	n/a
27.9195	0.0675	55839	keystroke_e	e	n/a
28.054	0.0905	56108	keystroke_f	f	n/a
28.2565	0.1575	56513	keystroke_i	i	n/a
28.437	0.1125	56874	keystroke_n	n	n/a
28.606	0.18	57212	keystroke_i	i	n/a
28.763	0.1015	57526	keystroke_n	n	n/a
28.898	0.101	57796	keystroke_g	g	n/a
28.9655	0.101	57931	keystroke_Key.space	Key.space	n/a
29.1795	0.0895	58359	keystroke_c	c	n/a
29.2695	0.135	58539	keystroke_o	o	n/a
29.382	0.09	58764	keystroke_m	m	n/a
29.6515	0.113	59303	keystroke_m	m	n/a
29.854	0.0905	59708	keystroke_i	i	n/a
30.0585	0.0435	60117	keystroke_t	t	n/a
30.214	0.0565	60428	keystroke_t	t	n/a
30.372	0.079	60744	keystroke_e	e	n/a
30.542	0.0775	61084	keystroke_e	e	n/a
30.788	0.079	61576	keystroke_Key.space	Key.space	n/a
31.1485	0.079	62297	keystroke_c	c	n/a
31.407	0.0785	62814	keystroke_Key.backspace	Key.backspace	n/a
31.6545	0.09	63309	keystroke_n	n	n/a
31.8685	0.112	63737	keystroke_o	o	n/a
32.0595	0.1125	64119	keystroke_n	n	n/a
32.3295	0.135	64659	keystroke_p	p	n/a
32.4985	0.078	64997	keystroke_r	r	n/a
32.633	0.1125	65266	keystroke_o	o	n/a
32.757	0.0785	65514	keystroke_f	f	n/a
32.892	0.079	65784	keystroke_i	i	n/a
33.0495	0.0785	66099	keystroke_t	t	n/a
33.184	0.0795	66368	keystroke_Key.space	Key.space	n/a
33.3645	0.1015	66729	keystroke_c	c	n/a
33.488	0.0905	66976	keystroke_h	h	n/a
33.601	0.0675	67202	keystroke_e	e	n/a
33.7475	0.0895	67495	keystroke_s	s	n/a
33.8485	0.1345	67697	keystroke_t	t	n/a
34.073	0.1575	68146	keystroke_e	e	n/a
34.175	0.1005	68350	keystroke_r	r	n/a
34.6355	0.101	69271	keystroke_Key.enter	Key.enter	n/a
34.741	3.9465	69482	prompt	n/a	printed must bulk cook\n
35.3555	0.1015	70711	keystroke_p	p	n/a
35.468	0.0795	70936	keystroke_r	r	n/a
35.5805	0.1355	71161	keystroke_i	i	n/a
35.671	0.135	71342	keystroke_n	n	n/a
35.7945	0.1235	71589	keystroke_t	t	n/a
35.8955	0.09	71791	keystroke_e	e	n/a
36.0755	0.1125	72151	keystroke_d	d	n/a
36.1995	0.0785	72399	keystroke_Key.space	Key.space	n/a
36.436	0.0895	72872	keystroke_m	m	n/a
36.6385	0.0565	73277	keystroke_u	u	n/a
36.706	0.112	73412	keystroke_s	s	n/a
36.7845	0.0575	73569	keystroke_t	t	n/a
36.807	0.079	73614	keystroke_Key.space	Key.space	n/a
36.9535	0.079	73907	keystroke_b	b	n/a
37.0655	0.1125	74131	keystroke_u	u	n/a
37.28	0.1005	74560	keystroke_l	l	n/a
37.4485	0.1015	74897	keystroke_k	k	n/a
37.64	0.0895	75280	keystroke_Key.space	Key.space	n/a
37.8195	0.09	75639	keystroke_c	c	n/a
37.932	0.09	75864	keystroke_o	o	n/a
38.123	0.124	76246	keystroke_o	o	n/a
38.1915	0.1115	76383	keystroke_k	k	n/a
38.5515	0.135	77103	keystroke_Key.enter	Key.enter	n/a
38.6905	6.0385	77381	prompt	n/a	transcript ended someone's texture\n
39.361	0.0675	78722	keystroke_t	t	n/a
39.5295	0.079	79059	keystroke_r	r	n/a
39.6875	0.112	79375	keystroke_a	a	n/a
39.8335	0.1355	79667	keystroke_n	n	n/a
39.98	0.0675	79960	keystroke_s	s	n/a
40.1715	0.0785	80343	keystroke_c	c	n/a
40.373	0.0685	80746	keystroke_r	r	n/a
40.531	0.135	81062	keystroke_i	i	n/a
40.632	0.124	81264	keystroke_p	p	n/a
40.7675	0.113	81535	keystroke_t	t	n/a
40.869	0.0895	81738	keystroke_Key.space	Key.space	n/a
41.071	0.0785	82142	keystroke_e	e	n/a
41.2065	0.1005	82413	keystroke_n	n	n/a
41.342	0.078	82684	keystroke_d	d	n/a
41.521	0.056	83042	keystroke_e	e	n/a
41.712	0.068	83424	keystroke_d	d	n/a
41.825	0.067	83650	keystroke_Key.space	Key.space	n/a
41.926	0.09	83852	keystroke_s	s	n/a
42.05	0.157	84100	keystroke_o	o	n/a
42.1845	0.124	84369	keystroke_m	m	n/a
42.331	0.0905	84662	keystroke_e	e	n/a
42.466	0.1355	84932	keystroke_o	o	n/a
42.579	0.1235	85158	keystroke_n	n	n/a
42.714	0.0895	85428	keystroke_e	e	n/a
42.8825	0.112	85765	keystroke_'	'	n/a
43.04	0.09	86080	keystroke_s	s	n/a
43.186	0.1015	86372	keystroke_Key.space	Key.space	n/a
43.3545	0.079	86709	keystroke_t	t	n/a
43.557	0.079	87114	keystroke_e	e	n/a
43.7485	0.079	87497	keystroke_x	x	n/a
43.94	0.0785	87880	keystroke_t	t	n/a
44.1085	0.09	88217	keystroke_u	u	n/a
44.232	0.158	88464	keystroke_r	r	n/a
44.3445	0.1245	88689	keystroke_e	e	n/a
44.6145	0.113	89229	keystroke_Key.enter	Key.enter	n/a
44.7315	7.5795	89463	prompt	n/a	personnel oliver mount passengers\n
45.324	0.09	90648	keystroke_p	p	n/a
45.4925	0.1345	90985	keystroke_e	e	n/a
45.6045	0.079	91209	keystroke_r	r	n/a
45.7965	0.0895	91593	keystroke_s	s	n/a
45.9315	0.157	91863	keystroke_o	o	n/a
46.0665	0.101	92133	keystroke_n	n	n/a
46.269	0.067	92538	keystroke_n	n	n/a
46.449	0.09	92898	keystroke_e	e	n/a
46.5845	0.056	93169	keystroke_l	l	n/a
46.753	0.0895	93506	keystroke_l	l	n/a
47.1015	0.0675	94203	keystroke_Key.backspace	Key.backspace	n/a
47.405	0.1125	94810	keystroke_Key.space	Key.space	n/a
47.574	0.1025	95148	keystroke_o	o	n/a
47.7995	0.158	95599	keystroke_l	l	n/a
47.9235	0.1045	95847	keystroke_i	i	n/a
48.0695	0.1125	96139	keystroke_v	v	n/a
48.34	0.1565	96680	keystroke_e	e	n/a
48.474	0.079	96948	keystroke_r	r	n/a
48.53	0.0905	97060	keystroke_Key.space	Key.space	n/a
48.6875	0.135	97375	keystroke_m	m	n/a
48.879	0.135	97758	keystroke_o	o	n/a
48.9925	0.1	97985	keystroke_u	u	n/a
49.25	0.1125	98500	keystroke_n	n	n/a
49.6775	0.0905	99355	keystroke_t	t	n/a
49.9475	0.09	99895	keystroke_Key.space	Key.space	n/a
50.24	0.1125	100480	keystroke_p	p	n/a
50.3865	0.067	100773	keystroke_a	a	n/a
50.69	0.1025	101380	keystroke_s	s	n/a
50.859	0.09	101718	keystroke_s	s	n/a
51.0505	0.0895	102101	keystroke_e	e	n/a
51.185	0.135	102370	keystroke_n	n	n/a
51.354	0.101	102708	keystroke_g	g	n/a
51.59	0.113	103180	keystroke_e	e	n/a
51.6575	0.09	103315	keystroke_r	r	n/a
51.8605	0.0895	103721	keystroke_s	s	n/a
52.176	0.134	104352	keystroke_Key.enter	Key.enter	n/a
52.3145	5.7685	104629	prompt	n/a	pretty references posted william\n
52.862	0.0785	105724	keystroke_p	p	n/a
53.0075	0.124	106015	keystroke_r	r	n/a
53.098	0.112	106196	keystroke_e	e	n/a
53.334	0.0565	106668	keystroke_t	t	n/a
53.469	0.0785	106938	keystroke_t	t	n/a
53.604	0.0905	107208	keystroke_y	y	n/a
53.7395	0.112	107479	keystroke_Key.space	Key.space	n/a
54.122	0.135	108244	keystroke_r	r	n/a
54.3595	0.0885	108719	keystroke_e	e	n/a
54.5265	0.09	109053	keystroke_f	f	n/a
54.6955	0.101	109391	keystroke_e	e	n/a
54.752	0.1575	109504	keystroke_r	r	n/a
54.9205	0.09	109841	keystroke_e	e	n/a
55.067	0.112	110134	keystroke_n	n	n/a
55.2135	0.09	110427	keystroke_c	c	n/a
55.4155	0.124	110831	keystroke_e	e	n/a
55.4945	0.1575	110989	keystroke_s	s	n/a
55.641	0.089	111282	keystroke_Key.space	Key.space	n/a
55.832	0.157	111664	keystroke_p	p	n/a
55.9665	0.1015	111933	keystroke_o	o	n/a
56.1135	0.1125	112227	keystroke_s	s	n/a
56.2145	0.135	112429	keystroke_t	t	n/a
56.327	0.0785	112654	keystroke_e	e	n/a
56.4845	0.101	112969	keystroke_d	d	n/a
56.6305	0.068	113261	keystroke_Key.space	Key.space	n/a
56.7095	0.079	113419	keystroke_w	w	n/a
56.8445	0.1125	113689	keystroke_i	i	n/a
56.923	0.1125	113846	keystroke_l	l	n/a
57.204	0.135	114408	keystroke_l	l	n/a
57.362	0.09	114724	keystroke_i	i	n/a
57.5425	0.112	115085	keystroke_a	a	n/a
57.6655	0.1355	115331	keystroke_m	m	n/a
57.9695	0.1125	115939	keystroke_Key.enter	Key.enter	n/a
58.0885	5.282	116177	prompt	n/a	minor belt conclusions hundred\n
58.7235	0.1355	117447	keystroke_m	m	n/a
58.881	0.112	117762	keystroke_i	i	n/a
59.038	0.124	118076	keystroke_n	n	n/a
59.207	0.101	118414	keystroke_o	o	n/a
59.376	0.101	118752	keystroke_r	r	n/a
59.4665	0.078	118933	keystroke_Key.space	Key.space	n/a
59.6005	0.101	119201	keystroke_b	b	n/a
59.803	0.101	119606	keystroke_e	e	n/a
59.9265	0.068	119853	keystroke_l	l	n/a
60.0395	0.1235	120079	keystroke_t	t	n/a
60.119	0.1	120238	keystroke_Key.space	Key.space	n/a
60.3205	0.09	120641	keystroke_c	c	n/a
60.388	0.135	120776	keystroke_o	o	n/a
60.523	0.1125	121046	keystroke_n	n	n/a
60.658	0.0905	121316	keystroke_c	c	n/a
60.8605	0.1465	121721	keystroke_l	l	n/a
60.9735	0.123	121947	keystroke_u	u	n/a
61.1425	0.0785	122285	keystroke_s	s	n/a
61.2545	0.214	122509	keystroke_i	i	n/a
61.3555	0.1575	122711	keystroke_o	o	n/a
61.4905	0.1235	122981	keystroke_n	n	n/a
61.603	0.1235	123206	keystroke_s	s	n/a
61.738	0.079	123476	keystroke_Key.space	Key.space	n/a
61.907	0.0675	123814	keystroke_h	h	n/a
62.087	0.067	124174	keystroke_u	u	n/a
62.256	0.101	124512	keystroke_n	n	n/a
62.3795	0.1015	124759	keystroke_d	d	n/a
62.5815	0.147	125163	keystroke_r	r	n/a
62.717	0.101	125434	keystroke_e	e	n/a
62.9195	0.079	125839	keystroke_d	d	n/a
63.2575	0.112	126515	keystroke_Key.enter	Key.enter	n/a
63.3735	4.9705	126747	prompt	n/a	instantly wash hotmail days\n
63.9435	0.101	127887	keystroke_i	i	n/a
64.1345	0.135	128269	keystroke_n	n	n/a
64.281	0.101	128562	keystroke_s	s	n/a
64.337	0.09	128674	keystroke_t	t	n/a
64.472	0.09	128944	keystroke_a	a	n/a
64.551	0.1015	129102	keystroke_n	n	n/a
64.776	0.1125	129552	keystroke_t	t	n/a
64.9555	0.079	129911	keystroke_l	l	n/a
65.125	0.1125	130250	keystroke_y	y	n/a
65.473	0.09	130946	keystroke_Key.space	Key.space	n/a
65.676	0.034	131352	keystroke_w	w	n/a
65.811	0.0785	131622	keystroke_a	a	n/a
65.8555	0.1015	131711	keystroke_s	s	n/a
66.002	0.101	132004	keystroke_h	h	n/a
66.126	0.101	132252	keystroke_Key.space	Key.space	n/a
66.306	0.135	132612	keystroke_h	h	n/a
66.4525	0.0905	132905	keystroke_o	o	n/a
66.576	0.0895	133152	keystroke_t	t	n/a
66.7105	0.1015	133421	keystroke_m	m	n/a
66.8685	0.135	133737	keystroke_a	a	n/a
67.004	0.1345	134008	keystroke_i	i	n/a
67.0705	0.147	134141	keystroke_l	l	n/a
67.262	0.1125	134524	keystroke_Key.space	Key.space	n/a
67.487	0.0795	134974	keystroke_d	d	n/a
67.6335	0.135	135267	keystroke_a	a	n/a
67.769	0.101	135538	keystroke_y	y	n/a
67.926	0.056	135852	keystroke_s	s	n/a
68.219	0.124	136438	keystroke_Key.enter	Key.enter	n/a
68.347	4.8115	136694	prompt	n/a	knowledge dennis whom luck\n
68.962	0.1005	137924	keystroke_k	k	n/a
69.119	0.112	138238	keystroke_n	n	n/a
69.276	0.0905	138552	keystroke_o	o	n/a
69.456	0.09	138912	keystroke_w	w	n/a
69.6365	0.09	139273	keystroke_l	l	n/a
69.7375	0.067	139475	keystroke_e	e	n/a
69.906	0.1235	139812	keystroke_d	d	n/a
70.0185	0.1125	140037	keystroke_g	g	n/a
70.176	0.1015	140352	keystroke_e	e	n/a
70.233	0.1005	140466	keystroke_Key.space	Key.space	n/a
70.446	0.0675	140892	keystroke_d	d	n/a
70.615	0.056	141230	keystroke_e	e	n/a
70.7505	0.067	141501	keystroke_n	n	n/a
70.919	0.0895	141838	keystroke_n	n	n/a
71.0985	0.0905	142197	keystroke_i	i	n/a
71.245	0.0785	142490	keystroke_s	s	n/a
71.369	0.0785	142738	keystroke_Key.space	Key.space	n/a
71.4705	0.089	142941	keystroke_w	w	n/a
71.571	0.113	143142	keystroke_h	h	n/a
71.74	0.1345	143480	keystroke_o	o	n/a
71.8295	0.124	143659	keystroke_m	m	n/a
71.9535	0.102	143907	keystroke_Key.space	Key.space	n/a
72.1115	0.1345	144223	keystroke_l	l	n/a
72.212	0.1015	144424	keystroke_u	u	n/a
72.3585	0.0785	144717	keystroke_c	c	n/a
72.4485	0.135	144897	keystroke_k	k	n/a
73.056	0.1015	146112	keystroke_Key.enter	Key.enter	n/a
73.1615	6.1515	146323	prompt	n/a	carbon submitted thru connectors\n
73.8435	0.079	147687	keystroke_c	c	n/a
73.9675	0.124	147935	keystroke_a	a	n/a
74.0575	0.103	148115	keystroke_r	r	n/a
74.26	0.0675	148520	keystroke_b	b	n/a
74.3725	0.1685	148745	keystroke_o	o	n/a
74.519	0.124	149038	keystroke_n	n	n/a
74.677	0.0895	149354	keystroke_Key.space	Key.space	n/a
74.89	0.0785	149780	keystroke_d	d	n/a
75.1605	0.0565	150321	keystroke_Key.backspace	Key.backspace	n/a
75.273	0.09	150546	keystroke_s	s	n/a
75.4305	0.1005	150861	keystroke_u	u	n/a
75.565	0.0785	151130	keystroke_b	b	n/a
75.711	0.1355	151422	keystroke_m	m	n/a
75.8125	0.09	151625	keystroke_i	i	n/a
75.9365	0.057	151873	keystroke_t	t	n/a
76.0715	0.1125	152143	keystroke_t	t	n/a
76.195	0.09	152390	keystroke_e	e	n/a
76.364	0.0675	152728	keystroke_d	d	n/a
76.5895	0.0785	153179	keystroke_Key.space	Key.space	n/a
76.859	0.056	153718	keystroke_t	t	n/a
76.96	0.09	153920	keystroke_h	h	n/a
77.0725	0.0905	154145	keystroke_r	r	n/a
77.253	0.1015	154506	keystroke_u	u	n/a
77.4555	0.0895	154911	keystroke_Key.space	Key.space	n/a
77.658	0.0895	155316	keystroke_c	c	n/a
77.7605	0.1	155521	keystroke_o	o	n/a
77.8495	0.0555	155699	keystroke_n	n	n/a
78.0065	0.079	156013	keystroke_n	n	n/a
78.164	0.0675	156328	keystroke_e	e	n/a
78.3555	0.0675	156711	keystroke_c	c	n/a
78.5575	0.0455	157115	keystroke_t	t	n/a
78.7045	0.0555	157409	keystroke_o	o	n/a
78.7825	0.0675	157565	keystroke_r	r	n/a
78.963	0.0675	157926	keystroke_s	s	n/a
79.1995	0.112	158399	keystroke_Key.enter	Key.enter	n/a
79.316	4.497	158632	prompt	n/a	critics youth suits licensed\n
79.773	0.09	159546	keystroke_c	c	n/a
79.987	0.057	159974	keystroke_r	r	n/a
80.1215	0.079	160243	keystroke_i	i	n/a
80.213	0.077	160426	keystroke_t	t	n/a
80.347	0.113	160694	keystroke_i	i	n/a
80.4475	0.0795	160895	keystroke_c	c	n/a
80.5715	0.079	161143	keystroke_s	s	n/a
80.6955	0.0675	161391	keystroke_Key.space	Key.space	n/a
80.853	0.1125	161706	keystroke_y	y	n/a
81.033	0.124	162066	keystroke_o	o	n/a
81.123	0.101	162246	keystroke_u	u	n/a
81.2355	0.0675	162471	keystroke_t	t	n/a
81.3705	0.101	162741	keystroke_h	h	n/a
81.4495	0.0895	162899	keystroke_Key.space	Key.space	n/a
81.5845	0.101	163169	keystroke_s	s	n/a
81.7305	0.158	163461	keystroke_u	u	n/a
81.8655	0.0675	163731	keystroke_i	i	n/a
81.978	0.056	163956	keystroke_t	t	n/a
82.113	0.1015	164226	keystroke_s	s	n/a
82.2605	0.111	164521	keystroke_Key.space	Key.space	n/a
82.4055	0.158	164811	keystroke_l	l	n/a
82.496	0.123	164992	keystroke_i	i	n/a
82.6305	0.08	165261	keystroke_c	c	n/a
82.8225	0.067	165645	keystroke_e	e	n/a
82.9345	0.112	165869	keystroke_n	n	n/a
83.058	0.124	166116	keystroke_s	s	n/a
83.137	0.146	166274	keystroke_e	e	n/a
83.3955	0.09	166791	keystroke_d	d	n/a
83.677	0.135	167354	keystroke_Key.enter	Key.enter	n/a
83.816	5.4645	167632	prompt	n/a	noted supports losses william\n
84.2735	0.0675	168547	keystroke_c	c	n/a
84.577	0.1015	169154	keystroke_Key.backspace	Key.backspace	n/a
84.9035	0.101	169807	keystroke_n	n	n/a
85.0945	0.09	170189	keystroke_o	o	n/a
85.207	0.146	170414	keystroke_t	t	n/a
85.342	0.056	170684	keystroke_e	e	n/a
85.4995	0.1125	170999	keystroke_d	d	n/a
85.635	0.0555	171270	keystroke_Key.space	Key.space	n/a
85.7245	0.101	171449	keystroke_s	s	n/a
85.8605	0.1	171721	keystroke_u	u	n/a
86.04	0.0895	172080	keystroke_p	p	n/a
86.2315	0.1235	172463	keystroke_p	p	n/a
86.332	0.1125	172664	keystroke_o	o	n/a
86.5345	0.0675	173069	keystroke_r	r	n/a
86.7145	0.068	173429	keystroke_t	t	n/a
86.883	0.102	173766	keystroke_s	s	n/a
86.973	0.102	173946	keystroke_Key.space	Key.space	n/a
87.097	0.0675	174194	keystroke_l	l	n/a
87.2655	0.0565	174531	keystroke_o	o	n/a
87.4235	0.056	174847	keystroke_s	s	n/a
87.581	0.0905	175162	keystroke_s	s	n/a
87.772	0.1235	175544	keystroke_e	e	n/a
87.8505	0.102	175701	keystroke_s	s	n/a
87.975	0.157	175950	keystroke_Key.space	Key.space	n/a
88.144	0.067	176288	keystroke_w	w	n/a
88.2335	0.146	176467	keystroke_i	i	n/a
88.324	0.089	176648	keystroke_l	l	n/a
88.526	0.113	177052	keystroke_l	l	n/a
88.616	0.09	177232	keystroke_i	i	n/a
88.751	0.1015	177502	keystroke_a	a	n/a
88.875	0.112	177750	keystroke_m	m	n/a
89.1895	0.09	178379	keystroke_Key.enter	Key.enter	n/a
89.2835	6.4455	178567	prompt	n/a	hall filled mile jaguar\n
90.686	0.101	181372	keystroke_h	h	n/a
90.9	0.067	181800	keystroke_a	a	n/a
91.17	0.1015	182340	keystroke_l	l	n/a
91.497	0.1115	182994	keystroke_l	l	n/a
91.7665	0.101	183533	keystroke_Key.space	Key.space	n/a
91.9685	0.0905	183937	keystroke_f	f	n/a
92.126	0.09	184252	keystroke_i	i	n/a
92.205	0.0675	184410	keystroke_l	l	n/a
92.3625	0.0785	184725	keystroke_l	l	n/a
92.52	0.0785	185040	keystroke_e	e	n/a
92.7	0.101	185400	keystroke_d	d	n/a
92.79	0.0675	185580	keystroke_Key.space	Key.space	n/a
92.9025	0.1585	185805	keystroke_m	m	n/a
93.0375	0.113	186075	keystroke_i	i	n/a
93.105	0.1235	186210	keystroke_l	l	n/a
93.2855	0.1235	186571	keystroke_e	e	n/a
93.398	0.0895	186796	keystroke_Key.space	Key.space	n/a
93.5445	0.0895	187089	keystroke_j	j	n/a
93.8365	0.0895	187673	keystroke_a	a	n/a
94.039	0.0795	188078	keystroke_g	g	n/a
94.253	0.0785	188506	keystroke_u	u	n/a
94.3875	0.09	188775	keystroke_a	a	n/a
94.5905	0.067	189181	keystroke_r	r	n/a
94.939	0.0785	189878	keystroke_a	a	n/a
95.321	0.1015	190642	keystroke_Key.backspace	Key.backspace	n/a
95.625	0.1025	191250	keystroke_Key.enter	Key.enter	n/a
95.7325	14.0925	191465	prompt	n/a	tracked harvard existence pickup\n
104.8055	0.0675	209611	keystroke_t	t	n/a
104.9745	0.101	209949	keystroke_r	r	n/a
105.042	0.0895	210084	keystroke_a	a	n/a
105.233	0.0785	210466	keystroke_c	c	n/a
105.3455	0.09	210691	keystroke_k	k	n/a
105.4465	0.0675	210893	keystroke_e	e	n/a
105.627	0.0785	211254	keystroke_d	d	n/a
105.695	0.078	211390	keystroke_Key.space	Key.space	n/a
105.852	0.09	211704	keystroke_h	h	n/a
105.931	0.1125	211862	keystroke_a	a	n/a
106.0095	0.09	212019	keystroke_r	r	n/a
106.214	0.088	212428	keystroke_v	v	n/a
106.358	0.1125	212716	keystroke_a	a	n/a
106.437	0.09	212874	keystroke_r	r	n/a
106.6505	0.09	213301	keystroke_d	d	n/a
106.7635	0.0785	213527	keystroke_Key.space	Key.space	n/a
106.865	0.078	213730	keystroke_e	e	n/a
107.0555	0.068	214111	keystroke_x	x	n/a
107.191	0.101	214382	keystroke_i	i	n/a
107.3145	0.114	214629	keystroke_s	s	n/a
107.3935	0.1125	214787	keystroke_t	t	n/a
107.6295	0.135	215259	keystroke_e	e	n/a
107.7985	0.1345	215597	keystroke_n	n	n/a
107.979	0.101	215958	keystroke_c	c	n/a
108.226	0.1025	216452	keystroke_e	e	n/a
108.406	0.0785	216812	keystroke_Key.space	Key.space	n/a
108.62	0.1685	217240	keystroke_p	p	n/a
108.7785	0.0435	217557	keystroke_i	i	n/a
108.867	0.124	217734	keystroke_c	c	n/a
108.98	0.09	217960	keystroke_k	k	n/a
109.216	0.169	218432	keystroke_u	u	n/a
109.3735	0.1015	218747	keystroke_p	p	n/a
109.677	0.1465	219354	keystroke_Key.enter	Key.enter	n/a
109.828	6.24	219656	prompt	n/a	academic promises powerful issued\n
110.465	0.056	220930	keystroke_a	a	n/a
110.633	0.0795	221266	keystroke_c	c	n/a
110.757	0.0785	221514	keystroke_a	a	n/a
110.903	0.0675	221806	keystroke_d	d	n/a
111.0615	0.078	222123	keystroke_e	e	n/a
111.207	0.1465	222414	keystroke_m	m	n/a
111.32	0.101	222640	keystroke_i	i	n/a
111.4095	0.09	222819	keystroke_c	c	n/a
111.5455	0.0895	223091	keystroke_Key.space	Key.space	n/a
111.6795	0.1015	223359	keystroke_p	p	n/a
111.8035	0.0905	223607	keystroke_r	r	n/a
111.939	0.1455	223878	keystroke_o	o	n/a
112.0735	0.146	224147	keystroke_m	m	n/a
112.231	0.09	224462	keystroke_i	i	n/a
112.3995	0.113	224799	keystroke_s	s	n/a
112.535	0.146	225070	keystroke_e	e	n/a
112.67	0.067	225340	keystroke_s	s	n/a
112.7825	0.1235	225565	keystroke_Key.space	Key.space	n/a
112.9735	0.1465	225947	keystroke_p	p	n/a
113.109	0.101	226218	keystroke_o	o	n/a
113.2435	0.135	226487	keystroke_w	w	n/a
113.345	0.146	226690	keystroke_e	e	n/a
113.4685	0.0675	226937	keystroke_r	r	n/a
113.6485	0.08	227297	keystroke_f	f	n/a
113.8065	0.123	227613	keystroke_u	u	n/a
113.9185	0.09	227837	keystroke_l	l	n/a
114.222	0.068	228444	keystroke_Key.space	Key.space	n/a
114.4245	0.09	228849	keystroke_i	i	n/a
114.56	0.067	229120	keystroke_s	s	n/a
114.706	0.101	229412	keystroke_s	s	n/a
114.8745	0.0795	229749	keystroke_u	u	n/a
114.987	0.0915	229974	keystroke_e	e	n/a
115.2355	0.0775	230471	keystroke_s	s	n/a
115.5505	0.0895	231101	keystroke_Key.backspace	Key.backspace	n/a
115.775	0.0905	231550	keystroke_d	d	n/a
115.9545	0.1125	231909	keystroke_Key.enter	Key.enter	n/a
116.071	5.544	232142	prompt	n/a	reliance plugins province within\n
116.7765	0.1125	233553	keystroke_r	r	n/a
116.8555	0.112	233711	keystroke_e	e	n/a
117.0575	0.157	234115	keystroke_l	l	n/a
117.192	0.113	234384	keystroke_i	i	n/a
117.3495	0.0905	234699	keystroke_a	a	n/a
117.4965	0.1125	234993	keystroke_n	n	n/a
117.6315	0.101	235263	keystroke_c	c	n/a
117.856	0.113	235712	keystroke_e	e	n/a
117.946	0.079	235892	keystroke_Key.space	Key.space	n/a
118.1715	0.1575	236343	keystroke_p	p	n/a
118.34	0.157	236680	keystroke_l	l	n/a
118.5085	0.09	237017	keystroke_u	u	n/a
118.621	0.1015	237242	keystroke_g	g	n/a
118.8575	0.1685	237715	keystroke_i	i	n/a
119.0145	0.135	238029	keystroke_n	n	n/a
119.1385	0.1015	238277	keystroke_s	s	n/a
119.2515	0.078	238503	keystroke_Key.space	Key.space	n/a
119.409	0.1455	238818	keystroke_p	p	n/a
119.544	0.0555	239088	keystroke_r	r	n/a
119.667	0.0675	239334	keystroke_o	o	n/a
119.802	0.0905	239604	keystroke_v	v	n/a
119.9485	0.1685	239897	keystroke_i	i	n/a
120.084	0.1125	240168	keystroke_n	n	n/a
120.185	0.0895	240370	keystroke_c	c	n/a
120.387	0.0675	240774	keystroke_e	e	n/a
120.466	0.101	240932	keystroke_Key.space	Key.space	n/a
120.579	0.078	241158	keystroke_w	w	n/a
120.6915	0.1455	241383	keystroke_i	i	n/a
120.826	0.056	241652	keystroke_t	t	n/a
120.9285	0.1565	241857	keystroke_h	h	n/a
121.107	0.159	242214	keystroke_i	i	n/a
121.266	0.078	242532	keystroke_n	n	n/a
121.5015	0.1125	243003	keystroke_Key.enter	Key.enter	n/a
121.618	9.1315	243236	prompt	n/a	bestsellers crafts setting scoop\n
122.1985	0.0905	244397	keystroke_b	b	n/a
122.3905	0.1465	244781	keystroke_e	e	n/a
122.526	0.171	245052	keystroke_s	s	n/a
122.697	0.101	245394	keystroke_t	t	n/a
122.852	0.112	245704	keystroke_Key.space	Key.space	n/a
123.099	0.068	246198	keystroke_s	s	n/a
123.3915	0.068	246783	keystroke_Key.backspace	Key.backspace	n/a
123.6385	0.0565	247277	keystroke_Key.backspace	Key.backspace	n/a
123.785	0.067	247570	keystroke_s	s	n/a
123.9535	0.068	247907	keystroke_e	e	n/a
124.0665	0.067	248133	keystroke_l	l	n/a
124.2235	0.079	248447	keystroke_l	l	n/a
124.359	0.1345	248718	keystroke_e	e	n/a
124.4485	0.0905	248897	keystroke_r	r	n/a
124.6065	0.112	249213	keystroke_s	s	n/a
124.7185	0.1015	249437	keystroke_Key.space	Key.space	n/a
124.876	0.1355	249752	keystroke_c	c	n/a
125.113	0.101	250226	keystroke_r	r	n/a
125.2475	0.0895	250495	keystroke_a	a	n/a
125.3485	0.135	250697	keystroke_f	f	n/a
125.6185	0.079	251237	keystroke_t	t	n/a
125.7875	0.079	251575	keystroke_s	s	n/a
125.979	0.0785	251958	keystroke_Key.space	Key.space	n/a
126.1245	0.09	252249	keystroke_s	s	n/a
126.2715	0.135	252543	keystroke_e	e	n/a
126.4175	0.0895	252835	keystroke_t	t	n/a
126.575	0.1015	253150	keystroke_t	t	n/a
126.8225	0.1575	253645	keystroke_i	i	n/a
126.9345	0.1355	253869	keystroke_n	n	n/a
127.0925	0.09	254185	keystroke_g	g	n/a
127.3065	0.0675	254613	keystroke_s	s	n/a
127.4635	0.0785	254927	keystroke_c	c	n/a
127.5985	0.068	255197	keystroke_o	o	n/a
127.869	0.056	255738	keystroke_Key.backspace	Key.backspace	n/a
128.026	0.0335	256052	keystroke_Key.backspace	Key.backspace	n/a
128.1625	0.0435	256325	keystroke_Key.backspace	Key.backspace	n/a
128.307	0.079	256614	keystroke_Key.space	Key.space	n/a
128.397	0.068	256794	keystroke_s	s	n/a
128.5665	0.0785	257133	keystroke_c	c	n/a
128.6675	0.0895	257335	keystroke_o	o	n/a
128.926	0.113	257852	keystroke_o	o	n/a
129.084	0.09	258168	keystroke_u	u	n/a
129.3425	0.079	258685	keystroke_Key.backspace	Key.backspace	n/a
129.4995	0.0565	258999	keystroke_Key.backspace	Key.backspace	n/a
129.995	0.112	259990	keystroke_o	o	n/a
130.254	0.112	260508	keystroke_p	p	n/a
130.636	0.1125	261272	keystroke_Key.enter	Key.enter	n/a
130.752	6.141	261504	prompt	n/a	conjunction hardware promotions firms\n
131.3895	0.091	262779	keystroke_c	c	n/a
131.5365	0.146	263073	keystroke_o	o	n/a
131.671	0.079	263342	keystroke_n	n	n/a
131.8965	0.0555	263793	keystroke_j	j	n/a
132.076	0.079	264152	keystroke_u	u	n/a
132.256	0.101	264512	keystroke_n	n	n/a
132.3795	0.0795	264759	keystroke_c	c	n/a
132.582	0.08	265164	keystroke_t	t	n/a
132.6835	0.1685	265367	keystroke_i	i	n/a
132.763	0.1565	265526	keystroke_o	o	n/a
132.9085	0.1355	265817	keystroke_n	n	n/a
133.055	0.067	266110	keystroke_Key.space	Key.space	n/a
133.201	0.09	266402	keystroke_h	h	n/a
133.3585	0.0905	266717	keystroke_a	a	n/a
133.55	0.079	267100	keystroke_r	r	n/a
133.73	0.101	267460	keystroke_d	d	n/a
133.933	0.089	267866	keystroke_w	w	n/a
134.1015	0.112	268203	keystroke_a	a	n/a
134.18	0.1795	268360	keystroke_r	r	n/a
134.3485	0.113	268697	keystroke_e	e	n/a
134.4505	0.078	268901	keystroke_Key.space	Key.space	n/a
134.5845	0.1015	269169	keystroke_p	p	n/a
134.709	0.101	269418	keystroke_r	r	n/a
134.8325	0.1125	269665	keystroke_o	o	n/a
134.922	0.1805	269844	keystroke_m	m	n/a
135.1025	0.0785	270205	keystroke_o	o	n/a
135.2935	0.0685	270587	keystroke_t	t	n/a
135.3955	0.236	270791	keystroke_i	i	n/a
135.5185	0.1805	271037	keystroke_o	o	n/a
135.665	0.1235	271330	keystroke_n	n	n/a
135.766	0.079	271532	keystroke_s	s	n/a
135.867	0.1465	271734	keystroke_Key.space	Key.space	n/a
136.003	0.09	272006	keystroke_f	f	n/a
136.1035	0.1015	272207	keystroke_i	i	n/a
136.216	0.0795	272432	keystroke_r	r	n/a
136.3405	0.1345	272681	keystroke_m	m	n/a
136.5205	0.0895	273041	keystroke_s	s	n/a
136.756	0.1355	273512	keystroke_Key.enter	Key.enter	n/a
136.8995	5.595	273799	prompt	n/a	document application macro enjoy\n
137.499	0.08	274998	keystroke_d	d	n/a
137.6	0.101	275200	keystroke_o	o	n/a
137.758	0.1005	275516	keystroke_c	c	n/a
137.8475	0.09	275695	keystroke_u	u	n/a
138.0725	0.101	276145	keystroke_m	m	n/a
138.23	0.0785	276460	keystroke_e	e	n/a
138.3425	0.101	276685	keystroke_n	n	n/a
138.477	0.102	276954	keystroke_t	t	n/a
138.556	0.0905	277112	keystroke_Key.space	Key.space	n/a
138.6915	0.09	277383	keystroke_a	a	n/a
139.04	0.045	278080	keystroke_p	p	n/a
139.2205	0.135	278441	keystroke_p	p	n/a
139.2875	0.2365	278575	keystroke_l	l	n/a
139.467	0.113	278934	keystroke_i	i	n/a
139.602	0.09	279204	keystroke_c	c	n/a
139.7595	0.1245	279519	keystroke_a	a	n/a
139.839	0.0785	279678	keystroke_t	t	n/a
139.929	0.157	279858	keystroke_i	i	n/a
140.0295	0.18	280059	keystroke_o	o	n/a
140.154	0.1345	280308	keystroke_n	n	n/a
140.2995	0.124	280599	keystroke_Key.space	Key.space	n/a
140.4125	0.135	280825	keystroke_m	m	n/a
140.536	0.09	281072	keystroke_a	a	n/a
140.6715	0.101	281343	keystroke_c	c	n/a
140.8845	0.079	281769	keystroke_r	r	n/a
140.9975	0.1345	281995	keystroke_o	o	n/a
141.1665	0.101	282333	keystroke_Key.space	Key.space	n/a
141.369	0.079	282738	keystroke_e	e	n/a
141.47	0.1125	282940	keystroke_n	n	n/a
141.695	0.1015	283390	keystroke_j	j	n/a
141.8975	0.169	283795	keystroke_o	o	n/a
142.055	0.112	284110	keystroke_y	y	n/a
142.3585	0.135	284717	keystroke_Key.enter	Key.enter	n/a
142.4975	5.8135	284995	prompt	n/a	o'clock sept completely robinson\n
143.113	0.0665	286226	keystroke_o	o	n/a
143.315	0.112	286630	keystroke_'	'	n/a
143.551	0.101	287102	keystroke_c	c	n/a
143.675	0.0675	287350	keystroke_l	l	n/a
143.8215	0.1005	287643	keystroke_o	o	n/a
143.967	0.1015	287934	keystroke_c	c	n/a
144.08	0.1345	288160	keystroke_k	k	n/a
144.26	0.102	288520	keystroke_Key.space	Key.space	n/a
144.429	0.078	288858	keystroke_s	s	n/a
144.609	0.078	289218	keystroke_e	e	n/a
144.7435	0.102	289487	keystroke_p	p	n/a
144.8785	0.0675	289757	keystroke_t	t	n/a
144.957	0.102	289914	keystroke_Key.space	Key.space	n/a
145.182	0.113	290364	keystroke_c	c	n/a
145.3065	0.168	290613	keystroke_o	o	n/a
145.441	0.1915	290882	keystroke_m	m	n/a
145.6105	0.123	291221	keystroke_p	p	n/a
145.6995	0.102	291399	keystroke_l	l	n/a
145.9025	0.1235	291805	keystroke_e	e	n/a
145.992	0.1465	291984	keystroke_t	t	n/a
146.127	0.0905	292254	keystroke_e	e	n/a
146.307	0.1695	292614	keystroke_l	l	n/a
146.465	0.1015	292930	keystroke_y	y	n/a
146.6335	0.0785	293267	keystroke_Key.space	Key.space	n/a
146.78	0.1015	293560	keystroke_r	r	n/a
146.8925	0.135	293785	keystroke_o	o	n/a
147.062	0.0895	294124	keystroke_b	b	n/a
147.23	0.146	294460	keystroke_i	i	n/a
147.3645	0.1245	294729	keystroke_n	n	n/a
147.522	0.057	295044	keystroke_s	s	n/a
147.658	0.157	295316	keystroke_o	o	n/a
147.826	0.1125	295652	keystroke_n	n	n/a
148.152	0.158	296304	keystroke_Key.enter	Key.enter	n/a
148.314	6.5555	296628	prompt	n/a	parliament martha founder they're\n
148.884	0.1345	297768	keystroke_p	p	n/a
149.03	0.124	298060	keystroke_a	a	n/a
149.109	0.1005	298218	keystroke_r	r	n/a
149.3785	0.203	298757	keystroke_l	l	n/a
149.626	0.113	299252	keystroke_i	i	n/a
149.84	0.09	299680	keystroke_a	a	n/a
150.009	0.09	300018	keystroke_m	m	n/a
150.2335	0.0905	300467	keystroke_e	e	n/a
150.38	0.101	300760	keystroke_n	n	n/a
150.526	0.09	301052	keystroke_t	t	n/a
150.605	0.101	301210	keystroke_Key.space	Key.space	n/a
150.7515	0.1345	301503	keystroke_m	m	n/a
150.8975	0.1125	301795	keystroke_a	a	n/a
151.314	0.0895	302628	keystroke_r	r	n/a
151.539	0.0785	303078	keystroke_t	t	n/a
151.6625	0.112	303325	keystroke_h	h	n/a
151.797	0.0905	303594	keystroke_a	a	n/a
151.966	0.09	303932	keystroke_Key.space	Key.space	n/a
152.214	0.0895	304428	keystroke_f	f	n/a
152.3485	0.1135	304697	keystroke_o	o	n/a
152.427	0.0905	304854	keystroke_u	u	n/a
152.641	0.1015	305282	keystroke_n	n	n/a
152.7875	0.0895	305575	keystroke_d	d	n/a
152.99	0.1345	305980	keystroke_e	e	n/a
153.0575	0.1345	306115	keystroke_r	r	n/a
153.2485	0.1135	306497	keystroke_Key.space	Key.space	n/a
153.3615	0.1005	306723	keystroke_t	t	n/a
153.4735	0.1015	306947	keystroke_h	h	n/a
153.586	0.101	307172	keystroke_e	e	n/a
153.777	0.102	307554	keystroke_y	y	n/a
154.0365	0.1345	308073	keystroke_'	'	n/a
154.2835	0.1685	308567	keystroke_r	r	n/a
154.385	0.1235	308770	keystroke_e	e	n/a
154.7335	0.135	309467	keystroke_Key.enter	Key.enter	n/a
154.872	5.9145	309744	prompt	n/a	finds cart bonds wagon\n
155.3865	0.0785	310773	keystroke_f	f	n/a
155.5995	0.102	311199	keystroke_i	i	n/a
155.6225	0.1345	311245	keystroke_n	n	n/a
156.1515	0.0555	312303	keystroke_Key.backspace	Key.backspace	n/a
156.32	0.0335	312640	keystroke_Key.backspace	Key.backspace	n/a
156.455	0.067	312910	keystroke_Key.backspace	Key.backspace	n/a
157.0845	0.068	314169	keystroke_f	f	n/a
157.2985	0.191	314597	keystroke_i	i	n/a
157.4785	0.1125	314957	keystroke_n	n	n/a
157.659	0.1345	315318	keystroke_d	d	n/a
157.771	0.091	315542	keystroke_s	s	n/a
157.895	0.1015	315790	keystroke_Key.space	Key.space	n/a
158.0975	0.067	316195	keystroke_c	c	n/a
158.2435	0.146	316487	keystroke_a	a	n/a
158.345	0.124	316690	keystroke_r	r	n/a
158.6035	0.113	317207	keystroke_t	t	n/a
158.6825	0.0895	317365	keystroke_Key.space	Key.space	n/a
158.885	0.0785	317770	keystroke_b	b	n/a
159.032	0.1675	318064	keystroke_o	o	n/a
159.189	0.1125	318378	keystroke_n	n	n/a
159.347	0.1565	318694	keystroke_d	d	n/a
159.4585	0.1235	318917	keystroke_s	s	n/a
159.5595	0.1135	319119	keystroke_Key.space	Key.space	n/a
159.729	0.112	319458	keystroke_w	w	n/a
159.886	0.1125	319772	keystroke_a	a	n/a
160.0325	0.1125	320065	keystroke_g	g	n/a
160.2015	0.157	320403	keystroke_o	o	n/a
160.37	0.1125	320740	keystroke_n	n	n/a
160.6515	0.1345	321303	keystroke_Key.enter	Key.enter	n/a
160.7895	5.466	321579	prompt	n/a	private automatic branch guinea\n
161.3935	0.113	322787	keystroke_p	p	n/a
161.54	0.0895	323080	keystroke_r	r	n/a
161.686	0.079	323372	keystroke_i	i	n/a
161.776	0.079	323552	keystroke_v	v	n/a
161.956	0.101	323912	keystroke_a	a	n/a
162.159	0.135	324318	keystroke_t	t	n/a
162.339	0.146	324678	keystroke_e	e	n/a
162.4515	0.1005	324903	keystroke_Key.space	Key.space	n/a
162.6085	0.0675	325217	keystroke_a	a	n/a
162.721	0.101	325442	keystroke_u	u	n/a
162.856	0.0905	325712	keystroke_t	t	n/a
162.957	0.1355	325914	keystroke_o	o	n/a
163.1035	0.1355	326207	keystroke_m	m	n/a
163.2615	0.1125	326523	keystroke_a	a	n/a
163.3175	0.112	326635	keystroke_t	t	n/a
163.486	0.0795	326972	keystroke_i	i	n/a
163.5875	0.1345	327175	keystroke_c	c	n/a
163.7335	0.079	327467	keystroke_Key.space	Key.space	n/a
163.846	0.1235	327692	keystroke_b	b	n/a
164.0935	0.1355	328187	keystroke_r	r	n/a
164.2065	0.079	328413	keystroke_a	a	n/a
164.307	0.1125	328614	keystroke_n	n	n/a
164.454	0.1005	328908	keystroke_c	c	n/a
164.5995	0.1015	329199	keystroke_h	h	n/a
164.735	0.09	329470	keystroke_Key.space	Key.space	n/a
164.9035	0.102	329807	keystroke_g	g	n/a
165.1175	0.1795	330235	keystroke_u	u	n/a
165.32	0.0895	330640	keystroke_i	i	n/a
165.5125	0.1	331025	keystroke_n	n	n/a
165.6795	0.124	331359	keystroke_e	e	n/a
165.8145	0.1015	331629	keystroke_a	a	n/a
166.119	0.135	332238	keystroke_Key.enter	Key.enter	n/a
166.259	6.3965	332518	prompt	n/a	hollywood long selling bicycle\n
166.9625	0.135	333925	keystroke_h	h	n/a
167.0975	0.0785	334195	keystroke_o	o	n/a
167.2885	0.0675	334577	keystroke_l	l	n/a
167.424	0.0785	334848	keystroke_l	l	n/a
167.626	0.079	335252	keystroke_y	y	n/a
167.7835	0.09	335567	keystroke_w	w	n/a
167.941	0.158	335882	keystroke_o	o	n/a
168.144	0.0785	336288	keystroke_u	u	n/a
168.4815	0.067	336963	keystroke_Key.backspace	Key.backspace	n/a
168.752	0.1005	337504	keystroke_o	o	n/a
168.988	0.078	337976	keystroke_d	d	n/a
169.1675	0.068	338335	keystroke_Key.space	Key.space	n/a
169.2465	0.09	338493	keystroke_l	l	n/a
169.437	0.113	338874	keystroke_o	o	n/a
169.528	0.123	339056	keystroke_n	n	n/a
169.64	0.101	339280	keystroke_g	g	n/a
169.7295	0.079	339459	keystroke_Key.space	Key.space	n/a
169.865	0.113	339730	keystroke_s	s	n/a
170.0225	0.079	340045	keystroke_e	e	n/a
170.169	0.0675	340338	keystroke_l	l	n/a
170.3485	0.113	340697	keystroke_l	l	n/a
170.429	0.1675	340858	keystroke_i	i	n/a
170.5625	0.146	341125	keystroke_n	n	n/a
170.664	0.1125	341328	keystroke_g	g	n/a
170.7315	0.135	341463	keystroke_Key.space	Key.space	n/a
170.922	0.0925	341844	keystroke_b	b	n/a
171.1365	0.135	342273	keystroke_i	i	n/a
171.2825	0.079	342565	keystroke_c	c	n/a
171.4965	0.0895	342993	keystroke_y	y	n/a
171.867	0.0905	343734	keystroke_c	c	n/a
172.07	0.101	344140	keystroke_l	l	n/a
172.2285	0.0775	344457	keystroke_e	e	n/a
172.5195	0.135	345039	keystroke_Key.enter	Key.enter	n/a
172.6585	8.3785	345317	prompt	n/a	graham compounds concerts advocacy\n
173.3635	0.0785	346727	keystroke_g	g	n/a
173.6	0.056	347200	keystroke_r	r	n/a
173.7685	0.1015	347537	keystroke_a	a	n/a
173.9485	0.113	347897	keystroke_h	h	n/a
174.1175	0.0895	348235	keystroke_a	a	n/a
174.2635	0.1355	348527	keystroke_m	m	n/a
174.466	0.09	348932	keystroke_Key.space	Key.space	n/a
174.7025	0.0895	349405	keystroke_b	b	n/a
174.8595	0.079	349719	keystroke_o	o	n/a
175.1525	0.056	350305	keystroke_Key.backspace	Key.backspace	n/a
175.31	0.067	350620	keystroke_Key.backspace	Key.backspace	n/a
175.4785	0.0785	350957	keystroke_c	c	n/a
175.5685	0.1685	351137	keystroke_o	o	n/a
175.7035	0.169	351407	keystroke_m	m	n/a
175.917	0.18	351834	keystroke_p	p	n/a
176.052	0.169	352104	keystroke_o	o	n/a
176.21	0.0895	352420	keystroke_u	u	n/a
176.4125	0.1125	352825	keystroke_n	n	n/a
176.536	0.157	353072	keystroke_d	d	n/a
176.637	0.1255	353274	keystroke_s	s	n/a
176.7625	0.0775	353525	keystroke_Key.space	Key.space	n/a
176.907	0.101	353814	keystroke_c	c	n/a
177.1885	0.0785	354377	keystroke_o	o	n/a
177.3685	0.112	354737	keystroke_n	n	n/a
177.504	0.1005	355008	keystroke_c	c	n/a
177.7175	0.1455	355435	keystroke_e	e	n/a
177.8295	0.1915	355659	keystroke_r	r	n/a
178.0995	0.079	356199	keystroke_t	t	n/a
178.2575	0.101	356515	keystroke_s	s	n/a
178.3925	0.101	356785	keystroke_Key.space	Key.space	n/a
178.55	0.1125	357100	keystroke_a	a	n/a
178.6965	0.112	357393	keystroke_d	d	n/a
178.9445	0.134	357889	keystroke_v	v	n/a
179.2135	0.0785	358427	keystroke_o	o	n/a
179.3935	0.0785	358787	keystroke_c	c	n/a
179.5295	0.1	359059	keystroke_a	a	n/a
179.7765	0.1005	359553	keystroke_c	c	n/a
179.9445	0.09	359889	keystroke_y	y	n/a
180.9005	0.1355	361801	keystroke_Key.enter	Key.enter	n/a
181.041	6.093	362082	prompt	n/a	evil belgium aggregate ties\n
181.655	0.078	363310	keystroke_e	e	n/a
181.8235	0.09	363647	keystroke_i	i	n/a
181.9245	0.0785	363849	keystroke_v	v	n/a
182.453	0.057	364906	keystroke_Key.backspace	Key.backspace	n/a
182.5995	0.0675	365199	keystroke_Key.backspace	Key.backspace	n/a
182.7685	0.0675	365537	keystroke_v	v	n/a
182.8815	0.157	365763	keystroke_i	i	n/a
182.9935	0.1125	365987	keystroke_l	l	n/a
183.162	0.0675	366324	keystroke_Key.space	Key.space	n/a
183.2855	0.091	366571	keystroke_b	b	n/a
183.488	0.079	366976	keystroke_e	e	n/a
183.5785	0.1125	367157	keystroke_l	l	n/a
183.837	0.0675	367674	keystroke_g	g	n/a
183.995	0.1345	367990	keystroke_i	i	n/a
184.1855	0.113	368371	keystroke_u	u	n/a
184.501	0.1015	369002	keystroke_m	m	n/a
184.692	0.0905	369384	keystroke_Key.space	Key.space	n/a
184.872	0.079	369744	keystroke_a	a	n/a
185.0855	0.0565	370171	keystroke_g	g	n/a
185.2205	0.079	370441	keystroke_g	g	n/a
185.4345	0.101	370869	keystroke_r	r	n/a
185.4795	0.101	370959	keystroke_e	e	n/a
185.66	0.0895	371320	keystroke_g	g	n/a
185.8175	0.0895	371635	keystroke_a	a	n/a
185.896	0.146	371792	keystroke_t	t	n/a
186.0535	0.091	372107	keystroke_e	e	n/a
186.166	0.079	372332	keystroke_Key.space	Key.space	n/a
186.3455	0.1015	372691	keystroke_t	t	n/a
186.458	0.09	372916	keystroke_i	i	n/a
186.5705	0.0915	373141	keystroke_e	e	n/a
186.74	0.0895	373480	keystroke_s	s	n/a
186.998	0.135	373996	keystroke_Key.enter	Key.enter	n/a
187.137	5.6455	374274	prompt	n/a	deck coalition thai bidder\n
187.5945	0.0905	375189	keystroke_e	e	n/a
187.91	0.056	375820	keystroke_Key.backspace	Key.backspace	n/a
188.1685	0.067	376337	keystroke_d	d	n/a
188.3145	0.0805	376629	keystroke_e	e	n/a
188.5295	0.0665	377059	keystroke_c	c	n/a
188.652	0.1015	377304	keystroke_k	k	n/a
188.7645	0.0785	377529	keystroke_Key.space	Key.space	n/a
188.967	0.1015	377934	keystroke_c	c	n/a
189.1135	0.0895	378227	keystroke_o	o	n/a
189.3835	0.09	378767	keystroke_a	a	n/a
189.608	0.1355	379216	keystroke_l	l	n/a
189.721	0.112	379442	keystroke_i	i	n/a
189.98	0.0675	379960	keystroke_t	t	n/a
190.081	0.157	380162	keystroke_i	i	n/a
190.3625	0.135	380725	keystroke_o	o	n/a
190.509	0.157	381018	keystroke_n	n	n/a
190.7115	0.123	381423	keystroke_Key.space	Key.space	n/a
190.8235	0.101	381647	keystroke_t	t	n/a
190.981	0.1125	381962	keystroke_h	h	n/a
191.1285	0.0775	382257	keystroke_a	a	n/a
191.307	0.09	382614	keystroke_i	i	n/a
191.442	0.079	382884	keystroke_Key.space	Key.space	n/a
191.622	0.1015	383244	keystroke_b	b	n/a
191.814	0.078	383628	keystroke_i	i	n/a
191.937	0.0675	383874	keystroke_d	d	n/a
192.095	0.079	384190	keystroke_d	d	n/a
192.275	0.135	384550	keystroke_e	e	n/a
192.354	0.1125	384708	keystroke_r	r	n/a
192.669	0.112	385338	keystroke_Key.enter	Key.enter	n/a
192.786	7.4775	385572	prompt	n/a	owned threatening agenda winston\n
193.3785	0.0775	386757	keystroke_o	o	n/a
193.501	0.0565	387002	keystroke_w	w	n/a
193.625	0.1345	387250	keystroke_n	n	n/a
193.771	0.067	387542	keystroke_e	e	n/a
193.9515	0.089	387903	keystroke_d	d	n/a
194.063	0.079	388126	keystroke_Key.space	Key.space	n/a
194.165	0.09	388330	keystroke_t	t	n/a
194.333	0.102	388666	keystroke_h	h	n/a
194.446	0.1355	388892	keystroke_r	r	n/a
194.525	0.112	389050	keystroke_e	e	n/a
194.6705	0.102	389341	keystroke_a	a	n/a
194.885	0.101	389770	keystroke_n	n	n/a
195.0535	0.113	390107	keystroke_t	t	n/a
195.4925	0.078	390985	keystroke_Key.backspace	Key.backspace	n/a
195.74	0.0785	391480	keystroke_e	e	n/a
196.0095	0.0355	392019	keystroke_n	n	n/a
196.224	0.078	392448	keystroke_Key.backspace	Key.backspace	n/a
196.4035	0.045	392807	keystroke_Key.backspace	Key.backspace	n/a
196.5495	0.034	393099	keystroke_Key.backspace	Key.backspace	n/a
196.7185	0.079	393437	keystroke_t	t	n/a
196.945	0.111	393890	keystroke_e	e	n/a
197.1125	0.1345	394225	keystroke_n	n	n/a
197.3595	0.113	394719	keystroke_i	i	n/a
197.5625	0.112	395125	keystroke_n	n	n/a
197.686	0.1015	395372	keystroke_g	g	n/a
197.7765	0.0895	395553	keystroke_Key.space	Key.space	n/a
197.922	0.0905	395844	keystroke_a	a	n/a
198.0235	0.1355	396047	keystroke_g	g	n/a
198.2715	0.112	396543	keystroke_e	e	n/a
198.4175	0.101	396835	keystroke_n	n	n/a
198.5635	0.0905	397127	keystroke_d	d	n/a
198.7215	0.078	397443	keystroke_a	a	n/a
198.8335	0.0795	397667	keystroke_Key.space	Key.space	n/a
198.947	0.1005	397894	keystroke_w	w	n/a
199.092	0.0675	398184	keystroke_i	i	n/a
199.2725	0.1015	398545	keystroke_n	n	n/a
199.407	0.1245	398814	keystroke_s	s	n/a
199.5205	0.0895	399041	keystroke_t	t	n/a
199.7115	0.112	399423	keystroke_o	o	n/a
199.891	0.112	399782	keystroke_n	n	n/a
200.15	0.1125	400300	keystroke_Key.enter	Key.enter	n/a
200.2665	5.814	400533	prompt	n/a	spirit tongue freely cork\n
200.8815	0.079	401763	keystroke_s	s	n/a
201.0495	0.0795	402099	keystroke_p	p	n/a
201.252	0.0905	402504	keystroke_i	i	n/a
201.413	0.0985	402826	keystroke_r	r	n/a
201.567	0.101	403134	keystroke_i	i	n/a
201.7245	0.079	403449	keystroke_t	t	n/a
201.837	0.079	403674	keystroke_Key.space	Key.space	n/a
202.051	0.0785	404102	keystroke_t	t	n/a
202.1975	0.056	404395	keystroke_o	o	n/a
202.3885	0.1125	404777	keystroke_n	n	n/a
202.546	0.1125	405092	keystroke_g	g	n/a
202.6475	0.135	405295	keystroke_Key.space	Key.space	n/a
203.3785	0.0675	406757	keystroke_Key.backspace	Key.backspace	n/a
203.8055	0.0905	407611	keystroke_u	u	n/a
203.952	0.113	407904	keystroke_e	e	n/a
204.0535	0.0895	408107	keystroke_Key.space	Key.space	n/a
204.2115	0.089	408423	keystroke_f	f	n/a
204.425	0.1005	408850	keystroke_r	r	n/a
204.47	0.1005	408940	keystroke_e	e	n/a
204.65	0.0675	409300	keystroke_e	e	n/a
204.7735	0.079	409547	keystroke_l	l	n/a
204.987	0.1015	409974	keystroke_y	y	n/a
205.122	0.1015	410244	keystroke_Key.space	Key.space	n/a
205.3135	0.0895	410627	keystroke_c	c	n/a
205.4255	0.1035	410851	keystroke_o	o	n/a
205.5835	0.0675	411167	keystroke_r	r	n/a
205.696	0.1015	411392	keystroke_k	k	n/a
205.9445	0.1345	411889	keystroke_Key.enter	Key.enter	n/a
206.084	6.3405	412168	prompt	n/a	rapidly infrared colon commander\n
206.7085	0.0895	413417	keystroke_r	r	n/a
206.866	0.0785	413732	keystroke_a	a	n/a
207.023	0.1355	414046	keystroke_p	p	n/a
207.2145	0.1015	414429	keystroke_i	i	n/a
207.3385	0.0785	414677	keystroke_d	d	n/a
207.4845	0.0785	414969	keystroke_l	l	n/a
207.687	0.0905	415374	keystroke_y	y	n/a
207.812	0.089	415624	keystroke_Key.space	Key.space	n/a
207.991	0.101	415982	keystroke_i	i	n/a
208.2045	0.0905	416409	keystroke_n	n	n/a
208.351	0.067	416702	keystroke_f	f	n/a
208.5645	0.1015	417129	keystroke_r	r	n/a
208.655	0.112	417310	keystroke_a	a	n/a
208.857	0.0905	417714	keystroke_r	r	n/a
209.0255	0.0905	418051	keystroke_e	e	n/a
209.2285	0.0895	418457	keystroke_d	d	n/a
209.3745	0.0785	418749	keystroke_Key.space	Key.space	n/a
209.5445	0.1	419089	keystroke_c	c	n/a
209.701	0.0785	419402	keystroke_o	o	n/a
209.903	0.0675	419806	keystroke_l	l	n/a
210.0945	0.079	420189	keystroke_o	o	n/a
210.331	0.1135	420662	keystroke_n	n	n/a
210.5555	0.09	421111	keystroke_Key.space	Key.space	n/a
210.9155	0.0905	421831	keystroke_c	c	n/a
211.0395	0.101	422079	keystroke_o	o	n/a
211.1295	0.0905	422259	keystroke_m	m	n/a
211.3205	0.0785	422641	keystroke_m	m	n/a
211.467	0.1015	422934	keystroke_a	a	n/a
211.58	0.1015	423160	keystroke_n	n	n/a
211.6925	0.089	423385	keystroke_d	d	n/a
211.895	0.1685	423790	keystroke_e	e	n/a
212.0295	0.101	424059	keystroke_r	r	n/a
212.3115	0.112	424623	keystroke_Key.enter	Key.enter	n/a
212.428	6.6115	424856	prompt	n/a	doctors qualify fully fraction\n
213.0645	0.0905	426129	keystroke_d	d	n/a
213.199	0.079	426398	keystroke_o	o	n/a
213.3005	0.0905	426601	keystroke_c	c	n/a
213.537	0.0675	427074	keystroke_t	t	n/a
213.672	0.09	427344	keystroke_o	o	n/a
213.7735	0.078	427547	keystroke_r	r	n/a
213.953	0.1135	427906	keystroke_s	s	n/a
214.0785	0.1	428157	keystroke_Key.space	Key.space	n/a
214.246	0.1125	428492	keystroke_q	q	n/a
214.403	0.1015	428806	keystroke_u	u	n/a
214.493	0.0905	428986	keystroke_a	a	n/a
214.651	0.157	429302	keystroke_l	l	n/a
214.763	0.113	429526	keystroke_i	i	n/a
214.8645	0.0675	429729	keystroke_f	f	n/a
215.0445	0.112	430089	keystroke_y	y	n/a
215.1795	0.1125	430359	keystroke_Key.space	Key.space	n/a
215.3945	0.0775	430789	keystroke_f	f	n/a
215.517	0.0895	431034	keystroke_u	u	n/a
215.7195	0.045	431439	keystroke_l	l	n/a
215.8435	0.0675	431687	keystroke_l	l	n/a
216.0235	0.09	432047	keystroke_y	y	n/a
216.2145	0.068	432429	keystroke_Key.space	Key.space	n/a
216.4735	0.0895	432947	keystroke_f	f	n/a
216.6425	0.112	433285	keystroke_r	r	n/a
216.766	0.0895	433532	keystroke_a	a	n/a
216.9685	0.0785	433937	keystroke_c	c	n/a
217.228	0.1685	434456	keystroke_i	i	n/a
217.3625	0.112	434725	keystroke_o	o	n/a
217.8685	0.0565	435737	keystroke_Key.backspace	Key.backspace	n/a
217.9925	0.1355	435985	keystroke_Key.backspace	Key.backspace	n/a
218.228	0.0455	436456	keystroke_t	t	n/a
218.307	0.1805	436614	keystroke_i	i	n/a
218.4985	0.1345	436997	keystroke_o	o	n/a
218.667	0.135	437334	keystroke_n	n	n/a
218.9255	0.113	437851	keystroke_Key.enter	Key.enter	n/a
219.044	9.546	438088	prompt	n/a	formal zshops static pharmaceutical\n
219.7925	0.0665	439585	keystroke_f	f	n/a
219.895	0.0995	439790	keystroke_o	o	n/a
220.006	0.0555	440012	keystroke_r	r	n/a
220.096	0.101	440192	keystroke_m	m	n/a
220.208	0.09	440416	keystroke_a	a	n/a
220.321	0.112	440642	keystroke_l	l	n/a
220.4445	0.1015	440889	keystroke_Key.space	Key.space	n/a
220.647	0.09	441294	keystroke_z	z	n/a
221.513	0.1015	443026	keystroke_s	s	n/a
221.817	0.0675	443634	keystroke_h	h	n/a
222.0195	0.0905	444039	keystroke_o	o	n/a
222.233	0.1015	444466	keystroke_p	p	n/a
222.402	0.09	444804	keystroke_s	s	n/a
222.616	0.09	445232	keystroke_Key.space	Key.space	n/a
223.2235	0.0675	446447	keystroke_s	s	n/a
223.4255	0.09	446851	keystroke_t	t	n/a
223.561	0.1235	447122	keystroke_a	a	n/a
223.6395	0.101	447279	keystroke_t	t	n/a
223.876	0.0785	447752	keystroke_i	i	n/a
224.078	0.09	448156	keystroke_c	c	n/a
224.3365	0.091	448673	keystroke_Key.space	Key.space	n/a
224.652	0.0895	449304	keystroke_p	p	n/a
225.4505	0.101	450901	keystroke_h	h	n/a
225.7655	0.09	451531	keystroke_a	a	n/a
226.058	0.0675	452116	keystroke_r	r	n/a
226.283	0.135	452566	keystroke_m	m	n/a
226.4745	0.079	452949	keystroke_a	a	n/a
226.722	0.079	453444	keystroke_c	c	n/a
227.0145	0.068	454029	keystroke_e	e	n/a
227.2175	0.1005	454435	keystroke_u	u	n/a
227.6445	0.079	455289	keystroke_t	t	n/a
227.78	0.1345	455560	keystroke_i	i	n/a
227.9255	0.09	455851	keystroke_c	c	n/a
228.083	0.113	456166	keystroke_a	a	n/a
228.218	0.113	456436	keystroke_l	l	n/a
228.4775	0.1115	456955	keystroke_Key.enter	Key.enter	n/a
228.593	8.3335	457186	prompt	n/a	dressing poverty flavor distinguished\n
229.1515	0.135	458303	keystroke_d	d	n/a
229.4555	0.101	458911	keystroke_r	r	n/a
229.6695	0.056	459339	keystroke_e	e	n/a
229.8605	0.0455	459721	keystroke_s	s	n/a
230.029	0.0565	460058	keystroke_s	s	n/a
230.4565	0.079	460913	keystroke_i	i	n/a
230.682	0.079	461364	keystroke_n	n	n/a
230.8285	0.1455	461657	keystroke_g	g	n/a
230.963	0.1015	461926	keystroke_Key.space	Key.space	n/a
231.1775	0.078	462355	keystroke_p	p	n/a
231.346	0.079	462692	keystroke_o	o	n/a
231.4925	0.112	462985	keystroke_v	v	n/a
231.717	0.1235	463434	keystroke_e	e	n/a
231.762	0.101	463524	keystroke_r	r	n/a
231.9765	0.068	463953	keystroke_t	t	n/a
232.358	0.1015	464716	keystroke_y	y	n/a
232.707	0.079	465414	keystroke_Key.space	Key.space	n/a
232.9325	0.067	465865	keystroke_f	f	n/a
233.168	0.068	466336	keystroke_a	a	n/a
233.4495	0.079	466899	keystroke_Key.backspace	Key.backspace	n/a
233.6855	0.079	467371	keystroke_l	l	n/a
233.8325	0.112	467665	keystroke_a	a	n/a
233.933	0.113	467866	keystroke_v	v	n/a
234.091	0.0785	468182	keystroke_o	o	n/a
234.2145	0.113	468429	keystroke_r	r	n/a
234.338	0.0675	468676	keystroke_Key.space	Key.space	n/a
234.4735	0.078	468947	keystroke_d	d	n/a
234.8555	0.0785	469711	keystroke_i	i	n/a
235.0015	0.0905	470003	keystroke_s	s	n/a
235.2385	0.0675	470477	keystroke_t	t	n/a
235.362	0.101	470724	keystroke_i	i	n/a
235.5305	0.101	471061	keystroke_n	n	n/a
235.7	0.0445	471400	keystroke_g	g	n/a
235.846	0.168	471692	keystroke_u	u	n/a
236.003	0.0795	472006	keystroke_i	i	n/a
236.172	0.0895	472344	keystroke_s	s	n/a
236.2955	0.1125	472591	keystroke_h	h	n/a
236.4305	0.079	472861	keystroke_e	e	n/a
236.6215	0.068	473243	keystroke_d	d	n/a
236.8245	0.101	473649	keystroke_Key.enter	Key.enter	n/a
236.9295	6.67	473859	prompt	n/a	ecuador publish sheffield pilot\n
237.544	0.0675	475088	keystroke_e	e	n/a
237.747	0.067	475494	keystroke_c	c	n/a
237.95	0.0895	475900	keystroke_u	u	n/a
238.1855	0.09	476371	keystroke_a	a	n/a
238.377	0.0785	476754	keystroke_d	d	n/a
238.5235	0.0675	477047	keystroke_o	o	n/a
238.6245	0.101	477249	keystroke_r	r	n/a
238.737	0.0675	477474	keystroke_Key.space	Key.space	n/a
238.872	0.1345	477744	keystroke_p	p	n/a
239.0745	0.101	478149	keystroke_u	u	n/a
239.232	0.0565	478464	keystroke_b	b	n/a
239.344	0.135	478688	keystroke_l	l	n/a
239.423	0.1015	478846	keystroke_i	i	n/a
239.536	0.056	479072	keystroke_s	s	n/a
239.7275	0.1005	479455	keystroke_h	h	n/a
239.8955	0.0785	479791	keystroke_Key.space	Key.space	n/a
240.0865	0.091	480173	keystroke_s	s	n/a
240.334	0.1015	480668	keystroke_h	h	n/a
240.4695	0.067	480939	keystroke_e	e	n/a
240.8405	0.068	481681	keystroke_f	f	n/a
241.011	0.0775	482022	keystroke_f	f	n/a
241.2125	0.1115	482425	keystroke_i	i	n/a
241.7515	0.0795	483503	keystroke_e	e	n/a
241.921	0.1005	483842	keystroke_l	l	n/a
242.0665	0.079	484133	keystroke_d	d	n/a
242.2925	0.0555	484585	keystroke_Key.space	Key.space	n/a
242.483	0.135	484966	keystroke_p	p	n/a
242.6515	0.101	485303	keystroke_i	i	n/a
242.8655	0.0895	485731	keystroke_l	l	n/a
243.0345	0.0785	486069	keystroke_o	o	n/a
243.2145	0.09	486429	keystroke_t	t	n/a
243.496	0.1015	486992	keystroke_Key.enter	Key.enter	n/a
243.6065	7.799	487213	prompt	n/a	reservations vegetable scary dock\n
245.813	0.0675	491626	keystroke_r	r	n/a
245.994	0.044	491988	keystroke_e	e	n/a
246.151	0.0555	492302	keystroke_s	s	n/a
246.331	0.1345	492662	keystroke_e	e	n/a
246.4205	0.0675	492841	keystroke_r	r	n/a
246.623	0.101	493246	keystroke_v	v	n/a
246.8255	0.1355	493651	keystroke_a	a	n/a
246.9045	0.079	493809	keystroke_t	t	n/a
247.0735	0.1345	494147	keystroke_i	i	n/a
247.174	0.135	494348	keystroke_o	o	n/a
247.344	0.134	494688	keystroke_n	n	n/a
247.4895	0.101	494979	keystroke_s	s	n/a
247.579	0.068	495158	keystroke_Key.space	Key.space	n/a
247.7815	0.09	495563	keystroke_v	v	n/a
247.9615	0.0675	495923	keystroke_e	e	n/a
248.1305	0.0905	496261	keystroke_g	g	n/a
248.3215	0.079	496643	keystroke_e	e	n/a
248.4795	0.1005	496959	keystroke_t	t	n/a
248.727	0.1685	497454	keystroke_a	a	n/a
248.8845	0.078	497769	keystroke_b	b	n/a
249.03	0.1015	498060	keystroke_l	l	n/a
249.143	0.113	498286	keystroke_e	e	n/a
249.2895	0.101	498579	keystroke_Key.space	Key.space	n/a
249.559	0.068	499118	keystroke_s	s	n/a
249.7165	0.09	499433	keystroke_c	c	n/a
249.9195	0.0785	499839	keystroke_a	a	n/a
250.099	0.0565	500198	keystroke_r	r	n/a
250.212	0.112	500424	keystroke_y	y	n/a
250.313	0.1235	500626	keystroke_Key.space	Key.space	n/a
250.538	0.09	501076	keystroke_d	d	n/a
250.65	0.1015	501300	keystroke_o	o	n/a
250.763	0.1125	501526	keystroke_c	c	n/a
251.0105	0.101	502021	keystroke_k	k	n/a
251.2695	0.135	502539	keystroke_Key.enter	Key.enter	n/a
251.4085	5.993	502817	prompt	n/a	reserves techno represents shelter\n
252.102	0.101	504204	keystroke_r	r	n/a
252.158	0.0785	504316	keystroke_e	e	n/a
252.361	0.101	504722	keystroke_s	s	n/a
252.473	0.1575	504946	keystroke_e	e	n/a
252.6535	0.0905	505307	keystroke_r	r	n/a
252.867	0.1005	505734	keystroke_v	v	n/a
253.024	0.135	506048	keystroke_e	e	n/a
253.1365	0.113	506273	keystroke_s	s	n/a
253.2605	0.1355	506521	keystroke_Key.space	Key.space	n/a
253.4625	0.1465	506925	keystroke_t	t	n/a
253.598	0.0895	507196	keystroke_e	e	n/a
253.789	0.079	507578	keystroke_c	c	n/a
253.902	0.0895	507804	keystroke_h	h	n/a
254.1155	0.1125	508231	keystroke_n	n	n/a
254.262	0.101	508524	keystroke_o	o	n/a
254.4305	0.09	508861	keystroke_Key.space	Key.space	n/a
254.6105	0.124	509221	keystroke_r	r	n/a
254.6895	0.112	509379	keystroke_e	e	n/a
254.8805	0.101	509761	keystroke_p	p	n/a
255.0155	0.124	510031	keystroke_r	r	n/a
255.0835	0.0895	510167	keystroke_e	e	n/a
255.2515	0.124	510503	keystroke_s	s	n/a
255.3305	0.135	510661	keystroke_e	e	n/a
255.5665	0.1125	511133	keystroke_n	n	n/a
255.69	0.0905	511380	keystroke_t	t	n/a
255.8365	0.113	511673	keystroke_s	s	n/a
255.972	0.101	511944	keystroke_Key.space	Key.space	n/a
256.152	0.1015	512304	keystroke_s	s	n/a
256.2535	0.1005	512507	keystroke_h	h	n/a
256.388	0.1015	512776	keystroke_e	e	n/a
256.512	0.101	513024	keystroke_l	l	n/a
256.647	0.1135	513294	keystroke_t	t	n/a
256.8275	0.1905	513655	keystroke_e	e	n/a
256.9845	0.101	513969	keystroke_r	r	n/a
257.2655	0.135	514531	keystroke_Key.enter	Key.enter	n/a
257.405	6.9935	514810	prompt	n/a	singing marie bibliographic exams\n
257.9855	0.09	515971	keystroke_s	s	n/a
258.1775	0.1115	516355	keystroke_i	i	n/a
258.3455	0.135	516691	keystroke_n	n	n/a
258.525	0.0795	517050	keystroke_g	g	n/a
258.649	0.147	517298	keystroke_i	i	n/a
258.75	0.1355	517500	keystroke_n	n	n/a
258.8745	0.1125	517749	keystroke_g	g	n/a
258.9535	0.101	517907	keystroke_Key.space	Key.space	n/a
259.088	0.0895	518176	keystroke_m	m	n/a
259.2	0.079	518400	keystroke_a	a	n/a
259.3805	0.09	518761	keystroke_r	r	n/a
259.527	0.101	519054	keystroke_i	i	n/a
259.662	0.1005	519324	keystroke_e	e	n/a
259.774	0.0905	519548	keystroke_Key.space	Key.space	n/a
259.999	0.056	519998	keystroke_b	b	n/a
260.1115	0.191	520223	keystroke_i	i	n/a
260.2695	0.1125	520539	keystroke_o	o	n/a
260.6515	0.09	521303	keystroke_Key.backspace	Key.backspace	n/a
260.9215	0.079	521843	keystroke_b	b	n/a
261.1575	0.1015	522315	keystroke_l	l	n/a
261.36	0.1245	522720	keystroke_i	i	n/a
261.45	0.1125	522900	keystroke_o	o	n/a
261.6755	0.068	523351	keystroke_g	g	n/a
261.8555	0.1355	523711	keystroke_r	r	n/a
261.9905	0.101	523981	keystroke_a	a	n/a
262.17	0.135	524340	keystroke_p	p	n/a
262.384	0.135	524768	keystroke_h	h	n/a
262.5195	0.0905	525039	keystroke_i	i	n/a
262.6655	0.0895	525331	keystroke_c	c	n/a
262.891	0.067	525782	keystroke_Key.space	Key.space	n/a
263.205	0.0565	526410	keystroke_e	e	n/a
263.408	0.0785	526816	keystroke_x	x	n/a
263.6215	0.079	527243	keystroke_a	a	n/a
263.712	0.1005	527424	keystroke_m	m	n/a
263.869	0.0785	527738	keystroke_s	s	n/a
264.24	0.1575	528480	keystroke_Key.enter	Key.enter	n/a
264.4015	8.5355	528803	prompt	n/a	peaceful continuity chorus stick\n
266.266	0.112	532532	keystroke_p	p	n/a
266.4115	0.0905	532823	keystroke_e	e	n/a
266.5695	0.0895	533139	keystroke_a	a	n/a
266.7605	0.09	533521	keystroke_c	c	n/a
266.9515	0.068	533903	keystroke_e	e	n/a
267.109	0.09	534218	keystroke_f	f	n/a
267.2215	0.09	534443	keystroke_u	u	n/a
267.4355	0.0785	534871	keystroke_l	l	n/a
267.615	0.09	535230	keystroke_Key.space	Key.space	n/a
267.8515	0.1015	535703	keystroke_c	c	n/a
267.9755	0.1575	535951	keystroke_o	o	n/a
268.1325	0.1125	536265	keystroke_n	n	n/a
268.279	0.0785	536558	keystroke_t	t	n/a
268.414	0.135	536828	keystroke_i	i	n/a
268.5155	0.112	537031	keystroke_n	n	n/a
268.8075	0.1575	537615	keystroke_u	u	n/a
268.9435	0.089	537887	keystroke_i	i	n/a
269.1345	0.067	538269	keystroke_t	t	n/a
269.3025	0.102	538605	keystroke_y	y	n/a
269.517	0.089	539034	keystroke_Key.space	Key.space	n/a
269.8105	0.1335	539621	keystroke_c	c	n/a
270.0005	0.1125	540001	keystroke_h	h	n/a
270.2025	0.0565	540405	keystroke_r	r	n/a
270.2935	0.0555	540587	keystroke_o	o	n/a
270.54	0.079	541080	keystroke_Key.backspace	Key.backspace	n/a
270.698	0.056	541396	keystroke_Key.backspace	Key.backspace	n/a
270.9225	0.102	541845	keystroke_o	o	n/a
271.0805	0.101	542161	keystroke_r	r	n/a
271.429	0.101	542858	keystroke_u	u	n/a
271.5975	0.0795	543195	keystroke_s	s	n/a
271.789	0.0905	543578	keystroke_Key.space	Key.space	n/a
271.9245	0.1005	543849	keystroke_s	s	n/a
272.115	0.102	544230	keystroke_t	t	n/a
272.2845	0.067	544569	keystroke_i	i	n/a
272.3855	0.113	544771	keystroke_c	c	n/a
272.5435	0.1115	545087	keystroke_k	k	n/a
272.8015	0.1345	545603	keystroke_Key.enter	Key.enter	n/a
272.9405	5.408	545881	prompt	n/a	we'd packages health eddie\n
273.6	0.09	547200	keystroke_w	w	n/a
273.7015	0.1125	547403	keystroke_e	e	n/a
273.8935	0.1115	547787	keystroke_'	'	n/a
274.0725	0.1015	548145	keystroke_d	d	n/a
274.1965	0.1355	548393	keystroke_Key.space	Key.space	n/a
274.433	0.101	548866	keystroke_p	p	n/a
274.5565	0.0785	549113	keystroke_a	a	n/a
274.624	0.146	549248	keystroke_c	c	n/a
274.804	0.0905	549608	keystroke_k	k	n/a
274.894	0.1575	549788	keystroke_a	a	n/a
275.1075	0.1575	550215	keystroke_g	g	n/a
275.2435	0.134	550487	keystroke_e	e	n/a
275.31	0.1355	550620	keystroke_s	s	n/a
275.4565	0.0905	550913	keystroke_Key.space	Key.space	n/a
275.625	0.102	551250	keystroke_h	h	n/a
275.738	0.1235	551476	keystroke_e	e	n/a
275.8055	0.112	551611	keystroke_a	a	n/a
275.9515	0.101	551903	keystroke_l	l	n/a
276.1205	0.0785	552241	keystroke_t	t	n/a
276.255	0.068	552510	keystroke_h	h	n/a
276.3455	0.1125	552691	keystroke_Key.space	Key.space	n/a
276.5025	0.091	553005	keystroke_e	e	n/a
276.694	0.0905	553388	keystroke_d	d	n/a
276.8515	0.0915	553703	keystroke_i	i	n/a
277.4025	0.1015	554805	keystroke_Key.backspace	Key.backspace	n/a
277.639	0.101	555278	keystroke_d	d	n/a
277.7625	0.1125	555525	keystroke_i	i	n/a
277.954	0.0445	555908	keystroke_e	e	n/a
278.2355	0.112	556471	keystroke_Key.enter	Key.enter	n/a
278.3515	9.29	556703	prompt	n/a	workshops didn't emphasis nervous\n
279.0565	0.0675	558113	keystroke_w	w	n/a
279.146	0.0905	558292	keystroke_o	o	n/a
279.2815	0.068	558563	keystroke_r	r	n/a
279.349	0.1015	558698	keystroke_k	k	n/a
279.4845	0.078	558969	keystroke_s	s	n/a
279.6755	0.112	559351	keystroke_h	h	n/a
279.8215	0.169	559643	keystroke_o	o	n/a
279.9225	0.124	559845	keystroke_p	p	n/a
280.0695	0.0785	560139	keystroke_s	s	n/a
280.2155	0.101	560431	keystroke_Key.space	Key.space	n/a
280.4175	0.09	560835	keystroke_d	d	n/a
280.5415	0.0685	561083	keystroke_i	i	n/a
280.6205	0.0675	561241	keystroke_d	d	n/a
280.7665	0.1125	561533	keystroke_d	d	n/a
280.9245	0.157	561849	keystroke_n	n	n/a
281.1275	0.1115	562255	keystroke_'	'	n/a
281.599	0.056	563198	keystroke_Key.backspace	Key.backspace	n/a
281.734	0.0675	563468	keystroke_Key.backspace	Key.backspace	n/a
281.8805	0.067	563761	keystroke_Key.backspace	Key.backspace	n/a
282.028	0.055	564056	keystroke_Key.backspace	Key.backspace	n/a
282.1505	0.067	564301	keystroke_Key.backspace	Key.backspace	n/a
282.285	0.09	564570	keystroke_Key.backspace	Key.backspace	n/a
282.634	0.068	565268	keystroke_d	d	n/a
282.7695	0.0895	565539	keystroke_i	i	n/a
282.882	0.1005	565764	keystroke_d	d	n/a
283.0275	0.1355	566055	keystroke_n	n	n/a
283.2755	0.1015	566551	keystroke_'	'	n/a
283.399	0.101	566798	keystroke_t	t	n/a
283.489	0.0675	566978	keystroke_Key.space	Key.space	n/a
283.6125	0.1125	567225	keystroke_e	e	n/a
283.7365	0.18	567473	keystroke_m	m	n/a
283.928	0.135	567856	keystroke_p	p	n/a
284.13	0.135	568260	keystroke_h	h	n/a
284.288	0.101	568576	keystroke_a	a	n/a
284.4905	0.0785	568981	keystroke_s	s	n/a
284.67	0.113	569340	keystroke_i	i	n/a
284.8165	0.0895	569633	keystroke_s	s	n/a
285.3565	0.079	570713	keystroke_Key.space	Key.space	n/a
285.6825	0.079	571365	keystroke_e	e	n/a
286.054	0.0785	572108	keystroke_Key.backspace	Key.backspace	n/a
286.3125	0.1015	572625	keystroke_n	n	n/a
286.4475	0.09	572895	keystroke_e	e	n/a
286.662	0.078	573324	keystroke_r	r	n/a
286.8645	0.079	573729	keystroke_v	v	n/a
287.0105	0.169	574021	keystroke_o	o	n/a
287.168	0.09	574336	keystroke_u	u	n/a
287.314	0.068	574628	keystroke_s	s	n/a
287.5055	0.1345	575011	keystroke_Key.enter	Key.enter	n/a
287.645	8.8495	575290	prompt	n/a	supplied fill scientists club\n
290.5315	0.0565	581063	keystroke_s	s	n/a
290.711	0.102	581422	keystroke_u	u	n/a
290.936	0.0795	581872	keystroke_p	p	n/a
291.1845	0.134	582369	keystroke_p	p	n/a
291.285	0.124	582570	keystroke_l	l	n/a
291.454	0.101	582908	keystroke_i	i	n/a
291.7015	0.0675	583403	keystroke_e	e	n/a
292.084	0.0795	584168	keystroke_d	d	n/a
292.455	0.057	584910	keystroke_Key.space	Key.space	n/a
292.681	0.055	585362	keystroke_f	f	n/a
292.804	0.1345	585608	keystroke_i	i	n/a
293.051	0.068	586102	keystroke_l	l	n/a
293.3325	0.068	586665	keystroke_l	l	n/a
293.816	0.09	587632	keystroke_Key.space	Key.space	n/a
294.053	0.0785	588106	keystroke_s	s	n/a
294.233	0.101	588466	keystroke_c	c	n/a
294.379	0.101	588758	keystroke_i	i	n/a
294.5025	0.091	589005	keystroke_e	e	n/a
294.615	0.113	589230	keystroke_n	n	n/a
294.7955	0.078	589591	keystroke_t	t	n/a
294.919	0.079	589838	keystroke_i	i	n/a
295.032	0.123	590064	keystroke_s	s	n/a
295.1215	0.101	590243	keystroke_t	t	n/a
295.2565	0.1125	590513	keystroke_s	s	n/a
295.3915	0.1125	590783	keystroke_Key.space	Key.space	n/a
295.628	0.1005	591256	keystroke_c	c	n/a
295.774	0.124	591548	keystroke_l	l	n/a
295.8645	0.112	591729	keystroke_u	u	n/a
296.021	0.0905	592042	keystroke_b	b	n/a
296.381	0.1125	592762	keystroke_Key.enter	Key.enter	n/a
296.4975	21.8115	592995	prompt	n/a	slots explaining management laura\n
313.3805	0.0115	626761	keystroke_s	s	n/a
313.515	0.056	627030	keystroke_l	l	n/a
313.695	0.056	627390	keystroke_o	o	n/a
313.8185	0.0795	627637	keystroke_t	t	n/a
314.01	0.0675	628020	keystroke_s	s	n/a
314.145	0.0905	628290	keystroke_Key.space	Key.space	n/a
314.314	0.056	628628	keystroke_e	e	n/a
314.494	0.067	628988	keystroke_x	x	n/a
314.651	0.124	629302	keystroke_p	p	n/a
314.7075	0.113	629415	keystroke_l	l	n/a
314.865	0.0565	629730	keystroke_a	a	n/a
315.0225	0.1575	630045	keystroke_i	i	n/a
315.2025	0.135	630405	keystroke_n	n	n/a
315.3605	0.124	630721	keystroke_i	i	n/a
315.4505	0.1005	630901	keystroke_n	n	n/a
315.574	0.102	631148	keystroke_g	g	n/a
315.641	0.102	631282	keystroke_Key.space	Key.space	n/a
315.7985	0.102	631597	keystroke_m	m	n/a
315.9235	0.067	631847	keystroke_a	a	n/a
316.0585	0.078	632117	keystroke_n	n	n/a
316.1475	0.09	632295	keystroke_a	a	n/a
316.3055	0.0895	632611	keystroke_g	g	n/a
316.5645	0.09	633129	keystroke_e	e	n/a
316.7665	0.09	633533	keystroke_m	m	n/a
316.8905	0.0895	633781	keystroke_e	e	n/a
317.0025	0.113	634005	keystroke_n	n	n/a
317.127	0.09	634254	keystroke_t	t	n/a
317.239	0.09	634478	keystroke_Key.space	Key.space	n/a
317.3855	0.101	634771	keystroke_l	l	n/a
317.4975	0.09	634995	keystroke_a	a	n/a
317.6325	0.102	635265	keystroke_u	u	n/a
317.8245	0.0895	635649	keystroke_r	r	n/a
317.9605	0.089	635921	keystroke_a	a	n/a
318.229	0.0785	636458	keystroke_Key.enter	Key.enter	n/a
318.3125	5.779	636625	prompt	n/a	promotional stretch involve poor\n
318.96	0.0905	637920	keystroke_p	p	n/a
319.073	0.078	638146	keystroke_r	r	n/a
319.174	0.1465	638348	keystroke_o	o	n/a
319.3095	0.1455	638619	keystroke_m	m	n/a
319.466	0.09	638932	keystroke_o	o	n/a
319.6125	0.0565	639225	keystroke_t	t	n/a
319.7135	0.2365	639427	keystroke_i	i	n/a
319.804	0.157	639608	keystroke_o	o	n/a
319.9385	0.1125	639877	keystroke_n	n	n/a
320.04	0.09	640080	keystroke_a	a	n/a
320.186	0.091	640372	keystroke_l	l	n/a
320.2885	0.089	640577	keystroke_Key.space	Key.space	n/a
320.434	0.135	640868	keystroke_s	s	n/a
320.5805	0.0895	641161	keystroke_t	t	n/a
320.771	0.135	641542	keystroke_r	r	n/a
320.862	0.1005	641724	keystroke_e	e	n/a
321.0645	0.0785	642129	keystroke_t	t	n/a
321.2885	0.0675	642577	keystroke_c	c	n/a
321.4805	0.09	642961	keystroke_h	h	n/a
321.626	0.068	643252	keystroke_Key.space	Key.space	n/a
321.851	0.012	643702	keystroke_l	l	n/a
322.02	0.0565	644040	keystroke_Key.backspace	Key.backspace	n/a
322.2455	0.09	644491	keystroke_i	i	n/a
322.4025	0.113	644805	keystroke_n	n	n/a
322.538	0.078	645076	keystroke_v	v	n/a
322.65	0.0675	645300	keystroke_o	o	n/a
322.8075	0.0675	645615	keystroke_l	l	n/a
322.9095	0.0785	645819	keystroke_v	v	n/a
323.1	0.068	646200	keystroke_e	e	n/a
323.2575	0.0675	646515	keystroke_Key.space	Key.space	n/a
323.4035	0.1015	646807	keystroke_p	p	n/a
323.5615	0.067	647123	keystroke_o	o	n/a
323.7305	0.0675	647461	keystroke_o	o	n/a
323.8665	0.055	647733	keystroke_r	r	n/a
324.045	0.0455	648090	keystroke_Key.enter	Key.enter	n/a
324.096	6.261	648192	prompt	n/a	recreational pointer alternate wish\n
324.71	0.1	649420	keystroke_r	r	n/a
324.9115	0.079	649823	keystroke_e	e	n/a
325.136	0.0675	650272	keystroke_c	c	n/a
325.3275	0.101	650655	keystroke_r	r	n/a
325.406	0.0795	650812	keystroke_e	e	n/a
325.553	0.101	651106	keystroke_a	a	n/a
325.6315	0.0785	651263	keystroke_t	t	n/a
325.7775	0.135	651555	keystroke_i	i	n/a
325.8675	0.135	651735	keystroke_o	o	n/a
325.9915	0.1125	651983	keystroke_n	n	n/a
326.093	0.0895	652186	keystroke_a	a	n/a
326.2505	0.0895	652501	keystroke_l	l	n/a
326.3625	0.068	652725	keystroke_Key.space	Key.space	n/a
326.5095	0.157	653019	keystroke_p	p	n/a
326.6775	0.135	653355	keystroke_o	o	n/a
326.779	0.1235	653558	keystroke_i	i	n/a
326.8575	0.102	653715	keystroke_n	n	n/a
326.97	0.09	653940	keystroke_t	t	n/a
327.1385	0.1235	654277	keystroke_e	e	n/a
327.195	0.135	654390	keystroke_r	r	n/a
327.3075	0.0785	654615	keystroke_Key.space	Key.space	n/a
327.4315	0.079	654863	keystroke_a	a	n/a
327.566	0.0795	655132	keystroke_l	l	n/a
327.6905	0.0895	655381	keystroke_t	t	n/a
327.8595	0.089	655719	keystroke_e	e	n/a
327.9035	0.0905	655807	keystroke_r	r	n/a
328.0165	0.0895	656033	keystroke_n	n	n/a
328.1175	0.1015	656235	keystroke_a	a	n/a
328.174	0.1125	656348	keystroke_t	t	n/a
328.4885	0.0675	656977	keystroke_e	e	n/a
328.849	0.045	657698	keystroke_Key.space	Key.space	n/a
329.0625	0.0335	658125	keystroke_w	w	n/a
329.1075	0.069	658215	keystroke_i	i	n/a
329.5915	0.069	659183	keystroke_s	s	n/a
329.94	0.079	659880	keystroke_h	h	n/a
330.2885	0.0675	660577	keystroke_Key.enter	Key.enter	n/a
330.3605	7.152	660721	prompt	n/a	lithuania nevertheless mitchell incl\n
331.2455	0.079	662491	keystroke_l	l	n/a
331.425	0.0795	662850	keystroke_i	i	n/a
331.605	0.0565	663210	keystroke_t	t	n/a
331.7175	0.0785	663435	keystroke_h	h	n/a
331.9315	0.0785	663863	keystroke_u	u	n/a
332.055	0.068	664110	keystroke_a	a	n/a
332.2465	0.09	664493	keystroke_n	n	n/a
332.3935	0.0785	664787	keystroke_i	i	n/a
332.517	0.0895	665034	keystroke_a	a	n/a
332.6625	0.068	665325	keystroke_Key.space	Key.space	n/a
332.7975	0.0675	665595	keystroke_n	n	n/a
332.8875	0.079	665775	keystroke_e	e	n/a
333.0565	0.1015	666113	keystroke_v	v	n/a
333.2365	0.09	666473	keystroke_e	e	n/a
333.2815	0.0785	666563	keystroke_r	r	n/a
333.6525	0.0795	667305	keystroke_t	t	n/a
333.799	0.0795	667598	keystroke_h	h	n/a
333.878	0.0895	667756	keystroke_e	e	n/a
334.08	0.0675	668160	keystroke_l	l	n/a
334.2035	0.045	668407	keystroke_e	e	n/a
334.373	0.0555	668746	keystroke_s	s	n/a
334.53	0.0795	669060	keystroke_s	s	n/a
334.631	0.079	669262	keystroke_Key.space	Key.space	n/a
334.8225	0.135	669645	keystroke_m	m	n/a
334.935	0.09	669870	keystroke_i	i	n/a
335.0825	0.0665	670165	keystroke_t	t	n/a
335.273	0.0895	670546	keystroke_c	c	n/a
335.385	0.0785	670770	keystroke_h	h	n/a
335.4985	0.0445	670997	keystroke_e	e	n/a
335.6435	0.057	671287	keystroke_l	l	n/a
335.791	0.067	671582	keystroke_l	l	n/a
335.9135	0.068	671827	keystroke_Key.space	Key.space	n/a
336.0265	0.1235	672053	keystroke_i	i	n/a
336.1165	0.112	672233	keystroke_n	n	n/a
336.274	0.09	672548	keystroke_c	c	n/a
336.4095	0.1795	672819	keystroke_l	l	n/a
336.567	0.09	673134	keystroke_u	u	n/a
336.994	0.079	673988	keystroke_Key.backspace	Key.backspace	n/a
337.455	0.056	674910	keystroke_Key.enter	Key.enter	n/a
337.516	6.375	675032	prompt	n/a	produce committees flights integrity\n
338.243	0.0785	676486	keystroke_p	p	n/a
338.366	0.068	676732	keystroke_r	r	n/a
338.457	0.0785	676914	keystroke_o	o	n/a
338.5805	0.0795	677161	keystroke_d	d	n/a
338.693	0.0675	677386	keystroke_u	u	n/a
338.7935	0.079	677587	keystroke_c	c	n/a
338.974	0.09	677948	keystroke_e	e	n/a
339.0525	0.068	678105	keystroke_Key.space	Key.space	n/a
339.2325	0.0675	678465	keystroke_c	c	n/a
339.3225	0.09	678645	keystroke_o	o	n/a
339.3905	0.101	678781	keystroke_m	m	n/a
339.6605	0.101	679321	keystroke_m	m	n/a
339.896	0.057	679792	keystroke_i	i	n/a
340.0885	0.044	680177	keystroke_t	t	n/a
340.2235	0.078	680447	keystroke_t	t	n/a
340.436	0.057	680872	keystroke_e	e	n/a
340.695	0.079	681390	keystroke_e	e	n/a
340.9095	0.067	681819	keystroke_s	s	n/a
341.078	0.056	682156	keystroke_Key.space	Key.space	n/a
341.201	0.079	682402	keystroke_f	f	n/a
341.3025	0.124	682605	keystroke_l	l	n/a
341.404	0.1125	682808	keystroke_i	i	n/a
341.5055	0.0895	683011	keystroke_g	g	n/a
341.64	0.1125	683280	keystroke_h	h	n/a
341.7525	0.0675	683505	keystroke_t	t	n/a
341.921	0.09	683842	keystroke_s	s	n/a
342	0.068	684000	keystroke_Key.space	Key.space	n/a
342.1805	0.1125	684361	keystroke_i	i	n/a
342.3605	0.1005	684721	keystroke_n	n	n/a
342.495	0.135	684990	keystroke_t	t	n/a
342.6075	0.1025	685215	keystroke_e	e	n/a
342.7655	0.101	685531	keystroke_g	g	n/a
342.957	0.078	685914	keystroke_r	r	n/a
343.125	0.068	686250	keystroke_i	i	n/a
343.215	0.0565	686430	keystroke_t	t	n/a
343.384	0.0895	686768	keystroke_y	y	n/a
343.8	0.09	687600	keystroke_Key.enter	Key.enter	n/a
343.894	7.715	687788	prompt	n/a	attending ferrari punk forbidden\n
344.5315	0.067	689063	keystroke_a	a	n/a
344.723	0.056	689446	keystroke_t	t	n/a
344.892	0.089	689784	keystroke_t	t	n/a
345.0825	0.0795	690165	keystroke_e	e	n/a
345.2625	0.079	690525	keystroke_n	n	n/a
345.364	0.09	690728	keystroke_d	d	n/a
345.5105	0.1235	691021	keystroke_i	i	n/a
345.6005	0.0895	691201	keystroke_n	n	n/a
345.6675	0.09	691335	keystroke_g	g	n/a
345.7465	0.0785	691493	keystroke_Key.space	Key.space	n/a
345.9265	0.0905	691853	keystroke_f	f	n/a
346.118	0.0785	692236	keystroke_a	a	n/a
346.32	0.079	692640	keystroke_r	r	n/a
346.5455	0.0565	693091	keystroke_r	r	n/a
346.838	0.0675	693676	keystroke_Key.backspace	Key.backspace	n/a
346.995	0.045	693990	keystroke_Key.backspace	Key.backspace	n/a
347.119	0.068	694238	keystroke_Key.backspace	Key.backspace	n/a
347.31	0.0795	694620	keystroke_e	e	n/a
347.5465	0.056	695093	keystroke_r	r	n/a
347.7265	0.067	695453	keystroke_r	r	n/a
347.9065	0.0785	695813	keystroke_a	a	n/a
347.9965	0.1015	695993	keystroke_r	r	n/a
348.21	0.0675	696420	keystroke_i	i	n/a
348.424	0.056	696848	keystroke_Key.space	Key.space	n/a
348.593	0.1345	697186	keystroke_p	p	n/a
348.695	0.089	697390	keystroke_u	u	n/a
348.896	0.1135	697792	keystroke_n	n	n/a
349.0765	0.067	698153	keystroke_k	k	n/a
349.2005	0.0895	698401	keystroke_Key.space	Key.space	n/a
349.5485	0.101	699097	keystroke_f	f	n/a
349.74	0.09	699480	keystroke_o	o	n/a
349.8635	0.0795	699727	keystroke_r	r	n/a
350.1785	0.0675	700357	keystroke_b	b	n/a
350.2915	0.1015	700583	keystroke_i	i	n/a
350.5055	0.0445	701011	keystroke_d	d	n/a
350.6285	0.068	701257	keystroke_d	d	n/a
350.831	0.0675	701662	keystroke_e	e	n/a
350.966	0.1015	701932	keystroke_n	n	n/a
351.5175	0.0905	703035	keystroke_Key.enter	Key.enter	n/a
351.6115	4.677	703223	prompt	n/a	boring journey humor carlos\n
352.2485	0.057	704497	keystroke_b	b	n/a
352.339	0.0785	704678	keystroke_o	o	n/a
352.451	0.057	704902	keystroke_r	r	n/a
352.655	0.145	705310	keystroke_i	i	n/a
352.7885	0.1125	705577	keystroke_n	n	n/a
352.924	0.112	705848	keystroke_g	g	n/a
353.0135	0.1015	706027	keystroke_Key.space	Key.space	n/a
353.2275	0.1125	706455	keystroke_j	j	n/a
353.43	0.1465	706860	keystroke_o	o	n/a
353.5425	0.1235	707085	keystroke_u	u	n/a
353.7005	0.0675	707401	keystroke_r	r	n/a
353.8915	0.0895	707783	keystroke_n	n	n/a
354.0265	0.056	708053	keystroke_e	e	n/a
354.139	0.0895	708278	keystroke_y	y	n/a
354.2415	0.0885	708483	keystroke_Key.space	Key.space	n/a
354.4095	0.0785	708819	keystroke_h	h	n/a
354.6	0.0675	709200	keystroke_u	u	n/a
354.791	0.102	709582	keystroke_m	m	n/a
354.8935	0.0665	709787	keystroke_o	o	n/a
355.0275	0.101	710055	keystroke_r	r	n/a
355.14	0.0565	710280	keystroke_Key.space	Key.space	n/a
355.2635	0.0675	710527	keystroke_c	c	n/a
355.3875	0.1125	710775	keystroke_a	a	n/a
355.489	0.0785	710978	keystroke_r	r	n/a
355.669	0.056	711338	keystroke_l	l	n/a
355.8265	0.0785	711653	keystroke_o	o	n/a
355.95	0.0675	711900	keystroke_s	s	n/a
356.1865	0.101	712373	keystroke_Key.enter	Key.enter	n/a
356.291	6.005	712582	prompt	n/a	move honest developmental bare\n
356.8615	0.135	713723	keystroke_m	m	n/a
357.03	0.0795	714060	keystroke_o	o	n/a
357.154	0.1345	714308	keystroke_v	v	n/a
357.3	0.1015	714600	keystroke_e	e	n/a
357.4015	0.0675	714803	keystroke_Key.space	Key.space	n/a
357.728	0.112	715456	keystroke_h	h	n/a
357.9075	0.1125	715815	keystroke_o	o	n/a
357.975	0.1235	715950	keystroke_n	n	n/a
358.1325	0.146	716265	keystroke_e	e	n/a
358.234	0.146	716468	keystroke_s	s	n/a
358.3465	0.1345	716693	keystroke_t	t	n/a
358.4595	0.078	716919	keystroke_Key.space	Key.space	n/a
359.0435	0.0675	718087	keystroke_d	d	n/a
359.28	0.0115	718560	keystroke_e	e	n/a
359.37	0.1015	718740	keystroke_v	v	n/a
359.46	0.09	718920	keystroke_e	e	n/a
359.651	0.079	719302	keystroke_l	l	n/a
359.831	0.135	719662	keystroke_o	o	n/a
359.932	0.113	719864	keystroke_p	p	n/a
360.1915	0.1125	720383	keystroke_m	m	n/a
360.382	0.091	720764	keystroke_e	e	n/a
360.5175	0.1015	721035	keystroke_n	n	n/a
360.6635	0.1125	721327	keystroke_t	t	n/a
360.945	0.101	721890	keystroke_a	a	n/a
361.1025	0.09	722205	keystroke_l	l	n/a
361.294	0.056	722588	keystroke_Key.space	Key.space	n/a
361.4745	0.0895	722949	keystroke_b	b	n/a
361.6435	0.1	723287	keystroke_a	a	n/a
361.766	0.1355	723532	keystroke_r	r	n/a
361.901	0.1015	723802	keystroke_e	e	n/a
362.2165	0.0785	724433	keystroke_Key.enter	Key.enter	n/a
362.2985	4.475	724597	prompt	n/a	utility nepal image sympathy\n
362.9475	0.0785	725895	keystroke_u	u	n/a
363.071	0.068	726142	keystroke_t	t	n/a
363.184	0.124	726368	keystroke_i	i	n/a
363.285	0.18	726570	keystroke_l	l	n/a
363.409	0.1345	726818	keystroke_i	i	n/a
363.555	0.0675	727110	keystroke_t	t	n/a
363.6565	0.1125	727313	keystroke_y	y	n/a
363.7805	0.079	727561	keystroke_Key.space	Key.space	n/a
363.926	0.113	727852	keystroke_n	n	n/a
364.0505	0.0675	728101	keystroke_e	e	n/a
364.2185	0.1015	728437	keystroke_p	p	n/a
364.32	0.08	728640	keystroke_a	a	n/a
364.456	0.09	728912	keystroke_l	l	n/a
364.58	0.0785	729160	keystroke_Key.space	Key.space	n/a
364.7275	0.111	729455	keystroke_i	i	n/a
364.805	0.1005	729610	keystroke_m	m	n/a
364.94	0.123	729880	keystroke_a	a	n/a
365.0295	0.1355	730059	keystroke_g	g	n/a
365.1765	0.1115	730353	keystroke_e	e	n/a
365.299	0.0785	730598	keystroke_Key.space	Key.space	n/a
365.4225	0.09	730845	keystroke_s	s	n/a
365.558	0.067	731116	keystroke_y	y	n/a
365.7715	0.1235	731543	keystroke_m	m	n/a
365.8615	0.0895	731723	keystroke_p	p	n/a
365.9735	0.0795	731947	keystroke_a	a	n/a
366.1095	0.078	732219	keystroke_t	t	n/a
366.2435	0.0795	732487	keystroke_h	h	n/a
366.424	0.0895	732848	keystroke_y	y	n/a
366.694	0.0785	733388	keystroke_Key.enter	Key.enter	n/a
366.7765	5.3185	733553	prompt	n/a	remaining contributing cake ranges\n
367.436	0.079	734872	keystroke_r	r	n/a
367.628	0.067	735256	keystroke_e	e	n/a
367.74	0.1125	735480	keystroke_m	m	n/a
367.864	0.079	735728	keystroke_a	a	n/a
368.01	0.135	736020	keystroke_i	i	n/a
368.1785	0.135	736357	keystroke_n	n	n/a
368.325	0.1015	736650	keystroke_i	i	n/a
368.404	0.113	736808	keystroke_n	n	n/a
368.5165	0.101	737033	keystroke_g	g	n/a
368.595	0.0795	737190	keystroke_Key.space	Key.space	n/a
368.775	0.1015	737550	keystroke_c	c	n/a
368.865	0.158	737730	keystroke_o	o	n/a
369	0.1245	738000	keystroke_n	n	n/a
369.125	0.0665	738250	keystroke_t	t	n/a
369.281	0.0785	738562	keystroke_r	r	n/a
369.394	0.09	738788	keystroke_i	i	n/a
369.506	0.09	739012	keystroke_b	b	n/a
369.63	0.079	739260	keystroke_u	u	n/a
369.754	0.078	739508	keystroke_t	t	n/a
369.889	0.1235	739778	keystroke_i	i	n/a
369.9785	0.1245	739957	keystroke_n	n	n/a
370.091	0.1015	740182	keystroke_g	g	n/a
370.181	0.0795	740362	keystroke_Key.space	Key.space	n/a
370.3615	0.0895	740723	keystroke_c	c	n/a
370.496	0.068	740992	keystroke_a	a	n/a
370.665	0.09	741330	keystroke_k	k	n/a
370.778	0.0785	741556	keystroke_e	e	n/a
370.8905	0.0675	741781	keystroke_Key.space	Key.space	n/a
371.1265	0.09	742253	keystroke_r	r	n/a
371.25	0.101	742500	keystroke_a	a	n/a
371.3965	0.113	742793	keystroke_n	n	n/a
371.5205	0.146	743041	keystroke_g	g	n/a
371.655	0.1355	743310	keystroke_e	e	n/a
371.7455	0.1125	743491	keystroke_s	s	n/a
371.9925	0.1015	743985	keystroke_Key.enter	Key.enter	n/a
372.098	11.3925	744196	prompt	n/a	nicholas suggested inspector transportation\n
372.8025	0.1125	745605	keystroke_n	n	n/a
372.9265	0.079	745853	keystroke_i	i	n/a
373.039	0.0785	746078	keystroke_c	c	n/a
373.151	0.09	746302	keystroke_h	h	n/a
373.354	0.067	746708	keystroke_o	o	n/a
373.5905	0.0675	747181	keystroke_l	l	n/a
373.7815	0.0785	747563	keystroke_a	a	n/a
373.995	0.0675	747990	keystroke_s	s	n/a
374.2765	0.067	748553	keystroke_Key.space	Key.space	n/a
374.4565	0.09	748913	keystroke_s	s	n/a
374.614	0.079	749228	keystroke_u	u	n/a
374.738	0.0785	749476	keystroke_g	g	n/a
374.9175	0.0905	749835	keystroke_g	g	n/a
375.1095	0.0895	750219	keystroke_e	e	n/a
375.255	0.079	750510	keystroke_s	s	n/a
375.4015	0.1455	750803	keystroke_t	t	n/a
375.536	0.079	751072	keystroke_e	e	n/a
375.705	0.1125	751410	keystroke_d	d	n/a
375.806	0.0565	751612	keystroke_Key.space	Key.space	n/a
376.0095	0.123	752019	keystroke_i	i	n/a
376.1215	0.1125	752243	keystroke_n	n	n/a
376.2565	0.0565	752513	keystroke_s	s	n/a
376.3685	0.1015	752737	keystroke_p	p	n/a
376.481	0.068	752962	keystroke_e	e	n/a
376.673	0.068	753346	keystroke_c	c	n/a
376.864	0.0675	753728	keystroke_t	t	n/a
376.999	0.0785	753998	keystroke_o	o	n/a
377.1	0.09	754200	keystroke_r	r	n/a
377.2355	0.0905	754471	keystroke_Key.space	Key.space	n/a
377.494	0.0565	754988	keystroke_t	t	n/a
377.6515	0.101	755303	keystroke_r	r	n/a
377.7415	0.1015	755483	keystroke_a	a	n/a
377.888	0.09	755776	keystroke_n	n	n/a
377.9895	0.0785	755979	keystroke_s	s	n/a
378.147	0.146	756294	keystroke_p	p	n/a
378.2815	0.045	756563	keystroke_o	o	n/a
378.4275	0.09	756855	keystroke_r	r	n/a
378.6525	0.101	757305	keystroke_t	t	n/a
378.7985	0.135	757597	keystroke_a	a	n/a
378.9785	0.079	757957	keystroke_t	t	n/a
379.126	0.1565	758252	keystroke_i	i	n/a
379.2265	0.1805	758453	keystroke_o	o	n/a
379.3725	0.135	758745	keystroke_n	n	n/a
383.3325	0.1575	766665	keystroke_Key.enter	Key.enter	n/a
383.494	5.431	766988	prompt	n/a	derived suggests levels asked\n
384.2435	0.068	768487	keystroke_d	d	n/a
384.424	0.0685	768848	keystroke_e	e	n/a
384.5815	0.079	769163	keystroke_r	r	n/a
384.75	0.056	769500	keystroke_i	i	n/a
384.851	0.0675	769702	keystroke_v	v	n/a
384.9865	0.0795	769973	keystroke_e	e	n/a
385.166	0.0905	770332	keystroke_d	d	n/a
385.2455	0.067	770491	keystroke_Key.space	Key.space	n/a
385.38	0.0675	770760	keystroke_s	s	n/a
385.5155	0.067	771031	keystroke_u	u	n/a
385.6165	0.0675	771233	keystroke_g	g	n/a
385.785	0.0675	771570	keystroke_g	g	n/a
385.9315	0.1345	771863	keystroke_e	e	n/a
386.077	0.0905	772154	keystroke_s	s	n/a
386.2915	0.0675	772583	keystroke_t	t	n/a
386.4835	0.056	772967	keystroke_s	s	n/a
386.5615	0.0785	773123	keystroke_Key.space	Key.space	n/a
386.7975	0.101	773595	keystroke_l	l	n/a
387.034	0.0565	774068	keystroke_e	e	n/a
387.2135	0.079	774427	keystroke_v	v	n/a
387.3035	0.102	774607	keystroke_e	e	n/a
387.4615	0.067	774923	keystroke_l	l	n/a
387.5625	0.09	775125	keystroke_s	s	n/a
387.7205	0.078	775441	keystroke_Key.space	Key.space	n/a
387.8885	0.158	775777	keystroke_a	a	n/a
388.058	0.0895	776116	keystroke_s	s	n/a
388.238	0.101	776476	keystroke_k	k	n/a
388.3615	0.0895	776723	keystroke_e	e	n/a
388.6205	0.0105	777241	keystroke_d	d	n/a
388.823	0.101	777646	keystroke_Key.enter	Key.enter	n/a
388.9295	8.6475	777859	prompt	n/a	technical objective darwin plan\n
393.4355	0.112	786871	keystroke_t	t	n/a
393.5255	0.078	787051	keystroke_e	e	n/a
393.716	0.079	787432	keystroke_c	c	n/a
393.84	0.079	787680	keystroke_h	h	n/a
394.0315	0.146	788063	keystroke_n	n	n/a
394.166	0.057	788332	keystroke_i	i	n/a
394.234	0.1235	788468	keystroke_c	c	n/a
394.346	0.09	788692	keystroke_a	a	n/a
394.4595	0.0895	788919	keystroke_l	l	n/a
394.594	0.0565	789188	keystroke_Key.space	Key.space	n/a
394.706	0.0795	789412	keystroke_o	o	n/a
394.8305	0.0675	789661	keystroke_b	b	n/a
394.9425	0.101	789885	keystroke_j	j	n/a
395.0885	0.068	790177	keystroke_e	e	n/a
395.2925	0.0665	790585	keystroke_c	c	n/a
395.4605	0.067	790921	keystroke_t	t	n/a
395.595	0.0565	791190	keystroke_i	i	n/a
395.6735	0.1025	791347	keystroke_v	v	n/a
395.7525	0.1125	791505	keystroke_e	e	n/a
395.899	0.067	791798	keystroke_Key.space	Key.space	n/a
396.0115	0.079	792023	keystroke_d	d	n/a
396.1805	0.0895	792361	keystroke_a	a	n/a
396.2475	0.101	792495	keystroke_r	r	n/a
396.4165	0.101	792833	keystroke_w	w	n/a
396.5855	0.146	793171	keystroke_i	i	n/a
396.698	0.123	793396	keystroke_n	n	n/a
396.7985	0.0675	793597	keystroke_Key.space	Key.space	n/a
396.945	0.113	793890	keystroke_p	p	n/a
397.0125	0.135	794025	keystroke_l	l	n/a
397.126	0.078	794252	keystroke_a	a	n/a
397.2605	0.101	794521	keystroke_n	n	n/a
397.508	0.068	795016	keystroke_Key.enter	Key.enter	n/a
397.5795	7.05	795159	prompt	n/a	identifying service changelog demonstrated\n
398.194	0.0565	796388	keystroke_i	i	n/a
398.3175	0.068	796635	keystroke_d	d	n/a
398.4865	0.0565	796973	keystroke_e	e	n/a
398.5985	0.0905	797197	keystroke_n	n	n/a
398.745	0.0565	797490	keystroke_t	t	n/a
398.858	0.078	797716	keystroke_i	i	n/a
398.97	0.0565	797940	keystroke_f	f	n/a
399.1165	0.0785	798233	keystroke_y	y	n/a
399.3425	0.1225	798685	keystroke_i	i	n/a
399.4315	0.1235	798863	keystroke_n	n	n/a
399.555	0.1015	799110	keystroke_g	g	n/a
399.645	0.0905	799290	keystroke_Key.space	Key.space	n/a
399.791	0.102	799582	keystroke_s	s	n/a
399.9155	0.1345	799831	keystroke_e	e	n/a
400.1285	0.091	800257	keystroke_r	r	n/a
400.3425	0.09	800685	keystroke_v	v	n/a
400.4775	0.079	800955	keystroke_i	i	n/a
400.5905	0.0675	801181	keystroke_c	c	n/a
400.781	0.0905	801562	keystroke_e	e	n/a
400.86	0.079	801720	keystroke_Key.space	Key.space	n/a
401.0285	0.0675	802057	keystroke_c	c	n/a
401.143	0.0775	802286	keystroke_h	h	n/a
401.243	0.0785	802486	keystroke_a	a	n/a
401.366	0.1125	802732	keystroke_n	n	n/a
401.49	0.1015	802980	keystroke_g	g	n/a
401.6135	0.09	803227	keystroke_e	e	n/a
401.8165	0.0565	803633	keystroke_l	l	n/a
401.9735	0.0565	803947	keystroke_o	o	n/a
402.12	0.068	804240	keystroke_g	g	n/a
402.3005	0.0675	804601	keystroke_Key.space	Key.space	n/a
402.4465	0.0675	804893	keystroke_d	d	n/a
402.615	0.0675	805230	keystroke_e	e	n/a
402.7165	0.1345	805433	keystroke_m	m	n/a
402.8855	0.135	805771	keystroke_o	o	n/a
403.0205	0.0895	806041	keystroke_n	n	n/a
403.1435	0.1125	806287	keystroke_s	s	n/a
403.346	0.09	806692	keystroke_t	t	n/a
403.5605	0.045	807121	keystroke_r	r	n/a
403.6165	0.101	807233	keystroke_a	a	n/a
403.7625	0.1575	807525	keystroke_t	t	n/a
403.875	0.1125	807750	keystroke_e	e	n/a
404.0885	0.09	808177	keystroke_d	d	n/a
404.494	0.1345	808988	keystroke_Key.enter	Key.enter	n/a
404.634	6.8925	809268	prompt	n/a	exempt cognitive network manage\n
405.281	0.0565	810562	keystroke_e	e	n/a
405.45	0.0785	810900	keystroke_x	x	n/a
405.665	0.0555	811330	keystroke_e	e	n/a
405.821	0.1015	811642	keystroke_m	m	n/a
405.956	0.1135	811912	keystroke_p	p	n/a
406.238	0.0115	812476	keystroke_t	t	n/a
406.306	0.067	812612	keystroke_Key.space	Key.space	n/a
406.5075	0.09	813015	keystroke_c	c	n/a
406.6315	0.09	813263	keystroke_o	o	n/a
406.7665	0.079	813533	keystroke_f	f	n/a
407.2845	0.078	814569	keystroke_Key.backspace	Key.backspace	n/a
407.5655	0.067	815131	keystroke_g	g	n/a
408.308	0.101	816616	keystroke_n	n	n/a
408.6335	0.0795	817267	keystroke_i	i	n/a
408.793	0.066	817586	keystroke_t	t	n/a
408.9265	0.0675	817853	keystroke_i	i	n/a
409.039	0.101	818078	keystroke_v	v	n/a
409.174	0.135	818348	keystroke_e	e	n/a
409.3655	0.067	818731	keystroke_Key.space	Key.space	n/a
409.5005	0.1015	819001	keystroke_n	n	n/a
409.613	0.1005	819226	keystroke_e	e	n/a
409.68	0.09	819360	keystroke_t	t	n/a
409.826	0.09	819652	keystroke_w	w	n/a
409.995	0.09	819990	keystroke_o	o	n/a
410.13	0.057	820260	keystroke_r	r	n/a
410.2225	0.1	820445	keystroke_k	k	n/a
410.345	0.0675	820690	keystroke_Key.space	Key.space	n/a
410.4685	0.0925	820937	keystroke_m	m	n/a
410.581	0.101	821162	keystroke_a	a	n/a
410.75	0.079	821500	keystroke_n	n	n/a
410.8625	0.111	821725	keystroke_a	a	n/a
410.996	0.113	821992	keystroke_g	g	n/a
411.143	0.1005	822286	keystroke_e	e	n/a
411.4355	0.09	822871	keystroke_Key.enter	Key.enter	n/a
411.5295	7.5795	823059	prompt	n/a	focusing liverpool genealogy places\n
412.301	0.068	824602	keystroke_f	f	n/a
412.3925	0.0775	824785	keystroke_o	o	n/a
412.5265	0.0675	825053	keystroke_c	c	n/a
412.639	0.0785	825278	keystroke_u	u	n/a
412.751	0.1015	825502	keystroke_s	s	n/a
412.92	0.169	825840	keystroke_i	i	n/a
413.0775	0.113	826155	keystroke_n	n	n/a
413.1675	0.113	826335	keystroke_g	g	n/a
413.3025	0.079	826605	keystroke_Key.space	Key.space	n/a
413.415	0.1235	826830	keystroke_l	l	n/a
413.516	0.09	827032	keystroke_i	i	n/a
413.6625	0.113	827325	keystroke_v	v	n/a
413.843	0.1795	827686	keystroke_e	e	n/a
413.9775	0.124	827955	keystroke_r	r	n/a
414.09	0.09	828180	keystroke_Key.space	Key.space	n/a
414.2475	0.1805	828495	keystroke_p	p	n/a
414.653	0.056	829306	keystroke_Key.backspace	Key.backspace	n/a
414.81	0.056	829620	keystroke_Key.backspace	Key.backspace	n/a
415.058	0.112	830116	keystroke_p	p	n/a
415.1475	0.1015	830295	keystroke_o	o	n/a
415.395	0.0785	830790	keystroke_o	o	n/a
415.688	0.067	831376	keystroke_l	l	n/a
415.9125	0.068	831825	keystroke_Key.space	Key.space	n/a
416.0595	0.078	832119	keystroke_g	g	n/a
416.273	0.067	832546	keystroke_e	e	n/a
416.408	0.0895	832816	keystroke_n	n	n/a
416.588	0.0895	833176	keystroke_e	e	n/a
416.7225	0.1015	833445	keystroke_a	a	n/a
417.4425	0.056	834885	keystroke_l	l	n/a
417.6005	0.0785	835201	keystroke_o	o	n/a
417.7355	0.0665	835471	keystroke_g	g	n/a
417.847	0.0675	835694	keystroke_y	y	n/a
417.9595	0.079	835919	keystroke_Key.space	Key.space	n/a
418.118	0.1345	836236	keystroke_p	p	n/a
418.264	0.0785	836528	keystroke_l	l	n/a
418.421	0.102	836842	keystroke_a	a	n/a
418.5565	0.0895	837113	keystroke_c	c	n/a
418.7695	0.113	837539	keystroke_e	e	n/a
418.849	0.0785	837698	keystroke_s	s	n/a
419.0395	0.068	838079	keystroke_Key.enter	Key.enter	n/a
419.112	5.9145	838224	prompt	n/a	clocks consortium savage suffered\n
419.906	0.0675	839812	keystroke_c	c	n/a
420.007	0.057	840014	keystroke_l	l	n/a
420.165	0.067	840330	keystroke_o	o	n/a
420.2775	0.0675	840555	keystroke_c	c	n/a
420.379	0.09	840758	keystroke_k	k	n/a
420.4925	0.0885	840985	keystroke_s	s	n/a
420.5695	0.091	841139	keystroke_Key.space	Key.space	n/a
420.7615	0.0895	841523	keystroke_c	c	n/a
420.874	0.157	841748	keystroke_o	o	n/a
420.9865	0.1345	841973	keystroke_n	n	n/a
421.1105	0.078	842221	keystroke_s	s	n/a
421.245	0.1015	842490	keystroke_o	o	n/a
421.4025	0.079	842805	keystroke_r	r	n/a
421.605	0.045	843210	keystroke_t	t	n/a
421.695	0.1345	843390	keystroke_i	i	n/a
421.852	0.0905	843704	keystroke_u	u	n/a
422.0665	0.101	844133	keystroke_m	m	n/a
422.2015	0.0785	844403	keystroke_Key.space	Key.space	n/a
422.347	0.1015	844694	keystroke_s	s	n/a
422.482	0.113	844964	keystroke_a	a	n/a
422.572	0.1245	845144	keystroke_v	v	n/a
422.73	0.135	845460	keystroke_a	a	n/a
422.877	0.1345	845754	keystroke_g	g	n/a
423.0225	0.112	846045	keystroke_e	e	n/a
423.1235	0.0785	846247	keystroke_Key.space	Key.space	n/a
423.551	0.068	847102	keystroke_s	s	n/a
423.7425	0.067	847485	keystroke_u	u	n/a
423.866	0.0565	847732	keystroke_f	f	n/a
424.0015	0.091	848003	keystroke_f	f	n/a
424.1595	0.123	848319	keystroke_e	e	n/a
424.249	0.157	848498	keystroke_r	r	n/a
424.3725	0.0895	848745	keystroke_e	e	n/a
424.5745	0.057	849149	keystroke_d	d	n/a
424.9465	0.079	849893	keystroke_Key.enter	Key.enter	n/a
425.0295	5.385	850059	prompt	n/a	manga interesting bidding last\n
425.6325	0.101	851265	keystroke_m	m	n/a
425.756	0.068	851512	keystroke_a	a	n/a
425.936	0.0795	851872	keystroke_n	n	n/a
426.117	0.134	852234	keystroke_g	g	n/a
426.42	0.011	852840	keystroke_a	a	n/a
426.5775	0.0675	853155	keystroke_Key.space	Key.space	n/a
426.836	0.079	853672	keystroke_i	i	n/a
427.005	0.079	854010	keystroke_n	n	n/a
427.14	0.09	854280	keystroke_t	t	n/a
427.3095	0.123	854619	keystroke_e	e	n/a
427.421	0.1575	854842	keystroke_r	r	n/a
427.5455	0.1805	855091	keystroke_e	e	n/a
427.658	0.1455	855316	keystroke_s	s	n/a
427.7815	0.1125	855563	keystroke_t	t	n/a
428.006	0.1245	856012	keystroke_i	i	n/a
428.0965	0.1235	856193	keystroke_n	n	n/a
428.2535	0.1015	856507	keystroke_g	g	n/a
428.4	0.068	856800	keystroke_Key.space	Key.space	n/a
428.603	0.0785	857206	keystroke_b	b	n/a
428.749	0.0675	857498	keystroke_i	i	n/a
428.861	0.0565	857722	keystroke_d	d	n/a
429.0075	0.079	858015	keystroke_d	d	n/a
429.154	0.1465	858308	keystroke_i	i	n/a
429.266	0.124	858532	keystroke_n	n	n/a
429.379	0.09	858758	keystroke_g	g	n/a
429.4695	0.0895	858939	keystroke_Key.space	Key.space	n/a
429.615	0.09	859230	keystroke_l	l	n/a
429.716	0.135	859432	keystroke_a	a	n/a
429.8965	0.1685	859793	keystroke_s	s	n/a
430.0315	0.0895	860063	keystroke_t	t	n/a
430.3465	0.067	860693	keystroke_Key.enter	Key.enter	n/a
430.4175	5.229	860835	prompt	n/a	automatic interested ribbon lewis\n
430.988	0.078	861976	keystroke_a	a	n/a
431.134	0.079	862268	keystroke_u	u	n/a
431.2465	0.0895	862493	keystroke_t	t	n/a
431.359	0.1345	862718	keystroke_o	o	n/a
431.471	0.1015	862942	keystroke_m	m	n/a
431.606	0.113	863212	keystroke_a	a	n/a
431.696	0.0795	863392	keystroke_t	t	n/a
431.854	0.0785	863708	keystroke_i	i	n/a
431.955	0.101	863910	keystroke_c	c	n/a
432.101	0.0675	864202	keystroke_Key.space	Key.space	n/a
432.2255	0.123	864451	keystroke_i	i	n/a
432.3375	0.112	864675	keystroke_n	n	n/a
432.4835	0.1015	864967	keystroke_t	t	n/a
432.6425	0.1225	865285	keystroke_e	e	n/a
432.7535	0.169	865507	keystroke_r	r	n/a
432.8775	0.158	865755	keystroke_e	e	n/a
432.9905	0.135	865981	keystroke_s	s	n/a
433.0925	0.179	866185	keystroke_t	t	n/a
433.2605	0.1005	866521	keystroke_e	e	n/a
433.451	0.079	866902	keystroke_d	d	n/a
433.5525	0.079	867105	keystroke_Key.space	Key.space	n/a
433.823	0.067	867646	keystroke_r	r	n/a
433.969	0.0445	867938	keystroke_i	i	n/a
434.07	0.056	868140	keystroke_b	b	n/a
434.2055	0.0675	868411	keystroke_b	b	n/a
434.34	0.1465	868680	keystroke_o	o	n/a
434.498	0.112	868996	keystroke_n	n	n/a
434.621	0.0565	869242	keystroke_Key.space	Key.space	n/a
434.7225	0.0785	869445	keystroke_l	l	n/a
434.8805	0.0895	869761	keystroke_e	e	n/a
435.038	0.101	870076	keystroke_w	w	n/a
435.206	0.0675	870412	keystroke_i	i	n/a
435.341	0.0675	870682	keystroke_s	s	n/a
435.555	0.09	871110	keystroke_Key.enter	Key.enter	n/a
435.65	5.868	871300	prompt	n/a	danny essentials suggests washington\n
436.2645	0.067	872529	keystroke_d	d	n/a
436.354	0.0785	872708	keystroke_a	a	n/a
436.5225	0.0675	873045	keystroke_n	n	n/a
436.669	0.09	873338	keystroke_n	n	n/a
436.8495	0.0905	873699	keystroke_y	y	n/a
436.973	0.0895	873946	keystroke_Key.space	Key.space	n/a
437.0515	0.091	874103	keystroke_e	e	n/a
437.2425	0.0565	874485	keystroke_s	s	n/a
437.401	0.078	874802	keystroke_s	s	n/a
437.6025	0.0795	875205	keystroke_e	e	n/a
437.7265	0.09	875453	keystroke_n	n	n/a
437.861	0.0675	875722	keystroke_t	t	n/a
437.9745	0.068	875949	keystroke_i	i	n/a
438.053	0.09	876106	keystroke_a	a	n/a
438.188	0.09	876376	keystroke_l	l	n/a
438.2895	0.0785	876579	keystroke_s	s	n/a
438.402	0.078	876804	keystroke_Key.space	Key.space	n/a
438.526	0.089	877052	keystroke_s	s	n/a
438.66	0.0785	877320	keystroke_u	u	n/a
438.773	0.0895	877546	keystroke_g	g	n/a
438.953	0.101	877906	keystroke_g	g	n/a
439.0315	0.213	878063	keystroke_e	e	n/a
439.211	0.1355	878422	keystroke_s	s	n/a
439.313	0.123	878626	keystroke_t	t	n/a
439.459	0.101	878918	keystroke_s	s	n/a
439.605	0.079	879210	keystroke_Key.space	Key.space	n/a
439.796	0.0905	879592	keystroke_w	w	n/a
439.9315	0.0895	879863	keystroke_a	a	n/a
439.9985	0.1015	879997	keystroke_s	s	n/a
440.2125	0.113	880425	keystroke_h	h	n/a
440.37	0.146	880740	keystroke_i	i	n/a
440.505	0.1125	881010	keystroke_n	n	n/a
440.64	0.079	881280	keystroke_g	g	n/a
440.809	0.0675	881618	keystroke_t	t	n/a
440.921	0.1465	881842	keystroke_o	o	n/a
441.056	0.1125	882112	keystroke_n	n	n/a
441.439	0.0785	882878	keystroke_Key.enter	Key.enter	n/a
441.521	4.0585	883042	prompt	n/a	outlook john aside modular\n
442.159	0.079	884318	keystroke_o	o	n/a
442.316	0.09	884632	keystroke_u	u	n/a
442.451	0.0565	884902	keystroke_t	t	n/a
442.553	0.057	885106	keystroke_l	l	n/a
442.7215	0.0445	885443	keystroke_o	o	n/a
442.868	0.0895	885736	keystroke_o	o	n/a
442.9235	0.124	885847	keystroke_k	k	n/a
443.0365	0.09	886073	keystroke_Key.space	Key.space	n/a
443.1605	0.112	886321	keystroke_j	j	n/a
443.3175	0.1125	886635	keystroke_o	o	n/a
443.4185	0.0905	886837	keystroke_h	h	n/a
443.6215	0.0785	887243	keystroke_n	n	n/a
443.745	0.079	887490	keystroke_Key.space	Key.space	n/a
443.8465	0.079	887693	keystroke_a	a	n/a
443.959	0.0785	887918	keystroke_s	s	n/a
444.0825	0.068	888165	keystroke_i	i	n/a
444.184	0.067	888368	keystroke_d	d	n/a
444.33	0.079	888660	keystroke_e	e	n/a
444.42	0.068	888840	keystroke_Key.space	Key.space	n/a
444.521	0.113	889042	keystroke_m	m	n/a
444.668	0.1125	889336	keystroke_o	o	n/a
444.8255	0.067	889651	keystroke_d	d	n/a
444.915	0.1015	889830	keystroke_u	u	n/a
445.073	0.078	890146	keystroke_l	l	n/a
445.1855	0.112	890371	keystroke_a	a	n/a
445.2645	0.0785	890529	keystroke_r	r	n/a
445.5	0.0785	891000	keystroke_Key.enter	Key.enter	n/a
445.5825	5.8695	891165	prompt	n/a	receive humans upcoming surfing\n
446.186	0.1125	892372	keystroke_r	r	n/a
446.2765	0.09	892553	keystroke_e	e	n/a
446.4905	0.056	892981	keystroke_c	c	n/a
446.6475	0.068	893295	keystroke_e	e	n/a
446.839	0.056	893678	keystroke_i	i	n/a
446.9285	0.081	893857	keystroke_v	v	n/a
447.1105	0.1005	894221	keystroke_e	e	n/a
447.2325	0.068	894465	keystroke_Key.space	Key.space	n/a
447.424	0.0785	894848	keystroke_h	h	n/a
447.604	0.0565	895208	keystroke_u	u	n/a
447.7615	0.0895	895523	keystroke_m	m	n/a
447.8625	0.0905	895725	keystroke_a	a	n/a
447.9755	0.078	895951	keystroke_n	n	n/a
448.065	0.1125	896130	keystroke_s	s	n/a
448.155	0.0785	896310	keystroke_Key.space	Key.space	n/a
448.2785	0.068	896557	keystroke_h	h	n/a
448.549	0.0565	897098	keystroke_Key.backspace	Key.backspace	n/a
448.7625	0.09	897525	keystroke_u	u	n/a
448.8755	0.1125	897751	keystroke_p	p	n/a
449.0435	0.0905	898087	keystroke_c	c	n/a
449.168	0.1125	898336	keystroke_o	o	n/a
449.269	0.1235	898538	keystroke_m	m	n/a
449.4485	0.113	898897	keystroke_i	i	n/a
449.528	0.1005	899056	keystroke_n	n	n/a
449.652	0.078	899304	keystroke_g	g	n/a
449.708	0.0785	899416	keystroke_Key.space	Key.space	n/a
449.8425	0.0785	899685	keystroke_s	s	n/a
449.955	0.09	899910	keystroke_u	u	n/a
450.0675	0.0565	900135	keystroke_r	r	n/a
450.2255	0.0895	900451	keystroke_f	f	n/a
450.3265	0.0675	900653	keystroke_a	a	n/a
450.5625	0.0675	901125	keystroke_Key.backspace	Key.backspace	n/a
450.822	0.101	901644	keystroke_i	i	n/a
450.9	0.1125	901800	keystroke_n	n	n/a
451.0465	0.067	902093	keystroke_g	g	n/a
451.3725	0.0785	902745	keystroke_Key.enter	Key.enter	n/a
451.455	5.836	902910	prompt	n/a	radical bulgaria owned graduated\n
452.0255	0.0895	904051	keystroke_r	r	n/a
452.1605	0.079	904321	keystroke_a	a	n/a
452.3175	0.0905	904635	keystroke_d	d	n/a
452.453	0.0895	904906	keystroke_i	i	n/a
452.61	0.09	905220	keystroke_c	c	n/a
452.8245	0.0555	905649	keystroke_a	a	n/a
452.9475	0.1015	905895	keystroke_l	l	n/a
453.0945	0.0675	906189	keystroke_Key.space	Key.space	n/a
453.2625	0.0785	906525	keystroke_b	b	n/a
453.353	0.078	906706	keystroke_u	u	n/a
453.5325	0.09	907065	keystroke_l	l	n/a
453.6565	0.079	907313	keystroke_g	g	n/a
453.7805	0.1345	907561	keystroke_a	a	n/a
453.915	0.0675	907830	keystroke_r	r	n/a
454.05	0.09	908100	keystroke_i	i	n/a
454.1735	0.0905	908347	keystroke_a	a	n/a
454.309	0.068	908618	keystroke_Key.space	Key.space	n/a
454.4885	0.079	908977	keystroke_o	o	n/a
454.6245	0.078	909249	keystroke_w	w	n/a
454.7475	0.0905	909495	keystroke_n	n	n/a
454.86	0.0905	909720	keystroke_e	e	n/a
455.04	0.09	910080	keystroke_d	d	n/a
455.152	0.0685	910304	keystroke_Key.space	Key.space	n/a
455.4905	0.056	910981	keystroke_g	g	n/a
455.6595	0.078	911319	keystroke_r	r	n/a
455.9855	0.09	911971	keystroke_a	a	n/a
456.2435	0.0455	912487	keystroke_d	d	n/a
456.356	0.079	912712	keystroke_u	u	n/a
456.5025	0.101	913005	keystroke_a	a	n/a
456.6715	0.1235	913343	keystroke_t	t	n/a
456.784	0.09	913568	keystroke_e	e	n/a
456.953	0.0895	913906	keystroke_d	d	n/a
457.2	0.09	914400	keystroke_Key.enter	Key.enter	n/a
457.294	4.193	914588	prompt	n/a	bright alert actions ultra\n
457.9315	0.0565	915863	keystroke_b	b	n/a
458.1115	0.0675	916223	keystroke_r	r	n/a
458.213	0.0895	916426	keystroke_i	i	n/a
458.3255	0.078	916651	keystroke_g	g	n/a
458.426	0.113	916852	keystroke_h	h	n/a
458.5505	0.0675	917101	keystroke_t	t	n/a
458.595	0.068	917190	keystroke_Key.space	Key.space	n/a
458.7195	0.1005	917439	keystroke_a	a	n/a
458.888	0.0895	917776	keystroke_l	l	n/a
459.0675	0.146	918135	keystroke_e	e	n/a
459.1685	0.0905	918337	keystroke_r	r	n/a
459.36	0.079	918720	keystroke_t	t	n/a
459.473	0.0895	918946	keystroke_Key.space	Key.space	n/a
459.6305	0.1005	919261	keystroke_a	a	n/a
459.855	0.0565	919710	keystroke_c	c	n/a
460.024	0.0565	920048	keystroke_t	t	n/a
460.093	0.1555	920186	keystroke_i	i	n/a
460.2035	0.1355	920407	keystroke_o	o	n/a
460.3165	0.101	920633	keystroke_n	n	n/a
460.395	0.0905	920790	keystroke_s	s	n/a
460.486	0.078	920972	keystroke_Key.space	Key.space	n/a
460.6205	0.0895	921241	keystroke_u	u	n/a
460.823	0.067	921646	keystroke_l	l	n/a
460.935	0.0675	921870	keystroke_t	t	n/a
461.093	0.1005	922186	keystroke_r	r	n/a
461.1605	0.101	922321	keystroke_a	a	n/a
461.408	0.078	922816	keystroke_Key.enter	Key.enter	n/a
461.49	5.195	922980	prompt	n/a	edition warcraft inspection forums\n
462.083	0.079	924166	keystroke_e	e	n/a
462.251	0.091	924502	keystroke_d	d	n/a
462.377	0.0775	924754	keystroke_i	i	n/a
462.4985	0.068	924997	keystroke_t	t	n/a
462.6	0.1465	925200	keystroke_i	i	n/a
462.668	0.168	925336	keystroke_o	o	n/a
462.8255	0.1005	925651	keystroke_n	n	n/a
462.9265	0.101	925853	keystroke_Key.space	Key.space	n/a
463.05	0.1125	926100	keystroke_w	w	n/a
463.1965	0.135	926393	keystroke_a	a	n/a
463.3655	0.078	926731	keystroke_r	r	n/a
463.5675	0.0675	927135	keystroke_c	c	n/a
463.77	0.1125	927540	keystroke_r	r	n/a
463.9165	0.101	927833	keystroke_a	a	n/a
464.063	0.0895	928126	keystroke_f	f	n/a
464.2535	0.1015	928507	keystroke_t	t	n/a
464.366	0.0905	928732	keystroke_Key.space	Key.space	n/a
464.5015	0.124	929003	keystroke_i	i	n/a
464.6025	0.135	929205	keystroke_n	n	n/a
464.6925	0.056	929385	keystroke_s	s	n/a
464.828	0.112	929656	keystroke_p	p	n/a
