onset	duration	sample	value	key	prompt_text
1.165	31.2595	2330	prompt	n/a	the quick brown fox jumps over a lazy dog\n
21.616	0.058	43232	keystroke_t	t	n/a
21.658	0.166	43316	keystroke_h	h	n/a
21.779	0.135	43558	keystroke_e	e	n/a
22.5435	0.105	45087	keystroke_Key.space	Key.space	n/a
22.6185	0.15	45237	keystroke_q	q	n/a
22.8735	0.18	45747	keystroke_u	u	n/a
23.1135	0.15	46227	keystroke_i	i	n/a
23.3235	0.135	46647	keystroke_c	c	n/a
23.4885	0.1645	46977	keystroke_k	k	n/a
23.728	0.105	47456	keystroke_Key.space	Key.space	n/a
23.969	0.105	47938	keystroke_b	b	n/a
24.2235	0.135	48447	keystroke_r	r	n/a
24.3285	0.2095	48657	keystroke_o	o	n/a
24.673	0.18	49346	keystroke_w	w	n/a
24.883	0.12	49766	keystroke_n	n	n/a
25.123	0.135	50246	keystroke_Key.space	Key.space	n/a
25.363	0.12	50726	keystroke_f	f	n/a
25.498	0.12	50996	keystroke_o	o	n/a
25.768	0.12	51536	keystroke_x	x	n/a
25.933	0.105	51866	keystroke_Key.space	Key.space	n/a
26.143	0.12	52286	keystroke_j	j	n/a
26.383	0.135	52766	keystroke_u	u	n/a
26.713	0.12	53426	keystroke_m	m	n/a
27.313	0.165	54626	keystroke_p	p	n/a
27.463	0.15	54926	keystroke_s	s	n/a
27.598	0.12	55196	keystroke_Key.space	Key.space	n/a
27.793	0.15	55586	keystroke_o	o	n/a
27.883	0.135	55766	keystroke_v	v	n/a
28.153	0.1505	56306	keystroke_e	e	n/a
28.3185	0.135	56637	keystroke_r	r	n/a
28.4685	0.12	56937	keystroke_Key.space	Key.space	n/a
28.9185	0.1645	57837	keystroke_a	a	n/a
29.113	0.105	58226	keystroke_Key.space	Key.space	n/a
29.398	0.15	58796	keystroke_l	l	n/a
29.563	0.09	59126	keystroke_a	a	n/a
29.938	0.18	59876	keystroke_z	z	n/a
30.133	0.1505	60266	keystroke_y	y	n/a
31.093	0.105	62186	keystroke_Key.space	Key.space	n/a
31.288	0.135	62576	keystroke_d	d	n/a
31.393	0.135	62786	keystroke_o	o	n/a
31.573	0.105	63146	keystroke_g	g	n/a
32.278	0.135	64556	keystroke_Key.enter	Key.enter	n/a
32.432	19.183	64864	prompt	n/a	rocky cannon applications paxil\n
42.4355	0.058	84871	keystroke_r	r	n/a
42.5385	0.135	85077	keystroke_o	o	n/a
42.8235	0.18	85647	keystroke_k	k	n/a
43.468	0.121	86936	keystroke_Key.backspace	Key.backspace	n/a
43.693	0.0605	87386	keystroke_c	c	n/a
44.488	0.15	88976	keystroke_k	k	n/a
44.788	0.121	89576	keystroke_y	y	n/a
44.938	0.15	89876	keystroke_Key.space	Key.space	n/a
45.3585	0.135	90717	keystroke_c	c	n/a
45.5535	0.09	91107	keystroke_a	a	n/a
45.6585	0.12	91317	keystroke_n	n	n/a
45.8385	0.1195	91677	keystroke_n	n	n/a
46.1235	0.1345	92247	keystroke_o	o	n/a
46.2435	0.165	92487	keystroke_n	n	n/a
46.4535	0.135	92907	keystroke_Key.space	Key.space	n/a
46.708	0.105	93416	keystroke_a	a	n/a
46.903	0.165	93806	keystroke_p	p	n/a
47.383	0.135	94766	keystroke_p	p	n/a
47.788	0.165	95576	keystroke_l	l	n/a
48.388	0.135	96776	keystroke_i	i	n/a
48.538	0.15	97076	keystroke_c	c	n/a
48.749	0.119	97498	keystroke_a	a	n/a
49.003	0.1505	98006	keystroke_t	t	n/a
49.1085	0.1195	98217	keystroke_i	i	n/a
49.198	0.225	98396	keystroke_o	o	n/a
49.378	0.15	98756	keystroke_n	n	n/a
49.513	0.165	99026	keystroke_s	s	n/a
49.663	0.105	99326	keystroke_Key.space	Key.space	n/a
49.933	0.165	99866	keystroke_p	p	n/a
50.023	0.135	100046	keystroke_a	a	n/a
50.4885	0.195	100977	keystroke_x	x	n/a
50.9085	0.105	101817	keystroke_i	i	n/a
51.1485	0.135	102297	keystroke_l	l	n/a
51.4785	0.135	102957	keystroke_Key.enter	Key.enter	n/a
51.619	10.6615	103238	prompt	n/a	telephone equation marion prove\n
52.3035	0.12	104607	keystroke_t	t	n/a
52.4535	0.1495	104907	keystroke_e	e	n/a
52.9935	0.194	105987	keystroke_l	l	n/a
53.2025	0.181	106405	keystroke_e	e	n/a
53.3985	0.2405	106797	keystroke_p	p	n/a
53.653	0.18	107306	keystroke_h	h	n/a
53.863	0.2105	107726	keystroke_o	o	n/a
54.014	0.18	108028	keystroke_n	n	n/a
54.1775	0.1665	108355	keystroke_e	e	n/a
54.433	0.15	108866	keystroke_Key.space	Key.space	n/a
55.153	0.136	110306	keystroke_e	e	n/a
55.394	0.209	110788	keystroke_p	p	n/a
56.203	0.1205	112406	keystroke_Key.backspace	Key.backspace	n/a
57.058	0.165	114116	keystroke_q	q	n/a
57.283	0.09	114566	keystroke_u	u	n/a
57.388	0.1355	114776	keystroke_a	a	n/a
57.7035	0.12	115407	keystroke_t	t	n/a
57.8235	0.135	115647	keystroke_i	i	n/a
57.9135	0.24	115827	keystroke_o	o	n/a
58.1085	0.18	116217	keystroke_n	n	n/a
58.3185	0.165	116637	keystroke_Key.space	Key.space	n/a
58.7835	0.1345	117567	keystroke_m	m	n/a
58.933	0.09	117866	keystroke_a	a	n/a
59.188	0.135	118376	keystroke_r	r	n/a
59.398	0.1055	118796	keystroke_i	i	n/a
59.5335	0.195	119067	keystroke_o	o	n/a
59.7435	0.1345	119487	keystroke_n	n	n/a
59.893	0.09	119786	keystroke_Key.space	Key.space	n/a
60.223	0.1505	120446	keystroke_p	p	n/a
60.3735	0.15	120747	keystroke_r	r	n/a
60.7785	0.15	121557	keystroke_o	o	n/a
61.663	0.135	123326	keystroke_v	v	n/a
61.933	0.12	123866	keystroke_e	e	n/a
62.143	0.135	124286	keystroke_Key.enter	Key.enter	n/a
62.284	10.166	124568	prompt	n/a	specifications liked theorem cleaners\n
62.9825	0.166	125965	keystroke_s	s	n/a
63.1335	0.1945	126267	keystroke_p	p	n/a
63.2985	0.1045	126597	keystroke_e	e	n/a
63.583	0.12	127166	keystroke_c	c	n/a
63.718	0.135	127436	keystroke_i	i	n/a
63.838	0.12	127676	keystroke_f	f	n/a
64.018	0.1055	128036	keystroke_i	i	n/a
64.2135	0.135	128427	keystroke_c	c	n/a
65.113	0.1205	130226	keystroke_a	a	n/a
65.383	0.135	130766	keystroke_t	t	n/a
65.5635	0.12	131127	keystroke_i	i	n/a
65.6985	0.225	131397	keystroke_o	o	n/a
65.8785	0.15	131757	keystroke_n	n	n/a
66.0885	0.135	132177	keystroke_s	s	n/a
66.298	0.1205	132596	keystroke_Key.space	Key.space	n/a
66.8535	0.104	133707	keystroke_l	l	n/a
67.0185	0.12	134037	keystroke_i	i	n/a
67.2735	0.15	134547	keystroke_k	k	n/a
67.3935	0.105	134787	keystroke_e	e	n/a
67.6485	0.135	135297	keystroke_d	d	n/a
67.7685	0.12	135537	keystroke_Key.space	Key.space	n/a
68.0385	0.135	136077	keystroke_t	t	n/a
68.1285	0.135	136257	keystroke_h	h	n/a
68.3085	0.1195	136617	keystroke_e	e	n/a
68.608	0.12	137216	keystroke_o	o	n/a
68.758	0.12	137516	keystroke_r	r	n/a
69.058	0.12	138116	keystroke_e	e	n/a
69.193	0.135	138386	keystroke_m	m	n/a
69.418	0.1045	138836	keystroke_Key.space	Key.space	n/a
69.9135	0.119	139827	keystroke_c	c	n/a
70.1075	0.151	140215	keystroke_l	l	n/a
70.2725	0.09	140545	keystroke_e	e	n/a
71.0085	0.12	142017	keystroke_a	a	n/a
71.4275	0.12	142855	keystroke_n	n	n/a
71.5925	0.15	143185	keystroke_e	e	n/a
71.788	0.1195	143576	keystroke_r	r	n/a
72.103	0.1195	144206	keystroke_s	s	n/a
72.328	0.1205	144656	keystroke_Key.enter	Key.enter	n/a
72.454	13.9765	144908	prompt	n/a	explaining liverpool inline economies\n
73.078	0.105	146156	keystroke_e	e	n/a
73.453	0.15	146906	keystroke_x	x	n/a
73.693	0.15	147386	keystroke_p	p	n/a
73.993	0.165	147986	keystroke_l	l	n/a
74.173	0.165	148346	keystroke_a	a	n/a
74.323	0.1655	148646	keystroke_i	i	n/a
74.5635	0.18	149127	keystroke_n	n	n/a
74.7885	0.03	149577	keystroke_n	n	n/a
75.5385	0.12	151077	keystroke_Key.backspace	Key.backspace	n/a
75.8985	0.135	151797	keystroke_i	i	n/a
76.0485	0.135	152097	keystroke_n	n	n/a
76.2135	0.1345	152427	keystroke_g	g	n/a
76.4085	0.135	152817	keystroke_Key.space	Key.space	n/a
76.724	0.15	153448	keystroke_l	l	n/a
77.248	0.106	154496	keystroke_i	i	n/a
77.384	0.15	154768	keystroke_v	v	n/a
77.6535	0.1505	155307	keystroke_e	e	n/a
77.834	0.12	155668	keystroke_r	r	n/a
78.238	0.135	156476	keystroke_p	p	n/a
78.478	0.075	156956	keystroke_o	o	n/a
78.628	0.09	157256	keystroke_o	o	n/a
79.138	0.135	158276	keystroke_l	l	n/a
79.4985	0.1195	158997	keystroke_Key.space	Key.space	n/a
79.979	0.12	159958	keystroke_i	i	n/a
80.174	0.18	160348	keystroke_n	n	n/a
81.193	0.165	162386	keystroke_l	l	n/a
81.478	0.105	162956	keystroke_i	i	n/a
81.628	0.1805	163256	keystroke_n	n	n/a
81.7935	0.165	163587	keystroke_e	e	n/a
81.9885	0.09	163977	keystroke_Key.space	Key.space	n/a
82.363	0.12	164726	keystroke_e	e	n/a
82.783	0.12	165566	keystroke_c	c	n/a
82.978	0.165	165956	keystroke_o	o	n/a
84.1785	0.09	168357	keystroke_n	n	n/a
84.7785	0.12	169557	keystroke_o	o	n/a
85.0035	0.135	170007	keystroke_m	m	n/a
85.2885	0.135	170577	keystroke_i	i	n/a
85.5735	0.12	171147	keystroke_e	e	n/a
85.9035	0.1195	171807	keystroke_s	s	n/a
86.293	0.1355	172586	keystroke_Key.enter	Key.enter	n/a
86.4335	12.327	172867	prompt	n/a	collective douglas establishment monthly\n
87.1335	0.18	174267	keystroke_c	c	n/a
87.2985	0.075	174597	keystroke_o	o	n/a
87.583	0.09	175166	keystroke_l	l	n/a
87.733	0.12	175466	keystroke_l	l	n/a
87.9885	0.105	175977	keystroke_e	e	n/a
88.2885	0.1355	176577	keystroke_c	c	n/a
88.649	0.075	177298	keystroke_t	t	n/a
89.068	0.1505	178136	keystroke_i	i	n/a
89.2635	0.135	178527	keystroke_v	v	n/a
89.5185	0.15	179037	keystroke_e	e	n/a
89.6985	0.09	179397	keystroke_Key.space	Key.space	n/a
89.9085	0.105	179817	keystroke_d	d	n/a
89.9985	0.1505	179997	keystroke_o	o	n/a
90.283	0.1505	180566	keystroke_u	u	n/a
90.4485	0.105	180897	keystroke_g	g	n/a
91.1085	0.135	182217	keystroke_l	l	n/a
91.4235	0.165	182847	keystroke_a	a	n/a
91.7835	0.15	183567	keystroke_s	s	n/a
91.9785	0.135	183957	keystroke_Key.space	Key.space	n/a
92.2935	0.135	184587	keystroke_e	e	n/a
93.283	0.12	186566	keystroke_s	s	n/a
93.598	0.09	187196	keystroke_t	t	n/a
93.943	0.12	187886	keystroke_a	a	n/a
94.243	0.12	188486	keystroke_b	b	n/a
94.528	0.18	189056	keystroke_l	l	n/a
94.7535	0.12	189507	keystroke_i	i	n/a
94.9035	0.135	189807	keystroke_s	s	n/a
95.0535	0.09	190107	keystroke_h	h	n/a
95.2935	0.135	190587	keystroke_m	m	n/a
95.4135	0.15	190827	keystroke_e	e	n/a
95.5485	0.15	191097	keystroke_n	n	n/a
95.7435	0.105	191487	keystroke_t	t	n/a
95.8785	0.15	191757	keystroke_Key.space	Key.space	n/a
96.1035	0.135	192207	keystroke_m	m	n/a
96.3135	0.18	192627	keystroke_o	o	n/a
96.4785	0.135	192957	keystroke_n	n	n/a
96.9735	0.075	193947	keystroke_t	t	n/a
97.1235	0.12	194247	keystroke_h	h	n/a
97.7985	0.15	195597	keystroke_l	l	n/a
98.1585	0.105	196317	keystroke_y	y	n/a
98.5935	0.165	197187	keystroke_Key.enter	Key.enter	n/a
98.766	15.9245	197532	prompt	n/a	libs assignment coupled inherited\n
99.4785	0.15	198957	keystroke_l	l	n/a
99.7335	0.12	199467	keystroke_i	i	n/a
99.914	0.1345	199828	keystroke_b	b	n/a
100.2885	0.1505	200577	keystroke_s	s	n/a
100.513	0.135	201026	keystroke_Key.space	Key.space	n/a
100.693	0.121	201386	keystroke_a	a	n/a
100.948	0.09	201896	keystroke_s	s	n/a
101.143	0.105	202286	keystroke_s	s	n/a
101.308	0.135	202616	keystroke_i	i	n/a
102.614	0.165	205228	keystroke_g	g	n/a
102.794	0.105	205588	keystroke_n	n	n/a
103.229	0.12	206458	keystroke_m	m	n/a
103.379	0.12	206758	keystroke_e	e	n/a
103.484	0.12	206968	keystroke_n	n	n/a
103.619	0.105	207238	keystroke_t	t	n/a
103.769	0.149	207538	keystroke_Key.space	Key.space	n/a
104.009	0.15	208018	keystroke_c	c	n/a
104.084	0.12	208168	keystroke_o	o	n/a
104.279	0.134	208558	keystroke_u	u	n/a
104.639	0.21	209278	keystroke_p	p	n/a
105.103	0.18	210206	keystroke_l	l	n/a
105.253	0.105	210506	keystroke_e	e	n/a
105.494	0.149	210988	keystroke_d	d	n/a
105.658	0.0905	211316	keystroke_Key.space	Key.space	n/a
105.9885	0.12	211977	keystroke_i	i	n/a
106.1385	0.1505	212277	keystroke_n	n	n/a
106.543	0.135	213086	keystroke_h	h	n/a
106.663	0.166	213326	keystroke_e	e	n/a
106.889	0.119	213778	keystroke_r	r	n/a
107.099	0.165	214198	keystroke_e	e	n/a
108.2385	0.135	216477	keystroke_i	i	n/a
108.5235	0.135	217047	keystroke_t	t	n/a
108.7785	0.135	217557	keystroke_e	e	n/a
109.0785	0.15	218157	keystroke_d	d	n/a
111.646	0.012	223292	keystroke_Key.backspace	Key.backspace	n/a
111.824	0.045	223648	keystroke_Key.backspace	Key.backspace	n/a
112.0335	0.015	224067	keystroke_Key.backspace	Key.backspace	n/a
112.393	0.015	224786	keystroke_Key.backspace	Key.backspace	n/a
112.558	0.06	225116	keystroke_Key.backspace	Key.backspace	n/a
113.788	0.105	227576	keystroke_i	i	n/a
113.938	0.135	227876	keystroke_t	t	n/a
114.148	0.1055	228296	keystroke_e	e	n/a
114.374	0.105	228748	keystroke_d	d	n/a
114.599	0.09	229198	keystroke_Key.enter	Key.enter	n/a
114.6945	12.4455	229389	prompt	n/a	barbie smell const minds\n
115.5435	0.105	231087	keystroke_b	b	n/a
115.754	0.135	231508	keystroke_a	a	n/a
116.039	0.09	232078	keystroke_r	r	n/a
116.324	0.1495	232648	keystroke_b	b	n/a
116.5185	0.15	233037	keystroke_i	i	n/a
116.7135	0.105	233427	keystroke_e	e	n/a
116.8335	0.105	233667	keystroke_Key.space	Key.space	n/a
117.0285	0.135	234057	keystroke_s	s	n/a
117.1785	0.15	234357	keystroke_m	m	n/a
117.3285	0.12	234657	keystroke_e	e	n/a
118.3785	0.09	236757	keystroke_l	l	n/a
118.6035	0.06	237207	keystroke_l	l	n/a
119.7735	0.12	239547	keystroke_Key.space	Key.space	n/a
120.179	0.2245	240358	keystroke_o	o	n/a
120.3435	0.15	240687	keystroke_n	n	n/a
120.5085	0.135	241017	keystroke_s	s	n/a
120.824	0.105	241648	keystroke_t	t	n/a
120.988	0.165	241976	keystroke_Key.space	Key.space	n/a
121.199	0.15	242398	keystroke_m	m	n/a
121.408	0.15	242816	keystroke_i	i	n/a
121.619	0.135	243238	keystroke_n	n	n/a
122.309	0.045	244618	keystroke_Key.backspace	Key.backspace	n/a
122.4885	0.09	244977	keystroke_Key.backspace	Key.backspace	n/a
122.6985	0.075	245397	keystroke_Key.backspace	Key.backspace	n/a
122.9535	0.075	245907	keystroke_Key.backspace	Key.backspace	n/a
123.3285	0.09	246657	keystroke_Key.backspace	Key.backspace	n/a
123.509	0.104	247018	keystroke_Key.backspace	Key.backspace	n/a
123.794	0.149	247588	keystroke_Key.backspace	Key.backspace	n/a
124.063	0.105	248126	keystroke_Key.backspace	Key.backspace	n/a
124.379	0.165	248758	keystroke_c	c	n/a
124.499	0.24	248998	keystroke_o	o	n/a
124.694	0.135	249388	keystroke_n	n	n/a
124.814	0.12	249628	keystroke_s	s	n/a
125.099	0.105	250198	keystroke_t	t	n/a
125.249	0.15	250498	keystroke_Key.space	Key.space	n/a
125.624	0.15	251248	keystroke_m	m	n/a
125.849	0.1645	251698	keystroke_i	i	n/a
126.0435	0.105	252087	keystroke_n	n	n/a
126.2685	0.105	252537	keystroke_d	d	n/a
126.6285	0.12	253257	keystroke_s	s	n/a
127.0035	0.135	254007	keystroke_Key.enter	Key.enter	n/a
127.1445	7.1055	254289	prompt	n/a	animated pmid atomic stories\n
127.709	0.135	255418	keystroke_a	a	n/a
127.829	0.119	255658	keystroke_n	n	n/a
128.039	0.135	256078	keystroke_i	i	n/a
128.189	0.18	256378	keystroke_m	m	n/a
128.369	0.1195	256738	keystroke_a	a	n/a
128.6685	0.135	257337	keystroke_t	t	n/a
128.8635	0.135	257727	keystroke_e	e	n/a
129.1485	0.1355	258297	keystroke_d	d	n/a
129.314	0.135	258628	keystroke_Key.space	Key.space	n/a
129.629	0.165	259258	keystroke_p	p	n/a
129.929	0.15	259858	keystroke_m	m	n/a
130.154	0.15	260308	keystroke_i	i	n/a
130.318	0.15	260636	keystroke_d	d	n/a
130.543	0.12	261086	keystroke_Key.space	Key.space	n/a
130.738	0.136	261476	keystroke_a	a	n/a
131.0385	0.105	262077	keystroke_t	t	n/a
131.3235	0.12	262647	keystroke_o	o	n/a
131.6835	0.135	263367	keystroke_m	m	n/a
131.8785	0.15	263757	keystroke_i	i	n/a
132.0435	0.12	264087	keystroke_c	c	n/a
132.2085	0.135	264417	keystroke_Key.space	Key.space	n/a
132.4935	0.1205	264987	keystroke_s	s	n/a
132.839	0.104	265678	keystroke_t	t	n/a
132.973	0.106	265946	keystroke_o	o	n/a
133.138	0.136	266276	keystroke_r	r	n/a
133.229	0.104	266458	keystroke_i	i	n/a
133.483	0.105	266966	keystroke_e	e	n/a
133.828	0.12	267656	keystroke_s	s	n/a
134.113	0.136	268226	keystroke_Key.enter	Key.enter	n/a
134.254	10.721	268508	prompt	n/a	excellent molecules funding she'll\n
134.8485	0.105	269697	keystroke_e	e	n/a
135.1935	0.12	270387	keystroke_x	x	n/a
135.4635	0.105	270927	keystroke_c	c	n/a
135.7185	0.12	271437	keystroke_e	e	n/a
135.9585	0.12	271917	keystroke_l	l	n/a
136.1835	0.12	272367	keystroke_l	l	n/a
136.3185	0.105	272637	keystroke_e	e	n/a
136.558	0.136	273116	keystroke_n	n	n/a
137.384	0.089	274768	keystroke_t	t	n/a
137.878	0.1355	275756	keystroke_Key.space	Key.space	n/a
138.4485	0.166	276897	keystroke_m	m	n/a
138.6735	0.12	277347	keystroke_o	o	n/a
139.0485	0.15	278097	keystroke_l	l	n/a
139.2735	0.1205	278547	keystroke_e	e	n/a
139.559	0.1645	279118	keystroke_c	c	n/a
139.6935	0.135	279387	keystroke_u	u	n/a
139.9935	0.165	279987	keystroke_l	l	n/a
140.1135	0.105	280227	keystroke_e	e	n/a
140.3535	0.135	280707	keystroke_s	s	n/a
140.5035	0.15	281007	keystroke_Key.space	Key.space	n/a
140.7435	0.1205	281487	keystroke_f	f	n/a
140.954	0.1195	281908	keystroke_u	u	n/a
141.3435	0.135	282687	keystroke_n	n	n/a
141.5685	0.15	283137	keystroke_d	d	n/a
141.7785	0.15	283557	keystroke_i	i	n/a
141.9135	0.18	283827	keystroke_n	n	n/a
142.1085	0.12	284217	keystroke_g	g	n/a
142.2885	0.135	284577	keystroke_Key.space	Key.space	n/a
142.5285	0.165	285057	keystroke_s	s	n/a
142.7235	0.135	285447	keystroke_h	h	n/a
142.9035	0.105	285807	keystroke_e	e	n/a
143.668	0.151	287336	keystroke_'	'	n/a
144.208	0.091	288416	keystroke_l	l	n/a
144.4185	0.075	288837	keystroke_l	l	n/a
144.883	0.09	289766	keystroke_Key.enter	Key.enter	n/a
144.978	13.467	289956	prompt	n/a	research central leslie discounts\n
145.648	0.135	291296	keystroke_r	r	n/a
145.813	0.12	291626	keystroke_e	e	n/a
146.053	0.106	292106	keystroke_s	s	n/a
146.234	0.15	292468	keystroke_e	e	n/a
146.414	0.135	292828	keystroke_r	r	n/a
146.714	0.18	293428	keystroke_a	a	n/a
148.198	0.105	296396	keystroke_Key.backspace	Key.backspace	n/a
148.393	0.09	296786	keystroke_Key.backspace	Key.backspace	n/a
148.708	0.135	297416	keystroke_a	a	n/a
149.189	0.1645	298378	keystroke_c	c	n/a
150.2235	0.1945	300447	keystroke_Key.backspace	Key.backspace	n/a
150.478	0.12	300956	keystroke_r	r	n/a
150.838	0.195	301676	keystroke_c	c	n/a
151.034	0.134	302068	keystroke_h	h	n/a
152.188	0.12	304376	keystroke_Key.space	Key.space	n/a
152.4885	0.12	304977	keystroke_c	c	n/a
152.7285	0.1195	305457	keystroke_e	e	n/a
152.863	0.136	305726	keystroke_n	n	n/a
153.0285	0.09	306057	keystroke_t	t	n/a
153.2385	0.1055	306477	keystroke_r	r	n/a
153.494	0.1645	306988	keystroke_a	a	n/a
153.6285	0.1645	307257	keystroke_l	l	n/a
153.823	0.1055	307646	keystroke_Key.space	Key.space	n/a
154.0785	0.15	308157	keystroke_l	l	n/a
154.4385	0.12	308877	keystroke_e	e	n/a
154.8735	0.105	309747	keystroke_s	s	n/a
155.1885	0.15	310377	keystroke_l	l	n/a
155.4285	0.12	310857	keystroke_i	i	n/a
155.5635	0.12	311127	keystroke_e	e	n/a
155.7435	0.1195	311487	keystroke_Key.space	Key.space	n/a
155.968	0.12	311936	keystroke_d	d	n/a
156.103	0.105	312206	keystroke_i	i	n/a
156.2835	0.105	312567	keystroke_s	s	n/a
157.003	0.18	314006	keystroke_c	c	n/a
157.153	0.105	314306	keystroke_o	o	n/a
157.3335	0.105	314667	keystroke_u	u	n/a
157.5585	0.135	315117	keystroke_n	n	n/a
157.7235	0.105	315447	keystroke_t	t	n/a
158.0235	0.105	316047	keystroke_s	s	n/a
158.3085	0.1345	316617	keystroke_Key.enter	Key.enter	n/a
158.4485	7.1515	316897	prompt	n/a	dark businesses loss rivers\n
159.043	0.1205	318086	keystroke_d	d	n/a
159.2685	0.119	318537	keystroke_a	a	n/a
159.5085	0.089	319017	keystroke_r	r	n/a
160.018	0.1355	320036	keystroke_k	k	n/a
160.2735	0.0895	320547	keystroke_Key.space	Key.space	n/a
160.5885	0.134	321177	keystroke_b	b	n/a
160.7535	0.104	321507	keystroke_u	u	n/a
161.0535	0.1345	322107	keystroke_s	s	n/a
161.203	0.12	322406	keystroke_i	i	n/a
161.413	0.09	322826	keystroke_n	n	n/a
161.518	0.12	323036	keystroke_e	e	n/a
161.833	0.06	323666	keystroke_s	s	n/a
162.013	0.06	324026	keystroke_s	s	n/a
162.253	0.105	324506	keystroke_e	e	n/a
162.5525	0.075	325105	keystroke_s	s	n/a
162.7625	0.12	325525	keystroke_Key.space	Key.space	n/a
163.0175	0.046	326035	keystroke_l	l	n/a
163.3475	0.121	326695	keystroke_o	o	n/a
163.5135	0.105	327027	keystroke_s	s	n/a
163.7385	0.12	327477	keystroke_s	s	n/a
163.9025	0.135	327805	keystroke_Key.space	Key.space	n/a
164.1435	0.105	328287	keystroke_r	r	n/a
164.2635	0.134	328527	keystroke_i	i	n/a
164.4285	0.1645	328857	keystroke_v	v	n/a
164.683	0.135	329366	keystroke_e	e	n/a
164.8785	0.1045	329757	keystroke_r	r	n/a
165.1485	0.1045	330297	keystroke_s	s	n/a
165.493	0.105	330986	keystroke_Key.enter	Key.enter	n/a
165.6035	9.1465	331207	prompt	n/a	amazon massive realistic impaired\n
166.153	0.165	332306	keystroke_a	a	n/a
166.363	0.1505	332726	keystroke_m	m	n/a
166.5285	0.12	333057	keystroke_a	a	n/a
166.9185	0.21	333837	keystroke_z	z	n/a
167.0835	0.21	334167	keystroke_o	o	n/a
167.2785	0.1495	334557	keystroke_n	n	n/a
167.443	0.135	334886	keystroke_Key.space	Key.space	n/a
167.638	0.21	335276	keystroke_m	m	n/a
167.833	0.12	335666	keystroke_a	a	n/a
168.133	0.105	336266	keystroke_s	s	n/a
168.343	0.135	336686	keystroke_s	s	n/a
168.493	0.15	336986	keystroke_i	i	n/a
168.658	0.135	337316	keystroke_v	v	n/a
169.1235	0.135	338247	keystroke_e	e	n/a
169.3185	0.12	338637	keystroke_Key.space	Key.space	n/a
169.7835	0.12	339567	keystroke_r	r	n/a
169.9485	0.12	339897	keystroke_e	e	n/a
170.2485	0.1495	340497	keystroke_a	a	n/a
170.443	0.15	340886	keystroke_l	l	n/a
170.713	0.105	341426	keystroke_i	i	n/a
170.848	0.135	341696	keystroke_s	s	n/a
171.148	0.0905	342296	keystroke_t	t	n/a
171.2985	0.15	342597	keystroke_i	i	n/a
171.7185	0.12	343437	keystroke_c	c	n/a
172.573	0.165	345146	keystroke_Key.space	Key.space	n/a
172.918	0.105	345836	keystroke_i	i	n/a
173.098	0.21	346196	keystroke_m	m	n/a
173.338	0.196	346676	keystroke_p	p	n/a
173.518	0.151	347036	keystroke_a	a	n/a
173.683	0.135	347366	keystroke_i	i	n/a
173.864	0.119	347728	keystroke_r	r	n/a
174.148	0.0445	348296	keystroke_e	e	n/a
174.344	0.1345	348688	keystroke_d	d	n/a
174.598	0.15	349196	keystroke_Key.enter	Key.enter	n/a
174.7535	8.6515	349507	prompt	n/a	yeast foto trading henderson\n
175.483	0.12	350966	keystroke_y	y	n/a
175.619	0.119	351238	keystroke_e	e	n/a
175.873	0.1355	351746	keystroke_a	a	n/a
176.1735	0.135	352347	keystroke_s	s	n/a
176.5185	0.12	353037	keystroke_t	t	n/a
177.733	0.105	355466	keystroke_Key.space	Key.space	n/a
177.943	0.135	355886	keystroke_f	f	n/a
178.123	0.09	356246	keystroke_o	o	n/a
178.438	0.12	356876	keystroke_t	t	n/a
178.588	0.135	357176	keystroke_o	o	n/a
178.828	0.135	357656	keystroke_Key.space	Key.space	n/a
179.1135	0.09	358227	keystroke_t	t	n/a
179.3235	0.0895	358647	keystroke_r	r	n/a
179.608	0.135	359216	keystroke_a	a	n/a
180.403	0.195	360806	keystroke_d	d	n/a
180.538	0.195	361076	keystroke_i	i	n/a
180.718	0.15	361436	keystroke_n	n	n/a
180.853	0.12	361706	keystroke_g	g	n/a
181.003	0.135	362006	keystroke_Key.space	Key.space	n/a
181.303	0.12	362606	keystroke_h	h	n/a
181.408	0.15	362816	keystroke_e	e	n/a
181.678	0.15	363356	keystroke_n	n	n/a
182.008	0.105	364016	keystroke_d	d	n/a
182.248	0.135	364496	keystroke_e	e	n/a
182.413	0.105	364826	keystroke_r	r	n/a
182.668	0.12	365336	keystroke_s	s	n/a
182.773	0.18	365546	keystroke_o	o	n/a
182.908	0.18	365816	keystroke_n	n	n/a
183.283	0.12	366566	keystroke_Key.enter	Key.enter	n/a
183.408	8.9665	366816	prompt	n/a	janet banking relax kids\n
184.033	0.12	368066	keystroke_j	j	n/a
184.1835	0.195	368367	keystroke_a	a	n/a
184.303	0.12	368606	keystroke_n	n	n/a
184.5275	0.1355	369055	keystroke_e	e	n/a
184.813	0.075	369626	keystroke_t	t	n/a
184.918	0.12	369836	keystroke_Key.space	Key.space	n/a
185.188	0.12	370376	keystroke_b	b	n/a
185.414	0.15	370828	keystroke_a	a	n/a
186.028	0.06	372056	keystroke_n	n	n/a
186.358	0.1195	372716	keystroke_k	k	n/a
186.6135	0.12	373227	keystroke_i	i	n/a
186.7785	0.119	373557	keystroke_n	n	n/a
186.9135	0.1195	373827	keystroke_g	g	n/a
187.1385	0.1345	374277	keystroke_Key.space	Key.space	n/a
187.6335	0.1195	375267	keystroke_r	r	n/a
187.768	0.165	375536	keystroke_e	e	n/a
188.2185	0.165	376437	keystroke_l	l	n/a
188.4435	0.21	376887	keystroke_z	z	n/a
189.0735	0.12	378147	keystroke_Key.backspace	Key.backspace	n/a
189.5835	0.1645	379167	keystroke_a	a	n/a
190.078	0.075	380156	keystroke_x	x	n/a
190.8575	0.1355	381715	keystroke_Key.space	Key.space	n/a
191.173	0.12	382346	keystroke_k	k	n/a
191.398	0.135	382796	keystroke_i	i	n/a
191.593	0.18	383186	keystroke_d	d	n/a
191.9985	0.105	383997	keystroke_s	s	n/a
192.2535	0.12	384507	keystroke_Key.enter	Key.enter	n/a
192.379	7.646	384758	prompt	n/a	cologne freely haven laptop\n
193.1685	0.165	386337	keystroke_c	c	n/a
193.3035	0.105	386607	keystroke_o	o	n/a
193.5885	0.12	387177	keystroke_l	l	n/a
193.888	0.135	387776	keystroke_o	o	n/a
194.353	0.15	388706	keystroke_g	g	n/a
194.638	0.12	389276	keystroke_n	n	n/a
195.2085	0.1195	390417	keystroke_e	e	n/a
195.448	0.12	390896	keystroke_Key.space	Key.space	n/a
195.673	0.075	391346	keystroke_f	f	n/a
195.8985	0.075	391797	keystroke_r	r	n/a
196.0485	0.105	392097	keystroke_e	e	n/a
196.2435	0.105	392487	keystroke_e	e	n/a
196.4835	0.15	392967	keystroke_l	l	n/a
196.888	0.12	393776	keystroke_y	y	n/a
197.053	0.18	394106	keystroke_Key.space	Key.space	n/a
197.293	0.105	394586	keystroke_h	h	n/a
197.413	0.165	394826	keystroke_a	a	n/a
197.623	0.15	395246	keystroke_v	v	n/a
197.878	0.135	395756	keystroke_e	e	n/a
198.058	0.15	396116	keystroke_n	n	n/a
198.253	0.15	396506	keystroke_Key.space	Key.space	n/a
198.538	0.135	397076	keystroke_l	l	n/a
198.703	0.195	397406	keystroke_a	a	n/a
198.913	0.15	397826	keystroke_p	p	n/a
199.183	0.105	398366	keystroke_t	t	n/a
199.303	0.1655	398606	keystroke_o	o	n/a
199.5585	0.135	399117	keystroke_p	p	n/a
199.9335	0.09	399867	keystroke_Key.enter	Key.enter	n/a
200.028	9.987	400056	prompt	n/a	forty how're involving mature\n
200.593	0.12	401186	keystroke_f	f	n/a
200.788	0.165	401576	keystroke_o	o	n/a
200.908	0.12	401816	keystroke_r	r	n/a
201.1185	0.12	402237	keystroke_t	t	n/a
201.3285	0.12	402657	keystroke_y	y	n/a
201.4785	0.165	402957	keystroke_Key.space	Key.space	n/a
201.7185	0.18	403437	keystroke_h	h	n/a
201.9585	0.195	403917	keystroke_o	o	n/a
202.1685	0.135	404337	keystroke_w	w	n/a
203.0835	0.135	406167	keystroke_'	'	n/a
203.428	0.12	406856	keystroke_r	r	n/a
203.593	0.135	407186	keystroke_e	e	n/a
203.848	0.165	407696	keystroke_Key.space	Key.space	n/a
204.238	0.15	408476	keystroke_i	i	n/a
204.403	0.12	408806	keystroke_n	n	n/a
204.568	0.1805	409136	keystroke_v	v	n/a
204.9585	0.12	409917	keystroke_o	o	n/a
205.1835	0.135	410367	keystroke_i	i	n/a
205.3635	0.1495	410727	keystroke_v	v	n/a
206.218	0.075	412436	keystroke_Key.backspace	Key.backspace	n/a
206.398	0.06	412796	keystroke_Key.backspace	Key.backspace	n/a
206.698	0.15	413396	keystroke_l	l	n/a
207.253	0.12	414506	keystroke_v	v	n/a
207.388	0.165	414776	keystroke_i	i	n/a
207.583	0.15	415166	keystroke_n	n	n/a
207.748	0.105	415496	keystroke_g	g	n/a
207.8835	0.135	415767	keystroke_Key.space	Key.space	n/a
208.243	0.135	416486	keystroke_m	m	n/a
208.408	0.165	416816	keystroke_a	a	n/a
208.798	0.135	417596	keystroke_t	t	n/a
209.053	0.195	418106	keystroke_u	u	n/a
209.233	0.165	418466	keystroke_r	r	n/a
209.4885	0.15	418977	keystroke_e	e	n/a
209.8635	0.15	419727	keystroke_Key.enter	Key.enter	n/a
210.021	8.364	420042	prompt	n/a	acts father someone photos\n
210.553	0.135	421106	keystroke_a	a	n/a
210.794	0.164	421588	keystroke_c	c	n/a
211.1535	0.1045	422307	keystroke_t	t	n/a
211.648	0.135	423296	keystroke_s	s	n/a
212.068	0.1355	424136	keystroke_Key.space	Key.space	n/a
212.3085	0.09	424617	keystroke_f	f	n/a
212.623	0.15	425246	keystroke_a	a	n/a
212.893	0.12	425786	keystroke_t	t	n/a
213.028	0.15	426056	keystroke_h	h	n/a
213.148	0.135	426296	keystroke_e	e	n/a
213.313	0.15	426626	keystroke_r	r	n/a
213.493	0.165	426986	keystroke_Key.space	Key.space	n/a
213.808	0.15	427616	keystroke_s	s	n/a
213.913	0.1655	427826	keystroke_o	o	n/a
214.0935	0.195	428187	keystroke_m	m	n/a
214.2285	0.165	428457	keystroke_e	e	n/a
214.4385	0.09	428877	keystroke_r	r	n/a
215.2035	0.134	430407	keystroke_Key.backspace	Key.backspace	n/a
215.5185	0.165	431037	keystroke_o	o	n/a
215.7135	0.12	431427	keystroke_n	n	n/a
215.8485	0.12	431697	keystroke_e	e	n/a
215.9835	0.135	431967	keystroke_Key.space	Key.space	n/a
216.373	0.255	432746	keystroke_p	p	n/a
216.673	0.18	433346	keystroke_h	h	n/a
216.883	0.12	433766	keystroke_o	o	n/a
217.348	0.12	434696	keystroke_t	t	n/a
217.588	0.105	435176	keystroke_o	o	n/a
217.828	0.165	435656	keystroke_s	s	n/a
218.263	0.12	436526	keystroke_Key.enter	Key.enter	n/a
218.3885	10.9615	436777	prompt	n/a	defining expenses siemens astrology\n
218.999	0.1345	437998	keystroke_d	d	n/a
219.2535	0.135	438507	keystroke_e	e	n/a
219.4635	0.15	438927	keystroke_f	f	n/a
219.5985	0.135	439197	keystroke_i	i	n/a
219.7485	0.105	439497	keystroke_n	n	n/a
219.9285	0.15	439857	keystroke_i	i	n/a
220.0335	0.21	440067	keystroke_n	n	n/a
220.1985	0.135	440397	keystroke_g	g	n/a
220.3335	0.18	440667	keystroke_Key.space	Key.space	n/a
220.5735	0.105	441147	keystroke_e	e	n/a
220.978	0.195	441956	keystroke_x	x	n/a
221.713	0.18	443426	keystroke_p	p	n/a
221.863	0.105	443726	keystroke_e	e	n/a
222.148	0.09	444296	keystroke_n	n	n/a
222.643	0.105	445286	keystroke_s	s	n/a
222.8835	0.1195	445767	keystroke_e	e	n/a
223.1985	0.12	446397	keystroke_s	s	n/a
223.4235	0.12	446847	keystroke_Key.space	Key.space	n/a
223.6335	0.1205	447267	keystroke_s	s	n/a
223.993	0.106	447986	keystroke_i	i	n/a
224.279	0.194	448558	keystroke_e	e	n/a
224.984	0.12	449968	keystroke_m	m	n/a
225.193	0.1205	450386	keystroke_e	e	n/a
225.344	0.105	450688	keystroke_n	n	n/a
225.524	0.15	451048	keystroke_s	s	n/a
225.793	0.136	451586	keystroke_Key.space	Key.space	n/a
226.0635	0.15	452127	keystroke_a	a	n/a
226.3185	0.195	452637	keystroke_s	s	n/a
226.6935	0.09	453387	keystroke_t	t	n/a
226.9185	0.105	453837	keystroke_r	r	n/a
227.3685	0.12	454737	keystroke_o	o	n/a
228.058	0.135	456116	keystroke_l	l	n/a
228.298	0.135	456596	keystroke_o	o	n/a
228.418	0.15	456836	keystroke_g	g	n/a
228.673	0.12	457346	keystroke_y	y	n/a
229.213	0.136	458426	keystroke_Key.enter	Key.enter	n/a
229.3545	11.0505	458709	prompt	n/a	kathy gained referred transmitted\n
230.129	0.15	460258	keystroke_k	k	n/a
230.264	0.135	460528	keystroke_a	a	n/a
230.548	0.12	461096	keystroke_t	t	n/a
230.774	0.104	461548	keystroke_h	h	n/a
231.043	0.135	462086	keystroke_y	y	n/a
231.223	0.195	462446	keystroke_Key.space	Key.space	n/a
231.463	0.105	462926	keystroke_g	g	n/a
231.673	0.165	463346	keystroke_a	a	n/a
232.033	0.1805	464066	keystroke_i	i	n/a
232.2585	0.105	464517	keystroke_n	n	n/a
232.438	0.12	464876	keystroke_e	e	n/a
232.708	0.15	465416	keystroke_d	d	n/a
232.873	0.15	465746	keystroke_Key.space	Key.space	n/a
233.278	0.12	466556	keystroke_r	r	n/a
233.458	0.165	466916	keystroke_e	e	n/a
233.758	0.12	467516	keystroke_f	f	n/a
233.998	0.135	467996	keystroke_e	e	n/a
234.253	0.03	468506	keystroke_r	r	n/a
234.358	0.1055	468716	keystroke_r	r	n/a
234.5835	0.12	469167	keystroke_e	e	n/a
234.868	0.15	469736	keystroke_d	d	n/a
235.093	0.12	470186	keystroke_Key.space	Key.space	n/a
235.289	0.089	470578	keystroke_t	t	n/a
235.484	0.105	470968	keystroke_r	r	n/a
237.208	0.18	474416	keystroke_a	a	n/a
238.0785	0.165	476157	keystroke_n	n	n/a
238.3035	0.135	476607	keystroke_s	s	n/a
238.6635	0.135	477327	keystroke_m	m	n/a
238.9935	0.18	477987	keystroke_i	i	n/a
239.1885	0.12	478377	keystroke_t	t	n/a
239.413	0.09	478826	keystroke_t	t	n/a
239.638	0.09	479276	keystroke_e	e	n/a
239.923	0.12	479846	keystroke_d	d	n/a
240.2535	0.15	480507	keystroke_Key.enter	Key.enter	n/a
240.409	10.166	480818	prompt	n/a	kruger clips mixer mechanism\n
241.124	0.089	482248	keystroke_r	r	n/a
241.678	0.09	483356	keystroke_Key.backspace	Key.backspace	n/a
242.023	0.165	484046	keystroke_k	k	n/a
242.218	0.135	484436	keystroke_r	r	n/a
242.413	0.165	484826	keystroke_u	u	n/a
242.563	0.105	485126	keystroke_g	g	n/a
242.788	0.1205	485576	keystroke_e	e	n/a
242.9685	0.12	485937	keystroke_r	r	n/a
243.1785	0.15	486357	keystroke_Key.space	Key.space	n/a
243.4335	0.165	486867	keystroke_c	c	n/a
243.5685	0.165	487137	keystroke_l	l	n/a
243.9285	0.12	487857	keystroke_i	i	n/a
244.498	0.18	488996	keystroke_p	p	n/a
244.663	0.12	489326	keystroke_s	s	n/a
244.828	0.165	489656	keystroke_Key.space	Key.space	n/a
245.174	0.134	490348	keystroke_m	m	n/a
245.413	0.12	490826	keystroke_i	i	n/a
245.953	0.21	491906	keystroke_x	x	n/a
246.658	0.15	493316	keystroke_e	e	n/a
246.868	0.1505	493736	keystroke_r	r	n/a
247.0635	0.105	494127	keystroke_Key.space	Key.space	n/a
247.2885	0.15	494577	keystroke_m	m	n/a
247.4235	0.12	494847	keystroke_e	e	n/a
247.7535	0.135	495507	keystroke_c	c	n/a
247.8735	0.105	495747	keystroke_h	h	n/a
248.0985	0.075	496197	keystroke_a	a	n/a
248.1435	0.12	496287	keystroke_n	n	n/a
248.4285	0.165	496857	keystroke_i	i	n/a
249.433	0.15	498866	keystroke_s	s	n/a
249.8235	0.12	499647	keystroke_m	m	n/a
250.4535	0.12	500907	keystroke_Key.enter	Key.enter	n/a
250.578	6.4165	501156	prompt	n/a	holly ever tell vary\n
252.088	0.18	504176	keystroke_h	h	n/a
252.5825	0.091	505165	keystroke_o	o	n/a
252.8535	0.09	505707	keystroke_l	l	n/a
253.0335	0.09	506067	keystroke_l	l	n/a
253.3785	0.165	506757	keystroke_y	y	n/a
253.6035	0.12	507207	keystroke_Key.space	Key.space	n/a
253.8585	0.075	507717	keystroke_e	e	n/a
254.1285	0.135	508257	keystroke_v	v	n/a
254.3685	0.135	508737	keystroke_e	e	n/a
254.5335	0.105	509067	keystroke_r	r	n/a
254.6985	0.12	509397	keystroke_Key.space	Key.space	n/a
254.9685	0.075	509937	keystroke_t	t	n/a
255.1335	0.119	510267	keystroke_e	e	n/a
255.3585	0.075	510717	keystroke_l	l	n/a
255.508	0.0905	511016	keystroke_l	l	n/a
255.6585	0.12	511317	keystroke_Key.space	Key.space	n/a
255.8235	0.105	511647	keystroke_v	v	n/a
256.0185	0.15	512037	keystroke_a	a	n/a
256.303	0.09	512606	keystroke_r	r	n/a
256.5425	0.12	513085	keystroke_y	y	n/a
256.8875	0.105	513775	keystroke_Key.enter	Key.enter	n/a
256.9975	9.6725	513995	prompt	n/a	implementation delegation diffs customers\n
257.7135	0.105	515427	keystroke_i	i	n/a
257.8935	0.119	515787	keystroke_m	m	n/a
258.1185	0.104	516237	keystroke_p	p	n/a
258.418	0.135	516836	keystroke_l	l	n/a
258.898	0.09	517796	keystroke_e	e	n/a
259.153	0.105	518306	keystroke_m	m	n/a
259.273	0.12	518546	keystroke_e	e	n/a
259.498	0.09	518996	keystroke_n	n	n/a
259.663	0.075	519326	keystroke_t	t	n/a
259.963	0.12	519926	keystroke_a	a	n/a
260.203	0.075	520406	keystroke_t	t	n/a
260.338	0.1055	520676	keystroke_i	i	n/a
260.4585	0.195	520917	keystroke_o	o	n/a
260.5635	0.15	521127	keystroke_n	n	n/a
260.7285	0.105	521457	keystroke_Key.space	Key.space	n/a
260.8635	0.09	521727	keystroke_d	d	n/a
261.0885	0.075	522177	keystroke_e	e	n/a
261.2235	0.105	522447	keystroke_l	l	n/a
261.9735	0.045	523947	keystroke_e	e	n/a
262.1985	0.06	524397	keystroke_g	g	n/a
262.3485	0.119	524697	keystroke_a	a	n/a
262.573	0.075	525146	keystroke_t	t	n/a
262.708	0.105	525416	keystroke_i	i	n/a
262.828	0.135	525656	keystroke_o	o	n/a
262.948	0.135	525896	keystroke_n	n	n/a
263.1125	0.12	526225	keystroke_Key.space	Key.space	n/a
263.2775	0.106	526555	keystroke_d	d	n/a
263.548	0.105	527096	keystroke_i	i	n/a
263.728	0.06	527456	keystroke_f	f	n/a
263.863	0.09	527726	keystroke_f	f	n/a
264.1635	0.09	528327	keystroke_s	s	n/a
264.3135	0.12	528627	keystroke_Key.space	Key.space	n/a
264.6575	0.1055	529315	keystroke_c	c	n/a
264.778	0.12	529556	keystroke_u	u	n/a
264.928	0.09	529856	keystroke_s	s	n/a
265.168	0.06	530336	keystroke_t	t	n/a
265.288	0.075	530576	keystroke_o	o	n/a
265.483	0.105	530966	keystroke_m	m	n/a
265.783	0.105	531566	keystroke_e	e	n/a
265.993	0.075	531986	keystroke_r	r	n/a
266.338	0.06	532676	keystroke_s	s	n/a
266.563	0.105	533126	keystroke_Key.enter	Key.enter	n/a
266.6745	13.75	533349	prompt	n/a	certified olympics worry idea\n
267.3725	0.09	534745	keystroke_d	d	n/a
267.5975	0.075	535195	keystroke_e	e	n/a
267.9725	0.06	535945	keystroke_Key.backspace	Key.backspace	n/a
268.1225	0.075	536245	keystroke_Key.backspace	Key.backspace	n/a
268.423	0.075	536846	keystroke_c	c	n/a
268.678	0.1055	537356	keystroke_e	e	n/a
268.8735	0.06	537747	keystroke_r	r	n/a
269.0685	0.06	538137	keystroke_t	t	n/a
269.1435	0.105	538287	keystroke_i	i	n/a
269.2935	0.09	538587	keystroke_f	f	n/a
269.7735	0.06	539547	keystroke_i	i	n/a
269.8785	0.09	539757	keystroke_e	e	n/a
270.133	0.09	540266	keystroke_d	d	n/a
270.3725	0.105	540745	keystroke_Key.space	Key.space	n/a
270.7635	0.089	541527	keystroke_o	o	n/a
273.076	0.057	546152	keystroke_l	l	n/a
273.358	0.09	546716	keystroke_y	y	n/a
273.898	0.105	547796	keystroke_m	m	n/a
274.213	0.1495	548426	keystroke_p	p	n/a
274.528	0.105	549056	keystroke_i	i	n/a
274.888	0.075	549776	keystroke_c	c	n/a
275.128	0.09	550256	keystroke_s	s	n/a
275.308	0.12	550616	keystroke_Key.space	Key.space	n/a
275.548	0.06	551096	keystroke_w	w	n/a
275.608	0.105	551216	keystroke_o	o	n/a
275.818	0.06	551636	keystroke_r	r	n/a
275.968	0.06	551936	keystroke_r	r	n/a
276.178	0.06	552356	keystroke_k	k	n/a
278.233	0.075	556466	keystroke_Key.backspace	Key.backspace	n/a
278.9525	0.075	557905	keystroke_y	y	n/a
279.148	0.1195	558296	keystroke_Key.space	Key.space	n/a
279.3725	0.12	558745	keystroke_i	i	n/a
279.5225	0.105	559045	keystroke_d	d	n/a
279.7475	0.09	559495	keystroke_e	e	n/a
280.0775	0.105	560155	keystroke_a	a	n/a
280.3325	0.09	560665	keystroke_Key.enter	Key.enter	n/a
280.4275	20.187	560855	prompt	n/a	luther unsubscribe oxygen departments\n
281.188	0.12	562376	keystroke_l	l	n/a
281.458	0.105	562916	keystroke_u	u	n/a
281.593	0.105	563186	keystroke_t	t	n/a
281.743	0.105	563486	keystroke_h	h	n/a
281.833	0.15	563666	keystroke_e	e	n/a
282.028	0.09	564056	keystroke_r	r	n/a
282.208	0.15	564416	keystroke_Key.space	Key.space	n/a
282.4935	0.104	564987	keystroke_u	u	n/a
282.7775	0.091	565555	keystroke_n	n	n/a
282.8975	0.121	565795	keystroke_s	s	n/a
283.2285	0.105	566457	keystroke_c	c	n/a
283.8275	0.03	567655	keystroke_Key.backspace	Key.backspace	n/a
284.1585	0.089	568317	keystroke_s	s	n/a
284.3525	0.12	568705	keystroke_u	u	n/a
284.5625	0.09	569125	keystroke_b	b	n/a
284.893	0.105	569786	keystroke_r	r	n/a
285.4025	0.09	570805	keystroke_s	s	n/a
285.6875	0.1195	571375	keystroke_c	c	n/a
285.9575	0.09	571915	keystroke_r	r	n/a
286.1075	0.1055	572215	keystroke_i	i	n/a
286.348	0.0895	572696	keystroke_b	b	n/a
286.6175	0.09	573235	keystroke_e	e	n/a
286.8275	0.12	573655	keystroke_Key.space	Key.space	n/a
287.818	0.09	575636	keystroke_Key.backspace	Key.backspace	n/a
288.073	0.06	576146	keystroke_Key.backspace	Key.backspace	n/a
288.4925	0.03	576985	keystroke_Key.backspace	Key.backspace	n/a
288.6125	0.06	577225	keystroke_Key.backspace	Key.backspace	n/a
288.7925	0.015	577585	keystroke_Key.backspace	Key.backspace	n/a
289.0025	0.045	578005	keystroke_Key.backspace	Key.backspace	n/a
289.2425	0.06	578485	keystroke_Key.backspace	Key.backspace	n/a
289.4375	0.06	578875	keystroke_Key.backspace	Key.backspace	n/a
289.6475	0.06	579295	keystroke_Key.backspace	Key.backspace	n/a
289.8725	0.06	579745	keystroke_Key.backspace	Key.backspace	n/a
290.0825	0.045	580165	keystroke_Key.backspace	Key.backspace	n/a
290.5325	0.105	581065	keystroke_u	u	n/a
291.718	0.105	583436	keystroke_b	b	n/a
293.503	0.12	587006	keystroke_s	s	n/a
293.833	0.075	587666	keystroke_c	c	n/a
294.103	0.09	588206	keystroke_r	r	n/a
294.268	0.104	588536	keystroke_i	i	n/a
294.432	0.105	588864	keystroke_b	b	n/a
294.687	0.1205	589374	keystroke_e	e	n/a
294.9275	0.09	589855	keystroke_Key.space	Key.space	n/a
295.2725	0.1055	590545	keystroke_o	o	n/a
296.038	0.12	592076	keystroke_x	x	n/a
296.383	0.075	592766	keystroke_y	y	n/a
296.578	0.09	593156	keystroke_g	g	n/a
296.773	0.09	593546	keystroke_e	e	n/a
297.073	0.09	594146	keystroke_n	n	n/a
297.673	0.09	595346	keystroke_Key.space	Key.space	n/a
297.868	0.09	595736	keystroke_d	d	n/a
298.063	0.09	596126	keystroke_e	e	n/a
298.183	0.12	596366	keystroke_p	p	n/a
298.347	0.1205	596694	keystroke_a	a	n/a
298.6175	0.06	597235	keystroke_r	r	n/a
298.8275	0.06	597655	keystroke_t	t	n/a
299.0225	0.105	598045	keystroke_m	m	n/a
299.1575	0.1045	598315	keystroke_e	e	n/a
299.292	0.1055	598584	keystroke_n	n	n/a
299.443	0.09	598886	keystroke_t	t	n/a
300.2675	0.06	600535	keystroke_s	s	n/a
300.553	0.06	601106	keystroke_Key.enter	Key.enter	n/a
300.6175	11.0515	601235	prompt	n/a	hearing management ceramic russia\n
301.4075	0.12	602815	keystroke_h	h	n/a
301.5575	0.105	603115	keystroke_e	e	n/a
301.8125	0.0905	603625	keystroke_a	a	n/a
302.023	0.06	604046	keystroke_r	r	n/a
302.158	0.105	604316	keystroke_i	i	n/a
302.278	0.135	604556	keystroke_n	n	n/a
302.428	0.075	604856	keystroke_g	g	n/a
302.532	0.106	605064	keystroke_Key.space	Key.space	n/a
302.8925	0.075	605785	keystroke_m	m	n/a
302.9825	0.09	605965	keystroke_a	a	n/a
303.1175	0.105	606235	keystroke_n	n	n/a
303.2375	0.09	606475	keystroke_a	a	n/a
303.5525	0.075	607105	keystroke_g	g	n/a
303.7775	0.06	607555	keystroke_e	e	n/a
303.9275	0.105	607855	keystroke_m	m	n/a
304.0475	0.09	608095	keystroke_e	e	n/a
304.2125	0.12	608425	keystroke_n	n	n/a
304.3475	0.075	608695	keystroke_t	t	n/a
304.5875	0.105	609175	keystroke_Key.space	Key.space	n/a
305.0375	0.105	610075	keystroke_c	c	n/a
305.3075	0.165	610615	keystroke_e	e	n/a
305.5625	0.075	611125	keystroke_r	r	n/a
305.9225	0.09	611845	keystroke_a	a	n/a
306.1475	0.105	612295	keystroke_m	m	n/a
306.373	0.075	612746	keystroke_i	i	n/a
306.613	0.075	613226	keystroke_c	c	n/a
307.0775	0.075	614155	keystroke_Key.space	Key.space	n/a
307.3925	0.09	614785	keystroke_r	r	n/a
307.6475	0.12	615295	keystroke_s	s	n/a
307.8875	0.09	615775	keystroke_u	u	n/a
308.113	0.09	616226	keystroke_s	s	n/a
308.338	0.0745	616676	keystroke_s	s	n/a
309.2975	0.075	618595	keystroke_Key.backspace	Key.backspace	n/a
309.5675	0.045	619135	keystroke_Key.backspace	Key.backspace	n/a
309.8525	0.045	619705	keystroke_Key.backspace	Key.backspace	n/a
310.093	0.06	620186	keystroke_Key.backspace	Key.backspace	n/a
310.543	0.1045	621086	keystroke_u	u	n/a
310.723	0.074	621446	keystroke_s	s	n/a
310.902	0.091	621804	keystroke_s	s	n/a
311.082	0.106	622164	keystroke_i	i	n/a
311.278	0.0895	622556	keystroke_a	a	n/a
311.6075	0.06	623215	keystroke_Key.enter	Key.enter	n/a
311.672	10.077	623344	prompt	n/a	expressions stroke permits satin\n
312.3425	0.09	624685	keystroke_e	e	n/a
312.6875	0.12	625375	keystroke_x	x	n/a
312.8525	0.135	625705	keystroke_p	p	n/a
313.1225	0.12	626245	keystroke_r	r	n/a
313.3325	0.105	626665	keystroke_e	e	n/a
313.6025	0.075	627205	keystroke_s	s	n/a
313.7825	0.1055	627565	keystroke_s	s	n/a
313.948	0.105	627896	keystroke_i	i	n/a
314.098	0.135	628196	keystroke_o	o	n/a
314.218	0.12	628436	keystroke_n	n	n/a
314.368	0.105	628736	keystroke_s	s	n/a
314.548	0.105	629096	keystroke_Key.space	Key.space	n/a
314.773	0.12	629546	keystroke_s	s	n/a
315.253	0.089	630506	keystroke_r	r	n/a
315.973	0.0595	631946	keystroke_Key.backspace	Key.backspace	n/a
316.483	0.089	632966	keystroke_t	t	n/a
316.693	0.104	633386	keystroke_r	r	n/a
316.857	0.136	633714	keystroke_o	o	n/a
317.113	0.149	634226	keystroke_k	k	n/a
317.247	0.0905	634494	keystroke_e	e	n/a
317.488	0.1045	634976	keystroke_Key.space	Key.space	n/a
317.7275	0.1355	635455	keystroke_p	p	n/a
317.8775	0.105	635755	keystroke_e	e	n/a
318.0725	0.0895	636145	keystroke_r	r	n/a
318.283	0.105	636566	keystroke_m	m	n/a
318.522	0.12	637044	keystroke_i	i	n/a
318.717	0.09	637434	keystroke_t	t	n/a
319.198	0.089	638396	keystroke_s	s	n/a
319.437	0.12	638874	keystroke_Key.space	Key.space	n/a
319.6325	0.0895	639265	keystroke_s	s	n/a
320.5475	0.0755	641095	keystroke_a	a	n/a
320.892	0.09	641784	keystroke_t	t	n/a
321.043	0.119	642086	keystroke_i	i	n/a
321.283	0.104	642566	keystroke_n	n	n/a
321.673	0.074	643346	keystroke_Key.enter	Key.enter	n/a
321.7525	9.492	643505	prompt	n/a	leaders tracy tribe breed\n
322.453	0.09	644906	keystroke_l	l	n/a
322.573	0.075	645146	keystroke_e	e	n/a
322.768	0.09	645536	keystroke_a	a	n/a
323.2175	0.09	646435	keystroke_d	d	n/a
323.488	0.105	646976	keystroke_e	e	n/a
323.668	0.0895	647336	keystroke_r	r	n/a
323.923	0.09	647846	keystroke_s	s	n/a
324.073	0.075	648146	keystroke_Key.space	Key.space	n/a
324.403	0.075	648806	keystroke_t	t	n/a
324.613	0.075	649226	keystroke_r	r	n/a
324.838	0.09	649676	keystroke_a	a	n/a
325.078	0.105	650156	keystroke_c	c	n/a
325.378	0.09	650756	keystroke_y	y	n/a
325.513	0.12	651026	keystroke_Key.space	Key.space	n/a
325.7525	0.075	651505	keystroke_t	t	n/a
325.9475	0.09	651895	keystroke_r	r	n/a
326.1275	0.12	652255	keystroke_i	i	n/a
327.448	0.09	654896	keystroke_b	b	n/a
327.913	0.075	655826	keystroke_e	e	n/a
328.183	0.0895	656366	keystroke_Key.space	Key.space	n/a
328.5125	0.06	657025	keystroke_b	b	n/a
328.7675	0.076	657535	keystroke_r	r	n/a
328.9625	0.076	657925	keystroke_e	e	n/a
329.1575	0.0605	658315	keystroke_e	e	n/a
329.263	0.045	658526	keystroke_e	e	n/a
329.8325	0.075	659665	keystroke_Key.backspace	Key.backspace	n/a
330.0425	0.06	660085	keystroke_d	d	n/a
331.1225	0.12	662245	keystroke_Key.enter	Key.enter	n/a
331.25	10.195	662500	prompt	n/a	warrant deleted knives permission\n
331.9925	0.075	663985	keystroke_w	w	n/a
332.1725	0.12	664345	keystroke_a	a	n/a
332.413	0.06	664826	keystroke_r	r	n/a
332.548	0.075	665096	keystroke_r	r	n/a
332.728	0.1345	665456	keystroke_a	a	n/a
332.878	0.09	665756	keystroke_n	n	n/a
332.998	0.09	665996	keystroke_t	t	n/a
333.133	0.105	666266	keystroke_Key.space	Key.space	n/a
333.388	0.075	666776	keystroke_d	d	n/a
333.628	0.06	667256	keystroke_e	e	n/a
333.748	0.12	667496	keystroke_l	l	n/a
333.943	0.09	667886	keystroke_e	e	n/a
334.243	0.0595	668486	keystroke_t	t	n/a
334.3925	0.105	668785	keystroke_e	e	n/a
334.6775	0.12	669355	keystroke_d	d	n/a
334.8425	0.075	669685	keystroke_Key.space	Key.space	n/a
335.0825	0.105	670165	keystroke_k	k	n/a
335.2775	0.12	670555	keystroke_n	n	n/a
335.518	0.1195	671036	keystroke_o	o	n/a
335.6975	0.12	671395	keystroke_v	v	n/a
336.0125	0.09	672025	keystroke_e	e	n/a
336.4775	0.075	672955	keystroke_Key.backspace	Key.backspace	n/a
336.7625	0.075	673525	keystroke_Key.backspace	Key.backspace	n/a
337.0325	0.09	674065	keystroke_Key.backspace	Key.backspace	n/a
337.3475	0.12	674695	keystroke_i	i	n/a
337.4375	0.105	674875	keystroke_v	v	n/a
337.6625	0.09	675325	keystroke_e	e	n/a
337.8725	0.06	675745	keystroke_r	r	n/a
338.532	0.0755	677064	keystroke_Key.backspace	Key.backspace	n/a
338.6535	0.1195	677307	keystroke_s	s	n/a
338.938	0.105	677876	keystroke_Key.space	Key.space	n/a
339.358	0.12	678716	keystroke_p	p	n/a
339.508	0.105	679016	keystroke_e	e	n/a
339.688	0.105	679376	keystroke_r	r	n/a
339.898	0.105	679796	keystroke_m	m	n/a
340.138	0.075	680276	keystroke_i	i	n/a
340.2875	0.075	680575	keystroke_s	s	n/a
340.4825	0.09	680965	keystroke_s	s	n/a
340.6625	0.105	681325	keystroke_i	i	n/a
340.8425	0.18	681685	keystroke_o	o	n/a
341.0075	0.1355	682015	keystroke_n	n	n/a
341.353	0.09	682706	keystroke_Key.enter	Key.enter	n/a
341.4485	9.881	682897	prompt	n/a	mountains chicago authority barriers\n
342.103	0.09	684206	keystroke_m	m	n/a
342.313	0.1045	684626	keystroke_o	o	n/a
342.4935	0.089	684987	keystroke_u	u	n/a
342.7325	0.105	685465	keystroke_n	n	n/a
342.8825	0.075	685765	keystroke_t	t	n/a
343.0925	0.105	686185	keystroke_a	a	n/a
343.2275	0.12	686455	keystroke_i	i	n/a
343.4225	0.135	686845	keystroke_n	n	n/a
343.5875	0.105	687175	keystroke_s	s	n/a
343.7375	0.1205	687475	keystroke_Key.space	Key.space	n/a
343.978	0.09	687956	keystroke_c	c	n/a
344.143	0.105	688286	keystroke_h	h	n/a
344.368	0.105	688736	keystroke_i	i	n/a
344.908	0.09	689816	keystroke_c	c	n/a
345.4025	0.105	690805	keystroke_a	a	n/a
345.673	0.075	691346	keystroke_g	g	n/a
345.808	0.09	691616	keystroke_o	o	n/a
346.033	0.09	692066	keystroke_Key.space	Key.space	n/a
346.183	0.135	692366	keystroke_a	a	n/a
346.423	0.09	692846	keystroke_u	u	n/a
346.6325	0.09	693265	keystroke_t	t	n/a
346.8275	0.105	693655	keystroke_h	h	n/a
348.538	0.105	697076	keystroke_o	o	n/a
348.703	0.09	697406	keystroke_r	r	n/a
348.883	0.09	697766	keystroke_i	i	n/a
348.988	0.09	697976	keystroke_t	t	n/a
349.153	0.12	698306	keystroke_y	y	n/a
349.288	0.12	698576	keystroke_Key.space	Key.space	n/a
349.513	0.075	699026	keystroke_b	b	n/a
349.693	0.09	699386	keystroke_a	a	n/a
349.903	0.06	699806	keystroke_r	r	n/a
350.068	0.06	700136	keystroke_r	r	n/a
350.278	0.09	700556	keystroke_i	i	n/a
350.4725	0.09	700945	keystroke_e	e	n/a
350.6825	0.0755	701365	keystroke_r	r	n/a
350.9825	0.06	701965	keystroke_s	s	n/a
351.253	0.075	702506	keystroke_Key.enter	Key.enter	n/a
351.3325	10.152	702665	prompt	n/a	decorating showed waiver waterproof\n
351.8975	0.091	703795	keystroke_d	d	n/a
352.1235	0.045	704247	keystroke_e	e	n/a
352.378	0.075	704756	keystroke_o	o	n/a
353.083	0.075	706166	keystroke_Key.backspace	Key.backspace	n/a
353.173	0.105	706346	keystroke_c	c	n/a
353.4275	0.105	706855	keystroke_o	o	n/a
353.6825	0.075	707365	keystroke_r	r	n/a
353.9075	0.1205	707815	keystroke_a	a	n/a
354.1635	0.06	708327	keystroke_t	t	n/a
354.2685	0.1645	708537	keystroke_i	i	n/a
354.418	0.15	708836	keystroke_n	n	n/a
355.063	0.075	710126	keystroke_g	g	n/a
355.213	0.135	710426	keystroke_Key.space	Key.space	n/a
355.468	0.105	710936	keystroke_s	s	n/a
355.618	0.105	711236	keystroke_h	h	n/a
355.7835	0.12	711567	keystroke_o	o	n/a
355.9335	0.09	711867	keystroke_w	w	n/a
356.158	0.1505	712316	keystroke_e	e	n/a
356.4135	0.09	712827	keystroke_d	d	n/a
356.5635	0.105	713127	keystroke_Key.space	Key.space	n/a
356.7735	0.09	713547	keystroke_w	w	n/a
356.9985	0.12	713997	keystroke_a	a	n/a
357.2235	0.09	714447	keystroke_i	i	n/a
357.3735	0.1195	714747	keystroke_v	v	n/a
357.628	0.135	715256	keystroke_e	e	n/a
357.793	0.09	715586	keystroke_r	r	n/a
357.868	0.135	715736	keystroke_Key.space	Key.space	n/a
358.093	0.105	716186	keystroke_w	w	n/a
358.303	0.1505	716606	keystroke_a	a	n/a
358.5735	0.09	717147	keystroke_t	t	n/a
358.7525	0.105	717505	keystroke_e	e	n/a
358.9485	0.059	717897	keystroke_r	r	n/a
359.3825	0.106	718765	keystroke_p	p	n/a
359.6525	0.09	719305	keystroke_r	r	n/a
360.1325	0.0605	720265	keystroke_o	o	n/a
360.343	0.045	720686	keystroke_o	o	n/a
360.538	0.075	721076	keystroke_f	f	n/a
361.393	0.09	722786	keystroke_Key.enter	Key.enter	n/a
361.4875	35.0605	722975	prompt	n/a	risk lighter regulation value\n
390.7425	0.043	781485	keystroke_r	r	n/a
390.8305	0.0905	781661	keystroke_i	i	n/a
391.0715	0.135	782143	keystroke_s	s	n/a
391.2515	0.075	782503	keystroke_k	k	n/a
391.8965	0.12	783793	keystroke_Key.space	Key.space	n/a
392.1215	0.15	784243	keystroke_l	l	n/a
392.3615	0.1345	784723	keystroke_i	i	n/a
392.4815	0.0745	784963	keystroke_g	g	n/a
392.616	0.12	785232	keystroke_h	h	n/a
392.721	0.075	785442	keystroke_t	t	n/a
392.901	0.105	785802	keystroke_e	e	n/a
393.066	0.0755	786132	keystroke_r	r	n/a
393.1425	0.1185	786285	keystroke_Key.space	Key.space	n/a
393.411	0.09	786822	keystroke_r	r	n/a
393.6065	0.1345	787213	keystroke_e	e	n/a
393.876	0.09	787752	keystroke_g	g	n/a
394.0415	0.075	788083	keystroke_u	u	n/a
394.266	0.105	788532	keystroke_l	l	n/a
394.356	0.105	788712	keystroke_a	a	n/a
394.581	0.09	789162	keystroke_t	t	n/a
394.701	0.09	789402	keystroke_i	i	n/a
394.821	0.15	789642	keystroke_o	o	n/a
394.941	0.1505	789882	keystroke_n	n	n/a
395.1515	0.105	790303	keystroke_Key.space	Key.space	n/a
395.437	0.075	790874	keystroke_v	v	n/a
395.587	0.104	791174	keystroke_a	a	n/a
395.721	0.12	791442	keystroke_l	l	n/a
395.992	0.089	791984	keystroke_u	u	n/a
396.141	0.076	792282	keystroke_e	e	n/a
396.4415	0.1045	792883	keystroke_Key.enter	Key.enter	n/a
396.551	13.0025	793102	prompt	n/a	primarily promptly remarkable trailers\n
397.2965	0.15	794593	keystroke_p	p	n/a
397.4615	0.105	794923	keystroke_r	r	n/a
397.5965	0.09	795193	keystroke_i	i	n/a
398.0015	0.09	796003	keystroke_m	m	n/a
398.1365	0.105	796273	keystroke_a	a	n/a
398.392	0.0745	796784	keystroke_r	r	n/a
398.9465	0.06	797893	keystroke_i	i	n/a
399.201	0.1205	798402	keystroke_l	l	n/a
399.531	0.09	799062	keystroke_y	y	n/a
399.681	0.12	799362	keystroke_Key.space	Key.space	n/a
399.9505	0.1505	799901	keystroke_p	p	n/a
400.131	0.1045	800262	keystroke_r	r	n/a
400.2505	0.12	800501	keystroke_o	o	n/a
400.611	0.135	801222	keystroke_m	m	n/a
400.851	0.105	801702	keystroke_p	p	n/a
401.151	0.135	802302	keystroke_l	l	n/a
402.051	0.09	804102	keystroke_Key.backspace	Key.backspace	n/a
402.201	0.06	804402	keystroke_t	t	n/a
402.892	0.134	805784	keystroke_l	l	n/a
403.222	0.119	806444	keystroke_y	y	n/a
403.446	0.135	806892	keystroke_Key.space	Key.space	n/a
403.746	0.075	807492	keystroke_r	r	n/a
403.911	0.105	807822	keystroke_e	e	n/a
404.091	0.105	808182	keystroke_m	m	n/a
404.4965	0.0895	808993	keystroke_a	a	n/a
404.737	0.06	809474	keystroke_r	r	n/a
405.2165	0.105	810433	keystroke_k	k	n/a
406.297	0.09	812594	keystroke_a	a	n/a
406.582	0.059	813164	keystroke_b	b	n/a
406.792	0.1045	813584	keystroke_l	l	n/a
406.9565	0.075	813913	keystroke_e	e	n/a
407.1515	0.105	814303	keystroke_Key.space	Key.space	n/a
407.5565	0.045	815113	keystroke_t	t	n/a
407.7365	0.06	815473	keystroke_r	r	n/a
408.0365	0.075	816073	keystroke_a	a	n/a
408.2165	0.06	816433	keystroke_i	i	n/a
408.4415	0.1055	816883	keystroke_l	l	n/a
408.6215	0.1055	817243	keystroke_e	e	n/a
408.8925	0.075	817785	keystroke_r	r	n/a
409.192	0.075	818384	keystroke_s	s	n/a
409.4775	0.0745	818955	keystroke_Key.enter	Key.enter	n/a
409.5565	8.3675	819113	prompt	n/a	holmes word raid duke\n
410.272	0.075	820544	keystroke_h	h	n/a
410.407	0.12	820814	keystroke_o	o	n/a
410.6615	0.121	821323	keystroke_m	m	n/a
411.547	0.06	823094	keystroke_Key.backspace	Key.backspace	n/a
411.892	0.105	823784	keystroke_l	l	n/a
412.222	0.09	824444	keystroke_m	m	n/a
412.357	0.075	824714	keystroke_e	e	n/a
412.597	0.0895	825194	keystroke_s	s	n/a
412.8365	0.0905	825673	keystroke_Key.space	Key.space	n/a
413.122	0.075	826244	keystroke_w	w	n/a
413.242	0.09	826484	keystroke_o	o	n/a
413.407	0.075	826814	keystroke_r	r	n/a
413.557	0.09	827114	keystroke_k	k	n/a
413.8115	0.0755	827623	keystroke_d	d	n/a
414.322	0.045	828644	keystroke_Key.backspace	Key.backspace	n/a
414.4725	0.0445	828945	keystroke_Key.backspace	Key.backspace	n/a
415.2965	0.075	830593	keystroke_d	d	n/a
415.8215	0.075	831643	keystroke_Key.space	Key.space	n/a
416.1365	0.06	832273	keystroke_r	r	n/a
416.3315	0.12	832663	keystroke_a	a	n/a
416.4815	0.091	832963	keystroke_i	i	n/a
416.6325	0.0895	833265	keystroke_d	d	n/a
416.767	0.09	833534	keystroke_Key.space	Key.space	n/a
416.902	0.12	833804	keystroke_d	d	n/a
417.112	0.09	834224	keystroke_u	u	n/a
417.397	0.1045	834794	keystroke_k	k	n/a
417.562	0.075	835124	keystroke_e	e	n/a
417.847	0.075	835694	keystroke_Key.enter	Key.enter	n/a
417.927	12.102	835854	prompt	n/a	relatively sacramento yellow innovations\n
418.7175	0.105	837435	keystroke_r	r	n/a
418.9275	0.105	837855	keystroke_e	e	n/a
419.1075	0.105	838215	keystroke_l	l	n/a
419.3175	0.09	838635	keystroke_a	a	n/a
419.572	0.0745	839144	keystroke_t	t	n/a
419.8125	0.075	839625	keystroke_i	i	n/a
419.9765	0.091	839953	keystroke_v	v	n/a
420.3215	0.091	840643	keystroke_e	e	n/a
420.6225	0.104	841245	keystroke_l	l	n/a
421.0125	0.105	842025	keystroke_y	y	n/a
421.2375	0.165	842475	keystroke_Key.space	Key.space	n/a
421.6725	0.09	843345	keystroke_s	s	n/a
421.9725	0.09	843945	keystroke_a	a	n/a
422.2875	0.0895	844575	keystroke_c	c	n/a
422.618	0.0735	845236	keystroke_r	r	n/a
422.8715	0.105	845743	keystroke_a	a	n/a
423.1575	0.09	846315	keystroke_m	m	n/a
423.3075	0.105	846615	keystroke_e	e	n/a
423.4565	0.075	846913	keystroke_n	n	n/a
423.727	0.016	847454	keystroke_t	t	n/a
423.802	0.12	847604	keystroke_o	o	n/a
424.027	0.105	848054	keystroke_Key.space	Key.space	n/a
424.342	0.12	848684	keystroke_y	y	n/a
424.5075	0.09	849015	keystroke_e	e	n/a
425.1525	0.075	850305	keystroke_l	l	n/a
425.3325	0.09	850665	keystroke_l	l	n/a
425.5725	0.075	851145	keystroke_o	o	n/a
426.3375	0.09	852675	keystroke_w	w	n/a
426.6075	0.075	853215	keystroke_Key.space	Key.space	n/a
427.148	0.09	854296	keystroke_i	i	n/a
427.358	0.0595	854716	keystroke_n	n	n/a
427.897	0.075	855794	keystroke_n	n	n/a
428.167	0.106	856334	keystroke_o	o	n/a
428.393	0.09	856786	keystroke_v	v	n/a
428.588	0.105	857176	keystroke_a	a	n/a
428.8725	0.075	857745	keystroke_t	t	n/a
429.0225	0.09	858045	keystroke_i	i	n/a
429.1875	0.18	858375	keystroke_o	o	n/a
429.3225	0.12	858645	keystroke_n	n	n/a
429.503	0.09	859006	keystroke_s	s	n/a
429.953	0.075	859906	keystroke_Key.enter	Key.enter	n/a
430.0325	10.617	860065	prompt	n/a	boston diabetes sugar initiatives\n
430.718	0.09	861436	keystroke_b	b	n/a
430.838	0.09	861676	keystroke_o	o	n/a
430.988	0.105	861976	keystroke_s	s	n/a
431.213	0.0745	862426	keystroke_t	t	n/a
431.3325	0.105	862665	keystroke_o	o	n/a
431.8425	0.1055	863685	keystroke_n	n	n/a
432.128	0.075	864256	keystroke_Key.space	Key.space	n/a
432.5185	0.105	865037	keystroke_d	d	n/a
432.6825	0.06	865365	keystroke_i	i	n/a
432.8335	0.105	865667	keystroke_a	a	n/a
433.1035	0.089	866207	keystroke_b	b	n/a
433.343	0.075	866686	keystroke_e	e	n/a
433.553	0.135	867106	keystroke_t	t	n/a
433.7925	0.12	867585	keystroke_e	e	n/a
434.1525	0.0905	868305	keystroke_s	s	n/a
434.363	0.09	868726	keystroke_Key.space	Key.space	n/a
434.558	0.09	869116	keystroke_s	s	n/a
434.738	0.075	869476	keystroke_u	u	n/a
434.933	0.105	869866	keystroke_g	g	n/a
435.8625	0.075	871725	keystroke_a	a	n/a
436.148	0.06	872296	keystroke_r	r	n/a
436.358	0.09	872716	keystroke_Key.space	Key.space	n/a
436.583	0.09	873166	keystroke_i	i	n/a
436.718	0.105	873436	keystroke_n	n	n/a
437.903	0.105	875806	keystroke_i	i	n/a
438.158	0.075	876316	keystroke_t	t	n/a
438.443	0.045	876886	keystroke_i	i	n/a
439.208	0.09	878416	keystroke_a	a	n/a
439.463	0.0595	878926	keystroke_t	t	n/a
439.5825	0.09	879165	keystroke_i	i	n/a
439.7335	0.104	879467	keystroke_v	v	n/a
439.9885	0.089	879977	keystroke_e	e	n/a
440.2735	0.074	880547	keystroke_s	s	n/a
440.5885	0.0595	881177	keystroke_Key.enter	Key.enter	n/a
440.6525	9.6575	881305	prompt	n/a	patient msgid plains configure\n
441.2935	0.1195	882587	keystroke_p	p	n/a
441.3985	0.1195	882797	keystroke_a	a	n/a
441.653	0.075	883306	keystroke_t	t	n/a
441.758	0.075	883516	keystroke_i	i	n/a
441.878	0.0905	883756	keystroke_e	e	n/a
442.0285	0.105	884057	keystroke_n	n	n/a
442.2835	0.075	884567	keystroke_t	t	n/a
442.448	0.075	884896	keystroke_Key.space	Key.space	n/a
442.748	0.0905	885496	keystroke_m	m	n/a
442.9435	0.089	885887	keystroke_s	s	n/a
443.9335	0.104	887867	keystroke_g	g	n/a
444.1585	0.09	888317	keystroke_i	i	n/a
444.323	0.09	888646	keystroke_d	d	n/a
444.7435	0.09	889487	keystroke_Key.space	Key.space	n/a
444.983	0.075	889966	keystroke_p	p	n/a
445.208	0.12	890416	keystroke_l	l	n/a
445.388	0.09	890776	keystroke_a	a	n/a
446.3165	0.045	892633	keystroke_i	i	n/a
446.4975	0.0755	892995	keystroke_n	n	n/a
446.813	0.09	893626	keystroke_s	s	n/a
447.578	0.105	895156	keystroke_Key.space	Key.space	n/a
447.938	0.12	895876	keystroke_c	c	n/a
448.088	0.12	896176	keystroke_o	o	n/a
448.313	0.06	896626	keystroke_n	n	n/a
448.4035	0.09	896807	keystroke_f	f	n/a
448.6135	0.06	897227	keystroke_i	i	n/a
448.8835	0.074	897767	keystroke_g	g	n/a
449.0925	0.091	898185	keystroke_u	u	n/a
449.2725	0.091	898545	keystroke_r	r	n/a
449.798	0.09	899596	keystroke_e	e	n/a
450.218	0.09	900436	keystroke_Key.enter	Key.enter	n/a
450.3125	14.862	900625	prompt	n/a	distributed doom buried means\n
450.8635	0.105	901727	keystroke_d	d	n/a
451.1485	0.06	902297	keystroke_i	i	n/a
451.688	0.105	903376	keystroke_s	s	n/a
451.943	0.09	903886	keystroke_t	t	n/a
452.153	0.0755	904306	keystroke_r	r	n/a
452.4385	0.12	904877	keystroke_u	u	n/a
452.5735	0.09	905147	keystroke_b	b	n/a
452.9185	0.075	905837	keystroke_t	t	n/a
453.1585	0.09	906317	keystroke_e	e	n/a
453.5935	0.06	907187	keystroke_d	d	n/a
454.028	0.075	908056	keystroke_Key.backspace	Key.backspace	n/a
454.223	0.0595	908446	keystroke_Key.backspace	Key.backspace	n/a
454.3575	0.0455	908715	keystroke_Key.backspace	Key.backspace	n/a
456.0975	0.1045	912195	keystroke_Key.backspace	Key.backspace	n/a
456.503	0.075	913006	keystroke_Key.backspace	Key.backspace	n/a
457.583	0.0605	915166	keystroke_i	i	n/a
457.8985	0.075	915797	keystroke_b	b	n/a
458.153	0.1205	916306	keystroke_u	u	n/a
458.348	0.075	916696	keystroke_t	t	n/a
458.7835	0.06	917567	keystroke_e	e	n/a
459.0085	0.075	918017	keystroke_d	d	n/a
459.143	0.09	918286	keystroke_Key.space	Key.space	n/a
459.323	0.105	918646	keystroke_d	d	n/a
459.5635	0.089	919127	keystroke_o	o	n/a
459.8025	0.0905	919605	keystroke_o	o	n/a
460.073	0.12	920146	keystroke_m	m	n/a
460.298	0.09	920596	keystroke_Key.space	Key.space	n/a
460.7485	0.105	921497	keystroke_b	b	n/a
460.9585	0.135	921917	keystroke_u	u	n/a
461.1085	0.075	922217	keystroke_r	r	n/a
461.9035	0.075	923807	keystroke_e	e	n/a
462.5185	0.075	925037	keystroke_Key.backspace	Key.backspace	n/a
462.8335	0.105	925667	keystroke_i	i	n/a
462.9835	0.09	925967	keystroke_e	e	n/a
463.2235	0.105	926447	keystroke_d	d	n/a
463.3435	0.105	926687	keystroke_Key.space	Key.space	n/a
463.7485	0.105	927497	keystroke_m	m	n/a
464.003	0.075	928006	keystroke_e	e	n/a
464.273	0.0905	928546	keystroke_a	a	n/a
464.4235	0.09	928847	keystroke_n	n	n/a
464.5885	0.089	929177	keystroke_s	s	n/a
465.0825	0.09	930165	keystroke_Key.enter	Key.enter	n/a
465.1795	10.7505	930359	prompt	n/a	oclc industrial logo cordless\n
465.863	0.045	931726	keystroke_o	o	n/a
466.1025	0.09	932205	keystroke_c	c	n/a
466.3575	0.105	932715	keystroke_l	l	n/a
466.6875	0.075	933375	keystroke_c	c	n/a
467.303	0.0755	934606	keystroke_Key.space	Key.space	n/a
467.5885	0.0745	935177	keystroke_i	i	n/a
467.723	0.105	935446	keystroke_n	n	n/a
467.873	0.045	935746	keystroke_d	d	n/a
469.103	0.105	938206	keystroke_u	u	n/a
469.238	0.105	938476	keystroke_s	s	n/a
469.508	0.06	939016	keystroke_t	t	n/a
469.688	0.09	939376	keystroke_r	r	n/a
469.928	0.075	939856	keystroke_i	i	n/a
471.383	0.06	942766	keystroke_r	r	n/a
472.0735	0.045	944147	keystroke_Key.backspace	Key.backspace	n/a
472.3885	0.075	944777	keystroke_a	a	n/a
472.5685	0.045	945137	keystroke_l	l	n/a
473.1085	0.09	946217	keystroke_Key.space	Key.space	n/a
473.3485	0.09	946697	keystroke_l	l	n/a
473.5435	0.105	947087	keystroke_o	o	n/a
473.6635	0.075	947327	keystroke_g	g	n/a
473.8435	0.09	947687	keystroke_o	o	n/a
474.0385	0.075	948077	keystroke_Key.space	Key.space	n/a
474.2785	0.075	948557	keystroke_c	c	n/a
474.3685	0.09	948737	keystroke_o	o	n/a
474.5935	0.06	949187	keystroke_r	r	n/a
474.8785	0.045	949757	keystroke_d	d	n/a
475.0885	0.09	950177	keystroke_l	l	n/a
475.2685	0.045	950537	keystroke_e	e	n/a
475.5085	0.03	951017	keystroke_s	s	n/a
475.6285	0.06	951257	keystroke_s	s	n/a
475.8535	0.075	951707	keystroke_Key.enter	Key.enter	n/a
475.933	10.1825	951866	prompt	n/a	bits richardson diamond turbo\n
476.7535	0.105	953507	keystroke_i	i	n/a
477.4435	0.06	954887	keystroke_=	=	n/a
478.2685	0.06	956537	keystroke_Key.backspace	Key.backspace	n/a
478.3885	0.06	956777	keystroke_Key.backspace	Key.backspace	n/a
478.6285	0.09	957257	keystroke_b	b	n/a
478.8685	0.12	957737	keystroke_i	i	n/a
479.0935	0.06	958187	keystroke_t	t	n/a
479.3485	0.06	958697	keystroke_s	s	n/a
480.2635	0.105	960527	keystroke_Key.space	Key.space	n/a
480.5485	0.09	961097	keystroke_r	r	n/a
480.7135	0.105	961427	keystroke_i	i	n/a
480.8785	0.0905	961757	keystroke_c	c	n/a
481.029	0.09	962058	keystroke_h	h	n/a
481.149	0.09	962298	keystroke_a	a	n/a
481.374	0.06	962748	keystroke_r	r	n/a
481.614	0.075	963228	keystroke_d	d	n/a
481.854	0.0745	963708	keystroke_s	s	n/a
482.0185	0.09	964037	keystroke_o	o	n/a
482.1535	0.09	964307	keystroke_n	n	n/a
482.3335	0.075	964667	keystroke_Key.space	Key.space	n/a
482.4835	0.1055	964967	keystroke_d	d	n/a
482.634	0.06	965268	keystroke_i	i	n/a
482.859	0.075	965718	keystroke_a	a	n/a
482.964	0.105	965928	keystroke_m	m	n/a
483.504	0.135	967008	keystroke_o	o	n/a
483.684	0.0905	967368	keystroke_n	n	n/a
483.8495	0.09	967699	keystroke_d	d	n/a
484.0135	0.075	968027	keystroke_Key.space	Key.space	n/a
484.3145	0.074	968629	keystroke_t	t	n/a
484.4935	0.09	968987	keystroke_u	u	n/a
484.6135	0.061	969227	keystroke_r	r	n/a
485.0035	0.0905	970007	keystroke_b	b	n/a
485.154	0.09	970308	keystroke_o	o	n/a
486.0395	0.074	972079	keystroke_Key.enter	Key.enter	n/a
486.119	10.2715	972238	prompt	n/a	washing healthy buyer transparent\n
486.729	0.09	973458	keystroke_w	w	n/a
486.9535	0.09	973907	keystroke_a	a	n/a
487.1635	0.105	974327	keystroke_s	s	n/a
487.3135	0.09	974627	keystroke_h	h	n/a
487.4945	0.134	974989	keystroke_i	i	n/a
487.6435	0.1055	975287	keystroke_n	n	n/a
487.794	0.0895	975588	keystroke_g	g	n/a
487.9135	0.105	975827	keystroke_Key.space	Key.space	n/a
488.3035	0.105	976607	keystroke_h	h	n/a
488.4235	0.075	976847	keystroke_e	e	n/a
488.634	0.105	977268	keystroke_a	a	n/a
488.754	0.165	977508	keystroke_l	l	n/a
489.0085	0.09	978017	keystroke_t	t	n/a
489.234	0.09	978468	keystroke_h	h	n/a
489.5495	0.06	979099	keystroke_y	y	n/a
489.999	0.075	979998	keystroke_Key.space	Key.space	n/a
490.404	0.1055	980808	keystroke_b	b	n/a
490.569	0.075	981138	keystroke_u	u	n/a
490.8395	0.075	981679	keystroke_y	y	n/a
491.064	0.1055	982128	keystroke_e	e	n/a
491.2895	0.075	982579	keystroke_r	r	n/a
491.499	0.075	982998	keystroke_Key.space	Key.space	n/a
491.7385	0.06	983477	keystroke_t	t	n/a
491.9185	0.075	983837	keystroke_r	r	n/a
492.264	0.06	984528	keystroke_a	a	n/a
493.254	0.105	986508	keystroke_n	n	n/a
493.404	0.105	986808	keystroke_s	s	n/a
493.764	0.135	987528	keystroke_p	p	n/a
493.944	0.075	987888	keystroke_a	a	n/a
494.169	0.075	988338	keystroke_r	r	n/a
495.564	0.075	991128	keystroke_e	e	n/a
495.7445	0.0895	991489	keystroke_n	n	n/a
495.924	0.1055	991848	keystroke_t	t	n/a
496.3145	0.075	992629	keystroke_Key.enter	Key.enter	n/a
496.3935	8.6825	992787	prompt	n/a	pork challenging falling restoration\n
497.1095	0.09	994219	keystroke_p	p	n/a
497.319	0.09	994638	keystroke_o	o	n/a
497.484	0.075	994968	keystroke_r	r	n/a
497.679	0.09	995358	keystroke_k	k	n/a
497.964	0.0905	995928	keystroke_Key.space	Key.space	n/a
498.1735	0.0915	996347	keystroke_c	c	n/a
498.34	0.1045	996680	keystroke_h	h	n/a
498.4295	0.09	996859	keystroke_a	a	n/a
499.36	0.06	998720	keystroke_l	l	n/a
499.5235	0.0765	999047	keystroke_l	l	n/a
499.66	0.105	999320	keystroke_e	e	n/a
500.05	0.06	1000100	keystroke_n	n	n/a
500.23	0.075	1000460	keystroke_g	g	n/a
500.38	0.119	1000760	keystroke_i	i	n/a
500.529	0.106	1001058	keystroke_n	n	n/a
500.68	0.074	1001360	keystroke_g	g	n/a
500.769	0.1055	1001538	keystroke_Key.space	Key.space	n/a
501.0395	0.075	1002079	keystroke_f	f	n/a
501.2795	0.075	1002559	keystroke_a	a	n/a
501.429	0.0905	1002858	keystroke_l	l	n/a
501.5945	0.09	1003189	keystroke_l	l	n/a
501.834	0.15	1003668	keystroke_i	i	n/a
502.014	0.12	1004028	keystroke_n	n	n/a
502.194	0.105	1004388	keystroke_g	g	n/a
502.389	0.075	1004778	keystroke_Key.space	Key.space	n/a
502.734	0.0755	1005468	keystroke_r	r	n/a
502.9295	0.1205	1005859	keystroke_e	e	n/a
503.2295	0.1055	1006459	keystroke_s	s	n/a
503.47	0.09	1006940	keystroke_t	t	n/a
503.575	0.12	1007150	keystroke_o	o	n/a
503.725	0.074	1007450	keystroke_r	r	n/a
503.98	0.119	1007960	keystroke_a	a	n/a
504.219	0.075	1008438	keystroke_t	t	n/a
504.354	0.12	1008708	keystroke_i	i	n/a
504.489	0.1505	1008978	keystroke_o	o	n/a
504.6095	0.12	1009219	keystroke_n	n	n/a
504.9995	0.075	1009999	keystroke_Key.enter	Key.enter	n/a
505.079	8.292	1010158	prompt	n/a	knife grateful royal floyd\n
505.7795	0.09	1011559	keystroke_k	k	n/a
505.9895	0.105	1011979	keystroke_n	n	n/a
506.3045	0.12	1012609	keystroke_o	o	n/a
506.8745	0.075	1013749	keystroke_Key.backspace	Key.backspace	n/a
507.1445	0.105	1014289	keystroke_i	i	n/a
507.2495	0.0895	1014499	keystroke_f	f	n/a
507.459	0.06	1014918	keystroke_e	e	n/a
507.624	0.09	1015248	keystroke_Key.space	Key.space	n/a
507.864	0.075	1015728	keystroke_g	g	n/a
508.119	0.045	1016238	keystroke_r	r	n/a
508.314	0.1055	1016628	keystroke_a	a	n/a
509.035	0.075	1018070	keystroke_t	t	n/a
509.3045	0.075	1018609	keystroke_e	e	n/a
509.574	0.06	1019148	keystroke_f	f	n/a
509.799	0.09	1019598	keystroke_u	u	n/a
510.039	0.09	1020078	keystroke_l	l	n/a
510.3095	0.1045	1020619	keystroke_Key.space	Key.space	n/a
510.564	0.075	1021128	keystroke_r	r	n/a
510.654	0.075	1021308	keystroke_o	o	n/a
511.044	0.075	1022088	keystroke_y	y	n/a
511.254	0.1055	1022508	keystroke_a	a	n/a
511.4795	0.135	1022959	keystroke_l	l	n/a
511.689	0.0905	1023378	keystroke_Key.space	Key.space	n/a
511.8995	0.075	1023799	keystroke_f	f	n/a
512.0345	0.105	1024069	keystroke_l	l	n/a
512.2755	0.0895	1024551	keystroke_o	o	n/a
512.6795	0.105	1025359	keystroke_y	y	n/a
513.0095	0.075	1026019	keystroke_d	d	n/a
513.3395	0.03	1026679	keystroke_Key.enter	Key.enter	n/a
513.375	9.462	1026750	prompt	n/a	mobile daddy pursue pontiac\n
513.985	0.09	1027970	keystroke_m	m	n/a
514.18	0.09	1028360	keystroke_o	o	n/a
514.3145	0.1205	1028629	keystroke_b	b	n/a
514.465	0.06	1028930	keystroke_i	i	n/a
514.7495	0.09	1029499	keystroke_l	l	n/a
514.9295	0.075	1029859	keystroke_e	e	n/a
515.14	0.105	1030280	keystroke_Key.space	Key.space	n/a
515.53	0.045	1031060	keystroke_d	d	n/a
515.695	0.09	1031390	keystroke_a	a	n/a
516.2655	0.06	1032531	keystroke_d	d	n/a
516.4155	0.075	1032831	keystroke_d	d	n/a
516.685	0.105	1033370	keystroke_y	y	n/a
516.85	0.105	1033700	keystroke_Key.space	Key.space	n/a
517.135	0.105	1034270	keystroke_p	p	n/a
517.33	0.12	1034660	keystroke_u	u	n/a
517.48	0.075	1034960	keystroke_r	r	n/a
517.735	0.0905	1035470	keystroke_s	s	n/a
517.8995	0.09	1035799	keystroke_u	u	n/a
518.1845	0.09	1036369	keystroke_Key.space	Key.space	n/a
518.6945	0.12	1037389	keystroke_p	p	n/a
519.5045	0.06	1039009	keystroke_Key.backspace	Key.backspace	n/a
519.8045	0.06	1039609	keystroke_Key.backspace	Key.backspace	n/a
520.0595	0.075	1040119	keystroke_e	e	n/a
520.2395	0.075	1040479	keystroke_Key.space	Key.space	n/a
520.5995	0.135	1041199	keystroke_p	p	n/a
521.3955	0.09	1042791	keystroke_o	o	n/a
521.6205	0.09	1043241	keystroke_n	n	n/a
521.7855	0.09	1043571	keystroke_t	t	n/a
521.9205	0.0745	1043841	keystroke_i	i	n/a
522.055	0.1055	1044110	keystroke_a	a	n/a
522.3705	0.06	1044741	keystroke_c	c	n/a
522.745	0.09	1045490	keystroke_Key.enter	Key.enter	n/a
522.8405	15.5815	1045681	prompt	n/a	container measurement promising generated\n
523.585	0.06	1047170	keystroke_o	o	n/a
524.005	0.075	1048010	keystroke_Key.backspace	Key.backspace	n/a
524.215	0.12	1048430	keystroke_c	c	n/a
524.365	0.18	1048730	keystroke_o	o	n/a
525.0255	0.03	1050051	keystroke_n	n	n/a
525.3705	0.09	1050741	keystroke_t	t	n/a
525.6405	0.075	1051281	keystroke_a	a	n/a
525.8355	0.09	1051671	keystroke_i	i	n/a
526	0.135	1052000	keystroke_n	n	n/a
526.12	0.12	1052240	keystroke_e	e	n/a
526.315	0.09	1052630	keystroke_r	r	n/a
526.465	0.09	1052930	keystroke_Key.space	Key.space	n/a
526.72	0.075	1053440	keystroke_m	m	n/a
526.81	0.09	1053620	keystroke_e	e	n/a
527.395	0.06	1054790	keystroke_a	a	n/a
527.62	0.12	1055240	keystroke_s	s	n/a
527.845	0.075	1055690	keystroke_u	u	n/a
527.965	0.09	1055930	keystroke_r	r	n/a
528.16	0.09	1056320	keystroke_m	m	n/a
528.235	0.12	1056470	keystroke_e	e	n/a
528.4	0.12	1056800	keystroke_n	n	n/a
528.55	0.075	1057100	keystroke_t	t	n/a
528.685	0.09	1057370	keystroke_Key.space	Key.space	n/a
529.03	0.105	1058060	keystroke_p	p	n/a
529.18	0.075	1058360	keystroke_r	r	n/a
529.315	0.105	1058630	keystroke_o	o	n/a
530.29	0.075	1060580	keystroke_Key.backspace	Key.backspace	n/a
530.605	0.045	1061210	keystroke_Key.backspace	Key.backspace	n/a
530.845	0.0605	1061690	keystroke_Key.backspace	Key.backspace	n/a
531.1145	0.061	1062229	keystroke_Key.backspace	Key.backspace	n/a
531.3705	0.059	1062741	keystroke_Key.backspace	Key.backspace	n/a
531.6245	0.075	1063249	keystroke_Key.backspace	Key.backspace	n/a
531.8795	0.06	1063759	keystroke_Key.backspace	Key.backspace	n/a
532.0745	0.06	1064149	keystroke_Key.backspace	Key.backspace	n/a
532.5245	0.09	1065049	keystroke_e	e	n/a
532.8245	0.09	1065649	keystroke_m	m	n/a
533.0045	0.076	1066009	keystroke_e	e	n/a
533.1255	0.09	1066251	keystroke_n	n	n/a
533.2745	0.09	1066549	keystroke_t	t	n/a
533.53	0.09	1067060	keystroke_Key.space	Key.space	n/a
533.83	0.12	1067660	keystroke_p	p	n/a
533.98	0.09	1067960	keystroke_r	r	n/a
534.1145	0.121	1068229	keystroke_o	o	n/a
534.3705	0.12	1068741	keystroke_m	m	n/a
534.61	0.09	1069220	keystroke_i	i	n/a
534.745	0.075	1069490	keystroke_s	s	n/a
534.88	0.105	1069760	keystroke_i	i	n/a
535.075	0.09	1070150	keystroke_n	n	n/a
535.18	0.09	1070360	keystroke_g	g	n/a
535.345	0.075	1070690	keystroke_Key.space	Key.space	n/a
535.63	0.06	1071260	keystroke_g	g	n/a
535.855	0.06	1071710	keystroke_e	e	n/a
536.23	0.105	1072460	keystroke_n	n	n/a
536.47	0.105	1072940	keystroke_e	e	n/a
536.725	0.075	1073450	keystroke_r	r	n/a
536.995	0.105	1073990	keystroke_a	a	n/a
537.22	0.105	1074440	keystroke_t	t	n/a
537.43	0.105	1074860	keystroke_e	e	n/a
538.075	0.075	1076150	keystroke_d	d	n/a
538.36	0.06	1076720	keystroke_Key.enter	Key.enter	n/a
538.4255	11.637	1076851	prompt	n/a	wages perspective soccer appropriate\n
539.035	0.09	1078070	keystroke_w	w	n/a
539.245	0.12	1078490	keystroke_a	a	n/a
539.455	0.075	1078910	keystroke_g	g	n/a
539.65	0.09	1079300	keystroke_e	e	n/a
539.92	0.075	1079840	keystroke_s	s	n/a
540.1	0.09	1080200	keystroke_Key.space	Key.space	n/a
540.416	0.1045	1080832	keystroke_p	p	n/a
540.5355	0.105	1081071	keystroke_e	e	n/a
540.7605	0.0755	1081521	keystroke_r	r	n/a
541.0005	0.1045	1082001	keystroke_s	s	n/a
541.3455	0.15	1082691	keystroke_p	p	n/a
541.5105	0.09	1083021	keystroke_e	e	n/a
541.781	0.089	1083562	keystroke_c	c	n/a
542.035	0.061	1084070	keystroke_t	t	n/a
542.155	0.12	1084310	keystroke_i	i	n/a
542.291	0.0895	1084582	keystroke_v	v	n/a
542.5005	0.0895	1085001	keystroke_e	e	n/a
542.7705	0.09	1085541	keystroke_Key.space	Key.space	n/a
543.011	0.09	1086022	keystroke_s	s	n/a
543.191	0.105	1086382	keystroke_o	o	n/a
543.341	0.075	1086682	keystroke_c	c	n/a
543.491	0.09	1086982	keystroke_c	c	n/a
543.746	0.105	1087492	keystroke_e	e	n/a
543.941	0.075	1087882	keystroke_r	r	n/a
544.106	0.09	1088212	keystroke_Key.space	Key.space	n/a
544.301	0.09	1088602	keystroke_a	a	n/a
544.466	0.1045	1088932	keystroke_p	p	n/a
544.6605	0.09	1089321	keystroke_p	p	n/a
544.9005	0.105	1089801	keystroke_o	o	n/a
545.036	0.09	1090072	keystroke_r	r	n/a
546.686	0.09	1093372	keystroke_Key.backspace	Key.backspace	n/a
546.926	0.075	1093852	keystroke_Key.backspace	Key.backspace	n/a
547.511	0.075	1095022	keystroke_r	r	n/a
547.886	0.09	1095772	keystroke_o	o	n/a
548.231	0.135	1096462	keystroke_p	p	n/a
548.471	0.075	1096942	keystroke_r	r	n/a
548.966	0.03	1097932	keystroke_i	i	n/a
549.176	0.09	1098352	keystroke_a	a	n/a
549.431	0.075	1098862	keystroke_t	t	n/a
549.6255	0.075	1099251	keystroke_e	e	n/a
549.9705	0.09	1099941	keystroke_Key.enter	Key.enter	n/a
550.0665	12.326	1100133	prompt	n/a	reasoning checkout delight membrane\n
550.706	0.09	1101412	keystroke_r	r	n/a
550.886	0.0895	1101772	keystroke_e	e	n/a
551.1105	0.09	1102221	keystroke_a	a	n/a
551.3205	0.105	1102641	keystroke_s	s	n/a
551.5005	0.15	1103001	keystroke_o	o	n/a
551.7105	0.12	1103421	keystroke_n	n	n/a
551.9355	0.09	1103871	keystroke_i	i	n/a
552.0105	0.135	1104021	keystroke_n	n	n/a
552.2055	0.105	1104411	keystroke_g	g	n/a
552.4305	0.091	1104861	keystroke_Key.space	Key.space	n/a
552.8065	0.074	1105613	keystroke_c	c	n/a
553.0165	0.059	1106033	keystroke_h	h	n/a
553.1965	0.0745	1106393	keystroke_e	e	n/a
553.481	0.075	1106962	keystroke_c	c	n/a
554.2005	0.075	1108401	keystroke_o	o	n/a
554.4255	0.09	1108851	keystroke_u	u	n/a
554.8455	0.075	1109691	keystroke_Key.backspace	Key.backspace	n/a
555.0555	0.075	1110111	keystroke_Key.backspace	Key.backspace	n/a
555.3865	0.09	1110773	keystroke_k	k	n/a
555.6265	0.059	1111253	keystroke_i	i	n/a
556.181	0.0745	1112362	keystroke_Key.backspace	Key.backspace	n/a
556.451	0.119	1112902	keystroke_o	o	n/a
556.646	0.1045	1113292	keystroke_u	u	n/a
556.9005	0.09	1113801	keystroke_t	t	n/a
557.0355	0.0895	1114071	keystroke_Key.space	Key.space	n/a
557.231	0.09	1114462	keystroke_d	d	n/a
557.441	0.06	1114882	keystroke_e	e	n/a
557.561	0.105	1115122	keystroke_l	l	n/a
557.801	0.09	1115602	keystroke_i	i	n/a
557.921	0.075	1115842	keystroke_g	g	n/a
558.1005	0.075	1116201	keystroke_h	h	n/a
558.2055	0.09	1116411	keystroke_t	t	n/a
558.4755	0.0605	1116951	keystroke_Key.space	Key.space	n/a
558.806	0.075	1117612	keystroke_m	m	n/a
558.941	0.09	1117882	keystroke_e	e	n/a
559.256	0.075	1118512	keystroke_m	m	n/a
559.5705	0.075	1119141	keystroke_b	b	n/a
560.41	0.1205	1120820	keystroke_r	r	n/a
560.7105	0.105	1121421	keystroke_a	a	n/a
561.266	0.105	1122532	keystroke_n	n	n/a
561.4605	0.21	1122921	keystroke_e	e	n/a
562.3155	0.075	1124631	keystroke_Key.enter	Key.enter	n/a
562.396	13.6165	1124792	prompt	n/a	universe horizon botswana resolved\n
563.186	0.075	1126372	keystroke_u	u	n/a
563.426	0.09	1126852	keystroke_n	n	n/a
563.651	0.075	1127302	keystroke_i	i	n/a
563.771	0.1045	1127542	keystroke_v	v	n/a
564.0555	0.105	1128111	keystroke_e	e	n/a
564.2355	0.075	1128471	keystroke_r	r	n/a
564.4455	0.105	1128891	keystroke_s	s	n/a
564.8805	0.075	1129761	keystroke_e	e	n/a
565.1505	0.09	1130301	keystroke_Key.space	Key.space	n/a
565.541	0.1195	1131082	keystroke_h	h	n/a
565.7655	0.105	1131531	keystroke_o	o	n/a
566.14	0.09	1132280	keystroke_r	r	n/a
566.396	0.06	1132792	keystroke_i	i	n/a
566.921	0.09	1133842	keystroke_z	z	n/a
567.266	0.045	1134532	keystroke_n	n	n/a
567.851	0.075	1135702	keystroke_Key.backspace	Key.backspace	n/a
568.121	0.1495	1136242	keystroke_o	o	n/a
568.2555	0.12	1136511	keystroke_n	n	n/a
568.4505	0.075	1136901	keystroke_Key.space	Key.space	n/a
568.7805	0.105	1137561	keystroke_b	b	n/a
569.2305	0.06	1138461	keystroke_o	o	n/a
569.591	0.105	1139182	keystroke_t	t	n/a
570.101	0.075	1140202	keystroke_s	s	n/a
570.341	0.075	1140682	keystroke_w	w	n/a
570.551	0.105	1141102	keystroke_a	a	n/a
570.701	0.075	1141402	keystroke_n	n	n/a
570.956	0.09	1141912	keystroke_a	a	n/a
571.151	0.075	1142302	keystroke_Key.space	Key.space	n/a
571.436	0.105	1142872	keystroke_r	r	n/a
571.661	0.09	1143322	keystroke_e	e	n/a
571.916	0.09	1143832	keystroke_s	s	n/a
572.171	0.06	1144342	keystroke_o	o	n/a
572.486	0.09	1144972	keystroke_l	l	n/a
575.248	0.088	1150496	keystroke_v	v	n/a
575.426	0.06	1150852	keystroke_e	e	n/a
575.636	0.075	1151272	keystroke_d	d	n/a
575.921	0.0905	1151842	keystroke_Key.enter	Key.enter	n/a
576.019	19.2235	1152038	prompt	n/a	them precision disabilities anti\n
576.746	0.075	1153492	keystroke_t	t	n/a
576.866	0.09	1153732	keystroke_h	h	n/a
576.941	0.105	1153882	keystroke_e	e	n/a
577.166	0.105	1154332	keystroke_m	m	n/a
577.331	0.105	1154662	keystroke_Key.space	Key.space	n/a
577.9155	0.15	1155831	keystroke_p	p	n/a
578.0505	0.09	1156101	keystroke_r	r	n/a
578.2155	0.09	1156431	keystroke_i	i	n/a
578.4405	0.075	1156881	keystroke_c	c	n/a
578.5605	0.075	1157121	keystroke_i	i	n/a
578.7405	0.0755	1157481	keystroke_s	s	n/a
579.071	0.075	1158142	keystroke_i	i	n/a
579.251	0.1505	1158502	keystroke_o	o	n/a
579.371	0.1495	1158742	keystroke_n	n	n/a
579.5805	0.075	1159161	keystroke_Key.space	Key.space	n/a
579.8055	0.105	1159611	keystroke_d	d	n/a
579.9555	0.076	1159911	keystroke_i	i	n/a
583.826	0.06	1167652	keystroke_Key.backspace	Key.backspace	n/a
584.216	0.09	1168432	keystroke_Key.backspace	Key.backspace	n/a
584.411	0.045	1168822	keystroke_Key.backspace	Key.backspace	n/a
584.561	0.09	1169122	keystroke_Key.backspace	Key.backspace	n/a
584.726	0.09	1169452	keystroke_Key.backspace	Key.backspace	n/a
584.921	0.075	1169842	keystroke_Key.backspace	Key.backspace	n/a
585.071	0.09	1170142	keystroke_Key.backspace	Key.backspace	n/a
585.251	0.075	1170502	keystroke_Key.backspace	Key.backspace	n/a
585.416	0.105	1170832	keystroke_Key.backspace	Key.backspace	n/a
585.596	0.09	1171192	keystroke_Key.backspace	Key.backspace	n/a
585.791	0.06	1171582	keystroke_Key.backspace	Key.backspace	n/a
586.031	0.18	1172062	keystroke_Key.backspace	Key.backspace	n/a
586.421	0.0895	1172842	keystroke_Key.backspace	Key.backspace	n/a
586.7515	0.074	1173503	keystroke_e	e	n/a
587.456	0.15	1174912	keystroke_c	c	n/a
587.636	0.105	1175272	keystroke_i	i	n/a
587.876	0.12	1175752	keystroke_s	s	n/a
588.056	0.135	1176112	keystroke_i	i	n/a
588.221	0.195	1176442	keystroke_o	o	n/a
588.386	0.15	1176772	keystroke_n	n	n/a
588.551	0.15	1177102	keystroke_Key.space	Key.space	n/a
588.866	0.135	1177732	keystroke_d	d	n/a
589.016	0.105	1178032	keystroke_i	i	n/a
589.196	0.12	1178392	keystroke_s	s	n/a
589.451	0.1355	1178902	keystroke_a	a	n/a
590.1255	0.091	1180251	keystroke_b	b	n/a
590.3805	0.075	1180761	keystroke_i	i	n/a
590.5755	0.21	1181151	keystroke_l	l	n/a
590.7405	0.165	1181481	keystroke_i	i	n/a
590.8905	0.1055	1181781	keystroke_t	t	n/a
591.2205	0.105	1182441	keystroke_e	e	n/a
591.7005	0.1055	1183401	keystroke_Key.space	Key.space	n/a
592.5865	0.09	1185173	keystroke_Key.backspace	Key.backspace	n/a
592.7355	0.091	1185471	keystroke_Key.backspace	Key.backspace	n/a
593.1415	0.135	1186283	keystroke_i	i	n/a
593.2915	0.105	1186583	keystroke_e	e	n/a
593.5315	0.09	1187063	keystroke_s	s	n/a
593.8165	0.105	1187633	keystroke_Key.space	Key.space	n/a
594.476	0.1205	1188952	keystroke_a	a	n/a
594.6115	0.104	1189223	keystroke_n	n	n/a
594.7315	0.105	1189463	keystroke_t	t	n/a
594.8515	0.09	1189703	keystroke_i	i	n/a
595.1665	0.075	1190333	keystroke_Key.enter	Key.enter	n/a
595.247	8.186	1190494	prompt	n/a	bomb services once november\n
595.886	0.12	1191772	keystroke_b	b	n/a
595.976	0.18	1191952	keystroke_o	o	n/a
596.141	0.09	1192282	keystroke_n	n	n/a
596.651	0.09	1193302	keystroke_b	b	n/a
597.056	0.06	1194112	keystroke_Key.backspace	Key.backspace	n/a
597.161	0.09	1194322	keystroke_Key.backspace	Key.backspace	n/a
597.416	0.15	1194832	keystroke_m	m	n/a
597.686	0.15	1195372	keystroke_b	b	n/a
598.091	0.0905	1196182	keystroke_Key.space	Key.space	n/a
598.3615	0.15	1196723	keystroke_s	s	n/a
598.5865	0.165	1197173	keystroke_e	e	n/a
598.7665	0.09	1197533	keystroke_r	r	n/a
599.0215	0.09	1198043	keystroke_v	v	n/a
599.0965	0.12	1198193	keystroke_i	i	n/a
599.2465	0.135	1198493	keystroke_c	c	n/a
599.5165	0.089	1199033	keystroke_e	e	n/a
599.7415	0.105	1199483	keystroke_s	s	n/a
599.9055	0.091	1199811	keystroke_Key.space	Key.space	n/a
600.1165	0.105	1200233	keystroke_o	o	n/a
600.1765	0.15	1200353	keystroke_n	n	n/a
600.4315	0.12	1200863	keystroke_c	c	n/a
600.686	0.105	1201372	keystroke_e	e	n/a
601.256	0.165	1202512	keystroke_Key.space	Key.space	n/a
601.526	0.135	1203052	keystroke_n	n	n/a
601.721	0.12	1203442	keystroke_o	o	n/a
601.856	0.165	1203712	keystroke_v	v	n/a
602.141	0.12	1204282	keystroke_e	e	n/a
602.336	0.12	1204672	keystroke_m	m	n/a
602.591	0.135	1205182	keystroke_b	b	n/a
602.876	0.1495	1205752	keystroke_e	e	n/a
603.0555	0.135	1206111	keystroke_r	r	n/a
603.2955	0.1355	1206591	keystroke_Key.enter	Key.enter	n/a
603.436	9.6115	1206872	prompt	n/a	reconstruction meaning happy greater\n
604.091	0.135	1208182	keystroke_r	r	n/a
604.286	0.135	1208572	keystroke_e	e	n/a
604.6465	0.135	1209293	keystroke_c	c	n/a
604.7515	0.195	1209503	keystroke_o	o	n/a
604.8865	0.1345	1209773	keystroke_n	n	n/a
605.036	0.135	1210072	keystroke_s	s	n/a
605.291	0.09	1210582	keystroke_t	t	n/a
605.486	0.105	1210972	keystroke_r	r	n/a
605.801	0.135	1211602	keystroke_c	c	n/a
606.4015	0.15	1212803	keystroke_Key.backspace	Key.backspace	n/a
606.7165	0.135	1213433	keystroke_u	u	n/a
606.9265	0.12	1213853	keystroke_c	c	n/a
607.2865	0.12	1214573	keystroke_t	t	n/a
607.4665	0.105	1214933	keystroke_i	i	n/a
607.5865	0.2545	1215173	keystroke_o	o	n/a
607.751	0.165	1215502	keystroke_n	n	n/a
607.931	0.135	1215862	keystroke_Key.space	Key.space	n/a
608.216	0.135	1216432	keystroke_m	m	n/a
608.381	0.12	1216762	keystroke_e	e	n/a
608.921	0.165	1217842	keystroke_a	a	n/a
609.071	0.1345	1218142	keystroke_n	n	n/a
609.2505	0.166	1218501	keystroke_i	i	n/a
609.3705	0.181	1218741	keystroke_n	n	n/a
609.5205	0.135	1219041	keystroke_g	g	n/a
609.6405	0.09	1219281	keystroke_Key.space	Key.space	n/a
609.8655	0.136	1219731	keystroke_h	h	n/a
609.9555	0.136	1219911	keystroke_a	a	n/a
610.2555	0.1055	1220511	keystroke_p	p	n/a
610.451	0.09	1220902	keystroke_p	p	n/a
610.721	0.1495	1221442	keystroke_y	y	n/a
610.8855	0.105	1221771	keystroke_Key.space	Key.space	n/a
611.126	0.105	1222252	keystroke_g	g	n/a
611.366	0.1205	1222732	keystroke_r	r	n/a
611.5615	0.1495	1223123	keystroke_e	e	n/a
612.071	0.09	1224142	keystroke_a	a	n/a
612.281	0.09	1224562	keystroke_t	t	n/a
612.506	0.1205	1225012	keystroke_e	e	n/a
612.6715	0.105	1225343	keystroke_r	r	n/a
612.9415	0.105	1225883	keystroke_Key.enter	Key.enter	n/a
613.0515	6.0865	1226103	prompt	n/a	expanded bones must friday\n
613.691	0.105	1227382	keystroke_e	e	n/a
614.096	0.165	1228192	keystroke_x	x	n/a
614.396	0.12	1228792	keystroke_p	p	n/a
614.6665	0.15	1229333	keystroke_a	a	n/a
614.7705	0.12	1229541	keystroke_n	n	n/a
614.9505	0.106	1229901	keystroke_d	d	n/a
615.1905	0.06	1230381	keystroke_e	e	n/a
615.3705	0.121	1230741	keystroke_d	d	n/a
615.5055	0.12	1231011	keystroke_Key.space	Key.space	n/a
615.7155	0.135	1231431	keystroke_b	b	n/a
615.8065	0.165	1231613	keystroke_o	o	n/a
615.926	0.165	1231852	keystroke_n	n	n/a
616.136	0.105	1232272	keystroke_e	e	n/a
616.391	0.135	1232782	keystroke_s	s	n/a
616.541	0.105	1233082	keystroke_Key.space	Key.space	n/a
616.781	0.12	1233562	keystroke_m	m	n/a
617.036	0.12	1234072	keystroke_u	u	n/a
617.141	0.12	1234282	keystroke_s	s	n/a
617.3815	0.09	1234763	keystroke_t	t	n/a
617.5015	0.12	1235003	keystroke_Key.space	Key.space	n/a
617.7265	0.075	1235453	keystroke_f	f	n/a
617.9365	0.105	1235873	keystroke_r	r	n/a
618.1465	0.105	1236293	keystroke_i	i	n/a
618.3115	0.105	1236623	keystroke_d	d	n/a
618.5365	0.165	1237073	keystroke_a	a	n/a
618.6715	0.105	1237343	keystroke_y	y	n/a
619.0315	0.105	1238063	keystroke_Key.enter	Key.enter	n/a
619.141	11.982	1238282	prompt	n/a	designated vacuum memories chip\n
619.8115	0.1195	1239623	keystroke_d	d	n/a
619.976	0.1055	1239952	keystroke_i	i	n/a
620.1115	0.135	1240223	keystroke_s	s	n/a
621.6715	0.06	1243343	keystroke_Key.backspace	Key.backspace	n/a
621.8215	0.075	1243643	keystroke_Key.backspace	Key.backspace	n/a
621.9565	0.135	1243913	keystroke_e	e	n/a
622.2865	0.15	1244573	keystroke_s	s	n/a
622.4815	0.09	1244963	keystroke_i	i	n/a
622.646	0.1355	1245292	keystroke_g	g	n/a
623.3805	0.106	1246761	keystroke_n	n	n/a
623.6815	0.12	1247363	keystroke_a	a	n/a
623.9515	0.12	1247903	keystroke_t	t	n/a
624.176	0.09	1248352	keystroke_e	e	n/a
624.401	0.12	1248802	keystroke_d	d	n/a
624.506	0.09	1249012	keystroke_Key.space	Key.space	n/a
624.716	0.105	1249432	keystroke_v	v	n/a
624.926	0.12	1249852	keystroke_a	a	n/a
625.286	0.195	1250572	keystroke_c	c	n/a
625.556	0.12	1251112	keystroke_u	u	n/a
625.946	0.0905	1251892	keystroke_l	l	n/a
626.1265	0.075	1252253	keystroke_l	l	n/a
626.591	0.045	1253182	keystroke_Key.backspace	Key.backspace	n/a
626.681	0.09	1253362	keystroke_Key.backspace	Key.backspace	n/a
626.9215	0.12	1253843	keystroke_u	u	n/a
627.2665	0.105	1254533	keystroke_m	m	n/a
627.4465	0.12	1254893	keystroke_Key.space	Key.space	n/a
627.6565	0.09	1255313	keystroke_m	m	n/a
628.0615	0.1195	1256123	keystroke_e	e	n/a
628.316	0.09	1256632	keystroke_m	m	n/a
628.676	0.105	1257352	keystroke_o	o	n/a
628.916	0.09	1257832	keystroke_r	r	n/a
629.051	0.105	1258102	keystroke_i	i	n/a
629.471	0.12	1258942	keystroke_e	e	n/a
629.726	0.12	1259452	keystroke_s	s	n/a
629.876	0.09	1259752	keystroke_Key.space	Key.space	n/a
630.131	0.1355	1260262	keystroke_c	c	n/a
630.2365	0.135	1260473	keystroke_h	h	n/a
630.4015	0.1645	1260803	keystroke_i	i	n/a
630.6715	0.135	1261343	keystroke_p	p	n/a
631.0315	0.0895	1262063	keystroke_Key.enter	Key.enter	n/a
631.126	8.427	1262252	prompt	n/a	serve entity fast portable\n
631.721	0.12	1263442	keystroke_s	s	n/a
631.916	0.18	1263832	keystroke_e	e	n/a
632.126	0.09	1264252	keystroke_r	r	n/a
632.381	0.12	1264762	keystroke_v	v	n/a
632.532	0.104	1265064	keystroke_i	i	n/a
632.967	0.089	1265934	keystroke_e	e	n/a
633.7465	0.09	1267493	keystroke_Key.backspace	Key.backspace	n/a
633.9565	0.09	1267913	keystroke_e	e	n/a
634.2565	0.015	1268513	keystroke_Key.backspace	Key.backspace	n/a
634.6615	0.12	1269323	keystroke_Key.backspace	Key.backspace	n/a
634.9015	0.12	1269803	keystroke_e	e	n/a
635.1565	0.1345	1270313	keystroke_Key.space	Key.space	n/a
635.4715	0.12	1270943	keystroke_e	e	n/a
635.637	0.105	1271274	keystroke_n	n	n/a
635.756	0.105	1271512	keystroke_t	t	n/a
635.966	0.12	1271932	keystroke_i	i	n/a
636.1315	0.135	1272263	keystroke_t	t	n/a
636.371	0.12	1272742	keystroke_y	y	n/a
636.596	0.0905	1273192	keystroke_Key.space	Key.space	n/a
636.7165	0.09	1273433	keystroke_f	f	n/a
636.927	0.105	1273854	keystroke_a	a	n/a
637.1365	0.135	1274273	keystroke_s	s	n/a
637.4515	0.09	1274903	keystroke_t	t	n/a
637.6015	0.105	1275203	keystroke_Key.space	Key.space	n/a
637.932	0.105	1275864	keystroke_p	p	n/a
638.127	0.149	1276254	keystroke_o	o	n/a
638.232	0.104	1276464	keystroke_r	r	n/a
638.457	0.09	1276914	keystroke_t	t	n/a
638.682	0.09	1277364	keystroke_a	a	n/a
638.921	0.105	1277842	keystroke_b	b	n/a
638.996	0.135	1277992	keystroke_l	l	n/a
639.206	0.075	1278412	keystroke_e	e	n/a
639.461	0.09	1278922	keystroke_Key.enter	Key.enter	n/a
639.5565	10.9765	1279113	prompt	n/a	calendars within youth synopsis\n
640.181	0.12	1280362	keystroke_c	c	n/a
640.376	0.12	1280752	keystroke_a	a	n/a
640.511	0.1655	1281022	keystroke_l	l	n/a
640.7365	0.12	1281473	keystroke_e	e	n/a
640.9765	0.165	1281953	keystroke_n	n	n/a
641.1565	0.09	1282313	keystroke_d	d	n/a
641.3515	0.09	1282703	keystroke_a	a	n/a
641.561	0.105	1283122	keystroke_r	r	n/a
641.8465	0.12	1283693	keystroke_s	s	n/a
641.9815	0.09	1283963	keystroke_Key.space	Key.space	n/a
642.2065	0.105	1284413	keystroke_w	w	n/a
642.3265	0.09	1284653	keystroke_i	i	n/a
642.4915	0.1505	1284983	keystroke_t	t	n/a
642.657	0.12	1285314	keystroke_h	h	n/a
643.062	0.15	1286124	keystroke_i	i	n/a
643.257	0.1645	1286514	keystroke_n	n	n/a
643.4815	0.12	1286963	keystroke_Key.space	Key.space	n/a
643.781	0.151	1287562	keystroke_y	y	n/a
644.022	0.18	1288044	keystroke_o	o	n/a
644.157	0.15	1288314	keystroke_u	u	n/a
644.622	0.105	1289244	keystroke_t	t	n/a
644.861	0.12	1289722	keystroke_Key.space	Key.space	n/a
645.5815	0.1345	1291163	keystroke_Key.backspace	Key.backspace	n/a
645.8665	0.1355	1291733	keystroke_h	h	n/a
646.092	0.12	1292184	keystroke_Key.space	Key.space	n/a
646.572	0.105	1293144	keystroke_w	w	n/a
647.127	0.105	1294254	keystroke_Key.backspace	Key.backspace	n/a
647.247	0.105	1294494	keystroke_s	s	n/a
647.5165	0.135	1295033	keystroke_y	y	n/a
647.8765	0.135	1295753	keystroke_n	n	n/a
648.522	0.1345	1297044	keystroke_o	o	n/a
649.0915	0.165	1298183	keystroke_p	p	n/a
649.4515	0.18	1298903	keystroke_s	s	n/a
649.6465	0.15	1299293	keystroke_i	i	n/a
650.022	0.12	1300044	keystroke_s	s	n/a
650.367	0.165	1300734	keystroke_Key.enter	Key.enter	n/a
650.5365	7.377	1301073	prompt	n/a	towns finger levy mines\n
651.177	0.075	1302354	keystroke_t	t	n/a
651.237	0.12	1302474	keystroke_o	o	n/a
651.402	0.18	1302804	keystroke_w	w	n/a
651.597	0.105	1303194	keystroke_n	n	n/a
651.837	0.18	1303674	keystroke_s	s	n/a
652.002	0.105	1304004	keystroke_Key.space	Key.space	n/a
652.212	0.135	1304424	keystroke_f	f	n/a
652.332	0.165	1304664	keystroke_i	i	n/a
652.482	0.1495	1304964	keystroke_n	n	n/a
652.6015	0.12	1305203	keystroke_g	g	n/a
652.8265	0.15	1305653	keystroke_e	e	n/a
653.0515	0.12	1306103	keystroke_r	r	n/a
653.2165	0.105	1306433	keystroke_Key.space	Key.space	n/a
653.4265	0.15	1306853	keystroke_l	l	n/a
653.5165	0.12	1307033	keystroke_e	e	n/a
653.7865	0.12	1307573	keystroke_v	v	n/a
654.357	0.105	1308714	keystroke_e	e	n/a
654.582	0.135	1309164	keystroke_y	y	n/a
655.122	0.09	1310244	keystroke_Key.backspace	Key.backspace	n/a
655.272	0.105	1310544	keystroke_Key.backspace	Key.backspace	n/a
655.5415	0.15	1311083	keystroke_y	y	n/a
655.7365	0.12	1311473	keystroke_Key.space	Key.space	n/a
656.1115	0.15	1312223	keystroke_m	m	n/a
656.3215	0.165	1312643	keystroke_i	i	n/a
656.532	0.135	1313064	keystroke_n	n	n/a
656.772	0.09	1313544	keystroke_e	e	n/a
656.997	0.12	1313994	keystroke_s	s	n/a
657.8215	0.09	1315643	keystroke_Key.enter	Key.enter	n/a
657.9165	8.0665	1315833	prompt	n/a	success john residence photo\n
658.692	0.15	1317384	keystroke_s	s	n/a
658.842	0.135	1317684	keystroke_u	u	n/a
659.007	0.09	1318014	keystroke_c	c	n/a
659.142	0.1045	1318284	keystroke_c	c	n/a
659.3965	0.105	1318793	keystroke_e	e	n/a
659.6215	0.075	1319243	keystroke_s	s	n/a
659.8015	0.075	1319603	keystroke_s	s	n/a
659.9365	0.135	1319873	keystroke_Key.space	Key.space	n/a
660.2665	0.09	1320533	keystroke_j	j	n/a
660.627	0.165	1321254	keystroke_o	o	n/a
660.9115	0.105	1321823	keystroke_h	h	n/a
661.181	0.135	1322362	keystroke_n	n	n/a
661.436	0.105	1322872	keystroke_Key.space	Key.space	n/a
661.766	0.12	1323532	keystroke_r	r	n/a
661.991	0.135	1323982	keystroke_e	e	n/a
662.397	0.135	1324794	keystroke_s	s	n/a
662.5615	0.135	1325123	keystroke_i	i	n/a
662.6815	0.135	1325363	keystroke_d	d	n/a
662.9215	0.09	1325843	keystroke_e	e	n/a
662.9965	0.15	1325993	keystroke_n	n	n/a
663.716	0.105	1327432	keystroke_c	c	n/a
664.001	0.09	1328002	keystroke_e	e	n/a
664.211	0.105	1328422	keystroke_Key.space	Key.space	n/a
664.5865	0.225	1329173	keystroke_p	p	n/a
664.7965	0.135	1329593	keystroke_h	h	n/a
664.9765	0.165	1329953	keystroke_o	o	n/a
665.1715	0.12	1330343	keystroke_t	t	n/a
665.3815	0.135	1330763	keystroke_o	o	n/a
665.8765	0.105	1331753	keystroke_Key.enter	Key.enter	n/a
665.986	9.657	1331972	prompt	n/a	enrollment bryant canyon paul\n
666.6115	0.1645	1333223	keystroke_e	e	n/a
666.851	0.121	1333702	keystroke_n	n	n/a
666.986	0.105	1333972	keystroke_r	r	n/a
667.152	0.104	1334304	keystroke_o	o	n/a
667.482	0.104	1334964	keystroke_l	l	n/a
667.631	0.0905	1335262	keystroke_l	l	n/a
667.8865	0.15	1335773	keystroke_m	m	n/a
668.0215	0.165	1336043	keystroke_e	e	n/a
668.1715	0.12	1336343	keystroke_n	n	n/a
668.3515	0.135	1336703	keystroke_t	t	n/a
668.5615	0.105	1337123	keystroke_Key.space	Key.space	n/a
669.1315	0.105	1338263	keystroke_b	b	n/a
669.3865	0.105	1338773	keystroke_r	r	n/a
670.0915	0.12	1340183	keystroke_y	y	n/a
670.3915	0.09	1340783	keystroke_a	a	n/a
670.706	0.09	1341412	keystroke_n	n	n/a
670.9315	0.135	1341863	keystroke_t	t	n/a
671.0815	0.135	1342163	keystroke_Key.space	Key.space	n/a
671.3965	0.105	1342793	keystroke_c	c	n/a
671.6065	0.135	1343213	keystroke_a	a	n/a
671.7425	0.104	1343485	keystroke_n	n	n/a
672.3265	0.2095	1344653	keystroke_y	y	n/a
673.857	0.09	1347714	keystroke_o	o	n/a
674.022	0.135	1348044	keystroke_n	n	n/a
674.202	0.119	1348404	keystroke_Key.space	Key.space	n/a
674.457	0.21	1348914	keystroke_p	p	n/a
674.607	0.195	1349214	keystroke_a	a	n/a
674.802	0.15	1349604	keystroke_u	u	n/a
675.162	0.15	1350324	keystroke_l	l	n/a
675.521	0.12	1351042	keystroke_Key.enter	Key.enter	n/a
675.6485	8.0045	1351297	prompt	n/a	aviation relation doing editor\n
676.317	0.06	1352634	keystroke_a	a	n/a
676.451	0.151	1352902	keystroke_v	v	n/a
676.617	0.134	1353234	keystroke_i	i	n/a
676.766	0.151	1353532	keystroke_a	a	n/a
677.036	0.121	1354072	keystroke_t	t	n/a
677.202	0.119	1354404	keystroke_i	i	n/a
677.307	0.1945	1354614	keystroke_o	o	n/a
677.4715	0.165	1354943	keystroke_n	n	n/a
677.6515	0.12	1355303	keystroke_Key.space	Key.space	n/a
677.8465	0.15	1355693	keystroke_r	r	n/a
678.0715	0.135	1356143	keystroke_e	e	n/a
678.2965	0.135	1356593	keystroke_l	l	n/a
678.4765	0.1505	1356953	keystroke_a	a	n/a
678.762	0.165	1357524	keystroke_t	t	n/a
678.972	0.15	1357944	keystroke_i	i	n/a
679.107	0.24	1358214	keystroke_o	o	n/a
679.347	0.135	1358694	keystroke_n	n	n/a
679.722	0.135	1359444	keystroke_Key.space	Key.space	n/a
679.9915	0.135	1359983	keystroke_d	d	n/a
680.1865	0.1205	1360373	keystroke_o	o	n/a
680.352	0.179	1360704	keystroke_i	i	n/a
680.5015	0.1955	1361003	keystroke_n	n	n/a
680.621	0.136	1361242	keystroke_g	g	n/a
680.741	0.135	1361482	keystroke_Key.space	Key.space	n/a
681.3715	0.09	1362743	keystroke_e	e	n/a
681.6115	0.12	1363223	keystroke_d	d	n/a
681.7765	0.105	1363553	keystroke_i	i	n/a
681.9415	0.135	1363883	keystroke_t	t	n/a
682.1065	0.06	1364213	keystroke_i	i	n/a
682.751	0.09	1365502	keystroke_Key.backspace	Key.backspace	n/a
683.037	0.164	1366074	keystroke_o	o	n/a
683.186	0.09	1366372	keystroke_r	r	n/a
683.516	0.135	1367032	keystroke_Key.enter	Key.enter	n/a
683.656	8.472	1367312	prompt	n/a	regulation curious simpsons add\n
684.311	0.1355	1368622	keystroke_r	r	n/a
684.4915	0.12	1368983	keystroke_e	e	n/a
684.7315	0.12	1369463	keystroke_g	g	n/a
684.9265	0.075	1369853	keystroke_u	u	n/a
685.1215	0.15	1370243	keystroke_l	l	n/a
685.2865	0.105	1370573	keystroke_a	a	n/a
685.4965	0.105	1370993	keystroke_t	t	n/a
685.6165	0.15	1371233	keystroke_i	i	n/a
685.7365	0.225	1371473	keystroke_o	o	n/a
685.9015	0.15	1371803	keystroke_n	n	n/a
686.0665	0.1345	1372133	keystroke_Key.space	Key.space	n/a
686.276	0.15	1372552	keystroke_c	c	n/a
686.396	0.1505	1372792	keystroke_u	u	n/a
686.5765	0.12	1373153	keystroke_r	r	n/a
686.7715	0.1045	1373543	keystroke_i	i	n/a
686.981	0.15	1373962	keystroke_o	o	n/a
687.191	0.136	1374382	keystroke_u	u	n/a
687.401	0.151	1374802	keystroke_s	s	n/a
687.566	0.12	1375132	keystroke_Key.space	Key.space	n/a
687.761	0.091	1375522	keystroke_s	s	n/a
687.896	0.165	1375792	keystroke_i	i	n/a
688.152	0.15	1376304	keystroke_m	m	n/a
688.721	0.18	1377442	keystroke_p	p	n/a
688.931	0.135	1377862	keystroke_s	s	n/a
689.126	0.21	1378252	keystroke_o	o	n/a
689.276	0.165	1378552	keystroke_n	n	n/a
689.696	0.12	1379392	keystroke_s	s	n/a
689.981	0.12	1379962	keystroke_Key.space	Key.space	n/a
690.4765	0.135	1380953	keystroke_a	a	n/a
690.761	0.106	1381522	keystroke_d	d	n/a
690.957	0.075	1381914	keystroke_d	d	n/a
692.081	0.045	1384162	keystroke_Key.enter	Key.enter	n/a
692.132	7.871	1384264	prompt	n/a	coverage hints announces based\n
692.726	0.15	1385452	keystroke_c	c	n/a
692.846	0.195	1385692	keystroke_o	o	n/a
692.981	0.135	1385962	keystroke_v	v	n/a
693.206	0.12	1386412	keystroke_e	e	n/a
693.341	0.09	1386682	keystroke_r	r	n/a
693.656	0.12	1387312	keystroke_a	a	n/a
693.836	0.09	1387672	keystroke_g	g	n/a
694.016	0.1805	1388032	keystroke_e	e	n/a
695.006	0.105	1390012	keystroke_Key.space	Key.space	n/a
695.231	0.12	1390462	keystroke_h	h	n/a
695.396	0.15	1390792	keystroke_i	i	n/a
695.591	0.165	1391182	keystroke_n	n	n/a
695.756	0.105	1391512	keystroke_t	t	n/a
696.026	0.0755	1392052	keystroke_s	s	n/a
696.116	0.09	1392232	keystroke_Key.space	Key.space	n/a
696.327	0.1645	1392654	keystroke_a	a	n/a
696.4615	0.135	1392923	keystroke_n	n	n/a
696.956	0.12	1393912	keystroke_n	n	n/a
697.166	0.12	1394332	keystroke_o	o	n/a
697.391	0.12	1394782	keystroke_u	u	n/a
697.676	0.105	1395352	keystroke_n	n	n/a
697.871	0.09	1395742	keystroke_c	c	n/a
698.111	0.09	1396222	keystroke_e	e	n/a
698.336	0.12	1396672	keystroke_s	s	n/a
698.486	0.09	1396972	keystroke_Key.space	Key.space	n/a
698.711	0.105	1397422	keystroke_b	b	n/a
698.922	0.119	1397844	keystroke_a	a	n/a
699.146	0.12	1398292	keystroke_s	s	n/a
699.387	0.074	1398774	keystroke_e	e	n/a
699.581	0.135	1399162	keystroke_d	d	n/a
699.851	0.15	1399702	keystroke_Key.enter	Key.enter	n/a
700.006	7.0465	1400012	prompt	n/a	valuation lawn year basin\n
700.916	0.121	1401832	keystroke_v	v	n/a
701.141	0.15	1402282	keystroke_a	a	n/a
701.726	0.135	1403452	keystroke_l	l	n/a
701.966	0.135	1403932	keystroke_u	u	n/a
702.131	0.135	1404262	keystroke_a	a	n/a
702.386	0.1355	1404772	keystroke_t	t	n/a
702.506	0.1205	1405012	keystroke_i	i	n/a
702.5965	0.225	1405193	keystroke_o	o	n/a
702.7915	0.195	1405583	keystroke_n	n	n/a
703.001	0.1355	1406002	keystroke_Key.space	Key.space	n/a
703.3165	0.165	1406633	keystroke_l	l	n/a
703.5565	0.135	1407113	keystroke_a	a	n/a
703.9165	0.165	1407833	keystroke_w	w	n/a
704.1865	0.12	1408373	keystroke_n	n	n/a
704.5765	0.135	1409153	keystroke_Key.space	Key.space	n/a
704.9365	0.15	1409873	keystroke_y	y	n/a
705.0415	0.12	1410083	keystroke_e	e	n/a
705.2665	0.09	1410533	keystroke_a	a	n/a
705.4765	0.09	1410953	keystroke_r	r	n/a
705.611	0.15	1411222	keystroke_Key.space	Key.space	n/a
705.866	0.105	1411732	keystroke_b	b	n/a
706.061	0.135	1412122	keystroke_a	a	n/a
706.3015	0.135	1412603	keystroke_s	s	n/a
706.4515	0.1955	1412903	keystroke_i	i	n/a
706.631	0.15	1413262	keystroke_n	n	n/a
706.9305	0.1205	1413861	keystroke_Key.enter	Key.enter	n/a
707.057	12.956	1414114	prompt	n/a	gibson pros lexington recovered\n
707.936	0.15	1415872	keystroke_g	g	n/a
708.146	0.09	1416292	keystroke_i	i	n/a
708.461	0.151	1416922	keystroke_b	b	n/a
708.821	0.1205	1417642	keystroke_s	s	n/a
709.0315	0.15	1418063	keystroke_o	o	n/a
709.2265	0.105	1418453	keystroke_n	n	n/a
709.4065	0.165	1418813	keystroke_Key.space	Key.space	n/a
709.9015	0.2395	1419803	keystroke_p	p	n/a
710.426	0.12	1420852	keystroke_r	r	n/a
710.636	0.165	1421272	keystroke_o	o	n/a
711.401	0.1205	1422802	keystroke_s	s	n/a
711.5965	0.18	1423193	keystroke_Key.space	Key.space	n/a
712.2565	0.135	1424513	keystroke_l	l	n/a
712.4065	0.1045	1424813	keystroke_e	e	n/a
712.781	0.195	1425562	keystroke_x	x	n/a
713.051	0.195	1426102	keystroke_i	i	n/a
713.3365	0.15	1426673	keystroke_n	n	n/a
713.5005	0.136	1427001	keystroke_g	g	n/a
713.7715	0.105	1427543	keystroke_t	t	n/a
713.8615	0.2395	1427723	keystroke_o	o	n/a
714.206	0.135	1428412	keystroke_n	n	n/a
715.1815	0.15	1430363	keystroke_Key.space	Key.space	n/a
715.4805	0.091	1430961	keystroke_r	r	n/a
715.6465	0.15	1431293	keystroke_e	e	n/a
717.416	0.135	1434832	keystroke_c	c	n/a
718.2415	0.15	1436483	keystroke_o	o	n/a
718.3765	0.12	1436753	keystroke_v	v	n/a
718.6015	0.135	1437203	keystroke_e	e	n/a
718.7815	0.105	1437563	keystroke_r	r	n/a
718.9915	0.135	1437983	keystroke_e	e	n/a
719.3215	0.1795	1438643	keystroke_d	d	n/a
719.891	0.12	1439782	keystroke_Key.enter	Key.enter	n/a
720.0165	10.888	1440033	prompt	n/a	earnings genius irish african\n
720.5965	0.104	1441193	keystroke_e	e	n/a
720.8215	0.12	1441643	keystroke_a	a	n/a
721.0165	0.1045	1442033	keystroke_r	r	n/a
721.151	0.15	1442302	keystroke_n	n	n/a
721.3605	0.1655	1442721	keystroke_i	i	n/a
721.481	0.165	1442962	keystroke_n	n	n/a
721.616	0.12	1443232	keystroke_g	g	n/a
721.841	0.135	1443682	keystroke_Key.space	Key.space	n/a
