onset	duration	sample	value	key	prompt_text
5.646	6.462	11292	prompt	n/a	the quick brown fox jumps over a lazy dog\n
6.992	0.014	13984	keystroke_t	t	n/a
7.006	0.075	14012	keystroke_h	h	n/a
7.096	0.089	14192	keystroke_e	e	n/a
7.2305	0.12	14461	keystroke_Key.space	Key.space	n/a
7.365	0.106	14730	keystroke_q	q	n/a
7.486	0.12	14972	keystroke_u	u	n/a
7.545	0.121	15090	keystroke_i	i	n/a
7.636	0.12	15272	keystroke_c	c	n/a
7.77	0.12	15540	keystroke_k	k	n/a
7.875	0.06	15750	keystroke_Key.space	Key.space	n/a
8.01	0.09	16020	keystroke_b	b	n/a
8.115	0.075	16230	keystroke_r	r	n/a
8.16	0.105	16320	keystroke_o	o	n/a
8.266	0.104	16532	keystroke_w	w	n/a
8.326	0.135	16652	keystroke_n	n	n/a
8.445	0.09	16890	keystroke_Key.space	Key.space	n/a
8.7	0.076	17400	keystroke_f	f	n/a
8.79	0.09	17580	keystroke_o	o	n/a
8.911	0.104	17822	keystroke_x	x	n/a
9.03	0.09	18060	keystroke_Key.space	Key.space	n/a
9.211	0.075	18422	keystroke_j	j	n/a
9.345	0.075	18690	keystroke_u	u	n/a
9.555	0.031	19110	keystroke_m	m	n/a
9.6	0.135	19200	keystroke_p	p	n/a
9.766	0.0895	19532	keystroke_s	s	n/a
9.9605	0.075	19921	keystroke_Key.space	Key.space	n/a
10.1255	0.12	20251	keystroke_o	o	n/a
10.2155	0.075	20431	keystroke_v	v	n/a
10.3655	0.1045	20731	keystroke_e	e	n/a
10.41	0.105	20820	keystroke_r	r	n/a
10.53	0.06	21060	keystroke_Key.space	Key.space	n/a
10.605	0.091	21210	keystroke_a	a	n/a
10.681	0.075	21362	keystroke_Key.space	Key.space	n/a
11.071	0.0895	22142	keystroke_l	l	n/a
11.1755	0.09	22351	keystroke_a	a	n/a
11.371	0.1195	22742	keystroke_z	z	n/a
11.4755	0.075	22951	keystroke_y	y	n/a
11.5955	0.09	23191	keystroke_Key.space	Key.space	n/a
11.7155	0.0905	23431	keystroke_d	d	n/a
11.791	0.105	23582	keystroke_o	o	n/a
11.896	0.0745	23792	keystroke_g	g	n/a
12.0305	0.075	24061	keystroke_Key.enter	Key.enter	n/a
12.1115	7.826	24223	prompt	n/a	step briefing democrat consequently\n
12.7655	0.075	25531	keystroke_s	s	n/a
12.9305	0.105	25861	keystroke_t	t	n/a
13.0055	0.105	26011	keystroke_e	e	n/a
13.0655	0.105	26131	keystroke_p	p	n/a
13.2005	0.0755	26401	keystroke_Key.space	Key.space	n/a
13.3805	0.0755	26761	keystroke_b	b	n/a
13.486	0.0745	26972	keystroke_r	r	n/a
13.5605	0.09	27121	keystroke_i	i	n/a
13.9205	0.0745	27841	keystroke_e	e	n/a
14.1915	0.0745	28383	keystroke_f	f	n/a
14.296	0.135	28592	keystroke_i	i	n/a
14.356	0.15	28712	keystroke_n	n	n/a
14.641	0.105	29282	keystroke_g	g	n/a
14.7905	0.1055	29581	keystroke_Key.space	Key.space	n/a
15.1055	0.0755	30211	keystroke_d	d	n/a
15.2705	0.06	30541	keystroke_e	e	n/a
15.391	0.089	30782	keystroke_m	m	n/a
15.496	0.149	30992	keystroke_o	o	n/a
15.9605	0.06	31921	keystroke_c	c	n/a
16.1255	0.09	32251	keystroke_r	r	n/a
16.2005	0.105	32401	keystroke_a	a	n/a
16.456	0.075	32912	keystroke_t	t	n/a
16.561	0.105	33122	keystroke_Key.space	Key.space	n/a
16.8005	0.09	33601	keystroke_c	c	n/a
16.906	0.0895	33812	keystroke_o	o	n/a
16.936	0.1345	33872	keystroke_n	n	n/a
17.1605	0.105	34321	keystroke_s	s	n/a
17.7605	0.09	35521	keystroke_e	e	n/a
18.286	0.075	36572	keystroke_q	q	n/a
18.376	0.075	36752	keystroke_u	u	n/a
18.511	0.09	37022	keystroke_e	e	n/a
18.646	0.105	37292	keystroke_n	n	n/a
19.426	0.09	38852	keystroke_t	t	n/a
19.605	0.121	39210	keystroke_l	l	n/a
19.71	0.076	39420	keystroke_y	y	n/a
19.861	0.074	39722	keystroke_Key.enter	Key.enter	n/a
19.9415	8.9815	39883	prompt	n/a	kenneth practitioner corresponding transexual\n
20.656	0.09	41312	keystroke_k	k	n/a
20.73	0.076	41460	keystroke_e	e	n/a
20.851	0.075	41702	keystroke_n	n	n/a
21.0155	0.075	42031	keystroke_n	n	n/a
21.106	0.09	42212	keystroke_e	e	n/a
21.345	0.091	42690	keystroke_t	t	n/a
21.451	0.09	42902	keystroke_h	h	n/a
21.556	0.089	43112	keystroke_Key.space	Key.space	n/a
21.691	0.105	43382	keystroke_p	p	n/a
21.765	0.091	43530	keystroke_r	r	n/a
21.871	0.0905	43742	keystroke_a	a	n/a
22.0055	0.106	44011	keystroke_c	c	n/a
22.3955	0.091	44791	keystroke_t	t	n/a
22.4865	0.09	44973	keystroke_i	i	n/a
22.9205	0.0905	45841	keystroke_t	t	n/a
23.026	0.1045	46052	keystroke_i	i	n/a
23.086	0.0895	46172	keystroke_o	o	n/a
23.1005	0.165	46201	keystroke_n	n	n/a
23.461	0.09	46922	keystroke_e	e	n/a
23.491	0.12	46982	keystroke_r	r	n/a
23.791	0.06	47582	keystroke_Key.space	Key.space	n/a
24.031	0.06	48062	keystroke_c	c	n/a
24.121	0.09	48242	keystroke_o	o	n/a
24.226	0.06	48452	keystroke_r	r	n/a
24.361	0.075	48722	keystroke_r	r	n/a
24.466	0.105	48932	keystroke_e	e	n/a
24.826	0.09	49652	keystroke_s	s	n/a
25.1555	0.076	50311	keystroke_p	p	n/a
25.3055	0.12	50611	keystroke_o	o	n/a
25.3655	0.121	50731	keystroke_n	n	n/a
25.5155	0.09	51031	keystroke_d	d	n/a
25.6365	0.119	51273	keystroke_i	i	n/a
25.6955	0.135	51391	keystroke_n	n	n/a
25.8005	0.12	51601	keystroke_g	g	n/a
25.996	0.0895	51992	keystroke_Key.space	Key.space	n/a
26.1915	0.074	52383	keystroke_t	t	n/a
26.356	0.09	52712	keystroke_r	r	n/a
26.416	0.105	52832	keystroke_a	a	n/a
26.5505	0.09	53101	keystroke_n	n	n/a
26.6705	0.1055	53341	keystroke_s	s	n/a
27.166	0.075	54332	keystroke_e	e	n/a
27.526	0.09	55052	keystroke_c	c	n/a
28.006	0.09	56012	keystroke_Key.backspace	Key.backspace	n/a
28.126	0.075	56252	keystroke_x	x	n/a
28.231	0.075	56462	keystroke_u	u	n/a
28.396	0.09	56792	keystroke_a	a	n/a
28.516	0.105	57032	keystroke_l	l	n/a
28.816	0.105	57632	keystroke_Key.enter	Key.enter	n/a
28.926	6.9415	57852	prompt	n/a	mali hole declined ourselves\n
29.821	0.075	59642	keystroke_m	m	n/a
29.956	0.09	59912	keystroke_a	a	n/a
30.046	0.135	60092	keystroke_i	i	n/a
30.106	0.165	60212	keystroke_l	l	n/a
30.391	0.075	60782	keystroke_Key.space	Key.space	n/a
30.766	0.06	61532	keystroke_Key.backspace	Key.backspace	n/a
30.916	0.06	61832	keystroke_Key.backspace	Key.backspace	n/a
31.036	0.0745	62072	keystroke_Key.backspace	Key.backspace	n/a
31.3355	0.15	62671	keystroke_i	i	n/a
31.816	0.075	63632	keystroke_Key.backspace	Key.backspace	n/a
32.191	0.105	64382	keystroke_l	l	n/a
32.266	0.12	64532	keystroke_i	i	n/a
32.431	0.09	64862	keystroke_Key.space	Key.space	n/a
32.596	0.105	65192	keystroke_h	h	n/a
32.641	0.105	65282	keystroke_o	o	n/a
32.791	0.135	65582	keystroke_l	l	n/a
32.941	0.09	65882	keystroke_e	e	n/a
33.046	0.0895	66092	keystroke_Key.space	Key.space	n/a
33.2115	0.09	66423	keystroke_d	d	n/a
33.4065	0.0745	66813	keystroke_e	e	n/a
33.631	0.075	67262	keystroke_c	c	n/a
33.691	0.09	67382	keystroke_l	l	n/a
33.721	0.135	67442	keystroke_i	i	n/a
33.916	0.15	67832	keystroke_n	n	n/a
34.081	0.075	68162	keystroke_e	e	n/a
34.261	0.075	68522	keystroke_d	d	n/a
34.456	0.06	68912	keystroke_Key.space	Key.space	n/a
34.696	0.135	69392	keystroke_o	o	n/a
34.771	0.12	69542	keystroke_u	u	n/a
34.876	0.09	69752	keystroke_r	r	n/a
35.116	0.09	70232	keystroke_s	s	n/a
35.161	0.105	70322	keystroke_e	e	n/a
35.296	0.1355	70592	keystroke_l	l	n/a
35.4165	0.075	70833	keystroke_v	v	n/a
35.581	0.12	71162	keystroke_e	e	n/a
35.641	0.12	71282	keystroke_s	s	n/a
35.776	0.0895	71552	keystroke_Key.enter	Key.enter	n/a
35.871	6.177	71742	prompt	n/a	reasonable stopped check indicating\n
36.6305	0.105	73261	keystroke_r	r	n/a
36.6755	0.09	73351	keystroke_e	e	n/a
37.141	0.09	74282	keystroke_a	a	n/a
37.621	0.075	75242	keystroke_s	s	n/a
37.681	0.105	75362	keystroke_o	o	n/a
37.711	0.135	75422	keystroke_n	n	n/a
37.981	0.09	75962	keystroke_a	a	n/a
38.086	0.075	76172	keystroke_b	b	n/a
38.176	0.12	76352	keystroke_l	l	n/a
38.266	0.09	76532	keystroke_e	e	n/a
38.386	0.09	76772	keystroke_Key.space	Key.space	n/a
38.581	0.135	77162	keystroke_s	s	n/a
38.671	0.09	77342	keystroke_t	t	n/a
38.701	0.105	77402	keystroke_o	o	n/a
38.761	0.09	77522	keystroke_p	p	n/a
38.896	0.105	77792	keystroke_p	p	n/a
38.971	0.075	77942	keystroke_e	e	n/a
39.136	0.06	78272	keystroke_d	d	n/a
39.211	0.09	78422	keystroke_Key.space	Key.space	n/a
39.346	0.105	78692	keystroke_c	c	n/a
39.436	0.09	78872	keystroke_h	h	n/a
39.541	0.105	79082	keystroke_e	e	n/a
39.647	0.089	79294	keystroke_k	k	n/a
39.751	0.105	79502	keystroke_c	c	n/a
40.066	0.06	80132	keystroke_Key.backspace	Key.backspace	n/a
40.186	0.09	80372	keystroke_Key.backspace	Key.backspace	n/a
40.351	0.105	80702	keystroke_c	c	n/a
40.471	0.075	80942	keystroke_k	k	n/a
40.621	0.075	81242	keystroke_Key.space	Key.space	n/a
40.741	0.12	81482	keystroke_i	i	n/a
40.801	0.105	81602	keystroke_n	n	n/a
40.951	0.09	81902	keystroke_d	d	n/a
41.026	0.09	82052	keystroke_i	i	n/a
41.296	0.09	82592	keystroke_c	c	n/a
41.431	0.09	82862	keystroke_a	a	n/a
41.6255	0.075	83251	keystroke_t	t	n/a
41.6855	0.105	83371	keystroke_i	i	n/a
41.7305	0.09	83461	keystroke_n	n	n/a
41.8355	0.075	83671	keystroke_g	g	n/a
41.9555	0.09	83911	keystroke_Key.enter	Key.enter	n/a
42.0515	7.511	84103	prompt	n/a	everybody consult investigator maintenance\n
42.736	0.045	85472	keystroke_e	e	n/a
42.916	0.06	85832	keystroke_v	v	n/a
43.051	0.0895	86102	keystroke_e	e	n/a
43.1255	0.09	86251	keystroke_r	r	n/a
43.3205	0.0905	86641	keystroke_y	y	n/a
43.666	0.09	87332	keystroke_b	b	n/a
43.726	0.09	87452	keystroke_o	o	n/a
43.846	0.09	87692	keystroke_d	d	n/a
43.951	0.1195	87902	keystroke_y	y	n/a
44.0855	0.09	88171	keystroke_Key.space	Key.space	n/a
44.3265	0.075	88653	keystroke_c	c	n/a
44.3865	0.105	88773	keystroke_o	o	n/a
44.4015	0.1195	88803	keystroke_n	n	n/a
44.5815	0.105	89163	keystroke_s	s	n/a
44.7015	0.15	89403	keystroke_u	u	n/a
44.7765	0.18	89553	keystroke_l	l	n/a
44.9415	0.09	89883	keystroke_t	t	n/a
45.0465	0.0895	90093	keystroke_Key.space	Key.space	n/a
45.4515	0.135	90903	keystroke_i	i	n/a
45.4665	0.15	90933	keystroke_n	n	n/a
45.7365	0.09	91473	keystroke_v	v	n/a
45.7815	0.135	91563	keystroke_e	e	n/a
45.9015	0.105	91803	keystroke_n	n	n/a
46.2165	0.075	92433	keystroke_t	t	n/a
46.2765	0.09	92553	keystroke_i	i	n/a
46.5315	0.075	93063	keystroke_g	g	n/a
46.6665	0.105	93333	keystroke_a	a	n/a
46.8915	0.06	93783	keystroke_t	t	n/a
46.9965	0.09	93993	keystroke_o	o	n/a
47.0565	0.0895	94113	keystroke_r	r	n/a
47.206	0.075	94412	keystroke_Key.space	Key.space	n/a
47.446	0.09	94892	keystroke_m	m	n/a
47.566	0.075	95132	keystroke_a	a	n/a
47.686	0.105	95372	keystroke_i	i	n/a
47.731	0.12	95462	keystroke_n	n	n/a
48.1205	0.09	96241	keystroke_t	t	n/a
48.1955	0.09	96391	keystroke_e	e	n/a
48.3305	0.105	96661	keystroke_n	n	n/a
48.8555	0.015	97711	keystroke_a	a	n/a
48.8855	0.09	97771	keystroke_n	n	n/a
48.9605	0.09	97921	keystroke_c	c	n/a
49.0205	0.1205	98041	keystroke_e	e	n/a
49.486	0.075	98972	keystroke_Key.enter	Key.enter	n/a
49.5655	7.407	99131	prompt	n/a	venues auctions reflection external\n
50.536	0.0905	101072	keystroke_v	v	n/a
50.566	0.1355	101132	keystroke_e	e	n/a
50.6565	0.075	101313	keystroke_n	n	n/a
50.896	0.105	101792	keystroke_u	u	n/a
51.016	0.12	102032	keystroke_e	e	n/a
51.6155	0.075	103231	keystroke_s	s	n/a
51.7805	0.075	103561	keystroke_Key.space	Key.space	n/a
51.9755	0.106	103951	keystroke_a	a	n/a
52.0955	0.09	104191	keystroke_u	u	n/a
52.6205	0.0905	105241	keystroke_c	c	n/a
52.8605	0.075	105721	keystroke_t	t	n/a
52.9365	0.149	105873	keystroke_i	i	n/a
52.9955	0.1055	105991	keystroke_o	o	n/a
53.0405	0.1805	106081	keystroke_n	n	n/a
53.206	0.09	106412	keystroke_s	s	n/a
53.356	0.06	106712	keystroke_Key.space	Key.space	n/a
53.611	0.105	107222	keystroke_r	r	n/a
53.626	0.15	107252	keystroke_e	e	n/a
54.046	0.1055	108092	keystroke_f	f	n/a
54.1815	0.105	108363	keystroke_l	l	n/a
54.3315	0.12	108663	keystroke_e	e	n/a
54.4065	0.105	108813	keystroke_c	c	n/a
54.6615	0.06	109323	keystroke_t	t	n/a
54.7215	0.12	109443	keystroke_i	i	n/a
54.7665	0.09	109533	keystroke_o	o	n/a
54.7965	0.1495	109593	keystroke_n	n	n/a
55.081	0.075	110162	keystroke_Key.space	Key.space	n/a
55.216	0.0755	110432	keystroke_e	e	n/a
55.4555	0.076	110911	keystroke_x	x	n/a
55.6805	0.061	111361	keystroke_t	t	n/a
55.8465	0.075	111693	keystroke_e	e	n/a
56.0415	0.059	112083	keystroke_r	r	n/a
56.4155	0.075	112831	keystroke_n	n	n/a
56.5655	0.0905	113131	keystroke_a	a	n/a
56.641	0.09	113282	keystroke_l	l	n/a
56.896	0.075	113792	keystroke_Key.enter	Key.enter	n/a
56.9765	7.136	113953	prompt	n/a	cats robot participate crawford\n
57.7205	0.09	115441	keystroke_c	c	n/a
57.7955	0.09	115591	keystroke_a	a	n/a
58.0355	0.136	116071	keystroke_t	t	n/a
58.1255	0.135	116251	keystroke_s	s	n/a
58.321	0.075	116642	keystroke_Key.space	Key.space	n/a
58.591	0.075	117182	keystroke_r	r	n/a
58.636	0.075	117272	keystroke_o	o	n/a
58.786	0.12	117572	keystroke_b	b	n/a
59.2205	0.105	118441	keystroke_o	o	n/a
59.3405	0.09	118681	keystroke_t	t	n/a
59.5505	0.105	119101	keystroke_Key.space	Key.space	n/a
59.7455	0.09	119491	keystroke_p	p	n/a
59.8055	0.105	119611	keystroke_a	a	n/a
59.8505	0.105	119701	keystroke_r	r	n/a
60.0755	0.09	120151	keystroke_t	t	n/a
60.1665	0.104	120333	keystroke_i	i	n/a
60.556	0.105	121112	keystroke_c	c	n/a
60.631	0.105	121262	keystroke_i	i	n/a
61.006	0.09	122012	keystroke_p	p	n/a
61.096	0.105	122192	keystroke_a	a	n/a
61.216	0.12	122432	keystroke_t	t	n/a
61.291	0.12	122582	keystroke_e	e	n/a
61.441	0.09	122882	keystroke_Key.space	Key.space	n/a
62.3715	0.059	124743	keystroke_c	c	n/a
62.5505	0.105	125101	keystroke_r	r	n/a
62.6255	0.105	125251	keystroke_a	a	n/a
63.1655	0.105	126331	keystroke_w	w	n/a
63.5265	0.074	127053	keystroke_f	f	n/a
63.6605	0.12	127321	keystroke_o	o	n/a
63.7655	0.12	127531	keystroke_r	r	n/a
63.8555	0.135	127711	keystroke_d	d	n/a
64.0205	0.09	128041	keystroke_Key.enter	Key.enter	n/a
64.1155	7.212	128231	prompt	n/a	detected pipe nonprofit retailers\n
64.741	0.06	129482	keystroke_d	d	n/a
64.876	0.09	129752	keystroke_e	e	n/a
65.1015	0.0895	130203	keystroke_t	t	n/a
65.1465	0.1045	130293	keystroke_e	e	n/a
65.551	0.09	131102	keystroke_c	c	n/a
65.806	0.0755	131612	keystroke_t	t	n/a
65.8515	0.075	131703	keystroke_e	e	n/a
66.0165	0.075	132033	keystroke_d	d	n/a
66.1815	0.06	132363	keystroke_Key.space	Key.space	n/a
66.3015	0.12	132603	keystroke_p	p	n/a
66.4365	0.105	132873	keystroke_i	i	n/a
66.5565	0.12	133113	keystroke_p	p	n/a
66.7365	0.075	133473	keystroke_e	e	n/a
66.8715	0.075	133743	keystroke_Key.space	Key.space	n/a
67.186	0.0905	134372	keystroke_c	c	n/a
67.2315	0.09	134463	keystroke_o	o	n/a
67.2615	0.12	134523	keystroke_n	n	n/a
67.6365	0.06	135273	keystroke_Key.backspace	Key.backspace	n/a
67.7715	0.06	135543	keystroke_Key.backspace	Key.backspace	n/a
67.8915	0.075	135783	keystroke_Key.backspace	Key.backspace	n/a
68.1165	0.06	136233	keystroke_n	n	n/a
68.1465	0.09	136293	keystroke_o	o	n/a
68.2665	0.09	136533	keystroke_n	n	n/a
68.611	0.075	137222	keystroke_p	p	n/a
68.746	0.075	137492	keystroke_r	r	n/a
68.806	0.09	137612	keystroke_o	o	n/a
69.046	0.09	138092	keystroke_f	f	n/a
69.151	0.075	138302	keystroke_i	i	n/a
69.286	0.075	138572	keystroke_t	t	n/a
69.406	0.09	138812	keystroke_Key.space	Key.space	n/a
69.736	0.09	139472	keystroke_r	r	n/a
69.781	0.09	139562	keystroke_e	e	n/a
70.0065	0.06	140013	keystroke_t	t	n/a
70.1265	0.105	140253	keystroke_a	a	n/a
70.3365	0.09	140673	keystroke_i	i	n/a
70.3665	0.1345	140733	keystroke_l	l	n/a
70.8455	0.105	141691	keystroke_e	e	n/a
70.9065	0.075	141813	keystroke_r	r	n/a
71.0865	0.1045	142173	keystroke_s	s	n/a
71.221	0.1055	142442	keystroke_Key.enter	Key.enter	n/a
71.3305	6.1175	142661	prompt	n/a	west midi mats separation\n
72.0015	0.105	144003	keystroke_w	w	n/a
72.0615	0.09	144123	keystroke_e	e	n/a
72.2715	0.12	144543	keystroke_s	s	n/a
72.3465	0.12	144693	keystroke_t	t	n/a
72.646	0.09	145292	keystroke_Key.space	Key.space	n/a
72.991	0.075	145982	keystroke_m	m	n/a
73.051	0.12	146102	keystroke_i	i	n/a
73.321	0.09	146642	keystroke_d	d	n/a
73.426	0.12	146852	keystroke_i	i	n/a
73.921	0.06	147842	keystroke_Key.space	Key.space	n/a
74.1165	0.089	148233	keystroke_m	m	n/a
74.1915	0.105	148383	keystroke_a	a	n/a
74.3865	0.12	148773	keystroke_t	t	n/a
74.7315	0.105	149463	keystroke_s	s	n/a
74.8655	0.105	149731	keystroke_Key.space	Key.space	n/a
75.0905	0.1205	150181	keystroke_s	s	n/a
75.196	0.09	150392	keystroke_e	e	n/a
75.361	0.09	150722	keystroke_p	p	n/a
75.556	0.09	151112	keystroke_e	e	n/a
75.616	0.06	151232	keystroke_r	r	n/a
75.976	0.06	151952	keystroke_Key.backspace	Key.backspace	n/a
76.126	0.06	152252	keystroke_Key.backspace	Key.backspace	n/a
76.216	0.12	152432	keystroke_a	a	n/a
76.321	0.09	152642	keystroke_r	r	n/a
76.696	0.0745	153392	keystroke_a	a	n/a
76.8905	0.09	153781	keystroke_t	t	n/a
76.9655	0.15	153931	keystroke_i	i	n/a
77.0405	0.105	154081	keystroke_o	o	n/a
77.0555	0.135	154111	keystroke_n	n	n/a
77.3405	0.105	154681	keystroke_Key.enter	Key.enter	n/a
77.453	7.5395	154906	prompt	n/a	territory scripting canberra real\n
78.0915	0.089	156183	keystroke_t	t	n/a
78.1515	0.089	156303	keystroke_e	e	n/a
78.3005	0.075	156601	keystroke_r	r	n/a
78.4505	0.09	156901	keystroke_r	r	n/a
78.5255	0.09	157051	keystroke_i	i	n/a
78.6765	0.104	157353	keystroke_t	t	n/a
78.7665	0.104	157533	keystroke_o	o	n/a
78.8565	0.104	157713	keystroke_r	r	n/a
79.0215	0.089	158043	keystroke_y	y	n/a
79.1705	0.105	158341	keystroke_Key.space	Key.space	n/a
79.5005	0.09	159001	keystroke_s	s	n/a
79.6955	0.046	159391	keystroke_r	r	n/a
79.9955	0.09	159991	keystroke_Key.backspace	Key.backspace	n/a
80.1015	0.06	160203	keystroke_c	c	n/a
80.2665	0.059	160533	keystroke_r	r	n/a
80.3115	0.12	160623	keystroke_i	i	n/a
80.3705	0.12	160741	keystroke_p	p	n/a
81.0165	0.075	162033	keystroke_t	t	n/a
81.1365	0.15	162273	keystroke_i	i	n/a
81.181	0.1655	162362	keystroke_n	n	n/a
81.316	0.0905	162632	keystroke_g	g	n/a
81.4515	0.09	162903	keystroke_Key.space	Key.space	n/a
81.826	0.12	163652	keystroke_v	v	n/a
81.901	0.12	163802	keystroke_a	a	n/a
82.036	0.12	164072	keystroke_n	n	n/a
82.5615	0.06	165123	keystroke_Key.backspace	Key.backspace	n/a
82.7115	0.06	165423	keystroke_Key.backspace	Key.backspace	n/a
82.8615	0.075	165723	keystroke_Key.backspace	Key.backspace	n/a
82.9365	0.12	165873	keystroke_c	c	n/a
83.0115	0.1045	166023	keystroke_a	a	n/a
83.0865	0.1045	166173	keystroke_n	n	n/a
83.326	0.09	166652	keystroke_b	b	n/a
83.401	0.12	166802	keystroke_e	e	n/a
83.461	0.105	166922	keystroke_r	r	n/a
83.671	0.09	167342	keystroke_r	r	n/a
83.956	0.09	167912	keystroke_a	a	n/a
84.106	0.09	168212	keystroke_Key.space	Key.space	n/a
84.346	0.105	168692	keystroke_r	r	n/a
84.421	0.075	168842	keystroke_e	e	n/a
84.511	0.105	169022	keystroke_a	a	n/a
84.646	0.105	169292	keystroke_l	l	n/a
84.916	0.075	169832	keystroke_Key.enter	Key.enter	n/a
84.996	6.0415	169992	prompt	n/a	christian betting opposition letter\n
85.711	0.09	171422	keystroke_c	c	n/a
85.786	0.06	171572	keystroke_h	h	n/a
85.891	0.075	171782	keystroke_r	r	n/a
85.936	0.105	171872	keystroke_i	i	n/a
86.101	0.105	172202	keystroke_s	s	n/a
86.356	0.09	172712	keystroke_t	t	n/a
86.431	0.09	172862	keystroke_i	i	n/a
86.611	0.09	173222	keystroke_a	a	n/a
86.731	0.105	173462	keystroke_n	n	n/a
87.046	0.06	174092	keystroke_Key.space	Key.space	n/a
87.196	0.105	174392	keystroke_b	b	n/a
87.271	0.135	174542	keystroke_e	e	n/a
87.361	0.06	174722	keystroke_t	t	n/a
87.496	0.09	174992	keystroke_t	t	n/a
87.616	0.09	175232	keystroke_i	i	n/a
87.646	0.105	175292	keystroke_n	n	n/a
87.752	0.089	175504	keystroke_g	g	n/a
87.886	0.09	175772	keystroke_Key.space	Key.space	n/a
88.081	0.09	176162	keystroke_o	o	n/a
88.261	0.06	176522	keystroke_p	p	n/a
88.3965	0.075	176793	keystroke_p	p	n/a
88.5615	0.105	177123	keystroke_o	o	n/a
88.8465	0.06	177693	keystroke_s	s	n/a
89.5065	0.074	179013	keystroke_i	i	n/a
89.7015	0.09	179403	keystroke_t	t	n/a
89.7755	0.106	179551	keystroke_i	i	n/a
89.8655	0.135	179731	keystroke_o	o	n/a
89.9115	0.165	179823	keystroke_n	n	n/a
90.0455	0.105	180091	keystroke_Key.space	Key.space	n/a
90.3905	0.12	180781	keystroke_l	l	n/a
90.4655	0.076	180931	keystroke_e	e	n/a
90.4805	0.075	180961	keystroke_t	t	n/a
90.6155	0.075	181231	keystroke_t	t	n/a
90.7365	0.09	181473	keystroke_e	e	n/a
90.7815	0.09	181563	keystroke_r	r	n/a
90.9465	0.0895	181893	keystroke_Key.enter	Key.enter	n/a
91.044	6.4285	182088	prompt	n/a	restriction strike supplements replaced\n
91.681	0.09	183362	keystroke_r	r	n/a
91.711	0.105	183422	keystroke_e	e	n/a
91.9365	0.105	183873	keystroke_s	s	n/a
92.1465	0.09	184293	keystroke_t	t	n/a
92.2965	0.075	184593	keystroke_r	r	n/a
92.3865	0.0895	184773	keystroke_i	i	n/a
92.521	0.09	185042	keystroke_c	c	n/a
92.761	0.075	185522	keystroke_t	t	n/a
92.821	0.12	185642	keystroke_i	i	n/a
92.866	0.12	185732	keystroke_o	o	n/a
92.911	0.1955	185822	keystroke_n	n	n/a
93.1215	0.06	186243	keystroke_Key.space	Key.space	n/a
93.3915	0.105	186783	keystroke_s	s	n/a
93.4665	0.09	186933	keystroke_t	t	n/a
93.6315	0.075	187263	keystroke_r	r	n/a
93.7665	0.075	187533	keystroke_i	i	n/a
93.9315	0.09	187863	keystroke_k	k	n/a
94.2765	0.06	188553	keystroke_e	e	n/a
94.5015	0.09	189003	keystroke_Key.space	Key.space	n/a
94.6665	0.09	189333	keystroke_s	s	n/a
94.7715	0.09	189543	keystroke_u	u	n/a
94.8765	0.12	189753	keystroke_p	p	n/a
95.311	0.075	190622	keystroke_p	p	n/a
95.476	0.105	190952	keystroke_l	l	n/a
95.626	0.075	191252	keystroke_e	e	n/a
95.866	0.09	191732	keystroke_m	m	n/a
95.986	0.0755	191972	keystroke_e	e	n/a
96.0765	0.105	192153	keystroke_n	n	n/a
96.1965	0.15	192393	keystroke_t	t	n/a
96.2865	0.15	192573	keystroke_s	s	n/a
96.4215	0.12	192843	keystroke_Key.space	Key.space	n/a
96.6015	0.105	193203	keystroke_r	r	n/a
96.6465	0.105	193293	keystroke_e	e	n/a
96.7665	0.135	193533	keystroke_p	p	n/a
96.8115	0.15	193623	keystroke_l	l	n/a
96.9315	0.12	193863	keystroke_a	a	n/a
97.0065	0.12	194013	keystroke_c	c	n/a
97.0965	0.0895	194193	keystroke_e	e	n/a
97.246	0.105	194492	keystroke_d	d	n/a
97.366	0.105	194732	keystroke_Key.enter	Key.enter	n/a
97.475	5.2625	194950	prompt	n/a	homework objectives bell replace\n
98.116	0.105	196232	keystroke_h	h	n/a
98.176	0.09	196352	keystroke_o	o	n/a
98.311	0.12	196622	keystroke_m	m	n/a
98.416	0.075	196832	keystroke_e	e	n/a
98.5665	0.074	197133	keystroke_w	w	n/a
98.6265	0.075	197253	keystroke_o	o	n/a
98.7165	0.089	197433	keystroke_r	r	n/a
98.7755	0.12	197551	keystroke_k	k	n/a
98.9405	0.105	197881	keystroke_Key.space	Key.space	n/a
99.226	0.105	198452	keystroke_o	o	n/a
99.316	0.12	198632	keystroke_b	b	n/a
99.586	0.09	199172	keystroke_j	j	n/a
99.677	0.119	199354	keystroke_e	e	n/a
99.736	0.09	199472	keystroke_c	c	n/a
100.636	0.06	201272	keystroke_t	t	n/a
100.711	0.09	201422	keystroke_i	i	n/a
100.831	0.105	201662	keystroke_v	v	n/a
101.041	0.12	202082	keystroke_e	e	n/a
101.116	0.135	202232	keystroke_s	s	n/a
101.236	0.0605	202472	keystroke_Key.space	Key.space	n/a
101.3715	0.075	202743	keystroke_b	b	n/a
101.4165	0.09	202833	keystroke_e	e	n/a
101.5215	0.09	203043	keystroke_l	l	n/a
101.6715	0.1045	203343	keystroke_l	l	n/a
101.806	0.105	203612	keystroke_Key.space	Key.space	n/a
101.941	0.105	203882	keystroke_r	r	n/a
101.986	0.105	203972	keystroke_e	e	n/a
102.106	0.09	204212	keystroke_p	p	n/a
102.151	0.135	204302	keystroke_l	l	n/a
102.271	0.09	204542	keystroke_a	a	n/a
102.406	0.09	204812	keystroke_c	c	n/a
102.466	0.12	204932	keystroke_e	e	n/a
102.6465	0.089	205293	keystroke_Key.enter	Key.enter	n/a
102.7405	6.252	205481	prompt	n/a	active the proxy purchases\n
103.3505	0.121	206701	keystroke_a	a	n/a
103.7715	0.105	207543	keystroke_c	c	n/a
104.0415	0.104	208083	keystroke_t	t	n/a
104.1605	0.1055	208321	keystroke_i	i	n/a
104.281	0.075	208562	keystroke_v	v	n/a
104.311	0.135	208622	keystroke_e	e	n/a
104.431	0.075	208862	keystroke_Key.space	Key.space	n/a
104.566	0.075	209132	keystroke_t	t	n/a
104.626	0.09	209252	keystroke_h	h	n/a
104.701	0.12	209402	keystroke_e	e	n/a
104.806	0.075	209612	keystroke_Key.space	Key.space	n/a
104.956	0.0895	209912	keystroke_p	p	n/a
105.061	0.0755	210122	keystroke_r	r	n/a
105.1215	0.105	210243	keystroke_o	o	n/a
105.3315	0.09	210663	keystroke_x	x	n/a
105.5415	0.105	211083	keystroke_y	y	n/a
105.7515	0.075	211503	keystroke_Key.space	Key.space	n/a
105.9465	0.105	211893	keystroke_p	p	n/a
106.0965	0.09	212193	keystroke_r	r	n/a
106.1565	0.135	212313	keystroke_u	u	n/a
106.4415	0.06	212883	keystroke_Key.backspace	Key.backspace	n/a
106.5615	0.075	213123	keystroke_Key.backspace	Key.backspace	n/a
106.7265	0.105	213453	keystroke_u	u	n/a
106.7865	0.09	213573	keystroke_r	r	n/a
106.9815	0.075	213963	keystroke_c	c	n/a
107.0565	0.105	214113	keystroke_h	h	n/a
107.1315	0.12	214263	keystroke_a	a	n/a
107.3565	0.12	214713	keystroke_e	e	n/a
107.4465	0.12	214893	keystroke_s	s	n/a
107.6115	0.09	215223	keystroke_s	s	n/a
107.9115	0.075	215823	keystroke_Key.backspace	Key.backspace	n/a
108.0465	0.0745	216093	keystroke_Key.backspace	Key.backspace	n/a
108.196	0.09	216392	keystroke_Key.backspace	Key.backspace	n/a
108.301	0.12	216602	keystroke_s	s	n/a
108.391	0.09	216782	keystroke_e	e	n/a
108.541	0.09	217082	keystroke_s	s	n/a
108.886	0.105	217772	keystroke_Key.enter	Key.enter	n/a
108.996	9.642	217992	prompt	n/a	produced possibly atmospheric evaluations\n
109.5765	0.12	219153	keystroke_p	p	n/a
109.6515	0.09	219303	keystroke_o	o	n/a
109.7115	0.075	219423	keystroke_r	r	n/a
110.0565	0.06	220113	keystroke_u	u	n/a
110.0705	0.061	220141	keystroke_d	d	n/a
110.311	0.06	220622	keystroke_Key.backspace	Key.backspace	n/a
110.446	0.075	220892	keystroke_Key.backspace	Key.backspace	n/a
110.671	0.015	221342	keystroke_Key.backspace	Key.backspace	n/a
110.716	0.06	221432	keystroke_Key.backspace	Key.backspace	n/a
110.971	0.075	221942	keystroke_o	o	n/a
110.986	0.061	221972	keystroke_r	r	n/a
111.526	0.045	223052	keystroke_Key.backspace	Key.backspace	n/a
111.631	0.0605	223262	keystroke_Key.backspace	Key.backspace	n/a
111.811	0.09	223622	keystroke_r	r	n/a
111.886	0.105	223772	keystroke_o	o	n/a
112.021	0.09	224042	keystroke_d	d	n/a
112.1715	0.0895	224343	keystroke_u	u	n/a
112.336	0.105	224672	keystroke_c	c	n/a
113.041	0.015	226082	keystroke_e	e	n/a
113.1615	0.074	226323	keystroke_d	d	n/a
113.2805	0.075	226561	keystroke_Key.space	Key.space	n/a
113.4155	0.06	226831	keystroke_p	p	n/a
113.4605	0.106	226921	keystroke_o	o	n/a
113.6415	0.015	227283	keystroke_s	s	n/a
113.7465	0.06	227493	keystroke_s	s	n/a
113.8365	0.09	227673	keystroke_i	i	n/a
113.9565	0.105	227913	keystroke_b	b	n/a
114.0315	0.18	228063	keystroke_l	l	n/a
114.2415	0.09	228483	keystroke_y	y	n/a
114.3615	0.09	228723	keystroke_Key.space	Key.space	n/a
114.5565	0.1045	229113	keystroke_a	a	n/a
114.886	0.1045	229772	keystroke_t	t	n/a
115.1855	0.09	230371	keystroke_m	m	n/a
115.2165	0.12	230433	keystroke_o	o	n/a
115.3655	0.106	230731	keystroke_s	s	n/a
115.6655	0.121	231331	keystroke_p	p	n/a
115.7415	0.12	231483	keystroke_h	h	n/a
116.311	0.1045	232622	keystroke_e	e	n/a
116.3705	0.105	232741	keystroke_r	r	n/a
116.477	0.134	232954	keystroke_i	i	n/a
116.6415	0.12	233283	keystroke_c	c	n/a
116.7765	0.105	233553	keystroke_Key.space	Key.space	n/a
116.9565	0.09	233913	keystroke_e	e	n/a
117.1665	0.105	234333	keystroke_v	v	n/a
117.3615	0.105	234723	keystroke_a	a	n/a
117.5115	0.1345	235023	keystroke_l	l	n/a
117.826	0.09	235652	keystroke_u	u	n/a
117.991	0.09	235982	keystroke_a	a	n/a
118.156	0.09	236312	keystroke_t	t	n/a
118.201	0.135	236402	keystroke_i	i	n/a
118.261	0.09	236522	keystroke_o	o	n/a
118.306	0.12	236612	keystroke_n	n	n/a
118.411	0.09	236822	keystroke_s	s	n/a
118.516	0.12	237032	keystroke_Key.enter	Key.enter	n/a
118.642	8.0805	237284	prompt	n/a	alexander biotechnology wisdom strand\n
119.266	0.0905	238532	keystroke_a	a	n/a
119.3715	0.09	238743	keystroke_l	l	n/a
119.4765	0.075	238953	keystroke_e	e	n/a
119.6565	0.075	239313	keystroke_x	x	n/a
119.9115	0.0895	239823	keystroke_a	a	n/a
120.016	0.075	240032	keystroke_n	n	n/a
120.106	0.075	240212	keystroke_d	d	n/a
120.271	0.075	240542	keystroke_e	e	n/a
120.316	0.0905	240632	keystroke_r	r	n/a
120.5415	0.105	241083	keystroke_Key.space	Key.space	n/a
120.9015	0.06	241803	keystroke_b	b	n/a
120.9465	0.135	241893	keystroke_i	i	n/a
121.3065	0.105	242613	keystroke_o	o	n/a
121.6215	0.1045	243243	keystroke_t	t	n/a
121.6815	0.0895	243363	keystroke_e	e	n/a
122.071	0.09	244142	keystroke_c	c	n/a
122.146	0.105	244292	keystroke_h	h	n/a
122.611	0.06	245222	keystroke_n	n	n/a
122.656	0.09	245312	keystroke_o	o	n/a
122.821	0.1355	245642	keystroke_l	l	n/a
123.121	0.105	246242	keystroke_o	o	n/a
123.376	0.105	246752	keystroke_g	g	n/a
123.466	0.105	246932	keystroke_y	y	n/a
123.586	0.135	247172	keystroke_Key.space	Key.space	n/a
123.901	0.075	247802	keystroke_w	w	n/a
123.946	0.09	247892	keystroke_i	i	n/a
124.066	0.09	248132	keystroke_s	s	n/a
124.351	0.12	248702	keystroke_o	o	n/a
124.396	0.15	248792	keystroke_m	m	n/a
124.831	0.06	249662	keystroke_Key.backspace	Key.backspace	n/a
124.951	0.075	249902	keystroke_Key.backspace	Key.backspace	n/a
125.086	0.0895	250172	keystroke_d	d	n/a
125.1905	0.136	250381	keystroke_o	o	n/a
125.2505	0.136	250501	keystroke_m	m	n/a
125.4905	0.075	250981	keystroke_Key.space	Key.space	n/a
125.6855	0.1355	251371	keystroke_s	s	n/a
125.7755	0.0905	251551	keystroke_t	t	n/a
125.926	0.105	251852	keystroke_r	r	n/a
126.016	0.09	252032	keystroke_a	a	n/a
126.121	0.09	252242	keystroke_n	n	n/a
126.4365	0.074	252873	keystroke_d	d	n/a
126.6005	0.1205	253201	keystroke_Key.enter	Key.enter	n/a
126.725	6.373	253450	prompt	n/a	checkout appreciated dragon activity\n
127.3815	0.105	254763	keystroke_c	c	n/a
127.4715	0.089	254943	keystroke_h	h	n/a
127.5765	0.105	255153	keystroke_e	e	n/a
127.6515	0.09	255303	keystroke_c	c	n/a
127.6955	0.105	255391	keystroke_k	k	n/a
128.0115	0.09	256023	keystroke_o	o	n/a
128.0565	0.1345	256113	keystroke_u	u	n/a
128.1765	0.1045	256353	keystroke_t	t	n/a
128.296	0.1055	256592	keystroke_Key.space	Key.space	n/a
128.4765	0.105	256953	keystroke_a	a	n/a
128.5515	0.075	257103	keystroke_p	p	n/a
128.6865	0.12	257373	keystroke_p	p	n/a
128.7915	0.12	257583	keystroke_r	r	n/a
128.8515	0.09	257703	keystroke_e	e	n/a
129.091	0.09	258182	keystroke_c	c	n/a
129.211	0.09	258422	keystroke_i	i	n/a
129.316	0.09	258632	keystroke_a	a	n/a
129.451	0.105	258902	keystroke_t	t	n/a
129.511	0.075	259022	keystroke_e	e	n/a
129.6765	0.09	259353	keystroke_d	d	n/a
129.8265	0.0895	259653	keystroke_Key.space	Key.space	n/a
130.1705	0.091	260341	keystroke_d	d	n/a
130.3365	0.105	260673	keystroke_r	r	n/a
130.4565	0.105	260913	keystroke_a	a	n/a
130.6365	0.09	261273	keystroke_g	g	n/a
130.7415	0.09	261483	keystroke_o	o	n/a
130.7865	0.15	261573	keystroke_n	n	n/a
131.0415	0.075	262083	keystroke_Key.space	Key.space	n/a
131.2365	0.135	262473	keystroke_a	a	n/a
131.4015	0.12	262803	keystroke_c	c	n/a
131.7465	0.09	263493	keystroke_t	t	n/a
131.8515	0.075	263703	keystroke_i	i	n/a
132.301	0.105	264602	keystroke_v	v	n/a
132.391	0.09	264782	keystroke_i	i	n/a
132.601	0.075	265202	keystroke_t	t	n/a
132.707	0.104	265414	keystroke_y	y	n/a
133.006	0.09	266012	keystroke_Key.enter	Key.enter	n/a
133.102	6.986	266204	prompt	n/a	afraid friendly burner outline\n
133.816	0.105	267632	keystroke_a	a	n/a
134.086	0.075	268172	keystroke_f	f	n/a
134.401	0.105	268802	keystroke_r	r	n/a
134.491	0.135	268982	keystroke_a	a	n/a
134.791	0.09	269582	keystroke_i	i	n/a
134.926	0.09	269852	keystroke_d	d	n/a
135.1215	0.105	270243	keystroke_Key.space	Key.space	n/a
135.616	0.09	271232	keystroke_f	f	n/a
135.661	0.09	271322	keystroke_r	r	n/a
135.766	0.09	271532	keystroke_i	i	n/a
135.841	0.075	271682	keystroke_e	e	n/a
135.931	0.12	271862	keystroke_n	n	n/a
136.036	0.075	272072	keystroke_d	d	n/a
136.186	0.12	272372	keystroke_l	l	n/a
136.307	0.104	272614	keystroke_y	y	n/a
136.516	0.09	273032	keystroke_Key.space	Key.space	n/a
136.7865	0.075	273573	keystroke_b	b	n/a
136.8765	0.105	273753	keystroke_r	r	n/a
136.9515	0.105	273903	keystroke_u	u	n/a
137.4915	0.089	274983	keystroke_Key.backspace	Key.backspace	n/a
137.6265	0.075	275253	keystroke_Key.backspace	Key.backspace	n/a
137.9265	0.075	275853	keystroke_u	u	n/a
138.1815	0.09	276363	keystroke_r	r	n/a
138.3755	0.091	276751	keystroke_n	n	n/a
138.5265	0.105	277053	keystroke_e	e	n/a
138.5865	0.12	277173	keystroke_r	r	n/a
138.7655	0.091	277531	keystroke_Key.space	Key.space	n/a
139.0215	0.1195	278043	keystroke_o	o	n/a
139.096	0.165	278192	keystroke_u	u	n/a
139.246	0.105	278492	keystroke_t	t	n/a
139.576	0.1355	279152	keystroke_l	l	n/a
139.6365	0.165	279273	keystroke_i	i	n/a
139.696	0.165	279392	keystroke_n	n	n/a
139.8165	0.105	279633	keystroke_e	e	n/a
139.966	0.1205	279932	keystroke_Key.enter	Key.enter	n/a
140.0905	6.1775	280181	prompt	n/a	believe generic kodak wheat\n
140.7915	0.0745	281583	keystroke_b	b	n/a
140.867	0.105	281734	keystroke_e	e	n/a
140.972	0.119	281944	keystroke_l	l	n/a
141.046	0.105	282092	keystroke_i	i	n/a
141.121	0.105	282242	keystroke_e	e	n/a
141.316	0.12	282632	keystroke_v	v	n/a
141.376	0.15	282752	keystroke_e	e	n/a
141.481	0.12	282962	keystroke_Key.space	Key.space	n/a
141.736	0.075	283472	keystroke_g	g	n/a
141.886	0.09	283772	keystroke_e	e	n/a
142.006	0.105	284012	keystroke_n	n	n/a
142.126	0.105	284252	keystroke_e	e	n/a
142.201	0.105	284402	keystroke_r	r	n/a
142.651	0.09	285302	keystroke_i	i	n/a
142.771	0.135	285542	keystroke_c	c	n/a
142.921	0.06	285842	keystroke_Key.space	Key.space	n/a
143.161	0.09	286322	keystroke_h	h	n/a
143.176	0.165	286352	keystroke_o	o	n/a
143.8515	0.06	287703	keystroke_Key.backspace	Key.backspace	n/a
143.9865	0.06	287973	keystroke_Key.backspace	Key.backspace	n/a
144.2415	0.09	288483	keystroke_k	k	n/a
144.2865	0.105	288573	keystroke_o	o	n/a
144.496	0.1205	288992	keystroke_d	d	n/a
144.586	0.136	289172	keystroke_a	a	n/a
144.736	0.105	289472	keystroke_k	k	n/a
144.9165	0.105	289833	keystroke_Key.space	Key.space	n/a
145.2465	0.075	290493	keystroke_w	w	n/a
145.2915	0.105	290583	keystroke_h	h	n/a
145.4265	0.03	290853	keystroke_e	e	n/a
145.8465	0.09	291693	keystroke_a	a	n/a
146.0565	0.09	292113	keystroke_t	t	n/a
146.1615	0.1045	292323	keystroke_Key.enter	Key.enter	n/a
146.2705	5.9975	292541	prompt	n/a	soul association sake unemployment\n
147.061	0.105	294122	keystroke_s	s	n/a
147.091	0.106	294182	keystroke_o	o	n/a
147.181	0.15	294362	keystroke_u	u	n/a
147.271	0.2105	294542	keystroke_l	l	n/a
147.466	0.1055	294932	keystroke_Key.space	Key.space	n/a
147.661	0.105	295322	keystroke_a	a	n/a
147.946	0.06	295892	keystroke_s	s	n/a
148.096	0.075	296192	keystroke_s	s	n/a
148.186	0.12	296372	keystroke_o	o	n/a
148.411	0.09	296822	keystroke_c	c	n/a
148.516	0.09	297032	keystroke_i	i	n/a
148.621	0.105	297242	keystroke_a	a	n/a
148.801	0.105	297602	keystroke_t	t	n/a
148.876	0.1205	297752	keystroke_i	i	n/a
148.921	0.1055	297842	keystroke_o	o	n/a
149.0115	0.1795	298023	keystroke_n	n	n/a
149.146	0.12	298292	keystroke_Key.space	Key.space	n/a
149.281	0.075	298562	keystroke_s	s	n/a
149.611	0.12	299222	keystroke_a	a	n/a
149.761	0.12	299522	keystroke_k	k	n/a
149.851	0.105	299702	keystroke_e	e	n/a
149.971	0.105	299942	keystroke_Key.space	Key.space	n/a
150.241	0.15	300482	keystroke_u	u	n/a
150.316	0.15	300632	keystroke_n	n	n/a
150.661	0.105	301322	keystroke_e	e	n/a
150.781	0.12	301562	keystroke_m	m	n/a
151.006	0.106	302012	keystroke_p	p	n/a
151.051	0.106	302102	keystroke_l	l	n/a
151.246	0.076	302492	keystroke_o	o	n/a
151.426	0.076	302852	keystroke_y	y	n/a
151.727	0.0745	303454	keystroke_m	m	n/a
151.8165	0.075	303633	keystroke_e	e	n/a
151.9065	0.09	303813	keystroke_n	n	n/a
152.0265	0.105	304053	keystroke_t	t	n/a
152.1465	0.12	304293	keystroke_Key.enter	Key.enter	n/a
152.28	7.143	304560	prompt	n/a	industries following race jerusalem\n
152.8665	0.135	305733	keystroke_i	i	n/a
152.9265	0.12	305853	keystroke_n	n	n/a
153.1065	0.075	306213	keystroke_d	d	n/a
153.1965	0.09	306393	keystroke_u	u	n/a
153.3015	0.09	306603	keystroke_s	s	n/a
153.5565	0.06	307113	keystroke_t	t	n/a
153.6915	0.135	307383	keystroke_r	r	n/a
153.8115	0.105	307623	keystroke_a	a	n/a
153.9465	0.105	307893	keystroke_i	i	n/a
154.3815	0.0745	308763	keystroke_Key.backspace	Key.backspace	n/a
154.502	0.074	309004	keystroke_Key.backspace	Key.backspace	n/a
154.726	0.106	309452	keystroke_i	i	n/a
154.816	0.136	309632	keystroke_e	e	n/a
154.906	0.12	309812	keystroke_s	s	n/a
155.086	0.09	310172	keystroke_Key.space	Key.space	n/a
155.251	0.105	310502	keystroke_f	f	n/a
155.326	0.09	310652	keystroke_o	o	n/a
155.476	0.075	310952	keystroke_l	l	n/a
155.596	0.09	311192	keystroke_l	l	n/a
155.776	0.1055	311552	keystroke_o	o	n/a
155.9115	0.105	311823	keystroke_w	w	n/a
156.0015	0.135	312003	keystroke_i	i	n/a
156.0615	0.15	312123	keystroke_n	n	n/a
156.1965	0.12	312393	keystroke_g	g	n/a
156.3615	0.105	312723	keystroke_Key.space	Key.space	n/a
156.5415	0.105	313083	keystroke_r	r	n/a
156.6315	0.105	313263	keystroke_a	a	n/a
156.7665	0.1195	313533	keystroke_c	c	n/a
156.841	0.18	313682	keystroke_e	e	n/a
157.126	0.09	314252	keystroke_Key.space	Key.space	n/a
157.651	0.09	315302	keystroke_j	j	n/a
157.756	0.12	315512	keystroke_e	e	n/a
157.831	0.105	315662	keystroke_r	r	n/a
158.116	0.12	316232	keystroke_u	u	n/a
158.537	0.119	317074	keystroke_s	s	n/a
158.612	0.105	317224	keystroke_a	a	n/a
158.732	0.1045	317464	keystroke_l	l	n/a
159.0765	0.0905	318153	keystroke_e	e	n/a
159.167	0.09	318334	keystroke_m	m	n/a
159.286	0.135	318572	keystroke_Key.enter	Key.enter	n/a
159.4255	5.803	318851	prompt	n/a	money martial meter arbitrary\n
160.0515	0.105	320103	keystroke_m	m	n/a
160.1415	0.105	320283	keystroke_o	o	n/a
160.2165	0.09	320433	keystroke_n	n	n/a
160.3515	0.105	320703	keystroke_e	e	n/a
160.4415	0.135	320883	keystroke_y	y	n/a
160.6215	0.06	321243	keystroke_Key.space	Key.space	n/a
160.8165	0.105	321633	keystroke_m	m	n/a
160.9365	0.12	321873	keystroke_a	a	n/a
161.611	0.075	323222	keystroke_r	r	n/a
161.8665	0.045	323733	keystroke_t	t	n/a
161.8965	0.09	323793	keystroke_i	i	n/a
162.0015	0.12	324003	keystroke_a	a	n/a
162.1065	0.135	324213	keystroke_l	l	n/a
162.2265	0.105	324453	keystroke_Key.space	Key.space	n/a
162.6765	0.12	325353	keystroke_m	m	n/a
162.8115	0.09	325623	keystroke_e	e	n/a
163.0215	0.0755	326043	keystroke_t	t	n/a
163.126	0.106	326252	keystroke_e	e	n/a
163.187	0.12	326374	keystroke_r	r	n/a
163.367	0.075	326734	keystroke_Key.space	Key.space	n/a
163.607	0.12	327214	keystroke_a	a	n/a
163.667	0.105	327334	keystroke_r	r	n/a
163.982	0.06	327964	keystroke_b	b	n/a
164.042	0.12	328084	keystroke_i	i	n/a
164.297	0.09	328594	keystroke_t	t	n/a
164.477	0.12	328954	keystroke_r	r	n/a
164.567	0.12	329134	keystroke_a	a	n/a
164.807	0.09	329614	keystroke_r	r	n/a
164.911	0.106	329822	keystroke_y	y	n/a
165.137	0.09	330274	keystroke_Key.enter	Key.enter	n/a
165.233	8.2	330466	prompt	n/a	musician attitudes delayed cruises\n
165.8115	0.09	331623	keystroke_m	m	n/a
165.9915	0.09	331983	keystroke_u	u	n/a
166.1865	0.075	332373	keystroke_s	s	n/a
166.3065	0.09	332613	keystroke_i	i	n/a
166.4415	0.12	332883	keystroke_c	c	n/a
166.5915	0.105	333183	keystroke_i	i	n/a
166.7415	0.0895	333483	keystroke_a	a	n/a
166.936	0.12	333872	keystroke_n	n	n/a
167.2215	0.075	334443	keystroke_Key.space	Key.space	n/a
167.5665	0.075	335133	keystroke_a	a	n/a
167.8215	0.06	335643	keystroke_t	t	n/a
167.9265	0.09	335853	keystroke_t	t	n/a
168.0315	0.09	336063	keystroke_i	i	n/a
168.4065	0.075	336813	keystroke_t	t	n/a
168.466	0.1055	336932	keystroke_u	u	n/a
168.6315	0.165	337263	keystroke_e	e	n/a
168.7065	0.12	337413	keystroke_s	s	n/a
169.4415	0.06	338883	keystroke_Key.backspace	Key.backspace	n/a
169.5915	0.06	339183	keystroke_Key.backspace	Key.backspace	n/a
169.6965	0.075	339393	keystroke_d	d	n/a
169.8615	0.12	339723	keystroke_e	e	n/a
169.9665	0.105	339933	keystroke_s	s	n/a
170.0565	0.09	340113	keystroke_Key.space	Key.space	n/a
170.5215	0.06	341043	keystroke_d	d	n/a
170.6565	0.075	341313	keystroke_e	e	n/a
170.7615	0.12	341523	keystroke_l	l	n/a
170.8965	0.09	341793	keystroke_a	a	n/a
171.0315	0.105	342063	keystroke_t	t	n/a
171.091	0.0755	342182	keystroke_e	e	n/a
171.4815	0.045	342963	keystroke_Key.backspace	Key.backspace	n/a
171.5865	0.06	343173	keystroke_Key.backspace	Key.backspace	n/a
171.7815	0.0745	343563	keystroke_y	y	n/a
171.827	0.06	343654	keystroke_e	e	n/a
171.962	0.12	343924	keystroke_d	d	n/a
172.096	0.0905	344192	keystroke_Key.space	Key.space	n/a
172.3515	0.045	344703	keystroke_c	c	n/a
172.5015	0.06	345003	keystroke_r	r	n/a
172.5915	0.09	345183	keystroke_u	u	n/a
172.6365	0.15	345273	keystroke_i	i	n/a
172.8615	0.105	345723	keystroke_s	s	n/a
173.0265	0.1045	346053	keystroke_e	e	n/a
173.102	0.134	346204	keystroke_s	s	n/a
173.341	0.09	346682	keystroke_Key.enter	Key.enter	n/a
173.4365	7.1215	346873	prompt	n/a	logic pick fabulous symptoms\n
174.122	0.09	348244	keystroke_l	l	n/a
174.302	0.089	348604	keystroke_o	o	n/a
174.571	0.09	349142	keystroke_g	g	n/a
174.646	0.165	349292	keystroke_i	i	n/a
174.991	0.09	349982	keystroke_c	c	n/a
175.126	0.105	350252	keystroke_Key.space	Key.space	n/a
175.397	0.089	350794	keystroke_p	p	n/a
175.427	0.119	350854	keystroke_i	i	n/a
175.561	0.09	351122	keystroke_c	c	n/a
175.636	0.12	351272	keystroke_k	k	n/a
175.771	0.075	351542	keystroke_Key.space	Key.space	n/a
175.996	0.12	351992	keystroke_f	f	n/a
176.071	0.121	352142	keystroke_a	a	n/a
176.177	0.1045	352354	keystroke_b	b	n/a
176.5965	0.105	353193	keystroke_u	u	n/a
176.7765	0.0895	353553	keystroke_l	l	n/a
176.926	0.106	353852	keystroke_o	o	n/a
176.986	0.1205	353972	keystroke_u	u	n/a
177.076	0.1055	354152	keystroke_s	s	n/a
177.2265	0.09	354453	keystroke_Key.space	Key.space	n/a
177.4515	0.12	354903	keystroke_s	s	n/a
177.5565	0.1045	355113	keystroke_u	u	n/a
177.841	0.106	355682	keystroke_m	m	n/a
178.246	0.075	356492	keystroke_Key.backspace	Key.backspace	n/a
178.381	0.06	356762	keystroke_Key.backspace	Key.backspace	n/a
178.697	0.0745	357394	keystroke_y	y	n/a
178.9215	0.075	357843	keystroke_m	m	n/a
179.2215	0.09	358443	keystroke_p	p	n/a
179.9115	0.09	359823	keystroke_t	t	n/a
179.9715	0.105	359943	keystroke_o	o	n/a
180.0165	0.15	360033	keystroke_m	m	n/a
180.2265	0.105	360453	keystroke_s	s	n/a
180.4515	0.105	360903	keystroke_Key.enter	Key.enter	n/a
180.562	9.416	361124	prompt	n/a	expertise proposal phys inspiration\n
181.2165	0.06	362433	keystroke_e	e	n/a
181.4415	0.09	362883	keystroke_x	x	n/a
181.6815	0.0895	363363	keystroke_p	p	n/a
181.756	0.105	363512	keystroke_e	e	n/a
181.801	0.105	363602	keystroke_r	r	n/a
182.041	0.075	364082	keystroke_t	t	n/a
182.131	0.105	364262	keystroke_i	i	n/a
182.251	0.09	364502	keystroke_s	s	n/a
182.296	0.105	364592	keystroke_e	e	n/a
182.446	0.06	364892	keystroke_Key.space	Key.space	n/a
182.581	0.075	365162	keystroke_p	p	n/a
182.657	0.119	365314	keystroke_r	r	n/a
182.731	0.09	365462	keystroke_o	o	n/a
182.941	0.105	365882	keystroke_p	p	n/a
183.302	0.09	366604	keystroke_o	o	n/a
183.467	0.105	366934	keystroke_s	s	n/a
183.692	0.09	367384	keystroke_a	a	n/a
183.797	0.105	367594	keystroke_l	l	n/a
183.917	0.09	367834	keystroke_Key.space	Key.space	n/a
184.112	0.104	368224	keystroke_p	p	n/a
184.187	0.105	368374	keystroke_h	h	n/a
184.352	0.1195	368704	keystroke_y	y	n/a
184.5015	0.0745	369003	keystroke_s	s	n/a
184.741	0.09	369482	keystroke_Key.space	Key.space	n/a
184.922	0.12	369844	keystroke_i	i	n/a
184.982	0.09	369964	keystroke_n	n	n/a
185.2215	0.105	370443	keystroke_p	p	n/a
185.3715	0.045	370743	keystroke_s	s	n/a
185.4465	0.12	370893	keystroke_i	i	n/a
186.2715	0.075	372543	keystroke_Key.backspace	Key.backspace	n/a
186.4215	0.09	372843	keystroke_Key.backspace	Key.backspace	n/a
186.9615	0.06	373923	keystroke_Key.backspace	Key.backspace	n/a
187.471	0.106	374942	keystroke_p	p	n/a
188.206	0.015	376412	keystroke_Key.backspace	Key.backspace	n/a
188.3715	0.075	376743	keystroke_s	s	n/a
188.4765	0.0755	376953	keystroke_p	p	n/a
188.657	0.105	377314	keystroke_i	i	n/a
188.807	0.075	377614	keystroke_r	r	n/a
188.972	0.09	377944	keystroke_a	a	n/a
189.167	0.09	378334	keystroke_t	t	n/a
189.212	0.135	378424	keystroke_i	i	n/a
189.272	0.105	378544	keystroke_o	o	n/a
189.317	0.12	378634	keystroke_n	n	n/a
189.8715	0.105	379743	keystroke_Key.enter	Key.enter	n/a
189.9815	7.6765	379963	prompt	n/a	segment determine with html\n
190.7115	0.075	381423	keystroke_s	s	n/a
190.8765	0.09	381753	keystroke_e	e	n/a
191.326	0.0755	382652	keystroke_g	g	n/a
191.551	0.09	383102	keystroke_m	m	n/a
191.671	0.09	383342	keystroke_e	e	n/a
191.746	0.1055	383492	keystroke_n	n	n/a
191.8665	0.09	383733	keystroke_t	t	n/a
192.0015	0.1045	384003	keystroke_Key.space	Key.space	n/a
192.1965	0.075	384393	keystroke_d	d	n/a
192.3315	0.105	384663	keystroke_e	e	n/a
192.5715	0.075	385143	keystroke_t	t	n/a
192.6915	0.105	385383	keystroke_e	e	n/a
192.7515	0.105	385503	keystroke_r	r	n/a
193.0065	0.075	386013	keystroke_m	m	n/a
193.0665	0.1355	386133	keystroke_i	i	n/a
193.157	0.12	386314	keystroke_n	n	n/a
193.247	0.09	386494	keystroke_e	e	n/a
193.412	0.09	386824	keystroke_Key.space	Key.space	n/a
193.682	0.075	387364	keystroke_w	w	n/a
193.712	0.09	387424	keystroke_i	i	n/a
193.817	0.105	387634	keystroke_t	t	n/a
193.862	0.15	387724	keystroke_h	h	n/a
193.997	0.09	387994	keystroke_Key.space	Key.space	n/a
194.192	0.06	388384	keystroke_h	h	n/a
194.3415	0.06	388683	keystroke_y	y	n/a
194.6115	0.105	389223	keystroke_m	m	n/a
194.7015	0.075	389403	keystroke_p	p	n/a
195.0615	0.045	390123	keystroke_Key.backspace	Key.backspace	n/a
195.1965	0.075	390393	keystroke_Key.backspace	Key.backspace	n/a
195.361	0.105	390722	keystroke_Key.backspace	Key.backspace	n/a
195.962	0.09	391924	keystroke_t	t	n/a
196.082	0.135	392164	keystroke_m	m	n/a
196.202	0.105	392404	keystroke_p	p	n/a
196.862	0.09	393724	keystroke_Key.backspace	Key.backspace	n/a
197.342	0.074	394684	keystroke_l	l	n/a
197.5815	0.075	395163	keystroke_Key.enter	Key.enter	n/a
197.661	5.967	395322	prompt	n/a	cities studied dump influenced\n
198.4065	0.09	396813	keystroke_c	c	n/a
198.4815	0.075	396963	keystroke_i	i	n/a
198.8115	0.075	397623	keystroke_t	t	n/a
198.9315	0.105	397863	keystroke_i	i	n/a
199.0215	0.1345	398043	keystroke_e	e	n/a
199.097	0.134	398194	keystroke_s	s	n/a
199.246	0.105	398492	keystroke_Key.space	Key.space	n/a
199.4265	0.12	398853	keystroke_s	s	n/a
199.5765	0.105	399153	keystroke_t	t	n/a
199.6965	0.12	399393	keystroke_u	u	n/a
200.1465	0.105	400293	keystroke_d	d	n/a
200.2665	0.12	400533	keystroke_i	i	n/a
200.4165	0.075	400833	keystroke_e	e	n/a
200.5815	0.075	401163	keystroke_d	d	n/a
200.7165	0.105	401433	keystroke_Key.space	Key.space	n/a
201.226	0.105	402452	keystroke_d	d	n/a
201.436	0.09	402872	keystroke_u	u	n/a
201.676	0.105	403352	keystroke_m	m	n/a
201.751	0.12	403502	keystroke_p	p	n/a
202.036	0.121	404072	keystroke_Key.space	Key.space	n/a
202.397	0.105	404794	keystroke_i	i	n/a
202.442	0.12	404884	keystroke_n	n	n/a
202.652	0.075	405304	keystroke_f	f	n/a
202.742	0.09	405484	keystroke_l	l	n/a
202.772	0.119	405544	keystroke_u	u	n/a
203.012	0.059	406024	keystroke_e	e	n/a
203.0865	0.105	406173	keystroke_n	n	n/a
203.1765	0.09	406353	keystroke_c	c	n/a
203.2215	0.09	406443	keystroke_e	e	n/a
203.4015	0.075	406803	keystroke_d	d	n/a
203.5365	0.09	407073	keystroke_Key.enter	Key.enter	n/a
203.631	6.432	407262	prompt	n/a	apartment explained personality lesser\n
204.2415	0.09	408483	keystroke_a	a	n/a
204.3165	0.105	408633	keystroke_p	p	n/a
204.4215	0.12	408843	keystroke_a	a	n/a
204.5115	0.105	409023	keystroke_r	r	n/a
204.6915	0.09	409383	keystroke_m	m	n/a
204.7215	0.09	409443	keystroke_t	t	n/a
205.3815	0.075	410763	keystroke_Key.backspace	Key.backspace	n/a
205.5165	0.09	411033	keystroke_Key.backspace	Key.backspace	n/a
205.6215	0.075	411243	keystroke_t	t	n/a
205.7715	0.075	411543	keystroke_m	m	n/a
205.8615	0.075	411723	keystroke_e	e	n/a
205.9515	0.0895	411903	keystroke_n	n	n/a
206.042	0.104	412084	keystroke_t	t	n/a
206.191	0.1055	412382	keystroke_Key.space	Key.space	n/a
206.4315	0.06	412863	keystroke_e	e	n/a
206.6265	0.075	413253	keystroke_x	x	n/a
206.7165	0.12	413433	keystroke_p	p	n/a
206.7765	0.12	413553	keystroke_l	l	n/a
206.9565	0.075	413913	keystroke_a	a	n/a
207.0465	0.1045	414093	keystroke_i	i	n/a
207.0915	0.1495	414183	keystroke_n	n	n/a
207.181	0.075	414362	keystroke_e	e	n/a
207.316	0.105	414632	keystroke_d	d	n/a
207.451	0.09	414902	keystroke_Key.space	Key.space	n/a
207.691	0.12	415382	keystroke_p	p	n/a
207.766	0.09	415532	keystroke_e	e	n/a
207.826	0.076	415652	keystroke_r	r	n/a
208.052	0.09	416104	keystroke_s	s	n/a
208.112	0.135	416224	keystroke_o	o	n/a
208.172	0.135	416344	keystroke_n	n	n/a
208.457	0.105	416914	keystroke_a	a	n/a
208.532	0.12	417064	keystroke_l	l	n/a
208.802	0.105	417604	keystroke_i	i	n/a
208.967	0.105	417934	keystroke_t	t	n/a
209.042	0.09	418084	keystroke_y	y	n/a
209.267	0.075	418534	keystroke_Key.space	Key.space	n/a
209.387	0.135	418774	keystroke_l	l	n/a
209.477	0.09	418954	keystroke_e	e	n/a
209.537	0.06	419074	keystroke_s	s	n/a
209.657	0.075	419314	keystroke_s	s	n/a
209.807	0.074	419614	keystroke_e	e	n/a
209.852	0.105	419704	keystroke_r	r	n/a
209.971	0.091	419942	keystroke_Key.enter	Key.enter	n/a
210.0675	6.0405	420135	prompt	n/a	patches faith kingdom corporation\n
210.6615	0.105	421323	keystroke_p	p	n/a
210.7215	0.105	421443	keystroke_a	a	n/a
210.9765	0.06	421953	keystroke_t	t	n/a
211.1865	0.06	422373	keystroke_c	c	n/a
211.2615	0.09	422523	keystroke_h	h	n/a
211.3665	0.105	422733	keystroke_e	e	n/a
211.4265	0.12	422853	keystroke_s	s	n/a
211.5315	0.105	423063	keystroke_Key.space	Key.space	n/a
211.696	0.106	423392	keystroke_f	f	n/a
211.787	0.105	423574	keystroke_a	a	n/a
211.876	0.106	423752	keystroke_i	i	n/a
212.041	0.09	424082	keystroke_t	t	n/a
212.146	0.1355	424292	keystroke_h	h	n/a
212.2965	0.09	424593	keystroke_Key.space	Key.space	n/a
212.6565	0.06	425313	keystroke_k	k	n/a
212.7915	0.09	425583	keystroke_i	i	n/a
212.8515	0.105	425703	keystroke_n	n	n/a
212.9565	0.09	425913	keystroke_g	g	n/a
213.227	0.09	426454	keystroke_d	d	n/a
213.302	0.09	426604	keystroke_o	o	n/a
213.332	0.12	426664	keystroke_m	m	n/a
213.557	0.09	427114	keystroke_Key.space	Key.space	n/a
213.811	0.105	427622	keystroke_c	c	n/a
213.931	0.12	427862	keystroke_o	o	n/a
214.037	0.074	428074	keystroke_r	r	n/a
214.3665	0.09	428733	keystroke_p	p	n/a
214.4265	0.15	428853	keystroke_o	o	n/a
214.5465	0.075	429093	keystroke_r	r	n/a
214.7115	0.06	429423	keystroke_t	t	n/a
214.9065	0.135	429813	keystroke_a	a	n/a
215.236	0.045	430472	keystroke_Key.backspace	Key.backspace	n/a
215.356	0.06	430712	keystroke_Key.backspace	Key.backspace	n/a
215.432	0.089	430864	keystroke_a	a	n/a
215.596	0.09	431192	keystroke_t	t	n/a
215.641	0.12	431282	keystroke_i	i	n/a
215.701	0.105	431402	keystroke_o	o	n/a
215.746	0.135	431492	keystroke_n	n	n/a
216.001	0.105	432002	keystroke_Key.enter	Key.enter	n/a
216.1105	8.9975	432221	prompt	n/a	ethnic certificate tournament travelling\n
216.826	0.091	433652	keystroke_e	e	n/a
217.381	0.075	434762	keystroke_t	t	n/a
217.441	0.09	434882	keystroke_h	h	n/a
217.726	0.106	435452	keystroke_n	n	n/a
217.787	0.119	435574	keystroke_i	i	n/a
217.891	0.09	435782	keystroke_c	c	n/a
218.236	0.105	436472	keystroke_Key.space	Key.space	n/a
218.716	0.075	437432	keystroke_c	c	n/a
218.851	0.09	437702	keystroke_e	e	n/a
218.911	0.0755	437822	keystroke_r	r	n/a
219.107	0.075	438214	keystroke_t	t	n/a
219.167	0.135	438334	keystroke_i	i	n/a
219.467	0.075	438934	keystroke_f	f	n/a
219.512	0.105	439024	keystroke_i	i	n/a
219.797	0.075	439594	keystroke_c	c	n/a
219.917	0.12	439834	keystroke_a	a	n/a
220.022	0.1045	440044	keystroke_t	t	n/a
220.082	0.1195	440164	keystroke_e	e	n/a
220.2765	0.09	440553	keystroke_Key.space	Key.space	n/a
220.5765	0.075	441153	keystroke_t	t	n/a
220.6665	0.135	441333	keystroke_o	o	n/a
220.7415	0.165	441483	keystroke_u	u	n/a
221.327	0.0895	442654	keystroke_r	r	n/a
221.7615	0.09	443523	keystroke_n	n	n/a
221.9265	0.09	443853	keystroke_a	a	n/a
222.0165	0.09	444033	keystroke_m	m	n/a
222.3315	0.09	444663	keystroke_e	e	n/a
222.4665	0.12	444933	keystroke_n	n	n/a
222.5715	0.0895	445143	keystroke_t	t	n/a
222.736	0.12	445472	keystroke_Key.space	Key.space	n/a
222.976	0.06	445952	keystroke_t	t	n/a
223.441	0.105	446882	keystroke_r	r	n/a
223.531	0.105	447062	keystroke_a	a	n/a
223.891	0.1055	447782	keystroke_v	v	n/a
224.3415	0.075	448683	keystroke_e	e	n/a
224.4315	0.075	448863	keystroke_l	l	n/a
224.5665	0.075	449133	keystroke_l	l	n/a
224.7315	0.09	449463	keystroke_i	i	n/a
224.7915	0.12	449583	keystroke_n	n	n/a
224.8665	0.09	449733	keystroke_g	g	n/a
225.0165	0.09	450033	keystroke_Key.enter	Key.enter	n/a
225.1105	4.7825	450221	prompt	n/a	became upload delete whom\n
225.6915	0.09	451383	keystroke_b	b	n/a
225.7665	0.0755	451533	keystroke_e	e	n/a
225.9465	0.12	451893	keystroke_c	c	n/a
226.0065	0.105	452013	keystroke_a	a	n/a
226.1265	0.09	452253	keystroke_m	m	n/a
226.2315	0.09	452463	keystroke_e	e	n/a
226.3365	0.09	452673	keystroke_Key.space	Key.space	n/a
226.6515	0.1345	453303	keystroke_u	u	n/a
226.726	0.135	453452	keystroke_p	p	n/a
227.2215	0.075	454443	keystroke_l	l	n/a
227.3715	0.1355	454743	keystroke_o	o	n/a
227.522	0.105	455044	keystroke_a	a	n/a
227.567	0.12	455134	keystroke_d	d	n/a
227.762	0.105	455524	keystroke_Key.space	Key.space	n/a
228.002	0.0745	456004	keystroke_d	d	n/a
228.1515	0.06	456303	keystroke_e	e	n/a
228.2415	0.12	456483	keystroke_l	l	n/a
228.3165	0.09	456633	keystroke_e	e	n/a
228.4515	0.105	456903	keystroke_t	t	n/a
228.5265	0.105	457053	keystroke_e	e	n/a
229.0665	0.09	458133	keystroke_Key.space	Key.space	n/a
229.3365	0.09	458673	keystroke_w	w	n/a
229.3665	0.105	458733	keystroke_h	h	n/a
229.4415	0.09	458883	keystroke_o	o	n/a
229.5915	0.105	459183	keystroke_m	m	n/a
229.7415	0.15	459483	keystroke_Key.enter	Key.enter	n/a
229.896	5.892	459792	prompt	n/a	dead blade alumni syndrome\n
230.4165	0.075	460833	keystroke_d	d	n/a
230.5665	0.09	461133	keystroke_e	e	n/a
230.6715	0.1055	461343	keystroke_a	a	n/a
230.7465	0.1055	461493	keystroke_d	d	n/a
230.897	0.075	461794	keystroke_Key.space	Key.space	n/a
231.121	0.09	462242	keystroke_b	b	n/a
231.196	0.135	462392	keystroke_l	l	n/a
231.256	0.105	462512	keystroke_a	a	n/a
231.316	0.105	462632	keystroke_d	d	n/a
231.496	0.075	462992	keystroke_e	e	n/a
231.676	0.09	463352	keystroke_Key.space	Key.space	n/a
232.126	0.12	464252	keystroke_a	a	n/a
232.186	0.09	464372	keystroke_l	l	n/a
232.336	0.091	464672	keystroke_u	u	n/a
232.562	0.09	465124	keystroke_m	m	n/a
232.772	0.12	465544	keystroke_n	n	n/a
232.847	0.135	465694	keystroke_i	i	n/a
233.072	0.075	466144	keystroke_Key.space	Key.space	n/a
233.312	0.105	466624	keystroke_s	s	n/a
233.432	0.06	466864	keystroke_y	y	n/a
233.657	0.09	467314	keystroke_m	m	n/a
234.407	0.09	468814	keystroke_Key.backspace	Key.backspace	n/a
234.767	0.105	469534	keystroke_n	n	n/a
235.067	0.0745	470134	keystroke_d	d	n/a
235.2765	0.075	470553	keystroke_r	r	n/a
235.3665	0.09	470733	keystroke_o	o	n/a
235.3965	0.105	470793	keystroke_m	m	n/a
235.5465	0.09	471093	keystroke_e	e	n/a
235.6665	0.12	471333	keystroke_Key.enter	Key.enter	n/a
235.791	5.637	471582	prompt	n/a	interfaces chick reporter belize\n
236.5665	0.135	473133	keystroke_i	i	n/a
236.6565	0.15	473313	keystroke_n	n	n/a
236.8365	0.075	473673	keystroke_t	t	n/a
236.9565	0.105	473913	keystroke_e	e	n/a
237.0015	0.1055	474003	keystroke_r	r	n/a
237.377	0.12	474754	keystroke_f	f	n/a
237.527	0.135	475054	keystroke_a	a	n/a
237.647	0.165	475294	keystroke_c	c	n/a
237.782	0.15	475564	keystroke_e	e	n/a
237.887	0.15	475774	keystroke_s	s	n/a
238.097	0.12	476194	keystroke_Key.space	Key.space	n/a
238.4265	0.09	476853	keystroke_c	c	n/a
238.4715	0.105	476943	keystroke_h	h	n/a
238.5615	0.09	477123	keystroke_i	i	n/a
238.6365	0.12	477273	keystroke_c	c	n/a
238.7415	0.12	477483	keystroke_k	k	n/a
238.8765	0.0905	477753	keystroke_Key.space	Key.space	n/a
239.027	0.105	478054	keystroke_r	r	n/a
239.087	0.105	478174	keystroke_e	e	n/a
239.207	0.12	478414	keystroke_p	p	n/a
239.267	0.135	478534	keystroke_o	o	n/a
239.417	0.09	478834	keystroke_r	r	n/a
239.582	0.105	479164	keystroke_t	t	n/a
239.792	0.105	479584	keystroke_e	e	n/a
239.852	0.12	479704	keystroke_r	r	n/a
240.032	0.105	480064	keystroke_Key.space	Key.space	n/a
240.317	0.105	480634	keystroke_b	b	n/a
240.662	0.09	481324	keystroke_e	e	n/a
240.857	0.12	481714	keystroke_l	l	n/a
240.917	0.165	481834	keystroke_i	i	n/a
241.022	0.165	482044	keystroke_z	z	n/a
241.142	0.12	482284	keystroke_e	e	n/a
241.3215	0.105	482643	keystroke_Key.enter	Key.enter	n/a
241.431	6.792	482862	prompt	n/a	juice lithuania federal parental\n
242.102	0.09	484204	keystroke_j	j	n/a
242.327	0.09	484654	keystroke_u	u	n/a
242.357	0.165	484714	keystroke_i	i	n/a
242.537	0.15	485074	keystroke_c	c	n/a
242.627	0.134	485254	keystroke_e	e	n/a
242.852	0.074	485704	keystroke_Key.space	Key.space	n/a
243.1665	0.075	486333	keystroke_j	j	n/a
243.5865	0.06	487173	keystroke_Key.backspace	Key.backspace	n/a
243.8275	0.104	487655	keystroke_l	l	n/a
243.9015	0.135	487803	keystroke_i	i	n/a
244.2165	0.075	488433	keystroke_t	t	n/a
244.277	0.0905	488554	keystroke_h	h	n/a
244.487	0.09	488974	keystroke_u	u	n/a
244.697	0.105	489394	keystroke_a	a	n/a
244.817	0.12	489634	keystroke_n	n	n/a
244.922	0.15	489844	keystroke_i	i	n/a
245.042	0.1195	490084	keystroke_a	a	n/a
245.2065	0.105	490413	keystroke_Key.space	Key.space	n/a
245.4315	0.091	490863	keystroke_f	f	n/a
245.6115	0.075	491223	keystroke_e	e	n/a
245.8665	0.075	491733	keystroke_d	d	n/a
246.0165	0.075	492033	keystroke_e	e	n/a
246.0465	0.105	492093	keystroke_r	r	n/a
246.2715	0.12	492543	keystroke_a	a	n/a
246.3615	0.12	492723	keystroke_l	l	n/a
246.4515	0.09	492903	keystroke_Key.space	Key.space	n/a
246.6165	0.136	493233	keystroke_p	p	n/a
246.7365	0.105	493473	keystroke_a	a	n/a
246.8115	0.09	493623	keystroke_r	r	n/a
246.9915	0.075	493983	keystroke_e	e	n/a
247.0965	0.1355	494193	keystroke_n	n	n/a
247.217	0.12	494434	keystroke_t	t	n/a
247.292	0.105	494584	keystroke_s	s	n/a
247.697	0.075	495394	keystroke_Key.backspace	Key.backspace	n/a
247.847	0.105	495694	keystroke_a	a	n/a
247.952	0.09	495904	keystroke_l	l	n/a
248.117	0.105	496234	keystroke_Key.enter	Key.enter	n/a
248.226	4.6625	496452	prompt	n/a	stated paul guide prayers\n
248.8665	0.09	497733	keystroke_s	s	n/a
248.9865	0.09	497973	keystroke_t	t	n/a
249.0615	0.1355	498123	keystroke_a	a	n/a
249.182	0.12	498364	keystroke_t	t	n/a
249.257	0.09	498514	keystroke_e	e	n/a
249.422	0.075	498844	keystroke_d	d	n/a
249.812	0.09	499624	keystroke_Key.space	Key.space	n/a
249.992	0.105	499984	keystroke_p	p	n/a
250.067	0.09	500134	keystroke_a	a	n/a
250.202	0.12	500404	keystroke_u	u	n/a
250.277	0.18	500554	keystroke_l	l	n/a
250.442	0.105	500884	keystroke_Key.space	Key.space	n/a
250.697	0.09	501394	keystroke_g	g	n/a
250.757	0.12	501514	keystroke_u	u	n/a
250.832	0.135	501664	keystroke_i	i	n/a
250.952	0.075	501904	keystroke_d	d	n/a
251.1165	0.09	502233	keystroke_e	e	n/a
251.267	0.12	502534	keystroke_Key.space	Key.space	n/a
251.627	0.12	503254	keystroke_p	p	n/a
251.747	0.15	503494	keystroke_r	r	n/a
251.867	0.12	503734	keystroke_a	a	n/a
252.317	0.09	504634	keystroke_y	y	n/a
252.437	0.09	504874	keystroke_e	e	n/a
252.482	0.075	504964	keystroke_r	r	n/a
252.662	0.09	505324	keystroke_s	s	n/a
252.8115	0.075	505623	keystroke_Key.enter	Key.enter	n/a
252.8915	6.852	505783	prompt	n/a	publications direct filtering framework\n
253.607	0.135	507214	keystroke_p	p	n/a
253.802	0.09	507604	keystroke_u	u	n/a
254.087	0.09	508174	keystroke_b	b	n/a
254.192	0.165	508384	keystroke_l	l	n/a
254.282	0.135	508564	keystroke_i	i	n/a
254.627	0.105	509254	keystroke_c	c	n/a
254.702	0.105	509404	keystroke_a	a	n/a
255.002	0.09	510004	keystroke_t	t	n/a
255.062	0.195	510124	keystroke_i	i	n/a
255.122	0.135	510244	keystroke_o	o	n/a
255.182	0.1645	510364	keystroke_n	n	n/a
255.3615	0.12	510723	keystroke_s	s	n/a
255.4965	0.075	510993	keystroke_Key.space	Key.space	n/a
255.5865	0.09	511173	keystroke_d	d	n/a
255.6915	0.105	511383	keystroke_i	i	n/a
255.7815	0.105	511563	keystroke_r	r	n/a
255.9765	0.09	511953	keystroke_e	e	n/a
256.0675	0.089	512135	keystroke_c	c	n/a
256.2915	0.06	512583	keystroke_t	t	n/a
256.3815	0.105	512763	keystroke_Key.space	Key.space	n/a
256.7265	0.09	513453	keystroke_f	f	n/a
256.8015	0.12	513603	keystroke_i	i	n/a
256.8615	0.135	513723	keystroke_l	l	n/a
257.0565	0.0605	514113	keystroke_t	t	n/a
257.177	0.105	514354	keystroke_e	e	n/a
257.237	0.075	514474	keystroke_r	r	n/a
257.327	0.12	514654	keystroke_i	i	n/a
257.372	0.15	514744	keystroke_n	n	n/a
257.492	0.105	514984	keystroke_g	g	n/a
257.612	0.105	515224	keystroke_Key.space	Key.space	n/a
257.822	0.03	515644	keystroke_g	g	n/a
258.2415	0.0755	516483	keystroke_Key.backspace	Key.backspace	n/a
258.287	0.075	516574	keystroke_f	f	n/a
258.437	0.105	516874	keystroke_r	r	n/a
258.497	0.105	516994	keystroke_a	a	n/a
258.617	0.105	517234	keystroke_m	m	n/a
258.932	0.09	517864	keystroke_e	e	n/a
259.2465	0.075	518493	keystroke_w	w	n/a
259.2915	0.09	518583	keystroke_o	o	n/a
259.397	0.09	518794	keystroke_r	r	n/a
259.457	0.105	518914	keystroke_k	k	n/a
259.637	0.105	519274	keystroke_Key.enter	Key.enter	n/a
259.746	8.9525	519492	prompt	n/a	employ explaining traveler who'd've\n
260.417	0.075	520834	keystroke_e	e	n/a
260.492	0.105	520984	keystroke_p	p	n/a
261.287	0.06	522574	keystroke_Key.backspace	Key.backspace	n/a
261.587	0.09	523174	keystroke_m	m	n/a
261.767	0.12	523534	keystroke_p	p	n/a
261.842	0.09	523684	keystroke_l	l	n/a
262.022	0.12	524044	keystroke_o	o	n/a
262.202	0.09	524404	keystroke_y	y	n/a
262.352	0.09	524704	keystroke_Key.space	Key.space	n/a
262.547	0.06	525094	keystroke_e	e	n/a
262.742	0.105	525484	keystroke_x	x	n/a
263.2075	0.089	526415	keystroke_p	p	n/a
263.2665	0.105	526533	keystroke_l	l	n/a
263.4315	0.1055	526863	keystroke_a	a	n/a
263.552	0.135	527104	keystroke_i	i	n/a
263.612	0.105	527224	keystroke_n	n	n/a
263.852	0.12	527704	keystroke_i	i	n/a
263.912	0.135	527824	keystroke_n	n	n/a
264.032	0.09	528064	keystroke_g	g	n/a
264.212	0.105	528424	keystroke_Key.space	Key.space	n/a
264.572	0.045	529144	keystroke_t	t	n/a
264.707	0.09	529414	keystroke_r	r	n/a
264.782	0.1045	529564	keystroke_a	a	n/a
265.3215	0.075	530643	keystroke_v	v	n/a
265.5015	0.075	531003	keystroke_e	e	n/a
265.6365	0.1055	531273	keystroke_l	l	n/a
266.492	0.075	532984	keystroke_e	e	n/a
266.537	0.09	533074	keystroke_r	r	n/a
266.702	0.105	533404	keystroke_Key.space	Key.space	n/a
267.1215	0.09	534243	keystroke_w	w	n/a
267.167	0.12	534334	keystroke_h	h	n/a
267.2415	0.135	534483	keystroke_o	o	n/a
267.6775	0.075	535355	keystroke_d	d	n/a
267.8575	0.105	535715	keystroke_'	'	n/a
268.0225	0.12	536045	keystroke_v	v	n/a
268.0975	0.105	536195	keystroke_e	e	n/a
268.6215	0.075	537243	keystroke_Key.enter	Key.enter	n/a
268.7035	7.48	537407	prompt	n/a	huntington zambia volvo greetings\n
269.732	0.105	539464	keystroke_h	h	n/a
269.807	0.075	539614	keystroke_u	u	n/a
269.942	0.105	539884	keystroke_n	n	n/a
270.5565	0.09	541113	keystroke_t	t	n/a
270.6615	0.09	541323	keystroke_i	i	n/a
270.6915	0.12	541383	keystroke_n	n	n/a
270.7965	0.09	541593	keystroke_g	g	n/a
271.127	0.09	542254	keystroke_t	t	n/a
271.202	0.09	542404	keystroke_o	o	n/a
271.2175	0.149	542435	keystroke_n	n	n/a
271.3675	0.089	542735	keystroke_Key.space	Key.space	n/a
271.532	0.12	543064	keystroke_s	s	n/a
271.592	0.1355	543184	keystroke_a	a	n/a
271.9675	0.045	543935	keystroke_Key.backspace	Key.backspace	n/a
272.0875	0.075	544175	keystroke_Key.backspace	Key.backspace	n/a
272.1475	0.075	544295	keystroke_z	z	n/a
272.3425	0.09	544685	keystroke_a	a	n/a
272.4475	0.09	544895	keystroke_m	m	n/a
272.8525	0.1045	545705	keystroke_b	b	n/a
272.8975	0.1495	545795	keystroke_i	i	n/a
273.062	0.105	546124	keystroke_a	a	n/a
273.2265	0.105	546453	keystroke_Key.space	Key.space	n/a
273.497	0.09	546994	keystroke_v	v	n/a
273.542	0.09	547084	keystroke_o	o	n/a
273.692	0.105	547384	keystroke_l	l	n/a
273.992	0.075	547984	keystroke_v	v	n/a
274.142	0.105	548284	keystroke_o	o	n/a
274.352	0.09	548704	keystroke_Key.space	Key.space	n/a
274.682	0.06	549364	keystroke_f	f	n/a
274.997	0.075	549994	keystroke_Key.backspace	Key.backspace	n/a
275.087	0.075	550174	keystroke_g	g	n/a
275.252	0.075	550504	keystroke_r	r	n/a
275.297	0.06	550594	keystroke_e	e	n/a
275.432	0.09	550864	keystroke_e	e	n/a
275.642	0.075	551284	keystroke_t	t	n/a
275.702	0.12	551404	keystroke_i	i	n/a
275.762	0.135	551524	keystroke_n	n	n/a
275.867	0.09	551734	keystroke_g	g	n/a
275.927	0.12	551854	keystroke_s	s	n/a
276.077	0.105	552154	keystroke_Key.enter	Key.enter	n/a
276.188	7.9155	552376	prompt	n/a	test velvet inquiries zshops\n
276.932	0.09	553864	keystroke_t	t	n/a
276.977	0.135	553954	keystroke_e	e	n/a
277.202	0.105	554404	keystroke_t	t	n/a
277.247	0.105	554494	keystroke_s	s	n/a
277.667	0.06	555334	keystroke_Key.backspace	Key.backspace	n/a
277.802	0.045	555604	keystroke_Key.backspace	Key.backspace	n/a
277.862	0.12	555724	keystroke_s	s	n/a
277.907	0.12	555814	keystroke_t	t	n/a
278.072	0.09	556144	keystroke_Key.space	Key.space	n/a
278.2825	0.105	556565	keystroke_v	v	n/a
278.3425	0.135	556685	keystroke_e	e	n/a
278.4175	0.09	556835	keystroke_l	l	n/a
279.2415	0.09	558483	keystroke_v	v	n/a
279.3465	0.015	558693	keystroke_e	e	n/a
279.8725	0.075	559745	keystroke_t	t	n/a
280.1875	0.06	560375	keystroke_Key.space	Key.space	n/a
280.4425	0.12	560885	keystroke_i	i	n/a
280.4875	0.12	560975	keystroke_n	n	n/a
280.7865	0.106	561573	keystroke_q	q	n/a
280.8475	0.12	561695	keystroke_u	u	n/a
280.9225	0.1945	561845	keystroke_i	i	n/a
281.0865	0.12	562173	keystroke_r	r	n/a
281.147	0.1195	562294	keystroke_e	e	n/a
281.7165	0.075	563433	keystroke_Key.backspace	Key.backspace	n/a
281.9115	0.12	563823	keystroke_i	i	n/a
281.9865	0.105	563973	keystroke_e	e	n/a
282.0615	0.075	564123	keystroke_s	s	n/a
282.1515	0.09	564303	keystroke_Key.space	Key.space	n/a
283.247	0.045	566494	keystroke_z	z	n/a
283.547	0.105	567094	keystroke_s	s	n/a
283.592	0.09	567184	keystroke_h	h	n/a
283.637	0.075	567274	keystroke_o	o	n/a
283.757	0.12	567514	keystroke_p	p	n/a
283.862	0.09	567724	keystroke_s	s	n/a
283.9975	0.105	567995	keystroke_Key.enter	Key.enter	n/a
284.106	5.8475	568212	prompt	n/a	fixtures unlock daniel risks\n
284.987	0.075	569974	keystroke_f	f	n/a
285.077	0.0905	570154	keystroke_i	i	n/a
285.497	0.09	570994	keystroke_x	x	n/a
285.797	0.045	571594	keystroke_t	t	n/a
285.857	0.105	571714	keystroke_u	u	n/a
285.947	0.135	571894	keystroke_r	r	n/a
286.007	0.165	572014	keystroke_e	e	n/a
286.082	0.165	572164	keystroke_s	s	n/a
286.322	0.105	572644	keystroke_Key.space	Key.space	n/a
286.712	0.12	573424	keystroke_u	u	n/a
286.787	0.09	573574	keystroke_n	n	n/a
286.967	0.105	573934	keystroke_l	l	n/a
287.1325	0.09	574265	keystroke_o	o	n/a
287.2375	0.105	574475	keystroke_c	c	n/a
287.3275	0.105	574655	keystroke_k	k	n/a
287.4625	0.09	574925	keystroke_Key.space	Key.space	n/a
287.5825	0.105	575165	keystroke_d	d	n/a
287.6425	0.12	575285	keystroke_a	a	n/a
287.7325	0.1195	575465	keystroke_n	n	n/a
288.0315	0.105	576063	keystroke_i	i	n/a
288.1515	0.075	576303	keystroke_e	e	n/a
288.4215	0.135	576843	keystroke_l	l	n/a
288.5865	0.105	577173	keystroke_Key.space	Key.space	n/a
288.8865	0.09	577773	keystroke_r	r	n/a
288.9615	0.105	577923	keystroke_i	i	n/a
289.0515	0.075	578103	keystroke_s	s	n/a
289.1415	0.09	578283	keystroke_k	k	n/a
289.2165	0.105	578433	keystroke_s	s	n/a
289.8315	0.12	579663	keystroke_Key.enter	Key.enter	n/a
289.956	4.7225	579912	prompt	n/a	essence cyber means bernard\n
290.5975	0.089	581195	keystroke_e	e	n/a
290.7765	0.06	581553	keystroke_s	s	n/a
290.8965	0.076	581793	keystroke_s	s	n/a
291.0765	0.09	582153	keystroke_e	e	n/a
291.1815	0.135	582363	keystroke_n	n	n/a
291.3015	0.075	582603	keystroke_c	c	n/a
291.3465	0.12	582693	keystroke_e	e	n/a
291.4965	0.105	582993	keystroke_Key.space	Key.space	n/a
291.9465	0.105	583893	keystroke_c	c	n/a
292.0215	0.09	584043	keystroke_y	y	n/a
292.4425	0.074	584885	keystroke_b	b	n/a
292.5315	0.106	585063	keystroke_e	e	n/a
292.5775	0.104	585155	keystroke_r	r	n/a
292.7275	0.074	585455	keystroke_Key.space	Key.space	n/a
292.9065	0.09	585813	keystroke_m	m	n/a
292.9675	0.089	585935	keystroke_e	e	n/a
293.0275	0.089	586055	keystroke_a	a	n/a
293.0865	0.12	586173	keystroke_n	n	n/a
293.2225	0.119	586445	keystroke_s	s	n/a
293.3265	0.075	586653	keystroke_Key.space	Key.space	n/a
293.477	0.1045	586954	keystroke_b	b	n/a
293.5665	0.105	587133	keystroke_e	e	n/a
293.6265	0.09	587253	keystroke_r	r	n/a
293.8365	0.075	587673	keystroke_n	n	n/a
293.9125	0.074	587825	keystroke_a	a	n/a
294.2865	0.12	588573	keystroke_r	r	n/a
294.3615	0.12	588723	keystroke_d	d	n/a
294.5865	0.09	589173	keystroke_Key.enter	Key.enter	n/a
294.6815	4.617	589363	prompt	n/a	breaking turner persons side\n
295.322	0.075	590644	keystroke_b	b	n/a
295.367	0.12	590734	keystroke_r	r	n/a
295.427	0.12	590854	keystroke_e	e	n/a
295.502	0.1045	591004	keystroke_a	a	n/a
295.562	0.0745	591124	keystroke_k	k	n/a
295.7115	0.12	591423	keystroke_i	i	n/a
295.7565	0.135	591513	keystroke_n	n	n/a
295.8765	0.105	591753	keystroke_g	g	n/a
295.9965	0.09	591993	keystroke_Key.space	Key.space	n/a
296.2815	0.06	592563	keystroke_t	t	n/a
296.3125	0.089	592625	keystroke_u	u	n/a
296.4165	0.09	592833	keystroke_r	r	n/a
296.7315	0.105	593463	keystroke_n	n	n/a
296.8215	0.105	593643	keystroke_e	e	n/a
296.8665	0.12	593733	keystroke_r	r	n/a
297.0165	0.1055	594033	keystroke_Key.space	Key.space	n/a
297.167	0.12	594334	keystroke_p	p	n/a
297.242	0.09	594484	keystroke_e	e	n/a
297.272	0.105	594544	keystroke_r	r	n/a
297.497	0.09	594994	keystroke_s	s	n/a
297.542	0.105	595084	keystroke_o	o	n/a
297.587	0.135	595174	keystroke_n	n	n/a
297.692	0.12	595384	keystroke_a	a	n/a
298.202	0.075	596404	keystroke_Key.backspace	Key.backspace	n/a
298.352	0.075	596704	keystroke_s	s	n/a
298.457	0.105	596914	keystroke_Key.space	Key.space	n/a
298.757	0.06	597514	keystroke_s	s	n/a
298.832	0.09	597664	keystroke_i	i	n/a
298.892	0.075	597784	keystroke_d	d	n/a
299.057	0.06	598114	keystroke_e	e	n/a
299.222	0.075	598444	keystroke_Key.enter	Key.enter	n/a
299.3015	8.397	598603	prompt	n/a	revision england invitations modification\n
300.047	0.12	600094	keystroke_r	r	n/a
300.092	0.105	600184	keystroke_e	e	n/a
300.3315	0.075	600663	keystroke_v	v	n/a
300.3625	0.089	600725	keystroke_i	i	n/a
300.5715	0.09	601143	keystroke_s	s	n/a
300.6015	0.12	601203	keystroke_i	i	n/a
300.6765	0.12	601353	keystroke_o	o	n/a
300.7225	0.194	601445	keystroke_n	n	n/a
301.127	0.09	602254	keystroke_Key.space	Key.space	n/a
301.547	0.075	603094	keystroke_e	e	n/a
301.607	0.0895	603214	keystroke_n	n	n/a
301.7415	0.09	603483	keystroke_g	g	n/a
301.8465	0.135	603693	keystroke_l	l	n/a
302.2515	0.105	604503	keystroke_a	a	n/a
302.3715	0.1055	604743	keystroke_n	n	n/a
302.462	0.12	604924	keystroke_d	d	n/a
302.537	0.12	605074	keystroke_s	s	n/a
302.762	0.09	605524	keystroke_Key.space	Key.space	n/a
303.287	0.03	606574	keystroke_Key.backspace	Key.backspace	n/a
303.392	0.06	606784	keystroke_Key.backspace	Key.backspace	n/a
303.557	0.09	607114	keystroke_Key.space	Key.space	n/a
303.677	0.135	607354	keystroke_i	i	n/a
303.752	0.105	607504	keystroke_n	n	n/a
303.902	0.0895	607804	keystroke_v	v	n/a
303.962	0.1045	607924	keystroke_i	i	n/a
304.2765	0.0605	608553	keystroke_t	t	n/a
304.412	0.105	608824	keystroke_a	a	n/a
304.592	0.105	609184	keystroke_t	t	n/a
304.637	0.135	609274	keystroke_i	i	n/a
304.712	0.09	609424	keystroke_o	o	n/a
304.742	0.15	609484	keystroke_n	n	n/a
304.877	0.105	609754	keystroke_s	s	n/a
305.027	0.06	610054	keystroke_Key.space	Key.space	n/a
305.222	0.12	610444	keystroke_m	m	n/a
305.327	0.135	610654	keystroke_o	o	n/a
305.522	0.09	611044	keystroke_d	d	n/a
305.597	0.105	611194	keystroke_i	i	n/a
306.032	0.09	612064	keystroke_f	f	n/a
306.092	0.12	612184	keystroke_i	i	n/a
306.317	0.12	612634	keystroke_c	c	n/a
306.377	0.12	612754	keystroke_a	a	n/a
307.172	0.075	614344	keystroke_t	t	n/a
307.232	0.15	614464	keystroke_i	i	n/a
307.292	0.12	614584	keystroke_o	o	n/a
307.337	0.135	614674	keystroke_n	n	n/a
307.607	0.09	615214	keystroke_Key.enter	Key.enter	n/a
307.701	7.7975	615402	prompt	n/a	copy second accomplished discrimination\n
308.417	0.1055	616834	keystroke_c	c	n/a
308.462	0.0905	616924	keystroke_o	o	n/a
308.6425	0.09	617285	keystroke_p	p	n/a
308.9425	0.075	617885	keystroke_y	y	n/a
309.092	0.1045	618184	keystroke_Key.space	Key.space	n/a
309.3615	0.105	618723	keystroke_s	s	n/a
309.4075	0.105	618815	keystroke_e	e	n/a
309.6315	0.075	619263	keystroke_c	c	n/a
309.7215	0.091	619443	keystroke_o	o	n/a
309.7365	0.136	619473	keystroke_n	n	n/a
309.8415	0.09	619683	keystroke_d	d	n/a
310.0215	0.075	620043	keystroke_Key.space	Key.space	n/a
310.2775	0.104	620555	keystroke_a	a	n/a
310.3975	0.089	620795	keystroke_c	c	n/a
310.5615	0.09	621123	keystroke_c	c	n/a
310.6815	0.12	621363	keystroke_o	o	n/a
310.7425	0.119	621485	keystroke_m	m	n/a
311.0265	0.135	622053	keystroke_p	p	n/a
311.0875	0.1195	622175	keystroke_l	l	n/a
311.312	0.105	622624	keystroke_i	i	n/a
311.432	0.075	622864	keystroke_s	s	n/a
311.522	0.12	623044	keystroke_h	h	n/a
311.627	0.06	623254	keystroke_e	e	n/a
311.777	0.09	623554	keystroke_d	d	n/a
312.347	0.045	624694	keystroke_Key.space	Key.space	n/a
312.407	0.09	624814	keystroke_d	d	n/a
313.0665	0.1655	626133	keystroke_i	i	n/a
313.247	0.015	626494	keystroke_s	s	n/a
313.547	0.075	627094	keystroke_c	c	n/a
313.7425	0.06	627485	keystroke_r	r	n/a
313.7725	0.105	627545	keystroke_i	i	n/a
314.237	0.0905	628474	keystroke_m	m	n/a
314.6125	0.105	629225	keystroke_i	i	n/a
314.6725	0.12	629345	keystroke_n	n	n/a
314.8375	0.075	629675	keystroke_a	a	n/a
314.9875	0.105	629975	keystroke_t	t	n/a
315.0475	0.135	630095	keystroke_i	i	n/a
315.1225	0.075	630245	keystroke_o	o	n/a
315.1375	0.1345	630275	keystroke_n	n	n/a
315.3625	0.135	630725	keystroke_Key.enter	Key.enter	n/a
315.5015	5.112	631003	prompt	n/a	ordinance bottle considering accessing\n
316.1575	0.105	632315	keystroke_o	o	n/a
316.2775	0.075	632555	keystroke_r	r	n/a
316.697	0.075	633394	keystroke_d	d	n/a
316.712	0.105	633424	keystroke_i	i	n/a
316.757	0.135	633514	keystroke_n	n	n/a
316.952	0.09	633904	keystroke_a	a	n/a
317.102	0.105	634204	keystroke_n	n	n/a
317.177	0.105	634354	keystroke_c	c	n/a
317.252	0.135	634504	keystroke_e	e	n/a
317.387	0.105	634774	keystroke_Key.space	Key.space	n/a
317.612	0.09	635224	keystroke_b	b	n/a
317.672	0.12	635344	keystroke_o	o	n/a
317.807	0.09	635614	keystroke_t	t	n/a
317.957	0.0745	635914	keystroke_t	t	n/a
318.0615	0.106	636123	keystroke_l	l	n/a
318.1515	0.105	636303	keystroke_e	e	n/a
318.2715	0.091	636543	keystroke_Key.space	Key.space	n/a
318.4665	0.091	636933	keystroke_c	c	n/a
318.5125	0.089	637025	keystroke_o	o	n/a
318.5425	0.105	637085	keystroke_n	n	n/a
318.6925	0.06	637385	keystroke_s	s	n/a
318.7375	0.12	637475	keystroke_i	i	n/a
318.8425	0.06	637685	keystroke_d	d	n/a
318.9775	0.09	637955	keystroke_e	e	n/a
319.0225	0.0895	638045	keystroke_r	r	n/a
319.097	0.105	638194	keystroke_i	i	n/a
319.127	0.12	638254	keystroke_n	n	n/a
319.232	0.09	638464	keystroke_g	g	n/a
319.3665	0.1055	638733	keystroke_Key.space	Key.space	n/a
319.502	0.1195	639004	keystroke_a	a	n/a
319.577	0.0895	639154	keystroke_c	c	n/a
319.7265	0.075	639453	keystroke_c	c	n/a
319.9065	0.105	639813	keystroke_e	e	n/a
319.9665	0.075	639933	keystroke_s	s	n/a
320.1015	0.09	640203	keystroke_s	s	n/a
320.2525	0.104	640505	keystroke_i	i	n/a
320.2815	0.105	640563	keystroke_n	n	n/a
320.3265	0.105	640653	keystroke_g	g	n/a
320.4765	0.135	640953	keystroke_Key.enter	Key.enter	n/a
320.6265	6.527	641253	prompt	n/a	main don't vehicles mathematics\n
321.242	0.075	642484	keystroke_m	m	n/a
321.347	0.09	642694	keystroke_a	a	n/a
321.422	0.105	642844	keystroke_i	i	n/a
321.467	0.15	642934	keystroke_n	n	n/a
321.632	0.0745	643264	keystroke_Key.space	Key.space	n/a
321.7525	0.09	643505	keystroke_d	d	n/a
321.8125	0.24	643625	keystroke_o	o	n/a
321.8575	0.12	643715	keystroke_n	n	n/a
321.9625	0.1345	643925	keystroke_'	'	n/a
322.0825	0.1195	644165	keystroke_t	t	n/a
322.247	0.09	644494	keystroke_Key.space	Key.space	n/a
322.652	0.12	645304	keystroke_v	v	n/a
322.757	0.12	645514	keystroke_e	e	n/a
323.027	0.105	646054	keystroke_h	h	n/a
323.147	0.1345	646294	keystroke_i	i	n/a
323.4475	0.134	646895	keystroke_c	c	n/a
323.5225	0.074	647045	keystroke_a	a	n/a
323.5665	0.135	647133	keystroke_l	l	n/a
324.0615	0.06	648123	keystroke_Key.backspace	Key.backspace	n/a
324.1965	0.075	648393	keystroke_Key.backspace	Key.backspace	n/a
324.4965	0.106	648993	keystroke_l	l	n/a
324.5865	0.105	649173	keystroke_e	e	n/a
324.6465	0.105	649293	keystroke_s	s	n/a
324.7815	0.09	649563	keystroke_Key.space	Key.space	n/a
325.1565	0.09	650313	keystroke_m	m	n/a
325.2165	0.091	650433	keystroke_a	a	n/a
325.5765	0.075	651153	keystroke_t	t	n/a
325.6365	0.105	651273	keystroke_h	h	n/a
325.7115	0.09	651423	keystroke_e	e	n/a
326.177	0.1355	652354	keystroke_m	m	n/a
326.3275	0.09	652655	keystroke_a	a	n/a
326.5525	0.075	653105	keystroke_t	t	n/a
326.6575	0.105	653315	keystroke_i	i	n/a
326.7775	0.12	653555	keystroke_c	c	n/a
326.8375	0.135	653675	keystroke_s	s	n/a
327.0325	0.1195	654065	keystroke_Key.enter	Key.enter	n/a
327.156	6.1925	654312	prompt	n/a	environment chambers nerve grant\n
327.9465	0.06	655893	keystroke_e	e	n/a
327.9925	0.089	655985	keystroke_n	n	n/a
328.3815	0.09	656763	keystroke_v	v	n/a
328.4415	0.09	656883	keystroke_i	i	n/a
328.7715	0.09	657543	keystroke_o	o	n/a
329.147	0.0755	658294	keystroke_Key.backspace	Key.backspace	n/a
329.2525	0.09	658505	keystroke_r	r	n/a
329.3575	0.075	658715	keystroke_o	o	n/a
329.3875	0.105	658775	keystroke_n	n	n/a
329.6575	0.075	659315	keystroke_m	m	n/a
329.7325	0.075	659465	keystroke_e	e	n/a
329.8225	0.105	659645	keystroke_n	n	n/a
329.9425	0.074	659885	keystroke_t	t	n/a
330.0315	0.09	660063	keystroke_Key.space	Key.space	n/a
330.2715	0.0905	660543	keystroke_c	c	n/a
330.377	0.075	660754	keystroke_h	h	n/a
330.482	0.09	660964	keystroke_a	a	n/a
330.572	0.09	661144	keystroke_m	m	n/a
330.782	0.09	661564	keystroke_b	b	n/a
330.857	0.105	661714	keystroke_e	e	n/a
330.902	0.09	661804	keystroke_r	r	n/a
331.097	0.09	662194	keystroke_s	s	n/a
331.217	0.075	662434	keystroke_Key.space	Key.space	n/a
331.442	0.09	662884	keystroke_n	n	n/a
331.517	0.105	663034	keystroke_e	e	n/a
331.562	0.0895	663124	keystroke_r	r	n/a
332.0265	0.105	664053	keystroke_v	v	n/a
332.0565	0.1355	664113	keystroke_e	e	n/a
332.252	0.075	664504	keystroke_Key.space	Key.space	n/a
332.522	0.075	665044	keystroke_g	g	n/a
332.687	0.0905	665374	keystroke_r	r	n/a
332.762	0.0905	665524	keystroke_a	a	n/a
332.8375	0.12	665675	keystroke_n	n	n/a
333.0625	0.09	666125	keystroke_t	t	n/a
333.2275	0.12	666455	keystroke_Key.enter	Key.enter	n/a
333.3515	4.362	666703	prompt	n/a	simple jade jury gregory\n
333.9775	0.105	667955	keystroke_s	s	n/a
334.0675	0.09	668135	keystroke_i	i	n/a
334.1125	0.12	668225	keystroke_m	m	n/a
334.2475	0.1195	668495	keystroke_p	p	n/a
334.2925	0.1345	668585	keystroke_l	l	n/a
334.397	0.105	668794	keystroke_e	e	n/a
334.532	0.09	669064	keystroke_Key.space	Key.space	n/a
334.652	0.12	669304	keystroke_j	j	n/a
334.802	0.09	669604	keystroke_a	a	n/a
334.937	0.105	669874	keystroke_d	d	n/a
335.132	0.075	670264	keystroke_e	e	n/a
335.387	0.075	670774	keystroke_Key.space	Key.space	n/a
335.552	0.075	671104	keystroke_j	j	n/a
335.687	0.105	671374	keystroke_u	u	n/a
335.747	0.105	671494	keystroke_r	r	n/a
336.047	0.09	672094	keystroke_y	y	n/a
336.182	0.09	672364	keystroke_Key.space	Key.space	n/a
336.5125	0.0895	673025	keystroke_g	g	n/a
336.767	0.1055	673534	keystroke_r	r	n/a
336.8125	0.12	673625	keystroke_e	e	n/a
337.187	0.06	674374	keystroke_g	g	n/a
337.232	0.09	674464	keystroke_o	o	n/a
337.337	0.0895	674674	keystroke_r	r	n/a
337.4115	0.0905	674823	keystroke_y	y	n/a
337.6065	0.105	675213	keystroke_Key.enter	Key.enter	n/a
337.718	7.6455	675436	prompt	n/a	prospective lotus recommended surrounded\n
338.4465	0.0755	676893	keystroke_p	p	n/a
338.4925	0.09	676985	keystroke_r	r	n/a
338.522	0.0905	677044	keystroke_e	e	n/a
338.657	0.12	677314	keystroke_o	o	n/a
339.1225	0.06	678245	keystroke_Key.backspace	Key.backspace	n/a
339.2575	0.0595	678515	keystroke_Key.backspace	Key.backspace	n/a
339.6925	0.105	679385	keystroke_o	o	n/a
339.8425	0.105	679685	keystroke_s	s	n/a
340.0825	0.135	680165	keystroke_p	p	n/a
340.2025	0.135	680405	keystroke_e	e	n/a
340.2925	0.105	680585	keystroke_c	c	n/a
340.6375	0.075	681275	keystroke_t	t	n/a
340.7575	0.075	681515	keystroke_i	i	n/a
340.8325	0.105	681665	keystroke_v	v	n/a
340.8775	0.15	681755	keystroke_e	e	n/a
340.9675	0.075	681935	keystroke_Key.space	Key.space	n/a
341.1175	0.06	682235	keystroke_l	l	n/a
341.2375	0.15	682475	keystroke_o	o	n/a
341.4025	0.105	682805	keystroke_t	t	n/a
341.7325	0.09	683465	keystroke_u	u	n/a
341.8825	0.09	683765	keystroke_s	s	n/a
342.0025	0.1045	684005	keystroke_Key.space	Key.space	n/a
342.272	0.09	684544	keystroke_r	r	n/a
342.317	0.09	684634	keystroke_e	e	n/a
342.5425	0.09	685085	keystroke_c	c	n/a
342.6025	0.09	685205	keystroke_o	o	n/a
342.6325	0.09	685265	keystroke_m	m	n/a
342.7825	0.105	685565	keystroke_m	m	n/a
342.9475	0.09	685895	keystroke_e	e	n/a
343.0825	0.105	686165	keystroke_n	n	n/a
343.2475	0.075	686495	keystroke_d	d	n/a
343.4125	0.06	686825	keystroke_e	e	n/a
343.5475	0.105	687095	keystroke_d	d	n/a
343.6825	0.075	687365	keystroke_Key.space	Key.space	n/a
344.0725	0.045	688145	keystroke_s	s	n/a
344.0875	0.09	688175	keystroke_u	u	n/a
344.2075	0.06	688415	keystroke_r	r	n/a
344.3275	0.09	688655	keystroke_r	r	n/a
344.5975	0.09	689195	keystroke_o	o	n/a
344.6275	0.09	689255	keystroke_u	u	n/a
344.8075	0.09	689615	keystroke_n	n	n/a
344.8825	0.075	689765	keystroke_d	d	n/a
345.0475	0.045	690095	keystroke_e	e	n/a
345.1525	0.1345	690305	keystroke_d	d	n/a
345.287	0.075	690574	keystroke_Key.enter	Key.enter	n/a
345.366	4.5425	690732	prompt	n/a	gift mixture ellen post\n
346.4425	0.075	692885	keystroke_g	g	n/a
346.5025	0.105	693005	keystroke_i	i	n/a
346.6215	0.0755	693243	keystroke_f	f	n/a
346.772	0.075	693544	keystroke_t	t	n/a
346.907	0.075	693814	keystroke_Key.space	Key.space	n/a
347.102	0.075	694204	keystroke_m	m	n/a
347.267	0.09	694534	keystroke_u	u	n/a
347.672	0.06	695344	keystroke_Key.backspace	Key.backspace	n/a
347.867	0.0745	695734	keystroke_i	i	n/a
347.9565	0.0755	695913	keystroke_x	x	n/a
348.197	0.06	696394	keystroke_t	t	n/a
348.287	0.0895	696574	keystroke_u	u	n/a
348.3615	0.12	696723	keystroke_r	r	n/a
348.4215	0.105	696843	keystroke_e	e	n/a
348.5715	0.075	697143	keystroke_Key.space	Key.space	n/a
348.7515	0.075	697503	keystroke_e	e	n/a
348.8115	0.075	697623	keystroke_l	l	n/a
348.9315	0.106	697863	keystroke_l	l	n/a
349.0515	0.09	698103	keystroke_e	e	n/a
349.1265	0.15	698253	keystroke_n	n	n/a
349.2915	0.09	698583	keystroke_Key.space	Key.space	n/a
349.4415	0.105	698883	keystroke_p	p	n/a
349.5165	0.135	699033	keystroke_o	o	n/a
349.6065	0.105	699213	keystroke_s	s	n/a
349.6665	0.12	699333	keystroke_t	t	n/a
349.8015	0.105	699603	keystroke_Key.enter	Key.enter	n/a
349.9115	5.1725	699823	prompt	n/a	bacterial desired neither bizarre\n
350.5815	0.075	701163	keystroke_b	b	n/a
350.6415	0.1205	701283	keystroke_a	a	n/a
350.7015	0.1055	701403	keystroke_c	c	n/a
350.957	0.045	701914	keystroke_t	t	n/a
351.062	0.1045	702124	keystroke_e	e	n/a
351.1215	0.09	702243	keystroke_r	r	n/a
351.2265	0.09	702453	keystroke_i	i	n/a
351.3465	0.105	702693	keystroke_a	a	n/a
351.4365	0.12	702873	keystroke_l	l	n/a
351.5715	0.09	703143	keystroke_Key.space	Key.space	n/a
351.782	0.0745	703564	keystroke_d	d	n/a
351.932	0.075	703864	keystroke_e	e	n/a
352.1425	0.075	704285	keystroke_s	s	n/a
352.2475	0.09	704495	keystroke_i	i	n/a
352.3225	0.105	704645	keystroke_r	r	n/a
352.3675	0.09	704735	keystroke_e	e	n/a
352.5325	0.09	705065	keystroke_d	d	n/a
352.6675	0.075	705335	keystroke_Key.space	Key.space	n/a
352.8625	0.045	705725	keystroke_n	n	n/a
352.9225	0.075	705845	keystroke_e	e	n/a
353.0125	0.075	706025	keystroke_i	i	n/a
353.1175	0.075	706235	keystroke_t	t	n/a
353.2075	0.09	706415	keystroke_h	h	n/a
353.2675	0.09	706535	keystroke_e	e	n/a
353.3125	0.12	706625	keystroke_r	r	n/a
353.5675	0.09	707135	keystroke_Key.space	Key.space	n/a
353.7775	0.105	707555	keystroke_b	b	n/a
353.8675	0.135	707735	keystroke_i	i	n/a
353.9875	0.09	707975	keystroke_z	z	n/a
354.1975	0.09	708395	keystroke_a	a	n/a
354.6175	0.06	709235	keystroke_r	r	n/a
354.7525	0.105	709505	keystroke_r	r	n/a
354.8425	0.075	709685	keystroke_e	e	n/a
354.9775	0.105	709955	keystroke_Key.enter	Key.enter	n/a
355.0865	3.9875	710173	prompt	n/a	boost role sing countries\n
355.6225	0.105	711245	keystroke_b	b	n/a
355.6975	0.06	711395	keystroke_o	o	n/a
355.8175	0.12	711635	keystroke_o	o	n/a
355.9525	0.105	711905	keystroke_s	s	n/a
356.0125	0.105	712025	keystroke_t	t	n/a
356.1325	0.105	712265	keystroke_Key.space	Key.space	n/a
356.5375	0.105	713075	keystroke_r	r	n/a
356.5825	0.09	713165	keystroke_o	o	n/a
356.7325	0.105	713465	keystroke_l	l	n/a
356.8225	0.105	713645	keystroke_e	e	n/a
356.9575	0.09	713915	keystroke_Key.space	Key.space	n/a
357.2425	0.075	714485	keystroke_s	s	n/a
357.2725	0.135	714545	keystroke_i	i	n/a
357.3325	0.15	714665	keystroke_n	n	n/a
357.4525	0.0895	714905	keystroke_g	g	n/a
357.572	0.09	715144	keystroke_Key.space	Key.space	n/a
357.767	0.09	715534	keystroke_c	c	n/a
357.812	0.09	715624	keystroke_o	o	n/a
357.842	0.075	715684	keystroke_u	u	n/a
358.022	0.09	716044	keystroke_n	n	n/a
358.157	0.06	716314	keystroke_t	t	n/a
358.292	0.0905	716584	keystroke_r	r	n/a
358.4425	0.135	716885	keystroke_i	i	n/a
358.5475	0.12	717095	keystroke_e	e	n/a
358.6225	0.135	717245	keystroke_s	s	n/a
358.982	0.09	717964	keystroke_Key.enter	Key.enter	n/a
359.0765	7.6475	718153	prompt	n/a	network employment maui avoid\n
359.9125	0.075	719825	keystroke_n	n	n/a
359.9725	0.09	719945	keystroke_e	e	n/a
360.557	0.075	721114	keystroke_t	t	n/a
360.767	0.075	721534	keystroke_o	o	n/a
361.1275	0.075	722255	keystroke_Key.backspace	Key.backspace	n/a
361.2615	0.091	722523	keystroke_w	w	n/a
361.3365	0.091	722673	keystroke_o	o	n/a
361.4275	0.09	722855	keystroke_r	r	n/a
361.5025	0.105	723005	keystroke_k	k	n/a
361.757	0.105	723514	keystroke_Key.space	Key.space	n/a
361.997	0.075	723994	keystroke_e	e	n/a
362.192	0.105	724384	keystroke_m	m	n/a
362.402	0.12	724804	keystroke_p	p	n/a
362.447	0.105	724894	keystroke_l	l	n/a
362.627	0.09	725254	keystroke_o	o	n/a
362.822	0.09	725644	keystroke_y	y	n/a
363.122	0.075	726244	keystroke_m	m	n/a
363.212	0.075	726424	keystroke_e	e	n/a
363.302	0.09	726604	keystroke_n	n	n/a
363.407	0.09	726814	keystroke_t	t	n/a
363.512	0.105	727024	keystroke_Key.space	Key.space	n/a
363.827	0.075	727654	keystroke_m	m	n/a
363.9475	0.105	727895	keystroke_a	a	n/a
364.667	0.09	729334	keystroke_u	u	n/a
364.802	0.12	729604	keystroke_i	i	n/a
365.222	0.105	730444	keystroke_Key.space	Key.space	n/a
365.492	0.135	730984	keystroke_a	a	n/a
365.537	0.03	731074	keystroke_v	v	n/a
366.2275	0.09	732455	keystroke_o	o	n/a
366.2575	0.12	732515	keystroke_i	i	n/a
366.3475	0.075	732695	keystroke_d	d	n/a
366.6325	0.09	733265	keystroke_Key.enter	Key.enter	n/a
366.7265	7.0475	733453	prompt	n/a	eight foods traditions consistency\n
367.503	0.059	735006	keystroke_e	e	n/a
367.547	0.09	735094	keystroke_i	i	n/a
367.653	0.075	735306	keystroke_g	g	n/a
367.712	0.106	735424	keystroke_h	h	n/a
367.832	0.061	735664	keystroke_t	t	n/a
368.102	0.1055	736204	keystroke_Key.space	Key.space	n/a
368.388	0.0745	736776	keystroke_f	f	n/a
368.4475	0.06	736895	keystroke_o	o	n/a
368.5825	0.12	737165	keystroke_o	o	n/a
368.6425	0.1495	737285	keystroke_d	d	n/a
368.7175	0.1495	737435	keystroke_s	s	n/a
368.852	0.105	737704	keystroke_Key.space	Key.space	n/a
369.0925	0.045	738185	keystroke_t	t	n/a
369.2575	0.075	738515	keystroke_r	r	n/a
369.3325	0.09	738665	keystroke_a	a	n/a
369.7375	0.075	739475	keystroke_d	d	n/a
369.8275	0.09	739655	keystroke_i	i	n/a
370.0075	0.09	740015	keystroke_t	t	n/a
370.0675	0.105	740135	keystroke_i	i	n/a
370.1575	0.135	740315	keystroke_o	o	n/a
370.2025	0.18	740405	keystroke_n	n	n/a
370.3675	0.135	740735	keystroke_s	s	n/a
370.5175	0.105	741035	keystroke_Key.space	Key.space	n/a
370.6675	0.075	741335	keystroke_e	e	n/a
370.8025	0.135	741605	keystroke_o	o	n/a
370.9225	0.105	741845	keystroke_n	n	n/a
371.2525	0.06	742505	keystroke_Key.backspace	Key.backspace	n/a
371.3875	0.06	742775	keystroke_Key.backspace	Key.backspace	n/a
371.5375	0.075	743075	keystroke_Key.backspace	Key.backspace	n/a
371.6575	0.09	743315	keystroke_c	c	n/a
371.7775	0.105	743555	keystroke_o	o	n/a
371.8225	0.105	743645	keystroke_n	n	n/a
372.3175	0.045	744635	keystroke_s	s	n/a
372.3325	0.09	744665	keystroke_i	i	n/a
372.4375	0.105	744875	keystroke_s	s	n/a
372.8425	0.09	745685	keystroke_t	t	n/a
372.9025	0.09	745805	keystroke_e	e	n/a
373.0525	0.105	746105	keystroke_n	n	n/a
373.3825	0.0895	746765	keystroke_c	c	n/a
373.487	0.075	746974	keystroke_y	y	n/a
373.652	0.12	747304	keystroke_Key.enter	Key.enter	n/a
373.777	8.5165	747554	prompt	n/a	sponsor star motel innovation\n
374.492	0.075	748984	keystroke_s	s	n/a
374.597	0.136	749194	keystroke_o	o	n/a
374.687	0.135	749374	keystroke_n	n	n/a
375.287	0.06	750574	keystroke_Key.backspace	Key.backspace	n/a
375.422	0.075	750844	keystroke_Key.backspace	Key.backspace	n/a
375.707	0.06	751414	keystroke_p	p	n/a
375.902	0.105	751804	keystroke_o	o	n/a
375.963	0.119	751926	keystroke_n	n	n/a
376.457	0.0905	752914	keystroke_s	s	n/a
376.5625	0.1045	753125	keystroke_o	o	n/a
376.937	0.105	753874	keystroke_r	r	n/a
377.057	0.105	754114	keystroke_Key.space	Key.space	n/a
377.222	0.135	754444	keystroke_s	s	n/a
377.327	0.09	754654	keystroke_t	t	n/a
377.462	0.105	754924	keystroke_a	a	n/a
377.507	0.105	755014	keystroke_r	r	n/a
377.687	0.075	755374	keystroke_Key.space	Key.space	n/a
378.0025	0.12	756005	keystroke_m	m	n/a
378.0625	0.105	756125	keystroke_o	o	n/a
378.2425	0.135	756485	keystroke_t	t	n/a
378.3175	0.135	756635	keystroke_e	e	n/a
378.4375	0.12	756875	keystroke_l	l	n/a
378.6325	0.075	757265	keystroke_Key.space	Key.space	n/a
378.7975	0.09	757595	keystroke_o	o	n/a
378.8425	0.06	757685	keystroke_n	n	n/a
378.9775	0.075	757955	keystroke_n	n	n/a
379.1275	0.12	758255	keystroke_o	o	n/a
379.6525	0.0745	759305	keystroke_Key.backspace	Key.backspace	n/a
379.802	0.09	759604	keystroke_Key.backspace	Key.backspace	n/a
379.997	0.075	759994	keystroke_Key.backspace	Key.backspace	n/a
380.177	0.075	760354	keystroke_Key.backspace	Key.backspace	n/a
380.552	0.105	761104	keystroke_i	i	n/a
380.763	0.075	761526	keystroke_n	n	n/a
380.898	0.075	761796	keystroke_n	n	n/a
381.048	0.15	762096	keystroke_o	o	n/a
381.212	0.076	762424	keystroke_v	v	n/a
381.317	0.106	762634	keystroke_a	a	n/a
381.498	0.09	762996	keystroke_t	t	n/a
381.573	0.135	763146	keystroke_i	i	n/a
381.633	0.104	763266	keystroke_o	o	n/a
381.722	0.09	763444	keystroke_n	n	n/a
382.217	0.075	764434	keystroke_Key.enter	Key.enter	n/a
382.2975	7.5865	764595	prompt	n/a	movement britain colleague consistency\n
382.9975	0.1195	765995	keystroke_m	m	n/a
383.0575	0.1195	766115	keystroke_o	o	n/a
383.132	0.09	766264	keystroke_v	v	n/a
383.192	0.105	766384	keystroke_e	e	n/a
383.447	0.075	766894	keystroke_m	m	n/a
383.537	0.09	767074	keystroke_e	e	n/a
383.612	0.105	767224	keystroke_n	n	n/a
383.732	0.09	767464	keystroke_t	t	n/a
383.882	0.09	767764	keystroke_Key.space	Key.space	n/a
384.332	0.075	768664	keystroke_b	b	n/a
384.437	0.09	768874	keystroke_r	r	n/a
384.512	0.09	769024	keystroke_i	i	n/a
385.037	0.075	770074	keystroke_t	t	n/a
385.187	0.12	770374	keystroke_a	a	n/a
385.247	0.12	770494	keystroke_i	i	n/a
385.292	0.135	770584	keystroke_n	n	n/a
385.472	0.075	770944	keystroke_Key.space	Key.space	n/a
385.682	0.075	771364	keystroke_c	c	n/a
385.742	0.075	771484	keystroke_o	o	n/a
385.907	0.075	771814	keystroke_l	l	n/a
386.042	0.09	772084	keystroke_l	l	n/a
386.462	0.105	772924	keystroke_e	e	n/a
386.537	0.105	773074	keystroke_a	a	n/a
387.1675	0.075	774335	keystroke_g	g	n/a
387.2725	0.0895	774545	keystroke_u	u	n/a
387.437	0.075	774874	keystroke_e	e	n/a
387.8875	0.09	775775	keystroke_Key.space	Key.space	n/a
388.0975	0.075	776195	keystroke_c	c	n/a
388.1575	0.09	776315	keystroke_o	o	n/a
388.1875	0.09	776375	keystroke_n	n	n/a
388.3075	0.1045	776615	keystroke_s	s	n/a
388.442	0.105	776884	keystroke_i	i	n/a
388.532	0.075	777064	keystroke_s	s	n/a
388.982	0.1055	777964	keystroke_t	t	n/a
389.027	0.1055	778054	keystroke_e	e	n/a
389.1175	0.105	778235	keystroke_n	n	n/a
389.4775	0.105	778955	keystroke_c	c	n/a
389.5675	0.09	779135	keystroke_y	y	n/a
389.7625	0.12	779525	keystroke_Key.enter	Key.enter	n/a
389.8865	4.527	779773	prompt	n/a	honor pressed trinity format\n
390.557	0.105	781114	keystroke_h	h	n/a
390.632	0.105	781264	keystroke_o	o	n/a
390.752	0.09	781504	keystroke_n	n	n/a
390.857	0.09	781714	keystroke_o	o	n/a
391.052	0.0455	782104	keystroke_r	r	n/a
391.1575	0.09	782315	keystroke_Key.space	Key.space	n/a
391.3375	0.105	782675	keystroke_p	p	n/a
391.4125	0.105	782825	keystroke_r	r	n/a
391.4575	0.075	782915	keystroke_e	e	n/a
391.652	0.075	783304	keystroke_s	s	n/a
391.802	0.105	783604	keystroke_s	s	n/a
391.937	0.075	783874	keystroke_e	e	n/a
392.102	0.09	784204	keystroke_d	d	n/a
392.207	0.09	784414	keystroke_Key.space	Key.space	n/a
392.477	0.045	784954	keystroke_t	t	n/a
392.597	0.0905	785194	keystroke_r	r	n/a
392.657	0.12	785314	keystroke_i	i	n/a
392.717	0.12	785434	keystroke_n	n	n/a
393.137	0.09	786274	keystroke_i	i	n/a
393.287	0.09	786574	keystroke_t	t	n/a
393.393	0.0895	786786	keystroke_y	y	n/a
393.543	0.09	787086	keystroke_Key.space	Key.space	n/a
393.708	0.075	787416	keystroke_f	f	n/a
393.768	0.09	787536	keystroke_o	o	n/a
393.843	0.075	787686	keystroke_r	r	n/a
394.0225	0.075	788045	keystroke_m	m	n/a
394.0825	0.1045	788165	keystroke_a	a	n/a
394.1725	0.1195	788345	keystroke_t	t	n/a
394.307	0.1055	788614	keystroke_Key.enter	Key.enter	n/a
394.4165	8.4425	788833	prompt	n/a	capabilities succeed who's rochester\n
395.0725	0.0895	790145	keystroke_c	c	n/a
395.132	0.1205	790264	keystroke_a	a	n/a
395.177	0.091	790354	keystroke_p	p	n/a
395.328	0.1045	790656	keystroke_a	a	n/a
395.747	0.075	791494	keystroke_b	b	n/a
395.942	0.075	791884	keystroke_i	i	n/a
396.137	0.075	792274	keystroke_l	l	n/a
396.317	0.075	792634	keystroke_i	i	n/a
396.422	0.075	792844	keystroke_t	t	n/a
396.512	0.12	793024	keystroke_i	i	n/a
396.617	0.075	793234	keystroke_e	e	n/a
396.662	0.12	793324	keystroke_s	s	n/a
396.812	0.09	793624	keystroke_Key.space	Key.space	n/a
397.037	0.0755	794074	keystroke_s	s	n/a
397.0975	0.09	794195	keystroke_u	u	n/a
397.2025	0.075	794405	keystroke_c	c	n/a
397.3375	0.06	794675	keystroke_c	c	n/a
397.5025	0.045	795005	keystroke_e	e	n/a
397.6975	0.045	795395	keystroke_e	e	n/a
398.0875	0.075	796175	keystroke_d	d	n/a
398.252	0.0755	796504	keystroke_Key.space	Key.space	n/a
398.5525	0.09	797105	keystroke_w	w	n/a
398.5975	0.1045	797195	keystroke_h	h	n/a
398.6575	0.1045	797315	keystroke_o	o	n/a
398.8975	0.12	797795	keystroke_'	'	n/a
399.0325	0.0745	798065	keystroke_s	s	n/a
399.2275	0.1045	798455	keystroke_Key.space	Key.space	n/a
399.617	0.075	799234	keystroke_r	r	n/a
399.6775	0.09	799355	keystroke_o	o	n/a
399.902	0.075	799804	keystroke_c	c	n/a
399.978	0.09	799956	keystroke_h	h	n/a
400.082	0.105	800164	keystroke_e	e	n/a
400.142	0.076	800284	keystroke_r	r	n/a
400.757	0.06	801514	keystroke_Key.backspace	Key.backspace	n/a
400.892	0.075	801784	keystroke_Key.backspace	Key.backspace	n/a
401.732	0.09	803464	keystroke_e	e	n/a
401.837	0.135	803674	keystroke_s	s	n/a
402.107	0.06	804214	keystroke_t	t	n/a
402.168	0.119	804336	keystroke_e	e	n/a
402.288	0.059	804576	keystroke_r	r	n/a
402.752	0.105	805504	keystroke_Key.enter	Key.enter	n/a
402.863	7.0605	805726	prompt	n/a	competing interventions yukon developed\n
403.5925	0.12	807185	keystroke_c	c	n/a
403.6525	0.105	807305	keystroke_o	o	n/a
403.6975	0.105	807395	keystroke_m	m	n/a
403.8625	0.1045	807725	keystroke_p	p	n/a
403.922	0.09	807844	keystroke_l	l	n/a
404.087	0.03	808174	keystroke_e	e	n/a
404.372	0.03	808744	keystroke_Key.backspace	Key.backspace	n/a
404.492	0.045	808984	keystroke_Key.backspace	Key.backspace	n/a
404.553	0.09	809106	keystroke_e	e	n/a
404.823	0.06	809646	keystroke_t	t	n/a
404.897	0.091	809794	keystroke_i	i	n/a
404.927	0.106	809854	keystroke_n	n	n/a
405.048	0.0895	810096	keystroke_g	g	n/a
405.1825	0.0895	810365	keystroke_Key.space	Key.space	n/a
405.527	0.105	811054	keystroke_i	i	n/a
405.587	0.121	811174	keystroke_n	n	n/a
405.737	0.09	811474	keystroke_t	t	n/a
405.842	0.09	811684	keystroke_e	e	n/a
405.902	0.075	811804	keystroke_r	r	n/a
406.247	0.075	812494	keystroke_v	v	n/a
406.457	0.09	812914	keystroke_e	e	n/a
406.532	0.0905	813064	keystroke_n	n	n/a
406.6825	0.075	813365	keystroke_t	t	n/a
406.7725	0.105	813545	keystroke_i	i	n/a
406.8325	0.105	813665	keystroke_o	o	n/a
406.8925	0.12	813785	keystroke_n	n	n/a
407.0275	0.1195	814055	keystroke_s	s	n/a
407.192	0.075	814384	keystroke_Key.space	Key.space	n/a
407.882	0.1055	815764	keystroke_y	y	n/a
407.942	0.0905	815884	keystroke_u	u	n/a
408.1525	0.105	816305	keystroke_k	k	n/a
408.347	0.1055	816694	keystroke_o	o	n/a
408.392	0.1505	816784	keystroke_n	n	n/a
408.5575	0.09	817115	keystroke_Key.space	Key.space	n/a
408.6625	0.075	817325	keystroke_d	d	n/a
408.8125	0.105	817625	keystroke_e	e	n/a
409.0675	0.09	818135	keystroke_v	v	n/a
409.1125	0.135	818225	keystroke_e	e	n/a
409.2325	0.075	818465	keystroke_l	l	n/a
409.382	0.09	818764	keystroke_o	o	n/a
409.532	0.105	819064	keystroke_p	p	n/a
409.607	0.06	819214	keystroke_e	e	n/a
409.742	0.105	819484	keystroke_d	d	n/a
409.847	0.075	819694	keystroke_Key.enter	Key.enter	n/a
409.9265	6.5975	819853	prompt	n/a	martin agent best exclusive\n
410.672	0.1055	821344	keystroke_m	m	n/a
410.7775	0.12	821555	keystroke_a	a	n/a
410.8375	0.105	821675	keystroke_r	r	n/a
411.272	0.075	822544	keystroke_t	t	n/a
411.332	0.105	822664	keystroke_i	i	n/a
411.362	0.165	822724	keystroke_n	n	n/a
411.572	0.105	823144	keystroke_Key.space	Key.space	n/a
411.722	0.105	823444	keystroke_a	a	n/a
411.902	0.105	823804	keystroke_g	g	n/a
411.947	0.135	823894	keystroke_e	e	n/a
412.067	0.1055	824134	keystroke_n	n	n/a
412.1875	0.075	824375	keystroke_t	t	n/a
412.2775	0.06	824555	keystroke_Key.space	Key.space	n/a
412.427	0.12	824854	keystroke_b	b	n/a
412.4875	0.1345	824975	keystroke_e	e	n/a
412.577	0.06	825154	keystroke_s	s	n/a
412.682	0.1205	825364	keystroke_t	t	n/a
412.8175	0.1045	825635	keystroke_Key.space	Key.space	n/a
413.3875	0.015	826775	keystroke_e	e	n/a
413.522	0.105	827044	keystroke_x	x	n/a
413.957	0.09	827914	keystroke_c	c	n/a
414.092	0.0605	828184	keystroke_l	l	n/a
414.2575	0.075	828515	keystroke_o	o	n/a
414.947	0.06	829894	keystroke_Key.backspace	Key.backspace	n/a
415.5175	0.0895	831035	keystroke_u	u	n/a
415.817	0.075	831634	keystroke_s	s	n/a
415.952	0.09	831904	keystroke_i	i	n/a
416.057	0.15	832114	keystroke_v	v	n/a
416.192	0.135	832384	keystroke_e	e	n/a
416.417	0.105	832834	keystroke_Key.enter	Key.enter	n/a
416.529	5.095	833058	prompt	n/a	dominican housewares words lunch\n
417.212	0.09	834424	keystroke_d	d	n/a
417.287	0.09	834574	keystroke_o	o	n/a
417.317	0.09	834634	keystroke_m	m	n/a
417.482	0.105	834964	keystroke_i	i	n/a
417.527	0.1055	835054	keystroke_n	n	n/a
417.8425	0.09	835685	keystroke_i	i	n/a
418.037	0.105	836074	keystroke_c	c	n/a
418.082	0.12	836164	keystroke_a	a	n/a
418.232	0.135	836464	keystroke_n	n	n/a
418.352	0.075	836704	keystroke_Key.space	Key.space	n/a
418.5625	0.06	837125	keystroke_h	h	n/a
418.6375	0.105	837275	keystroke_o	o	n/a
418.6975	0.12	837395	keystroke_u	u	n/a
418.7725	0.09	837545	keystroke_s	s	n/a
418.8175	0.09	837635	keystroke_e	e	n/a
419.0275	0.12	838055	keystroke_w	w	n/a
419.1175	0.135	838235	keystroke_a	a	n/a
419.2075	0.18	838415	keystroke_r	r	n/a
419.2825	0.15	838565	keystroke_e	e	n/a
419.5525	0.105	839105	keystroke_s	s	n/a
419.7475	0.09	839495	keystroke_Key.space	Key.space	n/a
419.9725	0.075	839945	keystroke_w	w	n/a
420.0325	0.09	840065	keystroke_o	o	n/a
420.1225	0.075	840245	keystroke_r	r	n/a
420.272	0.135	840544	keystroke_d	d	n/a
420.347	0.135	840694	keystroke_s	s	n/a
420.497	0.075	840994	keystroke_Key.space	Key.space	n/a
420.677	0.135	841354	keystroke_l	l	n/a
420.767	0.1205	841534	keystroke_u	u	n/a
421.143	0.09	842286	keystroke_n	n	n/a
421.263	0.105	842526	keystroke_c	c	n/a
421.368	0.06	842736	keystroke_h	h	n/a
421.5475	0.0755	843095	keystroke_Key.enter	Key.enter	n/a
421.627	7.482	843254	prompt	n/a	electricity publication owner academics\n
422.298	0.06	844596	keystroke_e	e	n/a
422.343	0.12	844686	keystroke_l	l	n/a
422.448	0.09	844896	keystroke_e	e	n/a
422.628	0.09	845256	keystroke_c	c	n/a
422.883	0.045	845766	keystroke_t	t	n/a
423.003	0.075	846006	keystroke_r	r	n/a
423.093	0.09	846186	keystroke_i	i	n/a
423.423	0.09	846846	keystroke_c	c	n/a
423.498	0.075	846996	keystroke_i	i	n/a
423.723	0.075	847446	keystroke_t	t	n/a
423.783	0.09	847566	keystroke_y	y	n/a
423.918	0.09	847836	keystroke_Key.space	Key.space	n/a
424.158	0.105	848316	keystroke_p	p	n/a
424.233	0.075	848466	keystroke_u	u	n/a
424.473	0.045	848946	keystroke_b	b	n/a
424.653	0.135	849306	keystroke_l	l	n/a
424.698	0.12	849396	keystroke_i	i	n/a
424.953	0.105	849906	keystroke_c	c	n/a
425.028	0.0895	850056	keystroke_a	a	n/a
425.2225	0.075	850445	keystroke_t	t	n/a
425.2675	0.195	850535	keystroke_i	i	n/a
425.3275	0.12	850655	keystroke_o	o	n/a
425.3875	0.165	850775	keystroke_n	n	n/a
426.0475	0.06	852095	keystroke_Key.space	Key.space	n/a
426.1825	0.105	852365	keystroke_o	o	n/a
426.7825	0.075	853565	keystroke_w	w	n/a
426.9025	0.12	853805	keystroke_n	n	n/a
427.173	0.09	854346	keystroke_e	e	n/a
427.218	0.105	854436	keystroke_r	r	n/a
427.367	0.105	854734	keystroke_Key.space	Key.space	n/a
427.593	0.09	855186	keystroke_a	a	n/a
427.743	0.09	855486	keystroke_c	c	n/a
427.8625	0.1205	855725	keystroke_a	a	n/a
428.133	0.075	856266	keystroke_d	d	n/a
428.298	0.0595	856596	keystroke_e	e	n/a
428.433	0.1345	856866	keystroke_m	m	n/a
428.7325	0.0905	857465	keystroke_i	i	n/a
428.8075	0.1055	857615	keystroke_c	c	n/a
428.8675	0.1205	857735	keystroke_s	s	n/a
