onset	duration	sample	value	key	prompt_text
1.15	33.0105	2300	prompt	n/a	the quick brown fox jumps over a lazy dog\n
6.6585	0.118	13317	keystroke_1	1	n/a
7.242	0.165	14484	keystroke_0	0	n/a
7.798	0.093	15596	keystroke_1	1	n/a
8.25	0.116	16500	keystroke_5	5	n/a
11.362	0.207	22724	keystroke_Key.caps_lock	Key.caps_lock	n/a
23.1455	0.1525	46291	keystroke_t	t	n/a
23.2415	0.1045	46483	keystroke_h	h	n/a
23.362	0.144	46724	keystroke_e	e	n/a
23.498	0.096	46996	keystroke_Key.space	Key.space	n/a
23.954	0.08	47908	keystroke_Key.backspace	Key.backspace	n/a
24.8895	0.168	49779	keystroke_Key.caps_lock	Key.caps_lock	n/a
25.2255	0.136	50451	keystroke_t	t	n/a
25.3455	0.104	50691	keystroke_h	h	n/a
25.4575	0.136	50915	keystroke_e	e	n/a
25.5935	0.088	51187	keystroke_Key.space	Key.space	n/a
25.6975	0.144	51395	keystroke_q	q	n/a
25.8015	0.128	51603	keystroke_u	u	n/a
25.8815	0.104	51763	keystroke_i	i	n/a
25.9855	0.1355	51971	keystroke_c	c	n/a
26.129	0.104	52258	keystroke_k	k	n/a
26.385	0.08	52770	keystroke_Key.space	Key.space	n/a
26.585	0.112	53170	keystroke_b	b	n/a
26.721	0.144	53442	keystroke_r	r	n/a
26.769	0.08	53538	keystroke_o	o	n/a
26.9375	0.176	53875	keystroke_w	w	n/a
27.0415	0.064	54083	keystroke_n	n	n/a
27.2095	0.072	54419	keystroke_Key.space	Key.space	n/a
27.5215	0.104	55043	keystroke_f	f	n/a
27.6335	0.04	55267	keystroke_o	o	n/a
27.7935	0.096	55587	keystroke_x	x	n/a
28.0975	0.088	56195	keystroke_Key.space	Key.space	n/a
28.6255	0.08	57251	keystroke_j	j	n/a
28.7935	0.088	57587	keystroke_u	u	n/a
28.9695	0.144	57939	keystroke_m	m	n/a
29.1135	0.112	58227	keystroke_p	p	n/a
29.2735	0.152	58547	keystroke_s	s	n/a
29.4815	0.08	58963	keystroke_Key.space	Key.space	n/a
29.6815	0.12	59363	keystroke_o	o	n/a
29.7935	0.136	59587	keystroke_v	v	n/a
29.8975	0.2	59795	keystroke_e	e	n/a
30.0735	0.136	60147	keystroke_r	r	n/a
30.3775	0.096	60755	keystroke_Key.space	Key.space	n/a
30.6095	0.088	61219	keystroke_Key.space	Key.space	n/a
30.6175	0.152	61235	keystroke_a	a	n/a
31.1215	0.056	62243	keystroke_Key.backspace	Key.backspace	n/a
31.2735	0.08	62547	keystroke_Key.backspace	Key.backspace	n/a
31.4495	0.152	62899	keystroke_a	a	n/a
31.5455	0.088	63091	keystroke_Key.space	Key.space	n/a
31.9455	0.088	63891	keystroke_l	l	n/a
32.385	0.128	64770	keystroke_a	a	n/a
32.625	0.104	65250	keystroke_z	z	n/a
32.865	0.128	65730	keystroke_y	y	n/a
33.041	0.088	66082	keystroke_Key.space	Key.space	n/a
33.673	0.128	67346	keystroke_d	d	n/a
33.769	0.112	67538	keystroke_o	o	n/a
33.921	0.136	67842	keystroke_g	g	n/a
34.025	0.128	68050	keystroke_Key.enter	Key.enter	n/a
34.1675	8.746	68335	prompt	n/a	complement zshops catalyst fairy\n
34.841	0.2	69682	keystroke_c	c	n/a
34.905	0.136	69810	keystroke_o	o	n/a
34.977	0.12	69954	keystroke_m	m	n/a
35.145	0.08	70290	keystroke_p	p	n/a
35.321	0.072	70642	keystroke_l	l	n/a
35.409	0.128	70818	keystroke_e	e	n/a
35.601	0.096	71202	keystroke_m	m	n/a
35.689	0.144	71378	keystroke_e	e	n/a
35.825	0.064	71650	keystroke_n	n	n/a
35.889	0.104	71778	keystroke_t	t	n/a
36.009	0.056	72018	keystroke_Key.space	Key.space	n/a
36.201	0.184	72402	keystroke_z	z	n/a
36.561	0.184	73122	keystroke_s	s	n/a
36.697	0.144	73394	keystroke_h	h	n/a
36.785	0.168	73570	keystroke_o	o	n/a
37.185	0.088	74370	keystroke_p	p	n/a
37.321	0.12	74642	keystroke_s	s	n/a
37.537	0.08	75074	keystroke_Key.space	Key.space	n/a
38.177	0.184	76354	keystroke_c	c	n/a
38.313	0.144	76626	keystroke_a	a	n/a
38.553	0.152	77106	keystroke_t	t	n/a
38.809	0.136	77618	keystroke_l	l	n/a
39.465	0.08	78930	keystroke_Key.backspace	Key.backspace	n/a
39.617	0.16	79234	keystroke_a	a	n/a
39.801	0.104	79602	keystroke_l	l	n/a
40.193	0.136	80386	keystroke_y	y	n/a
40.465	0.12	80930	keystroke_s	s	n/a
40.681	0.144	81362	keystroke_t	t	n/a
41.0165	0.12	82033	keystroke_Key.space	Key.space	n/a
41.481	0.1195	82962	keystroke_f	f	n/a
41.545	0.1835	83090	keystroke_a	a	n/a
41.7525	0.1045	83505	keystroke_i	i	n/a
41.8965	0.104	83793	keystroke_r	r	n/a
42.2325	0.128	84465	keystroke_t	t	n/a
42.5525	0.08	85105	keystroke_Key.backspace	Key.backspace	n/a
42.6565	0.144	85313	keystroke_y	y	n/a
42.8085	0.104	85617	keystroke_Key.enter	Key.enter	n/a
42.9165	4.3795	85833	prompt	n/a	dover tales davis father\n
43.5205	0.096	87041	keystroke_d	d	n/a
43.5845	0.104	87169	keystroke_o	o	n/a
43.7365	0.136	87473	keystroke_v	v	n/a
43.8325	0.184	87665	keystroke_e	e	n/a
44.0245	0.1595	88049	keystroke_r	r	n/a
44.16	0.0995	88320	keystroke_Key.space	Key.space	n/a
44.3435	0.1595	88687	keystroke_t	t	n/a
44.4475	0.1595	88895	keystroke_a	a	n/a
44.543	0.088	89086	keystroke_l	l	n/a
44.687	0.081	89374	keystroke_e	e	n/a
44.8875	0.128	89775	keystroke_s	s	n/a
45.103	0.104	90206	keystroke_Key.space	Key.space	n/a
45.264	0.168	90528	keystroke_d	d	n/a
45.376	0.152	90752	keystroke_a	a	n/a
45.568	0.144	91136	keystroke_v	v	n/a
45.68	0.096	91360	keystroke_i	i	n/a
46.088	0.2	92176	keystroke_s	s	n/a
46.296	0.096	92592	keystroke_Key.space	Key.space	n/a
46.52	0.136	93040	keystroke_f	f	n/a
46.608	0.128	93216	keystroke_a	a	n/a
46.8	0.144	93600	keystroke_t	t	n/a
46.928	0.0875	93856	keystroke_h	h	n/a
46.936	0.2395	93872	keystroke_e	e	n/a
47.0635	0.168	94127	keystroke_r	r	n/a
47.2075	0.0875	94415	keystroke_Key.enter	Key.enter	n/a
47.2985	6.8985	94597	prompt	n/a	posing christine specialists varied\n
47.9515	0.088	95903	keystroke_p	p	n/a
48.135	0.096	96270	keystroke_o	o	n/a
48.263	0.12	96526	keystroke_s	s	n/a
48.367	0.1525	96734	keystroke_i	i	n/a
48.4795	0.104	96959	keystroke_n	n	n/a
48.5755	0.1595	97151	keystroke_g	g	n/a
48.711	0.064	97422	keystroke_Key.space	Key.space	n/a
49.1665	0.1355	98333	keystroke_c	c	n/a
49.318	0.1035	98636	keystroke_h	h	n/a
49.4455	0.153	98891	keystroke_r	r	n/a
49.5905	0.0915	99181	keystroke_i	i	n/a
49.864	0.064	99728	keystroke_t	t	n/a
49.9875	0.0165	99975	keystroke_Key.backspace	Key.backspace	n/a
50.0265	0.0935	100053	keystroke_s	s	n/a
50.1775	0.1275	100355	keystroke_t	t	n/a
50.2415	0.143	100483	keystroke_i	i	n/a
50.345	0.1155	100690	keystroke_n	n	n/a
50.4525	0.1235	100905	keystroke_e	e	n/a
50.6015	0.0425	101203	keystroke_Key.space	Key.space	n/a
50.685	0.0475	101370	keystroke_s	s	n/a
50.7645	0.0475	101529	keystroke_p	p	n/a
50.82	0.04	101640	keystroke_e	e	n/a
50.8995	0.1435	101799	keystroke_c	c	n/a
50.9955	0.0795	101991	keystroke_i	i	n/a
51.125	0.1435	102250	keystroke_a	a	n/a
51.2365	0.0635	102473	keystroke_l	l	n/a
51.384	0.1035	102768	keystroke_i	i	n/a
51.4955	0.0525	102991	keystroke_s	s	n/a
51.615	0.2335	103230	keystroke_t	t	n/a
51.7445	0.176	103489	keystroke_s	s	n/a
52.071	0.0965	104142	keystroke_Key.space	Key.space	n/a
52.348	0.232	104696	keystroke_a	a	n/a
52.396	0.216	104792	keystroke_v	v	n/a
52.7565	0.072	105513	keystroke_Key.backspace	Key.backspace	n/a
52.9245	0.088	105849	keystroke_Key.backspace	Key.backspace	n/a
53.1005	0.1525	106201	keystroke_v	v	n/a
53.173	0.176	106346	keystroke_a	a	n/a
53.437	0.16	106874	keystroke_r	r	n/a
53.573	0.112	107146	keystroke_i	i	n/a
53.757	0.1195	107514	keystroke_e	e	n/a
53.9725	0.1595	107945	keystroke_d	d	n/a
54.084	0.111	108168	keystroke_Key.enter	Key.enter	n/a
54.2	5.0635	108400	prompt	n/a	brian options wayne volume\n
54.869	0.128	109738	keystroke_b	b	n/a
55.053	0.112	110106	keystroke_r	r	n/a
55.149	0.08	110298	keystroke_i	i	n/a
55.293	0.152	110586	keystroke_a	a	n/a
55.373	0.072	110746	keystroke_n	n	n/a
55.5635	0.064	111127	keystroke_Key.space	Key.space	n/a
55.7325	0.1205	111465	keystroke_o	o	n/a
55.941	0.104	111882	keystroke_p	p	n/a
56.229	0.1675	112458	keystroke_t	t	n/a
56.341	0.2475	112682	keystroke_i	i	n/a
56.4365	0.16	112873	keystroke_o	o	n/a
56.5325	0.128	113065	keystroke_n	n	n/a
56.6685	0.1445	113337	keystroke_s	s	n/a
56.772	0.088	113544	keystroke_Key.space	Key.space	n/a
57.0845	0.2315	114169	keystroke_w	w	n/a
57.2125	0.1355	114425	keystroke_a	a	n/a
57.436	0.1285	114872	keystroke_y	y	n/a
57.5725	0.096	115145	keystroke_n	n	n/a
57.6845	0.144	115369	keystroke_e	e	n/a
57.9325	0.064	115865	keystroke_Key.space	Key.space	n/a
58.444	0.152	116888	keystroke_v	v	n/a
58.5565	0.0955	117113	keystroke_o	o	n/a
58.756	0.096	117512	keystroke_l	l	n/a
58.9315	0.0875	117863	keystroke_u	u	n/a
59.1235	0.0605	118247	keystroke_m	m	n/a
59.184	0.056	118368	keystroke_e	e	n/a
59.227	0.035	118454	keystroke_Key.enter	Key.enter	n/a
59.266	8.4675	118532	prompt	n/a	metals notebook concluded toilet\n
59.7875	0.1435	119575	keystroke_m	m	n/a
59.955	0.12	119910	keystroke_a	a	n/a
60.2995	0.072	120599	keystroke_Key.backspace	Key.backspace	n/a
60.4355	0.1365	120871	keystroke_e	e	n/a
60.636	0.168	121272	keystroke_t	t	n/a
60.988	0.192	121976	keystroke_a	a	n/a
61.172	0.104	122344	keystroke_l	l	n/a
61.387	0.096	122774	keystroke_s	s	n/a
61.499	0.08	122998	keystroke_Key.space	Key.space	n/a
61.6985	0.129	123397	keystroke_n	n	n/a
61.7715	0.128	123543	keystroke_o	o	n/a
61.9075	0.184	123815	keystroke_t	t	n/a
62.0355	0.16	124071	keystroke_e	e	n/a
62.2995	0.112	124599	keystroke_b	b	n/a
62.4035	0.0885	124807	keystroke_o	o	n/a
62.58	0.104	125160	keystroke_o	o	n/a
62.78	0.112	125560	keystroke_k	k	n/a
63.0995	0.168	126199	keystroke_s	s	n/a
63.58	0.08	127160	keystroke_Key.backspace	Key.backspace	n/a
63.828	0.088	127656	keystroke_Key.space	Key.space	n/a
64.004	0.176	128008	keystroke_c	c	n/a
64.092	0.136	128184	keystroke_o	o	n/a
64.156	0.112	128312	keystroke_n	n	n/a
64.308	0.176	128616	keystroke_c	c	n/a
64.364	0.104	128728	keystroke_l	l	n/a
64.588	0.0965	129176	keystroke_u	u	n/a
64.9235	0.1675	129847	keystroke_d	d	n/a
65.067	0.1685	130134	keystroke_e	e	n/a
65.2025	0.129	130405	keystroke_d	d	n/a
65.3395	0.088	130679	keystroke_Key.space	Key.space	n/a
65.571	0.1845	131142	keystroke_t	t	n/a
65.731	0.1205	131462	keystroke_l	l	n/a
66.1555	0.072	132311	keystroke_Key.backspace	Key.backspace	n/a
66.4515	0.272	132903	keystroke_o	o	n/a
66.5955	0.176	133191	keystroke_i	i	n/a
67.147	0.1195	134294	keystroke_l	l	n/a
67.3555	0.2	134711	keystroke_e	e	n/a
67.5155	0.16	135031	keystroke_t	t	n/a
67.6275	0.104	135255	keystroke_Key.enter	Key.enter	n/a
67.7375	6.669	135475	prompt	n/a	lights begun courses consciousness\n
68.4515	0.1845	136903	keystroke_l	l	n/a
68.5635	0.1125	137127	keystroke_i	i	n/a
68.7	0.1035	137400	keystroke_g	g	n/a
68.7715	0.088	137543	keystroke_h	h	n/a
68.9235	0.176	137847	keystroke_t	t	n/a
69.0275	0.176	138055	keystroke_s	s	n/a
69.2195	0.048	138439	keystroke_Key.space	Key.space	n/a
69.5795	0.096	139159	keystroke_b	b	n/a
69.6995	0.1355	139399	keystroke_e	e	n/a
69.9665	0.1925	139933	keystroke_g	g	n/a
70.087	0.128	140174	keystroke_u	u	n/a
70.271	0.104	140542	keystroke_n	n	n/a
70.4945	0.0885	140989	keystroke_Key.space	Key.space	n/a
70.679	0.144	141358	keystroke_c	c	n/a
70.767	0.2475	141534	keystroke_o	o	n/a
70.887	0.1275	141774	keystroke_u	u	n/a
71.0225	0.1215	142045	keystroke_r	r	n/a
71.111	0.0835	142222	keystroke_s	s	n/a
71.282	0.084	142564	keystroke_e	e	n/a
71.5015	0.1315	143003	keystroke_s	s	n/a
71.668	0.1025	143336	keystroke_Key.space	Key.space	n/a
72.1135	0.1525	144227	keystroke_c	c	n/a
72.169	0.145	144338	keystroke_o	o	n/a
72.25	0.1515	144500	keystroke_n	n	n/a
72.718	0.078	145436	keystroke_s	s	n/a
72.7995	0.038	145599	keystroke_i	i	n/a
73.024	0.172	146048	keystroke_c	c	n/a
73.124	0.1195	146248	keystroke_i	i	n/a
73.22	0.265	146440	keystroke_o	o	n/a
73.3735	0.1035	146747	keystroke_u	u	n/a
73.509	0.088	147018	keystroke_s	s	n/a
73.6685	0.088	147337	keystroke_n	n	n/a
73.8045	0.089	147609	keystroke_e	e	n/a
74.0135	0.072	148027	keystroke_s	s	n/a
74.181	0.1425	148362	keystroke_s	s	n/a
74.3165	0.088	148633	keystroke_Key.enter	Key.enter	n/a
74.411	5.973	148822	prompt	n/a	jersey attachment donna medal\n
75.0655	0.12	150131	keystroke_j	j	n/a
75.2015	0.176	150403	keystroke_e	e	n/a
75.2975	0.144	150595	keystroke_r	r	n/a
75.5135	0.08	151027	keystroke_s	s	n/a
75.6815	0.175	151363	keystroke_e	e	n/a
75.9295	0.1435	151859	keystroke_y	y	n/a
76.089	0.072	152178	keystroke_Key.space	Key.space	n/a
76.258	0.152	152516	keystroke_a	a	n/a
76.418	0.096	152836	keystroke_t	t	n/a
76.609	0.1445	153218	keystroke_t	t	n/a
76.674	0.1435	153348	keystroke_e	e	n/a
77.025	0.096	154050	keystroke_Key.backspace	Key.backspace	n/a
77.186	0.1275	154372	keystroke_a	a	n/a
77.4015	0.136	154803	keystroke_c	c	n/a
77.5925	0.1135	155185	keystroke_h	h	n/a
77.85	0.088	155700	keystroke_m	m	n/a
77.961	0.1275	155922	keystroke_e	e	n/a
78.0895	0.0725	156179	keystroke_n	n	n/a
78.194	0.144	156388	keystroke_t	t	n/a
78.297	0.08	156594	keystroke_Key.space	Key.space	n/a
78.49	0.152	156980	keystroke_d	d	n/a
78.577	0.096	157154	keystroke_o	o	n/a
78.7615	0.088	157523	keystroke_n	n	n/a
78.9215	0.0955	157843	keystroke_n	n	n/a
79.049	0.1595	158098	keystroke_a	a	n/a
79.1685	0.088	158337	keystroke_Key.space	Key.space	n/a
79.6085	0.085	159217	keystroke_m	m	n/a
79.7175	0.0715	159435	keystroke_e	e	n/a
79.909	0.135	159818	keystroke_d	d	n/a
80.013	0.1275	160026	keystroke_a	a	n/a
80.1165	0.064	160233	keystroke_l	l	n/a
80.3395	0.0445	160679	keystroke_Key.enter	Key.enter	n/a
80.384	5.6915	160768	prompt	n/a	warcraft ultimately force was\n
81.013	0.263	162026	keystroke_w	w	n/a
81.124	0.169	162248	keystroke_a	a	n/a
81.245	0.104	162490	keystroke_r	r	n/a
81.4835	0.089	162967	keystroke_c	c	n/a
81.708	0.1285	163416	keystroke_r	r	n/a
81.7965	0.1675	163593	keystroke_a	a	n/a
82.027	0.1045	164054	keystroke_f	f	n/a
82.187	0.153	164374	keystroke_t	t	n/a
82.363	0.0845	164726	keystroke_Key.space	Key.space	n/a
82.6065	0.105	165213	keystroke_u	u	n/a
82.8155	0.1045	165631	keystroke_l	l	n/a
82.952	0.136	165904	keystroke_t	t	n/a
83.04	0.088	166080	keystroke_i	i	n/a
83.224	0.1205	166448	keystroke_m	m	n/a
83.3365	0.1445	166673	keystroke_a	a	n/a
83.929	0.1765	167858	keystroke_t	t	n/a
84.0585	0.128	168117	keystroke_e	e	n/a
84.1785	0.079	168357	keystroke_l	l	n/a
84.394	0.1535	168788	keystroke_y	y	n/a
84.5705	0.072	169141	keystroke_Key.space	Key.space	n/a
84.7625	0.097	169525	keystroke_f	f	n/a
84.8435	0.104	169687	keystroke_o	o	n/a
84.9625	0.089	169925	keystroke_r	r	n/a
85.306	0.1925	170612	keystroke_c	c	n/a
85.378	0.2085	170756	keystroke_e	e	n/a
85.6185	0.088	171237	keystroke_Key.space	Key.space	n/a
85.7305	0.184	171461	keystroke_w	w	n/a
85.851	0.248	171702	keystroke_a	a	n/a
85.9785	0.0955	171957	keystroke_Key.enter	Key.enter	n/a
86.019	0.151	172038	keystroke_s	s	n/a
86.0785	7.631	172157	prompt	n/a	turning templates drug affiliates\n
86.962	0.144	173924	keystroke_t	t	n/a
87.074	0.104	174148	keystroke_u	u	n/a
87.2185	0.184	174437	keystroke_r	r	n/a
87.3395	0.112	174679	keystroke_n	n	n/a
87.4755	0.168	174951	keystroke_i	i	n/a
87.586	0.1205	175172	keystroke_n	n	n/a
87.6985	0.161	175397	keystroke_g	g	n/a
87.8425	0.105	175685	keystroke_Key.space	Key.space	n/a
88.322	0.1915	176644	keystroke_t	t	n/a
88.4025	0.2075	176805	keystroke_e	e	n/a
88.4815	0.1295	176963	keystroke_m	m	n/a
88.634	0.113	177268	keystroke_p	p	n/a
89.2825	0.1285	178565	keystroke_l	l	n/a
89.4995	0.1755	178999	keystroke_a	a	n/a
89.683	0.144	179366	keystroke_t	t	n/a
89.755	0.112	179510	keystroke_e	e	n/a
90.0035	0.1435	180007	keystroke_s	s	n/a
90.083	0.096	180166	keystroke_Key.space	Key.space	n/a
90.2825	0.088	180565	keystroke_d	d	n/a
90.466	0.08	180932	keystroke_r	r	n/a
90.546	0.0965	181092	keystroke_u	u	n/a
90.6665	0.136	181333	keystroke_g	g	n/a
90.9305	0.04	181861	keystroke_h	h	n/a
91.3385	0.096	182677	keystroke_Key.backspace	Key.backspace	n/a
91.6265	0.088	183253	keystroke_Key.space	Key.space	n/a
92.1065	0.167	184213	keystroke_a	a	n/a
92.2575	0.086	184515	keystroke_f	f	n/a
92.385	0.144	184770	keystroke_f	f	n/a
92.465	0.072	184930	keystroke_i	i	n/a
92.6485	0.1055	185297	keystroke_l	l	n/a
92.8615	0.095	185723	keystroke_i	i	n/a
93.0005	0.0875	186001	keystroke_a	a	n/a
93.12	0.1455	186240	keystroke_t	t	n/a
93.2495	0.1355	186499	keystroke_e	e	n/a
93.4995	0.1445	186999	keystroke_s	s	n/a
93.612	0.096	187224	keystroke_Key.enter	Key.enter	n/a
93.7125	7.42	187425	prompt	n/a	desire vocational hammer adaptor\n
94.341	0.1595	188682	keystroke_d	d	n/a
94.437	0.1115	188874	keystroke_e	e	n/a
94.6445	0.1115	189289	keystroke_s	s	n/a
94.748	0.089	189496	keystroke_i	i	n/a
94.8765	0.1835	189753	keystroke_r	r	n/a
94.9565	0.1675	189913	keystroke_e	e	n/a
95.14	0.0795	190280	keystroke_Key.space	Key.space	n/a
95.5	0.0875	191000	keystroke_v	v	n/a
95.56	0.0875	191120	keystroke_o	o	n/a
95.7635	0.225	191527	keystroke_a	a	n/a
96.1325	0.08	192265	keystroke_Key.backspace	Key.backspace	n/a
96.2445	0.1205	192489	keystroke_c	c	n/a
96.317	0.128	192634	keystroke_a	a	n/a
96.581	0.152	193162	keystroke_t	t	n/a
96.645	0.208	193290	keystroke_i	i	n/a
96.749	0.112	193498	keystroke_o	o	n/a
96.789	0.1365	193578	keystroke_n	n	n/a
96.9255	0.1435	193851	keystroke_a	a	n/a
97.029	0.08	194058	keystroke_l	l	n/a
97.205	0.08	194410	keystroke_Key.space	Key.space	n/a
97.3975	0.08	194795	keystroke_h	h	n/a
97.494	0.112	194988	keystroke_a	a	n/a
97.63	0.08	195260	keystroke_m	m	n/a
97.798	0.0875	195596	keystroke_m	m	n/a
97.8775	0.216	195755	keystroke_e	e	n/a
97.9815	0.156	195963	keystroke_r	r	n/a
98.0855	0.068	196171	keystroke_Key.space	Key.space	n/a
98.337	0.144	196674	keystroke_a	a	n/a
98.513	0.1125	197026	keystroke_d	d	n/a
98.7135	0.16	197427	keystroke_a	a	n/a
99.3855	0.152	198771	keystroke_t	t	n/a
99.978	0.072	199956	keystroke_Key.backspace	Key.backspace	n/a
100.218	0.096	200436	keystroke_p	p	n/a
100.5945	0.144	201189	keystroke_t	t	n/a
100.7465	0.088	201493	keystroke_o	o	n/a
100.8665	0.1605	201733	keystroke_r	r	n/a
101.043	0.088	202086	keystroke_Key.enter	Key.enter	n/a
101.1355	7.6905	202271	prompt	n/a	indication aboriginal lodging declare\n
101.771	0.1275	203542	keystroke_i	i	n/a
101.8665	0.104	203733	keystroke_n	n	n/a
101.9865	0.104	203973	keystroke_d	d	n/a
102.0985	0.08	204197	keystroke_i	i	n/a
102.2505	0.088	204501	keystroke_c	c	n/a
102.3225	0.1605	204645	keystroke_a	a	n/a
102.603	0.16	205206	keystroke_t	t	n/a
102.627	0.208	205254	keystroke_i	i	n/a
102.707	0.144	205414	keystroke_o	o	n/a
102.739	0.1435	205478	keystroke_n	n	n/a
102.995	0.08	205990	keystroke_Key.space	Key.space	n/a
103.243	0.1605	206486	keystroke_a	a	n/a
103.363	0.0955	206726	keystroke_b	b	n/a
103.5385	0.112	207077	keystroke_o	o	n/a
103.6745	0.1435	207349	keystroke_r	r	n/a
103.9945	0.0875	207989	keystroke_i	i	n/a
104.7935	0.1315	209587	keystroke_g	g	n/a
104.933	0.109	209866	keystroke_i	i	n/a
104.994	0.1155	209988	keystroke_n	n	n/a
105.1175	0.1435	210235	keystroke_a	a	n/a
105.237	0.056	210474	keystroke_l	l	n/a
105.4125	0.0275	210825	keystroke_Key.space	Key.space	n/a
105.5755	0.0655	211151	keystroke_l	l	n/a
105.769	0.08	211538	keystroke_o	o	n/a
106.0575	0.112	212115	keystroke_d	d	n/a
106.305	0.16	212610	keystroke_g	g	n/a
106.601	0.136	213202	keystroke_i	i	n/a
106.689	0.136	213378	keystroke_n	n	n/a
106.897	0.1285	213794	keystroke_g	g	n/a
107.1455	0.104	214291	keystroke_Key.space	Key.space	n/a
107.6255	0.1675	215251	keystroke_d	d	n/a
107.705	0.12	215410	keystroke_e	e	n/a
107.929	0.104	215858	keystroke_c	c	n/a
107.977	0.088	215954	keystroke_l	l	n/a
108.3455	0.112	216691	keystroke_a	a	n/a
108.5375	0.1675	217075	keystroke_r	r	n/a
108.5695	0.1995	217139	keystroke_e	e	n/a
108.737	0.088	217474	keystroke_Key.enter	Key.enter	n/a
108.8285	9.8175	217657	prompt	n/a	message specialties deferred australia\n
109.5115	0.0845	219023	keystroke_m	m	n/a
109.596	0.06	219192	keystroke_e	e	n/a
109.772	0.032	219544	keystroke_s	s	n/a
109.8875	0.08	219775	keystroke_s	s	n/a
110.196	0.028	220392	keystroke_a	a	n/a
110.256	0.1755	220512	keystroke_g	g	n/a
110.3275	0.184	220655	keystroke_e	e	n/a
110.567	0.096	221134	keystroke_Key.space	Key.space	n/a
110.919	0.0595	221838	keystroke_s	s	n/a
110.9865	0.068	221973	keystroke_p	p	n/a
111.0755	0.0625	222151	keystroke_e	e	n/a
111.2175	0.104	222435	keystroke_c	c	n/a
111.403	0.096	222806	keystroke_i	i	n/a
112.73	0.1635	225460	keystroke_a	a	n/a
112.8855	0.232	225771	keystroke_l	l	n/a
113.0315	0.118	226063	keystroke_i	i	n/a
113.1495	0.139	226299	keystroke_t	t	n/a
113.208	0.096	226416	keystroke_e	e	n/a
113.778	0.08	227556	keystroke_Key.backspace	Key.backspace	n/a
114.058	0.08	228116	keystroke_i	i	n/a
114.194	0.08	228388	keystroke_e	e	n/a
114.3935	0.111	228787	keystroke_s	s	n/a
114.5375	0.058	229075	keystroke_Key.space	Key.space	n/a
114.6285	0.0395	229257	keystroke_d	d	n/a
114.6435	0.0725	229287	keystroke_e	e	n/a
114.8035	0.096	229607	keystroke_f	f	n/a
114.98	0.0585	229960	keystroke_f	f	n/a
115.007	0.1375	230014	keystroke_e	e	n/a
115.1125	0.1235	230225	keystroke_r	r	n/a
115.18	0.132	230360	keystroke_e	e	n/a
115.3915	0.136	230783	keystroke_d	d	n/a
115.5595	0.097	231119	keystroke_Key.space	Key.space	n/a
115.9365	0.16	231873	keystroke_a	a	n/a
116.1605	0.0795	232321	keystroke_u	u	n/a
116.304	0.136	232608	keystroke_s	s	n/a
116.856	0.1045	233712	keystroke_t	t	n/a
117.0565	0.161	234113	keystroke_r	r	n/a
117.185	0.161	234370	keystroke_a	a	n/a
117.5225	0.08	235045	keystroke_b	b	n/a
117.9485	0.0725	235897	keystroke_Key.backspace	Key.backspace	n/a
118.181	0.1995	236362	keystroke_l	l	n/a
118.2445	0.152	236489	keystroke_i	i	n/a
118.4045	0.1605	236809	keystroke_a	a	n/a
118.557	0.088	237114	keystroke_Key.enter	Key.enter	n/a
118.6485	6.752	237297	prompt	n/a	suse section upset sports\n
119.2855	0.136	238571	keystroke_s	s	n/a
119.4375	0.0965	238875	keystroke_u	u	n/a
119.63	0.16	239260	keystroke_s	s	n/a
119.99	0.1595	239980	keystroke_e	e	n/a
120.2855	0.096	240571	keystroke_Key.space	Key.space	n/a
120.542	0.088	241084	keystroke_a	a	n/a
120.862	0.08	241724	keystroke_Key.backspace	Key.backspace	n/a
120.99	0.064	241980	keystroke_s	s	n/a
121.1425	0.096	242285	keystroke_e	e	n/a
121.3265	0.08	242653	keystroke_c	c	n/a
121.5505	0.1525	243101	keystroke_t	t	n/a
121.607	0.2	243214	keystroke_i	i	n/a
121.679	0.136	243358	keystroke_o	o	n/a
121.743	0.112	243486	keystroke_n	n	n/a
121.983	0.096	243966	keystroke_Key.space	Key.space	n/a
122.9585	0.096	245917	keystroke_u	u	n/a
123.231	0.12	246462	keystroke_p	p	n/a
123.8465	0.096	247693	keystroke_s	s	n/a
124.0305	0.16	248061	keystroke_e	e	n/a
124.1345	0.16	248269	keystroke_t	t	n/a
124.2705	0.0645	248541	keystroke_Key.space	Key.space	n/a
124.399	0.1515	248798	keystroke_s	s	n/a
124.5265	0.096	249053	keystroke_p	p	n/a
124.735	0.088	249470	keystroke_o	o	n/a
124.807	0.088	249614	keystroke_r	r	n/a
124.975	0.12	249950	keystroke_t	t	n/a
125.119	0.192	250238	keystroke_s	s	n/a
125.303	0.0965	250606	keystroke_Key.enter	Key.enter	n/a
125.403	7.493	250806	prompt	n/a	quilt ministry shooting swingers\n
126.4545	0.192	252909	keystroke_q	q	n/a
126.543	0.1995	253086	keystroke_u	u	n/a
126.6305	0.144	253261	keystroke_i	i	n/a
126.9265	0.152	253853	keystroke_l	l	n/a
127.199	0.176	254398	keystroke_t	t	n/a
127.4555	0.104	254911	keystroke_Key.space	Key.space	n/a
127.815	0.1205	255630	keystroke_m	m	n/a
128.0315	0.1515	256063	keystroke_i	i	n/a
128.3985	0.176	256797	keystroke_n	n	n/a
128.5185	0.1365	257037	keystroke_i	i	n/a
128.895	0.136	257790	keystroke_s	s	n/a
129.1355	0.104	258271	keystroke_t	t	n/a
129.335	0.112	258670	keystroke_r	r	n/a
129.5675	0.152	259135	keystroke_y	y	n/a
129.7755	0.072	259551	keystroke_Key.space	Key.space	n/a
130.0075	0.1685	260015	keystroke_s	s	n/a
130.12	0.12	260240	keystroke_h	h	n/a
130.192	0.1355	260384	keystroke_o	o	n/a
130.4475	0.1285	260895	keystroke_o	o	n/a
130.736	0.1675	261472	keystroke_t	t	n/a
130.8955	0.1525	261791	keystroke_i	i	n/a
131	0.12	262000	keystroke_n	n	n/a
131.104	0.112	262208	keystroke_g	g	n/a
131.3035	0.072	262607	keystroke_Key.space	Key.space	n/a
131.4715	0.112	262943	keystroke_s	s	n/a
131.696	0.112	263392	keystroke_w	w	n/a
131.8395	0.096	263679	keystroke_i	i	n/a
132.1115	0.1275	264223	keystroke_n	n	n/a
132.255	0.145	264510	keystroke_g	g	n/a
132.359	0.176	264718	keystroke_e	e	n/a
132.495	0.1515	264990	keystroke_r	r	n/a
132.6785	0.16	265357	keystroke_s	s	n/a
132.7905	0.1045	265581	keystroke_Key.enter	Key.enter	n/a
132.8985	4.4335	265797	prompt	n/a	will after merit atom\n
133.46	0.0815	266920	keystroke_w	w	n/a
133.502	0.0515	267004	keystroke_i	i	n/a
133.596	0.069	267192	keystroke_l	l	n/a
133.7205	0.1035	267441	keystroke_l	l	n/a
133.856	0.016	267712	keystroke_Key.space	Key.space	n/a
133.888	0.0995	267776	keystroke_a	a	n/a
133.952	0.0775	267904	keystroke_f	f	n/a
134.1295	0.096	268259	keystroke_t	t	n/a
134.1855	0.216	268371	keystroke_e	e	n/a
134.3215	0.1285	268643	keystroke_r	r	n/a
134.3855	0.0965	268771	keystroke_Key.space	Key.space	n/a
134.5625	0.048	269125	keystroke_s	s	n/a
134.875	0.08	269750	keystroke_Key.backspace	Key.backspace	n/a
135.0985	0.1205	270197	keystroke_m	m	n/a
135.211	0.168	270422	keystroke_e	e	n/a
135.307	0.12	270614	keystroke_r	r	n/a
135.5705	0.08	271141	keystroke_i	i	n/a
135.747	0.176	271494	keystroke_t	t	n/a
136.011	0.0875	272022	keystroke_Key.space	Key.space	n/a
136.6025	0.176	273205	keystroke_a	a	n/a
136.7945	0.1605	273589	keystroke_t	t	n/a
136.8665	0.1765	273733	keystroke_o	o	n/a
136.987	0.1275	273974	keystroke_m	m	n/a
137.2025	0.1285	274405	keystroke_Key.enter	Key.enter	n/a
137.3345	6.2635	274669	prompt	n/a	investments inside growing memphis\n
137.833	0.104	275666	keystroke_i	i	n/a
137.897	0.0955	275794	keystroke_n	n	n/a
137.9835	0.137	275967	keystroke_v	v	n/a
138.0485	0.1375	276097	keystroke_e	e	n/a
138.29	0.08	276580	keystroke_s	s	n/a
138.434	0.176	276868	keystroke_t	t	n/a
138.65	0.104	277300	keystroke_m	m	n/a
138.834	0.1765	277668	keystroke_e	e	n/a
139.242	0.0965	278484	keystroke_n	n	n/a
139.627	0.1915	279254	keystroke_t	t	n/a
139.7385	0.16	279477	keystroke_s	s	n/a
139.9305	0.0965	279861	keystroke_Key.space	Key.space	n/a
140.147	0.1275	280294	keystroke_i	i	n/a
140.235	0.1115	280470	keystroke_n	n	n/a
140.4185	0.1525	280837	keystroke_s	s	n/a
140.4745	0.0965	280949	keystroke_i	i	n/a
140.659	0.2	281318	keystroke_d	d	n/a
140.747	0.2	281494	keystroke_e	e	n/a
141.051	0.088	282102	keystroke_Key.space	Key.space	n/a
141.436	0.016	282872	keystroke_g	g	n/a
141.4755	0.041	282951	keystroke_r	r	n/a
141.477	0.0755	282954	keystroke_o	o	n/a
141.592	0.076	283184	keystroke_w	w	n/a
141.66	0.112	283320	keystroke_i	i	n/a
141.748	0.0795	283496	keystroke_n	n	n/a
141.8035	0.1465	283607	keystroke_g	g	n/a
141.966	0.112	283932	keystroke_Key.space	Key.space	n/a
142.422	0.08	284844	keystroke_m	m	n/a
142.566	0.1515	285132	keystroke_e	e	n/a
142.6695	0.096	285339	keystroke_m	m	n/a
143.017	0.0835	286034	keystroke_p	p	n/a
143.1595	0.108	286319	keystroke_h	h	n/a
143.252	0.0715	286504	keystroke_i	i	n/a
143.3395	0.1655	286679	keystroke_s	s	n/a
143.513	0.084	287026	keystroke_Key.enter	Key.enter	n/a
143.6005	5.227	287201	prompt	n/a	communications wish nervous choose\n
144.2165	0.16	288433	keystroke_c	c	n/a
144.2965	0.128	288593	keystroke_o	o	n/a
144.4805	0.1125	288961	keystroke_m	m	n/a
144.6565	0.095	289313	keystroke_m	m	n/a
144.8355	0.016	289671	keystroke_u	u	n/a
144.867	0.056	289734	keystroke_n	n	n/a
144.8835	0.099	289767	keystroke_i	i	n/a
144.951	0.153	289902	keystroke_c	c	n/a
145.0465	0.1615	290093	keystroke_a	a	n/a
145.2635	0.072	290527	keystroke_t	t	n/a
145.3075	0.1395	290615	keystroke_i	i	n/a
145.3275	0.1595	290655	keystroke_o	o	n/a
145.3835	0.1435	290767	keystroke_n	n	n/a
145.527	0.145	291054	keystroke_s	s	n/a
145.656	0.072	291312	keystroke_Key.space	Key.space	n/a
145.912	0.1445	291824	keystroke_w	w	n/a
146.0485	0.1115	292097	keystroke_i	i	n/a
146.248	0.2	292496	keystroke_s	s	n/a
146.376	0.088	292752	keystroke_h	h	n/a
146.623	0.0885	293246	keystroke_Key.space	Key.space	n/a
146.8475	0.048	293695	keystroke_n	n	n/a
146.8905	0.1795	293781	keystroke_e	e	n/a
146.9665	0.1275	293933	keystroke_r	r	n/a
147.2395	0.1635	294479	keystroke_v	v	n/a
147.395	0.248	294790	keystroke_o	o	n/a
147.531	0.104	295062	keystroke_u	u	n/a
147.691	0.152	295382	keystroke_s	s	n/a
147.827	0.088	295654	keystroke_Key.space	Key.space	n/a
147.9865	0.1035	295973	keystroke_c	c	n/a
148.0795	0.0825	296159	keystroke_h	h	n/a
148.114	0.1315	296228	keystroke_o	o	n/a
148.3385	0.0415	296677	keystroke_o	o	n/a
148.4665	0.096	296933	keystroke_s	s	n/a
148.6505	0.152	297301	keystroke_e	e	n/a
148.7625	0.0635	297525	keystroke_Key.enter	Key.enter	n/a
148.8325	3.5235	297665	prompt	n/a	bend immune info bugs\n
149.418	0.088	298836	keystroke_b	b	n/a
149.514	0.1275	299028	keystroke_e	e	n/a
149.6335	0.0875	299267	keystroke_n	n	n/a
149.7685	0.0635	299537	keystroke_d	d	n/a
149.8435	0.012	299687	keystroke_Key.space	Key.space	n/a
150.053	0.0705	300106	keystroke_i	i	n/a
150.18	0.0795	300360	keystroke_m	m	n/a
150.2755	0.06	300551	keystroke_m	m	n/a
150.415	0.0975	300830	keystroke_u	u	n/a
150.5285	0.0435	301057	keystroke_n	n	n/a
150.5835	0.1	301167	keystroke_e	e	n/a
150.6915	0.0475	301383	keystroke_Key.space	Key.space	n/a
150.878	0.0475	301756	keystroke_i	i	n/a
150.9035	0.0925	301807	keystroke_n	n	n/a
151.0315	0.072	302063	keystroke_f	f	n/a
151.1035	0.036	302207	keystroke_o	o	n/a
151.387	0.096	302774	keystroke_Key.space	Key.space	n/a
151.827	0.08	303654	keystroke_b	b	n/a
151.883	0.12	303766	keystroke_u	u	n/a
152.011	0.2565	304022	keystroke_g	g	n/a
152.1555	0.1835	304311	keystroke_s	s	n/a
152.2515	0.1035	304503	keystroke_Key.enter	Key.enter	n/a
152.359	5.425	304718	prompt	n/a	neil strong albania msgid\n
152.953	0.0805	305906	keystroke_n	n	n/a
153.0905	0.216	306181	keystroke_e	e	n/a
153.2825	0.192	306565	keystroke_i	i	n/a
153.5465	0.104	307093	keystroke_l	l	n/a
153.923	0.104	307846	keystroke_Key.space	Key.space	n/a
154.4175	0.0505	308835	keystroke_s	s	n/a
154.5295	0.1125	309059	keystroke_t	t	n/a
154.738	0.136	309476	keystroke_r	r	n/a
155.0495	0.144	310099	keystroke_o	o	n/a
155.1535	0.1205	310307	keystroke_n	n	n/a
155.266	0.128	310532	keystroke_g	g	n/a
155.442	0.0965	310884	keystroke_Key.space	Key.space	n/a
155.827	0.192	311654	keystroke_a	a	n/a
156.1145	0.111	312229	keystroke_l	l	n/a
156.2995	0.008	312599	keystroke_b	b	n/a
156.308	0.0795	312616	keystroke_a	a	n/a
156.3595	0.072	312719	keystroke_n	n	n/a
156.4615	0.0995	312923	keystroke_i	i	n/a
156.5795	0.0645	313159	keystroke_a	a	n/a
156.81	0.092	313620	keystroke_Key.space	Key.space	n/a
157.196	0.1045	314392	keystroke_m	m	n/a
157.389	0.087	314778	keystroke_s	s	n/a
157.5	0.0675	315000	keystroke_g	g	n/a
157.5755	0.048	315151	keystroke_i	i	n/a
157.6675	0.0675	315335	keystroke_d	d	n/a
157.719	0.064	315438	keystroke_Key.enter	Key.enter	n/a
157.787	7.708	315574	prompt	n/a	affiliated pantyhose literacy rule\n
159.4025	0.1515	318805	keystroke_a	a	n/a
159.6905	0.064	319381	keystroke_f	f	n/a
159.883	0.127	319766	keystroke_f	f	n/a
160.1625	0.088	320325	keystroke_i	i	n/a
160.371	0.1035	320742	keystroke_l	l	n/a
160.6345	0.1205	321269	keystroke_i	i	n/a
160.779	0.1125	321558	keystroke_a	a	n/a
160.9715	0.135	321943	keystroke_t	t	n/a
161.0345	0.104	322069	keystroke_e	e	n/a
161.243	0.152	322486	keystroke_d	d	n/a
161.347	0.088	322694	keystroke_Key.space	Key.space	n/a
161.562	0.0805	323124	keystroke_p	p	n/a
161.8985	0.1435	323797	keystroke_a	a	n/a
162.034	0.112	324068	keystroke_n	n	n/a
162.202	0.1125	324404	keystroke_t	t	n/a
162.4265	0.1205	324853	keystroke_y	y	n/a
162.6745	0.16	325349	keystroke_h	h	n/a
162.7705	0.1525	325541	keystroke_o	o	n/a
162.8585	0.0885	325717	keystroke_s	s	n/a
163.035	0.1435	326070	keystroke_e	e	n/a
163.2665	0.0795	326533	keystroke_Key.space	Key.space	n/a
163.45	0.1035	326900	keystroke_l	l	n/a
163.6195	0.0905	327239	keystroke_i	i	n/a
163.742	0.12	327484	keystroke_t	t	n/a
163.814	0.1845	327628	keystroke_e	e	n/a
163.958	0.1365	327916	keystroke_r	r	n/a
164.1025	0.1275	328205	keystroke_a	a	n/a
164.342	0.0965	328684	keystroke_c	c	n/a
164.5745	0.1195	329149	keystroke_y	y	n/a
164.734	0.0885	329468	keystroke_Key.space	Key.space	n/a
164.9105	0.1525	329821	keystroke_r	r	n/a
165.0145	0.0885	330029	keystroke_u	u	n/a
165.1905	0.096	330381	keystroke_l	l	n/a
165.2705	0.12	330541	keystroke_e	e	n/a
165.406	0.088	330812	keystroke_Key.enter	Key.enter	n/a
165.4975	7.7045	330995	prompt	n/a	jewel institute waves bikes\n
166.127	0.103	332254	keystroke_j	j	n/a
166.238	0.088	332476	keystroke_e	e	n/a
166.4305	0.104	332861	keystroke_w	w	n/a
166.9265	0.1525	333853	keystroke_e	e	n/a
167.111	0.064	334222	keystroke_l	l	n/a
167.3345	0.072	334669	keystroke_Key.space	Key.space	n/a
167.5585	0.152	335117	keystroke_i	i	n/a
167.6705	0.12	335341	keystroke_n	n	n/a
167.7905	0.096	335581	keystroke_s	s	n/a
167.9585	0.1765	335917	keystroke_t	t	n/a
168.127	0.08	336254	keystroke_i	i	n/a
168.295	0.1595	336590	keystroke_t	t	n/a
168.4385	0.0805	336877	keystroke_u	u	n/a
168.591	0.16	337182	keystroke_e	e	n/a
168.8475	0.087	337695	keystroke_Key.space	Key.space	n/a
169.4465	0.0795	338893	keystroke_Key.backspace	Key.backspace	n/a
169.63	0.064	339260	keystroke_Key.backspace	Key.backspace	n/a
169.806	0.104	339612	keystroke_Key.backspace	Key.backspace	n/a
170.646	0.0965	341292	keystroke_u	u	n/a
170.8305	0.1675	341661	keystroke_t	t	n/a
170.9025	0.1835	341805	keystroke_e	e	n/a
171.094	0.088	342188	keystroke_Key.space	Key.space	n/a
171.294	0.1285	342588	keystroke_w	w	n/a
171.3745	0.128	342749	keystroke_a	a	n/a
171.6215	0.1765	343243	keystroke_v	v	n/a
171.702	0.152	343404	keystroke_e	e	n/a
171.9665	0.136	343933	keystroke_s	s	n/a
172.1175	0.104	344235	keystroke_Key.space	Key.space	n/a
172.4055	0.1275	344811	keystroke_b	b	n/a
172.501	0.12	345002	keystroke_i	i	n/a
172.7415	0.1035	345483	keystroke_k	k	n/a
172.8295	0.0795	345659	keystroke_e	e	n/a
173.021	0.176	346042	keystroke_s	s	n/a
173.1085	0.0925	346217	keystroke_Key.enter	Key.enter	n/a
173.2045	6.553	346409	prompt	n/a	expanding extensive global airports\n
173.6795	0.096	347359	keystroke_e	e	n/a
173.8315	0.024	347663	keystroke_x	x	n/a
173.851	0.005	347702	keystroke_p	p	n/a
173.871	0.113	347742	keystroke_a	a	n/a
173.9465	0.068	347893	keystroke_n	n	n/a
174.1425	0.114	348285	keystroke_d	d	n/a
174.1585	0.178	348317	keystroke_i	i	n/a
174.2645	0.1355	348529	keystroke_n	n	n/a
174.4165	0.136	348833	keystroke_g	g	n/a
174.5205	0.0955	349041	keystroke_Key.space	Key.space	n/a
174.752	0.0875	349504	keystroke_e	e	n/a
174.92	0.051	349840	keystroke_x	x	n/a
175.051	0.16	350102	keystroke_t	t	n/a
175.131	0.153	350262	keystroke_e	e	n/a
175.26	0.112	350520	keystroke_n	n	n/a
175.428	0.1205	350856	keystroke_s	s	n/a
175.5485	0.064	351097	keystroke_i	i	n/a
175.6685	0.216	351337	keystroke_v	v	n/a
175.781	0.176	351562	keystroke_e	e	n/a
175.8925	0.1045	351785	keystroke_Key.space	Key.space	n/a
176.2615	0.1595	352523	keystroke_g	g	n/a
176.445	0.088	352890	keystroke_l	l	n/a
176.637	0.0885	353274	keystroke_o	o	n/a
176.861	0.096	353722	keystroke_b	b	n/a
176.997	0.136	353994	keystroke_a	a	n/a
177.093	0.064	354186	keystroke_l	l	n/a
177.277	0.0875	354554	keystroke_Key.space	Key.space	n/a
177.3965	0.072	354793	keystroke_e	e	n/a
177.6925	0.072	355385	keystroke_Key.backspace	Key.backspace	n/a
177.8765	0.136	355753	keystroke_a	a	n/a
178.0685	0.048	356137	keystroke_i	i	n/a
178.4525	0.136	356905	keystroke_r	r	n/a
178.693	0.072	357386	keystroke_p	p	n/a
178.893	0.063	357786	keystroke_o	o	n/a
179.1085	0.088	358217	keystroke_r	r	n/a
179.3085	0.16	358617	keystroke_t	t	n/a
179.445	0.1515	358890	keystroke_s	s	n/a
179.6605	0.096	359321	keystroke_Key.enter	Key.enter	n/a
179.76	6.5855	359520	prompt	n/a	pickup object purple financial\n
180.3805	0.0965	360761	keystroke_p	p	n/a
180.5725	0.088	361145	keystroke_i	i	n/a
180.6685	0.1285	361337	keystroke_c	c	n/a
180.805	0.1115	361610	keystroke_k	k	n/a
181.156	0.144	362312	keystroke_u	u	n/a
181.236	0.1595	362472	keystroke_p	p	n/a
181.5635	0.1045	363127	keystroke_Key.space	Key.space	n/a
182.06	0.144	364120	keystroke_o	o	n/a
182.212	0.0965	364424	keystroke_b	b	n/a
182.4285	0.096	364857	keystroke_j	j	n/a
182.5165	0.184	365033	keystroke_e	e	n/a
182.6685	0.08	365337	keystroke_c	c	n/a
182.876	0.144	365752	keystroke_t	t	n/a
183.044	0.088	366088	keystroke_Key.space	Key.space	n/a
183.3	0.112	366600	keystroke_p	p	n/a
183.5155	0.104	367031	keystroke_u	u	n/a
183.6035	0.132	367207	keystroke_r	r	n/a
183.848	0.08	367696	keystroke_p	p	n/a
184.048	0.064	368096	keystroke_l	l	n/a
184.152	0.16	368304	keystroke_e	e	n/a
184.448	0.0795	368896	keystroke_Key.space	Key.space	n/a
184.623	0.065	369246	keystroke_f	f	n/a
184.687	0.0795	369374	keystroke_i	i	n/a
184.792	0.0955	369584	keystroke_n	n	n/a
184.9595	0.144	369919	keystroke_a	a	n/a
185.0875	0.096	370175	keystroke_n	n	n/a
185.1915	0.112	370383	keystroke_c	c	n/a
185.3115	0.072	370623	keystroke_i	i	n/a
185.4395	0.1445	370879	keystroke_a	a	n/a
185.504	0.064	371008	keystroke_l	l	n/a
185.72	0.152	371440	keystroke_s	s	n/a
186.048	0.056	372096	keystroke_Key.backspace	Key.backspace	n/a
186.248	0.0965	372496	keystroke_Key.enter	Key.enter	n/a
186.3485	6.573	372697	prompt	n/a	strategy conferences richmond gays\n
186.999	0.0955	373998	keystroke_s	s	n/a
187.199	0.088	374398	keystroke_t	t	n/a
187.375	0.128	374750	keystroke_r	r	n/a
187.439	0.136	374878	keystroke_a	a	n/a
187.615	0.1685	375230	keystroke_t	t	n/a
187.7035	0.136	375407	keystroke_e	e	n/a
187.9275	0.096	375855	keystroke_g	g	n/a
188.144	0.152	376288	keystroke_y	y	n/a
188.272	0.104	376544	keystroke_Key.space	Key.space	n/a
188.5995	0.144	377199	keystroke_c	c	n/a
188.6955	0.1435	377391	keystroke_o	o	n/a
188.7595	0.1355	377519	keystroke_n	n	n/a
188.863	0.1115	377726	keystroke_f	f	n/a
188.9905	0.169	377981	keystroke_e	e	n/a
189.1355	0.1835	378271	keystroke_r	r	n/a
189.255	0.16	378510	keystroke_e	e	n/a
189.399	0.088	378798	keystroke_n	n	n/a
189.6065	0.1765	379213	keystroke_c	c	n/a
189.687	0.16	379374	keystroke_e	e	n/a
190.2705	0.1195	380541	keystroke_Key.space	Key.space	n/a
190.489	0.052	380978	keystroke_r	r	n/a
190.525	0.051	381050	keystroke_i	i	n/a
190.7325	0.146	381465	keystroke_c	c	n/a
190.8865	0.104	381773	keystroke_h	h	n/a
191.2715	0.152	382543	keystroke_m	m	n/a
191.4155	0.2165	382831	keystroke_o	o	n/a
191.616	0.128	383232	keystroke_n	n	n/a
191.7925	0.136	383585	keystroke_d	d	n/a
191.8965	0.096	383793	keystroke_Key.space	Key.space	n/a
192.1525	0.152	384305	keystroke_g	g	n/a
192.2565	0.1515	384513	keystroke_a	a	n/a
192.513	0.095	385026	keystroke_y	y	n/a
192.7285	0.104	385457	keystroke_s	s	n/a
192.8405	0.0795	385681	keystroke_Key.enter	Key.enter	n/a
192.9245	7.5105	385849	prompt	n/a	functionality effort stake lined\n
193.53	0.1515	387060	keystroke_f	f	n/a
193.617	0.1205	387234	keystroke_u	u	n/a
193.7295	0.153	387459	keystroke_n	n	n/a
193.8495	0.0875	387699	keystroke_c	c	n/a
194.1135	0.1285	388227	keystroke_t	t	n/a
194.1375	0.1925	388275	keystroke_i	i	n/a
194.2175	0.1205	388435	keystroke_o	o	n/a
194.2255	0.1615	388451	keystroke_n	n	n/a
194.378	0.1515	388756	keystroke_a	a	n/a
194.5375	0.088	389075	keystroke_l	l	n/a
194.7535	0.0965	389507	keystroke_i	i	n/a
194.851	0.1185	389702	keystroke_t	t	n/a
195.1775	0.1365	390355	keystroke_y	y	n/a
195.33	0.096	390660	keystroke_Key.space	Key.space	n/a
195.53	0.128	391060	keystroke_e	e	n/a
195.722	0.0725	391444	keystroke_f	f	n/a
195.8825	0.112	391765	keystroke_f	f	n/a
195.9705	0.111	391941	keystroke_o	o	n/a
196.226	0.112	392452	keystroke_r	r	n/a
196.6575	0.112	393315	keystroke_t	t	n/a
196.8735	0.0965	393747	keystroke_Key.space	Key.space	n/a
197.042	0.0955	394084	keystroke_s	s	n/a
197.306	0.192	394612	keystroke_t	t	n/a
197.45	0.1685	394900	keystroke_a	a	n/a
197.6105	0.1115	395221	keystroke_b	b	n/a
197.8905	0.104	395781	keystroke_k	k	n/a
198.0425	0.056	396085	keystroke_e	e	n/a
198.218	0.08	396436	keystroke_Key.backspace	Key.backspace	n/a
198.394	0.072	396788	keystroke_Key.backspace	Key.backspace	n/a
198.53	0.064	397060	keystroke_Key.backspace	Key.backspace	n/a
198.786	0.096	397572	keystroke_k	k	n/a
198.906	0.1605	397812	keystroke_e	e	n/a
199.0585	0.088	398117	keystroke_Key.space	Key.space	n/a
199.322	0.1935	398644	keystroke_l	l	n/a
199.41	0.1525	398820	keystroke_i	i	n/a
199.5225	0.112	399045	keystroke_n	n	n/a
199.6265	0.072	399253	keystroke_e	e	n/a
199.81	0.088	399620	keystroke_s	s	n/a
200.106	0.0635	400212	keystroke_Key.backspace	Key.backspace	n/a
200.2335	0.136	400467	keystroke_d	d	n/a
200.3535	0.08	400707	keystroke_Key.enter	Key.enter	n/a
200.438	7.69	400876	prompt	n/a	techrepublic sara tooth watched\n
201.186	0.176	402372	keystroke_t	t	n/a
201.2265	0.1915	402453	keystroke_e	e	n/a
201.6265	0.184	403253	keystroke_c	c	n/a
201.882	0.112	403764	keystroke_h	h	n/a
202.3305	0.1995	404661	keystroke_r	r	n/a
202.45	0.1365	404900	keystroke_e	e	n/a
202.5785	0.104	405157	keystroke_p	p	n/a
203.002	0.1045	406004	keystroke_u	u	n/a
203.1945	0.1285	406389	keystroke_b	b	n/a
203.331	0.199	406662	keystroke_l	l	n/a
203.4105	0.128	406821	keystroke_i	i	n/a
203.5705	0.1765	407141	keystroke_c	c	n/a
203.7385	0.1045	407477	keystroke_Key.space	Key.space	n/a
203.986	0.2005	407972	keystroke_s	s	n/a
204.1785	0.184	408357	keystroke_a	a	n/a
204.458	0.2075	408916	keystroke_r	r	n/a
204.562	0.1715	409124	keystroke_a	a	n/a
204.7975	0.1035	409595	keystroke_Key.space	Key.space	n/a
205.182	0.168	410364	keystroke_t	t	n/a
205.278	0.088	410556	keystroke_o	o	n/a
205.438	0.096	410876	keystroke_o	o	n/a
205.59	0.1685	411180	keystroke_t	t	n/a
205.702	0.0885	411404	keystroke_h	h	n/a
205.9425	0.0875	411885	keystroke_Key.space	Key.space	n/a
206.134	0.2005	412268	keystroke_w	w	n/a
206.3745	0.1605	412749	keystroke_a	a	n/a
206.6065	0.144	413213	keystroke_t	t	n/a
206.839	0.104	413678	keystroke_h	h	n/a
207.2465	0.0885	414493	keystroke_Key.backspace	Key.backspace	n/a
207.407	0.1675	414814	keystroke_c	c	n/a
207.511	0.0875	415022	keystroke_h	h	n/a
207.7665	0.0965	415533	keystroke_e	e	n/a
207.951	0.1515	415902	keystroke_d	d	n/a
208.047	0.0795	416094	keystroke_Key.enter	Key.enter	n/a
208.131	6.9135	416262	prompt	n/a	managers their years contributor\n
208.7585	0.08	417517	keystroke_m	m	n/a
208.8945	0.0885	417789	keystroke_a	a	n/a
208.959	0.088	417918	keystroke_n	n	n/a
209.071	0.0875	418142	keystroke_a	a	n/a
209.1985	0.128	418397	keystroke_g	g	n/a
209.2865	0.1525	418573	keystroke_e	e	n/a
209.44	0.151	418880	keystroke_r	r	n/a
209.567	0.1675	419134	keystroke_s	s	n/a
209.7185	0.072	419437	keystroke_Key.space	Key.space	n/a
209.999	0.152	419998	keystroke_t	t	n/a
210.111	0.088	420222	keystroke_h	h	n/a
210.159	0.1835	420318	keystroke_e	e	n/a
210.3825	0.0645	420765	keystroke_i	i	n/a
210.511	0.176	421022	keystroke_r	r	n/a
210.679	0.0875	421358	keystroke_Key.space	Key.space	n/a
211.319	0.088	422638	keystroke_y	y	n/a
211.4235	0.264	422847	keystroke_e	e	n/a
211.5355	0.144	423071	keystroke_a	a	n/a
211.6315	0.1275	423263	keystroke_r	r	n/a
211.839	0.1435	423678	keystroke_s	s	n/a
211.943	0.0955	423886	keystroke_Key.space	Key.space	n/a
212.172	0.1095	424344	keystroke_c	c	n/a
212.226	0.137	424452	keystroke_o	o	n/a
212.2895	0.1375	424579	keystroke_n	n	n/a
212.523	0.128	425046	keystroke_t	t	n/a
212.7315	0.1995	425463	keystroke_r	r	n/a
212.923	0.088	425846	keystroke_i	i	n/a
213.1715	0.152	426343	keystroke_b	b	n/a
213.2915	0.1275	426583	keystroke_u	u	n/a
213.6435	0.136	427287	keystroke_t	t	n/a
214.1235	0.064	428247	keystroke_Key.backspace	Key.backspace	n/a
214.5475	0.12	429095	keystroke_t	t	n/a
214.6595	0.0885	429319	keystroke_o	o	n/a
214.772	0.128	429544	keystroke_r	r	n/a
214.9475	0.096	429895	keystroke_Key.enter	Key.enter	n/a
215.0475	8.013	430095	prompt	n/a	soldier suddenly standards through\n
215.6835	0.1995	431367	keystroke_s	s	n/a
215.9145	0.044	431829	keystroke_o	o	n/a
216.015	0.096	432030	keystroke_l	l	n/a
216.287	0.136	432574	keystroke_d	d	n/a
216.439	0.0805	432878	keystroke_i	i	n/a
216.583	0.1525	433166	keystroke_e	e	n/a
216.7435	0.192	433487	keystroke_r	r	n/a
216.9595	0.0955	433919	keystroke_Key.space	Key.space	n/a
217.1595	0.16	434319	keystroke_s	s	n/a
217.2715	0.08	434543	keystroke_u	u	n/a
217.544	0.095	435088	keystroke_d	d	n/a
217.727	0.127	435454	keystroke_d	d	n/a
217.862	0.066	435724	keystroke_e	e	n/a
217.92	0.02	435840	keystroke_n	n	n/a
218.01	0.1115	436020	keystroke_l	l	n/a
218.162	0.129	436324	keystroke_y	y	n/a
218.299	0.1125	436598	keystroke_Key.space	Key.space	n/a
218.4915	0.112	436983	keystroke_s	s	n/a
218.6515	0.152	437303	keystroke_t	t	n/a
218.7475	0.192	437495	keystroke_a	a	n/a
218.9155	0.096	437831	keystroke_n	n	n/a
219.0355	0.1605	438071	keystroke_d	d	n/a
219.172	0.2075	438344	keystroke_a	a	n/a
219.3475	0.144	438695	keystroke_r	r	n/a
219.612	0.247	439224	keystroke_d	d	n/a
219.7	0.191	439400	keystroke_s	s	n/a
219.963	0.112	439926	keystroke_Key.space	Key.space	n/a
220.355	0.1925	440710	keystroke_t	t	n/a
220.5075	0.136	441015	keystroke_h	h	n/a
220.5795	0.2315	441159	keystroke_o	o	n/a
220.6675	0.1355	441335	keystroke_u	u	n/a
220.764	0.1195	441528	keystroke_r	r	n/a
221.1555	0.0965	442311	keystroke_Key.backspace	Key.backspace	n/a
221.3555	0.072	442711	keystroke_Key.backspace	Key.backspace	n/a
221.5315	0.096	443063	keystroke_Key.backspace	Key.backspace	n/a
222.116	0.152	444232	keystroke_r	r	n/a
222.316	0.1675	444632	keystroke_o	o	n/a
222.3955	0.104	444791	keystroke_u	u	n/a
222.628	0.144	445256	keystroke_g	g	n/a
222.732	0.096	445464	keystroke_h	h	n/a
222.9555	0.104	445911	keystroke_Key.enter	Key.enter	n/a
223.0655	5.714	446131	prompt	n/a	lenses asin bass consecutive\n
223.6995	0.028	447399	keystroke_l	l	n/a
223.7375	0.042	447475	keystroke_e	e	n/a
223.7735	0.018	447547	keystroke_n	n	n/a
223.873	0.052	447746	keystroke_s	s	n/a
224.023	0.045	448046	keystroke_e	e	n/a
224.1785	0.1115	448357	keystroke_s	s	n/a
224.258	0.104	448516	keystroke_Key.space	Key.space	n/a
224.591	0.1755	449182	keystroke_a	a	n/a
224.9265	0.16	449853	keystroke_s	s	n/a
225.1105	0.083	450221	keystroke_i	i	n/a
225.18	0.0535	450360	keystroke_n	n	n/a
225.317	0.032	450634	keystroke_Key.space	Key.space	n/a
225.493	0.082	450986	keystroke_b	b	n/a
225.615	0.16	451230	keystroke_a	a	n/a
225.735	0.104	451470	keystroke_s	s	n/a
225.935	0.168	451870	keystroke_s	s	n/a
226.159	0.096	452318	keystroke_Key.space	Key.space	n/a
226.663	0.16	453326	keystroke_c	c	n/a
226.775	0.128	453550	keystroke_o	o	n/a
226.815	0.144	453630	keystroke_n	n	n/a
226.943	0.0795	453886	keystroke_s	s	n/a
227.1185	0.0915	454237	keystroke_e	e	n/a
227.7545	0.1845	455509	keystroke_c	c	n/a
227.915	0.12	455830	keystroke_u	u	n/a
228.2025	0.1285	456405	keystroke_t	t	n/a
228.2985	0.0805	456597	keystroke_i	i	n/a
228.467	0.1515	456934	keystroke_v	v	n/a
228.539	0.176	457078	keystroke_e	e	n/a
228.6825	0.0965	457365	keystroke_Key.enter	Key.enter	n/a
228.7835	5.4285	457567	prompt	n/a	faces printed still indicator\n
229.31	0.112	458620	keystroke_f	f	n/a
229.39	0.1275	458780	keystroke_a	a	n/a
229.5575	0.169	459115	keystroke_c	c	n/a
229.6785	0.104	459357	keystroke_e	e	n/a
229.886	0.16	459772	keystroke_s	s	n/a
230.03	0.0885	460060	keystroke_Key.space	Key.space	n/a
230.2945	0.104	460589	keystroke_p	p	n/a
230.4465	0.128	460893	keystroke_r	r	n/a
230.5105	0.152	461021	keystroke_i	i	n/a
230.6145	0.144	461229	keystroke_n	n	n/a
230.6865	0.152	461373	keystroke_t	t	n/a
230.7825	0.096	461565	keystroke_e	e	n/a
230.9745	0.136	461949	keystroke_d	d	n/a
231.0865	0.0885	462173	keystroke_Key.space	Key.space	n/a
231.223	0.04	462446	keystroke_w	w	n/a
231.4225	0.128	462845	keystroke_s	s	n/a
231.639	0.072	463278	keystroke_Key.backspace	Key.backspace	n/a
231.8145	0.088	463629	keystroke_Key.backspace	Key.backspace	n/a
231.9505	0.1045	463901	keystroke_s	s	n/a
232.103	0.1685	464206	keystroke_t	t	n/a
232.183	0.1275	464366	keystroke_i	i	n/a
232.2945	0.0725	464589	keystroke_l	l	n/a
232.455	0.088	464910	keystroke_l	l	n/a
232.6715	0.104	465343	keystroke_Key.space	Key.space	n/a
232.902	0.1335	465804	keystroke_i	i	n/a
233.0135	0.042	466027	keystroke_n	n	n/a
233.056	0.073	466112	keystroke_d	d	n/a
233.137	0.072	466274	keystroke_i	i	n/a
233.305	0.1055	466610	keystroke_c	c	n/a
233.3625	0.136	466725	keystroke_a	a	n/a
233.6185	0.1605	467237	keystroke_t	t	n/a
233.8345	0.104	467669	keystroke_o	o	n/a
233.9305	0.1445	467861	keystroke_r	r	n/a
234.107	0.104	468214	keystroke_Key.enter	Key.enter	n/a
234.2145	6.6855	468429	prompt	n/a	stable expectations overall sites\n
235.091	0.1125	470182	keystroke_s	s	n/a
235.3315	0.1835	470663	keystroke_t	t	n/a
235.411	0.2085	470822	keystroke_a	a	n/a
235.6195	0.144	471239	keystroke_b	b	n/a
235.7235	0.12	471447	keystroke_l	l	n/a
235.8355	0.1595	471671	keystroke_e	e	n/a
236.0675	0.096	472135	keystroke_Key.space	Key.space	n/a
236.2115	0.08	472423	keystroke_e	e	n/a
236.419	0.0885	472838	keystroke_x	x	n/a
236.467	0.0805	472934	keystroke_p	p	n/a
236.6195	0.128	473239	keystroke_a	a	n/a
237.0515	0.088	474103	keystroke_Key.backspace	Key.backspace	n/a
237.1875	0.2155	474375	keystroke_e	e	n/a
237.3555	0.0955	474711	keystroke_c	c	n/a
237.5875	0.128	475175	keystroke_t	t	n/a
237.756	0.1275	475512	keystroke_a	a	n/a
237.9635	0.168	475927	keystroke_t	t	n/a
238.0275	0.2245	476055	keystroke_i	i	n/a
238.1075	0.1525	476215	keystroke_o	o	n/a
238.1635	0.1525	476327	keystroke_n	n	n/a
238.308	0.1835	476616	keystroke_s	s	n/a
238.4515	0.096	476903	keystroke_Key.space	Key.space	n/a
238.7555	0.1115	477511	keystroke_o	o	n/a
238.883	0.128	477766	keystroke_v	v	n/a
238.963	0.1915	477926	keystroke_e	e	n/a
239.1625	0.176	478325	keystroke_r	r	n/a
239.715	0.152	479430	keystroke_a	a	n/a
239.827	0.064	479654	keystroke_l	l	n/a
239.955	0.08	479910	keystroke_l	l	n/a
240.131	0.088	480262	keystroke_Key.space	Key.space	n/a
240.243	0.104	480486	keystroke_s	s	n/a
240.363	0.08	480726	keystroke_i	i	n/a
240.483	0.136	480966	keystroke_t	t	n/a
240.539	0.112	481078	keystroke_e	e	n/a
240.7635	0.128	481527	keystroke_s	s	n/a
240.8115	0.087	481623	keystroke_Key.enter	Key.enter	n/a
240.903	7.8125	481806	prompt	n/a	explained poems hypothesis informational\n
241.763	0.0795	483526	keystroke_e	e	n/a
241.9865	0.088	483973	keystroke_x	x	n/a
242.0505	0.0885	484101	keystroke_p	p	n/a
242.283	0.136	484566	keystroke_l	l	n/a
242.635	0.1755	485270	keystroke_a	a	n/a
242.7705	0.152	485541	keystroke_i	i	n/a
242.8665	0.1275	485733	keystroke_n	n	n/a
243.002	0.068	486004	keystroke_e	e	n/a
243.1665	0.152	486333	keystroke_d	d	n/a
243.2455	0.08	486491	keystroke_Key.space	Key.space	n/a
243.5825	0.088	487165	keystroke_p	p	n/a
243.7665	0.0965	487533	keystroke_o	o	n/a
243.879	0.12	487758	keystroke_e	e	n/a
244.111	0.1275	488222	keystroke_m	m	n/a
244.3265	0.128	488653	keystroke_s	s	n/a
244.5495	0.072	489099	keystroke_Key.space	Key.space	n/a
244.7985	0.128	489597	keystroke_h	h	n/a
244.9665	0.16	489933	keystroke_y	y	n/a
245.1425	0.096	490285	keystroke_p	p	n/a
245.3585	0.0965	490717	keystroke_o	o	n/a
245.567	0.136	491134	keystroke_t	t	n/a
245.743	0.128	491486	keystroke_h	h	n/a
245.927	0.128	491854	keystroke_e	e	n/a
246.367	0.128	492734	keystroke_s	s	n/a
246.527	0.0645	493054	keystroke_i	i	n/a
246.6155	0.128	493231	keystroke_s	s	n/a
246.806	0.089	493612	keystroke_Key.space	Key.space	n/a
246.9985	0.1195	493997	keystroke_i	i	n/a
247.0865	0.1035	494173	keystroke_n	n	n/a
247.2055	0.098	494411	keystroke_f	f	n/a
247.3035	0.0085	494607	keystroke_o	o	n/a
247.3275	0.0745	494655	keystroke_r	r	n/a
247.586	0.1035	495172	keystroke_m	m	n/a
247.7135	0.12	495427	keystroke_a	a	n/a
247.962	0.136	495924	keystroke_t	t	n/a
248.026	0.2005	496052	keystroke_i	i	n/a
248.122	0.1205	496244	keystroke_o	o	n/a
248.13	0.1525	496260	keystroke_n	n	n/a
248.3065	0.1275	496613	keystroke_a	a	n/a
248.426	0.064	496852	keystroke_l	l	n/a
248.6105	0.104	497221	keystroke_Key.enter	Key.enter	n/a
248.718	4.981	497436	prompt	n/a	bright little meyer marks\n
249.253	0.104	498506	keystroke_b	b	n/a
249.381	0.1045	498762	keystroke_r	r	n/a
249.4935	0.064	498987	keystroke_i	i	n/a
249.6055	0.08	499211	keystroke_g	g	n/a
249.6615	0.0795	499323	keystroke_h	h	n/a
249.781	0.136	499562	keystroke_t	t	n/a
250.15	0.1595	500300	keystroke_Key.space	Key.space	n/a
250.445	0.112	500890	keystroke_l	l	n/a
250.4695	0.0875	500939	keystroke_i	i	n/a
250.6515	0.049	501303	keystroke_t	t	n/a
250.7605	0.128	501521	keystroke_t	t	n/a
250.8325	0.08	501665	keystroke_l	l	n/a
250.9605	0.161	501921	keystroke_e	e	n/a
251.0975	0.072	502195	keystroke_Key.space	Key.space	n/a
251.3215	0.1125	502643	keystroke_m	m	n/a
251.442	0.1515	502884	keystroke_e	e	n/a
251.6735	0.1445	503347	keystroke_y	y	n/a
252.066	0.208	504132	keystroke_e	e	n/a
252.162	0.176	504324	keystroke_r	r	n/a
252.37	0.0805	504740	keystroke_Key.space	Key.space	n/a
252.554	0.128	505108	keystroke_m	m	n/a
252.674	0.248	505348	keystroke_a	a	n/a
253.05	0.176	506100	keystroke_r	r	n/a
253.314	0.0965	506628	keystroke_k	k	n/a
253.4745	0.1515	506949	keystroke_s	s	n/a
253.5945	0.1035	507189	keystroke_Key.enter	Key.enter	n/a
253.702	10.472	507404	prompt	n/a	launched leather you've properties\n
254.3375	0.064	508675	keystroke_i	i	n/a
254.5955	0.057	509191	keystroke_Key.backspace	Key.backspace	n/a
254.7895	0.12	509579	keystroke_l	l	n/a
254.9015	0.1765	509803	keystroke_a	a	n/a
255.078	0.08	510156	keystroke_u	u	n/a
255.366	0.168	510732	keystroke_c	c	n/a
255.494	0.104	510988	keystroke_h	h	n/a
256.2115	0.0485	512423	keystroke_Key.backspace	Key.backspace	n/a
256.324	0.004	512648	keystroke_n	n	n/a
256.369	0.08	512738	keystroke_Key.backspace	Key.backspace	n/a
256.5285	0.08	513057	keystroke_Key.backspace	Key.backspace	n/a
256.728	0.028	513456	keystroke_n	n	n/a
256.7955	0.1055	513591	keystroke_c	c	n/a
257.117	0.096	514234	keystroke_Key.backspace	Key.backspace	n/a
257.5415	0.0885	515083	keystroke_Key.backspace	Key.backspace	n/a
258.053	0.1595	516106	keystroke_c	c	n/a
258.1805	0.075	516361	keystroke_h	h	n/a
258.413	0.088	516826	keystroke_Key.backspace	Key.backspace	n/a
258.597	0.096	517194	keystroke_Key.backspace	Key.backspace	n/a
258.885	0.1045	517770	keystroke_n	n	n/a
259.0855	0.144	518171	keystroke_c	c	n/a
259.2215	0.08	518443	keystroke_h	h	n/a
259.748	0.0715	519496	keystroke_e	e	n/a
259.932	0.1645	519864	keystroke_d	d	n/a
260.0325	0.088	520065	keystroke_Key.space	Key.space	n/a
260.304	0.12	520608	keystroke_l	l	n/a
260.416	0.2565	520832	keystroke_e	e	n/a
260.505	0.1755	521010	keystroke_a	a	n/a
260.7125	0.1675	521425	keystroke_t	t	n/a
260.824	0.104	521648	keystroke_h	h	n/a
260.92	0.2405	521840	keystroke_e	e	n/a
261.0085	0.192	522017	keystroke_r	r	n/a
261.1685	0.088	522337	keystroke_Key.space	Key.space	n/a
261.604	0.0995	523208	keystroke_y	y	n/a
261.6955	0.1195	523391	keystroke_o	o	n/a
261.748	0.079	523496	keystroke_u	u	n/a
261.899	0.1435	523798	keystroke_'	'	n/a
262.268	0.2085	524536	keystroke_v	v	n/a
262.356	0.2005	524712	keystroke_e	e	n/a
262.5165	0.104	525033	keystroke_Key.space	Key.space	n/a
262.869	0.136	525738	keystroke_p	p	n/a
263.045	0.1515	526090	keystroke_r	r	n/a
263.125	0.0795	526250	keystroke_o	o	n/a
263.316	0.0915	526632	keystroke_p	p	n/a
263.4	0.088	526800	keystroke_e	e	n/a
263.472	0.056	526944	keystroke_r	r	n/a
263.568	0.132	527136	keystroke_t	t	n/a
263.6835	0.1045	527367	keystroke_i	i	n/a
263.812	0.056	527624	keystroke_e	e	n/a
263.988	0.1365	527976	keystroke_s	s	n/a
264.0765	0.096	528153	keystroke_Key.enter	Key.enter	n/a
264.1765	4.5195	528353	prompt	n/a	is mercury half expires\n
264.7405	0.088	529481	keystroke_i	i	n/a
264.8445	0.0965	529689	keystroke_s	s	n/a
264.973	0.064	529946	keystroke_Key.space	Key.space	n/a
265.173	0.0875	530346	keystroke_m	m	n/a
265.189	0.231	530378	keystroke_e	e	n/a
265.3325	0.167	530665	keystroke_r	r	n/a
265.667	0.0875	531334	keystroke_c	c	n/a
265.8365	0.0555	531673	keystroke_u	u	n/a
265.924	0.12	531848	keystroke_r	r	n/a
266.188	0.1365	532376	keystroke_y	y	n/a
266.3485	0.088	532697	keystroke_Key.space	Key.space	n/a
266.573	0.08	533146	keystroke_h	h	n/a
266.677	0.136	533354	keystroke_a	a	n/a
266.789	0.0715	533578	keystroke_l	l	n/a
266.9165	0.111	533833	keystroke_f	f	n/a
267.076	0.0155	534152	keystroke_Key.space	Key.space	n/a
267.159	0.041	534318	keystroke_e	e	n/a
267.2825	0.064	534565	keystroke_x	x	n/a
267.3115	0.0585	534623	keystroke_p	p	n/a
267.54	0.112	535080	keystroke_e	e	n/a
267.876	0.076	535752	keystroke_Key.backspace	Key.backspace	n/a
268.112	0.0875	536224	keystroke_i	i	n/a
268.284	0.132	536568	keystroke_r	r	n/a
268.3395	0.1225	536679	keystroke_e	e	n/a
268.5835	0.0605	537167	keystroke_s	s	n/a
268.675	0.021	537350	keystroke_Key.enter	Key.enter	n/a
268.699	6.3885	537398	prompt	n/a	diego signing alleged european\n
269.38	0.144	538760	keystroke_d	d	n/a
269.556	0.128	539112	keystroke_i	i	n/a
269.78	0.136	539560	keystroke_e	e	n/a
270.0595	0.0715	540119	keystroke_g	g	n/a
270.135	0.0205	540270	keystroke_o	o	n/a
270.2355	0.044	540471	keystroke_Key.space	Key.space	n/a
270.3505	0.1355	540701	keystroke_s	s	n/a
270.446	0.088	540892	keystroke_i	i	n/a
270.57	0.121	541140	keystroke_g	g	n/a
270.667	0.104	541334	keystroke_n	n	n/a
271.0065	0.1525	542013	keystroke_i	i	n/a
271.1105	0.1125	542221	keystroke_n	n	n/a
271.215	0.084	542430	keystroke_g	g	n/a
271.291	0.088	542582	keystroke_Key.space	Key.space	n/a
271.5625	0.1445	543125	keystroke_a	a	n/a
271.6825	0.0805	543365	keystroke_l	l	n/a
271.843	0.1195	543686	keystroke_l	l	n/a
271.9465	0.1915	543893	keystroke_e	e	n/a
272.451	0.152	544902	keystroke_g	g	n/a
272.531	0.136	545062	keystroke_e	e	n/a
272.771	0.152	545542	keystroke_d	d	n/a
272.891	0.096	545782	keystroke_Key.space	Key.space	n/a
273.363	0.2945	546726	keystroke_e	e	n/a
273.7475	0.044	547495	keystroke_u	u	n/a
273.974	0.1315	547948	keystroke_r	r	n/a
274.05	0.0875	548100	keystroke_o	o	n/a
274.2495	0.088	548499	keystroke_p	p	n/a
274.3895	0.2485	548779	keystroke_e	e	n/a
274.558	0.168	549116	keystroke_a	a	n/a
274.742	0.112	549484	keystroke_n	n	n/a
274.982	0.104	549964	keystroke_Key.enter	Key.enter	n/a
275.09	6.7095	550180	prompt	n/a	kerry maryland carried peoples\n
275.805	0.0785	551610	keystroke_k	k	n/a
275.893	0.028	551786	keystroke_e	e	n/a
276.0095	0.112	552019	keystroke_e	e	n/a
276.5495	0.0805	553099	keystroke_Key.backspace	Key.backspace	n/a
276.702	0.08	553404	keystroke_r	r	n/a
276.8705	0.08	553741	keystroke_r	r	n/a
277.0785	0.1445	554157	keystroke_y	y	n/a
277.279	0.104	554558	keystroke_Key.space	Key.space	n/a
277.7035	0.104	555407	keystroke_m	m	n/a
277.8235	0.1765	555647	keystroke_a	a	n/a
277.944	0.136	555888	keystroke_r	r	n/a
278.312	0.1685	556624	keystroke_y	y	n/a
278.5365	0.104	557073	keystroke_l	l	n/a
278.7125	0.128	557425	keystroke_a	a	n/a
278.8165	0.088	557633	keystroke_n	n	n/a
278.929	0.136	557858	keystroke_d	d	n/a
279.105	0.087	558210	keystroke_Key.space	Key.space	n/a
279.5025	0.0755	559005	keystroke_c	c	n/a
279.564	0.144	559128	keystroke_a	a	n/a
279.788	0.096	559576	keystroke_r	r	n/a
279.956	0.112	559912	keystroke_r	r	n/a
280.076	0.0875	560152	keystroke_i	i	n/a
280.1715	0.1045	560343	keystroke_e	e	n/a
280.38	0.128	560760	keystroke_d	d	n/a
280.484	0.1115	560968	keystroke_Key.space	Key.space	n/a
280.808	0.024	561616	keystroke_p	p	n/a
280.8875	0.0245	561775	keystroke_e	e	n/a
280.912	0.06	561824	keystroke_o	o	n/a
281.0775	0.044	562155	keystroke_p	p	n/a
281.25	0.034	562500	keystroke_l	l	n/a
281.311	0.08	562622	keystroke_e	e	n/a
281.5105	0.144	563021	keystroke_s	s	n/a
281.7025	0.096	563405	keystroke_Key.enter	Key.enter	n/a
281.802	5.394	563604	prompt	n/a	dressing lands packs premises\n
282.284	0.0875	564568	keystroke_d	d	n/a
282.431	0.1635	564862	keystroke_r	r	n/a
282.4945	0.14	564989	keystroke_e	e	n/a
282.7785	0.064	565557	keystroke_s	s	n/a
282.955	0.0955	565910	keystroke_s	s	n/a
283.0585	0.1355	566117	keystroke_i	i	n/a
283.162	0.0915	566324	keystroke_n	n	n/a
283.226	0.09	566452	keystroke_g	g	n/a
283.3375	0.0465	566675	keystroke_Key.space	Key.space	n/a
283.429	0.0775	566858	keystroke_l	l	n/a
283.5305	0.1195	567061	keystroke_a	a	n/a
283.666	0.0935	567332	keystroke_n	n	n/a
283.76	0.1	567520	keystroke_d	d	n/a
283.813	0.08	567626	keystroke_s	s	n/a
284.084	0.0735	568168	keystroke_Key.space	Key.space	n/a
284.2735	0.096	568547	keystroke_p	p	n/a
284.498	0.168	568996	keystroke_a	a	n/a
284.658	0.1365	569316	keystroke_c	c	n/a
284.8185	0.096	569637	keystroke_k	k	n/a
285.05	0.1685	570100	keystroke_s	s	n/a
285.2905	0.112	570581	keystroke_Key.space	Key.space	n/a
285.713	0.0545	571426	keystroke_p	p	n/a
285.769	0.1155	571538	keystroke_r	r	n/a
285.82	0.0835	571640	keystroke_e	e	n/a
285.9	0.072	571800	keystroke_m	m	n/a
286.044	0.1335	572088	keystroke_i	i	n/a
286.1455	0.088	572291	keystroke_s	s	n/a
286.9525	0.103	573905	keystroke_e	e	n/a
287.148	0.036	574296	keystroke_s	s	n/a
287.184	0.012	574368	keystroke_Key.enter	Key.enter	n/a
287.196	6.6365	574392	prompt	n/a	pubs heater douglas hash\n
287.709	0.112	575418	keystroke_p	p	n/a
287.933	0.136	575866	keystroke_u	u	n/a
288.061	0.1355	576122	keystroke_b	b	n/a
288.2845	0.136	576569	keystroke_s	s	n/a
288.5085	0.096	577017	keystroke_Key.space	Key.space	n/a
288.9675	0.084	577935	keystroke_h	h	n/a
289.0355	0.2325	578071	keystroke_e	e	n/a
289.1195	0.1405	578239	keystroke_a	a	n/a
289.244	0.192	578488	keystroke_t	t	n/a
289.42	0.336	578840	keystroke_e	e	n/a
289.5725	0.2155	579145	keystroke_r	r	n/a
289.8765	0.12	579753	keystroke_Key.space	Key.space	n/a
291.1325	0.184	582265	keystroke_d	d	n/a
291.2605	0.144	582521	keystroke_o	o	n/a
291.4765	0.1205	582953	keystroke_u	u	n/a
291.837	0.168	583674	keystroke_g	g	n/a
291.997	0.088	583994	keystroke_l	l	n/a
292.6835	0.1205	585367	keystroke_a	a	n/a
292.903	0.145	585806	keystroke_s	s	n/a
293.1	0.068	586200	keystroke_Key.space	Key.space	n/a
293.4155	0.1045	586831	keystroke_h	h	n/a
293.512	0.168	587024	keystroke_a	a	n/a
293.6	0.1355	587200	keystroke_s	s	n/a
293.7435	0.088	587487	keystroke_Key.enter	Key.enter	n/a
293.837	5.3265	587674	prompt	n/a	clara jazz frost jungle\n
294.6795	0.1515	589359	keystroke_c	c	n/a
294.815	0.08	589630	keystroke_l	l	n/a
294.935	0.136	589870	keystroke_a	a	n/a
295.119	0.248	590238	keystroke_r	r	n/a
295.319	0.216	590638	keystroke_a	a	n/a
295.591	0.088	591182	keystroke_Key.space	Key.space	n/a
295.79	0.0655	591580	keystroke_j	j	n/a
295.848	0.024	591696	keystroke_a	a	n/a
295.9275	0.0175	591855	keystroke_z	z	n/a
296.0405	0.0995	592081	keystroke_z	z	n/a
296.208	0.062	592416	keystroke_Key.space	Key.space	n/a
296.5655	0.121	593131	keystroke_r	r	n/a
296.83	0.08	593660	keystroke_Key.backspace	Key.backspace	n/a
296.934	0.096	593868	keystroke_f	f	n/a
297.118	0.104	594236	keystroke_r	r	n/a
297.182	0.12	594364	keystroke_o	o	n/a
297.3495	0.07	594699	keystroke_s	s	n/a
297.4655	0.107	594931	keystroke_t	t	n/a
297.5715	0.065	595143	keystroke_Key.space	Key.space	n/a
297.7335	0.076	595467	keystroke_j	j	n/a
297.8735	0.096	595747	keystroke_u	u	n/a
298.3695	0.064	596739	keystroke_n	n	n/a
298.6975	0.128	597395	keystroke_g	g	n/a
298.7775	0.088	597555	keystroke_l	l	n/a
298.8895	0.1685	597779	keystroke_e	e	n/a
299.066	0.0965	598132	keystroke_Key.enter	Key.enter	n/a
299.166	6.6005	598332	prompt	n/a	tracking offer shut approximate\n
300.0835	0.12	600167	keystroke_t	t	n/a
300.292	0.1285	600584	keystroke_r	r	n/a
300.3645	0.16	600729	keystroke_a	a	n/a
300.581	0.128	601162	keystroke_c	c	n/a
300.701	0.0965	601402	keystroke_k	k	n/a
300.9105	0.16	601821	keystroke_i	i	n/a
300.9985	0.1285	601997	keystroke_n	n	n/a
301.111	0.144	602222	keystroke_g	g	n/a
301.215	0.1125	602430	keystroke_Key.space	Key.space	n/a
301.6905	0.096	603381	keystroke_o	o	n/a
301.8025	0.072	603605	keystroke_f	f	n/a
301.971	0.096	603942	keystroke_f	f	n/a
302.067	0.2	604134	keystroke_e	e	n/a
302.195	0.1845	604390	keystroke_r	r	n/a
302.323	0.08	604646	keystroke_Key.space	Key.space	n/a
302.6915	0.1525	605383	keystroke_s	s	n/a
302.812	0.143	605624	keystroke_h	h	n/a
302.852	0.1675	605704	keystroke_u	u	n/a
303.0035	0.152	606007	keystroke_t	t	n/a
303.1795	0.1125	606359	keystroke_Key.space	Key.space	n/a
303.6835	0.1845	607367	keystroke_a	a	n/a
303.812	0.064	607624	keystroke_p	p	n/a
303.948	0.0955	607896	keystroke_p	p	n/a
304.0995	0.1445	608199	keystroke_r	r	n/a
304.22	0.104	608440	keystroke_o	o	n/a
304.5235	0.1525	609047	keystroke_x	x	n/a
304.9005	0.096	609801	keystroke_i	i	n/a
305.132	0.1205	610264	keystroke_m	m	n/a
305.2765	0.104	610553	keystroke_a	a	n/a
305.469	0.1755	610938	keystroke_t	t	n/a
305.524	0.1765	611048	keystroke_e	e	n/a
305.6685	0.096	611337	keystroke_Key.enter	Key.enter	n/a
305.769	4.592	611538	prompt	n/a	belief burning lanes limits\n
306.3965	0.0885	612793	keystroke_b	b	n/a
306.525	0.143	613050	keystroke_e	e	n/a
306.676	0.2165	613352	keystroke_l	l	n/a
306.764	0.1125	613528	keystroke_i	i	n/a
306.8285	0.144	613657	keystroke_e	e	n/a
307.0285	0.1515	614057	keystroke_f	f	n/a
307.2915	0.088	614583	keystroke_Key.space	Key.space	n/a
307.6795	0.112	615359	keystroke_b	b	n/a
307.7675	0.12	615535	keystroke_u	u	n/a
307.8955	0.144	615791	keystroke_r	r	n/a
308.0075	0.1525	616015	keystroke_n	n	n/a
308.152	0.152	616304	keystroke_i	i	n/a
308.2395	0.1285	616479	keystroke_n	n	n/a
308.328	0.12	616656	keystroke_g	g	n/a
308.472	0.0565	616944	keystroke_Key.space	Key.space	n/a
308.6485	0.096	617297	keystroke_l	l	n/a
308.7675	0.1205	617535	keystroke_a	a	n/a
308.896	0.096	617792	keystroke_n	n	n/a
309.024	0.088	618048	keystroke_e	e	n/a
309.248	0.1195	618496	keystroke_s	s	n/a
309.3195	0.072	618639	keystroke_Key.space	Key.space	n/a
309.5035	0.208	619007	keystroke_l	l	n/a
309.5915	0.128	619183	keystroke_i	i	n/a
309.7435	0.192	619487	keystroke_m	m	n/a
309.8875	0.144	619775	keystroke_i	i	n/a
309.9995	0.1765	619999	keystroke_t	t	n/a
310.128	0.16	620256	keystroke_s	s	n/a
310.256	0.1035	620512	keystroke_Key.enter	Key.enter	n/a
310.3635	7.698	620727	prompt	n/a	realm electoral state valves\n
311.2	0.2635	622400	keystroke_r	r	n/a
311.2965	0.2315	622593	keystroke_e	e	n/a
311.3675	0.1845	622735	keystroke_a	a	n/a
311.496	0.096	622992	keystroke_l	l	n/a
311.824	0.1195	623648	keystroke_m	m	n/a
312.112	0.096	624224	keystroke_Key.space	Key.space	n/a
312.7355	0.1205	625471	keystroke_e	e	n/a
312.872	0.0875	625744	keystroke_l	l	n/a
312.9515	0.168	625903	keystroke_e	e	n/a
313.0555	0.112	626111	keystroke_c	c	n/a
313.3035	0.136	626607	keystroke_t	t	n/a
313.471	0.072	626942	keystroke_o	o	n/a
313.5915	0.1355	627183	keystroke_r	r	n/a
314.2945	0.184	628589	keystroke_a	a	n/a
314.4945	0.072	628989	keystroke_l	l	n/a
314.7345	0.096	629469	keystroke_Key.space	Key.space	n/a
315.015	0.1115	630030	keystroke_s	s	n/a
315.1665	0.1525	630333	keystroke_t	t	n/a
315.2545	0.1365	630509	keystroke_a	a	n/a
315.407	0.1995	630814	keystroke_t	t	n/a
315.479	0.192	630958	keystroke_e	e	n/a
315.775	0.1045	631550	keystroke_Key.space	Key.space	n/a
316.3835	0.1925	632767	keystroke_v	v	n/a
316.5035	0.2	633007	keystroke_a	a	n/a
316.648	0.1035	633296	keystroke_l	l	n/a
316.8475	0.104	633695	keystroke_e	e	n/a
317.379	0.104	634758	keystroke_Key.backspace	Key.backspace	n/a
317.563	0.144	635126	keystroke_v	v	n/a
317.635	0.12	635270	keystroke_e	e	n/a
317.851	0.1365	635702	keystroke_s	s	n/a
317.9795	0.08	635959	keystroke_Key.enter	Key.enter	n/a
318.064	10.178	636128	prompt	n/a	pollution hudson adapted o'er\n
318.66	0.12	637320	keystroke_p	p	n/a
319.1395	0.104	638279	keystroke_o	o	n/a
319.379	0.077	638758	keystroke_l	l	n/a
319.5025	0.032	639005	keystroke_l	l	n/a
319.6705	0.076	639341	keystroke_u	u	n/a
319.834	0.161	639668	keystroke_t	t	n/a
319.947	0.192	639894	keystroke_i	i	n/a
320.019	0.136	640038	keystroke_o	o	n/a
320.091	0.112	640182	keystroke_n	n	n/a
320.4115	0.0955	640823	keystroke_Key.space	Key.space	n/a
320.922	0.0925	641844	keystroke_h	h	n/a
320.958	0.0935	641916	keystroke_u	u	n/a
321.2385	0.1435	642477	keystroke_d	d	n/a
321.6785	0.1515	643357	keystroke_s	s	n/a
321.766	0.144	643532	keystroke_o	o	n/a
321.878	0.1125	643756	keystroke_n	n	n/a
322.1265	0.112	644253	keystroke_Key.space	Key.space	n/a
322.511	0.184	645022	keystroke_a	a	n/a
322.8075	0.1525	645615	keystroke_d	d	n/a
323.1755	0.176	646351	keystroke_a	a	n/a
323.4875	0.1125	646975	keystroke_p	p	n/a
323.695	0.16	647390	keystroke_t	t	n/a
323.783	0.1045	647566	keystroke_e	e	n/a
323.9995	0.1515	647999	keystroke_d	d	n/a
324.1435	0.0795	648287	keystroke_Key.space	Key.space	n/a
325.271	0.0885	650542	keystroke_o	o	n/a
325.7515	0.12	651503	keystroke_'	'	n/a
326.032	0.144	652064	keystroke_v	v	n/a
326.4155	0.1205	652831	keystroke_e	e	n/a
326.632	0.1445	653264	keystroke_r	r	n/a
327.2805	0.135	654561	keystroke_Key.backspace	Key.backspace	n/a
327.512	0.08	655024	keystroke_Key.backspace	Key.backspace	n/a
327.72	0.0965	655440	keystroke_Key.backspace	Key.backspace	n/a
327.9195	0.1925	655839	keystroke_e	e	n/a
328.024	0.16	656048	keystroke_r	r	n/a
328.152	0.088	656304	keystroke_Key.enter	Key.enter	n/a
328.245	6.6935	656490	prompt	n/a	cooler trance samoa italiano\n
328.992	0.16	657984	keystroke_c	c	n/a
329.12	0.0805	658240	keystroke_o	o	n/a
329.2725	0.096	658545	keystroke_o	o	n/a
329.4805	0.0955	658961	keystroke_l	l	n/a
329.568	0.1765	659136	keystroke_e	e	n/a
329.6805	0.144	659361	keystroke_r	r	n/a
329.929	0.1035	659858	keystroke_Key.space	Key.space	n/a
330.08	0.0725	660160	keystroke_t	t	n/a
330.2645	0.1045	660529	keystroke_r	r	n/a
330.3045	0.1685	660609	keystroke_a	a	n/a
330.417	0.104	660834	keystroke_n	n	n/a
330.5765	0.208	661153	keystroke_c	c	n/a
330.6485	0.192	661297	keystroke_e	e	n/a
330.8565	0.1045	661713	keystroke_Key.space	Key.space	n/a
331.2565	0.16	662513	keystroke_s	s	n/a
331.3925	0.272	662785	keystroke_a	a	n/a
331.929	0.12	663858	keystroke_m	m	n/a
332.0965	0.144	664193	keystroke_o	o	n/a
332.321	0.2	664642	keystroke_a	a	n/a
332.569	0.1035	665138	keystroke_Key.space	Key.space	n/a
333.2005	0.12	666401	keystroke_i	i	n/a
333.4165	0.208	666833	keystroke_t	t	n/a
333.5925	0.176	667185	keystroke_a	a	n/a
333.873	0.224	667746	keystroke_l	l	n/a
333.977	0.1525	667954	keystroke_i	i	n/a
334.1605	0.1685	668321	keystroke_a	a	n/a
334.313	0.104	668626	keystroke_n	n	n/a
334.5695	0.0875	669139	keystroke_o	o	n/a
334.841	0.096	669682	keystroke_Key.enter	Key.enter	n/a
334.941	7.206	669882	prompt	n/a	holdings propose ball stolen\n
335.5685	0.136	671137	keystroke_h	h	n/a
335.6725	0.144	671345	keystroke_o	o	n/a
335.9125	0.096	671825	keystroke_l	l	n/a
336.1765	0.12	672353	keystroke_d	d	n/a
336.2885	0.152	672577	keystroke_i	i	n/a
336.3845	0.1285	672769	keystroke_n	n	n/a
336.8565	0.112	673713	keystroke_g	g	n/a
337.161	0.088	674322	keystroke_Key.backspace	Key.backspace	n/a
337.7685	0.088	675537	keystroke_n	n	n/a
338.1045	0.072	676209	keystroke_Key.backspace	Key.backspace	n/a
338.2565	0.144	676513	keystroke_g	g	n/a
338.4645	0.144	676929	keystroke_s	s	n/a
338.6485	0.0725	677297	keystroke_Key.space	Key.space	n/a
338.849	0.0875	677698	keystroke_p	p	n/a
338.9605	0.152	677921	keystroke_r	r	n/a
339.0805	0.08	678161	keystroke_o	o	n/a
339.2805	0.08	678561	keystroke_p	p	n/a
339.4965	0.08	678993	keystroke_o	o	n/a
339.657	0.088	679314	keystroke_s	s	n/a
339.857	0.1275	679714	keystroke_e	e	n/a
339.9925	0.0805	679985	keystroke_Key.space	Key.space	n/a
340.281	0.0965	680562	keystroke_b	b	n/a
340.4255	0.1435	680851	keystroke_a	a	n/a
340.521	0.056	681042	keystroke_l	l	n/a
340.649	0.08	681298	keystroke_l	l	n/a
340.8495	0.08	681699	keystroke_Key.space	Key.space	n/a
341.185	0.096	682370	keystroke_s	s	n/a
341.377	0.144	682754	keystroke_t	t	n/a
341.457	0.08	682914	keystroke_o	o	n/a
341.657	0.08	683314	keystroke_l	l	n/a
341.769	0.144	683538	keystroke_e	e	n/a
341.865	0.08	683730	keystroke_n	n	n/a
342.0575	0.0875	684115	keystroke_Key.enter	Key.enter	n/a
342.1495	6.198	684299	prompt	n/a	suffer parents define porsche\n
342.9135	0.128	685827	keystroke_s	s	n/a
343.0575	0.104	686115	keystroke_u	u	n/a
343.185	0.064	686370	keystroke_f	f	n/a
343.3455	0.088	686691	keystroke_f	f	n/a
343.4015	0.224	686803	keystroke_e	e	n/a
343.5615	0.1675	687123	keystroke_r	r	n/a
343.666	0.095	687332	keystroke_Key.space	Key.space	n/a
343.8735	0.104	687747	keystroke_p	p	n/a
344.0015	0.1285	688003	keystroke_a	a	n/a
344.138	0.2075	688276	keystroke_r	r	n/a
344.217	0.2165	688434	keystroke_e	e	n/a
344.3935	0.104	688787	keystroke_n	n	n/a
344.578	0.1355	689156	keystroke_t	t	n/a
344.7935	0.12	689587	keystroke_s	s	n/a
344.9695	0.088	689939	keystroke_Key.space	Key.space	n/a
345.2895	0.152	690579	keystroke_d	d	n/a
345.578	0.1755	691156	keystroke_e	e	n/a
345.8495	0.1285	691699	keystroke_f	f	n/a
345.994	0.16	691988	keystroke_i	i	n/a
346.122	0.1355	692244	keystroke_n	n	n/a
346.2495	0.1845	692499	keystroke_e	e	n/a
346.434	0.096	692868	keystroke_Key.space	Key.space	n/a
346.7535	0.0645	693507	keystroke_p	p	n/a
346.946	0.096	693892	keystroke_o	o	n/a
347.074	0.1125	694148	keystroke_r	r	n/a
347.6425	0.1515	695285	keystroke_s	s	n/a
347.85	0.128	695700	keystroke_c	c	n/a
347.97	0.0965	695940	keystroke_h	h	n/a
348.0745	0.16	696149	keystroke_e	e	n/a
348.2425	0.1035	696485	keystroke_Key.enter	Key.enter	n/a
348.35	6.47	696700	prompt	n/a	thong toll encourage remark\n
349.1065	0.1765	698213	keystroke_t	t	n/a
349.1465	0.096	698293	keystroke_h	h	n/a
349.2265	0.152	698453	keystroke_o	o	n/a
349.4425	0.104	698885	keystroke_n	n	n/a
349.731	0.1835	699462	keystroke_g	g	n/a
349.9865	0.072	699973	keystroke_Key.space	Key.space	n/a
350.3465	0.152	700693	keystroke_t	t	n/a
350.4025	0.096	700805	keystroke_o	o	n/a
350.6265	0.0485	701253	keystroke_l	l	n/a
350.747	0.08	701494	keystroke_l	l	n/a
350.9145	0.088	701829	keystroke_Key.space	Key.space	n/a
351.0585	0.1605	702117	keystroke_e	e	n/a
351.187	0.104	702374	keystroke_n	n	n/a
351.5705	0.144	703141	keystroke_c	c	n/a
351.6745	0.1045	703349	keystroke_o	o	n/a
352.1545	0.0885	704309	keystroke_u	u	n/a
352.443	0.16	704886	keystroke_r	r	n/a
352.595	0.128	705190	keystroke_a	a	n/a
352.763	0.184	705526	keystroke_g	g	n/a
352.843	0.168	705686	keystroke_e	e	n/a
352.947	0.0955	705894	keystroke_Key.space	Key.space	n/a
353.2105	0.192	706421	keystroke_r	r	n/a
353.2985	0.152	706597	keystroke_e	e	n/a
353.4265	0.112	706853	keystroke_m	m	n/a
353.5785	0.168	707157	keystroke_a	a	n/a
353.9385	0.0725	707877	keystroke_k	k	n/a
354.2505	0.088	708501	keystroke_Key.backspace	Key.backspace	n/a
354.403	0.152	708806	keystroke_r	r	n/a
354.515	0.08	709030	keystroke_k	k	n/a
354.6985	0.12	709397	keystroke_Key.enter	Key.enter	n/a
354.8225	6.5645	709645	prompt	n/a	sustainability speak smooth proposed\n
355.446	0.152	710892	keystroke_s	s	n/a
355.614	0.096	711228	keystroke_u	u	n/a
355.734	0.1045	711468	keystroke_s	s	n/a
355.9345	0.176	711869	keystroke_t	t	n/a
356.0385	0.2005	712077	keystroke_a	a	n/a
356.5185	0.1525	713037	keystroke_i	i	n/a
356.791	0.1035	713582	keystroke_n	n	n/a
357.095	0.176	714190	keystroke_a	a	n/a
357.343	0.1435	714686	keystroke_b	b	n/a
357.4465	0.088	714893	keystroke_i	i	n/a
357.6385	0.2085	715277	keystroke_l	l	n/a
357.6945	0.136	715389	keystroke_i	i	n/a
357.8385	0.064	715677	keystroke_t	t	n/a
358.0065	0.1205	716013	keystroke_y	y	n/a
358.167	0.104	716334	keystroke_Key.space	Key.space	n/a
358.375	0.1115	716750	keystroke_s	s	n/a
358.503	0.104	717006	keystroke_p	p	n/a
358.631	0.24	717262	keystroke_e	e	n/a
358.735	0.168	717470	keystroke_a	a	n/a
358.903	0.0715	717806	keystroke_k	k	n/a
359.127	0.08	718254	keystroke_Key.space	Key.space	n/a
359.327	0.144	718654	keystroke_s	s	n/a
359.487	0.104	718974	keystroke_m	m	n/a
359.607	0.072	719214	keystroke_o	o	n/a
359.759	0.104	719518	keystroke_o	o	n/a
359.9275	0.1675	719855	keystroke_t	t	n/a
360.055	0.08	720110	keystroke_h	h	n/a
360.263	0.088	720526	keystroke_Key.space	Key.space	n/a
360.439	0.112	720878	keystroke_p	p	n/a
360.575	0.1515	721150	keystroke_r	r	n/a
360.6705	0.08	721341	keystroke_o	o	n/a
360.8615	0.062	721723	keystroke_p	p	n/a
360.944	0.0275	721888	keystroke_o	o	n/a
360.989	0.0585	721978	keystroke_s	s	n/a
361.092	0.0625	722184	keystroke_e	e	n/a
361.25	0.1195	722500	keystroke_d	d	n/a
361.29	0.0955	722580	keystroke_Key.enter	Key.enter	n/a
361.3905	8.916	722781	prompt	n/a	sprint sacred affiliate delicious\n
362.0615	0.1365	724123	keystroke_s	s	n/a
362.286	0.0875	724572	keystroke_p	p	n/a
362.5885	0.1415	725177	keystroke_r	r	n/a
362.714	0.136	725428	keystroke_i	i	n/a
362.818	0.1355	725636	keystroke_n	n	n/a
362.9455	0.128	725891	keystroke_g	g	n/a
363.33	0.088	726660	keystroke_Key.backspace	Key.backspace	n/a
363.466	0.1435	726932	keystroke_t	t	n/a
363.6575	0.1045	727315	keystroke_Key.space	Key.space	n/a
364.4055	0.0755	728811	keystroke_a	a	n/a
364.617	0.0795	729234	keystroke_Key.backspace	Key.backspace	n/a
364.7525	0.177	729505	keystroke_s	s	n/a
364.8735	0.152	729747	keystroke_a	a	n/a
365.0575	0.096	730115	keystroke_c	c	n/a
365.281	0.1405	730562	keystroke_r	r	n/a
365.3535	0.1065	730707	keystroke_e	e	n/a
365.549	0.136	731098	keystroke_d	d	n/a
365.693	0.08	731386	keystroke_Key.space	Key.space	n/a
366.0675	0.012	732135	keystroke_s	s	n/a
366.2475	0.088	732495	keystroke_Key.backspace	Key.backspace	n/a
366.409	0.144	732818	keystroke_a	a	n/a
366.617	0.08	733234	keystroke_f	f	n/a
366.785	0.136	733570	keystroke_f	f	n/a
366.953	0.0965	733906	keystroke_i	i	n/a
367.2975	0.128	734595	keystroke_l	l	n/a
367.6975	0.1045	735395	keystroke_i	i	n/a
367.818	0.1755	735636	keystroke_a	a	n/a
368.178	0.1835	736356	keystroke_t	t	n/a
368.2575	0.176	736515	keystroke_e	e	n/a
368.4415	0.0965	736883	keystroke_Key.space	Key.space	n/a
368.802	0.2005	737604	keystroke_d	d	n/a
368.9065	0.1755	737813	keystroke_e	e	n/a
369.114	0.216	738228	keystroke_l	l	n/a
369.21	0.136	738420	keystroke_i	i	n/a
369.4905	0.1755	738981	keystroke_c	c	n/a
369.642	0.112	739284	keystroke_i	i	n/a
369.722	0.3045	739444	keystroke_o	o	n/a
369.89	0.1205	739780	keystroke_u	u	n/a
370.0665	0.1515	740133	keystroke_s	s	n/a
370.218	0.088	740436	keystroke_Key.enter	Key.enter	n/a
370.311	3.909	740622	prompt	n/a	mass battlefield ordering nextel\n
370.9625	0.072	741925	keystroke_m	m	n/a
371.0585	0.152	742117	keystroke_a	a	n/a
371.4185	0.1285	742837	keystroke_s	s	n/a
371.6985	0.096	743397	keystroke_s	s	n/a
371.9065	0.096	743813	keystroke_Key.space	Key.space	n/a
372.2665	0.104	744533	keystroke_b	b	n/a
372.3705	0.136	744741	keystroke_a	a	n/a
372.5305	0.1125	745061	keystroke_t	t	n/a
372.7225	0.12	745445	keystroke_t	t	n/a
372.7945	0.072	745589	keystroke_l	l	n/a
372.9225	0.1285	745845	keystroke_e	e	n/a
373.227	0.1435	746454	keystroke_f	f	n/a
373.3785	0.104	746757	keystroke_i	i	n/a
373.4985	0.1285	746997	keystroke_e	e	n/a
373.707	0.1675	747414	keystroke_d	d	n/a
374.0985	0.1205	748197	keystroke_Key.enter	Key.enter	n/a
374.2225	6.117	748445	prompt	n/a	seeds charge textile enclosure\n
375.043	0.088	750086	keystroke_s	s	n/a
375.243	0.0805	750486	keystroke_e	e	n/a
375.411	0.072	750822	keystroke_e	e	n/a
375.611	0.2165	751222	keystroke_d	d	n/a
375.707	0.1685	751414	keystroke_s	s	n/a
375.963	0.08	751926	keystroke_Key.space	Key.space	n/a
376.131	0.168	752262	keystroke_c	c	n/a
376.371	0.12	752742	keystroke_h	h	n/a
376.539	0.16	753078	keystroke_a	a	n/a
376.723	0.1125	753446	keystroke_r	r	n/a
376.9315	0.1995	753863	keystroke_g	g	n/a
376.995	0.2085	753990	keystroke_e	e	n/a
377.2275	0.088	754455	keystroke_Key.space	Key.space	n/a
377.635	0.176	755270	keystroke_t	t	n/a
377.715	0.1275	755430	keystroke_e	e	n/a
377.9715	0.008	755943	keystroke_x	x	n/a
378.062	0.2	756124	keystroke_t	t	n/a
378.2675	0.0625	756535	keystroke_i	i	n/a
378.4335	0.092	756867	keystroke_l	l	n/a
378.5415	0.1305	757083	keystroke_e	e	n/a
378.7755	0.05	757551	keystroke_Key.space	Key.space	n/a
379.065	0.113	758130	keystroke_e	e	n/a
379.105	0.1205	758210	keystroke_n	n	n/a
379.36	0.096	758720	keystroke_c	c	n/a
379.4155	0.0405	758831	keystroke_l	l	n/a
379.5435	0.104	759087	keystroke_o	o	n/a
379.8015	0.105	759603	keystroke_s	s	n/a
379.9455	0.081	759891	keystroke_u	u	n/a
380.0585	0.183	760117	keystroke_r	r	n/a
380.1145	0.191	760229	keystroke_e	e	n/a
380.2495	0.088	760499	keystroke_Key.enter	Key.enter	n/a
380.3425	6.1525	760685	prompt	n/a	lawyer admin ratios seasons\n
381.033	0.0635	762066	keystroke_l	l	n/a
381.1045	0.068	762209	keystroke_a	a	n/a
381.2375	0.1355	762475	keystroke_w	w	n/a
381.9015	0.088	763803	keystroke_y	y	n/a
382.062	0.224	764124	keystroke_e	e	n/a
382.182	0.152	764364	keystroke_r	r	n/a
382.335	0.0945	764670	keystroke_Key.space	Key.space	n/a
382.5255	0.176	765051	keystroke_a	a	n/a
382.6615	0.169	765323	keystroke_d	d	n/a
382.8935	0.096	765787	keystroke_m	m	n/a
383.069	0.161	766138	keystroke_i	i	n/a
383.165	0.12	766330	keystroke_n	n	n/a
383.421	0.096	766842	keystroke_Key.space	Key.space	n/a
383.613	0.1315	767226	keystroke_r	r	n/a
383.6925	0.14	767385	keystroke_a	a	n/a
383.8725	0.1285	767745	keystroke_t	t	n/a
383.92	0.169	767840	keystroke_i	i	n/a
384.025	0.136	768050	keystroke_o	o	n/a
384.2205	0.128	768441	keystroke_s	s	n/a
384.701	0.104	769402	keystroke_Key.space	Key.space	n/a
385.005	0.088	770010	keystroke_s	s	n/a
385.197	0.16	770394	keystroke_e	e	n/a
385.301	0.144	770602	keystroke_a	a	n/a
385.485	0.112	770970	keystroke_s	s	n/a
385.613	0.152	771226	keystroke_o	o	n/a
385.693	0.12	771386	keystroke_n	n	n/a
386.181	0.1205	772362	keystroke_s	s	n/a
386.4135	0.08	772827	keystroke_Key.enter	Key.enter	n/a
386.5	6.174	773000	prompt	n/a	youth problem george looks\n
387.213	0.128	774426	keystroke_y	y	n/a
387.349	0.2155	774698	keystroke_o	o	n/a
387.4605	0.105	774921	keystroke_u	u	n/a
387.6285	0.1525	775257	keystroke_t	t	n/a
387.7005	0.1205	775401	keystroke_h	h	n/a
387.981	0.1285	775962	keystroke_Key.space	Key.space	n/a
388.325	0.096	776650	keystroke_p	p	n/a
388.501	0.144	777002	keystroke_r	r	n/a
388.581	0.088	777162	keystroke_o	o	n/a
388.717	0.1115	777434	keystroke_b	b	n/a
388.8445	0.0755	777689	keystroke_l	l	n/a
388.921	0.1025	777842	keystroke_e	e	n/a
388.996	0.0555	777992	keystroke_m	m	n/a
389.1555	0.0635	778311	keystroke_Key.space	Key.space	n/a
389.3525	0.135	778705	keystroke_g	g	n/a
389.428	0.112	778856	keystroke_e	e	n/a
389.5475	0.0595	779095	keystroke_o	o	n/a
390.2435	0.104	780487	keystroke_r	r	n/a
390.452	0.176	780904	keystroke_g	g	n/a
390.532	0.184	781064	keystroke_e	e	n/a
390.748	0.072	781496	keystroke_Key.space	Key.space	n/a
391.116	0.064	782232	keystroke_Key.backspace	Key.backspace	n/a
391.7195	0.16	783439	keystroke_Key.space	Key.space	n/a
391.8645	0.079	783729	keystroke_l	l	n/a
392.056	0.072	784112	keystroke_o	o	n/a
392.2	0.088	784400	keystroke_o	o	n/a
392.304	0.12	784608	keystroke_k	k	n/a
392.4725	0.1515	784945	keystroke_s	s	n/a
392.577	0.095	785154	keystroke_Key.enter	Key.enter	n/a
392.6765	5.615	785353	prompt	n/a	demo prepared fork checks\n
393.2885	0.168	786577	keystroke_d	d	n/a
393.3845	0.1855	786769	keystroke_e	e	n/a
393.6325	0.088	787265	keystroke_m	m	n/a
394.1685	0.1045	788337	keystroke_o	o	n/a
394.433	0.088	788866	keystroke_Key.space	Key.space	n/a
394.6405	0.0965	789281	keystroke_p	p	n/a
394.753	0.168	789506	keystroke_r	r	n/a
394.825	0.1445	789650	keystroke_e	e	n/a
394.9855	0.088	789971	keystroke_p	p	n/a
395.113	0.152	790226	keystroke_a	a	n/a
395.297	0.1845	790594	keystroke_r	r	n/a
395.3785	0.111	790757	keystroke_e	e	n/a
395.617	0.136	791234	keystroke_d	d	n/a
395.793	0.0885	791586	keystroke_Key.space	Key.space	n/a
396.217	0.1045	792434	keystroke_f	f	n/a
396.4015	0.08	792803	keystroke_o	o	n/a
396.5615	0.1195	793123	keystroke_r	r	n/a
396.7055	0.096	793411	keystroke_k	k	n/a
397.002	0.08	794004	keystroke_Key.space	Key.space	n/a
397.4095	0.1365	794819	keystroke_c	c	n/a
397.538	0.08	795076	keystroke_h	h	n/a
397.626	0.1115	795252	keystroke_e	e	n/a
397.7535	0.1285	795507	keystroke_c	c	n/a
397.898	0.072	795796	keystroke_k	k	n/a
397.978	0.104	795956	keystroke_s	s	n/a
398.1855	0.104	796371	keystroke_Key.enter	Key.enter	n/a
398.295	7.5815	796590	prompt	n/a	printer court snapshot consecutive\n
399.066	0.088	798132	keystroke_p	p	n/a
399.2175	0.1045	798435	keystroke_r	r	n/a
399.306	0.128	798612	keystroke_i	i	n/a
399.386	0.12	798772	keystroke_n	n	n/a
399.458	0.136	798916	keystroke_t	t	n/a
399.522	0.24	799044	keystroke_e	e	n/a
399.6895	0.1605	799379	keystroke_r	r	n/a
399.906	0.104	799812	keystroke_Key.space	Key.space	n/a
400.402	0.1365	800804	keystroke_c	c	n/a
400.5065	0.2	801013	keystroke_o	o	n/a
400.6185	0.1115	801237	keystroke_u	u	n/a
400.738	0.1845	801476	keystroke_r	r	n/a
400.858	0.1285	801716	keystroke_s	s	n/a
401.3785	0.08	802757	keystroke_Key.backspace	Key.backspace	n/a
401.5145	0.136	803029	keystroke_t	t	n/a
401.667	0.104	803334	keystroke_Key.space	Key.space	n/a
401.9865	0.1285	803973	keystroke_s	s	n/a
402.123	0.112	804246	keystroke_n	n	n/a
402.195	0.1675	804390	keystroke_a	a	n/a
402.563	0.104	805126	keystroke_p	p	n/a
403.163	0.1435	806326	keystroke_s	s	n/a
403.259	0.1355	806518	keystroke_h	h	n/a
403.3545	0.1605	806709	keystroke_o	o	n/a
403.523	0.16	807046	keystroke_t	t	n/a
403.8585	0.0885	807717	keystroke_Key.space	Key.space	n/a
404.203	0.1595	808406	keystroke_c	c	n/a
404.3065	0.1365	808613	keystroke_o	o	n/a
404.3785	0.1205	808757	keystroke_n	n	n/a
404.475	0.088	808950	keystroke_s	s	n/a
404.651	0.104	809302	keystroke_e	e	n/a
404.8345	0.1205	809669	keystroke_c	c	n/a
404.995	0.096	809990	keystroke_u	u	n/a
405.259	0.168	810518	keystroke_t	t	n/a
405.467	0.08	810934	keystroke_i	i	n/a
405.587	0.168	811174	keystroke_v	v	n/a
405.667	0.1925	811334	keystroke_e	e	n/a
405.787	0.0875	811574	keystroke_Key.enter	Key.enter	n/a
405.879	5.9585	811758	prompt	n/a	context plate screenshots scope\n
406.555	0.144	813110	keystroke_c	c	n/a
406.643	0.1285	813286	keystroke_o	o	n/a
406.7315	0.112	813463	keystroke_n	n	n/a
406.979	0.144	813958	keystroke_t	t	n/a
407.067	0.1205	814134	keystroke_e	e	n/a
407.3235	0.0875	814647	keystroke_c	c	n/a
407.547	0.1285	815094	keystroke_t	t	n/a
407.7155	0.064	815431	keystroke_Key.space	Key.space	n/a
407.8835	0.0795	815767	keystroke_p	p	n/a
408.0675	0.08	816135	keystroke_l	l	n/a
408.1555	0.088	816311	keystroke_a	a	n/a
408.2675	0.1675	816535	keystroke_t	t	n/a
408.3475	0.136	816695	keystroke_e	e	n/a
408.4595	0.08	816919	keystroke_Key.space	Key.space	n/a
408.924	0.0635	817848	keystroke_s	s	n/a
409.0675	0.064	818135	keystroke_c	c	n/a
409.252	0.128	818504	keystroke_r	r	n/a
409.364	0.0715	818728	keystroke_e	e	n/a
409.5235	0.136	819047	keystroke_e	e	n/a
409.7155	0.0885	819431	keystroke_n	n	n/a
409.931	0.1445	819862	keystroke_s	s	n/a
410.0435	0.12	820087	keystroke_h	h	n/a
410.1155	0.152	820231	keystroke_o	o	n/a
410.2435	0.16	820487	keystroke_t	t	n/a
410.3075	0.184	820615	keystroke_s	s	n/a
410.5155	0.096	821031	keystroke_Key.space	Key.space	n/a
410.78	0.096	821560	keystroke_s	s	n/a
410.9955	0.112	821991	keystroke_c	c	n/a
411.1395	0.0885	822279	keystroke_o	o	n/a
411.4355	0.096	822871	keystroke_p	p	n/a
411.5795	0.1365	823159	keystroke_e	e	n/a
411.74	0.096	823480	keystroke_Key.enter	Key.enter	n/a
411.8405	4.3415	823681	prompt	n/a	older frost saddam slow\n
412.4995	0.096	824999	keystroke_o	o	n/a
412.7	0.104	825400	keystroke_l	l	n/a
412.764	0.128	825528	keystroke_d	d	n/a
412.868	0.248	825736	keystroke_e	e	n/a
412.9955	0.1525	825991	keystroke_r	r	n/a
413.0595	0.0805	826119	keystroke_Key.space	Key.space	n/a
413.316	0.112	826632	keystroke_f	f	n/a
413.5155	0.0965	827031	keystroke_r	r	n/a
413.612	0.04	827224	keystroke_o	o	n/a
413.708	0.112	827416	keystroke_s	s	n/a
413.876	0.128	827752	keystroke_t	t	n/a
413.98	0.08	827960	keystroke_Key.space	Key.space	n/a
414.5325	0.1595	829065	keystroke_s	s	n/a
414.66	0.144	829320	keystroke_a	a	n/a
414.812	0.0965	829624	keystroke_d	d	n/a
414.9885	0.1035	829977	keystroke_d	d	n/a
415.068	0.192	830136	keystroke_a	a	n/a
415.252	0.0885	830504	keystroke_m	m	n/a
415.4605	0.088	830921	keystroke_Key.space	Key.space	n/a
415.62	0.1445	831240	keystroke_s	s	n/a
415.7085	0.08	831417	keystroke_l	l	n/a
415.8765	0.072	831753	keystroke_o	o	n/a
415.9325	0.128	831865	keystroke_w	w	n/a
416.084	0.0965	832168	keystroke_Key.enter	Key.enter	n/a
416.1845	6.03	832369	prompt	n/a	returning invited gloves ring\n
416.9965	0.168	833993	keystroke_r	r	n/a
417.101	0.1515	834202	keystroke_e	e	n/a
417.2845	0.1125	834569	keystroke_t	t	n/a
417.421	0.088	834842	keystroke_u	u	n/a
417.51	0.1425	835020	keystroke_r	r	n/a
417.7165	0.072	835433	keystroke_i	i	n/a
418.101	0.048	836202	keystroke_Key.backspace	Key.backspace	n/a
418.317	0.12	836634	keystroke_n	n	n/a
418.437	0.168	836874	keystroke_i	i	n/a
418.565	0.088	837130	keystroke_n	n	n/a
418.613	0.136	837226	keystroke_g	g	n/a
418.717	0.096	837434	keystroke_Key.space	Key.space	n/a
418.901	0.112	837802	keystroke_i	i	n/a
418.973	0.112	837946	keystroke_n	n	n/a
419.045	0.168	838090	keystroke_v	v	n/a
419.245	0.08	838490	keystroke_i	i	n/a
419.749	0.128	839498	keystroke_t	t	n/a
419.821	0.104	839642	keystroke_e	e	n/a
420.029	0.1435	840058	keystroke_d	d	n/a
420.1325	0.064	840265	keystroke_Key.space	Key.space	n/a
420.3085	0.0965	840617	keystroke_g	g	n/a
420.3965	0.0725	840793	keystroke_l	l	n/a
420.557	0.088	841114	keystroke_o	o	n/a
420.629	0.144	841258	keystroke_v	v	n/a
420.717	0.136	841434	keystroke_e	e	n/a
420.9655	0.176	841931	keystroke_s	s	n/a
421.1735	0.0885	842347	keystroke_Key.space	Key.space	n/a
421.766	0.136	843532	keystroke_r	r	n/a
421.862	0.1195	843724	keystroke_i	i	n/a
421.9495	0.088	843899	keystroke_n	n	n/a
422.0135	0.128	844027	keystroke_g	g	n/a
422.1015	0.1125	844203	keystroke_Key.enter	Key.enter	n/a
422.2175	7.8625	844435	prompt	n/a	boat chemicals psychological baseball\n
422.926	0.12	845852	keystroke_b	b	n/a
423.03	0.104	846060	keystroke_o	o	n/a
423.126	0.112	846252	keystroke_a	a	n/a
423.27	0.1365	846540	keystroke_t	t	n/a
423.3985	0.0875	846797	keystroke_Key.space	Key.space	n/a
423.678	0.144	847356	keystroke_c	c	n/a
423.79	0.0885	847580	keystroke_h	h	n/a
423.9025	0.1435	847805	keystroke_e	e	n/a
424.046	0.16	848092	keystroke_m	m	n/a
424.198	0.112	848396	keystroke_i	i	n/a
424.302	0.1605	848604	keystroke_c	c	n/a
424.3825	0.1515	848765	keystroke_a	a	n/a
424.4705	0.0635	848941	keystroke_l	l	n/a
424.622	0.1445	849244	keystroke_s	s	n/a
424.8385	0.104	849677	keystroke_Key.space	Key.space	n/a
425.2065	0.112	850413	keystroke_p	p	n/a
425.486	0.0485	850972	keystroke_y	y	n/a
425.8945	0.08	851789	keystroke_Key.backspace	Key.backspace	n/a
426.0625	0.08	852125	keystroke_s	s	n/a
426.1985	0.168	852397	keystroke_t	t	n/a
426.7585	0.1605	853517	keystroke_c	c	n/a
426.8385	0.1205	853677	keystroke_h	h	n/a
426.927	0.112	853854	keystroke_o	o	n/a
427.1425	0.08	854285	keystroke_l	l	n/a
427.3105	0.088	854621	keystroke_o	o	n/a
427.4305	0.1205	854861	keystroke_g	g	n/a
427.559	0.0635	855118	keystroke_i	i	n/a
427.6865	0.168	855373	keystroke_c	c	n/a
427.7745	0.176	855549	keystroke_a	a	n/a
427.8545	0.056	855709	keystroke_l	l	n/a
428.0225	0.0725	856045	keystroke_Key.space	Key.space	n/a
428.1985	0.08	856397	keystroke_b	b	n/a
428.2785	0.12	856557	keystroke_a	a	n/a
428.3345	0.104	856669	keystroke_s	s	n/a
428.527	0.088	857054	keystroke_e	e	n/a
428.7185	0.128	857437	keystroke_s	s	n/a
429.2305	0.08	858461	keystroke_Key.backspace	Key.backspace	n/a
429.487	0.072	858974	keystroke_b	b	n/a
429.583	0.1275	859166	keystroke_a	a	n/a
429.679	0.0635	859358	keystroke_l	l	n/a
429.7985	0.088	859597	keystroke_l	l	n/a
429.9825	0.0965	859965	keystroke_Key.enter	Key.enter	n/a
430.083	7.1255	860166	prompt	n/a	console namespace geological builders\n
430.695	0.128	861390	keystroke_c	c	n/a
430.7505	0.1445	861501	keystroke_o	o	n/a
430.855	0.104	861710	keystroke_n	n	n/a
430.967	0.104	861934	keystroke_s	s	n/a
431.055	0.08	862110	keystroke_o	o	n/a
431.231	0.104	862462	keystroke_l	l	n/a
431.455	0.168	862910	keystroke_e	e	n/a
431.703	0.104	863406	keystroke_Key.space	Key.space	n/a
432.015	0.096	864030	keystroke_n	n	n/a
432.1195	0.12	864239	keystroke_a	a	n/a
432.2075	0.12	864415	keystroke_m	m	n/a
432.3355	0.1035	864671	keystroke_e	e	n/a
432.575	0.096	865150	keystroke_s	s	n/a
432.631	0.08	865262	keystroke_p	p	n/a
432.767	0.112	865534	keystroke_a	a	n/a
432.895	0.1765	865790	keystroke_c	c	n/a
432.991	0.1525	865982	keystroke_e	e	n/a
433.3275	0.088	866655	keystroke_Key.space	Key.space	n/a
433.8075	0.152	867615	keystroke_g	g	n/a
433.8875	0.192	867775	keystroke_e	e	n/a
434.0555	0.088	868111	keystroke_o	o	n/a
434.2555	0.08	868511	keystroke_l	l	n/a
434.4155	0.096	868831	keystroke_o	o	n/a
434.527	0.136	869054	keystroke_g	g	n/a
434.679	0.088	869358	keystroke_i	i	n/a
434.8315	0.176	869663	keystroke_c	c	n/a
434.9435	0.168	869887	keystroke_a	a	n/a
435.0395	0.08	870079	keystroke_l	l	n/a
435.2395	0.072	870479	keystroke_Key.space	Key.space	n/a
435.4875	0.16	870975	keystroke_b	b	n/a
435.5915	0.168	871183	keystroke_u	u	n/a
435.6715	0.112	871343	keystroke_i	i	n/a
435.8715	0.104	871743	keystroke_l	l	n/a
436.6	0.1435	873200	keystroke_d	d	n/a
436.7275	0.144	873455	keystroke_e	e	n/a
436.8475	0.168	873695	keystroke_r	r	n/a
437.1115	0.0965	874223	keystroke_Key.enter	Key.enter	n/a
437.211	7.015	874422	prompt	n/a	assume expanded skins flex\n
437.912	0.096	875824	keystroke_s	s	n/a
438.248	0.08	876496	keystroke_Key.backspace	Key.backspace	n/a
438.416	0.128	876832	keystroke_a	a	n/a
438.632	0.088	877264	keystroke_s	s	n/a
438.808	0.144	877616	keystroke_s	s	n/a
438.864	0.08	877728	keystroke_u	u	n/a
439.064	0.096	878128	keystroke_m	m	n/a
439.144	0.152	878288	keystroke_e	e	n/a
439.344	0.072	878688	keystroke_Key.space	Key.space	n/a
439.512	0.064	879024	keystroke_e	e	n/a
439.7125	0.112	879425	keystroke_x	x	n/a
439.7765	0.0875	879553	keystroke_p	p	n/a
439.9445	0.136	879889	keystroke_a	a	n/a
440.0005	0.096	880001	keystroke_n	n	n/a
440.1285	0.16	880257	keystroke_d	d	n/a
440.2565	0.152	880513	keystroke_e	e	n/a
440.4165	0.168	880833	keystroke_d	d	n/a
440.8005	0.12	881601	keystroke_Key.space	Key.space	n/a
441.0165	0.168	882033	keystroke_s	s	n/a
441.1125	0.088	882225	keystroke_k	k	n/a
441.3045	0.136	882609	keystroke_i	i	n/a
441.417	0.1355	882834	keystroke_n	n	n/a
441.5685	0.1925	883137	keystroke_d	d	n/a
441.641	0.192	883282	keystroke_s	s	n/a
442.001	0.08	884002	keystroke_Key.backspace	Key.backspace	n/a
442.161	0.088	884322	keystroke_Key.backspace	Key.backspace	n/a
442.305	0.16	884610	keystroke_s	s	n/a
442.433	0.104	884866	keystroke_Key.space	Key.space	n/a
442.793	0.232	885586	keystroke_f	f	n/a
443.073	0.088	886146	keystroke_l	l	n/a
443.201	0.1445	886402	keystroke_e	e	n/a
443.4735	0.1355	886947	keystroke_s	s	n/a
443.8815	0.064	887763	keystroke_Key.backspace	Key.backspace	n/a
444.0095	0.12	888019	keystroke_x	x	n/a
444.1215	0.104	888243	keystroke_Key.enter	Key.enter	n/a
444.23	6.7725	888460	prompt	n/a	jazz upper memorabilia apnic\n
444.8895	0.1205	889779	keystroke_j	j	n/a
445.002	0.0875	890004	keystroke_a	a	n/a
445.2015	0.08	890403	keystroke_z	z	n/a
445.362	0.12	890724	keystroke_z	z	n/a
445.466	0.088	890932	keystroke_Key.space	Key.space	n/a
445.8655	0.0805	891731	keystroke_u	u	n/a
446.058	0.0955	892116	keystroke_p	p	n/a
446.2335	0.112	892467	keystroke_p	p	n/a
446.3375	0.216	892675	keystroke_e	e	n/a
446.4335	0.176	892867	keystroke_r	r	n/a
446.5455	0.096	893091	keystroke_Key.space	Key.space	n/a
446.9455	0.1125	893891	keystroke_m	m	n/a
447.082	0.1435	894164	keystroke_e	e	n/a
447.2175	0.112	894435	keystroke_m	m	n/a
447.554	0.1275	895108	keystroke_o	o	n/a
447.898	0.176	895796	keystroke_r	r	n/a
448.058	0.1515	896116	keystroke_a	a	n/a
448.2175	0.136	896435	keystroke_b	b	n/a
448.3615	0.1045	896723	keystroke_i	i	n/a
448.8015	0.2245	897603	keystroke_l	l	n/a
448.906	0.12	897812	keystroke_i	i	n/a
449.17	0.168	898340	keystroke_a	a	n/a
449.434	0.088	898868	keystroke_Key.space	Key.space	n/a
449.626	0.1755	899252	keystroke_a	a	n/a
449.7775	0.104	899555	keystroke_p	p	n/a
450.1695	0.112	900339	keystroke_n	n	n/a
450.6175	0.096	901235	keystroke_i	i	n/a
450.8175	0.1595	901635	keystroke_c	c	n/a
450.953	0.048	901906	keystroke_Key.enter	Key.enter	n/a
451.0055	6.38	902011	prompt	n/a	boundaries broke decorating welfare\n
451.6815	0.104	903363	keystroke_b	b	n/a
451.8015	0.2315	903603	keystroke_o	o	n/a
451.929	0.128	903858	keystroke_u	u	n/a
452.113	0.136	904226	keystroke_n	n	n/a
452.241	0.144	904482	keystroke_d	d	n/a
452.401	0.224	904802	keystroke_a	a	n/a
453.233	0.144	906466	keystroke_r	r	n/a
453.369	0.088	906738	keystroke_i	i	n/a
453.481	0.072	906962	keystroke_e	e	n/a
453.6725	0.136	907345	keystroke_s	s	n/a
453.7445	0.072	907489	keystroke_Key.space	Key.space	n/a
453.929	0.0875	907858	keystroke_b	b	n/a
454.0245	0.112	908049	keystroke_r	r	n/a
454.1205	0.0875	908241	keystroke_o	o	n/a
454.288	0.064	908576	keystroke_k	k	n/a
454.36	0.1165	908720	keystroke_e	e	n/a
454.484	0.0765	908968	keystroke_Key.space	Key.space	n/a
454.984	0.1845	909968	keystroke_d	d	n/a
455.1045	0.12	910209	keystroke_e	e	n/a
455.3045	0.104	910609	keystroke_c	c	n/a
455.3845	0.104	910769	keystroke_o	o	n/a
455.5445	0.144	911089	keystroke_r	r	n/a
455.6485	0.152	911297	keystroke_a	a	n/a
455.8565	0.104	911713	keystroke_t	t	n/a
455.9045	0.184	911809	keystroke_i	i	n/a
456.0485	0.1035	912097	keystroke_n	n	n/a
456.112	0.12	912224	keystroke_g	g	n/a
456.24	0.0635	912480	keystroke_Key.space	Key.space	n/a
456.3275	0.096	912655	keystroke_w	w	n/a
456.5115	0.128	913023	keystroke_e	e	n/a
456.5995	0.0805	913199	keystroke_l	l	n/a
456.768	0.168	913536	keystroke_f	f	n/a
456.912	0.1525	913824	keystroke_a	a	n/a
457.1445	0.1675	914289	keystroke_r	r	n/a
457.224	0.152	914448	keystroke_e	e	n/a
457.296	0.088	914592	keystroke_Key.enter	Key.enter	n/a
457.388	5.318	914776	prompt	n/a	missile flip learning seat\n
458.136	0.104	916272	keystroke_m	m	n/a
458.28	0.104	916560	keystroke_i	i	n/a
458.408	0.064	916816	keystroke_s	s	n/a
458.544	0.096	917088	keystroke_s	s	n/a
458.76	0.088	917520	keystroke_i	i	n/a
458.944	0.0965	917888	keystroke_l	l	n/a
459.0645	0.144	918129	keystroke_e	e	n/a
459.352	0.088	918704	keystroke_Key.space	Key.space	n/a
459.7045	0.1275	919409	keystroke_f	f	n/a
459.9685	0.24	919937	keystroke_l	l	n/a
460.0725	0.152	920145	keystroke_i	i	n/a
460.3365	0.1195	920673	keystroke_p	p	n/a
460.616	0.0885	921232	keystroke_Key.space	Key.space	n/a
460.8245	0.1115	921649	keystroke_l	l	n/a
460.912	0.2805	921824	keystroke_e	e	n/a
461.0085	0.16	922017	keystroke_a	a	n/a
461.1125	0.168	922225	keystroke_r	r	n/a
461.1685	0.104	922337	keystroke_n	n	n/a
461.3045	0.16	922609	keystroke_i	i	n/a
461.4165	0.088	922833	keystroke_n	n	n/a
461.4405	0.184	922881	keystroke_g	g	n/a
461.6165	0.088	923233	keystroke_Key.space	Key.space	n/a
461.8325	0.104	923665	keystroke_e	e	n/a
462.1765	0.096	924353	keystroke_Key.backspace	Key.backspace	n/a
462.3045	0.072	924609	keystroke_s	s	n/a
462.4645	0.168	924929	keystroke_e	e	n/a
462.4725	0.2	924945	keystroke_a	a	n/a
462.6085	0.096	925217	keystroke_Key.enter	Key.enter	n/a
462.7085	8.2125	925417	prompt	n/a	mystery denver outputs uploaded\n
463.5925	0.12	927185	keystroke_m	m	n/a
464.3285	0.1125	928657	keystroke_y	y	n/a
464.6005	0.096	929201	keystroke_s	s	n/a
464.7765	0.1685	929553	keystroke_t	t	n/a
464.865	0.1835	929730	keystroke_e	e	n/a
465.1205	0.1205	930241	keystroke_r	r	n/a
465.393	0.096	930786	keystroke_y	y	n/a
465.521	0.1195	931042	keystroke_Key.space	Key.space	n/a
465.905	0.1595	931810	keystroke_d	d	n/a
466.0245	0.152	932049	keystroke_e	e	n/a
466.1445	0.088	932289	keystroke_n	n	n/a
466.3285	0.144	932657	keystroke_v	v	n/a
466.4405	0.152	932881	keystroke_e	e	n/a
466.6245	0.152	933249	keystroke_r	r	n/a
466.7365	0.0885	933473	keystroke_Key.space	Key.space	n/a
467.385	0.256	934770	keystroke_o	o	n/a
467.489	0.12	934978	keystroke_u	u	n/a
467.865	0.096	935730	keystroke_p	p	n/a
468.1605	0.0805	936321	keystroke_Key.backspace	Key.backspace	n/a
468.313	0.136	936626	keystroke_t	t	n/a
468.489	0.08	936978	keystroke_p	p	n/a
468.761	0.088	937522	keystroke_u	u	n/a
468.865	0.168	937730	keystroke_t	t	n/a
469.009	0.1755	938018	keystroke_s	s	n/a
469.1765	0.0805	938353	keystroke_Key.space	Key.space	n/a
469.545	0.064	939090	keystroke_u	u	n/a
469.769	0.104	939538	keystroke_p	p	n/a
470.0085	0.08	940017	keystroke_l	l	n/a
470.1765	0.1195	940353	keystroke_o	o	n/a
470.2645	0.151	940529	keystroke_a	a	n/a
470.368	0.1235	940736	keystroke_d	d	n/a
470.5315	0.0955	941063	keystroke_e	e	n/a
470.683	0.149	941366	keystroke_d	d	n/a
470.824	0.096	941648	keystroke_Key.enter	Key.enter	n/a
470.9235	7.599	941847	prompt	n/a	cycling peace photographic untitled\n
471.584	0.072	943168	keystroke_c	c	n/a
471.84	0.08	943680	keystroke_y	y	n/a
471.984	0.08	943968	keystroke_l	l	n/a
472.1355	0.1155	944271	keystroke_c	c	n/a
472.4075	0.0605	944815	keystroke_Key.backspace	Key.backspace	n/a
472.528	0.0785	945056	keystroke_Key.backspace	Key.backspace	n/a
472.6465	0.136	945293	keystroke_c	c	n/a
473.0155	0.1995	946031	keystroke_l	l	n/a
473.127	0.1835	946254	keystroke_i	i	n/a
473.303	0.12	946606	keystroke_n	n	n/a
473.415	0.1515	946830	keystroke_g	g	n/a
473.5425	0.0495	947085	keystroke_Key.space	Key.space	n/a
473.696	0.0835	947392	keystroke_p	p	n/a
473.7975	0.1415	947595	keystroke_e	e	n/a
473.8655	0.0815	947731	keystroke_a	a	n/a
473.987	0.2155	947974	keystroke_c	c	n/a
474.0905	0.208	948181	keystroke_e	e	n/a
474.2345	0.08	948469	keystroke_Key.space	Key.space	n/a
474.507	0.096	949014	keystroke_p	p	n/a
474.707	0.128	949414	keystroke_h	h	n/a
474.811	0.088	949622	keystroke_o	o	n/a
474.979	0.128	949958	keystroke_t	t	n/a
475.051	0.096	950102	keystroke_o	o	n/a
475.243	0.096	950486	keystroke_g	g	n/a
475.427	0.144	950854	keystroke_r	r	n/a
475.491	0.1995	950982	keystroke_a	a	n/a
475.563	0.0875	951126	keystroke_p	p	n/a
475.7625	0.1315	951525	keystroke_h	h	n/a
475.858	0.124	951716	keystroke_i	i	n/a
475.942	0.1765	951884	keystroke_c	c	n/a
476.1185	0.128	952237	keystroke_h	h	n/a
476.567	0.0875	953134	keystroke_Key.backspace	Key.backspace	n/a
476.871	0.088	953742	keystroke_Key.space	Key.space	n/a
477.366	0.08	954732	keystroke_u	u	n/a
477.51	0.1285	955020	keystroke_n	n	n/a
477.6705	0.0715	955341	keystroke_t	t	n/a
477.734	0.0695	955468	keystroke_i	i	n/a
477.846	0.1075	955692	keystroke_t	t	n/a
477.9855	0.0795	955971	keystroke_l	l	n/a
478.089	0.089	956178	keystroke_e	e	n/a
478.298	0.1355	956596	keystroke_d	d	n/a
478.4175	0.104	956835	keystroke_Key.enter	Key.enter	n/a
478.5255	7.6725	957051	prompt	n/a	sells martial picks vbulletin\n
479.154	0.08	958308	keystroke_s	s	n/a
