onset	duration	sample	value	key	prompt_text
3.1505	11.2845	6301	prompt	n/a	the quick brown fox jumps over a lazy dog\n
4.611	0.001	9222	keystroke	t	n/a
4.612	0.042	9224	keystroke	h	n/a
4.7115	0.09	9423	keystroke	e	n/a
4.846	0.075	9692	keystroke	Key.space	n/a
4.9665	0.0895	9933	keystroke	q	n/a
5.087	0.12	10174	keystroke	u	n/a
5.162	0.12	10324	keystroke	i	n/a
5.297	0.135	10594	keystroke	c	n/a
5.448	0.104	10896	keystroke	k	n/a
5.522	0.1355	11044	keystroke	Key.space	n/a
5.7325	0.09	11465	keystroke	b	n/a
5.8525	0.09	11705	keystroke	r	n/a
5.9875	0.0755	11975	keystroke	o	n/a
6.077	0.091	12154	keystroke	w	n/a
6.153	0.09	12306	keystroke	n	n/a
6.244	0.119	12488	keystroke	Key.space	n/a
6.347	0.1055	12694	keystroke	f	n/a
6.4675	0.105	12935	keystroke	o	n/a
6.6475	0.09	13295	keystroke	x	n/a
6.6925	0.045	13385	keystroke	Key.space	n/a
6.7525	0.1495	13505	keystroke	Key.space	n/a
6.887	0.045	13774	keystroke	j	n/a
7.412	0.06	14824	keystroke	Key.backspace	n/a
7.577	0.06	15154	keystroke	Key.backspace	n/a
7.802	0.045	15604	keystroke	u	n/a
8.027	0.0905	16054	keystroke	m	n/a
8.372	0.045	16744	keystroke	Key.backspace	n/a
8.492	0.06	16984	keystroke	Key.backspace	n/a
8.702	0.06	17404	keystroke	j	n/a
8.8675	0.0605	17735	keystroke	u	n/a
9.0625	0.075	18125	keystroke	m	n/a
9.3025	0.0445	18605	keystroke	s	n/a
9.7525	0.09	19505	keystroke	Key.backspace	n/a
10.053	0.075	20106	keystroke	p	n/a
10.173	0.105	20346	keystroke	s	n/a
10.368	0.09	20736	keystroke	Key.space	n/a
10.878	0.075	21756	keystroke	o	n/a
10.983	0.15	21966	keystroke	v	n/a
11.148	0.105	22296	keystroke	e	n/a
11.193	0.105	22386	keystroke	r	n/a
11.328	0.075	22656	keystroke	Key.space	n/a
11.478	0.075	22956	keystroke	a	n/a
11.553	0.1195	23106	keystroke	Key.space	n/a
11.643	0.1045	23286	keystroke	l	n/a
11.7325	0.06	23465	keystroke	a	n/a
12.0325	0.015	24065	keystroke	y	n/a
12.062	0.045	24124	keystroke	z	n/a
12.363	0.045	24726	keystroke	Key.backspace	n/a
12.483	0.075	24966	keystroke	Key.backspace	n/a
12.588	0.09	25176	keystroke	z	n/a
12.738	0.075	25476	keystroke	y	n/a
12.798	0.105	25596	keystroke	Key.space	n/a
12.918	0.089	25836	keystroke	d	n/a
12.992	0.1205	25984	keystroke	o	n/a
13.0675	0.075	26135	keystroke	n	n/a
13.4875	0.06	26975	keystroke	Key.backspace	n/a
13.5625	0.1495	27125	keystroke	g	n/a
14.417	0.015	28834	keystroke	Key.enter	n/a
14.4385	5.1405	28877	prompt	n/a	lemon beside queens chat\n
15.6325	0.09	31265	keystroke	l	n/a
15.8125	0.06	31625	keystroke	e	n/a
15.8875	0.09	31775	keystroke	m	n/a
16.0975	0.075	32195	keystroke	o	n/a
16.1425	0.09	32285	keystroke	n	n/a
16.3225	0.075	32645	keystroke	Key.space	n/a
16.5325	0.09	33065	keystroke	b	n/a
16.6375	0.045	33275	keystroke	e	n/a
16.8175	0.075	33635	keystroke	s	n/a
16.9075	0.09	33815	keystroke	i	n/a
17.0125	0.06	34025	keystroke	d	n/a
17.162	0.075	34324	keystroke	e	n/a
17.372	0.03	34744	keystroke	s	n/a
17.732	0.105	35464	keystroke	Key.backspace	n/a
17.8825	0.09	35765	keystroke	Key.space	n/a
18.1675	0.135	36335	keystroke	q	n/a
18.2875	0.075	36575	keystroke	u	n/a
18.392	0.0755	36784	keystroke	e	n/a
18.527	0.105	37054	keystroke	e	n/a
18.647	0.045	37294	keystroke	n	n/a
18.722	0.06	37444	keystroke	s	n/a
18.797	0.09	37594	keystroke	Key.space	n/a
18.902	0.12	37804	keystroke	c	n/a
18.992	0.075	37984	keystroke	h	n/a
19.082	0.1055	38164	keystroke	a	n/a
19.218	0.0595	38436	keystroke	t	n/a
19.5175	0.06	39035	keystroke	Key.enter	n/a
19.584	5.59	39168	prompt	n/a	hollow afraid containers norman\n
20.178	0.09	40356	keystroke	h	n/a
20.283	0.09	40566	keystroke	o	n/a
20.493	0.044	40986	keystroke	l	n/a
20.627	0.045	41254	keystroke	l	n/a
20.717	0.105	41434	keystroke	o	n/a
20.838	0.059	41676	keystroke	w	n/a
20.927	0.105	41854	keystroke	Key.space	n/a
21.047	0.06	42094	keystroke	a	n/a
21.2125	0.12	42425	keystroke	f	n/a
21.4225	0.09	42845	keystroke	r	n/a
21.6175	0.0445	43235	keystroke	a	n/a
21.707	0.075	43414	keystroke	i	n/a
21.933	0.015	43866	keystroke	d	n/a
22.097	0.0905	44194	keystroke	Key.space	n/a
22.2025	0.075	44405	keystroke	c	n/a
22.2925	0.1045	44585	keystroke	o	n/a
22.352	0.1055	44704	keystroke	n	n/a
22.9675	0.06	45935	keystroke	t	n/a
23.1625	0.12	46325	keystroke	a	n/a
23.3575	0.15	46715	keystroke	i	n/a
23.4475	0.105	46895	keystroke	n	n/a
23.5675	0.135	47135	keystroke	e	n/a
23.6575	0.075	47315	keystroke	r	n/a
23.8525	0.1045	47705	keystroke	s	n/a
24.002	0.045	48004	keystroke	Key.space	n/a
24.257	0.075	48514	keystroke	n	n/a
24.408	0.105	48816	keystroke	o	n/a
24.497	0.091	48994	keystroke	r	n/a
24.602	0.075	49204	keystroke	m	n/a
24.737	0.09	49474	keystroke	a	n/a
24.797	0.076	49594	keystroke	n	n/a
25.082	0.09	50164	keystroke	Key.enter	n/a
25.177	5.397	50354	prompt	n/a	mandatory ascii whose diagnosis\n
25.7425	0.075	51485	keystroke	m	n/a
25.8325	0.105	51665	keystroke	a	n/a
25.9825	0.03	51965	keystroke	n	n/a
26.0275	0.0455	52055	keystroke	d	n/a
26.148	0.06	52296	keystroke	a	n/a
26.433	0.09	52866	keystroke	t	n/a
26.538	0.1195	53076	keystroke	o	n/a
26.6725	0.105	53345	keystroke	r	n/a
26.8675	0.09	53735	keystroke	y	n/a
26.9725	0.105	53945	keystroke	Key.space	n/a
27.2725	0.075	54545	keystroke	a	n/a
27.5725	0.075	55145	keystroke	s	n/a
27.8125	0.105	55625	keystroke	c	n/a
27.9475	0.06	55895	keystroke	i	n/a
28.1275	0.06	56255	keystroke	i	n/a
28.3075	0.09	56615	keystroke	Key.space	n/a
28.5775	0.105	57155	keystroke	w	n/a
28.6525	0.09	57305	keystroke	h	n/a
28.7725	0.105	57545	keystroke	o	n/a
28.8925	0.12	57785	keystroke	s	n/a
28.9975	0.075	57995	keystroke	e	n/a
29.0735	0.089	58147	keystroke	Key.space	n/a
29.2975	0.105	58595	keystroke	d	n/a
29.4175	0.09	58835	keystroke	i	n/a
29.5375	0.06	59075	keystroke	a	n/a
29.7475	0.105	59495	keystroke	g	n/a
29.8525	0.09	59705	keystroke	n	n/a
29.9725	0.105	59945	keystroke	o	n/a
30.0925	0.075	60185	keystroke	s	n/a
30.243	0.0445	60486	keystroke	i	n/a
30.3025	0.09	60605	keystroke	s	n/a
30.4675	0.105	60935	keystroke	Key.enter	n/a
30.583	6.5615	61166	prompt	n/a	arts prices wildlife basically\n
31.2175	0.105	62435	keystroke	a	n/a
31.4275	0.075	62855	keystroke	r	n/a
31.6075	0.06	63215	keystroke	t	n/a
31.7875	0.075	63575	keystroke	s	n/a
31.9075	0.075	63815	keystroke	Key.space	n/a
32.0275	0.0895	64055	keystroke	p	n/a
32.132	0.075	64264	keystroke	r	n/a
32.238	0.074	64476	keystroke	i	n/a
32.372	0.06	64744	keystroke	c	n/a
32.597	0.03	65194	keystroke	e	n/a
32.762	0.09	65524	keystroke	s	n/a
33.0325	0.0595	66065	keystroke	Key.space	n/a
33.273	0.135	66546	keystroke	w	n/a
33.378	0.0745	66756	keystroke	i	n/a
33.5125	0.09	67025	keystroke	l	n/a
33.6475	0.06	67295	keystroke	d	n/a
33.9325	0.1645	67865	keystroke	l	n/a
34.068	0.105	68136	keystroke	i	n/a
34.277	0.09	68554	keystroke	f	n/a
34.442	0.121	68884	keystroke	e	n/a
34.727	0.075	69454	keystroke	Key.space	n/a
34.952	0.09	69904	keystroke	b	n/a
35.012	0.075	70024	keystroke	a	n/a
35.192	0.06	70384	keystroke	s	n/a
35.282	0.06	70564	keystroke	i	n/a
35.403	0.015	70806	keystroke	c	n/a
35.583	0.105	71166	keystroke	a	n/a
35.748	0.0445	71496	keystroke	l	n/a
36.0325	0.03	72065	keystroke	y	n/a
36.0925	0.075	72185	keystroke	l	n/a
36.423	0.03	72846	keystroke	Key.backspace	n/a
36.513	0.075	73026	keystroke	Key.backspace	n/a
36.738	0.09	73476	keystroke	l	n/a
36.857	0.076	73714	keystroke	y	n/a
37.098	0.045	74196	keystroke	Key.enter	n/a
37.1485	7.106	74297	prompt	n/a	sodium darwin kenneth attending\n
37.7725	0.09	75545	keystroke	s	n/a
37.8325	0.0905	75665	keystroke	o	n/a
38.148	0.09	76296	keystroke	d	n/a
38.298	0.09	76596	keystroke	i	n/a
38.553	0.045	77106	keystroke	u	n/a
38.808	0.105	77616	keystroke	m	n/a
38.928	0.09	77856	keystroke	Key.space	n/a
39.1075	0.09	78215	keystroke	d	n/a
39.2575	0.105	78515	keystroke	a	n/a
39.9325	0.105	79865	keystroke	r	n/a
40.2025	0.105	80405	keystroke	w	n/a
40.548	0.075	81096	keystroke	i	n/a
40.698	0.12	81396	keystroke	n	n/a
40.833	0.105	81666	keystroke	Key.space	n/a
40.983	0.105	81966	keystroke	k	n/a
41.103	0.075	82206	keystroke	e	n/a
41.268	0.045	82536	keystroke	n	n/a
41.388	0.075	82776	keystroke	n	n/a
41.478	0.09	82956	keystroke	e	n/a
41.7625	0.075	83525	keystroke	t	n/a
41.8675	0.105	83735	keystroke	h	n/a
41.9575	0.12	83915	keystroke	Key.space	n/a
42.3325	0.09	84665	keystroke	a	n/a
42.738	0.075	85476	keystroke	t	n/a
42.903	0.06	85806	keystroke	t	n/a
43.0825	0.09	86165	keystroke	e	n/a
43.2025	0.075	86405	keystroke	n	n/a
43.3675	0.09	86735	keystroke	d	n/a
43.5475	0.09	87095	keystroke	i	n/a
43.5925	0.12	87185	keystroke	n	n/a
43.7875	0.06	87575	keystroke	g	n/a
44.1625	0.0905	88325	keystroke	Key.enter	n/a
44.2585	4.286	88517	prompt	n/a	height marie thomas laid\n
44.8825	0.0905	89765	keystroke	h	n/a
44.988	0.105	89976	keystroke	e	n/a
45.078	0.12	90156	keystroke	i	n/a
45.243	0.09	90486	keystroke	g	n/a
45.303	0.075	90606	keystroke	h	n/a
45.483	0.105	90966	keystroke	t	n/a
45.618	0.075	91236	keystroke	Key.space	n/a
45.888	0.105	91776	keystroke	m	n/a
46.233	0.09	92466	keystroke	a	n/a
46.443	0.105	92886	keystroke	r	n/a
46.563	0.09	93126	keystroke	i	n/a
46.728	0.09	93456	keystroke	e	n/a
46.848	0.105	93696	keystroke	Key.space	n/a
47.0725	0.09	94145	keystroke	t	n/a
47.1475	0.075	94295	keystroke	h	n/a
47.2675	0.135	94535	keystroke	o	n/a
47.4475	0.12	94895	keystroke	m	n/a
47.5375	0.105	95075	keystroke	a	n/a
47.7325	0.09	95465	keystroke	s	n/a
47.8375	0.09	95675	keystroke	Key.space	n/a
47.9425	0.12	95885	keystroke	l	n/a
48.048	0.0895	96096	keystroke	a	n/a
48.1675	0.09	96335	keystroke	i	n/a
48.3025	0.09	96605	keystroke	d	n/a
48.4525	0.0905	96905	keystroke	Key.enter	n/a
48.551	8.993	97102	prompt	n/a	pavilion cylinder treasure spec\n
49.1875	0.09	98375	keystroke	p	n/a
49.2925	0.075	98585	keystroke	a	n/a
49.5025	0.12	99005	keystroke	v	n/a
49.862	0.06	99724	keystroke	i	n/a
50.042	0.075	100084	keystroke	l	n/a
50.207	0.105	100414	keystroke	i	n/a
50.417	0.0905	100834	keystroke	o	n/a
50.582	0.09	101164	keystroke	n	n/a
50.702	0.105	101404	keystroke	Key.space	n/a
50.927	0.1205	101854	keystroke	c	n/a
51.0625	0.06	102125	keystroke	y	n/a
51.3025	0.0605	102605	keystroke	l	n/a
51.453	0.135	102906	keystroke	i	n/a
51.543	0.12	103086	keystroke	n	n/a
51.738	0.0895	103476	keystroke	d	n/a
52.0075	0.105	104015	keystroke	e	n/a
52.0975	0.0905	104195	keystroke	r	n/a
52.263	0.105	104526	keystroke	Key.space	n/a
52.578	0.06	105156	keystroke	t	n/a
52.743	0.06	105486	keystroke	r	n/a
52.893	0.09	105786	keystroke	e	n/a
53.073	0.09	106146	keystroke	a	n/a
53.268	0.09	106536	keystroke	s	n/a
53.373	0.09	106746	keystroke	u	n/a
53.523	0.075	107046	keystroke	r	n/a
53.7025	0.09	107405	keystroke	e	n/a
53.8375	0.0895	107675	keystroke	Key.space	n/a
54.1525	0.135	108305	keystroke	s	n/a
54.4075	0.03	108815	keystroke	e	n/a
54.4525	0.12	108905	keystroke	p	n/a
54.767	0.06	109534	keystroke	Key.backspace	n/a
54.902	0.0755	109804	keystroke	Key.backspace	n/a
55.157	0.045	110314	keystroke	e	n/a
55.187	0.06	110374	keystroke	p	n/a
55.4275	0.06	110855	keystroke	Key.backspace	n/a
55.5175	0.075	111035	keystroke	Key.backspace	n/a
55.9075	0.075	111815	keystroke	p	n/a
56.0875	0.06	112175	keystroke	e	n/a
56.3275	0.105	112655	keystroke	c	n/a
57.4825	0.06	114965	keystroke	Key.enter	n/a
57.547	7.242	115094	prompt	n/a	afterwards cabinet members atlas\n
58.5775	0.12	117155	keystroke	a	n/a
59.0575	0.09	118115	keystroke	f	n/a
59.2675	0.075	118535	keystroke	t	n/a
59.4625	0.075	118925	keystroke	e	n/a
59.4925	0.105	118985	keystroke	r	n/a
59.7025	0.06	119405	keystroke	w	n/a
59.853	0.06	119706	keystroke	a	n/a
60.003	0.1045	120006	keystroke	r	n/a
60.2125	0.105	120425	keystroke	d	n/a
60.3925	0.1205	120785	keystroke	s	n/a
60.633	0.075	121266	keystroke	Key.space	n/a
61.0675	0.09	122135	keystroke	c	n/a
61.277	0.075	122554	keystroke	a	n/a
61.367	0.046	122734	keystroke	b	n/a
61.562	0.106	123124	keystroke	i	n/a
61.653	0.135	123306	keystroke	n	n/a
61.803	0.104	123606	keystroke	e	n/a
61.982	0.06	123964	keystroke	t	n/a
62.1325	0.075	124265	keystroke	Key.space	n/a
62.3425	0.045	124685	keystroke	m	n/a
62.4325	0.105	124865	keystroke	e	n/a
62.5525	0.06	125105	keystroke	m	n/a
62.7475	0.075	125495	keystroke	b	n/a
62.8075	0.09	125615	keystroke	e	n/a
62.8525	0.105	125705	keystroke	r	n/a
63.0625	0.075	126125	keystroke	s	n/a
63.1825	0.03	126365	keystroke	Key.space	n/a
63.3775	0.03	126755	keystroke	a	n/a
63.7075	0.105	127415	keystroke	t	n/a
63.8875	0.075	127775	keystroke	l	n/a
63.9775	0.0895	127955	keystroke	a	n/a
64.172	0.105	128344	keystroke	s	n/a
64.727	0.06	129454	keystroke	Key.enter	n/a
64.7915	13.5425	129583	prompt	n/a	associates flood pendant acceptance\n
65.4775	0.105	130955	keystroke	a	n/a
65.7025	0.045	131405	keystroke	s	n/a
65.8225	0.09	131645	keystroke	s	n/a
66.6175	0.105	133235	keystroke	o	n/a
67.1125	0.09	134225	keystroke	c	n/a
67.2925	0.06	134585	keystroke	i	n/a
67.623	0.089	135246	keystroke	a	n/a
68.088	0.104	136176	keystroke	t	n/a
68.342	0.076	136684	keystroke	e	n/a
68.582	0.105	137164	keystroke	s	n/a
69.032	0.0455	138064	keystroke	Key.space	n/a
69.287	0.1205	138574	keystroke	f	n/a
69.392	0.06	138784	keystroke	l	n/a
69.573	0.06	139146	keystroke	o	n/a
69.692	0.09	139384	keystroke	o	n/a
69.857	0.075	139714	keystroke	d	n/a
70.0825	0.075	140165	keystroke	Key.space	n/a
72.0175	0.105	144035	keystroke	p	n/a
72.4075	0.045	144815	keystroke	i	n/a
72.752	0.075	145504	keystroke	Key.backspace	n/a
72.888	0.1045	145776	keystroke	e	n/a
73.3375	0.075	146675	keystroke	n	n/a
73.5175	0.105	147035	keystroke	d	n/a
73.7275	0.075	147455	keystroke	a	n/a
73.9675	0.06	147935	keystroke	n	n/a
74.2225	0.12	148445	keystroke	t	n/a
74.433	0.0745	148866	keystroke	Key.space	n/a
75.932	0.0905	151864	keystroke	a	n/a
76.1575	0.06	152315	keystroke	c	n/a
76.2625	0.105	152525	keystroke	c	n/a
76.6525	0.09	153305	keystroke	e	n/a
76.8475	0.075	153695	keystroke	p	n/a
76.9675	0.09	153935	keystroke	t	n/a
77.178	0.09	154356	keystroke	a	n/a
77.283	0.075	154566	keystroke	n	n/a
77.388	0.09	154776	keystroke	c	n/a
77.583	0.075	155166	keystroke	e	n/a
78.228	0.105	156456	keystroke	Key.enter	n/a
78.3365	7.1375	156673	prompt	n/a	north goto municipality handle\n
79.353	0.06	158706	keystroke	n	n/a
79.488	0.105	158976	keystroke	o	n/a
79.578	0.09	159156	keystroke	r	n/a
79.758	0.09	159516	keystroke	t	n/a
79.833	0.105	159666	keystroke	h	n/a
79.953	0.075	159906	keystroke	Key.space	n/a
80.268	0.09	160536	keystroke	g	n/a
80.373	0.06	160746	keystroke	o	n/a
80.463	0.09	160926	keystroke	t	n/a
80.583	0.105	161166	keystroke	o	n/a
80.733	0.105	161466	keystroke	Key.space	n/a
81.152	0.1055	162304	keystroke	m	n/a
81.4075	0.045	162815	keystroke	i	n/a
81.7975	0.09	163595	keystroke	Key.backspace	n/a
82.0825	0.075	164165	keystroke	u	n/a
82.2775	0.075	164555	keystroke	n	n/a
82.4575	0.075	164915	keystroke	i	n/a
82.7275	0.015	165455	keystroke	c	n/a
83.0125	0.06	166025	keystroke	i	n/a
83.2675	0.075	166535	keystroke	p	n/a
83.3875	0.105	166775	keystroke	a	n/a
83.5375	0.075	167075	keystroke	l	n/a
83.7625	0.075	167525	keystroke	i	n/a
83.8825	0.06	167765	keystroke	t	n/a
84.0625	0.06	168125	keystroke	y	n/a
84.3025	0.06	168605	keystroke	Key.space	n/a
84.4225	0.075	168845	keystroke	h	n/a
84.5125	0.09	169025	keystroke	a	n/a
84.6775	0.09	169355	keystroke	n	n/a
84.7825	0.09	169565	keystroke	d	n/a
84.9175	0.06	169835	keystroke	l	n/a
85.0075	0.09	170015	keystroke	e	n/a
85.3825	0.09	170765	keystroke	Key.enter	n/a
85.4765	7.5125	170953	prompt	n/a	chief coordinates either garage\n
86.4925	0.135	172985	keystroke	c	n/a
86.6125	0.06	173225	keystroke	h	n/a
86.9125	0.045	173825	keystroke	i	n/a
87.0925	0.075	174185	keystroke	e	n/a
87.3325	0.09	174665	keystroke	f	n/a
87.5425	0.09	175085	keystroke	Key.space	n/a
87.9025	0.12	175805	keystroke	c	n/a
87.9925	0.075	175985	keystroke	o	n/a
88.1425	0.09	176285	keystroke	o	n/a
88.2325	0.09	176465	keystroke	r	n/a
88.5025	0.09	177005	keystroke	d	n/a
88.6075	0.045	177215	keystroke	i	n/a
88.7725	0.0605	177545	keystroke	n	n/a
88.848	0.075	177696	keystroke	a	n/a
89.088	0.045	178176	keystroke	t	n/a
89.223	0.09	178446	keystroke	e	n/a
89.733	0.12	179466	keystroke	s	n/a
89.868	0.105	179736	keystroke	Key.space	n/a
90.1375	0.09	180275	keystroke	e	n/a
90.2425	0.12	180485	keystroke	i	n/a
90.3775	0.09	180755	keystroke	t	n/a
90.4975	0.075	180995	keystroke	h	n/a
90.5735	0.074	181147	keystroke	e	n/a
90.6025	0.105	181205	keystroke	r	n/a
90.7225	0.0745	181445	keystroke	Key.space	n/a
90.9925	0.0755	181985	keystroke	g	n/a
91.203	0.075	182406	keystroke	a	n/a
91.353	0.09	182706	keystroke	r	n/a
91.503	0.09	183006	keystroke	a	n/a
91.848	0.075	183696	keystroke	e	n/a
92.208	0.104	184416	keystroke	Key.backspace	n/a
92.297	0.105	184594	keystroke	g	n/a
92.448	0.075	184896	keystroke	e	n/a
92.912	0.075	185824	keystroke	Key.enter	n/a
92.9925	7.9765	185985	prompt	n/a	puzzles hottest berlin weblogs\n
94.142	0.09	188284	keystroke	p	n/a
94.383	0.089	188766	keystroke	u	n/a
94.832	0.031	189664	keystroke	x	n/a
94.982	0.046	189964	keystroke	z	n/a
95.357	0.045	190714	keystroke	Key.backspace	n/a
95.477	0.075	190954	keystroke	Key.backspace	n/a
95.582	0.046	191164	keystroke	z	n/a
95.718	0.059	191436	keystroke	z	n/a
95.822	0.06	191644	keystroke	l	n/a
96.077	0.09	192154	keystroke	e	n/a
96.512	0.09	193024	keystroke	s	n/a
96.647	0.09	193294	keystroke	Key.space	n/a
96.827	0.09	193654	keystroke	h	n/a
96.932	0.09	193864	keystroke	o	n/a
97.052	0.045	194104	keystroke	t	n/a
97.172	0.075	194344	keystroke	t	n/a
97.337	0.075	194674	keystroke	e	n/a
97.517	0.09	195034	keystroke	s	n/a
97.712	0.121	195424	keystroke	t	n/a
97.863	0.06	195726	keystroke	Key.space	n/a
98.028	0.09	196056	keystroke	b	n/a
98.103	0.12	196206	keystroke	e	n/a
98.178	0.105	196356	keystroke	r	n/a
98.358	0.075	196716	keystroke	l	n/a
98.463	0.12	196926	keystroke	i	n/a
98.583	0.105	197166	keystroke	n	n/a
98.883	0.075	197766	keystroke	Key.space	n/a
99.1375	0.09	198275	keystroke	w	n/a
99.5125	0.075	199025	keystroke	e	n/a
99.7075	0.06	199415	keystroke	b	n/a
100.142	0.075	200284	keystroke	l	n/a
100.3075	0.06	200615	keystroke	o	n/a
100.4875	0.09	200975	keystroke	g	n/a
100.6975	0.075	201395	keystroke	s	n/a
100.8925	0.075	201785	keystroke	Key.enter	n/a
100.9715	6.0125	201943	prompt	n/a	choir workstation method economics\n
101.6125	0.135	203225	keystroke	c	n/a
101.7025	0.105	203405	keystroke	h	n/a
101.8225	0.135	203645	keystroke	o	n/a
101.9725	0.1055	203945	keystroke	i	n/a
102.138	0.105	204276	keystroke	r	n/a
102.258	0.09	204516	keystroke	Key.space	n/a
102.543	0.105	205086	keystroke	w	n/a
102.678	0.09	205356	keystroke	o	n/a
102.768	0.09	205536	keystroke	r	n/a
102.918	0.0895	205836	keystroke	k	n/a
103.0675	0.075	206135	keystroke	s	n/a
103.2775	0.06	206555	keystroke	t	n/a
103.4425	0.09	206885	keystroke	a	n/a
103.7275	0.015	207455	keystroke	t	n/a
103.7575	0.165	207515	keystroke	i	n/a
103.8475	0.15	207695	keystroke	o	n/a
103.9075	0.12	207815	keystroke	n	n/a
104.0425	0.09	208085	keystroke	Key.space	n/a
104.267	0.0905	208534	keystroke	m	n/a
104.3725	0.06	208745	keystroke	e	n/a
104.5825	0.09	209165	keystroke	t	n/a
104.6575	0.06	209315	keystroke	h	n/a
104.8375	0.09	209675	keystroke	o	n/a
105.0925	0.105	210185	keystroke	d	n/a
105.2125	0.0895	210425	keystroke	Key.space	n/a
105.392	0.06	210784	keystroke	e	n/a
105.602	0.06	211204	keystroke	c	n/a
105.647	0.075	211294	keystroke	o	n/a
105.752	0.09	211504	keystroke	n	n/a
105.902	0.12	211804	keystroke	o	n/a
106.067	0.09	212134	keystroke	m	n/a
106.278	0.074	212556	keystroke	i	n/a
106.487	0.09	212974	keystroke	c	n/a
106.6825	0.105	213365	keystroke	s	n/a
106.8775	0.105	213755	keystroke	Key.enter	n/a
106.987	10.407	213974	prompt	n/a	descriptions minneapolis disciplinary shaw\n
107.6125	0.06	215225	keystroke	d	n/a
107.7925	0.06	215585	keystroke	e	n/a
107.9575	0.075	215915	keystroke	s	n/a
108.138	0.06	216276	keystroke	c	n/a
108.333	0.075	216666	keystroke	r	n/a
108.7375	0.09	217475	keystroke	i	n/a
108.9325	0.09	217865	keystroke	p	n/a
109.068	0.105	218136	keystroke	t	n/a
109.188	0.15	218376	keystroke	i	n/a
109.323	0.135	218646	keystroke	o	n/a
109.353	0.135	218706	keystroke	n	n/a
109.8025	0.105	219605	keystroke	s	n/a
109.9675	0.09	219935	keystroke	Key.space	n/a
110.6275	0.09	221255	keystroke	m	n/a
110.7925	0.075	221585	keystroke	i	n/a
110.9575	0.06	221915	keystroke	n	n/a
111.1075	0.06	222215	keystroke	n	n/a
111.1525	0.075	222305	keystroke	e	n/a
111.3325	0.075	222665	keystroke	a	n/a
111.7375	0.075	223475	keystroke	p	n/a
111.9175	0.06	223835	keystroke	o	n/a
112.0975	0.075	224195	keystroke	l	n/a
112.3525	0.06	224705	keystroke	i	n/a
112.4875	0.15	224975	keystroke	s	n/a
112.8325	0.105	225665	keystroke	Key.space	n/a
113.0125	0.105	226025	keystroke	d	n/a
113.2075	0.06	226415	keystroke	i	n/a
113.7775	0.03	227555	keystroke	s	n/a
114.032	0.1055	228064	keystroke	c	n/a
114.7825	0.09	229565	keystroke	i	n/a
115.2475	0.12	230495	keystroke	p	n/a
115.4575	0.12	230915	keystroke	l	n/a
115.7425	0.075	231485	keystroke	i	n/a
115.8775	0.105	231755	keystroke	n	n/a
115.9825	0.105	231965	keystroke	a	n/a
116.2375	0.106	232475	keystroke	r	n/a
116.3875	0.09	232775	keystroke	y	n/a
116.5075	0.06	233015	keystroke	Key.space	n/a
116.6725	0.0755	233345	keystroke	s	n/a
116.763	0.045	233526	keystroke	h	n/a
116.853	0.15	233706	keystroke	a	n/a
116.973	0.12	233946	keystroke	w	n/a
117.303	0.09	234606	keystroke	Key.enter	n/a
117.3975	5.4865	234795	prompt	n/a	ideas pool courses subscribe\n
117.948	0.075	235896	keystroke	i	n/a
118.068	0.09	236136	keystroke	d	n/a
118.263	0.045	236526	keystroke	e	n/a
118.4575	0.06	236915	keystroke	a	n/a
118.6225	0.105	237245	keystroke	s	n/a
118.7425	0.09	237485	keystroke	Key.space	n/a
118.8175	0.105	237635	keystroke	p	n/a
118.9825	0.06	237965	keystroke	o	n/a
119.372	0.046	238744	keystroke	o	n/a
119.583	0.105	239166	keystroke	l	n/a
119.718	0.09	239436	keystroke	Key.space	n/a
119.988	0.1495	239976	keystroke	c	n/a
120.1675	0.12	240335	keystroke	o	n/a
120.2425	0.105	240485	keystroke	u	n/a
120.3625	0.075	240725	keystroke	r	n/a
120.5275	0.135	241055	keystroke	s	n/a
120.6175	0.135	241235	keystroke	e	n/a
120.7675	0.105	241535	keystroke	s	n/a
120.9775	0.09	241955	keystroke	Key.space	n/a
121.3225	0.105	242645	keystroke	s	n/a
121.4725	0.15	242945	keystroke	u	n/a
121.6075	0.12	243215	keystroke	b	n/a
121.7125	0.075	243425	keystroke	s	n/a
121.8475	0.105	243695	keystroke	c	n/a
122.1025	0.09	244205	keystroke	r	n/a
122.2375	0.1055	244475	keystroke	i	n/a
122.4175	0.09	244835	keystroke	b	n/a
122.5525	0.075	245105	keystroke	e	n/a
122.7925	0.09	245585	keystroke	Key.enter	n/a
122.887	5.217	245774	prompt	n/a	verde zealand she'll probe\n
123.707	0.12	247414	keystroke	v	n/a
123.872	0.12	247744	keystroke	e	n/a
123.932	0.09	247864	keystroke	r	n/a
124.262	0.075	248524	keystroke	d	n/a
124.472	0.075	248944	keystroke	e	n/a
124.622	0.09	249244	keystroke	Key.space	n/a
125.0575	0.12	250115	keystroke	z	n/a
125.2825	0.075	250565	keystroke	e	n/a
125.4625	0.105	250925	keystroke	a	n/a
125.5825	0.06	251165	keystroke	l	n/a
125.6575	0.09	251315	keystroke	a	n/a
125.8075	0.075	251615	keystroke	n	n/a
125.9425	0.09	251885	keystroke	d	n/a
126.0775	0.105	252155	keystroke	Key.space	n/a
126.332	0.09	252664	keystroke	s	n/a
126.437	0.06	252874	keystroke	h	n/a
126.542	0.09	253084	keystroke	e	n/a
126.662	0.105	253324	keystroke	'	n/a
126.872	0.0605	253744	keystroke	l	n/a
127.0075	0.1045	254015	keystroke	l	n/a
127.127	0.09	254254	keystroke	Key.space	n/a
127.2475	0.0755	254495	keystroke	p	n/a
127.323	0.105	254646	keystroke	r	n/a
127.458	0.075	254916	keystroke	o	n/a
127.638	0.09	255276	keystroke	b	n/a
127.758	0.105	255516	keystroke	e	n/a
128.028	0.075	256056	keystroke	Key.enter	n/a
128.1065	6.8825	256213	prompt	n/a	soup simplified deny examining\n
128.613	0.135	257226	keystroke	s	n/a
128.838	0.1495	257676	keystroke	o	n/a
128.9725	0.09	257945	keystroke	u	n/a
129.1525	0.12	258305	keystroke	p	n/a
129.2575	0.075	258515	keystroke	Key.space	n/a
129.5725	0.12	259145	keystroke	s	n/a
129.6775	0.12	259355	keystroke	i	n/a
129.8125	0.105	259625	keystroke	m	n/a
130.0525	0.105	260105	keystroke	p	n/a
130.1125	0.09	260225	keystroke	l	n/a
130.3375	0.09	260675	keystroke	i	n/a
130.4875	0.06	260975	keystroke	d	n/a
130.8325	0.03	261665	keystroke	Key.backspace	n/a
130.9075	0.09	261815	keystroke	f	n/a
131.0875	0.075	262175	keystroke	i	n/a
131.3275	0.06	262655	keystroke	e	n/a
131.5075	0.09	263015	keystroke	d	n/a
131.612	0.075	263224	keystroke	Key.space	n/a
131.837	0.075	263674	keystroke	d	n/a
132.062	0.075	264124	keystroke	e	n/a
132.182	0.09	264364	keystroke	n	n/a
132.422	0.105	264844	keystroke	y	n/a
132.542	0.075	265084	keystroke	Key.space	n/a
132.602	0.09	265204	keystroke	a	n/a
133.0225	0.075	266045	keystroke	Key.backspace	n/a
133.0675	0.075	266135	keystroke	e	n/a
133.2775	0.09	266555	keystroke	x	n/a
133.4125	0.12	266825	keystroke	a	n/a
133.5925	0.09	267185	keystroke	m	n/a
133.8175	0.09	267635	keystroke	i	n/a
133.8775	0.09	267755	keystroke	n	n/a
134.0275	0.0905	268055	keystroke	i	n/a
134.103	0.075	268206	keystroke	n	n/a
134.3875	0.09	268775	keystroke	g	n/a
134.9275	0.0595	269855	keystroke	Key.enter	n/a
134.9925	7.3315	269985	prompt	n/a	country hardware stanley unnecessary\n
135.662	0.121	271324	keystroke	c	n/a
135.753	0.134	271506	keystroke	o	n/a
135.857	0.075	271714	keystroke	u	n/a
136.113	0.044	272226	keystroke	n	n/a
136.218	0.06	272436	keystroke	t	n/a
136.473	0.075	272946	keystroke	r	n/a
136.668	0.09	273336	keystroke	y	n/a
136.878	0.06	273756	keystroke	Key.space	n/a
137.1925	0.045	274385	keystroke	h	n/a
137.2525	0.0755	274505	keystroke	a	n/a
137.418	0.075	274836	keystroke	r	n/a
137.583	0.105	275166	keystroke	d	n/a
137.808	0.075	275616	keystroke	w	n/a
137.988	0.0745	275976	keystroke	a	n/a
138.2125	0.06	276425	keystroke	r	n/a
138.4225	0.0605	276845	keystroke	e	n/a
138.573	0.135	277146	keystroke	Key.space	n/a
138.843	0.09	277686	keystroke	s	n/a
139.053	0.06	278106	keystroke	t	n/a
139.233	0.0745	278466	keystroke	a	n/a
139.3225	0.075	278645	keystroke	n	n/a
139.4725	0.12	278945	keystroke	l	n/a
139.6075	0.105	279215	keystroke	e	n/a
139.7725	0.12	279545	keystroke	y	n/a
139.8775	0.075	279755	keystroke	Key.space	n/a
140.1025	0.105	280205	keystroke	u	n/a
140.1775	0.06	280355	keystroke	n	n/a
140.3275	0.09	280655	keystroke	n	n/a
140.5375	0.06	281075	keystroke	e	n/a
140.7775	0.075	281555	keystroke	c	n/a
141.153	0.09	282306	keystroke	e	n/a
141.363	0.045	282726	keystroke	s	n/a
141.468	0.06	282936	keystroke	s	n/a
141.618	0.075	283236	keystroke	a	n/a
141.813	0.06	283626	keystroke	r	n/a
141.978	0.075	283956	keystroke	y	n/a
142.2475	0.075	284495	keystroke	Key.enter	n/a
142.327	4.632	284654	prompt	n/a	story dirty dame reprints\n
142.9225	0.09	285845	keystroke	s	n/a
143.1475	0.075	286295	keystroke	t	n/a
143.2525	0.075	286505	keystroke	o	n/a
143.3425	0.09	286685	keystroke	r	n/a
143.5075	0.12	287015	keystroke	y	n/a
143.6285	0.074	287257	keystroke	Key.space	n/a
143.7625	0.09	287525	keystroke	d	n/a
143.898	0.044	287796	keystroke	i	n/a
143.987	0.0755	287974	keystroke	r	n/a
144.2275	0.105	288455	keystroke	t	n/a
144.3475	0.105	288695	keystroke	y	n/a
144.6925	0.09	289385	keystroke	Key.space	n/a
144.8125	0.075	289625	keystroke	d	n/a
144.9625	0.12	289925	keystroke	a	n/a
145.1275	0.09	290255	keystroke	m	n/a
145.2025	0.105	290405	keystroke	e	n/a
145.2925	0.075	290585	keystroke	Key.space	n/a
145.5175	0.06	291035	keystroke	r	n/a
145.6825	0.075	291365	keystroke	e	n/a
145.9375	0.075	291875	keystroke	p	n/a
146.073	0.105	292146	keystroke	r	n/a
146.208	0.09	292416	keystroke	i	n/a
146.4025	0.075	292805	keystroke	n	n/a
146.4925	0.075	292985	keystroke	t	n/a
146.6875	0.105	293375	keystroke	s	n/a
146.9125	0.045	293825	keystroke	Key.enter	n/a
146.9615	8.5025	293923	prompt	n/a	champion examined pregnant height\n
147.528	0.12	295056	keystroke	c	n/a
147.633	0.045	295266	keystroke	h	n/a
147.723	0.105	295446	keystroke	a	n/a
147.858	0.075	295716	keystroke	m	n/a
148.023	0.0895	296046	keystroke	p	n/a
148.2175	0.09	296435	keystroke	t	n/a
148.3225	0.12	296645	keystroke	i	n/a
148.4275	0.12	296855	keystroke	o	n/a
148.5025	0.105	297005	keystroke	n	n/a
148.6825	0.045	297365	keystroke	Key.space	n/a
149.0275	0.045	298055	keystroke	Key.backspace	n/a
149.1625	0.045	298325	keystroke	Key.backspace	n/a
149.2975	0.075	298595	keystroke	Key.backspace	n/a
149.4325	0.06	298865	keystroke	Key.backspace	n/a
149.5825	0.075	299165	keystroke	Key.backspace	n/a
150.003	0.075	300006	keystroke	i	n/a
150.198	0.15	300396	keystroke	o	n/a
150.378	0.09	300756	keystroke	n	n/a
150.723	0.045	301446	keystroke	Key.space	n/a
151.0675	0.075	302135	keystroke	e	n/a
151.2625	0.075	302525	keystroke	x	n/a
151.383	0.135	302766	keystroke	a	n/a
151.488	0.0895	302976	keystroke	m	n/a
151.6825	0.09	303365	keystroke	i	n/a
151.7125	0.12	303425	keystroke	n	n/a
151.8625	0.075	303725	keystroke	e	n/a
152.1625	0.075	304325	keystroke	d	n/a
152.2975	0.075	304595	keystroke	Key.space	n/a
152.6425	0.09	305285	keystroke	p	n/a
152.7325	0.06	305465	keystroke	r	n/a
152.8975	0.045	305795	keystroke	e	n/a
153.1525	0.03	306305	keystroke	g	n/a
153.3625	0.045	306725	keystroke	n	n/a
153.527	0.075	307054	keystroke	a	n/a
153.587	0.061	307174	keystroke	n	n/a
153.843	0.09	307686	keystroke	t	n/a
153.963	0.075	307926	keystroke	Key.space	n/a
154.1125	0.09	308225	keystroke	h	n/a
154.2175	0.075	308435	keystroke	e	n/a
154.3375	0.06	308675	keystroke	i	n/a
154.4575	0.075	308915	keystroke	g	n/a
154.5175	0.06	309035	keystroke	h	n/a
155.073	0.09	310146	keystroke	t	n/a
155.388	0.075	310776	keystroke	Key.enter	n/a
155.467	7.978	310934	prompt	n/a	experience american related conspiracy\n
156.078	0.105	312156	keystroke	e	n/a
156.303	0.12	312606	keystroke	x	n/a
156.423	0.09	312846	keystroke	p	n/a
156.603	0.06	313206	keystroke	e	n/a
156.768	0.075	313536	keystroke	r	n/a
156.858	0.045	313716	keystroke	i	n/a
156.978	0.06	313956	keystroke	e	n/a
157.128	0.075	314256	keystroke	n	n/a
157.233	0.1045	314466	keystroke	c	n/a
157.4125	0.09	314825	keystroke	e	n/a
157.533	0.06	315066	keystroke	Key.space	n/a
157.698	0.045	315396	keystroke	e	n/a
158.058	0.045	316116	keystroke	Key.backspace	n/a
158.103	0.1195	316206	keystroke	a	n/a
158.2975	0.075	316595	keystroke	m	n/a
158.4175	0.075	316835	keystroke	e	n/a
158.4475	0.105	316895	keystroke	r	n/a
158.6875	0.045	317375	keystroke	i	n/a
158.7775	0.0905	317555	keystroke	c	n/a
158.988	0.12	317976	keystroke	a	n/a
159.123	0.075	318246	keystroke	n	n/a
159.243	0.105	318486	keystroke	Key.space	n/a
159.3925	0.06	318785	keystroke	s	n/a
159.7075	0.075	319415	keystroke	Key.backspace	n/a
159.7835	0.059	319567	keystroke	r	n/a
159.9475	0.075	319895	keystroke	e	n/a
160.097	0.075	320194	keystroke	l	n/a
160.202	0.09	320404	keystroke	a	n/a
160.427	0.076	320854	keystroke	t	n/a
160.563	0.089	321126	keystroke	e	n/a
160.758	0.074	321516	keystroke	d	n/a
160.997	0.12	321994	keystroke	Key.space	n/a
161.132	0.105	322264	keystroke	c	n/a
161.253	0.09	322506	keystroke	o	n/a
161.312	0.105	322624	keystroke	n	n/a
161.522	0.09	323044	keystroke	s	n/a
161.717	0.075	323434	keystroke	p	n/a
161.897	0.09	323794	keystroke	i	n/a
161.957	0.1205	323914	keystroke	r	n/a
162.1975	0.075	324395	keystroke	a	n/a
162.812	0.075	325624	keystroke	c	n/a
163.052	0.045	326104	keystroke	y	n/a
163.382	0.06	326764	keystroke	Key.enter	n/a
163.4475	4.6765	326895	prompt	n/a	waiting barbara want gateway\n
164.012	0.075	328024	keystroke	w	n/a
164.177	0.09	328354	keystroke	a	n/a
164.252	0.09	328504	keystroke	i	n/a
164.432	0.075	328864	keystroke	t	n/a
164.492	0.105	328984	keystroke	i	n/a
164.552	0.105	329104	keystroke	n	n/a
164.658	0.119	329316	keystroke	g	n/a
164.762	0.105	329524	keystroke	Key.space	n/a
164.882	0.045	329764	keystroke	b	n/a
164.928	0.089	329856	keystroke	a	n/a
165.092	0.06	330184	keystroke	r	n/a
165.257	0.075	330514	keystroke	b	n/a
165.347	0.09	330694	keystroke	a	n/a
165.542	0.06	331084	keystroke	r	n/a
165.707	0.075	331414	keystroke	a	n/a
165.812	0.105	331624	keystroke	Key.space	n/a
166.022	0.06	332044	keystroke	w	n/a
166.157	0.1055	332314	keystroke	a	n/a
166.2925	0.09	332585	keystroke	n	n/a
166.4275	0.075	332855	keystroke	t	n/a
166.5475	0.105	333095	keystroke	Key.space	n/a
166.7275	0.09	333455	keystroke	g	n/a
166.9525	0.09	333905	keystroke	a	n/a
167.1925	0.06	334385	keystroke	t	n/a
167.2975	0.09	334595	keystroke	e	n/a
167.5675	0.06	335135	keystroke	w	n/a
167.7025	0.105	335405	keystroke	a	n/a
167.8075	0.09	335615	keystroke	y	n/a
168.0175	0.1045	336035	keystroke	Key.enter	n/a
168.1265	5.6225	336253	prompt	n/a	findings pants textbooks pensions\n
168.677	0.075	337354	keystroke	f	n/a
168.782	0.105	337564	keystroke	i	n/a
168.857	0.09	337714	keystroke	n	n/a
168.992	0.09	337984	keystroke	d	n/a
169.083	0.105	338166	keystroke	i	n/a
169.142	0.105	338284	keystroke	n	n/a
169.248	0.089	338496	keystroke	g	n/a
169.473	0.119	338946	keystroke	s	n/a
169.607	0.09	339214	keystroke	Key.space	n/a
169.712	0.1055	339424	keystroke	p	n/a
169.8325	0.12	339665	keystroke	a	n/a
169.9375	0.105	339875	keystroke	n	n/a
170.087	0.075	340174	keystroke	t	n/a
170.282	0.12	340564	keystroke	s	n/a
170.387	0.12	340774	keystroke	Key.space	n/a
170.567	0.075	341134	keystroke	t	n/a
170.687	0.075	341374	keystroke	e	n/a
170.897	0.105	341794	keystroke	x	n/a
171.122	0.061	342244	keystroke	t	n/a
171.3925	0.075	342785	keystroke	b	n/a
171.6025	0.075	343205	keystroke	o	n/a
171.7525	0.075	343505	keystroke	o	n/a
171.933	0.06	343866	keystroke	k	n/a
172.0525	0.1055	344105	keystroke	s	n/a
172.158	0.075	344316	keystroke	Key.space	n/a
172.293	0.105	344586	keystroke	p	n/a
172.458	0.06	344916	keystroke	e	n/a
172.518	0.09	345036	keystroke	n	n/a
172.8175	0.1055	345635	keystroke	s	n/a
172.908	0.12	345816	keystroke	i	n/a
172.9975	0.12	345995	keystroke	o	n/a
173.013	0.1345	346026	keystroke	n	n/a
173.2375	0.075	346475	keystroke	s	n/a
173.6725	0.075	347345	keystroke	Key.enter	n/a
173.752	5.997	347504	prompt	n/a	stay generic casting indiana\n
174.242	0.0905	348484	keystroke	s	n/a
174.4525	0.075	348905	keystroke	t	n/a
174.6325	0.12	349265	keystroke	a	n/a
174.7675	0.105	349535	keystroke	y	n/a
174.8575	0.09	349715	keystroke	Key.space	n/a
175.1875	0.105	350375	keystroke	g	n/a
175.3675	0.09	350735	keystroke	e	n/a
175.4725	0.075	350945	keystroke	n	n/a
175.5775	0.12	351155	keystroke	e	n/a
175.6675	0.12	351335	keystroke	r	n/a
175.9075	0.105	351815	keystroke	i	n/a
176.118	0.135	352236	keystroke	c	n/a
176.268	0.09	352536	keystroke	Key.space	n/a
176.538	0.0895	353076	keystroke	c	n/a
176.6875	0.075	353375	keystroke	a	n/a
176.8675	0.09	353735	keystroke	s	n/a
177.0775	0.06	354155	keystroke	t	n/a
177.1975	0.105	354395	keystroke	i	n/a
177.2725	0.1055	354545	keystroke	n	n/a
177.3475	0.1205	354695	keystroke	g	n/a
177.483	0.06	354966	keystroke	Key.space	n/a
177.798	0.135	355596	keystroke	i	n/a
177.903	0.105	355806	keystroke	n	n/a
178.158	0.06	356316	keystroke	i	n/a
178.473	0.06	356946	keystroke	Key.backspace	n/a
178.608	0.089	357216	keystroke	d	n/a
178.727	0.076	357454	keystroke	i	n/a
178.892	0.1055	357784	keystroke	a	n/a
179.0125	0.045	358025	keystroke	n	n/a
179.1025	0.09	358205	keystroke	a	n/a
179.6425	0.1045	359285	keystroke	Key.enter	n/a
179.754	5.53	359508	prompt	n/a	public options samuel impacts\n
180.347	0.105	360694	keystroke	p	n/a
180.602	0.06	361204	keystroke	u	n/a
180.782	0.075	361564	keystroke	b	n/a
180.977	0.06	361954	keystroke	l	n/a
181.097	0.075	362194	keystroke	i	n/a
181.217	0.12	362434	keystroke	c	n/a
181.352	0.075	362704	keystroke	Key.space	n/a
181.772	0.15	363544	keystroke	o	n/a
181.907	0.09	363814	keystroke	p	n/a
182.087	0.12	364174	keystroke	t	n/a
182.192	0.135	364384	keystroke	i	n/a
182.252	0.135	364504	keystroke	o	n/a
182.312	0.135	364624	keystroke	n	n/a
182.492	0.1205	364984	keystroke	s	n/a
182.6725	0.09	365345	keystroke	Key.space	n/a
182.8675	0.075	365735	keystroke	s	n/a
183.0475	0.12	366095	keystroke	a	n/a
183.1525	0.045	366305	keystroke	m	n/a
183.3325	0.0755	366665	keystroke	u	n/a
183.3925	0.0895	366785	keystroke	e	n/a
183.542	0.09	367084	keystroke	l	n/a
183.602	0.105	367204	keystroke	Key.space	n/a
183.7525	0.12	367505	keystroke	i	n/a
183.8425	0.1055	367685	keystroke	m	n/a
184.0525	0.0745	368105	keystroke	p	n/a
184.112	0.09	368224	keystroke	a	n/a
184.488	0.089	368976	keystroke	c	n/a
184.773	0.044	369546	keystroke	t	n/a
184.967	0.09	369934	keystroke	s	n/a
185.177	0.105	370354	keystroke	Key.enter	n/a
185.2865	4.8275	370573	prompt	n/a	income toshiba turn couldn't\n
185.927	0.12	371854	keystroke	i	n/a
186.092	0.0755	372184	keystroke	n	n/a
186.2125	0.09	372425	keystroke	c	n/a
186.4525	0.165	372905	keystroke	o	n/a
186.6025	0.105	373205	keystroke	m	n/a
186.7225	0.09	373445	keystroke	e	n/a
186.7825	0.12	373565	keystroke	Key.space	n/a
187.0075	0.075	374015	keystroke	t	n/a
187.0975	0.075	374195	keystroke	o	n/a
187.2775	0.09	374555	keystroke	s	n/a
187.3675	0.105	374735	keystroke	h	n/a
187.4575	0.1055	374915	keystroke	i	n/a
187.697	0.106	375394	keystroke	b	n/a
187.832	0.105	375664	keystroke	a	n/a
187.952	0.075	375904	keystroke	Key.space	n/a
188.162	0.075	376324	keystroke	t	n/a
188.252	0.075	376504	keystroke	u	n/a
188.357	0.105	376714	keystroke	r	n/a
188.463	0.089	376926	keystroke	n	n/a
188.567	0.09	377134	keystroke	Key.space	n/a
188.792	0.1355	377584	keystroke	c	n/a
188.8975	0.09	377795	keystroke	o	n/a
188.9425	0.09	377885	keystroke	u	n/a
189.1225	0.105	378245	keystroke	l	n/a
189.2575	0.06	378515	keystroke	d	n/a
189.3325	0.09	378665	keystroke	n	n/a
189.4825	0.1195	378965	keystroke	'	n/a
189.662	0.075	379324	keystroke	t	n/a
189.992	0.12	379984	keystroke	Key.enter	n/a
190.1185	6.1005	380237	prompt	n/a	arena adjustable grass wizard\n
190.682	0.075	381364	keystroke	a	n/a
190.862	0.075	381724	keystroke	r	n/a
191.147	0.075	382294	keystroke	e	n/a
191.342	0.06	382684	keystroke	n	n/a
191.417	0.09	382834	keystroke	a	n/a
191.567	0.075	383134	keystroke	Key.space	n/a
191.717	0.09	383434	keystroke	a	n/a
191.9875	0.09	383975	keystroke	d	n/a
192.3775	0.075	384755	keystroke	j	n/a
192.5575	0.09	385115	keystroke	u	n/a
192.8425	0.075	385685	keystroke	s	n/a
193.0375	0.06	386075	keystroke	t	n/a
193.2325	0.135	386465	keystroke	a	n/a
193.3225	0.075	386645	keystroke	b	n/a
193.4575	0.105	386915	keystroke	l	n/a
193.5775	0.165	387155	keystroke	e	n/a
193.7575	0.015	387515	keystroke	Key.space	n/a
193.8775	0.06	387755	keystroke	g	n/a
194.0575	0.075	388115	keystroke	r	n/a
194.2375	0.0745	388475	keystroke	a	n/a
194.432	0.03	388864	keystroke	s	n/a
194.537	0.075	389074	keystroke	s	n/a
194.627	0.105	389254	keystroke	Key.space	n/a
194.7775	0.0895	389555	keystroke	w	n/a
194.927	0.06	389854	keystroke	i	n/a
195.092	0.0755	390184	keystroke	z	n/a
195.272	0.075	390544	keystroke	a	n/a
195.5275	0.0895	391055	keystroke	r	n/a
195.7375	0.12	391475	keystroke	d	n/a
196.127	0.09	392254	keystroke	Key.enter	n/a
196.2315	4.352	392463	prompt	n/a	solo waste feeling event\n
196.7425	0.12	393485	keystroke	s	n/a
196.8325	0.09	393665	keystroke	o	n/a
197.042	0.045	394084	keystroke	l	n/a
197.162	0.12	394324	keystroke	o	n/a
197.297	0.1055	394594	keystroke	Key.space	n/a
197.5075	0.075	395015	keystroke	w	n/a
197.7025	0.105	395405	keystroke	a	n/a
197.8825	0.12	395765	keystroke	s	n/a
198.0775	0.09	396155	keystroke	t	n/a
198.2425	0.09	396485	keystroke	e	n/a
198.3625	0.09	396725	keystroke	Key.space	n/a
198.5125	0.09	397025	keystroke	f	n/a
198.7225	0.045	397445	keystroke	e	n/a
198.8425	0.105	397685	keystroke	e	n/a
198.9175	0.12	397835	keystroke	l	n/a
199.0825	0.135	398165	keystroke	i	n/a
199.1725	0.12	398345	keystroke	n	n/a
199.2625	0.105	398525	keystroke	g	n/a
199.3825	0.075	398765	keystroke	Key.space	n/a
199.5175	0.075	399035	keystroke	e	n/a
199.6975	0.105	399395	keystroke	v	n/a
199.8625	0.105	399725	keystroke	e	n/a
199.9525	0.075	399905	keystroke	n	n/a
200.087	0.075	400174	keystroke	t	n/a
200.493	0.09	400986	keystroke	Key.enter	n/a
200.5865	5.6225	401173	prompt	n/a	cents marriott addition crazy\n
201.227	0.135	402454	keystroke	c	n/a
201.407	0.0905	402814	keystroke	e	n/a
201.557	0.09	403114	keystroke	n	n/a
201.6625	0.0595	403325	keystroke	t	n/a
201.8575	0.1045	403715	keystroke	s	n/a
201.977	0.09	403954	keystroke	Key.space	n/a
202.262	0.0605	404524	keystroke	m	n/a
202.307	0.091	404614	keystroke	a	n/a
202.502	0.06	405004	keystroke	r	n/a
202.667	0.075	405334	keystroke	r	n/a
202.757	0.12	405514	keystroke	i	n/a
202.907	0.121	405814	keystroke	o	n/a
203.102	0.06	406204	keystroke	t	n/a
203.238	0.119	406476	keystroke	t	n/a
203.492	0.075	406984	keystroke	Key.space	n/a
203.568	0.0895	407136	keystroke	a	n/a
203.7475	0.06	407495	keystroke	d	n/a
203.8825	0.105	407765	keystroke	d	n/a
204.0025	0.1045	408005	keystroke	i	n/a
204.212	0.075	408424	keystroke	t	n/a
204.272	0.21	408544	keystroke	i	n/a
204.392	0.105	408784	keystroke	o	n/a
204.467	0.09	408934	keystroke	n	n/a
204.737	0.105	409474	keystroke	Key.space	n/a
204.857	0.12	409714	keystroke	c	n/a
205.022	0.105	410044	keystroke	r	n/a
205.232	0.045	410464	keystroke	a	n/a
205.412	0.135	410824	keystroke	z	n/a
205.562	0.09	411124	keystroke	y	n/a
206.132	0.075	412264	keystroke	Key.enter	n/a
206.214	6.0545	412428	prompt	n/a	won't tracks arnold portraits\n
206.7775	0.09	413555	keystroke	w	n/a
207.0925	0.1045	414185	keystroke	o	n/a
207.182	0.135	414364	keystroke	n	n/a
207.422	0.105	414844	keystroke	'	n/a
207.497	0.105	414994	keystroke	t	n/a
207.647	0.06	415294	keystroke	Key.space	n/a
207.857	0.075	415714	keystroke	t	n/a
208.0075	0.0745	416015	keystroke	r	n/a
208.188	0.074	416376	keystroke	a	n/a
208.412	0.075	416824	keystroke	c	n/a
208.532	0.09	417064	keystroke	k	n/a
208.638	0.074	417276	keystroke	s	n/a
208.727	0.09	417454	keystroke	Key.space	n/a
208.848	0.075	417696	keystroke	a	n/a
209.028	0.059	418056	keystroke	r	n/a
209.462	0.06	418924	keystroke	n	n/a
209.642	0.06	419284	keystroke	o	n/a
209.852	0.0905	419704	keystroke	l	n/a
210.018	0.074	420036	keystroke	d	n/a
210.122	0.09	420244	keystroke	Key.space	n/a
210.332	0.06	420664	keystroke	p	n/a
210.4675	0.105	420935	keystroke	o	n/a
210.5875	0.075	421175	keystroke	r	n/a
210.797	0.06	421594	keystroke	t	n/a
211.0825	0.105	422165	keystroke	r	n/a
211.3075	0.105	422615	keystroke	a	n/a
211.4575	0.075	422915	keystroke	i	n/a
211.6675	0.06	423335	keystroke	t	n/a
211.8925	0.105	423785	keystroke	s	n/a
212.147	0.1205	424294	keystroke	Key.enter	n/a
212.273	7.316	424546	prompt	n/a	ward moments quantities enhancements\n
212.9725	0.06	425945	keystroke	w	n/a
213.1375	0.09	426275	keystroke	a	n/a
213.3325	0.06	426665	keystroke	r	n/a
213.497	0.09	426994	keystroke	d	n/a
213.677	0.1355	427354	keystroke	Key.space	n/a
213.8275	0.075	427655	keystroke	m	n/a
213.9775	0.09	427955	keystroke	o	n/a
214.0375	0.075	428075	keystroke	m	n/a
214.1575	0.075	428315	keystroke	e	n/a
214.2775	0.09	428555	keystroke	n	n/a
214.3975	0.12	428795	keystroke	t	n/a
214.6975	0.12	429395	keystroke	s	n/a
215.0425	0.12	430085	keystroke	Key.space	n/a
215.5675	0.135	431135	keystroke	q	n/a
215.8825	0.06	431765	keystroke	u	n/a
215.9875	0.135	431975	keystroke	a	n/a
216.1975	0.06	432395	keystroke	n	n/a
216.4075	0.09	432815	keystroke	t	n/a
216.5275	0.0745	433055	keystroke	i	n/a
216.6775	0.075	433355	keystroke	t	n/a
216.7375	0.075	433475	keystroke	i	n/a
216.9325	0.075	433865	keystroke	e	n/a
217.1125	0.09	434225	keystroke	s	n/a
217.2625	0.09	434525	keystroke	Key.space	n/a
217.6825	0.09	435365	keystroke	e	n/a
217.7875	0.075	435575	keystroke	n	n/a
218.0575	0.0745	436115	keystroke	h	n/a
218.162	0.105	436324	keystroke	a	n/a
218.312	0.075	436624	keystroke	n	n/a
218.522	0.09	437044	keystroke	c	n/a
218.687	0.09	437374	keystroke	e	n/a
218.822	0.09	437644	keystroke	m	n/a
218.927	0.06	437854	keystroke	e	n/a
219.017	0.075	438034	keystroke	n	n/a
219.077	0.09	438154	keystroke	t	n/a
219.287	0.12	438574	keystroke	s	n/a
219.497	0.09	438994	keystroke	Key.enter	n/a
219.592	6.4615	439184	prompt	n/a	purchasing emission higher displayed\n
220.232	0.105	440464	keystroke	p	n/a
220.412	0.09	440824	keystroke	u	n/a
220.487	0.06	440974	keystroke	r	n/a
220.697	0.12	441394	keystroke	c	n/a
220.8475	0.0595	441695	keystroke	h	n/a
220.952	0.0605	441904	keystroke	a	n/a
221.147	0.075	442294	keystroke	s	n/a
221.237	0.09	442474	keystroke	i	n/a
221.312	0.1055	442624	keystroke	n	n/a
221.4325	0.09	442865	keystroke	g	n/a
221.5675	0.075	443135	keystroke	Key.space	n/a
221.7025	0.09	443405	keystroke	e	n/a
221.8075	0.075	443615	keystroke	m	n/a
221.9725	0.045	443945	keystroke	m	n/a
222.3775	0.045	444755	keystroke	Key.backspace	n/a
222.6175	0.06	445235	keystroke	i	n/a
222.7525	0.06	445505	keystroke	s	n/a
222.8875	0.105	445775	keystroke	s	n/a
222.9775	0.135	445955	keystroke	i	n/a
223.0825	0.135	446165	keystroke	o	n/a
223.1275	0.105	446255	keystroke	n	n/a
223.2925	0.09	446585	keystroke	Key.space	n/a
223.4575	0.06	446915	keystroke	h	n/a
223.5625	0.075	447125	keystroke	i	n/a
223.6825	0.12	447365	keystroke	g	n/a
223.7875	0.06	447575	keystroke	h	n/a
223.8625	0.12	447725	keystroke	e	n/a
223.9375	0.105	447875	keystroke	r	n/a
224.4025	0.1045	448805	keystroke	Key.space	n/a
224.552	0.075	449104	keystroke	d	n/a
224.642	0.0755	449284	keystroke	i	n/a
224.7325	0.0895	449465	keystroke	s	n/a
224.942	0.1205	449884	keystroke	p	n/a
225.0925	0.09	450185	keystroke	l	n/a
225.212	0.105	450424	keystroke	a	n/a
225.452	0.075	450904	keystroke	y	n/a
225.572	0.075	451144	keystroke	e	n/a
225.7675	0.09	451535	keystroke	d	n/a
226.0075	0.0445	452015	keystroke	Key.enter	n/a
226.0565	5.1885	452113	prompt	n/a	bride regions corps best\n
226.862	0.075	453724	keystroke	b	n/a
226.997	0.09	453994	keystroke	r	n/a
227.117	0.075	454234	keystroke	i	n/a
227.253	0.089	454506	keystroke	d	n/a
227.448	0.074	454896	keystroke	e	n/a
227.537	0.12	455074	keystroke	Key.space	n/a
227.672	0.06	455344	keystroke	r	n/a
227.822	0.06	455644	keystroke	e	n/a
228.1075	0.075	456215	keystroke	t	n/a
228.482	0.09	456964	keystroke	Key.backspace	n/a
228.557	0.075	457114	keystroke	g	n/a
228.782	0.135	457564	keystroke	i	n/a
228.902	0.12	457804	keystroke	o	n/a
228.947	0.12	457894	keystroke	n	n/a
229.112	0.105	458224	keystroke	s	n/a
229.262	0.09	458524	keystroke	Key.space	n/a
229.622	0.105	459244	keystroke	c	n/a
229.7875	0.09	459575	keystroke	o	n/a
229.8925	0.09	459785	keystroke	r	n/a
230.0275	0.075	460055	keystroke	p	n/a
230.1925	0.105	460385	keystroke	s	n/a
230.3275	0.09	460655	keystroke	Key.space	n/a
230.5375	0.105	461075	keystroke	b	n/a
230.6275	0.06	461255	keystroke	e	n/a
230.7925	0.09	461585	keystroke	s	n/a
230.9875	0.075	461975	keystroke	t	n/a
231.1375	0.105	462275	keystroke	Key.enter	n/a
231.2485	5.4555	462497	prompt	n/a	enabled genome coastal saying\n
231.8425	0.1195	463685	keystroke	e	n/a
232.022	0.075	464044	keystroke	n	n/a
232.127	0.09	464254	keystroke	a	n/a
232.247	0.075	464494	keystroke	b	n/a
232.412	0.1055	464824	keystroke	l	n/a
232.473	0.0745	464946	keystroke	e	n/a
232.7125	0.09	465425	keystroke	d	n/a
232.8325	0.105	465665	keystroke	Key.space	n/a
233.1925	0.075	466385	keystroke	g	n/a
233.3575	0.09	466715	keystroke	e	n/a
233.4625	0.06	466925	keystroke	n	n/a
233.6275	0.105	467255	keystroke	o	n/a
233.8375	0.0745	467675	keystroke	m	n/a
233.957	0.075	467914	keystroke	e	n/a
234.0475	0.0895	468095	keystroke	Key.space	n/a
234.362	0.075	468724	keystroke	c	n/a
234.527	0.09	469054	keystroke	o	n/a
234.677	0.075	469354	keystroke	a	n/a
234.872	0.06	469744	keystroke	s	n/a
235.052	0.06	470104	keystroke	t	n/a
235.2475	0.105	470495	keystroke	a	n/a
235.3525	0.09	470705	keystroke	l	n/a
235.5175	0.09	471035	keystroke	Key.space	n/a
235.7425	0.06	471485	keystroke	s	n/a
235.9225	0.09	471845	keystroke	a	n/a
236.0275	0.09	472055	keystroke	y	n/a
236.2525	0.12	472505	keystroke	i	n/a
236.3275	0.075	472655	keystroke	n	n/a
236.3875	0.105	472775	keystroke	g	n/a
236.6275	0.075	473255	keystroke	Key.enter	n/a
236.707	6.4615	473414	prompt	n/a	bind spelling auction duncan\n
237.2725	0.0745	474545	keystroke	b	n/a
237.422	0.135	474844	keystroke	i	n/a
237.512	0.105	475024	keystroke	n	n/a
237.602	0.12	475204	keystroke	d	n/a
237.737	0.06	475474	keystroke	Key.space	n/a
237.947	0.1055	475894	keystroke	s	n/a
238.022	0.0605	476044	keystroke	p	n/a
238.1425	0.075	476285	keystroke	e	n/a
238.2325	0.075	476465	keystroke	l	n/a
238.4125	0.075	476825	keystroke	l	n/a
238.5925	0.09	477185	keystroke	i	n/a
238.6225	0.105	477245	keystroke	n	n/a
238.7125	0.135	477425	keystroke	g	n/a
238.8625	0.06	477725	keystroke	Key.space	n/a
239.0125	0.075	478025	keystroke	a	n/a
239.2075	0.06	478415	keystroke	u	n/a
239.3425	0.06	478685	keystroke	d	n/a
239.7025	0.09	479405	keystroke	c	n/a
239.7175	0.015	479435	keystroke	Key.backspace	n/a
240.0175	0.0445	480035	keystroke	t	n/a
240.257	0.06	480514	keystroke	Key.backspace	n/a
240.362	0.12	480724	keystroke	Key.backspace	n/a
240.438	0.074	480876	keystroke	c	n/a
240.7225	0.075	481445	keystroke	t	n/a
240.8425	0.1195	481685	keystroke	i	n/a
240.947	0.12	481894	keystroke	o	n/a
240.992	0.105	481984	keystroke	n	n/a
241.172	0.105	482344	keystroke	Key.space	n/a
241.292	0.09	482584	keystroke	d	n/a
241.412	0.105	482824	keystroke	u	n/a
241.562	0.091	483124	keystroke	b	n/a
241.742	0.105	483484	keystroke	c	n/a
242.072	0.06	484144	keystroke	Key.backspace	n/a
242.192	0.075	484384	keystroke	Key.backspace	n/a
242.417	0.075	484834	keystroke	n	n/a
242.477	0.06	484954	keystroke	c	n/a
242.627	0.045	485254	keystroke	a	n/a
242.762	0.045	485524	keystroke	n	n/a
243.122	0.045	486244	keystroke	Key.enter	n/a
243.171	5.7875	486342	prompt	n/a	corpus subjects not lectures\n
243.7075	0.135	487415	keystroke	c	n/a
243.8425	0.09	487685	keystroke	o	n/a
243.9925	0.03	487985	keystroke	r	n/a
244.0975	0.045	488195	keystroke	p	n/a
244.3375	0.0745	488675	keystroke	u	n/a
244.457	0.09	488914	keystroke	s	n/a
244.532	0.075	489064	keystroke	Key.space	n/a
244.7575	0.09	489515	keystroke	s	n/a
244.8775	0.12	489755	keystroke	u	n/a
244.9825	0.075	489965	keystroke	b	n/a
245.2825	0.075	490565	keystroke	j	n/a
245.4025	0.09	490805	keystroke	e	n/a
245.5975	0.09	491195	keystroke	c	n/a
245.8225	0.06	491645	keystroke	t	n/a
246.0325	0.105	492065	keystroke	s	n/a
246.1525	0.18	492305	keystroke	Key.space	n/a
246.3025	0.12	492605	keystroke	n	n/a
246.3925	0.105	492785	keystroke	o	n/a
246.6175	0.075	493235	keystroke	t	n/a
246.7825	0.09	493565	keystroke	Key.space	n/a
246.9025	0.075	493805	keystroke	l	n/a
246.9325	0.06	493865	keystroke	e	n/a
247.1275	0.09	494255	keystroke	c	n/a
247.502	0.075	495004	keystroke	u	n/a
247.8925	0.075	495785	keystroke	Key.backspace	n/a
247.9525	0.12	495905	keystroke	t	n/a
248.103	0.1045	496206	keystroke	u	n/a
248.2225	0.0605	496445	keystroke	r	n/a
248.3875	0.09	496775	keystroke	e	n/a
248.5825	0.105	497165	keystroke	s	n/a
248.8825	0.075	497765	keystroke	Key.enter	n/a
248.9635	5.9055	497927	prompt	n/a	main powerful transmitted dance\n
249.512	0.12	499024	keystroke	m	n/a
249.647	0.12	499294	keystroke	a	n/a
249.782	0.0905	499564	keystroke	i	n/a
249.8575	0.09	499715	keystroke	n	n/a
249.9325	0.0895	499865	keystroke	Key.space	n/a
250.098	0.119	500196	keystroke	p	n/a
250.187	0.105	500374	keystroke	o	n/a
250.293	0.119	500586	keystroke	w	n/a
250.382	0.105	500764	keystroke	e	n/a
250.592	0.091	501184	keystroke	r	n/a
250.8475	0.075	501695	keystroke	f	n/a
250.9075	0.075	501815	keystroke	u	n/a
251.1625	0.105	502325	keystroke	l	n/a
251.2375	0.09	502475	keystroke	Key.space	n/a
251.6125	0.06	503225	keystroke	t	n/a
251.7625	0.075	503525	keystroke	r	n/a
251.9575	0.0905	503915	keystroke	a	n/a
252.0325	0.075	504065	keystroke	n	n/a
252.3475	0.105	504695	keystroke	s	n/a
252.5125	0.075	505025	keystroke	m	n/a
252.6925	0.075	505385	keystroke	i	n/a
252.978	0.074	505956	keystroke	t	n/a
253.097	0.09	506194	keystroke	t	n/a
253.277	0.09	506554	keystroke	e	n/a
253.502	0.136	507004	keystroke	d	n/a
253.712	0.06	507424	keystroke	Key.space	n/a
254.057	0.075	508114	keystroke	d	n/a
254.222	0.076	508444	keystroke	a	n/a
254.312	0.075	508624	keystroke	n	n/a
254.432	0.09	508864	keystroke	c	n/a
254.597	0.09	509194	keystroke	e	n/a
254.762	0.105	509524	keystroke	Key.enter	n/a
254.8815	6.002	509763	prompt	n/a	abstracts song cumulative complete\n
255.422	0.09	510844	keystroke	a	n/a
255.557	0.06	511114	keystroke	b	n/a
255.647	0.105	511294	keystroke	s	n/a
256.038	0.0595	512076	keystroke	t	n/a
256.2175	0.045	512435	keystroke	r	n/a
256.3825	0.06	512765	keystroke	a	n/a
256.5475	0.09	513095	keystroke	c	n/a
256.7875	0.06	513575	keystroke	t	n/a
256.9975	0.09	513995	keystroke	s	n/a
257.1175	0.075	514235	keystroke	Key.space	n/a
257.2525	0.0895	514505	keystroke	s	n/a
257.343	0.134	514686	keystroke	o	n/a
257.447	0.105	514894	keystroke	n	n/a
257.582	0.106	515164	keystroke	g	n/a
257.822	0.09	515644	keystroke	Key.space	n/a
258.032	0.0905	516064	keystroke	c	n/a
258.1375	0.06	516275	keystroke	u	n/a
258.3475	0.075	516695	keystroke	m	n/a
258.5425	0.06	517085	keystroke	u	n/a
258.7975	0.06	517595	keystroke	l	n/a
258.9025	0.06	517805	keystroke	a	n/a
259.1275	0.06	518255	keystroke	t	n/a
259.2925	0.075	518585	keystroke	i	n/a
259.3825	0.075	518765	keystroke	v	n/a
259.5325	0.09	519065	keystroke	e	n/a
259.6525	0.09	519305	keystroke	Key.space	n/a
259.8025	0.135	519605	keystroke	c	n/a
259.9225	0.105	519845	keystroke	o	n/a
259.9975	0.06	519995	keystroke	m	n/a
260.162	0.105	520324	keystroke	p	n/a
260.237	0.06	520474	keystroke	l	n/a
260.282	0.12	520564	keystroke	e	n/a
260.477	0.06	520954	keystroke	t	n/a
260.597	0.105	521194	keystroke	e	n/a
260.777	0.105	521554	keystroke	Key.enter	n/a
260.8865	5.172	521773	prompt	n/a	brutal mens accredited monitor\n
261.527	0.075	523054	keystroke	b	n/a
261.617	0.075	523234	keystroke	r	n/a
261.722	0.09	523444	keystroke	u	n/a
261.827	0.075	523654	keystroke	t	n/a
262.022	0.12	524044	keystroke	a	n/a
262.172	0.075	524344	keystroke	l	n/a
262.232	0.105	524464	keystroke	Key.space	n/a
262.382	0.075	524764	keystroke	m	n/a
262.472	0.045	524944	keystroke	e	n/a
262.577	0.09	525154	keystroke	n	n/a
262.742	0.09	525484	keystroke	s	n/a
262.862	0.075	525724	keystroke	Key.space	n/a
262.982	0.06	525964	keystroke	a	n/a
263.177	0.045	526354	keystroke	c	n/a
263.297	0.075	526594	keystroke	c	n/a
263.5225	0.06	527045	keystroke	r	n/a
263.702	0.045	527404	keystroke	e	n/a
263.8675	0.09	527735	keystroke	d	n/a
263.9875	0.075	527975	keystroke	i	n/a
264.1825	0.075	528365	keystroke	t	n/a
264.4525	0.09	528905	keystroke	e	n/a
264.6475	0.09	529295	keystroke	d	n/a
264.7525	0.135	529505	keystroke	Key.space	n/a
264.9325	0.06	529865	keystroke	m	n/a
265.0225	0.105	530045	keystroke	o	n/a
265.1125	0.1495	530225	keystroke	n	n/a
265.247	0.09	530494	keystroke	i	n/a
265.458	0.104	530916	keystroke	t	n/a
265.653	0.06	531306	keystroke	o	n/a
265.742	0.12	531484	keystroke	r	n/a
265.982	0.0755	531964	keystroke	Key.enter	n/a
266.0695	4.819	532139	prompt	n/a	locate marc petition subtle\n
266.702	0.075	533404	keystroke	l	n/a
266.837	0.09	533674	keystroke	o	n/a
266.972	0.075	533944	keystroke	c	n/a
267.092	0.12	534184	keystroke	a	n/a
267.3475	0.0745	534695	keystroke	t	n/a
267.482	0.12	534964	keystroke	e	n/a
267.587	0.12	535174	keystroke	Key.space	n/a
267.722	0.09	535444	keystroke	m	n/a
267.782	0.12	535564	keystroke	a	n/a
268.0075	0.06	536015	keystroke	r	n/a
268.218	0.1345	536436	keystroke	c	n/a
268.3225	0.12	536645	keystroke	Key.space	n/a
268.4575	0.075	536915	keystroke	p	n/a
268.5475	0.075	537095	keystroke	e	n/a
268.7125	0.105	537425	keystroke	t	n/a
268.8025	0.075	537605	keystroke	i	n/a
268.922	0.105	537844	keystroke	t	n/a
268.998	0.164	537996	keystroke	i	n/a
269.117	0.121	538234	keystroke	o	n/a
269.177	0.1355	538354	keystroke	n	n/a
269.4175	0.09	538835	keystroke	Key.space	n/a
269.8225	0.105	539645	keystroke	s	n/a
269.9275	0.105	539855	keystroke	u	n/a
270.0175	0.09	540035	keystroke	b	n/a
270.392	0.06	540784	keystroke	t	n/a
270.497	0.075	540994	keystroke	l	n/a
270.587	0.1055	541174	keystroke	e	n/a
270.8125	0.075	541625	keystroke	Key.enter	n/a
270.8915	6.4775	541783	prompt	n/a	terminal baseball button nike\n
271.487	0.075	542974	keystroke	t	n/a
271.668	0.105	543336	keystroke	e	n/a
271.743	0.089	543486	keystroke	r	n/a
271.892	0.135	543784	keystroke	m	n/a
272.087	0.075	544174	keystroke	i	n/a
272.133	0.119	544266	keystroke	n	n/a
272.282	0.12	544564	keystroke	a	n/a
272.432	0.076	544864	keystroke	l	n/a
272.492	0.075	544984	keystroke	Key.space	n/a
272.688	0.074	545376	keystroke	b	n/a
272.778	0.09	545556	keystroke	a	n/a
273.033	0.059	546066	keystroke	d	n/a
273.377	0.0755	546754	keystroke	Key.backspace	n/a
273.437	0.165	546874	keystroke	s	n/a
273.5875	0.1045	547175	keystroke	e	n/a
273.903	0.059	547806	keystroke	b	n/a
274.022	0.1205	548044	keystroke	a	n/a
274.1575	0.03	548315	keystroke	l	n/a
274.3075	0.06	548615	keystroke	l	n/a
274.7425	0.09	549485	keystroke	Key.space	n/a
274.9225	0.09	549845	keystroke	b	n/a
275.0425	0.075	550085	keystroke	u	n/a
275.1775	0.075	550355	keystroke	t	n/a
275.3425	0.09	550685	keystroke	t	n/a
275.5375	0.06	551075	keystroke	o	n/a
276.047	0.045	552094	keystroke	n	n/a
276.1975	0.075	552395	keystroke	Key.space	n/a
276.3625	0.075	552725	keystroke	n	n/a
276.4975	0.06	552995	keystroke	i	n/a
276.7075	0.045	553415	keystroke	k	n/a
276.7975	0.075	553595	keystroke	e	n/a
277.307	0.06	554614	keystroke	Key.enter	n/a
277.38	14.4035	554760	prompt	n/a	caught contemporary duplicate specialized\n
278.477	0.12	556954	keystroke	c	n/a
280.4875	0.135	560975	keystroke	a	n/a
280.6225	0.075	561245	keystroke	u	n/a
280.7575	0.09	561515	keystroke	g	n/a
280.9075	0.045	561815	keystroke	h	n/a
281.0275	0.09	562055	keystroke	t	n/a
281.3125	0.075	562625	keystroke	Key.space	n/a
281.6125	0.09	563225	keystroke	p	n/a
281.8075	0.075	563615	keystroke	r	n/a
282.2125	0.06	564425	keystroke	Key.backspace	n/a
282.3475	0.075	564695	keystroke	Key.backspace	n/a
282.4825	0.09	564965	keystroke	c	n/a
282.6925	0.075	565385	keystroke	o	n/a
282.7975	0.03	565595	keystroke	o	n/a
283.5175	0.06	567035	keystroke	n	n/a
283.7425	0.045	567485	keystroke	t	n/a
284.0275	0.045	568055	keystroke	Key.backspace	n/a
284.2975	0.075	568595	keystroke	Key.backspace	n/a
284.4475	0.09	568895	keystroke	Key.backspace	n/a
284.9125	0.06	569825	keystroke	n	n/a
285.1825	0.075	570365	keystroke	t	n/a
285.3325	0.12	570665	keystroke	e	n/a
285.4375	0.09	570875	keystroke	m	n/a
285.5875	0.1345	571175	keystroke	p	n/a
285.707	0.09	571414	keystroke	o	n/a
285.872	0.075	571744	keystroke	r	n/a
286.0675	0.075	572135	keystroke	a	n/a
286.3075	0.12	572615	keystroke	r	n/a
286.8175	0.06	573635	keystroke	y	n/a
286.9225	0.105	573845	keystroke	Key.space	n/a
287.3575	0.0445	574715	keystroke	d	n/a
287.432	0.075	574864	keystroke	u	n/a
288.047	0.105	576094	keystroke	p	n/a
288.227	0.075	576454	keystroke	l	n/a
288.437	0.06	576874	keystroke	i	n/a
288.662	0.0905	577324	keystroke	c	n/a
288.8425	0.12	577685	keystroke	a	n/a
289.1275	0.09	578255	keystroke	t	n/a
289.3075	0.105	578615	keystroke	e	n/a
289.6525	0.105	579305	keystroke	Key.space	n/a
289.8175	0.105	579635	keystroke	s	n/a
289.8925	0.09	579785	keystroke	p	n/a
290.0125	0.06	580025	keystroke	e	n/a
290.2075	0.09	580415	keystroke	c	n/a
290.2975	0.06	580595	keystroke	i	n/a
290.4025	0.105	580805	keystroke	a	n/a
290.4925	0.075	580985	keystroke	l	n/a
290.6875	0.105	581375	keystroke	i	n/a
290.8975	0.1195	581795	keystroke	z	n/a
291.1525	0.075	582305	keystroke	e	n/a
291.4225	0.105	582845	keystroke	d	n/a
291.707	0.075	583414	keystroke	Key.enter	n/a
291.786	7.138	583572	prompt	n/a	pirates locked sealed minimize\n
292.352	0.1205	584704	keystroke	p	n/a
292.5475	0.105	585095	keystroke	i	n/a
292.8475	0.075	585695	keystroke	r	n/a
293.0725	0.075	586145	keystroke	a	n/a
293.3275	0.105	586655	keystroke	t	n/a
293.5525	0.09	587105	keystroke	e	n/a
293.7775	0.0895	587555	keystroke	s	n/a
294.017	0.105	588034	keystroke	Key.space	n/a
294.302	0.0455	588604	keystroke	l	n/a
294.4225	0.09	588845	keystroke	o	n/a
294.5275	0.135	589055	keystroke	c	n/a
294.6175	0.075	589235	keystroke	k	n/a
294.7525	0.075	589505	keystroke	e	n/a
294.9625	0.12	589925	keystroke	d	n/a
295.1125	0.0895	590225	keystroke	Key.space	n/a
295.457	0.075	590914	keystroke	e	n/a
295.832	0.06	591664	keystroke	Key.backspace	n/a
295.877	0.105	591754	keystroke	s	n/a
295.952	0.09	591904	keystroke	e	n/a
296.162	0.12	592324	keystroke	a	n/a
296.327	0.075	592654	keystroke	l	n/a
296.507	0.075	593014	keystroke	e	n/a
296.717	0.09	593434	keystroke	d	n/a
296.837	0.06	593674	keystroke	Key.space	n/a
297.062	0.075	594124	keystroke	m	n/a
297.227	0.09	594454	keystroke	i	n/a
297.287	0.121	594574	keystroke	n	n/a
297.468	0.105	594936	keystroke	i	n/a
297.782	0.061	595564	keystroke	m	n/a
297.9175	0.09	595835	keystroke	i	n/a
298.112	0.121	596224	keystroke	z	n/a
298.427	0.06	596854	keystroke	e	n/a
298.832	0.09	597664	keystroke	Key.enter	n/a
298.9265	7.737	597853	prompt	n/a	still expired specifications dozen\n
299.5375	0.105	599075	keystroke	s	n/a
299.8225	0.075	599645	keystroke	t	n/a
299.9125	0.09	599825	keystroke	i	n/a
300.107	0.06	600214	keystroke	l	n/a
300.257	0.09	600514	keystroke	l	n/a
300.362	0.1055	600724	keystroke	Key.space	n/a
300.4675	0.03	600935	keystroke	e	n/a
300.6925	0.135	601385	keystroke	x	n/a
301.0075	0.195	602015	keystroke	p	n/a
301.4125	0.09	602825	keystroke	i	n/a
301.7125	0.09	603425	keystroke	r	n/a
301.9375	0.045	603875	keystroke	e	n/a
302.1025	0.09	604205	keystroke	d	n/a
302.3875	0.135	604775	keystroke	Key.space	n/a
302.6725	0.12	605345	keystroke	s	n/a
302.8375	0.09	605675	keystroke	p	n/a
302.9575	0.075	605915	keystroke	e	n/a
303.2275	0.12	606455	keystroke	c	n/a
303.3325	0.075	606665	keystroke	i	n/a
303.5875	0.09	607175	keystroke	f	n/a
303.7075	0.075	607415	keystroke	i	n/a
303.8425	0.105	607685	keystroke	c	n/a
303.9775	0.12	607955	keystroke	a	n/a
304.2325	0.075	608465	keystroke	t	n/a
304.3975	0.105	608795	keystroke	i	n/a
304.757	0.105	609514	keystroke	o	n/a
304.982	0.075	609964	keystroke	n	n/a
305.087	0.105	610174	keystroke	s	n/a
305.297	0.09	610594	keystroke	Key.space	n/a
305.807	0.075	611614	keystroke	d	n/a
305.897	0.075	611794	keystroke	o	n/a
306.017	0.105	612034	keystroke	z	n/a
306.257	0.045	612514	keystroke	e	n/a
306.3475	0.0895	612695	keystroke	n	n/a
306.5875	0.075	613175	keystroke	Key.enter	n/a
306.666	5.4125	613332	prompt	n/a	essentials lite specials charger\n
307.2625	0.075	614525	keystroke	e	n/a
307.472	0.045	614944	keystroke	s	n/a
307.607	0.06	615214	keystroke	s	n/a
307.772	0.075	615544	keystroke	e	n/a
307.907	0.06	615814	keystroke	n	n/a
308.057	0.075	616114	keystroke	t	n/a
308.162	0.075	616324	keystroke	i	n/a
308.297	0.1205	616594	keystroke	a	n/a
308.4325	0.06	616865	keystroke	l	n/a
308.5375	0.105	617075	keystroke	s	n/a
308.9275	0.15	617855	keystroke	Key.space	n/a
309.0925	0.105	618185	keystroke	l	n/a
309.1525	0.12	618305	keystroke	i	n/a
309.2875	0.06	618575	keystroke	t	n/a
309.4225	0.09	618845	keystroke	e	n/a
309.5425	0.075	619085	keystroke	Key.space	n/a
309.6475	0.105	619295	keystroke	s	n/a
309.7375	0.09	619475	keystroke	p	n/a
309.8125	0.09	619625	keystroke	e	n/a
310.052	0.105	620104	keystroke	c	n/a
310.158	0.074	620316	keystroke	i	n/a
310.247	0.12	620494	keystroke	a	n/a
310.397	0.075	620794	keystroke	l	n/a
310.517	0.09	621034	keystroke	s	n/a
310.667	0.075	621334	keystroke	Key.space	n/a
310.832	0.12	621664	keystroke	c	n/a
310.967	0.075	621934	keystroke	h	n/a
311.027	0.105	622054	keystroke	a	n/a
311.222	0.09	622444	keystroke	r	n/a
311.387	0.105	622774	keystroke	g	n/a
311.552	0.15	623104	keystroke	e	n/a
311.687	0.06	623374	keystroke	r	n/a
312.002	0.075	624004	keystroke	Key.enter	n/a
312.081	12.2675	624162	prompt	n/a	jets renewable spirituality survey\n
312.707	0.105	625414	keystroke	j	n/a
312.962	0.105	625924	keystroke	e	n/a
313.172	0.075	626344	keystroke	t	n/a
313.382	0.09	626764	keystroke	s	n/a
313.517	0.09	627034	keystroke	Key.space	n/a
313.667	0.03	627334	keystroke	n	n/a
314.042	0.1205	628084	keystroke	Key.backspace	n/a
314.1775	0.015	628355	keystroke	r	n/a
314.2975	0.09	628595	keystroke	e	n/a
314.4325	0.09	628865	keystroke	n	n/a
314.5375	0.105	629075	keystroke	e	n/a
314.8525	0.0895	629705	keystroke	r	n/a
315.512	0.0755	631024	keystroke	w	n/a
315.677	0.045	631354	keystroke	Key.backspace	n/a
315.827	0.06	631654	keystroke	Key.backspace	n/a
315.872	0.075	631744	keystroke	w	n/a
316.083	0.12	632166	keystroke	a	n/a
316.217	0.046	632434	keystroke	b	n/a
316.367	0.105	632734	keystroke	l	n/a
316.487	0.075	632974	keystroke	e	n/a
316.712	0.075	633424	keystroke	Key.space	n/a
316.818	0.119	633636	keystroke	s	n/a
316.952	0.061	633904	keystroke	p	n/a
317.147	0.075	634294	keystroke	i	n/a
317.267	0.09	634534	keystroke	r	n/a
317.432	0.09	634864	keystroke	i	n/a
317.763	0.074	635526	keystroke	u	n/a
318.1375	0.03	636275	keystroke	Key.backspace	n/a
318.2125	0.12	636425	keystroke	t	n/a
318.362	0.075	636724	keystroke	u	n/a
318.497	0.165	636994	keystroke	a	n/a
318.603	0.044	637206	keystroke	l	n/a
318.722	0.105	637444	keystroke	l	n/a
318.932	0.105	637864	keystroke	y	n/a
319.022	0.1205	638044	keystroke	Key.space	n/a
319.127	0.1355	638254	keystroke	s	n/a
319.2775	0.06	638555	keystroke	u	n/a
319.3525	0.09	638705	keystroke	r	n/a
320.267	0.045	640534	keystroke	Key.backspace	n/a
320.402	0.075	640804	keystroke	Key.backspace	n/a
320.567	0.045	641134	keystroke	Key.backspace	n/a
320.687	0.06	641374	keystroke	Key.backspace	n/a
320.837	0.06	641674	keystroke	Key.backspace	n/a
321.092	0.06	642184	keystroke	Key.backspace	n/a
321.812	0.09	643624	keystroke	i	n/a
321.962	0.105	643924	keystroke	t	n/a
322.112	0.09	644224	keystroke	y	n/a
322.322	0.09	644644	keystroke	Key.space	n/a
322.532	0.12	645064	keystroke	s	n/a
322.667	0.09	645334	keystroke	u	n/a
323.132	0.06	646264	keystroke	r	n/a
323.327	0.12	646654	keystroke	v	n/a
323.492	0.15	646984	keystroke	e	n/a
323.8375	0.09	647675	keystroke	y	n/a
324.2425	0.105	648485	keystroke	Key.enter	n/a
324.351	6.5075	648702	prompt	n/a	nutten culture contributions written\n
325.0375	0.09	650075	keystroke	n	n/a
325.202	0.075	650404	keystroke	u	n/a
325.4575	0.015	650915	keystroke	t	n/a
325.5625	0.075	651125	keystroke	t	n/a
325.7875	0.105	651575	keystroke	e	n/a
325.9225	0.09	651845	keystroke	n	n/a
326.0275	0.105	652055	keystroke	Key.space	n/a
326.267	0.12	652534	keystroke	c	n/a
326.402	0.06	652804	keystroke	u	n/a
326.582	0.075	653164	keystroke	l	n/a
326.702	0.1055	653404	keystroke	t	n/a
326.837	0.09	653674	keystroke	u	n/a
326.957	0.075	653914	keystroke	r	n/a
327.152	0.09	654304	keystroke	e	n/a
327.302	0.09	654604	keystroke	Key.space	n/a
327.767	0.1355	655534	keystroke	c	n/a
327.872	0.1055	655744	keystroke	o	n/a
327.9475	0.1205	655895	keystroke	n	n/a
328.142	0.075	656284	keystroke	t	n/a
328.337	0.09	656674	keystroke	r	n/a
328.457	0.075	656914	keystroke	i	n/a
328.727	0.0455	657454	keystroke	b	n/a
328.8325	0.09	657665	keystroke	u	n/a
329.0125	0.09	658025	keystroke	t	n/a
329.1325	0.18	658265	keystroke	i	n/a
329.2225	0.165	658445	keystroke	o	n/a
329.2975	0.12	658595	keystroke	n	n/a
329.4325	0.12	658865	keystroke	s	n/a
329.5675	0.075	659135	keystroke	Key.space	n/a
329.6875	0.12	659375	keystroke	w	n/a
329.927	0.075	659854	keystroke	r	n/a
330.0625	0.09	660125	keystroke	i	n/a
330.1825	0.06	660365	keystroke	t	n/a
330.3175	0.075	660635	keystroke	t	n/a
330.4675	0.09	660935	keystroke	e	n/a
330.5425	0.0895	661085	keystroke	n	n/a
330.797	0.06	661594	keystroke	Key.enter	n/a
330.863	9.9255	661726	prompt	n/a	petroleum johnny communist occurs\n
331.442	0.09	662884	keystroke	p	n/a
331.697	0.075	663394	keystroke	e	n/a
331.997	0.0605	663994	keystroke	t	n/a
332.2375	0.09	664475	keystroke	r	n/a
332.3425	0.06	664685	keystroke	o	n/a
332.5375	0.105	665075	keystroke	l	n/a
332.6875	0.09	665375	keystroke	e	n/a
332.9575	0.075	665915	keystroke	u	n/a
333.3025	0.09	666605	keystroke	m	n/a
333.4075	0.09	666815	keystroke	Key.space	n/a
333.6325	0.09	667265	keystroke	j	n/a
333.812	0.075	667624	keystroke	o	n/a
334.1265	0.075	668253	keystroke	h	n/a
334.397	0.06	668794	keystroke	n	n/a
334.5325	0.074	669065	keystroke	n	n/a
334.7725	0.09	669545	keystroke	y	n/a
334.8775	0.105	669755	keystroke	Key.space	n/a
335.102	0.135	670204	keystroke	c	n/a
335.117	0.031	670234	keystroke	o	n/a
335.7925	0.06	671585	keystroke	m	n/a
335.8975	0.12	671795	keystroke	m	n/a
336.2425	0.075	672485	keystroke	u	n/a
336.3475	0.12	672695	keystroke	n	n/a
336.5125	0.09	673025	keystroke	i	n/a
336.8875	0.015	673775	keystroke	a	n/a
337.0975	0.105	674195	keystroke	t	n/a
337.2475	0.105	674495	keystroke	Key.space	n/a
338.012	0.0605	676024	keystroke	Key.backspace	n/a
338.1475	0.074	676295	keystroke	Key.backspace	n/a
338.5225	0.075	677045	keystroke	Key.backspace	n/a
338.6575	0.075	677315	keystroke	s	n/a
338.867	0.075	677734	keystroke	t	n/a
339.002	0.075	678004	keystroke	Key.space	n/a
339.197	0.09	678394	keystroke	o	n/a
339.587	0.045	679174	keystroke	c	n/a
339.737	0.075	679474	keystroke	c	n/a
339.932	0.06	679864	keystroke	u	n/a
340.022	0.06	680044	keystroke	r	n/a
340.232	0.09	680464	keystroke	s	n/a
340.727	0.06	681454	keystroke	Key.enter	n/a
340.791	6.853	681582	prompt	n/a	struck antiques guard permission\n
341.312	0.09	682624	keystroke	s	n/a
341.537	0.075	683074	keystroke	t	n/a
341.702	0.09	683404	keystroke	r	n/a
341.793	0.089	683586	keystroke	u	n/a
341.942	0.15	683884	keystroke	c	n/a
342.107	0.09	684214	keystroke	k	n/a
342.227	0.12	684454	keystroke	Key.space	n/a
342.482	0.09	684964	keystroke	a	n/a
342.617	0.075	685234	keystroke	n	n/a
342.9325	0.09	685865	keystroke	q	n/a
343.172	0.045	686344	keystroke	i	n/a
343.487	0.0455	686974	keystroke	Key.backspace	n/a
343.6525	0.045	687305	keystroke	Key.backspace	n/a
343.7275	0.12	687455	keystroke	t	n/a
343.8775	0.075	687755	keystroke	i	n/a
344.1925	0.0745	688385	keystroke	q	n/a
344.268	0.074	688536	keystroke	u	n/a
344.387	0.075	688774	keystroke	e	n/a
344.597	0.09	689194	keystroke	s	n/a
344.747	0.09	689494	keystroke	Key.space	n/a
345.077	0.076	690154	keystroke	g	n/a
345.212	0.06	690424	keystroke	u	n/a
345.347	0.075	690694	keystroke	a	n/a
345.6325	0.075	691265	keystroke	r	n/a
345.8275	0.12	691655	keystroke	d	n/a
346.0375	0.1045	692075	keystroke	Key.space	n/a
346.292	0.09	692584	keystroke	p	n/a
346.367	0.09	692734	keystroke	e	n/a
346.547	0.075	693094	keystroke	r	n/a
346.623	0.074	693246	keystroke	m	n/a
346.757	0.0605	693514	keystroke	i	n/a
346.847	0.06	693694	keystroke	s	n/a
346.9975	0.105	693995	keystroke	s	n/a
347.0725	0.09	694145	keystroke	i	n/a
347.1475	0.12	694295	keystroke	o	n/a
347.2075	0.12	694415	keystroke	n	n/a
347.5675	0.075	695135	keystroke	Key.enter	n/a
347.647	6.102	695294	prompt	n/a	no conservative reaching johnson\n
348.287	0.0755	696574	keystroke	n	n/a
348.3775	0.15	696755	keystroke	o	n/a
348.5125	0.09	697025	keystroke	Key.space	n/a
348.7075	0.12	697415	keystroke	c	n/a
348.7975	0.09	697595	keystroke	o	n/a
348.8425	0.09	697685	keystroke	n	n/a
349.0075	0.2245	698015	keystroke	s	n/a
349.187	0.106	698374	keystroke	e	n/a
349.412	0.075	698824	keystroke	r	n/a
349.607	0.105	699214	keystroke	v	n/a
349.787	0.09	699574	keystroke	a	n/a
349.997	0.075	699994	keystroke	t	n/a
350.103	0.104	700206	keystroke	i	n/a
350.222	0.105	700444	keystroke	v	n/a
350.418	0.074	700836	keystroke	e	n/a
350.507	0.105	701014	keystroke	Key.space	n/a
350.642	0.075	701284	keystroke	r	n/a
351.0925	0.09	702185	keystroke	e	n/a
351.2725	0.075	702545	keystroke	a	n/a
351.4825	0.09	702965	keystroke	c	n/a
351.6025	0.075	703205	keystroke	h	n/a
351.8275	0.1055	703655	keystroke	i	n/a
351.918	0.075	703836	keystroke	n	n/a
351.978	0.075	703956	keystroke	g	n/a
352.0825	0.075	704165	keystroke	Key.space	n/a
352.2775	0.075	704555	keystroke	j	n/a
352.443	0.09	704886	keystroke	o	n/a
352.682	0.045	705364	keystroke	h	n/a
352.922	0.045	705844	keystroke	n	n/a
353.207	0.091	706414	keystroke	s	n/a
353.298	0.104	706596	keystroke	o	n/a
353.388	0.12	706776	keystroke	n	n/a
353.657	0.09	707314	keystroke	Key.enter	n/a
353.7615	5.1325	707523	prompt	n/a	resulted ford counters purpose\n
354.3925	0.075	708785	keystroke	r	n/a
354.5875	0.045	709175	keystroke	e	n/a
354.7525	0.105	709505	keystroke	s	n/a
354.8425	0.075	709685	keystroke	u	n/a
355.0525	0.09	710105	keystroke	l	n/a
355.157	0.045	710314	keystroke	t	n/a
355.352	0.046	710704	keystroke	e	n/a
355.502	0.09	711004	keystroke	d	n/a
355.607	0.09	711214	keystroke	Key.space	n/a
355.727	0.106	711454	keystroke	f	n/a
355.877	0.105	711754	keystroke	o	n/a
355.937	0.075	711874	keystroke	r	n/a
356.177	0.045	712354	keystroke	d	n/a
356.267	0.075	712534	keystroke	Key.space	n/a
356.373	0.134	712746	keystroke	c	n/a
356.492	0.1205	712984	keystroke	o	n/a
356.5825	0.015	713165	keystroke	u	n/a
356.7475	0.075	713495	keystroke	n	n/a
356.8525	0.09	713705	keystroke	t	n/a
357.0325	0.105	714065	keystroke	e	n/a
357.0925	0.075	714185	keystroke	r	n/a
357.3025	0.105	714605	keystroke	s	n/a
357.4075	0.105	714815	keystroke	Key.space	n/a
357.5425	0.135	715085	keystroke	p	n/a
357.7075	0.03	715415	keystroke	u	n/a
357.7675	0.09	715535	keystroke	r	n/a
357.9925	0.045	715985	keystroke	p	n/a
358.3825	0.0745	716765	keystroke	o	n/a
358.487	0.166	716974	keystroke	s	n/a
358.592	0.121	717184	keystroke	e	n/a
358.787	0.106	717574	keystroke	Key.enter	n/a
358.8975	5.1115	717795	prompt	n/a	owns pressed atlas casa\n
359.522	0.09	719044	keystroke	o	n/a
359.597	0.09	719194	keystroke	w	n/a
359.852	0.06	719704	keystroke	s	n/a
360.212	0.045	720424	keystroke	Key.backspace	n/a
360.437	0.075	720874	keystroke	n	n/a
360.527	0.12	721054	keystroke	s	n/a
360.677	0.075	721354	keystroke	Key.space	n/a
360.753	0.089	721506	keystroke	p	n/a
360.827	0.09	721654	keystroke	r	n/a
360.992	0.075	721984	keystroke	e	n/a
361.187	0.03	722374	keystroke	s	n/a
361.292	0.06	722584	keystroke	s	n/a
361.472	0.06	722944	keystroke	e	n/a
361.637	0.09	723274	keystroke	d	n/a
361.802	0.09	723604	keystroke	Key.space	n/a
362.012	0.075	724024	keystroke	a	n/a
362.237	0.06	724474	keystroke	t	n/a
362.372	0.09	724744	keystroke	l	n/a
362.432	0.09	724864	keystroke	a	n/a
362.627	0.075	725254	keystroke	s	n/a
362.732	0.105	725464	keystroke	Key.space	n/a
363.017	0.075	726034	keystroke	c	n/a
363.212	0.09	726424	keystroke	a	n/a
363.4975	0.12	726995	keystroke	s	n/a
363.7225	0.105	727445	keystroke	a	n/a
363.9175	0.09	727835	keystroke	Key.enter	n/a
364.0115	6.642	728023	prompt	n/a	failing coming connectors adams\n
364.5475	0.105	729095	keystroke	f	n/a
364.6975	0.12	729395	keystroke	a	n/a
364.8775	0.06	729755	keystroke	i	n/a
365.0575	0.06	730115	keystroke	l	n/a
365.2225	0.09	730445	keystroke	i	n/a
365.2825	0.105	730565	keystroke	n	n/a
365.4025	0.06	730805	keystroke	g	n/a
365.4925	0.075	730985	keystroke	Key.space	n/a
365.6425	0.075	731285	keystroke	c	n/a
365.8075	0.12	731615	keystroke	m	n/a
366.227	0.075	732454	keystroke	Key.backspace	n/a
366.467	0.12	732934	keystroke	o	n/a
366.572	0.09	733144	keystroke	m	n/a
366.782	0.075	733564	keystroke	i	n/a
366.812	0.09	733624	keystroke	n	n/a
366.917	0.105	733834	keystroke	g	n/a
367.067	0.045	734134	keystroke	Key.space	n/a
367.4575	0.075	734915	keystroke	o	n/a
367.7575	0.09	735515	keystroke	Key.backspace	n/a
367.8625	0.105	735725	keystroke	c	n/a
368.072	0.075	736144	keystroke	o	n/a
368.2675	0.045	736535	keystroke	n	n/a
368.3875	0.075	736775	keystroke	n	n/a
368.4325	0.06	736865	keystroke	e	n/a
368.6125	0.105	737225	keystroke	c	n/a
368.8675	0.059	737735	keystroke	t	n/a
368.9725	0.12	737945	keystroke	o	n/a
369.1075	0.06	738215	keystroke	r	n/a
369.4075	0.105	738815	keystroke	s	n/a
369.5725	0.105	739145	keystroke	Key.space	n/a
369.6925	0.09	739385	keystroke	a	n/a
369.9025	0.06	739805	keystroke	d	n/a
370.0975	0.03	740195	keystroke	a	n/a
370.1425	0.09	740285	keystroke	m	n/a
370.3525	0.075	740705	keystroke	s	n/a
370.5925	0.06	741185	keystroke	Key.enter	n/a
370.658	7.481	741316	prompt	n/a	tariff green cigarette mounted\n
371.3725	0.09	742745	keystroke	t	n/a
371.5675	0.105	743135	keystroke	a	n/a
371.8375	0.075	743675	keystroke	r	n/a
372.047	0.1055	744094	keystroke	i	n/a
372.1675	0.03	744335	keystroke	f	n/a
372.2725	0.12	744545	keystroke	f	n/a
372.542	0.09	745084	keystroke	Key.space	n/a
372.737	0.09	745474	keystroke	g	n/a
372.8875	0.09	745775	keystroke	r	n/a
373.0975	0.06	746195	keystroke	e	n/a
373.2175	0.105	746435	keystroke	e	n/a
373.3375	0.075	746675	keystroke	n	n/a
373.3975	0.075	746795	keystroke	Key.space	n/a
373.9825	0.075	747965	keystroke	d	n/a
374.312	0.075	748624	keystroke	Key.backspace	n/a
374.402	0.12	748804	keystroke	c	n/a
374.567	0.06	749134	keystroke	i	n/a
375.482	0.105	750964	keystroke	g	n/a
375.707	0.12	751414	keystroke	a	n/a
375.947	0.09	751894	keystroke	r	n/a
376.142	0.045	752284	keystroke	e	n/a
376.352	0.015	752704	keystroke	t	n/a
376.457	0.09	752914	keystroke	t	n/a
376.622	0.0905	753244	keystroke	e	n/a
376.772	0.12	753544	keystroke	Key.space	n/a
376.967	0.06	753934	keystroke	m	n/a
377.132	0.105	754264	keystroke	o	n/a
377.207	0.075	754414	keystroke	u	n/a
377.417	0.075	754834	keystroke	n	n/a
377.477	0.06	754954	keystroke	t	n/a
377.627	0.075	755254	keystroke	e	n/a
377.807	0.105	755614	keystroke	d	n/a
378.047	0.09	756094	keystroke	Key.enter	n/a
378.143	8.7105	756286	prompt	n/a	minimum geology stuffed contemporary\n
378.677	0.09	757354	keystroke	m	n/a
378.902	0.09	757804	keystroke	i	n/a
379.037	0.105	758074	keystroke	n	n/a
379.367	0.0595	758734	keystroke	i	n/a
379.5625	0.074	759125	keystroke	m	n/a
380.042	0.0295	760084	keystroke	u	n/a
380.267	0.09	760534	keystroke	m	n/a
380.372	0.075	760744	keystroke	Key.space	n/a
380.642	0.105	761284	keystroke	g	n/a
380.867	0.105	761734	keystroke	e	n/a
380.987	0.075	761974	keystroke	o	n/a
381.182	0.045	762364	keystroke	l	n/a
381.377	0.075	762754	keystroke	o	n/a
381.482	0.105	762964	keystroke	g	n/a
381.692	0.105	763384	keystroke	y	n/a
381.812	0.09	763624	keystroke	Key.space	n/a
381.977	0.0895	763954	keystroke	s	n/a
382.187	0.0745	764374	keystroke	t	n/a
382.322	0.1055	764644	keystroke	u	n/a
382.412	0.06	764824	keystroke	f	n/a
382.547	0.09	765094	keystroke	f	n/a
382.7125	0.09	765425	keystroke	e	n/a
382.9075	0.09	765815	keystroke	d	n/a
382.9825	0.09	765965	keystroke	Key.space	n/a
383.1625	0.12	766325	keystroke	c	n/a
383.4025	0.135	766805	keystroke	o	n/a
383.5075	0.12	767015	keystroke	n	n/a
383.732	0.075	767464	keystroke	t	n/a
383.912	0.09	767824	keystroke	e	n/a
384.047	0.06	768094	keystroke	m	n/a
384.242	0.076	768484	keystroke	p	n/a
384.437	0.09	768874	keystroke	o	n/a
384.587	0.09	769174	keystroke	r	n/a
384.827	0.06	769654	keystroke	t	n/a
385.097	0.105	770194	keystroke	a	n/a
385.517	0.045	771034	keystroke	Key.backspace	n/a
385.667	0.075	771334	keystroke	Key.backspace	n/a
386.0875	0.09	772175	keystroke	a	n/a
386.3125	0.075	772625	keystroke	r	n/a
386.4775	0.0445	772955	keystroke	y	n/a
386.807	0.045	773614	keystroke	Key.enter	n/a
386.8575	8.666	773715	prompt	n/a	pete ontario terrible restricted\n
387.677	0.09	775354	keystroke	p	n/a
387.827	0.09	775654	keystroke	e	n/a
388.4275	0.075	776855	keystroke	t	n/a
388.5925	0.075	777185	keystroke	e	n/a
388.7725	0.09	777545	keystroke	Key.space	n/a
389.2075	0.0595	778415	keystroke	o	n/a
389.387	0.09	778774	keystroke	n	n/a
389.552	0.06	779104	keystroke	t	n/a
389.747	0.09	779494	keystroke	a	n/a
389.957	0.075	779914	keystroke	t	n/a
390.1225	0.075	780245	keystroke	i	n/a
390.5275	0.045	781055	keystroke	Key.backspace	n/a
390.6625	0.045	781325	keystroke	Key.backspace	n/a
390.7375	0.105	781475	keystroke	r	n/a
390.9325	0.135	781865	keystroke	i	n/a
391.0825	0.075	782165	keystroke	o	n/a
391.562	0.09	783124	keystroke	Key.space	n/a
391.982	0.075	783964	keystroke	t	n/a
392.117	0.105	784234	keystroke	e	n/a
392.192	0.075	784384	keystroke	r	n/a
392.327	0.09	784654	keystroke	r	n/a
392.537	0.06	785074	keystroke	i	n/a
392.747	0.06	785494	keystroke	b	n/a
392.927	0.075	785854	keystroke	l	n/a
393.017	0.105	786034	keystroke	e	n/a
393.107	0.105	786214	keystroke	Key.space	n/a
393.5125	0.075	787025	keystroke	r	n/a
393.6925	0.075	787385	keystroke	e	n/a
393.8875	0.105	787775	keystroke	s	n/a
394.112	0.06	788224	keystroke	t	n/a
394.277	0.075	788554	keystroke	r	n/a
394.367	0.075	788734	keystroke	i	n/a
394.502	0.105	789004	keystroke	c	n/a
394.7875	0.06	789575	keystroke	t	n/a
394.9675	0.06	789935	keystroke	e	n/a
395.1325	0.105	790265	keystroke	d	n/a
395.4475	0.075	790895	keystroke	Key.enter	n/a
395.5385	6.09	791077	prompt	n/a	courses camps ceiling lucia\n
396.108	0.09	792216	keystroke	c	n/a
396.272	0.135	792544	keystroke	o	n/a
396.393	0.059	792786	keystroke	u	n/a
396.482	0.06	792964	keystroke	r	n/a
396.6625	0.105	793325	keystroke	s	n/a
396.7225	0.075	793445	keystroke	e	n/a
397.5175	0.075	795035	keystroke	s	n/a
397.6675	0.075	795335	keystroke	Key.space	n/a
397.8325	0.12	795665	keystroke	c	n/a
398.0125	0.0895	796025	keystroke	a	n/a
398.117	0.075	796234	keystroke	m	n/a
398.252	0.09	796504	keystroke	p	n/a
398.387	0.0755	796774	keystroke	s	n/a
398.5075	0.06	797015	keystroke	Key.space	n/a
398.7925	0.105	797585	keystroke	c	n/a
398.9725	0.06	797945	keystroke	i	n/a
399.3325	0.045	798665	keystroke	Key.backspace	n/a
399.4375	0.075	798875	keystroke	e	n/a
399.5725	0.075	799145	keystroke	i	n/a
399.7525	0.09	799505	keystroke	l	n/a
399.8725	0.12	799745	keystroke	i	n/a
400.0675	0.0895	800135	keystroke	n	n/a
400.202	0.105	800404	keystroke	g	n/a
400.352	0.06	800704	keystroke	Key.space	n/a
400.787	0.075	801574	keystroke	l	n/a
400.997	0.075	801994	keystroke	u	n/a
401.102	0.09	802204	keystroke	c	n/a
401.222	0.09	802444	keystroke	i	n/a
401.327	0.12	802654	keystroke	a	n/a
401.5825	0.045	803165	keystroke	Key.enter	n/a
401.6325	10.571	803265	prompt	n/a	transmission compliance volvo tackle\n
402.3175	0.075	804635	keystroke	t	n/a
402.4525	0.105	804905	keystroke	r	n/a
402.6625	0.075	805325	keystroke	a	n/a
402.7525	0.075	805505	keystroke	n	n/a
402.8425	0.0895	805685	keystroke	s	n/a
403.172	0.045	806344	keystroke	m	n/a
403.292	0.06	806584	keystroke	i	n/a
403.382	0.06	806764	keystroke	s	n/a
403.517	0.105	807034	keystroke	s	n/a
403.637	0.15	807274	keystroke	i	n/a
403.788	0.104	807576	keystroke	o	n/a
403.832	0.12	807664	keystroke	n	n/a
403.967	0.075	807934	keystroke	Key.space	n/a
404.177	0.03	808354	keystroke	c	n/a
404.252	0.12	808504	keystroke	o	n/a
404.342	0.075	808684	keystroke	m	n/a
404.522	0.075	809044	keystroke	p	n/a
404.582	0.06	809164	keystroke	l	n/a
404.777	0.075	809554	keystroke	i	n/a
404.912	0.105	809824	keystroke	a	n/a
405.062	0.06	810124	keystroke	n	n/a
405.152	0.09	810304	keystroke	c	n/a
405.317	0.075	810634	keystroke	e	n/a
405.422	0.06	810844	keystroke	Key.space	n/a
405.6025	0.09	811205	keystroke	v	n/a
405.6775	0.075	811355	keystroke	o	n/a
405.8725	0.09	811745	keystroke	l	n/a
405.9475	0.105	811895	keystroke	c	n/a
406.3075	0.09	812615	keystroke	o	n/a
406.4265	0.061	812853	keystroke	Key.space	n/a
406.6525	0.06	813305	keystroke	t	n/a
406.8625	0.075	813725	keystroke	a	n/a
407.0425	0.074	814085	keystroke	c	n/a
407.1325	0.074	814265	keystroke	k	n/a
407.3715	0.075	814743	keystroke	l	n/a
407.4765	0.12	814953	keystroke	e	n/a
408.0915	0.0605	816183	keystroke	Key.backspace	n/a
408.287	0.045	816574	keystroke	Key.backspace	n/a
408.437	0.03	816874	keystroke	Key.backspace	n/a
408.602	0.03	817204	keystroke	Key.backspace	n/a
408.797	0.045	817594	keystroke	Key.backspace	n/a
408.992	0.06	817984	keystroke	Key.backspace	n/a
409.202	0.06	818404	keystroke	Key.backspace	n/a
409.412	0.045	818824	keystroke	Key.backspace	n/a
409.577	0.075	819154	keystroke	Key.backspace	n/a
410.1475	0.06	820295	keystroke	v	n/a
410.447	0.03	820894	keystroke	o	n/a
410.8675	0.075	821735	keystroke	Key.space	n/a
411.152	0.06	822304	keystroke	t	n/a
411.347	0.09	822694	keystroke	a	n/a
411.542	0.105	823084	keystroke	c	n/a
411.632	0.06	823264	keystroke	k	n/a
411.7825	0.09	823565	keystroke	l	n/a
411.8575	0.105	823715	keystroke	e	n/a
412.142	0.06	824284	keystroke	Key.enter	n/a
412.2075	6.791	824415	prompt	n/a	sitemap technologies josh beats\n
412.8025	0.09	825605	keystroke	s	n/a
412.9525	0.075	825905	keystroke	i	n/a
413.0575	0.06	826115	keystroke	t	n/a
413.2075	0.105	826415	keystroke	e	n/a
413.3275	0.075	826655	keystroke	m	n/a
413.4325	0.09	826865	keystroke	a	n/a
413.8225	0.045	827645	keystroke	p	n/a
414.0475	0.09	828095	keystroke	Key.space	n/a
414.3625	0.075	828725	keystroke	t	n/a
414.542	0.075	829084	keystroke	e	n/a
414.737	0.12	829474	keystroke	c	n/a
414.842	0.045	829684	keystroke	h	n/a
415.052	0.045	830104	keystroke	n	n/a
415.682	0.09	831364	keystroke	o	n/a
415.997	0.045	831994	keystroke	l	n/a
416.162	0.075	832324	keystroke	o	n/a
416.342	0.105	832684	keystroke	g	n/a
416.477	0.075	832954	keystroke	i	n/a
416.597	0.075	833194	keystroke	e	n/a
416.807	0.12	833614	keystroke	s	n/a
417.077	0.06	834154	keystroke	Key.space	n/a
417.272	0.075	834544	keystroke	j	n/a
417.452	0.09	834904	keystroke	o	n/a
417.557	0.135	835114	keystroke	s	n/a
417.722	0.105	835444	keystroke	h	n/a
417.842	0.075	835684	keystroke	Key.space	n/a
418.022	0.0905	836044	keystroke	b	n/a
418.1275	0.06	836255	keystroke	e	n/a
418.2475	0.105	836495	keystroke	a	n/a
418.4725	0.075	836945	keystroke	t	n/a
418.6675	0.12	837335	keystroke	s	n/a
418.9375	0.059	837875	keystroke	Key.enter	n/a
419.001	4.7825	838002	prompt	n/a	leaf nvidia towers types\n
419.5965	0.091	839193	keystroke	l	n/a
419.7025	0.075	839405	keystroke	e	n/a
419.8665	0.0905	839733	keystroke	a	n/a
420.077	0.0905	840154	keystroke	f	n/a
420.272	0.0455	840544	keystroke	Key.space	n/a
420.482	0.0755	840964	keystroke	n	n/a
420.722	0.1205	841444	keystroke	v	n/a
420.902	0.03	841804	keystroke	i	n/a
421.007	0.105	842014	keystroke	d	n/a
421.127	0.06	842254	keystroke	i	n/a
421.232	0.091	842464	keystroke	a	n/a
421.472	0.09	842944	keystroke	Key.space	n/a
421.607	0.09	843214	keystroke	t	n/a
421.7565	0.09	843513	keystroke	o	n/a
421.8915	0.106	843783	keystroke	w	n/a
421.982	0.1055	843964	keystroke	e	n/a
422.2375	0.075	844475	keystroke	r	n/a
422.4625	0.09	844925	keystroke	s	n/a
422.5675	0.09	845135	keystroke	Key.space	n/a
422.8375	0.06	845675	keystroke	t	n/a
423.092	0.075	846184	keystroke	y	n/a
423.302	0.076	846604	keystroke	p	n/a
423.392	0.09	846784	keystroke	e	n/a
423.588	0.119	847176	keystroke	s	n/a
423.722	0.06	847444	keystroke	Key.enter	n/a
423.786	8.0375	847572	prompt	n/a	describes resist reprints finite\n
424.3075	0.0905	848615	keystroke	d	n/a
424.487	0.075	848974	keystroke	e	n/a
424.667	0.09	849334	keystroke	s	n/a
424.832	0.105	849664	keystroke	c	n/a
425.268	0.105	850536	keystroke	r	n/a
425.522	0.045	851044	keystroke	r	n/a
425.912	0.06	851824	keystroke	Key.backspace	n/a
426.167	0.046	852334	keystroke	i	n/a
426.3765	0.09	852753	keystroke	b	n/a
426.4815	0.09	852963	keystroke	e	n/a
426.827	0.09	853654	keystroke	s	n/a
426.947	0.105	853894	keystroke	Key.space	n/a
427.7275	0.045	855455	keystroke	r	n/a
427.8925	0.075	855785	keystroke	e	n/a
428.0875	0.06	856175	keystroke	s	n/a
428.1625	0.075	856325	keystroke	i	n/a
428.2525	0.105	856505	keystroke	s	n/a
428.5675	0.06	857135	keystroke	t	n/a
428.7475	0.0595	857495	keystroke	Key.space	n/a
429.077	0.06	858154	keystroke	r	n/a
429.227	0.075	858454	keystroke	e	n/a
429.497	0.09	858994	keystroke	p	n/a
429.707	0.09	859414	keystroke	r	n/a
429.842	0.075	859684	keystroke	i	n/a
429.947	0.15	859894	keystroke	n	n/a
430.112	0.0755	860224	keystroke	t	n/a
430.472	0.105	860944	keystroke	s	n/a
430.637	0.09	861274	keystroke	Key.space	n/a
430.862	0.06	861724	keystroke	f	n/a
431.027	0.075	862054	keystroke	i	n/a
431.087	0.09	862174	keystroke	n	n/a
431.237	0.09	862474	keystroke	i	n/a
431.462	0.0605	862924	keystroke	t	n/a
431.6425	0.06	863285	keystroke	e	n/a
431.7475	0.075	863495	keystroke	Key.enter	n/a
431.826	6.298	863652	prompt	n/a	granny earlier ruling musicians\n
432.512	0.105	865024	keystroke	g	n/a
432.707	0.0905	865414	keystroke	r	n/a
432.9175	0.1045	865835	keystroke	a	n/a
433.023	0.044	866046	keystroke	n	n/a
433.157	0.06	866314	keystroke	n	n/a
433.397	0.0905	866794	keystroke	y	n/a
433.4875	0.1795	866975	keystroke	Key.space	n/a
433.6825	0.0295	867365	keystroke	e	n/a
433.802	0.09	867604	keystroke	a	n/a
433.997	0.06	867994	keystroke	r	n/a
434.102	0.0905	868204	keystroke	l	n/a
434.5675	0.0755	869135	keystroke	i	n/a
434.7025	0.12	869405	keystroke	e	n/a
434.7925	0.09	869585	keystroke	r	n/a
434.9125	0.06	869825	keystroke	Key.space	n/a
435.1225	0.09	870245	keystroke	r	n/a
435.2135	0.059	870427	keystroke	u	n/a
435.4225	0.06	870845	keystroke	l	n/a
435.5125	0.105	871025	keystroke	i	n/a
435.6925	0.105	871385	keystroke	n	n/a
435.8275	0.105	871655	keystroke	g	n/a
435.9475	0.045	871895	keystroke	Key.space	n/a
436.082	0.09	872164	keystroke	m	n/a
436.532	0.075	873064	keystroke	u	n/a
436.622	0.091	873244	keystroke	s	n/a
436.817	0.06	873634	keystroke	i	n/a
436.923	0.074	873846	keystroke	c	n/a
437.192	0.075	874384	keystroke	i	n/a
437.537	0.09	875074	keystroke	a	n/a
437.642	0.075	875284	keystroke	n	n/a
437.852	0.0755	875704	keystroke	s	n/a
438.032	0.09	876064	keystroke	Key.enter	n/a
438.1265	7.7975	876253	prompt	n/a	determination supposed shell privilege\n
438.752	0.09	877504	keystroke	d	n/a
438.962	0.061	877924	keystroke	e	n/a
439.202	0.06	878404	keystroke	t	n/a
439.367	0.06	878734	keystroke	e	n/a
439.412	0.076	878824	keystroke	r	n/a
439.608	0.0745	879216	keystroke	m	n/a
439.7725	0.09	879545	keystroke	i	n/a
439.8325	0.09	879665	keystroke	n	n/a
439.9825	0.09	879965	keystroke	a	n/a
440.2075	0.0745	880415	keystroke	t	n/a
440.3125	0.18	880625	keystroke	i	n/a
440.4475	0.1495	880895	keystroke	o	n/a
440.5375	0.0895	881075	keystroke	n	n/a
440.732	0.06	881464	keystroke	Key.space	n/a
440.822	0.105	881644	keystroke	s	n/a
440.942	0.06	881884	keystroke	u	n/a
441.152	0.045	882304	keystroke	p	n/a
441.287	0.105	882574	keystroke	p	n/a
441.362	0.105	882724	keystroke	o	n/a
441.482	0.15	882964	keystroke	s	n/a
441.617	0.03	883234	keystroke	e	n/a
441.797	0.09	883594	keystroke	d	n/a
441.932	0.06	883864	keystroke	Key.space	n/a
442.052	0.135	884104	keystroke	s	n/a
442.157	0.075	884314	keystroke	h	n/a
442.262	0.09	884524	keystroke	e	n/a
442.382	0.045	884764	keystroke	l	n/a
442.532	0.105	885064	keystroke	l	n/a
442.607	0.09	885214	keystroke	Key.space	n/a
442.832	0.09	885664	keystroke	p	n/a
442.923	0.089	885846	keystroke	r	n/a
443.132	0.06	886264	keystroke	i	n/a
443.312	0.1055	886624	keystroke	v	n/a
443.4325	0.059	886865	keystroke	i	n/a
443.957	0.075	887914	keystroke	l	n/a
444.047	0.1055	888094	keystroke	e	n/a
444.647	0.09	889294	keystroke	f	n/a
445.427	0.06	890854	keystroke	Key.backspace	n/a
445.473	0.059	890946	keystroke	g	n/a
445.637	0.09	891274	keystroke	e	n/a
445.877	0.045	891754	keystroke	Key.enter	n/a
445.9265	3.7475	891853	prompt	n/a	caught system dump corn\n
446.492	0.09	892984	keystroke	c	n/a
446.657	0.075	893314	keystroke	a	n/a
446.747	0.09	893494	keystroke	u	n/a
446.897	0.075	893794	keystroke	g	n/a
447.002	0.06	894004	keystroke	h	n/a
447.077	0.09	894154	keystroke	t	n/a
447.197	0.105	894394	keystroke	Key.space	n/a
447.332	0.105	894664	keystroke	s	n/a
447.467	0.09	894934	keystroke	y	n/a
447.572	0.06	895144	keystroke	s	n/a
447.722	0.075	895444	keystroke	t	n/a
447.857	0.0905	895714	keystroke	e	n/a
447.9625	0.0745	895925	keystroke	m	n/a
448.038	0.089	896076	keystroke	Key.space	n/a
448.157	0.105	896314	keystroke	d	n/a
448.277	0.045	896554	keystroke	u	n/a
448.487	0.06	896974	keystroke	m	n/a
448.607	0.076	897214	keystroke	p	n/a
448.712	0.09	897424	keystroke	Key.space	n/a
448.907	0.106	897814	keystroke	c	n/a
449.057	0.09	898114	keystroke	o	n/a
449.192	0.09	898384	keystroke	r	n/a
449.298	0.059	898596	keystroke	n	n/a
449.627	0.045	899254	keystroke	Key.enter	n/a
449.6765	6.342	899353	prompt	n/a	injuries printers lemon nutten\n
450.302	0.121	900604	keystroke	i	n/a
450.408	0.089	900816	keystroke	n	n/a
450.9775	0.06	901955	keystroke	j	n/a
451.1875	0.045	902375	keystroke	u	n/a
451.5175	0.09	903035	keystroke	r	n/a
451.6375	0.075	903275	keystroke	i	n/a
451.7575	0.075	903515	keystroke	e	n/a
451.967	0.105	903934	keystroke	s	n/a
452.087	0.105	904174	keystroke	Key.space	n/a
452.327	0.075	904654	keystroke	p	n/a
452.417	0.09	904834	keystroke	r	n/a
452.567	0.121	905134	keystroke	i	n/a
452.673	0.104	905346	keystroke	n	n/a
452.762	0.075	905524	keystroke	t	n/a
452.942	0.09	905884	keystroke	e	n/a
452.987	0.075	905974	keystroke	r	n/a
453.197	0.1205	906394	keystroke	s	n/a
453.3325	0.075	906665	keystroke	Key.space	n/a
453.4525	0.09	906905	keystroke	l	n/a
453.5875	0.075	907175	keystroke	e	n/a
453.6775	0.09	907355	keystroke	m	n/a
453.8425	0.105	907685	keystroke	o	n/a
453.9175	0.09	907835	keystroke	n	n/a
454.0225	0.105	908045	keystroke	Key.space	n/a
454.1725	0.09	908345	keystroke	n	n/a
454.2925	0.105	908585	keystroke	u	n/a
454.622	0.0755	909244	keystroke	t	n/a
454.7875	0.06	909575	keystroke	t	n/a
454.9525	0.06	909905	keystroke	n	n/a
455.3275	0.075	910655	keystroke	Key.backspace	n/a
455.4475	0.09	910895	keystroke	e	n/a
455.5975	0.06	911195	keystroke	n	n/a
455.9575	0.06	911915	keystroke	Key.enter	n/a
456.0215	6.9725	912043	prompt	n/a	association diana securities division\n
456.647	0.031	913294	keystroke	s	n/a
456.992	0.06	913984	keystroke	Key.backspace	n/a
457.082	0.075	914164	keystroke	a	n/a
457.292	0.046	914584	keystroke	s	n/a
457.428	0.119	914856	keystroke	s	n/a
457.607	0.075	915214	keystroke	o	n/a
457.787	0.121	915574	keystroke	c	n/a
457.937	0.06	915874	keystroke	i	n/a
458.027	0.09	916054	keystroke	a	n/a
458.267	0.075	916534	keystroke	t	n/a
458.357	0.15	916714	keystroke	i	n/a
458.447	0.12	916894	keystroke	o	n/a
458.522	0.12	917044	keystroke	n	n/a
458.657	0.075	917314	keystroke	Key.space	n/a
458.792	0.075	917584	keystroke	d	n/a
458.882	0.06	917764	keystroke	i	n/a
458.987	0.075	917974	keystroke	a	n/a
459.092	0.06	918184	keystroke	n	n/a
459.182	0.09	918364	keystroke	a	n/a
459.7075	0.075	919415	keystroke	Key.space	n/a
460.0375	0.06	920075	keystroke	s	n/a
460.1875	0.045	920375	keystroke	e	n/a
460.3975	0.09	920795	keystroke	c	n/a
460.5175	0.09	921035	keystroke	u	n/a
460.6525	0.075	921305	keystroke	r	n/a
460.7875	0.075	921575	keystroke	i	n/a
460.8925	0.06	921785	keystroke	t	n/a
460.9975	0.09	921995	keystroke	i	n/a
461.1025	0.06	922205	keystroke	e	n/a
461.3125	0.12	922625	keystroke	s	n/a
461.4925	0.075	922985	keystroke	Key.space	n/a
461.7925	0.075	923585	keystroke	d	n/a
461.8975	0.075	923795	keystroke	i	n/a
462.0325	0.12	924065	keystroke	v	n/a
462.1675	0.045	924335	keystroke	i	n/a
462.3025	0.105	924605	keystroke	s	n/a
462.3925	0.135	924785	keystroke	i	n/a
462.4975	0.12	924995	keystroke	o	n/a
462.5425	0.105	925085	keystroke	n	n/a
462.917	0.075	925834	keystroke	Key.enter	n/a
463.003	6.337	926006	prompt	n/a	rehab inkjet declare watch\n
463.773	0.015	927546	keystroke	r	n/a
463.833	0.105	927666	keystroke	e	n/a
464.013	0.03	928026	keystroke	h	n/a
464.132	0.105	928264	keystroke	a	n/a
464.508	0.0745	929016	keystroke	b	n/a
464.7025	0.09	929405	keystroke	Key.space	n/a
464.9275	0.135	929855	keystroke	i	n/a
465.0475	0.09	930095	keystroke	n	n/a
465.2725	0.045	930545	keystroke	j	n/a
465.632	0.045	931264	keystroke	Key.backspace	n/a
465.887	0.06	931774	keystroke	k	n/a
466.1875	0.03	932375	keystroke	j	n/a
466.3225	0.06	932645	keystroke	e	n/a
466.5025	0.09	933005	keystroke	t	n/a
466.6825	0.09	933365	keystroke	Key.space	n/a
466.997	0.075	933994	keystroke	d	n/a
467.177	0.06	934354	keystroke	e	n/a
467.432	0.09	934864	keystroke	c	n/a
467.627	0.09	935254	keystroke	l	n/a
467.747	0.09	935494	keystroke	a	n/a
467.987	0.045	935974	keystroke	r	n/a
468.152	0.06	936304	keystroke	e	n/a
468.227	0.0905	936454	keystroke	Key.space	n/a
468.3025	0.06	936605	keystroke	w	n/a
468.4525	0.06	936905	keystroke	a	n/a
468.6625	0.045	937325	keystroke	t	n/a
468.8725	0.105	937745	keystroke	c	n/a
468.9925	0.06	937985	keystroke	h	n/a
469.2775	0.06	938555	keystroke	Key.enter	n/a
469.3445	6.6395	938689	prompt	n/a	scsi joining persons historical\n
469.9075	0.075	939815	keystroke	s	n/a
470.1475	0.075	940295	keystroke	c	n/a
470.3275	0.075	940655	keystroke	s	n/a
470.6575	0.045	941315	keystroke	i	n/a
470.8825	0.09	941765	keystroke	Key.space	n/a
471.092	0.075	942184	keystroke	j	n/a
471.377	0.105	942754	keystroke	o	n/a
471.512	0.105	943024	keystroke	i	n/a
471.782	0.075	943564	keystroke	n	n/a
471.962	0.09	943924	keystroke	i	n/a
472.037	0.0905	944074	keystroke	n	n/a
472.2175	0.105	944435	keystroke	g	n/a
472.3675	0.0895	944735	keystroke	Key.space	n/a
472.847	0.075	945694	keystroke	p	n/a
472.967	0.1055	945934	keystroke	e	n/a
473.0575	0.09	946115	keystroke	r	n/a
473.2675	0.12	946535	keystroke	s	n/a
473.3725	0.12	946745	keystroke	o	n/a
473.4925	0.075	946985	keystroke	n	n/a
473.6275	0.09	947255	keystroke	s	n/a
474.047	0.09	948094	keystroke	Key.space	n/a
474.257	0.075	948514	keystroke	h	n/a
474.377	0.12	948754	keystroke	i	n/a
474.512	0.09	949024	keystroke	s	n/a
474.7525	0.075	949505	keystroke	t	n/a
474.8425	0.09	949685	keystroke	o	n/a
474.9475	0.09	949895	keystroke	r	n/a
475.187	0.075	950374	keystroke	i	n/a
475.368	0.059	950736	keystroke	c	n/a
475.547	0.091	951094	keystroke	a	n/a
475.668	0.059	951336	keystroke	l	n/a
475.878	0.104	951756	keystroke	Key.enter	n/a
475.987	9.9715	951974	prompt	n/a	sharp indicators parameter carol\n
476.5675	0.045	953135	keystroke	a	n/a
476.8975	0.045	953795	keystroke	Key.backspace	n/a
476.9875	0.075	953975	keystroke	s	n/a
477.1225	0.06	954245	keystroke	h	n/a
477.2125	0.105	954425	keystroke	a	n/a
477.4525	0.075	954905	keystroke	r	n/a
477.5125	0.105	955025	keystroke	p	n/a
477.6325	0.09	955265	keystroke	Key.space	n/a
477.8725	0.09	955745	keystroke	i	n/a
477.9175	0.105	955835	keystroke	n	n/a
478.1275	0.075	956255	keystroke	d	n/a
478.2325	0.06	956465	keystroke	i	n/a
478.3525	0.09	956705	keystroke	c	n/a
478.5175	0.075	957035	keystroke	a	n/a
478.7275	0.09	957455	keystroke	t	n/a
478.8925	0.105	957785	keystroke	o	n/a
479.0575	0.045	958115	keystroke	r	n/a
479.237	0.09	958474	keystroke	s	n/a
479.342	0.09	958684	keystroke	Key.space	n/a
479.433	0.104	958866	keystroke	p	n/a
479.552	0.075	959104	keystroke	a	n/a
479.717	0.075	959434	keystroke	r	n/a
479.882	0.12	959764	keystroke	a	n/a
480.017	0.0755	960034	keystroke	m	n/a
480.1225	0.075	960245	keystroke	a	n/a
480.3625	0.075	960725	keystroke	t	n/a
480.6915	0.091	961383	keystroke	e	n/a
480.7675	0.06	961535	keystroke	r	n/a
481.0665	0.06	962133	keystroke	Key.backspace	n/a
481.2165	0.075	962433	keystroke	Key.backspace	n/a
481.3665	0.075	962733	keystroke	Key.backspace	n/a
481.5165	0.075	963033	keystroke	Key.backspace	n/a
481.6675	0.105	963335	keystroke	e	n/a
481.7275	0.089	963455	keystroke	r	n/a
481.9675	0.075	963935	keystroke	Key.space	n/a
482.2515	0.075	964503	keystroke	c	n/a
482.3875	0.089	964775	keystroke	a	n/a
482.6565	0.016	965313	keystroke	r	n/a
482.7015	0.09	965403	keystroke	o	n/a
482.9415	0.075	965883	keystroke	l	n/a
483.3615	0.045	966723	keystroke	Key.backspace	n/a
483.5265	0.075	967053	keystroke	Key.backspace	n/a
483.7075	0.09	967415	keystroke	Key.backspace	n/a
483.8715	0.06	967743	keystroke	Key.backspace	n/a
484.0375	0.059	968075	keystroke	Key.backspace	n/a
484.1865	0.076	968373	keystroke	Key.backspace	n/a
484.3515	0.045	968703	keystroke	Key.backspace	n/a
484.5315	0.075	969063	keystroke	t	n/a
484.6815	0.076	969363	keystroke	e	n/a
484.7265	0.09	969453	keystroke	r	n/a
484.8915	0.075	969783	keystroke	Key.space	n/a
485.0865	0.075	970173	keystroke	c	n/a
485.2215	0.09	970443	keystroke	a	n/a
485.3715	0.09	970743	keystroke	r	n/a
485.4775	0.074	970955	keystroke	o	n/a
485.6565	0.09	971313	keystroke	l	n/a
485.8825	0.074	971765	keystroke	Key.enter	n/a
485.97	6.4985	971940	prompt	n/a	plants bones limited intend\n
486.5265	0.076	973053	keystroke	p	n/a
486.7515	0.075	973503	keystroke	l	n/a
486.8415	0.106	973683	keystroke	a	n/a
487.3065	0.0755	974613	keystroke	t	n/a
487.682	0.075	975364	keystroke	Key.backspace	n/a
487.9075	0.0895	975815	keystroke	n	n/a
487.982	0.0445	975964	keystroke	t	n/a
488.147	0.09	976294	keystroke	s	n/a
488.237	0.105	976474	keystroke	Key.space	n/a
488.477	0.075	976954	keystroke	b	n/a
488.9565	0.076	977913	keystroke	o	n/a
489.137	0.091	978274	keystroke	n	n/a
489.3315	0.0605	978663	keystroke	e	n/a
489.497	0.1195	978994	keystroke	s	n/a
489.587	0.1195	979174	keystroke	Key.space	n/a
489.722	0.0745	979444	keystroke	l	n/a
489.9015	0.09	979803	keystroke	i	n/a
490.0815	0.0605	980163	keystroke	m	n/a
490.2015	0.0905	980403	keystroke	i	n/a
490.697	0.0595	981394	keystroke	t	n/a
490.862	0.0595	981724	keystroke	e	n/a
491.042	0.046	982084	keystroke	d	n/a
491.2965	0.105	982593	keystroke	Key.space	n/a
491.432	0.1055	982864	keystroke	i	n/a
491.492	0.1055	982984	keystroke	n	n/a
491.6725	0.06	983345	keystroke	t	n/a
491.8525	0.105	983705	keystroke	e	n/a
491.9725	0.06	983945	keystroke	n	n/a
492.2275	0.075	984455	keystroke	d	n/a
492.4065	0.06	984813	keystroke	Key.enter	n/a
492.472	5.5165	984944	prompt	n/a	frost humanity cliff coming\n
493.0225	0.104	986045	keystroke	f	n/a
493.2015	0.106	986403	keystroke	r	n/a
493.3515	0.075	986703	keystroke	o	n/a
493.637	0.0895	987274	keystroke	s	n/a
493.8315	0.061	987663	keystroke	t	n/a
493.9815	0.06	987963	keystroke	Key.space	n/a
494.1015	0.015	988203	keystroke	f	n/a
494.6125	0.06	989225	keystroke	Key.backspace	n/a
494.8675	0.074	989735	keystroke	h	n/a
494.9875	0.075	989975	keystroke	u	n/a
495.227	0.06	990454	keystroke	m	n/a
495.332	0.12	990664	keystroke	a	n/a
495.467	0.06	990934	keystroke	n	n/a
495.5875	0.09	991175	keystroke	i	n/a
495.7365	0.105	991473	keystroke	t	n/a
495.8865	0.09	991773	keystroke	y	n/a
495.9615	0.09	991923	keystroke	Key.space	n/a
496.1575	0.105	992315	keystroke	c	n/a
496.2475	0.12	992495	keystroke	l	n/a
496.3525	0.09	992705	keystroke	i	n/a
496.4575	0.06	992915	keystroke	f	n/a
496.6075	0.059	993215	keystroke	f	n/a
496.6675	0.089	993335	keystroke	Key.space	n/a
496.8025	0.104	993605	keystroke	c	n/a
497.1175	0.12	994235	keystroke	o	n/a
497.2825	0.105	994565	keystroke	m	n/a
497.4925	0.09	994985	keystroke	i	n/a
