onset	duration	sample	value	key	prompt_text
1.189	11.857	2378	prompt	n/a	the quick brown fox jumps over a lazy dog\n
2.042	0.139	4084	keystroke_Key.right	Key.right	n/a
2.8965	0.176	5793	keystroke_t	t	n/a
2.969	0.1035	5938	keystroke_h	h	n/a
3.0805	0.12	6161	keystroke_e	e	n/a
3.2085	0.088	6417	keystroke_Key.space	Key.space	n/a
3.7605	0.096	7521	keystroke_Key.backspace	Key.backspace	n/a
3.9445	0.08	7889	keystroke_Key.backspace	Key.backspace	n/a
4.1285	0.064	8257	keystroke_Key.backspace	Key.backspace	n/a
4.2965	0.064	8593	keystroke_Key.backspace	Key.backspace	n/a
4.4485	0.088	8897	keystroke_Key.backspace	Key.backspace	n/a
4.5605	0.144	9121	keystroke_Key.caps_lock	Key.caps_lock	n/a
4.7605	0.144	9521	keystroke_t	t	n/a
4.8245	0.096	9649	keystroke_h	h	n/a
4.9445	0.144	9889	keystroke_e	e	n/a
5.0405	0.096	10081	keystroke_Key.space	Key.space	n/a
5.3365	0.184	10673	keystroke_q	q	n/a
5.4805	0.144	10961	keystroke_u	u	n/a
5.5765	0.12	11153	keystroke_i	i	n/a
5.8885	0.088	11777	keystroke_k	k	n/a
6.271	0.088	12542	keystroke_Key.backspace	Key.backspace	n/a
6.639	0.132	13278	keystroke_c	c	n/a
6.755	0.112	13510	keystroke_k	k	n/a
6.971	0.072	13942	keystroke_Key.space	Key.space	n/a
7.187	0.096	14374	keystroke_b	b	n/a
7.323	0.152	14646	keystroke_r	r	n/a
7.451	0.072	14902	keystroke_o	o	n/a
7.555	0.16	15110	keystroke_w	w	n/a
7.707	0.096	15414	keystroke_n	n	n/a
7.947	0.072	15894	keystroke_Key.space	Key.space	n/a
8.4035	0.128	16807	keystroke_f	f	n/a
8.7475	0.096	17495	keystroke_o	o	n/a
8.9795	0.1595	17959	keystroke_x	x	n/a
9.139	0.08	18278	keystroke_Key.space	Key.space	n/a
9.3635	0.096	18727	keystroke_j	j	n/a
9.5955	0.096	19191	keystroke_u	u	n/a
9.7875	0.144	19575	keystroke_m	m	n/a
9.9635	0.1285	19927	keystroke_p	p	n/a
10.164	0.168	20328	keystroke_s	s	n/a
10.324	0.072	20648	keystroke_Key.space	Key.space	n/a
10.628	0.144	21256	keystroke_o	o	n/a
10.828	0.112	21656	keystroke_v	v	n/a
10.956	0.1915	21912	keystroke_e	e	n/a
11.1155	0.168	22231	keystroke_r	r	n/a
11.2755	0.072	22551	keystroke_Key.space	Key.space	n/a
11.4915	0.128	22983	keystroke_a	a	n/a
11.5555	0.08	23111	keystroke_Key.space	Key.space	n/a
11.779	0.097	23558	keystroke_l	l	n/a
11.803	0.1125	23606	keystroke_a	a	n/a
12.0205	0.103	24041	keystroke_z	z	n/a
12.2355	0.128	24471	keystroke_y	y	n/a
12.3645	0.071	24729	keystroke_Key.space	Key.space	n/a
12.5875	0.096	25175	keystroke_d	d	n/a
12.6195	0.128	25239	keystroke_o	o	n/a
12.8035	0.152	25607	keystroke_g	g	n/a
12.9475	0.096	25895	keystroke_Key.enter	Key.enter	n/a
13.0495	5.7395	26099	prompt	n/a	kinds wins trap crash\n
13.8995	0.112	27799	keystroke_k	k	n/a
14.1315	0.112	28263	keystroke_i	i	n/a
14.2035	0.136	28407	keystroke_n	n	n/a
14.2915	0.184	28583	keystroke_d	d	n/a
14.3795	0.168	28759	keystroke_s	s	n/a
14.5235	0.08	29047	keystroke_Key.space	Key.space	n/a
14.8915	0.184	29783	keystroke_w	w	n/a
15.0195	0.144	30039	keystroke_i	i	n/a
15.1235	0.128	30247	keystroke_n	n	n/a
15.3155	0.176	30631	keystroke_d	d	n/a
15.3555	0.232	30711	keystroke_s	s	n/a
15.779	0.08	31558	keystroke_Key.backspace	Key.backspace	n/a
15.931	0.08	31862	keystroke_Key.backspace	Key.backspace	n/a
16.075	0.16	32150	keystroke_s	s	n/a
16.211	0.072	32422	keystroke_Key.space	Key.space	n/a
16.5795	0.096	33159	keystroke_t	t	n/a
16.772	0.144	33544	keystroke_r	r	n/a
16.828	0.1915	33656	keystroke_a	a	n/a
16.98	0.1195	33960	keystroke_p	p	n/a
17.2435	0.08	34487	keystroke_Key.space	Key.space	n/a
17.7795	0.096	35559	keystroke_c	c	n/a
18.0035	0.16	36007	keystroke_r	r	n/a
18.0995	0.144	36199	keystroke_a	a	n/a
18.3155	0.168	36631	keystroke_s	s	n/a
18.4435	0.096	36887	keystroke_h	h	n/a
18.6675	0.12	37335	keystroke_Key.enter	Key.enter	n/a
18.7915	7.6855	37583	prompt	n/a	locate sounds ought forward\n
19.4515	0.112	38903	keystroke_l	l	n/a
19.5475	0.12	39095	keystroke_a	a	n/a
19.7395	0.112	39479	keystroke_c	c	n/a
20.0915	0.064	40183	keystroke_a	a	n/a
20.292	0.0795	40584	keystroke_Key.backspace	Key.backspace	n/a
20.4915	0.056	40983	keystroke_Key.backspace	Key.backspace	n/a
20.6355	0.056	41271	keystroke_Key.backspace	Key.backspace	n/a
20.8515	0.112	41703	keystroke_o	o	n/a
21.1235	0.144	42247	keystroke_c	c	n/a
21.2275	0.168	42455	keystroke_a	a	n/a
21.4595	0.2	42919	keystroke_t	t	n/a
21.5635	0.168	43127	keystroke_e	e	n/a
21.7475	0.072	43495	keystroke_Key.space	Key.space	n/a
21.9155	0.136	43831	keystroke_s	s	n/a
21.9635	0.24	43927	keystroke_o	o	n/a
22.1235	0.096	44247	keystroke_u	u	n/a
22.2515	0.152	44503	keystroke_n	n	n/a
22.4115	0.096	44823	keystroke_d	d	n/a
22.4675	0.248	44935	keystroke_s	s	n/a
22.788	0.08	45576	keystroke_Key.backspace	Key.backspace	n/a
22.964	0.064	45928	keystroke_Key.backspace	Key.backspace	n/a
23.412	0.2	46824	keystroke_d	d	n/a
23.524	0.1995	47048	keystroke_s	s	n/a
23.7	0.0795	47400	keystroke_Key.space	Key.space	n/a
24.2115	0.232	48423	keystroke_o	o	n/a
24.3475	0.104	48695	keystroke_u	u	n/a
24.4755	0.112	48951	keystroke_g	g	n/a
24.6035	0.088	49207	keystroke_h	h	n/a
24.7155	0.136	49431	keystroke_t	t	n/a
24.8835	0.096	49767	keystroke_Key.space	Key.space	n/a
25.2195	0.072	50439	keystroke_f	f	n/a
25.2755	0.08	50551	keystroke_o	o	n/a
25.4035	0.144	50807	keystroke_r	r	n/a
25.6195	0.208	51239	keystroke_w	w	n/a
25.7475	0.16	51495	keystroke_a	a	n/a
26.0035	0.12	52007	keystroke_r	r	n/a
26.2915	0.136	52583	keystroke_d	d	n/a
26.3955	0.08	52791	keystroke_Key.enter	Key.enter	n/a
26.48	8.677	52960	prompt	n/a	indeed fujitsu crystal teaches\n
27.108	0.1355	54216	keystroke_i	i	n/a
27.2115	0.1285	54423	keystroke_n	n	n/a
27.348	0.144	54696	keystroke_d	d	n/a
27.444	0.104	54888	keystroke_e	e	n/a
27.644	0.136	55288	keystroke_e	e	n/a
27.844	0.144	55688	keystroke_d	d	n/a
28.036	0.096	56072	keystroke_Key.space	Key.space	n/a
28.508	0.152	57016	keystroke_f	f	n/a
28.724	0.08	57448	keystroke_u	u	n/a
29.332	0.104	58664	keystroke_j	j	n/a
29.628	0.088	59256	keystroke_i	i	n/a
30.044	0.144	60088	keystroke_t	t	n/a
30.404	0.192	60808	keystroke_s	s	n/a
30.58	0.088	61160	keystroke_u	u	n/a
30.956	0.088	61912	keystroke_Key.space	Key.space	n/a
31.3	0.12	62600	keystroke_c	c	n/a
31.548	0.12	63096	keystroke_r	r	n/a
31.836	0.144	63672	keystroke_t	t	n/a
32.196	0.152	64392	keystroke_s	s	n/a
32.628	0.08	65256	keystroke_Key.backspace	Key.backspace	n/a
32.796	0.088	65592	keystroke_Key.backspace	Key.backspace	n/a
32.9	0.088	65800	keystroke_y	y	n/a
33.156	0.168	66312	keystroke_s	s	n/a
33.428	0.152	66856	keystroke_t	t	n/a
33.572	0.176	67144	keystroke_a	a	n/a
33.74	0.056	67480	keystroke_l	l	n/a
33.924	0.0795	67848	keystroke_Key.space	Key.space	n/a
34.1555	0.176	68311	keystroke_t	t	n/a
34.2355	0.184	68471	keystroke_e	e	n/a
34.3075	0.136	68615	keystroke_a	a	n/a
34.5395	0.16	69079	keystroke_c	c	n/a
34.6515	0.088	69303	keystroke_h	h	n/a
34.8035	0.072	69607	keystroke_e	e	n/a
34.9715	0.152	69943	keystroke_s	s	n/a
35.0675	0.088	70135	keystroke_Key.enter	Key.enter	n/a
35.1605	5.7405	70321	prompt	n/a	bureau seeing herald altered\n
35.8995	0.088	71799	keystroke_b	b	n/a
36.1315	0.064	72263	keystroke_u	u	n/a
36.2755	0.216	72551	keystroke_r	r	n/a
36.3635	0.2	72727	keystroke_e	e	n/a
36.4675	0.144	72935	keystroke_a	a	n/a
36.7075	0.096	73415	keystroke_u	u	n/a
37.0515	0.08	74103	keystroke_Key.space	Key.space	n/a
37.4675	0.064	74935	keystroke_s	s	n/a
37.6515	0.072	75303	keystroke_e	e	n/a
37.8195	0.112	75639	keystroke_e	e	n/a
37.8835	0.136	75767	keystroke_i	i	n/a
37.9715	0.112	75943	keystroke_n	n	n/a
38.0435	0.136	76087	keystroke_g	g	n/a
38.2035	0.056	76407	keystroke_Key.space	Key.space	n/a
38.4435	0.096	76887	keystroke_h	h	n/a
38.5955	0.176	77191	keystroke_e	e	n/a
38.7635	0.136	77527	keystroke_r	r	n/a
38.9955	0.137	77991	keystroke_a	a	n/a
39.1635	0.08	78327	keystroke_l	l	n/a
39.4355	0.144	78871	keystroke_d	d	n/a
39.5875	0.08	79175	keystroke_Key.space	Key.space	n/a
39.8195	0.144	79639	keystroke_a	a	n/a
39.9715	0.057	79943	keystroke_l	l	n/a
40.1155	0.128	80231	keystroke_t	t	n/a
40.1955	0.2	80391	keystroke_e	e	n/a
40.3555	0.176	80711	keystroke_r	r	n/a
40.4995	0.136	80999	keystroke_e	e	n/a
40.7075	0.16	81415	keystroke_d	d	n/a
40.7795	0.12	81559	keystroke_Key.enter	Key.enter	n/a
40.904	6.2695	81808	prompt	n/a	spare corpus aimed collective\n
41.7805	0.128	83561	keystroke_s	s	n/a
41.8925	0.088	83785	keystroke_p	p	n/a
42.0125	0.192	84025	keystroke_a	a	n/a
42.2285	0.2	84457	keystroke_r	r	n/a
42.3405	0.152	84681	keystroke_e	e	n/a
42.6035	0.08	85207	keystroke_Key.space	Key.space	n/a
43.0845	0.152	86169	keystroke_c	c	n/a
43.2365	0.08	86473	keystroke_o	o	n/a
43.3725	0.152	86745	keystroke_r	r	n/a
43.5325	0.08	87065	keystroke_p	p	n/a
43.7475	0.081	87495	keystroke_u	u	n/a
43.8845	0.144	87769	keystroke_s	s	n/a
44.0755	0.08	88151	keystroke_Key.space	Key.space	n/a
44.2915	0.184	88583	keystroke_a	a	n/a
44.4915	0.097	88983	keystroke_i	i	n/a
44.6765	0.103	89353	keystroke_m	m	n/a
44.8045	0.071	89609	keystroke_e	e	n/a
44.9875	0.137	89975	keystroke_d	d	n/a
45.0915	0.08	90183	keystroke_Key.space	Key.space	n/a
45.5325	0.159	91065	keystroke_c	c	n/a
45.6285	0.079	91257	keystroke_o	o	n/a
45.8445	0.063	91689	keystroke_l	l	n/a
45.9955	0.129	91991	keystroke_l	l	n/a
46.0675	0.224	92135	keystroke_e	e	n/a
46.2125	0.104	92425	keystroke_c	c	n/a
46.4515	0.1685	92903	keystroke_t	t	n/a
46.708	0.104	93416	keystroke_i	i	n/a
46.844	0.16	93688	keystroke_v	v	n/a
46.932	0.176	93864	keystroke_e	e	n/a
47.092	0.08	94184	keystroke_Key.enter	Key.enter	n/a
47.1765	7.2205	94353	prompt	n/a	twin sentences dist wall\n
47.9475	0.168	95895	keystroke_t	t	n/a
48.0435	0.184	96087	keystroke_w	w	n/a
48.6115	0.136	97223	keystroke_i	i	n/a
48.7555	0.096	97511	keystroke_n	n	n/a
48.9955	0.088	97991	keystroke_Key.space	Key.space	n/a
49.3475	0.096	98695	keystroke_s	s	n/a
49.5395	0.112	99079	keystroke_e	e	n/a
49.6515	0.072	99303	keystroke_n	n	n/a
49.7715	0.096	99543	keystroke_e	e	n/a
49.876	0.1755	99752	keystroke_t	t	n/a
49.9795	0.176	99959	keystroke_e	e	n/a
50.1955	0.072	100391	keystroke_n	n	n/a
50.5475	0.088	101095	keystroke_Key.backspace	Key.backspace	n/a
50.756	0.0795	101512	keystroke_Key.backspace	Key.backspace	n/a
50.9555	0.08	101911	keystroke_Key.backspace	Key.backspace	n/a
51.1395	0.064	102279	keystroke_Key.backspace	Key.backspace	n/a
51.4035	0.168	102807	keystroke_t	t	n/a
51.4995	0.176	102999	keystroke_e	e	n/a
51.6435	0.08	103287	keystroke_n	n	n/a
51.7635	0.1685	103527	keystroke_c	c	n/a
51.836	0.152	103672	keystroke_e	e	n/a
52.108	0.136	104216	keystroke_s	s	n/a
52.268	0.088	104536	keystroke_Key.space	Key.space	n/a
52.588	0.144	105176	keystroke_d	d	n/a
52.692	0.088	105384	keystroke_i	i	n/a
52.756	0.1755	105512	keystroke_s	s	n/a
53.2915	0.168	106583	keystroke_t	t	n/a
53.5155	0.072	107031	keystroke_Key.space	Key.space	n/a
53.6915	0.2	107383	keystroke_w	w	n/a
53.8195	0.184	107639	keystroke_a	a	n/a
53.9315	0.08	107863	keystroke_l	l	n/a
54.1235	0.04	108247	keystroke_l	l	n/a
54.2995	0.096	108599	keystroke_Key.enter	Key.enter	n/a
54.4015	6.14	108803	prompt	n/a	stopping treat creek console\n
55.1875	0.112	110375	keystroke_s	s	n/a
55.4115	0.152	110823	keystroke_t	t	n/a
55.6035	0.1605	111207	keystroke_o	o	n/a
55.82	0.1195	111640	keystroke_p	p	n/a
56.0435	0.088	112087	keystroke_p	p	n/a
56.2435	0.128	112487	keystroke_i	i	n/a
56.3635	0.12	112727	keystroke_n	n	n/a
56.4355	0.1605	112871	keystroke_g	g	n/a
56.636	0.088	113272	keystroke_Key.space	Key.space	n/a
57.019	0.096	114038	keystroke_t	t	n/a
57.211	0.184	114422	keystroke_r	r	n/a
57.307	0.224	114614	keystroke_e	e	n/a
57.387	0.136	114774	keystroke_a	a	n/a
57.539	0.192	115078	keystroke_t	t	n/a
57.715	0.096	115430	keystroke_Key.space	Key.space	n/a
58.323	0.12	116646	keystroke_c	c	n/a
58.547	0.168	117094	keystroke_r	r	n/a
58.635	0.128	117270	keystroke_e	e	n/a
58.843	0.169	117686	keystroke_e	e	n/a
58.996	0.048	117992	keystroke_k	k	n/a
59.34	0.088	118680	keystroke_Key.space	Key.space	n/a
59.532	0.1835	119064	keystroke_c	c	n/a
59.6595	0.128	119319	keystroke_o	o	n/a
59.7315	0.096	119463	keystroke_n	n	n/a
59.8515	0.144	119703	keystroke_s	s	n/a
60.0035	0.072	120007	keystroke_o	o	n/a
60.1955	0.08	120391	keystroke_l	l	n/a
60.2675	0.144	120535	keystroke_e	e	n/a
60.4595	0.08	120919	keystroke_Key.enter	Key.enter	n/a
60.5445	7.364	121089	prompt	n/a	treaty slovakia traditions filename\n
61.291	0.08	122582	keystroke_t	t	n/a
61.467	0.152	122934	keystroke_r	r	n/a
61.539	0.2	123078	keystroke_e	e	n/a
61.595	0.152	123190	keystroke_a	a	n/a
61.8195	0.12	123639	keystroke_t	t	n/a
62.0355	0.144	124071	keystroke_y	y	n/a
62.1875	0.096	124375	keystroke_Key.space	Key.space	n/a
62.4355	0.184	124871	keystroke_s	s	n/a
62.6275	0.08	125255	keystroke_l	l	n/a
62.8355	0.112	125671	keystroke_o	o	n/a
63.3395	0.128	126679	keystroke_v	v	n/a
63.5235	0.208	127047	keystroke_a	a	n/a
63.9555	0.056	127911	keystroke_k	k	n/a
64.1635	0.072	128327	keystroke_i	i	n/a
64.2595	0.152	128519	keystroke_a	a	n/a
64.6195	0.096	129239	keystroke_Key.space	Key.space	n/a
64.7875	0.112	129575	keystroke_t	t	n/a
64.9955	0.144	129991	keystroke_r	r	n/a
65.0515	0.192	130103	keystroke_a	a	n/a
65.3475	0.168	130695	keystroke_d	d	n/a
65.5235	0.08	131047	keystroke_i	i	n/a
65.6835	0.16	131367	keystroke_t	t	n/a
65.7795	0.2395	131559	keystroke_i	i	n/a
65.8995	0.1515	131799	keystroke_o	o	n/a
65.9315	0.1435	131863	keystroke_n	n	n/a
66.059	0.152	132118	keystroke_s	s	n/a
66.251	0.104	132502	keystroke_Key.space	Key.space	n/a
66.739	0.16	133478	keystroke_f	f	n/a
66.867	0.08	133734	keystroke_i	i	n/a
67.067	0.104	134134	keystroke_l	l	n/a
67.195	0.112	134390	keystroke_e	e	n/a
67.324	0.088	134648	keystroke_n	n	n/a
67.459	0.088	134918	keystroke_a	a	n/a
67.555	0.089	135110	keystroke_m	m	n/a
67.675	0.16	135350	keystroke_e	e	n/a
67.811	0.096	135622	keystroke_Key.enter	Key.enter	n/a
67.9115	6.7655	135823	prompt	n/a	accessories sender cope sleeps\n
68.66	0.119	137320	keystroke_a	a	n/a
68.875	0.0885	137750	keystroke_c	c	n/a
69.0595	0.16	138119	keystroke_c	c	n/a
69.1635	0.136	138327	keystroke_e	e	n/a
69.4995	0.04	138999	keystroke_s	s	n/a
69.6675	0.096	139335	keystroke_s	s	n/a
70.0915	0.08	140183	keystroke_o	o	n/a
70.2515	0.136	140503	keystroke_r	r	n/a
70.5555	0.08	141111	keystroke_i	i	n/a
70.6675	0.088	141335	keystroke_e	e	n/a
70.8995	0.104	141799	keystroke_s	s	n/a
70.9875	0.08	141975	keystroke_Key.space	Key.space	n/a
71.1555	0.112	142311	keystroke_s	s	n/a
71.3555	0.144	142711	keystroke_e	e	n/a
71.4835	0.088	142967	keystroke_n	n	n/a
71.6515	0.128	143303	keystroke_d	d	n/a
71.7715	0.208	143543	keystroke_e	e	n/a
71.9235	0.184	143847	keystroke_r	r	n/a
72.0995	0.072	144199	keystroke_Key.space	Key.space	n/a
72.4275	0.184	144855	keystroke_c	c	n/a
72.5715	0.08	145143	keystroke_o	o	n/a
72.7715	0.088	145543	keystroke_p	p	n/a
72.8995	0.152	145799	keystroke_e	e	n/a
73.1635	0.056	146327	keystroke_Key.space	Key.space	n/a
73.5795	0.152	147159	keystroke_s	s	n/a
73.7155	0.104	147431	keystroke_l	l	n/a
73.8995	0.12	147799	keystroke_e	e	n/a
74.1235	0.12	148247	keystroke_e	e	n/a
74.1955	0.088	148391	keystroke_p	p	n/a
74.3955	0.16	148791	keystroke_s	s	n/a
74.5795	0.096	149159	keystroke_Key.enter	Key.enter	n/a
74.6795	6.517	149359	prompt	n/a	necklace bald message long\n
75.2915	0.088	150583	keystroke_n	n	n/a
75.4195	0.136	150839	keystroke_e	e	n/a
75.6275	0.152	151255	keystroke_c	c	n/a
75.8515	0.064	151703	keystroke_k	k	n/a
76.1715	0.072	152343	keystroke_l	l	n/a
76.3395	0.128	152679	keystroke_a	a	n/a
76.5315	0.216	153063	keystroke_c	c	n/a
76.6355	0.176	153271	keystroke_e	e	n/a
76.8035	0.08	153607	keystroke_Key.space	Key.space	n/a
77.0515	0.072	154103	keystroke_b	b	n/a
77.1635	0.152	154327	keystroke_a	a	n/a
77.2755	0.096	154551	keystroke_l	l	n/a
77.5315	0.064	155063	keystroke_k	k	n/a
78.0755	0.096	156151	keystroke_Key.backspace	Key.backspace	n/a
78.3235	0.144	156647	keystroke_d	d	n/a
78.5555	0.072	157111	keystroke_Key.space	Key.space	n/a
78.8595	0.152	157719	keystroke_m	m	n/a
79.0515	0.104	158103	keystroke_e	e	n/a
79.2755	0.08	158551	keystroke_s	s	n/a
79.4515	0.112	158903	keystroke_s	s	n/a
79.5555	0.12	159111	keystroke_a	a	n/a
79.7715	0.176	159543	keystroke_g	g	n/a
79.8435	0.176	159687	keystroke_e	e	n/a
80.2675	0.088	160535	keystroke_Key.space	Key.space	n/a
80.5315	0.096	161063	keystroke_l	l	n/a
80.7235	0.168	161447	keystroke_o	o	n/a
80.8355	0.128	161671	keystroke_n	n	n/a
80.9315	0.152	161863	keystroke_g	g	n/a
81.0915	0.104	162183	keystroke_Key.enter	Key.enter	n/a
81.199	8.0695	162398	prompt	n/a	anxiety spiritual normal secondary\n
81.9075	0.096	163815	keystroke_e	e	n/a
82.2035	0.088	164407	keystroke_Key.backspace	Key.backspace	n/a
82.4195	0.136	164839	keystroke_a	a	n/a
82.4835	0.096	164967	keystroke_n	n	n/a
82.7315	0.152	165463	keystroke_x	x	n/a
82.9475	0.08	165895	keystroke_i	i	n/a
83.0915	0.1765	166183	keystroke_e	e	n/a
83.5555	0.128	167111	keystroke_t	t	n/a
83.7875	0.12	167575	keystroke_y	y	n/a
83.9475	0.096	167895	keystroke_Key.space	Key.space	n/a
84.1635	0.152	168327	keystroke_s	s	n/a
84.3395	0.128	168679	keystroke_p	p	n/a
84.6355	0.088	169271	keystroke_i	i	n/a
85.1475	0.168	170295	keystroke_r	r	n/a
85.2995	0.072	170599	keystroke_i	i	n/a
85.5875	0.16	171175	keystroke_t	t	n/a
85.7235	0.0795	171447	keystroke_u	u	n/a
85.835	0.16	171670	keystroke_a	a	n/a
85.971	0.072	171942	keystroke_l	l	n/a
86.195	0.072	172390	keystroke_Key.space	Key.space	n/a
86.459	0.104	172918	keystroke_n	n	n/a
86.564	0.119	173128	keystroke_o	o	n/a
86.675	0.121	173350	keystroke_r	r	n/a
86.796	0.103	173592	keystroke_m	m	n/a
86.923	0.144	173846	keystroke_a	a	n/a
87.043	0.08	174086	keystroke_l	l	n/a
87.259	0.096	174518	keystroke_Key.space	Key.space	n/a
87.611	0.088	175222	keystroke_s	s	n/a
87.819	0.128	175638	keystroke_e	e	n/a
87.987	0.16	175974	keystroke_c	c	n/a
88.107	0.128	176214	keystroke_o	o	n/a
88.187	0.12	176374	keystroke_n	n	n/a
88.291	0.184	176582	keystroke_d	d	n/a
88.411	0.176	176822	keystroke_a	a	n/a
88.627	0.2075	177254	keystroke_r	r	n/a
89.0105	0.1445	178021	keystroke_y	y	n/a
89.1945	0.0725	178389	keystroke_Key.enter	Key.enter	n/a
89.271	7.325	178542	prompt	n/a	carolina probe advance bristol\n
89.9225	0.144	179845	keystroke_c	c	n/a
90.0425	0.136	180085	keystroke_a	a	n/a
90.2185	0.168	180437	keystroke_r	r	n/a
90.6025	0.088	181205	keystroke_o	o	n/a
90.8425	0.224	181685	keystroke_l	l	n/a
90.9705	0.176	181941	keystroke_i	i	n/a
91.0905	0.152	182181	keystroke_n	n	n/a
91.2825	0.168	182565	keystroke_a	a	n/a
91.5145	0.088	183029	keystroke_Key.space	Key.space	n/a
91.7305	0.097	183461	keystroke_p	p	n/a
91.9395	0.152	183879	keystroke_r	r	n/a
92.1155	0.128	184231	keystroke_o	o	n/a
92.1635	0.136	184327	keystroke_b	b	n/a
92.3955	0.096	184791	keystroke_l	l	n/a
92.5315	0.136	185063	keystroke_e	e	n/a
92.8505	0.081	185701	keystroke_Key.backspace	Key.backspace	n/a
93.0185	0.088	186037	keystroke_Key.backspace	Key.backspace	n/a
93.1395	0.1515	186279	keystroke_e	e	n/a
93.307	0.072	186614	keystroke_Key.space	Key.space	n/a
93.555	0.1845	187110	keystroke_a	a	n/a
93.7475	0.128	187495	keystroke_d	d	n/a
93.9955	0.12	187991	keystroke_v	v	n/a
94.1315	0.168	188263	keystroke_a	a	n/a
94.3075	0.08	188615	keystroke_n	n	n/a
94.427	0.208	188854	keystroke_c	c	n/a
94.507	0.224	189014	keystroke_e	e	n/a
94.731	0.0875	189462	keystroke_Key.space	Key.space	n/a
95.018	0.081	190036	keystroke_b	b	n/a
95.1625	0.136	190325	keystroke_r	r	n/a
95.2745	0.072	190549	keystroke_i	i	n/a
95.4265	0.0795	190853	keystroke_s	s	n/a
95.562	0.137	191124	keystroke_t	t	n/a
96.059	0.096	192118	keystroke_o	o	n/a
96.291	0.08	192582	keystroke_l	l	n/a
96.515	0.08	193030	keystroke_Key.enter	Key.enter	n/a
96.6005	8.115	193201	prompt	n/a	efficiency undo legacy earthquake\n
97.403	0.136	194806	keystroke_e	e	n/a
97.635	0.08	195270	keystroke_f	f	n/a
97.787	0.16	195574	keystroke_f	f	n/a
97.995	0.072	195990	keystroke_i	i	n/a
98.315	0.168	196630	keystroke_c	c	n/a
98.491	0.08	196982	keystroke_i	i	n/a
98.603	0.144	197206	keystroke_e	e	n/a
98.739	0.096	197478	keystroke_n	n	n/a
98.899	0.128	197798	keystroke_c	c	n/a
99.211	0.12	198422	keystroke_y	y	n/a
99.363	0.08	198726	keystroke_Key.space	Key.space	n/a
99.715	0.112	199430	keystroke_u	u	n/a
99.899	0.12	199798	keystroke_n	n	n/a
100.075	0.136	200150	keystroke_d	d	n/a
100.187	0.064	200374	keystroke_o	o	n/a
100.395	0.072	200790	keystroke_Key.space	Key.space	n/a
100.611	0.104	201222	keystroke_l	l	n/a
100.715	0.136	201430	keystroke_e	e	n/a
100.931	0.168	201862	keystroke_g	g	n/a
101.059	0.168	202118	keystroke_a	a	n/a
101.347	0.096	202694	keystroke_c	c	n/a
101.595	0.128	203190	keystroke_y	y	n/a
101.746	0.088	203492	keystroke_Key.space	Key.space	n/a
101.931	0.344	203862	keystroke_e	e	n/a
102.091	0.144	204182	keystroke_a	a	n/a
102.195	0.168	204390	keystroke_r	r	n/a
102.491	0.176	204982	keystroke_t	t	n/a
102.699	0.12	205398	keystroke_h	h	n/a
103.075	0.088	206150	keystroke_l	l	n/a
103.498	0.096	206996	keystroke_Key.backspace	Key.backspace	n/a
103.651	0.128	207302	keystroke_q	q	n/a
103.787	0.088	207574	keystroke_u	u	n/a
103.899	0.152	207798	keystroke_a	a	n/a
104.371	0.104	208742	keystroke_k	k	n/a
104.491	0.168	208982	keystroke_e	e	n/a
104.635	0.08	209270	keystroke_Key.enter	Key.enter	n/a
104.719	5.9565	209438	prompt	n/a	bored magic martial pencil\n
105.4345	0.104	210869	keystroke_b	b	n/a
105.5225	0.12	211045	keystroke_o	o	n/a
105.9865	0.176	211973	keystroke_r	r	n/a
106.0985	0.12	212197	keystroke_e	e	n/a
106.3385	0.136	212677	keystroke_d	d	n/a
106.4665	0.088	212933	keystroke_Key.space	Key.space	n/a
106.6985	0.104	213397	keystroke_m	m	n/a
106.7705	0.152	213541	keystroke_a	a	n/a
107.339	0.103	214678	keystroke_g	g	n/a
107.482	0.089	214964	keystroke_i	i	n/a
107.61	0.192	215220	keystroke_c	c	n/a
107.858	0.08	215716	keystroke_Key.space	Key.space	n/a
108.131	0.112	216262	keystroke_m	m	n/a
108.274	0.177	216548	keystroke_a	a	n/a
108.675	0.111	217350	keystroke_r	r	n/a
108.923	0.111	217846	keystroke_t	t	n/a
109.035	0.071	218070	keystroke_i	i	n/a
109.178	0.16	218356	keystroke_a	a	n/a
109.282	0.064	218564	keystroke_l	l	n/a
109.482	0.088	218964	keystroke_Key.space	Key.space	n/a
109.714	0.088	219428	keystroke_p	p	n/a
109.834	0.136	219668	keystroke_e	e	n/a
109.962	0.072	219924	keystroke_n	n	n/a
110.066	0.136	220132	keystroke_c	c	n/a
110.17	0.072	220340	keystroke_i	i	n/a
110.298	0.16	220596	keystroke_a	a	n/a
110.378	0.088	220756	keystroke_l	l	n/a
110.586	0.088	221172	keystroke_Key.enter	Key.enter	n/a
110.6785	9.6615	221357	prompt	n/a	arguments engineers derived trouble\n
111.37	0.176	222740	keystroke_a	a	n/a
111.506	0.056	223012	keystroke_n	n	n/a
111.866	0.088	223732	keystroke_Key.backspace	Key.backspace	n/a
111.978	0.12	223956	keystroke_r	r	n/a
112.227	0.144	224454	keystroke_g	g	n/a
112.347	0.08	224694	keystroke_u	u	n/a
112.57	0.168	225140	keystroke_r	r	n/a
113.066	0.057	226132	keystroke_m	m	n/a
113.306	0.088	226612	keystroke_Key.backspace	Key.backspace	n/a
113.466	0.088	226932	keystroke_Key.backspace	Key.backspace	n/a
113.691	0.095	227382	keystroke_m	m	n/a
113.803	0.151	227606	keystroke_e	e	n/a
113.922	0.08	227844	keystroke_n	n	n/a
114.027	0.151	228054	keystroke_t	t	n/a
114.17	0.136	228340	keystroke_s	s	n/a
114.298	0.072	228596	keystroke_Key.space	Key.space	n/a
114.514	0.192	229028	keystroke_e	e	n/a
114.651	0.08	229302	keystroke_n	n	n/a
114.794	0.152	229588	keystroke_g	g	n/a
114.954	0.08	229908	keystroke_i	i	n/a
115.09	0.112	230180	keystroke_e	e	n/a
115.306	0.136	230612	keystroke_e	e	n/a
115.49	0.16	230980	keystroke_r	r	n/a
115.602	0.096	231204	keystroke_e	e	n/a
116.034	0.088	232068	keystroke_Key.backspace	Key.backspace	n/a
116.202	0.128	232404	keystroke_s	s	n/a
116.378	0.088	232756	keystroke_Key.space	Key.space	n/a
116.642	0.16	233284	keystroke_d	d	n/a
117.026	0.216	234052	keystroke_e	e	n/a
117.194	0.16	234388	keystroke_r	r	n/a
117.41	0.0805	234820	keystroke_i	i	n/a
117.6025	0.2	235205	keystroke_v	v	n/a
117.8825	0.136	235765	keystroke_e	e	n/a
118.1145	0.16	236229	keystroke_d	d	n/a
118.2585	0.072	236517	keystroke_Key.space	Key.space	n/a
118.5945	0.088	237189	keystroke_r	r	n/a
119.0745	0.088	238149	keystroke_Key.backspace	Key.backspace	n/a
119.2185	0.088	238437	keystroke_t	t	n/a
119.3945	0.152	238789	keystroke_r	r	n/a
119.4505	0.232	238901	keystroke_o	o	n/a
119.5865	0.12	239173	keystroke_u	u	n/a
119.7865	0.12	239573	keystroke_b	b	n/a
119.9465	0.12	239893	keystroke_l	l	n/a
120.0585	0.176	240117	keystroke_e	e	n/a
120.2265	0.112	240453	keystroke_Key.enter	Key.enter	n/a
120.3425	5.7255	240685	prompt	n/a	involved wave internet abuse\n
121.0185	0.12	242037	keystroke_i	i	n/a
121.1145	0.12	242229	keystroke_n	n	n/a
121.3145	0.192	242629	keystroke_v	v	n/a
121.4665	0.088	242933	keystroke_o	o	n/a
121.6825	0.112	243365	keystroke_l	l	n/a
121.7705	0.104	243541	keystroke_e	e	n/a
121.9865	0.16	243973	keystroke_d	d	n/a
122.1785	0.088	244357	keystroke_Key.space	Key.space	n/a
122.4345	0.248	244869	keystroke_w	w	n/a
122.5465	0.176	245093	keystroke_a	a	n/a
123.0745	0.2	246149	keystroke_v	v	n/a
123.1785	0.2	246357	keystroke_e	e	n/a
123.6425	0.096	247285	keystroke_Key.space	Key.space	n/a
123.9065	0.144	247813	keystroke_i	i	n/a
124.0345	0.136	248069	keystroke_n	n	n/a
124.2665	0.136	248533	keystroke_t	t	n/a
124.3705	0.184	248741	keystroke_e	e	n/a
124.4985	0.136	248997	keystroke_r	r	n/a
124.5865	0.088	249173	keystroke_n	n	n/a
124.7225	0.176	249445	keystroke_e	e	n/a
124.8585	0.16	249717	keystroke_t	t	n/a
124.9465	0.096	249893	keystroke_Key.space	Key.space	n/a
125.3065	0.192	250613	keystroke_a	a	n/a
125.4265	0.112	250853	keystroke_b	b	n/a
125.5145	0.128	251029	keystroke_u	u	n/a
125.6745	0.104	251349	keystroke_s	s	n/a
125.8745	0.192	251749	keystroke_e	e	n/a
125.9865	0.08	251973	keystroke_Key.enter	Key.enter	n/a
126.0715	8.572	252143	prompt	n/a	stretch invision identifier submitted\n
126.7545	0.112	253509	keystroke_s	s	n/a
126.9465	0.088	253893	keystroke_t	t	n/a
127.1305	0.12	254261	keystroke_r	r	n/a
127.1625	0.184	254325	keystroke_e	e	n/a
127.6985	0.144	255397	keystroke_t	t	n/a
128.0185	0.2	256037	keystroke_c	c	n/a
128.1225	0.088	256245	keystroke_h	h	n/a
128.3545	0.072	256709	keystroke_Key.space	Key.space	n/a
128.5385	0.128	257077	keystroke_i	i	n/a
128.6265	0.12	257253	keystroke_n	n	n/a
129.0025	0.152	258005	keystroke_v	v	n/a
129.1865	0.088	258373	keystroke_i	i	n/a
129.4345	0.176	258869	keystroke_s	s	n/a
129.5625	0.168	259125	keystroke_o	o	n/a
129.6825	0.112	259365	keystroke_n	n	n/a
129.9305	0.096	259861	keystroke_Key.space	Key.space	n/a
130.2425	0.16	260485	keystroke_i	i	n/a
130.3785	0.12	260757	keystroke_n	n	n/a
130.7625	0.096	261525	keystroke_Key.backspace	Key.backspace	n/a
131.1145	0.208	262229	keystroke_d	d	n/a
131.2425	0.216	262485	keystroke_e	e	n/a
131.3705	0.08	262741	keystroke_n	n	n/a
131.5785	0.16	263157	keystroke_t	t	n/a
131.7065	0.072	263413	keystroke_i	i	n/a
131.9385	0.192	263877	keystroke_f	f	n/a
132.1545	0.08	264309	keystroke_i	i	n/a
132.2905	0.08	264581	keystroke_e	e	n/a
132.7145	0.176	265429	keystroke_r	r	n/a
132.9375	0.08	265875	keystroke_Key.space	Key.space	n/a
133.1785	0.152	266357	keystroke_s	s	n/a
133.2505	0.112	266501	keystroke_u	u	n/a
133.3865	0.1035	266773	keystroke_b	b	n/a
133.674	0.112	267348	keystroke_m	m	n/a
133.81	0.128	267620	keystroke_i	i	n/a
134.01	0.096	268020	keystroke_t	t	n/a
134.186	0.112	268372	keystroke_t	t	n/a
134.25	0.072	268500	keystroke_e	e	n/a
134.434	0.168	268868	keystroke_d	d	n/a
134.562	0.08	269124	keystroke_Key.enter	Key.enter	n/a
134.6495	9.514	269299	prompt	n/a	captured order square toolbar\n
135.57	0.2	271140	keystroke_c	c	n/a
135.69	0.192	271380	keystroke_a	a	n/a
135.818	0.088	271636	keystroke_p	p	n/a
136.05	0.088	272100	keystroke_u	u	n/a
136.146	0.136	272292	keystroke_t	t	n/a
136.362	0.192	272724	keystroke_r	r	n/a
136.458	0.2	272916	keystroke_e	e	n/a
136.826	0.104	273652	keystroke_Key.backspace	Key.backspace	n/a
137.0585	0.072	274117	keystroke_Key.backspace	Key.backspace	n/a
137.2425	0.104	274485	keystroke_Key.backspace	Key.backspace	n/a
137.8825	0.104	275765	keystroke_Key.backspace	Key.backspace	n/a
138.4825	0.112	276965	keystroke_t	t	n/a
138.6745	0.08	277349	keystroke_u	u	n/a
138.7625	0.144	277525	keystroke_r	r	n/a
138.8345	0.12	277669	keystroke_e	e	n/a
139.0745	0.144	278149	keystroke_d	d	n/a
139.2265	0.08	278453	keystroke_Key.space	Key.space	n/a
139.5785	0.112	279157	keystroke_o	o	n/a
139.6985	0.192	279397	keystroke_r	r	n/a
140.0665	0.128	280133	keystroke_d	d	n/a
140.1465	0.232	280293	keystroke_e	e	n/a
140.3145	0.168	280629	keystroke_r	r	n/a
140.4425	0.064	280885	keystroke_Key.space	Key.space	n/a
140.6105	0.128	281221	keystroke_s	s	n/a
140.8825	0.096	281765	keystroke_q	q	n/a
141.0585	0.08	282117	keystroke_u	u	n/a
141.1785	0.152	282357	keystroke_a	a	n/a
141.3945	0.248	282789	keystroke_r	r	n/a
141.4825	0.184	282965	keystroke_e	e	n/a
141.8425	0.08	283685	keystroke_Key.space	Key.space	n/a
142.3865	0.16	284773	keystroke_t	t	n/a
142.4745	0.096	284949	keystroke_o	o	n/a
142.6905	0.08	285381	keystroke_o	o	n/a
143.0985	0.072	286197	keystroke_l	l	n/a
143.5625	0.08	287125	keystroke_b	b	n/a
143.6665	0.152	287333	keystroke_a	a	n/a
143.7865	0.16	287573	keystroke_r	r	n/a
144.0985	0.064	288197	keystroke_Key.enter	Key.enter	n/a
144.166	8.2535	288332	prompt	n/a	findings necessarily partly preference\n
144.986	0.128	289972	keystroke_f	f	n/a
145.082	0.1365	290164	keystroke_i	i	n/a
145.186	0.1125	290372	keystroke_n	n	n/a
145.3225	0.144	290645	keystroke_d	d	n/a
145.4985	0.112	290997	keystroke_i	i	n/a
145.5545	0.12	291109	keystroke_n	n	n/a
145.6505	0.232	291301	keystroke_g	g	n/a
145.8265	0.1755	291653	keystroke_s	s	n/a
146.1385	0.088	292277	keystroke_Key.space	Key.space	n/a
146.3785	0.096	292757	keystroke_n	n	n/a
146.4665	0.096	292933	keystroke_e	e	n/a
146.9465	0.176	293893	keystroke_c	c	n/a
147.0665	0.136	294133	keystroke_e	e	n/a
147.3945	0.024	294789	keystroke_s	s	n/a
147.5225	0.112	295045	keystroke_s	s	n/a
148.0265	0.184	296053	keystroke_a	a	n/a
148.1785	0.168	296357	keystroke_r	r	n/a
148.4985	0.088	296997	keystroke_i	i	n/a
148.762	0.104	297524	keystroke_l	l	n/a
149.218	0.136	298436	keystroke_y	y	n/a
149.41	0.096	298820	keystroke_Key.space	Key.space	n/a
149.698	0.104	299396	keystroke_p	p	n/a
149.818	0.136	299636	keystroke_a	a	n/a
149.906	0.104	299812	keystroke_r	r	n/a
150.09	0.144	300180	keystroke_t	t	n/a
150.25	0.08	300500	keystroke_l	l	n/a
150.426	0.088	300852	keystroke_y	y	n/a
150.538	0.112	301076	keystroke_Key.space	Key.space	n/a
150.874	0.12	301748	keystroke_p	p	n/a
150.986	0.128	301972	keystroke_r	r	n/a
151.098	0.088	302196	keystroke_e	e	n/a
151.234	0.16	302468	keystroke_f	f	n/a
151.338	0.208	302676	keystroke_e	e	n/a
151.514	0.184	303028	keystroke_r	r	n/a
151.674	0.176	303348	keystroke_e	e	n/a
151.834	0.096	303668	keystroke_n	n	n/a
151.978	0.192	303956	keystroke_c	c	n/a
152.066	0.2	304132	keystroke_e	e	n/a
152.322	0.096	304644	keystroke_Key.enter	Key.enter	n/a
152.422	7.726	304844	prompt	n/a	monitoring searches those advisory\n
153.178	0.136	306356	keystroke_m	m	n/a
153.266	0.1765	306532	keystroke_o	o	n/a
153.418	0.1685	306836	keystroke_n	n	n/a
153.5625	0.112	307125	keystroke_i	i	n/a
153.7145	0.104	307429	keystroke_t	t	n/a
153.8665	0.056	307733	keystroke_o	o	n/a
153.9465	0.096	307893	keystroke_r	r	n/a
154.0905	0.152	308181	keystroke_i	i	n/a
154.2025	0.112	308405	keystroke_n	n	n/a
154.2825	0.144	308565	keystroke_g	g	n/a
154.4335	0.089	308867	keystroke_Key.space	Key.space	n/a
154.6105	0.072	309221	keystroke_s	s	n/a
154.7785	0.328	309557	keystroke_e	e	n/a
154.9305	0.224	309861	keystroke_a	a	n/a
154.9945	0.16	309989	keystroke_r	r	n/a
155.6905	0.168	311381	keystroke_c	c	n/a
155.8345	0.096	311669	keystroke_h	h	n/a
155.9145	0.12	311829	keystroke_i	i	n/a
156.3535	0.096	312707	keystroke_Key.backspace	Key.backspace	n/a
156.5305	0.072	313061	keystroke_e	e	n/a
156.7305	0.136	313461	keystroke_s	s	n/a
156.8335	0.072	313667	keystroke_Key.space	Key.space	n/a
157.1695	0.1445	314339	keystroke_t	t	n/a
157.258	0.112	314516	keystroke_h	h	n/a
157.346	0.104	314692	keystroke_o	o	n/a
157.458	0.096	314916	keystroke_s	s	n/a
157.642	0.16	315284	keystroke_e	e	n/a
157.786	0.088	315572	keystroke_Key.space	Key.space	n/a
158.066	0.176	316132	keystroke_a	a	n/a
158.21	0.112	316420	keystroke_d	d	n/a
158.426	0.136	316852	keystroke_v	v	n/a
158.602	0.072	317204	keystroke_i	i	n/a
158.946	0.112	317892	keystroke_r	r	n/a
159.258	0.088	318516	keystroke_Key.backspace	Key.backspace	n/a
159.4425	0.128	318885	keystroke_s	s	n/a
159.5385	0.088	319077	keystroke_o	o	n/a
159.6425	0.12	319285	keystroke_r	r	n/a
159.9225	0.104	319845	keystroke_y	y	n/a
160.0665	0.08	320133	keystroke_Key.enter	Key.enter	n/a
160.1525	10.0345	320305	prompt	n/a	shakespeare german ronald benefit\n
160.7705	0.136	321541	keystroke_s	s	n/a
160.8665	0.104	321733	keystroke_h	h	n/a
160.9865	0.144	321973	keystroke_a	a	n/a
161.2105	0.072	322421	keystroke_k	k	n/a
161.2745	0.136	322549	keystroke_e	e	n/a
161.7385	0.088	323477	keystroke_p	p	n/a
161.8585	0.232	323717	keystroke_e	e	n/a
161.9945	0.1835	323989	keystroke_a	a	n/a
162.274	0.08	324548	keystroke_s	s	n/a
162.482	0.096	324964	keystroke_e	e	n/a
162.834	0.088	325668	keystroke_Key.backspace	Key.backspace	n/a
162.994	0.176	325988	keystroke_r	r	n/a
163.058	0.1675	326116	keystroke_e	e	n/a
163.6735	0.096	327347	keystroke_Key.backspace	Key.backspace	n/a
163.8895	0.088	327779	keystroke_Key.backspace	Key.backspace	n/a
164.0335	0.072	328067	keystroke_Key.backspace	Key.backspace	n/a
164.1615	0.176	328323	keystroke_r	r	n/a
164.2095	0.16	328419	keystroke_e	e	n/a
164.4015	0.08	328803	keystroke_Key.space	Key.space	n/a
166.762	0.16	333524	keystroke_g	g	n/a
166.858	0.176	333716	keystroke_e	e	n/a
167.09	0.152	334180	keystroke_r	r	n/a
167.274	0.08	334548	keystroke_m	m	n/a
167.434	0.176	334868	keystroke_a	a	n/a
167.522	0.08	335044	keystroke_n	n	n/a
167.746	0.088	335492	keystroke_Key.space	Key.space	n/a
167.986	0.176	335972	keystroke_r	r	n/a
168.138	0.136	336276	keystroke_o	o	n/a
168.234	0.112	336468	keystroke_n	n	n/a
168.402	0.16	336804	keystroke_a	a	n/a
168.522	0.088	337044	keystroke_l	l	n/a
168.778	0.16	337556	keystroke_d	d	n/a
168.93	0.096	337860	keystroke_Key.space	Key.space	n/a
169.266	0.088	338532	keystroke_b	b	n/a
169.362	0.12	338724	keystroke_e	e	n/a
169.498	0.088	338996	keystroke_n	n	n/a
169.562	0.144	339124	keystroke_e	e	n/a
169.714	0.104	339428	keystroke_f	f	n/a
169.802	0.072	339604	keystroke_i	i	n/a
169.938	0.144	339876	keystroke_t	t	n/a
170.074	0.112	340148	keystroke_Key.enter	Key.enter	n/a
170.1895	7.3575	340379	prompt	n/a	husband jenny dead membership\n
171.122	0.184	342244	keystroke_h	h	n/a
171.178	0.168	342356	keystroke_u	u	n/a
171.434	0.144	342868	keystroke_s	s	n/a
171.89	0.08	343780	keystroke_b	b	n/a
172.082	0.16	344164	keystroke_a	a	n/a
172.218	0.104	344436	keystroke_n	n	n/a
172.354	0.136	344708	keystroke_d	d	n/a
172.7695	0.08	345539	keystroke_Key.space	Key.space	n/a
173.0015	0.088	346003	keystroke_j	j	n/a
173.1295	0.136	346259	keystroke_e	e	n/a
173.2735	0.08	346547	keystroke_n	n	n/a
173.4415	0.104	346883	keystroke_n	n	n/a
173.6415	0.16	347283	keystroke_e	e	n/a
174.0575	0.08	348115	keystroke_Key.backspace	Key.backspace	n/a
174.1855	0.112	348371	keystroke_y	y	n/a
174.3615	0.088	348723	keystroke_Key.space	Key.space	n/a
174.6815	0.144	349363	keystroke_d	d	n/a
174.7695	0.28	349539	keystroke_e	e	n/a
174.9055	0.184	349811	keystroke_a	a	n/a
175.1375	0.144	350275	keystroke_d	d	n/a
175.4015	0.096	350803	keystroke_Key.space	Key.space	n/a
175.8815	0.096	351763	keystroke_m	m	n/a
175.9855	0.128	351971	keystroke_e	e	n/a
176.0815	0.064	352163	keystroke_m	m	n/a
176.2495	0.168	352499	keystroke_e	e	n/a
176.2815	0.08	352563	keystroke_b	b	n/a
176.4095	0.136	352819	keystroke_r	r	n/a
176.6495	0.168	353299	keystroke_s	s	n/a
176.7455	0.144	353491	keystroke_h	h	n/a
176.8335	0.176	353667	keystroke_i	i	n/a
176.9775	0.152	353955	keystroke_p	p	n/a
177.4415	0.104	354883	keystroke_Key.enter	Key.enter	n/a
177.55	7.941	355100	prompt	n/a	provision saudi samoa councils\n
178.137	0.104	356274	keystroke_p	p	n/a
178.257	0.112	356514	keystroke_r	r	n/a
178.369	0.08	356738	keystroke_o	o	n/a
178.521	0.136	357042	keystroke_v	v	n/a
178.713	0.048	357426	keystroke_i	i	n/a
178.937	0.144	357874	keystroke_s	s	n/a
179.041	0.168	358082	keystroke_o	o	n/a
179.153	0.128	358306	keystroke_n	n	n/a
179.401	0.096	358802	keystroke_Key.space	Key.space	n/a
179.8015	0.104	359603	keystroke_s	s	n/a
179.9855	0.1765	359971	keystroke_a	a	n/a
180.138	0.088	360276	keystroke_u	u	n/a
180.306	0.16	360612	keystroke_d	d	n/a
180.426	0.072	360852	keystroke_i	i	n/a
180.754	0.104	361508	keystroke_Key.space	Key.space	n/a
181.066	0.208	362132	keystroke_s	s	n/a
181.178	0.224	362356	keystroke_a	a	n/a
181.37	0.088	362740	keystroke_o	o	n/a
182.242	0.096	364484	keystroke_Key.backspace	Key.backspace	n/a
182.514	0.104	365028	keystroke_m	m	n/a
182.754	0.104	365508	keystroke_o	o	n/a
182.906	0.184	365812	keystroke_a	a	n/a
183.218	0.088	366436	keystroke_Key.space	Key.space	n/a
183.706	0.192	367412	keystroke_c	c	n/a
183.818	0.216	367636	keystroke_o	o	n/a
183.89	0.128	367780	keystroke_u	u	n/a
184.474	0.112	368948	keystroke_n	n	n/a
184.906	0.16	369812	keystroke_c	c	n/a
184.994	0.08	369988	keystroke_i	i	n/a
185.162	0.088	370324	keystroke_l	l	n/a
185.29	0.136	370580	keystroke_s	s	n/a
185.402	0.088	370804	keystroke_Key.enter	Key.enter	n/a
185.494	6.9965	370988	prompt	n/a	collaboration peer depend different\n
186.226	0.144	372452	keystroke_c	c	n/a
186.314	0.072	372628	keystroke_o	o	n/a
186.522	0.072	373044	keystroke_l	l	n/a
186.674	0.096	373348	keystroke_l	l	n/a
186.77	0.152	373540	keystroke_a	a	n/a
187.466	0.096	374932	keystroke_b	b	n/a
187.642	0.096	375284	keystroke_o	o	n/a
187.9855	0.152	375971	keystroke_r	r	n/a
188.0575	0.16	376115	keystroke_a	a	n/a
188.2895	0.136	376579	keystroke_t	t	n/a
188.3855	0.248	376771	keystroke_i	i	n/a
188.4895	0.152	376979	keystroke_o	o	n/a
188.5775	0.112	377155	keystroke_n	n	n/a
188.8095	0.072	377619	keystroke_Key.space	Key.space	n/a
189.0015	0.104	378003	keystroke_p	p	n/a
189.0815	0.096	378163	keystroke_e	e	n/a
189.2735	0.1765	378547	keystroke_e	e	n/a
189.426	0.16	378852	keystroke_r	r	n/a
189.61	0.087	379220	keystroke_Key.space	Key.space	n/a
189.89	0.152	379780	keystroke_d	d	n/a
190.002	0.176	380004	keystroke_e	e	n/a
190.154	0.072	380308	keystroke_p	p	n/a
190.274	0.152	380548	keystroke_e	e	n/a
190.418	0.08	380836	keystroke_n	n	n/a
190.514	0.152	381028	keystroke_d	d	n/a
190.906	0.088	381812	keystroke_Key.space	Key.space	n/a
191.362	0.104	382724	keystroke_d	d	n/a
191.434	0.08	382868	keystroke_i	i	n/a
191.562	0.112	383124	keystroke_f	f	n/a
191.77	0.08	383540	keystroke_f	f	n/a
191.818	0.16	383636	keystroke_e	e	n/a
191.961	0.169	383922	keystroke_r	r	n/a
192.065	0.169	384130	keystroke_e	e	n/a
192.154	0.088	384308	keystroke_n	n	n/a
192.282	0.152	384564	keystroke_t	t	n/a
192.393	0.097	384786	keystroke_Key.enter	Key.enter	n/a
192.4935	11.7255	384987	prompt	n/a	contemporary adaptation infringement charger\n
193.322	0.136	386644	keystroke_c	c	n/a
193.434	0.136	386868	keystroke_o	o	n/a
193.522	0.112	387044	keystroke_n	n	n/a
193.706	0.152	387412	keystroke_t	t	n/a
193.794	0.168	387588	keystroke_e	e	n/a
193.978	0.088	387956	keystroke_m	m	n/a
194.218	0.104	388436	keystroke_p	p	n/a
195.634	0.128	391268	keystroke_o	o	n/a
195.882	0.152	391764	keystroke_r	r	n/a
196.074	0.144	392148	keystroke_a	a	n/a
196.25	0.112	392500	keystroke_r	r	n/a
196.49	0.12	392980	keystroke_y	y	n/a
196.681	0.128	393362	keystroke_Key.space	Key.space	n/a
197.8095	0.136	395619	keystroke_a	a	n/a
197.9695	0.128	395939	keystroke_d	d	n/a
198.1615	0.136	396323	keystroke_a	a	n/a
198.4575	0.128	396915	keystroke_p	p	n/a
198.8255	0.136	397651	keystroke_t	t	n/a
198.9775	0.224	397955	keystroke_i	i	n/a
199.0815	0.192	398163	keystroke_o	o	n/a
199.2575	0.136	398515	keystroke_n	n	n/a
199.5375	0.088	399075	keystroke_Key.space	Key.space	n/a
200.0175	0.12	400035	keystroke_i	i	n/a
200.1295	0.128	400259	keystroke_n	n	n/a
200.3135	0.072	400627	keystroke_f	f	n/a
200.5935	0.184	401187	keystroke_r	r	n/a
201.5135	0.176	403027	keystroke_i	i	n/a
201.6415	0.128	403283	keystroke_n	n	n/a
201.7935	0.152	403587	keystroke_g	g	n/a
201.9215	0.152	403843	keystroke_e	e	n/a
202.0895	0.08	404179	keystroke_m	m	n/a
202.1855	0.128	404371	keystroke_e	e	n/a
202.2815	0.08	404563	keystroke_n	n	n/a
202.3535	0.144	404707	keystroke_t	t	n/a
202.4815	0.088	404963	keystroke_Key.space	Key.space	n/a
203.1055	0.12	406211	keystroke_c	c	n/a
203.2335	0.104	406467	keystroke_h	h	n/a
203.3135	0.144	406627	keystroke_a	a	n/a
203.4655	0.112	406931	keystroke_r	r	n/a
203.6735	0.144	407347	keystroke_g	g	n/a
203.7295	0.192	407459	keystroke_e	e	n/a
203.9295	0.208	407859	keystroke_r	r	n/a
204.1135	0.104	408227	keystroke_Key.enter	Key.enter	n/a
204.2225	8.188	408445	prompt	n/a	rides physically spokesman contains\n
204.8335	0.144	409667	keystroke_r	r	n/a
205.0575	0.096	410115	keystroke_i	i	n/a
205.2095	0.112	410419	keystroke_d	d	n/a
205.3135	0.152	410627	keystroke_e	e	n/a
205.5855	0.136	411171	keystroke_s	s	n/a
205.8255	0.072	411651	keystroke_Key.space	Key.space	n/a
206.297	0.08	412594	keystroke_p	p	n/a
206.6655	0.12	413331	keystroke_y	y	n/a
207.041	0.096	414082	keystroke_Key.backspace	Key.backspace	n/a
207.2815	0.12	414563	keystroke_h	h	n/a
207.3935	0.088	414787	keystroke_y	y	n/a
207.6095	0.128	415219	keystroke_s	s	n/a
207.7375	0.072	415475	keystroke_i	i	n/a
207.8655	0.152	415731	keystroke_c	c	n/a
207.9695	0.176	415939	keystroke_a	a	n/a
208.1295	0.0555	416259	keystroke_l	l	n/a
208.281	0.08	416562	keystroke_l	l	n/a
208.449	0.08	416898	keystroke_y	y	n/a
208.585	0.096	417170	keystroke_Key.space	Key.space	n/a
208.873	0.144	417746	keystroke_s	s	n/a
208.945	0.088	417890	keystroke_p	p	n/a
209.161	0.088	418322	keystroke_o	o	n/a
209.425	0.104	418850	keystroke_k	k	n/a
209.569	0.104	419138	keystroke_e	e	n/a
209.729	0.016	419458	keystroke_m	m	n/a
210.105	0.08	420210	keystroke_Key.backspace	Key.backspace	n/a
210.249	0.104	420498	keystroke_s	s	n/a
210.361	0.096	420722	keystroke_m	m	n/a
210.465	0.144	420930	keystroke_a	a	n/a
210.585	0.088	421170	keystroke_n	n	n/a
210.993	0.08	421986	keystroke_Key.space	Key.space	n/a
211.481	0.12	422962	keystroke_c	c	n/a
211.577	0.144	423154	keystroke_o	o	n/a
211.657	0.112	423314	keystroke_n	n	n/a
211.785	0.16	423570	keystroke_t	t	n/a
211.889	0.16	423778	keystroke_a	a	n/a
211.961	0.128	423922	keystroke_i	i	n/a
212.041	0.104	424082	keystroke_n	n	n/a
212.217	0.1435	424434	keystroke_s	s	n/a
212.3285	0.08	424657	keystroke_Key.enter	Key.enter	n/a
212.4135	7.0365	424827	prompt	n/a	rapid isaac louise adelaide\n
213.0005	0.16	426001	keystroke_r	r	n/a
213.1045	0.184	426209	keystroke_a	a	n/a
213.3525	0.096	426705	keystroke_p	p	n/a
213.5685	0.096	427137	keystroke_i	i	n/a
213.7045	0.136	427409	keystroke_d	d	n/a
213.9125	0.088	427825	keystroke_Key.space	Key.space	n/a
214.2245	0.088	428449	keystroke_i	i	n/a
214.4005	0.088	428801	keystroke_s	s	n/a
214.5925	0.064	429185	keystroke_s	s	n/a
214.9285	0.096	429857	keystroke_Key.backspace	Key.backspace	n/a
215.1045	0.12	430209	keystroke_a	a	n/a
215.3285	0.112	430657	keystroke_a	a	n/a
215.6085	0.136	431217	keystroke_c	c	n/a
215.8245	0.08	431649	keystroke_Key.space	Key.space	n/a
216.4085	0.088	432817	keystroke_l	l	n/a
216.6085	0.272	433217	keystroke_o	o	n/a
216.7765	0.104	433553	keystroke_u	u	n/a
217.0325	0.096	434065	keystroke_i	i	n/a
217.2005	0.088	434401	keystroke_s	s	n/a
217.4005	0.152	434801	keystroke_e	e	n/a
217.5365	0.08	435073	keystroke_Key.space	Key.space	n/a
217.8405	0.16	435681	keystroke_a	a	n/a
218.0405	0.16	436081	keystroke_d	d	n/a
218.2085	0.2085	436417	keystroke_e	e	n/a
218.625	0.12	437250	keystroke_l	l	n/a
218.841	0.152	437682	keystroke_a	a	n/a
219.001	0.072	438002	keystroke_i	i	n/a
219.113	0.208	438226	keystroke_d	d	n/a
219.185	0.192	438370	keystroke_e	e	n/a
219.361	0.088	438722	keystroke_Key.enter	Key.enter	n/a
219.453	8.037	438906	prompt	n/a	beds structural indonesian uganda\n
220.193	0.112	440386	keystroke_b	b	n/a
220.313	0.104	440626	keystroke_e	e	n/a
220.497	0.232	440994	keystroke_d	d	n/a
220.569	0.184	441138	keystroke_s	s	n/a
220.793	0.096	441586	keystroke_Key.space	Key.space	n/a
220.937	0.112	441874	keystroke_s	s	n/a
221.177	0.088	442354	keystroke_t	t	n/a
221.345	0.104	442690	keystroke_r	r	n/a
221.441	0.064	442882	keystroke_u	u	n/a
221.593	0.096	443186	keystroke_c	c	n/a
221.817	0.152	443634	keystroke_t	t	n/a
221.961	0.096	443922	keystroke_u	u	n/a
222.145	0.176	444290	keystroke_a	a	n/a
222.681	0.072	445362	keystroke_Key.backspace	Key.backspace	n/a
222.817	0.176	445634	keystroke_r	r	n/a
222.905	0.168	445810	keystroke_a	a	n/a
223.017	0.088	446034	keystroke_l	l	n/a
223.3365	0.096	446673	keystroke_Key.space	Key.space	n/a
223.7045	0.104	447409	keystroke_i	i	n/a
223.9285	0.096	447857	keystroke_n	n	n/a
224.1525	0.144	448305	keystroke_d	d	n/a
224.2885	0.16	448577	keystroke_o	o	n/a
224.3925	0.136	448785	keystroke_n	n	n/a
224.7845	0.16	449569	keystroke_e	e	n/a
225.3525	0.128	450705	keystroke_s	s	n/a
225.4885	0.072	450977	keystroke_i	i	n/a
225.6085	0.152	451217	keystroke_a	a	n/a
225.7605	0.08	451521	keystroke_n	n	n/a
226.0645	0.08	452129	keystroke_Key.space	Key.space	n/a
226.3205	0.128	452641	keystroke_u	u	n/a
226.5205	0.144	453041	keystroke_g	g	n/a
226.6885	0.184	453377	keystroke_a	a	n/a
226.8325	0.104	453665	keystroke_n	n	n/a
227.1605	0.192	454321	keystroke_d	d	n/a
227.3045	0.16	454609	keystroke_a	a	n/a
227.3765	0.112	454753	keystroke_Key.enter	Key.enter	n/a
227.493	6.5335	454986	prompt	n/a	clark manufacturing curve troops\n
228.2645	0.152	456529	keystroke_c	c	n/a
228.3845	0.096	456769	keystroke_l	l	n/a
228.4725	0.128	456945	keystroke_a	a	n/a
228.6325	0.144	457265	keystroke_r	r	n/a
228.8165	0.088	457633	keystroke_k	k	n/a
229.0725	0.08	458145	keystroke_Key.space	Key.space	n/a
229.4325	0.08	458865	keystroke_m	m	n/a
229.5685	0.16	459137	keystroke_a	a	n/a
229.6485	0.08	459297	keystroke_n	n	n/a
229.8805	0.112	459761	keystroke_u	u	n/a
230.0645	0.136	460129	keystroke_f	f	n/a
230.2245	0.144	460449	keystroke_a	a	n/a
230.4245	0.08	460849	keystroke_c	c	n/a
230.6565	0.184	461313	keystroke_t	t	n/a
230.9605	0.104	461921	keystroke_u	u	n/a
231.4085	0.104	462817	keystroke_r	r	n/a
231.5125	0.136	463025	keystroke_i	i	n/a
231.6165	0.096	463233	keystroke_n	n	n/a
231.6965	0.128	463393	keystroke_g	g	n/a
231.8565	0.072	463713	keystroke_Key.space	Key.space	n/a
232.0245	0.136	464049	keystroke_c	c	n/a
232.1685	0.096	464337	keystroke_u	u	n/a
232.3125	0.096	464625	keystroke_r	r	n/a
232.5445	0.16	465089	keystroke_v	v	n/a
232.6085	0.192	465217	keystroke_e	e	n/a
232.7445	0.096	465489	keystroke_Key.space	Key.space	n/a
232.9205	0.096	465841	keystroke_t	t	n/a
233.1125	0.16	466225	keystroke_r	r	n/a
233.1845	0.08	466369	keystroke_o	o	n/a
233.3525	0.08	466705	keystroke_o	o	n/a
233.5125	0.096	467025	keystroke_p	p	n/a
233.6805	0.128	467361	keystroke_s	s	n/a
233.9125	0.112	467825	keystroke_Key.enter	Key.enter	n/a
234.0325	6.1055	468065	prompt	n/a	adaptor pills writes profession\n
234.6485	0.128	469297	keystroke_a	a	n/a
234.8085	0.144	469617	keystroke_d	d	n/a
234.9445	0.168	469889	keystroke_a	a	n/a
235.0885	0.104	470177	keystroke_p	p	n/a
235.3765	0.168	470753	keystroke_t	t	n/a
235.5125	0.176	471025	keystroke_o	o	n/a
235.6245	0.104	471249	keystroke_p	p	n/a
235.8485	0.096	471697	keystroke_Key.space	Key.space	n/a
236.0885	0.12	472177	keystroke_p	p	n/a
236.3045	0.088	472609	keystroke_i	i	n/a
236.6245	0.096	473249	keystroke_l	l	n/a
236.8165	0.112	473633	keystroke_l	l	n/a
237.0165	0.1605	474033	keystroke_s	s	n/a
237.296	0.104	474592	keystroke_Key.space	Key.space	n/a
237.448	0.177	474896	keystroke_w	w	n/a
237.601	0.143	475202	keystroke_r	r	n/a
237.705	0.08	475410	keystroke_i	i	n/a
237.833	0.176	475666	keystroke_t	t	n/a
237.913	0.119	475826	keystroke_e	e	n/a
238.168	0.145	476336	keystroke_s	s	n/a
238.353	0.072	476706	keystroke_Key.space	Key.space	n/a
238.617	0.112	477234	keystroke_p	p	n/a
238.785	0.128	477570	keystroke_r	r	n/a
238.881	0.088	477762	keystroke_o	o	n/a
239.048	0.137	478096	keystroke_f	f	n/a
239.089	0.128	478178	keystroke_e	e	n/a
239.344	0.073	478688	keystroke_s	s	n/a
239.521	0.144	479042	keystroke_s	s	n/a
239.593	0.271	479186	keystroke_i	i	n/a
239.712	0.144	479424	keystroke_o	o	n/a
239.761	0.144	479522	keystroke_n	n	n/a
240.025	0.111	480050	keystroke_Key.enter	Key.enter	n/a
240.1405	5.925	480281	prompt	n/a	modules antigua case announcement\n
240.897	0.095	481794	keystroke_m	m	n/a
241.081	0.111	482162	keystroke_o	o	n/a
241.209	0.16	482418	keystroke_d	d	n/a
241.376	0.065	482752	keystroke_u	u	n/a
241.585	0.096	483170	keystroke_l	l	n/a
241.713	0.12	483426	keystroke_e	e	n/a
242.001	0.128	484002	keystroke_s	s	n/a
242.256	0.096	484512	keystroke_Key.space	Key.space	n/a
242.625	0.135	485250	keystroke_a	a	n/a
242.729	0.096	485458	keystroke_n	n	n/a
242.913	0.12	485826	keystroke_t	t	n/a
243.017	0.079	486034	keystroke_i	i	n/a
243.185	0.12	486370	keystroke_g	g	n/a
243.273	0.104	486546	keystroke_u	u	n/a
243.441	0.16	486882	keystroke_a	a	n/a
243.689	0.088	487378	keystroke_Key.space	Key.space	n/a
243.897	0.144	487794	keystroke_c	c	n/a
243.976	0.184	487952	keystroke_a	a	n/a
244.105	0.096	488210	keystroke_s	s	n/a
244.289	0.1435	488578	keystroke_e	e	n/a
244.36	0.0885	488720	keystroke_Key.space	Key.space	n/a
244.5285	0.152	489057	keystroke_a	a	n/a
244.6565	0.112	489313	keystroke_n	n	n/a
244.8565	0.096	489713	keystroke_n	n	n/a
244.9605	0.24	489921	keystroke_o	o	n/a
245.1045	0.144	490209	keystroke_u	u	n/a
245.1925	0.152	490385	keystroke_n	n	n/a
245.3285	0.176	490657	keystroke_c	c	n/a
245.4005	0.168	490801	keystroke_e	e	n/a
245.5765	0.104	491153	keystroke_m	m	n/a
245.6885	0.12	491377	keystroke_e	e	n/a
245.7765	0.08	491553	keystroke_n	n	n/a
245.8405	0.2	491681	keystroke_t	t	n/a
245.9445	0.12	491889	keystroke_Key.enter	Key.enter	n/a
246.0685	8.1415	492137	prompt	n/a	bookings recipient lloyd reactions\n
246.6885	0.104	493377	keystroke_b	b	n/a
246.7845	0.08	493569	keystroke_o	o	n/a
246.9605	0.112	493921	keystroke_o	o	n/a
247.1205	0.104	494241	keystroke_k	k	n/a
247.3365	0.128	494673	keystroke_i	i	n/a
247.4085	0.12	494817	keystroke_n	n	n/a
247.4565	0.216	494913	keystroke_g	g	n/a
247.5605	0.192	495121	keystroke_s	s	n/a
247.7205	0.112	495441	keystroke_Key.space	Key.space	n/a
247.9365	0.176	495873	keystroke_r	r	n/a
248.0165	0.16	496033	keystroke_e	e	n/a
248.2645	0.16	496529	keystroke_c	c	n/a
248.3525	0.08	496705	keystroke_i	i	n/a
248.5445	0.096	497089	keystroke_p	p	n/a
248.7365	0.176	497473	keystroke_e	e	n/a
249.3045	0.0955	498609	keystroke_Key.backspace	Key.backspace	n/a
249.56	0.088	499120	keystroke_i	i	n/a
249.656	0.16	499312	keystroke_e	e	n/a
249.816	0.08	499632	keystroke_n	n	n/a
250	0.176	500000	keystroke_t	t	n/a
250.36	0.088	500720	keystroke_Key.space	Key.space	n/a
250.592	0.072	501184	keystroke_l	l	n/a
250.92	0.104	501840	keystroke_l	l	n/a
251.256	0.112	502512	keystroke_o	o	n/a
251.8645	0.032	503729	keystroke_y	y	n/a
252.2245	0.136	504449	keystroke_d	d	n/a
252.5125	0.104	505025	keystroke_Key.space	Key.space	n/a
253.0885	0.184	506177	keystroke_r	r	n/a
253.1685	0.176	506337	keystroke_e	e	n/a
253.2805	0.144	506561	keystroke_a	a	n/a
253.5045	0.072	507009	keystroke_c	c	n/a
253.6965	0.112	507393	keystroke_t	t	n/a
253.7925	0.144	507585	keystroke_i	i	n/a
253.8485	0.12	507697	keystroke_o	o	n/a
253.8805	0.12	507761	keystroke_n	n	n/a
253.9525	0.12	507905	keystroke_s	s	n/a
254.1045	0.104	508209	keystroke_Key.enter	Key.enter	n/a
254.214	9.083	508428	prompt	n/a	msgstr thee normally strategies\n
254.9445	0.112	509889	keystroke_m	m	n/a
255.1285	0.12	510257	keystroke_s	s	n/a
255.6085	0.144	511217	keystroke_g	g	n/a
255.8725	0.128	511745	keystroke_s	s	n/a
256.0965	0.104	512193	keystroke_t	t	n/a
256.2885	0.176	512577	keystroke_r	r	n/a
256.5605	0.088	513121	keystroke_Key.space	Key.space	n/a
257.408	0.144	514816	keystroke_t	t	n/a
257.552	0.088	515104	keystroke_h	h	n/a
257.648	0.08	515296	keystroke_e	e	n/a
257.816	0.136	515632	keystroke_e	e	n/a
258.048	0.04	516096	keystroke_Key.space	Key.space	n/a
258.216	0.136	516432	keystroke_n	n	n/a
258.312	0.128	516624	keystroke_o	o	n/a
258.392	0.12	516784	keystroke_r	r	n/a
258.52	0.072	517040	keystroke_m	m	n/a
258.624	0.12	517248	keystroke_a	a	n/a
258.728	0.064	517456	keystroke_l	l	n/a
258.88	0.096	517760	keystroke_l	l	n/a
259.008	0.104	518016	keystroke_y	y	n/a
259.136	0.096	518272	keystroke_Key.space	Key.space	n/a
259.488	0.112	518976	keystroke_t	t	n/a
259.728	0.1525	519456	keystroke_r	r	n/a
259.8325	0.168	519665	keystroke_a	a	n/a
260.4395	0.072	520879	keystroke_Key.backspace	Key.backspace	n/a
260.6315	0.056	521263	keystroke_Key.backspace	Key.backspace	n/a
260.7835	0.112	521567	keystroke_Key.backspace	Key.backspace	n/a
260.9045	0.112	521809	keystroke_s	s	n/a
261.0805	0.112	522161	keystroke_t	t	n/a
261.2965	0.2	522593	keystroke_r	r	n/a
261.5045	0.167	523009	keystroke_a	a	n/a
262.3365	0.159	524673	keystroke_t	t	n/a
262.4315	0.144	524863	keystroke_e	e	n/a
262.6635	0.153	525327	keystroke_g	g	n/a
262.7915	0.12	525583	keystroke_i	i	n/a
262.8645	0.12	525729	keystroke_e	e	n/a
263.1275	0.145	526255	keystroke_s	s	n/a
263.2155	0.08	526431	keystroke_Key.enter	Key.enter	n/a
263.3	6.333	526600	prompt	n/a	allocation agreement beatles discovery\n
264.1045	0.12	528209	keystroke_a	a	n/a
264.2475	0.064	528495	keystroke_l	l	n/a
264.4005	0.087	528801	keystroke_l	l	n/a
264.5925	0.103	529185	keystroke_o	o	n/a
264.7355	0.185	529471	keystroke_c	c	n/a
264.8635	0.145	529727	keystroke_a	a	n/a
265.1595	0.161	530319	keystroke_t	t	n/a
265.2245	0.168	530449	keystroke_i	i	n/a
265.2965	0.151	530593	keystroke_o	o	n/a
265.4005	0.095	530801	keystroke_n	n	n/a
265.6155	0.088	531231	keystroke_Key.space	Key.space	n/a
265.7125	0.135	531425	keystroke_a	a	n/a
265.8955	0.096	531791	keystroke_g	g	n/a
266.1045	0.135	532209	keystroke_r	r	n/a
266.2315	0.089	532463	keystroke_e	e	n/a
266.4245	0.119	532849	keystroke_e	e	n/a
266.5445	0.063	533089	keystroke_m	m	n/a
266.6565	0.127	533313	keystroke_e	e	n/a
266.7675	0.072	533535	keystroke_n	n	n/a
266.8075	0.168	533615	keystroke_t	t	n/a
266.9765	0.063	533953	keystroke_Key.space	Key.space	n/a
267.1835	0.0965	534367	keystroke_b	b	n/a
267.272	0.288	534544	keystroke_e	e	n/a
267.4	0.144	534800	keystroke_a	a	n/a
267.592	0.144	535184	keystroke_t	t	n/a
267.696	0.064	535392	keystroke_l	l	n/a
267.808	0.104	535616	keystroke_e	e	n/a
268.04	0.144	536080	keystroke_s	s	n/a
268.144	0.056	536288	keystroke_Key.space	Key.space	n/a
268.328	0.152	536656	keystroke_d	d	n/a
268.448	0.072	536896	keystroke_i	i	n/a
268.48	0.136	536960	keystroke_s	s	n/a
268.672	0.12	537344	keystroke_c	c	n/a
268.792	0.104	537584	keystroke_o	o	n/a
268.96	0.128	537920	keystroke_v	v	n/a
269.064	0.208	538128	keystroke_e	e	n/a
269.224	0.128	538448	keystroke_r	r	n/a
269.464	0.144	538928	keystroke_y	y	n/a
269.544	0.088	539088	keystroke_Key.enter	Key.enter	n/a
269.636	7.405	539272	prompt	n/a	sheffield clear chem fundamentals\n
270.28	0.112	540560	keystroke_s	s	n/a
270.408	0.096	540816	keystroke_h	h	n/a
270.496	0.144	540992	keystroke_e	e	n/a
271.584	0.096	543168	keystroke_f	f	n/a
271.752	0.144	543504	keystroke_f	f	n/a
271.928	0.104	543856	keystroke_i	i	n/a
272.08	0.16	544160	keystroke_e	e	n/a
272.272	0.064	544544	keystroke_l	l	n/a
272.424	0.168	544848	keystroke_d	d	n/a
272.6	0.056	545200	keystroke_Key.space	Key.space	n/a
272.936	0.128	545872	keystroke_c	c	n/a
273.072	0.104	546144	keystroke_l	l	n/a
273.184	0.32	546368	keystroke_e	e	n/a
273.296	0.168	546592	keystroke_a	a	n/a
273.432	0.176	546864	keystroke_r	r	n/a
273.568	0.088	547136	keystroke_Key.space	Key.space	n/a
273.976	0.152	547952	keystroke_c	c	n/a
274.064	0.088	548128	keystroke_h	h	n/a
274.176	0.1755	548352	keystroke_e	e	n/a
274.3435	0.144	548687	keystroke_m	m	n/a
274.6395	0.088	549279	keystroke_Key.space	Key.space	n/a
275.0085	0.151	550017	keystroke_f	f	n/a
275.0875	0.121	550175	keystroke_u	u	n/a
275.1765	0.135	550353	keystroke_n	n	n/a
275.3205	0.112	550641	keystroke_d	d	n/a
275.3845	0.152	550769	keystroke_a	a	n/a
275.5205	0.095	551041	keystroke_m	m	n/a
275.6875	0.096	551375	keystroke_e	e	n/a
276.2875	0.088	552575	keystroke_n	n	n/a
276.4395	0.16	552879	keystroke_t	t	n/a
276.5515	0.169	553103	keystroke_a	a	n/a
276.6315	0.096	553263	keystroke_l	l	n/a
276.8395	0.152	553679	keystroke_s	s	n/a
276.9835	0.0565	553967	keystroke_Key.enter	Key.enter	n/a
277.044	7.349	554088	prompt	n/a	reed discussions number offset\n
277.712	0.152	555424	keystroke_r	r	n/a
277.8	0.112	555600	keystroke_e	e	n/a
278	0.112	556000	keystroke_e	e	n/a
278.216	0.152	556432	keystroke_d	d	n/a
278.304	0.08	556608	keystroke_Key.space	Key.space	n/a
278.456	0.168	556912	keystroke_s	s	n/a
278.688	0.088	557376	keystroke_i	i	n/a
278.88	0.168	557760	keystroke_c	c	n/a
279.28	0.088	558560	keystroke_Key.backspace	Key.backspace	n/a
279.464	0.064	558928	keystroke_Key.backspace	Key.backspace	n/a
279.608	0.072	559216	keystroke_Key.backspace	Key.backspace	n/a
279.744	0.128	559488	keystroke_d	d	n/a
279.848	0.088	559696	keystroke_i	i	n/a
279.96	0.136	559920	keystroke_s	s	n/a
280.488	0.152	560976	keystroke_c	c	n/a
280.648	0.064	561296	keystroke_u	u	n/a
280.808	0.088	561616	keystroke_s	s	n/a
281.008	0.104	562016	keystroke_s	s	n/a
281.088	0.192	562176	keystroke_i	i	n/a
281.176	0.12	562352	keystroke_o	o	n/a
281.24	0.12	562480	keystroke_n	n	n/a
281.288	0.152	562576	keystroke_s	s	n/a
281.512	0.104	563024	keystroke_Key.space	Key.space	n/a
281.792	0.112	563584	keystroke_n	n	n/a
282	0.08	564000	keystroke_u	u	n/a
282.192	0.088	564384	keystroke_m	m	n/a
282.4	0.088	564800	keystroke_b	b	n/a
282.504	0.192	565008	keystroke_e	e	n/a
282.576	0.16	565152	keystroke_r	r	n/a
282.632	0.096	565264	keystroke_Key.space	Key.space	n/a
282.832	0.112	565664	keystroke_o	o	n/a
282.936	0.08	565872	keystroke_f	f	n/a
283.128	0.128	566256	keystroke_f	f	n/a
283.208	0.168	566416	keystroke_e	e	n/a
283.656	0.088	567312	keystroke_Key.backspace	Key.backspace	n/a
283.8	0.112	567600	keystroke_s	s	n/a
284	0.16	568000	keystroke_e	e	n/a
284.136	0.176	568272	keystroke_t	t	n/a
284.296	0.096	568592	keystroke_Key.enter	Key.enter	n/a
284.396	6.4295	568792	prompt	n/a	beginning indexed tactics italy\n
285.024	0.112	570048	keystroke_b	b	n/a
285.128	0.112	570256	keystroke_e	e	n/a
285.344	0.192	570688	keystroke_g	g	n/a
285.592	0.136	571184	keystroke_i	i	n/a
286.048	0.072	572096	keystroke_n	n	n/a
286.216	0.072	572432	keystroke_n	n	n/a
286.32	0.136	572640	keystroke_i	i	n/a
286.416	0.096	572832	keystroke_n	n	n/a
286.488	0.136	572976	keystroke_g	g	n/a
286.608	0.072	573216	keystroke_Key.space	Key.space	n/a
286.776	0.136	573552	keystroke_i	i	n/a
286.872	0.12	573744	keystroke_n	n	n/a
287.024	0.16	574048	keystroke_d	d	n/a
287.096	0.128	574192	keystroke_e	e	n/a
287.512	0.112	575024	keystroke_x	x	n/a
287.752	0.08	575504	keystroke_e	e	n/a
287.928	0.12	575856	keystroke_d	d	n/a
288.032	0.088	576064	keystroke_Key.space	Key.space	n/a
288.256	0.12	576512	keystroke_t	t	n/a
288.328	0.16	576656	keystroke_a	a	n/a
288.584	0.08	577168	keystroke_c	c	n/a
288.824	0.128	577648	keystroke_t	t	n/a
288.96	0.088	577920	keystroke_i	i	n/a
289.136	0.2	578272	keystroke_c	c	n/a
289.256	0.176	578512	keystroke_s	s	n/a
289.448	0.088	578896	keystroke_Key.space	Key.space	n/a
289.696	0.08	579392	keystroke_i	i	n/a
289.832	0.128	579664	keystroke_t	t	n/a
290.168	0.144	580336	keystroke_a	a	n/a
290.424	0.088	580848	keystroke_l	l	n/a
290.624	0.112	581248	keystroke_y	y	n/a
290.736	0.088	581472	keystroke_Key.enter	Key.enter	n/a
290.829	7.164	581658	prompt	n/a	degrees bikes rolls catherine\n
291.504	0.176	583008	keystroke_d	d	n/a
291.632	0.112	583264	keystroke_e	e	n/a
291.84	0.12	583680	keystroke_g	g	n/a
292.104	0.152	584208	keystroke_r	r	n/a
292.2	0.128	584400	keystroke_e	e	n/a
292.416	0.104	584832	keystroke_e	e	n/a
292.656	0.112	585312	keystroke_s	s	n/a
292.832	0.064	585664	keystroke_Key.space	Key.space	n/a
293.264	0.08	586528	keystroke_k	k	n/a
293.608	0.096	587216	keystroke_Key.backspace	Key.backspace	n/a
293.864	0.128	587728	keystroke_b	b	n/a
293.968	0.12	587936	keystroke_i	i	n/a
294.208	0.096	588416	keystroke_k	k	n/a
294.312	0.088	588624	keystroke_e	e	n/a
294.528	0.112	589056	keystroke_s	s	n/a
294.592	0.08	589184	keystroke_Key.space	Key.space	n/a
294.968	0.176	589936	keystroke_r	r	n/a
295.08	0.088	590160	keystroke_o	o	n/a
295.32	0.088	590640	keystroke_l	l	n/a
295.504	0.088	591008	keystroke_l	l	n/a
295.648	0.152	591296	keystroke_s	s	n/a
295.824	0.072	591648	keystroke_Key.space	Key.space	n/a
296.792	0.1435	593584	keystroke_c	c	n/a
296.9035	0.136	593807	keystroke_a	a	n/a
297.0955	0.168	594191	keystroke_t	t	n/a
297.2475	0.096	594495	keystroke_h	h	n/a
297.2875	0.2	594575	keystroke_e	e	n/a
297.4075	0.152	594815	keystroke_r	r	n/a
297.5435	0.144	595087	keystroke_i	i	n/a
297.6315	0.128	595263	keystroke_n	n	n/a
297.7115	0.176	595423	keystroke_e	e	n/a
297.8955	0.096	595791	keystroke_Key.enter	Key.enter	n/a
297.996	8.1495	595992	prompt	n/a	snow teams conclusion blackjack\n
298.7195	0.184	597439	keystroke_s	s	n/a
298.9435	0.1125	597887	keystroke_n	n	n/a
299.016	0.136	598032	keystroke_o	o	n/a
299.16	0.184	598320	keystroke_w	w	n/a
300.2795	0.096	600559	keystroke_Key.space	Key.space	n/a
300.6315	0.152	601263	keystroke_t	t	n/a
300.7115	0.2	601423	keystroke_e	e	n/a
300.8235	0.08	601647	keystroke_a	a	n/a
300.8955	0.096	601791	keystroke_m	m	n/a
301.0955	0.168	602191	keystroke_s	s	n/a
301.2075	0.08	602415	keystroke_Key.space	Key.space	n/a
301.4155	0.152	602831	keystroke_c	c	n/a
301.5115	0.144	603023	keystroke_o	o	n/a
301.6235	0.104	603247	keystroke_n	n	n/a
301.7675	0.168	603535	keystroke_c	c	n/a
301.8715	0.096	603743	keystroke_l	l	n/a
302.0635	0.072	604127	keystroke_u	u	n/a
302.3115	0.136	604623	keystroke_s	s	n/a
302.3995	0.208	604799	keystroke_i	i	n/a
302.4715	0.16	604943	keystroke_o	o	n/a
302.5675	0.128	605135	keystroke_n	n	n/a
302.6555	0.168	605311	keystroke_s	s	n/a
302.8315	0.08	605663	keystroke_Key.space	Key.space	n/a
303.0395	0.096	606079	keystroke_b	b	n/a
303.2395	0.096	606479	keystroke_l	l	n/a
303.3755	0.12	606751	keystroke_a	a	n/a
303.5435	0.168	607087	keystroke_c	c	n/a
303.6635	0.08	607327	keystroke_k	k	n/a
303.8875	0.072	607775	keystroke_j	j	n/a
303.9915	0.16	607983	keystroke_a	a	n/a
304.2955	0.152	608591	keystroke_c	c	n/a
304.4555	0.08	608911	keystroke_k	k	n/a
304.5675	0.16	609135	keystroke_s	s	n/a
305.7995	0.072	611599	keystroke_Key.backspace	Key.backspace	n/a
306.0315	0.112	612063	keystroke_Key.enter	Key.enter	n/a
306.1485	7.4845	612297	prompt	n/a	thorough reviewing people trackbacks\n
306.7755	0.144	613551	keystroke_s	s	n/a
307.1355	0.0875	614271	keystroke_Key.backspace	Key.backspace	n/a
307.327	0.16	614654	keystroke_t	t	n/a
307.423	0.12	614846	keystroke_h	h	n/a
307.527	0.128	615054	keystroke_o	o	n/a
308.303	0.152	616606	keystroke_r	r	n/a
308.391	0.192	616782	keystroke_o	o	n/a
308.503	0.096	617006	keystroke_u	u	n/a
308.735	0.1205	617470	keystroke_g	g	n/a
308.751	0.0885	617502	keystroke_h	h	n/a
309.0075	0.104	618015	keystroke_Key.space	Key.space	n/a
309.4875	0.136	618975	keystroke_r	r	n/a
309.5755	0.136	619151	keystroke_e	e	n/a
309.7835	0.168	619567	keystroke_v	v	n/a
309.9035	0.096	619807	keystroke_i	i	n/a
310.0235	0.192	620047	keystroke_e	e	n/a
310.0795	0.176	620159	keystroke_w	w	n/a
310.4395	0.144	620879	keystroke_i	i	n/a
310.5435	0.12	621087	keystroke_n	n	n/a
310.6315	0.152	621263	keystroke_g	g	n/a
310.7755	0.08	621551	keystroke_Key.space	Key.space	n/a
311.0155	0.088	622031	keystroke_p	p	n/a
311.1435	0.176	622287	keystroke_e	e	n/a
311.2475	0.08	622495	keystroke_o	o	n/a
311.4475	0.064	622895	keystroke_p	p	n/a
311.6155	0.088	623231	keystroke_l	l	n/a
311.7275	0.168	623455	keystroke_e	e	n/a
311.8555	0.08	623711	keystroke_Key.space	Key.space	n/a
312.1115	0.096	624223	keystroke_t	t	n/a
312.3275	0.096	624655	keystroke_r	r	n/a
312.3595	0.184	624719	keystroke_a	a	n/a
312.6235	0.184	625247	keystroke_c	c	n/a
312.7755	0.064	625551	keystroke_k	k	n/a
312.9435	0.088	625887	keystroke_b	b	n/a
313.0475	0.168	626095	keystroke_a	a	n/a
313.1915	0.184	626383	keystroke_c	c	n/a
313.2875	0.096	626575	keystroke_k	k	n/a
313.3995	0.16	626799	keystroke_s	s	n/a
313.5435	0.088	627087	keystroke_Key.enter	Key.enter	n/a
313.6375	7.763	627275	prompt	n/a	contacts picks compatibility quarter\n
314.4075	0.144	628815	keystroke_c	c	n/a
314.4875	0.136	628975	keystroke_o	o	n/a
314.5915	0.12	629183	keystroke_n	n	n/a
314.7835	0.128	629567	keystroke_t	t	n/a
314.8875	0.144	629775	keystroke_a	a	n/a
315.0795	0.104	630159	keystroke_c	c	n/a
315.3195	0.16	630639	keystroke_t	t	n/a
315.4395	0.16	630879	keystroke_s	s	n/a
315.5675	0.088	631135	keystroke_Key.space	Key.space	n/a
315.7675	0.112	631535	keystroke_p	p	n/a
315.9675	0.096	631935	keystroke_i	i	n/a
316.0715	0.168	632143	keystroke_c	c	n/a
316.2475	0.088	632495	keystroke_k	k	n/a
316.3675	0.16	632735	keystroke_s	s	n/a
316.5435	0.088	633087	keystroke_Key.space	Key.space	n/a
316.7755	0.168	633551	keystroke_c	c	n/a
316.8875	0.136	633775	keystroke_o	o	n/a
316.9755	0.096	633951	keystroke_n	n	n/a
317.1835	0.104	634367	keystroke_p	p	n/a
317.3355	0.12	634671	keystroke_a	a	n/a
317.5595	0.144	635119	keystroke_t	t	n/a
317.7115	0.072	635423	keystroke_i	i	n/a
318.1595	0.136	636319	keystroke_b	b	n/a
318.2635	0.104	636527	keystroke_i	i	n/a
318.4955	0.2	636991	keystroke_l	l	n/a
318.5675	0.12	637135	keystroke_i	i	n/a
318.7195	0.08	637439	keystroke_t	t	n/a
318.927	0.104	637854	keystroke_y	y	n/a
319.111	0.096	638222	keystroke_Key.space	Key.space	n/a
319.511	0.12	639022	keystroke_q	q	n/a
319.639	0.08	639278	keystroke_u	u	n/a
319.767	0.112	639534	keystroke_a	a	n/a
319.959	0.1445	639918	keystroke_t	t	n/a
320.5275	0.096	641055	keystroke_Key.backspace	Key.backspace	n/a
320.7195	0.104	641439	keystroke_r	r	n/a
320.9675	0.144	641935	keystroke_t	t	n/a
321.0715	0.2475	642143	keystroke_e	e	n/a
321.2155	0.1675	642431	keystroke_r	r	n/a
321.335	0.064	642670	keystroke_Key.enter	Key.enter	n/a
321.4035	7.085	642807	prompt	n/a	ranging disclosure ultra illinois\n
321.9915	0.168	643983	keystroke_r	r	n/a
322.0955	0.176	644191	keystroke_a	a	n/a
322.1755	0.088	644351	keystroke_n	n	n/a
322.3435	0.12	644687	keystroke_g	g	n/a
322.4555	0.12	644911	keystroke_i	i	n/a
322.5515	0.088	645103	keystroke_n	n	n/a
322.6075	0.176	645215	keystroke_g	g	n/a
322.7675	0.096	645535	keystroke_Key.space	Key.space	n/a
323.2235	0.16	646447	keystroke_d	d	n/a
323.3355	0.088	646671	keystroke_i	i	n/a
323.4395	0.112	646879	keystroke_s	s	n/a
323.6395	0.152	647279	keystroke_c	c	n/a
323.7275	0.08	647455	keystroke_l	l	n/a
323.9435	0.088	647887	keystroke_o	o	n/a
324.1675	0.12	648335	keystroke_s	s	n/a
324.2955	0.08	648591	keystroke_u	u	n/a
324.4315	0.192	648863	keystroke_r	r	n/a
324.4955	0.2	648991	keystroke_e	e	n/a
324.6875	0.104	649375	keystroke_Key.space	Key.space	n/a
325.0555	0.096	650111	keystroke_u	u	n/a
325.3435	0.088	650687	keystroke_l	l	n/a
325.4875	0.096	650975	keystroke_t	t	n/a
325.6875	0.128	651375	keystroke_r	r	n/a
325.7515	0.192	651503	keystroke_a	a	n/a
326.1035	0.104	652207	keystroke_Key.space	Key.space	n/a
326.5435	0.12	653087	keystroke_i	i	n/a
326.8155	0.064	653631	keystroke_l	l	n/a
326.9995	0.088	653999	keystroke_l	l	n/a
327.3035	0.144	654607	keystroke_i	i	n/a
327.7915	0.12	655583	keystroke_n	n	n/a
327.9035	0.128	655807	keystroke_o	o	n/a
328.1435	0.088	656287	keystroke_i	i	n/a
328.2955	0.16	656591	keystroke_s	s	n/a
328.4235	0.064	656847	keystroke_Key.enter	Key.enter	n/a
328.491	5.997	656982	prompt	n/a	resolved menus relating cartoon\n
329.1675	0.12	658335	keystroke_r	r	n/a
329.3595	0.144	658719	keystroke_e	e	n/a
329.6955	0.128	659391	keystroke_s	s	n/a
329.8315	0.048	659663	keystroke_o	o	n/a
330.0075	0.112	660015	keystroke_l	l	n/a
330.0955	0.16	660191	keystroke_v	v	n/a
330.1915	0.128	660383	keystroke_e	e	n/a
330.4475	0.128	660895	keystroke_d	d	n/a
330.5515	0.08	661103	keystroke_Key.space	Key.space	n/a
330.8235	0.12	661647	keystroke_m	m	n/a
330.9995	0.136	661999	keystroke_e	e	n/a
331.1435	0.088	662287	keystroke_n	n	n/a
331.3675	0.088	662735	keystroke_u	u	n/a
331.4715	0.168	662943	keystroke_s	s	n/a
331.6465	0.08	663293	keystroke_Key.space	Key.space	n/a
331.9275	0.176	663855	keystroke_r	r	n/a
331.9915	0.144	663983	keystroke_e	e	n/a
332.1515	0.08	664303	keystroke_l	l	n/a
332.2875	0.104	664575	keystroke_a	a	n/a
332.4635	0.128	664927	keystroke_t	t	n/a
332.5755	0.144	665151	keystroke_i	i	n/a
332.6955	0.104	665391	keystroke_n	n	n/a
332.7835	0.136	665567	keystroke_g	g	n/a
332.9195	0.095	665839	keystroke_Key.space	Key.space	n/a
333.1515	0.144	666303	keystroke_c	c	n/a
333.2955	0.144	666591	keystroke_a	a	n/a
333.4635	0.112	666927	keystroke_r	r	n/a
333.6955	0.16	667391	keystroke_t	t	n/a
333.8795	0.08	667759	keystroke_o	o	n/a
334.0475	0.128	668095	keystroke_o	o	n/a
334.1595	0.104	668319	keystroke_n	n	n/a
334.3755	0.111	668751	keystroke_Key.enter	Key.enter	n/a
334.4905	5.9655	668981	prompt	n/a	complications wife give court\n
335.1995	0.208	670399	keystroke_c	c	n/a
335.2635	0.168	670527	keystroke_o	o	n/a
335.3675	0.12	670735	keystroke_m	m	n/a
335.5755	0.096	671151	keystroke_p	p	n/a
335.7995	0.088	671599	keystroke_l	l	n/a
336.0155	0.088	672031	keystroke_i	i	n/a
336.1435	0.143	672287	keystroke_c	c	n/a
336.2475	0.128	672495	keystroke_a	a	n/a
336.4715	0.2155	672943	keystroke_t	t	n/a
336.559	0.216	673118	keystroke_i	i	n/a
336.655	0.136	673310	keystroke_o	o	n/a
336.727	0.096	673454	keystroke_n	n	n/a
336.911	0.096	673822	keystroke_Key.space	Key.space	n/a
337.103	0.1595	674206	keystroke_w	w	n/a
337.2305	0.072	674461	keystroke_i	i	n/a
337.4305	0.112	674861	keystroke_f	f	n/a
337.7985	0.168	675597	keystroke_e	e	n/a
338.214	0.088	676428	keystroke_Key.space	Key.space	n/a
338.454	0.136	676908	keystroke_g	g	n/a
338.598	0.064	677196	keystroke_i	i	n/a
338.734	0.144	677468	keystroke_v	v	n/a
338.83	0.168	677660	keystroke_e	e	n/a
338.902	0.097	677804	keystroke_Key.space	Key.space	n/a
339.358	0.136	678716	keystroke_c	c	n/a
339.454	0.232	678908	keystroke_o	o	n/a
339.566	0.096	679132	keystroke_u	u	n/a
339.638	0.192	679276	keystroke_r	r	n/a
339.774	0.072	679548	keystroke_s	s	n/a
340.086	0.08	680172	keystroke_Key.backspace	Key.backspace	n/a
340.198	0.16	680396	keystroke_t	t	n/a
340.358	0.096	680716	keystroke_Key.enter	Key.enter	n/a
340.459	6.837	680918	prompt	n/a	hampshire share rope gardens\n
341.238	0.104	682476	keystroke_h	h	n/a
341.39	0.144	682780	keystroke_a	a	n/a
341.534	0.144	683068	keystroke_m	m	n/a
342.2145	0.104	684429	keystroke_p	p	n/a
342.8145	0.176	685629	keystroke_s	s	n/a
343.0305	0.16	686061	keystroke_h	h	n/a
343.1585	0.144	686317	keystroke_i	i	n/a
343.2705	0.216	686541	keystroke_r	r	n/a
343.3585	0.176	686717	keystroke_e	e	n/a
343.6305	0.088	687261	keystroke_Key.space	Key.space	n/a
343.8225	0.112	687645	keystroke_s	s	n/a
343.9345	0.104	687869	keystroke_h	h	n/a
344.0465	0.144	688093	keystroke_a	a	n/a
344.1905	0.232	688381	keystroke_r	r	n/a
344.2945	0.176	688589	keystroke_e	e	n/a
344.5345	0.096	689069	keystroke_Key.space	Key.space	n/a
344.8305	0.1605	689661	keystroke_r	r	n/a
344.9505	0.0885	689901	keystroke_o	o	n/a
345.167	0.088	690334	keystroke_p	p	n/a
345.367	0.168	690734	keystroke_e	e	n/a
345.79	0.088	691580	keystroke_Key.space	Key.space	n/a
346.031	0.12	692062	keystroke_g	g	n/a
346.255	0.216	692510	keystroke_a	a	n/a
346.295	0.16	692590	keystroke_r	r	n/a
346.631	0.216	693262	keystroke_d	d	n/a
346.727	0.168	693454	keystroke_e	e	n/a
346.871	0.08	693742	keystroke_n	n	n/a
347.039	0.1675	694078	keystroke_s	s	n/a
347.2065	0.088	694413	keystroke_Key.enter	Key.enter	n/a
347.2985	8.493	694597	prompt	n/a	relying trash endorsement washington\n
348.1265	0.152	696253	keystroke_r	r	n/a
348.3825	0.168	696765	keystroke_e	e	n/a
348.5665	0.104	697133	keystroke_l	l	n/a
348.8305	0.112	697661	keystroke_y	y	n/a
349.1265	0.1525	698253	keystroke_i	i	n/a
349.239	0.12	698478	keystroke_n	n	n/a
349.343	0.144	698686	keystroke_g	g	n/a
349.479	0.088	698958	keystroke_Key.space	Key.space	n/a
349.799	0.104	699598	keystroke_t	t	n/a
349.999	0.136	699998	keystroke_r	r	n/a
350.087	0.224	700174	keystroke_a	a	n/a
350.319	0.168	700638	keystroke_s	s	n/a
350.511	0.096	701022	keystroke_h	h	n/a
350.831	0.04	701662	keystroke_Key.space	Key.space	n/a
351.127	0.152	702254	keystroke_e	e	n/a
351.247	0.08	702494	keystroke_n	n	n/a
351.4465	0.088	702893	keystroke_d	d	n/a
351.5105	0.08	703021	keystroke_o	o	n/a
351.6945	0.144	703389	keystroke_r	r	n/a
352.0305	0.096	704061	keystroke_s	s	n/a
352.2385	0.136	704477	keystroke_e	e	n/a
352.4225	0.072	704845	keystroke_m	m	n/a
352.5105	0.12	705021	keystroke_e	e	n/a
352.6385	0.088	705277	keystroke_n	n	n/a
352.7105	0.152	705421	keystroke_t	t	n/a
352.8625	0.088	705725	keystroke_Key.space	Key.space	n/a
353.3665	0.104	706733	keystroke_s	s	n/a
353.7025	0.088	707405	keystroke_Key.backspace	Key.backspace	n/a
353.8625	0.184	707725	keystroke_w	w	n/a
353.9825	0.168	707965	keystroke_a	a	n/a
354.5025	0.152	709005	keystroke_s	s	n/a
354.6305	0.104	709261	keystroke_h	h	n/a
354.7105	0.128	709421	keystroke_i	i	n/a
354.9025	0.104	709805	keystroke_n	n	n/a
355.0065	0.112	710013	keystroke_g	g	n/a
355.2785	0.144	710557	keystroke_t	t	n/a
355.3585	0.144	710717	keystroke_o	o	n/a
355.4545	0.104	710909	keystroke_n	n	n/a
355.6785	0.112	711357	keystroke_Key.enter	Key.enter	n/a
355.7945	8.877	711589	prompt	n/a	ethics various coat heater\n
356.534	0.152	713068	keystroke_e	e	n/a
356.67	0.08	713340	keystroke_n	n	n/a
356.87	0.12	713740	keystroke_t	t	n/a
356.958	0.12	713916	keystroke_h	h	n/a
357.054	0.144	714108	keystroke_i	i	n/a
357.2305	0.176	714461	keystroke_c	c	n/a
358.1825	0.056	716365	keystroke_=	=	n/a
358.6385	0.12	717277	keystroke_Key.backspace	Key.backspace	n/a
358.8385	0.104	717677	keystroke_Key.backspace	Key.backspace	n/a
359.0305	0.08	718061	keystroke_Key.backspace	Key.backspace	n/a
359.2065	0.088	718413	keystroke_Key.backspace	Key.backspace	n/a
359.3985	0.08	718797	keystroke_Key.backspace	Key.backspace	n/a
359.5585	0.104	719117	keystroke_Key.backspace	Key.backspace	n/a
359.8305	0.136	719661	keystroke_t	t	n/a
359.9905	0.168	719981	keystroke_h	h	n/a
360.0945	0.144	720189	keystroke_i	i	n/a
360.2705	0.24	720541	keystroke_c	c	n/a
360.4065	0.176	720813	keystroke_s	s	n/a
360.7025	0.104	721405	keystroke_Key.space	Key.space	n/a
361.1025	0.2	722205	keystroke_v	v	n/a
361.3825	0.152	722765	keystroke_a	a	n/a
361.5585	0.168	723117	keystroke_r	r	n/a
361.7105	0.08	723421	keystroke_i	i	n/a
362.0225	0.296	724045	keystroke_o	o	n/a
362.1825	0.104	724365	keystroke_u	u	n/a
362.3985	0.128	724797	keystroke_s	s	n/a
362.5425	0.088	725085	keystroke_Key.space	Key.space	n/a
362.7265	0.144	725453	keystroke_c	c	n/a
362.8385	0.088	725677	keystroke_o	o	n/a
363.0065	0.144	726013	keystroke_a	a	n/a
363.1825	0.168	726365	keystroke_t	t	n/a
363.3665	0.08	726733	keystroke_Key.space	Key.space	n/a
363.766	0.096	727532	keystroke_h	h	n/a
363.886	0.264	727772	keystroke_e	e	n/a
363.974	0.128	727948	keystroke_a	a	n/a
364.126	0.16	728252	keystroke_t	t	n/a
364.278	0.288	728556	keystroke_e	e	n/a
364.414	0.2	728828	keystroke_r	r	n/a
364.574	0.096	729148	keystroke_Key.enter	Key.enter	n/a
364.6745	8.125	729349	prompt	n/a	organizer powerpoint michael mother\n
365.342	0.096	730684	keystroke_o	o	n/a
365.534	0.128	731068	keystroke_r	r	n/a
365.806	0.184	731612	keystroke_g	g	n/a
365.926	0.16	731852	keystroke_a	a	n/a
366.054	0.096	732108	keystroke_n	n	n/a
366.302	0.08	732604	keystroke_i	i	n/a
366.446	0.104	732892	keystroke_z	z	n/a
366.622	0.232	733244	keystroke_e	e	n/a
366.758	0.184	733516	keystroke_r	r	n/a
366.878	0.104	733756	keystroke_Key.space	Key.space	n/a
367.134	0.104	734268	keystroke_p	p	n/a
367.358	0.104	734716	keystroke_o	o	n/a
367.486	0.072	734972	keystroke_w	w	n/a
367.678	0.176	735356	keystroke_e	e	n/a
367.79	0.128	735580	keystroke_r	r	n/a
368.006	0.056	736012	keystroke_p	p	n/a
368.0145	0.0475	736029	keystroke_o	o	n/a
368.742	0.256	737484	keystroke_i	i	n/a
368.974	0.136	737948	keystroke_n	n	n/a
369.134	0.176	738268	keystroke_t	t	n/a
369.374	0.088	738748	keystroke_Key.space	Key.space	n/a
369.6545	0.104	739309	keystroke_m	m	n/a
369.9345	0.104	739869	keystroke_i	i	n/a
370.1985	0.176	740397	keystroke_c	c	n/a
370.3655	0.096	740731	keystroke_h	h	n/a
370.5825	0.167	741165	keystroke_a	a	n/a
371.486	0.136	742972	keystroke_e	e	n/a
371.63	0.048	743260	keystroke_l	l	n/a
371.83	0.088	743660	keystroke_Key.space	Key.space	n/a
372.054	0.104	744108	keystroke_m	m	n/a
372.134	0.096	744268	keystroke_o	o	n/a
372.31	0.144	744620	keystroke_t	t	n/a
372.446	0.08	744892	keystroke_h	h	n/a
372.47	0.224	744940	keystroke_e	e	n/a
372.598	0.184	745196	keystroke_r	r	n/a
372.702	0.096	745404	keystroke_Key.enter	Key.enter	n/a
372.8025	10.0845	745605	prompt	n/a	scotland performances networks snapshot\n
373.582	0.12	747164	keystroke_s	s	n/a
373.806	0.128	747612	keystroke_c	c	n/a
373.926	0.064	747852	keystroke_o	o	n/a
374.574	0.168	749148	keystroke_t	t	n/a
374.75	0.048	749500	keystroke_l	l	n/a
374.886	0.152	749772	keystroke_a	a	n/a
375.022	0.072	750044	keystroke_n	n	n/a
375.118	0.168	750236	keystroke_d	d	n/a
375.278	0.072	750556	keystroke_Key.space	Key.space	n/a
375.518	0.12	751036	keystroke_p	p	n/a
375.646	0.168	751292	keystroke_e	e	n/a
375.71	0.128	751420	keystroke_r	r	n/a
375.958	0.088	751916	keystroke_f	f	n/a
376.038	0.064	752076	keystroke_o	o	n/a
376.142	0.152	752284	keystroke_r	r	n/a
376.31	0.096	752620	keystroke_m	m	n/a
376.414	0.16	752828	keystroke_a	a	n/a
376.566	0.08	753132	keystroke_n	n	n/a
376.654	0.152	753308	keystroke_c	c	n/a
376.75	0.096	753500	keystroke_e	e	n/a
376.9895	0.144	753979	keystroke_s	s	n/a
377.1255	0.056	754251	keystroke_Key.space	Key.space	n/a
377.3255	0.096	754651	keystroke_n	n	n/a
377.3655	0.176	754731	keystroke_e	e	n/a
377.5425	0.143	755085	keystroke_t	t	n/a
377.7895	0.208	755579	keystroke_w	w	n/a
378.0775	0.096	756155	keystroke_o	o	n/a
378.2855	0.144	756571	keystroke_r	r	n/a
378.4375	0.088	756875	keystroke_k	k	n/a
378.5975	0.144	757195	keystroke_s	s	n/a
379.286	0.08	758572	keystroke_Key.backspace	Key.backspace	n/a
379.806	0.136	759612	keystroke_s	s	n/a
379.95	0.064	759900	keystroke_Key.space	Key.space	n/a
380.302	0.12	760604	keystroke_s	s	n/a
380.438	0.096	760876	keystroke_n	n	n/a
380.558	0.176	761116	keystroke_a	a	n/a
380.726	0.096	761452	keystroke_p	p	n/a
381.086	0.192	762172	keystroke_s	s	n/a
381.182	0.152	762364	keystroke_h	h	n/a
381.27	0.208	762540	keystroke_i	i	n/a
381.406	0.192	762812	keystroke_p	p	n/a
381.91	0.104	763820	keystroke_Key.backspace	Key.backspace	n/a
382.11	0.096	764220	keystroke_Key.backspace	Key.backspace	n/a
382.446	0.112	764892	keystroke_o	o	n/a
382.606	0.144	765212	keystroke_t	t	n/a
382.806	0.08	765612	keystroke_Key.enter	Key.enter	n/a
382.89	9.437	765780	prompt	n/a	navigate investor generates paradise\n
383.71	0.08	767420	keystroke_n	n	n/a
383.782	0.136	767564	keystroke_a	a	n/a
383.99	0.12	767980	keystroke_v	v	n/a
384.174	0.056	768348	keystroke_i	i	n/a
384.2615	0.176	768523	keystroke_g	g	n/a
384.3975	0.136	768795	keystroke_a	a	n/a
384.6065	0.167	769213	keystroke_t	t	n/a
384.6935	0.2	769387	keystroke_e	e	n/a
384.8215	0.088	769643	keystroke_Key.space	Key.space	n/a
385.3095	0.104	770619	keystroke_i	i	n/a
385.4535	0.12	770907	keystroke_n	n	n/a
385.5415	0.1525	771083	keystroke_v	v	n/a
385.622	0.128	771244	keystroke_e	e	n/a
385.87	0.112	771740	keystroke_s	s	n/a
386.054	0.08	772108	keystroke_t	t	n/a
386.174	0.056	772348	keystroke_o	o	n/a
386.254	0.168	772508	keystroke_r	r	n/a
386.406	0.08	772812	keystroke_Key.space	Key.space	n/a
386.694	0.16	773388	keystroke_g	g	n/a
386.798	0.184	773596	keystroke_e	e	n/a
386.934	0.096	773868	keystroke_n	n	n/a
387.054	0.208	774108	keystroke_r	r	n/a
387.198	0.216	774396	keystroke_e	e	n/a
387.566	0.176	775132	keystroke_a	a	n/a
388.238	0.096	776476	keystroke_Key.backspace	Key.backspace	n/a
388.454	0.088	776908	keystroke_Key.backspace	Key.backspace	n/a
388.71	0.08	777420	keystroke_Key.backspace	Key.backspace	n/a
389.15	0.16	778300	keystroke_e	e	n/a
389.246	0.152	778492	keystroke_r	r	n/a
389.406	0.152	778812	keystroke_a	a	n/a
389.614	0.12	779228	keystroke_t	t	n/a
389.686	0.12	779372	keystroke_e	e	n/a
389.942	0.136	779884	keystroke_s	s	n/a
390.062	0.072	780124	keystroke_Key.space	Key.space	n/a
390.478	0.144	780956	keystroke_p	p	n/a
390.566	0.144	781132	keystroke_a	a	n/a
390.75	0.216	781500	keystroke_r	r	n/a
390.862	0.208	781724	keystroke_a	a	n/a
391.446	0.128	782892	keystroke_d	d	n/a
391.59	0.08	783180	keystroke_i	i	n/a
391.718	0.12	783436	keystroke_s	s	n/a
391.974	0.16	783948	keystroke_e	e	n/a
392.214	0.112	784428	keystroke_Key.enter	Key.enter	n/a
392.33	8.221	784660	prompt	n/a	celebration dakota ought chaos\n
392.958	0.136	785916	keystroke_e	e	n/a
393.31	0.08	786620	keystroke_Key.backspace	Key.backspace	n/a
393.462	0.176	786924	keystroke_c	c	n/a
393.566	0.144	787132	keystroke_e	e	n/a
393.702	0.08	787404	keystroke_l	l	n/a
393.806	0.176	787612	keystroke_e	e	n/a
394.718	0.12	789436	keystroke_b	b	n/a
394.83	0.168	789660	keystroke_r	r	n/a
394.95	0.152	789900	keystroke_a	a	n/a
395.166	0.168	790332	keystroke_t	t	n/a
395.222	0.216	790444	keystroke_i	i	n/a
395.326	0.144	790652	keystroke_o	o	n/a
395.374	0.112	790748	keystroke_n	n	n/a
395.582	0.104	791164	keystroke_Key.space	Key.space	n/a
395.91	0.16	791820	keystroke_d	d	n/a
395.998	0.224	791996	keystroke_a	a	n/a
396.614	0.128	793228	keystroke_k	k	n/a
396.774	0.104	793548	keystroke_o	o	n/a
397.022	0.192	794044	keystroke_t	t	n/a
397.134	0.216	794268	keystroke_a	a	n/a
397.366	0.072	794732	keystroke_Key.space	Key.space	n/a
397.614	0.256	795228	keystroke_o	o	n/a
397.758	0.136	795516	keystroke_u	u	n/a
397.918	0.12	795836	keystroke_g	g	n/a
398.03	0.088	796060	keystroke_h	h	n/a
398.206	0.152	796412	keystroke_t	t	n/a
398.5015	0.088	797003	keystroke_Key.space	Key.space	n/a
399.5575	0.152	799115	keystroke_c	c	n/a
399.6615	0.096	799323	keystroke_h	h	n/a
399.7815	0.176	799563	keystroke_a	a	n/a
399.9895	0.064	799979	keystroke_o	o	n/a
400.4055	0.128	800811	keystroke_s	s	n/a
400.4695	0.08	800939	keystroke_Key.enter	Key.enter	n/a
400.5535	7.2855	801107	prompt	n/a	advisory road sullivan record\n
401.1335	0.1685	802267	keystroke_a	a	n/a
401.318	0.096	802636	keystroke_d	d	n/a
401.534	0.136	803068	keystroke_v	v	n/a
402.198	0.1035	804396	keystroke_i	i	n/a
402.6455	0.112	805291	keystroke_s	s	n/a
402.7655	0.08	805531	keystroke_o	o	n/a
402.8935	0.12	805787	keystroke_r	r	n/a
403.1735	0.112	806347	keystroke_y	y	n/a
403.2935	0.1035	806587	keystroke_Key.space	Key.space	n/a
403.453	0.161	806906	keystroke_r	r	n/a
403.614	0.104	807228	keystroke_o	o	n/a
403.757	0.168	807514	keystroke_a	a	n/a
403.918	0.144	807836	keystroke_d	d	n/a
404.125	0.096	808250	keystroke_Key.space	Key.space	n/a
404.75	0.191	809500	keystroke_s	s	n/a
404.91	0.136	809820	keystroke_u	u	n/a
405.221	0.08	810442	keystroke_l	l	n/a
405.374	0.111	810748	keystroke_l	l	n/a
405.638	0.127	811276	keystroke_i	i	n/a
405.974	0.151	811948	keystroke_v	v	n/a
406.078	0.191	812156	keystroke_a	a	n/a
406.214	0.08	812428	keystroke_n	n	n/a
406.413	0.104	812826	keystroke_Key.space	Key.space	n/a
406.582	0.191	813164	keystroke_r	r	n/a
406.701	0.168	813402	keystroke_e	e	n/a
406.981	0.113	813962	keystroke_c	c	n/a
407.07	0.087	814140	keystroke_o	o	n/a
407.357	0.104	814714	keystroke_r	r	n/a
407.598	0.167	815196	keystroke_d	d	n/a
407.733	0.104	815466	keystroke_Key.enter	Key.enter	n/a
407.844	10.9225	815688	prompt	n/a	protein empire officers improvement\n
408.4855	0.112	816971	keystroke_p	p	n/a
408.7255	0.1605	817451	keystroke_r	r	n/a
408.838	0.096	817676	keystroke_o	o	n/a
409.118	0.12	818236	keystroke_t	t	n/a
409.398	0.192	818796	keystroke_i	i	n/a
409.558	0.128	819116	keystroke_n	n	n/a
410.141	0.073	820282	keystroke_Key.backspace	Key.backspace	n/a
410.309	0.089	820618	keystroke_Key.backspace	Key.backspace	n/a
410.47	0.2	820940	keystroke_e	e	n/a
410.558	0.176	821116	keystroke_i	i	n/a
410.678	0.128	821356	keystroke_n	n	n/a
410.957	0.12	821914	keystroke_Key.space	Key.space	n/a
411.334	0.2	822668	keystroke_e	e	n/a
411.47	0.104	822940	keystroke_m	m	n/a
411.63	0.112	823260	keystroke_p	p	n/a
411.901	0.041	823802	keystroke_u	u	n/a
411.998	0.216	823996	keystroke_r	r	n/a
412.102	0.176	824204	keystroke_e	e	n/a
412.693	0.088	825386	keystroke_Key.backspace	Key.backspace	n/a
412.8935	0.072	825787	keystroke_Key.backspace	Key.backspace	n/a
413.0535	0.096	826107	keystroke_Key.backspace	Key.backspace	n/a
413.3415	0.072	826683	keystroke_u	u	n/a
413.3415	0.096	826683	keystroke_i	i	n/a
413.8215	0.104	827643	keystroke_Key.backspace	Key.backspace	n/a
413.9975	0.08	827995	keystroke_Key.backspace	Key.backspace	n/a
414.2295	0.112	828459	keystroke_i	i	n/a
414.3255	0.208	828651	keystroke_r	r	n/a
414.4135	0.192	828827	keystroke_e	e	n/a
414.5895	0.096	829179	keystroke_Key.space	Key.space	n/a
415.0615	0.096	830123	keystroke_o	o	n/a
415.2215	0.12	830443	keystroke_f	f	n/a
415.4215	0.12	830843	keystroke_f	f	n/a
415.6295	0.088	831259	keystroke_i	i	n/a
415.8855	0.2	831771	keystroke_c	c	n/a
416.1015	0.112	832203	keystroke_i	i	n/a
416.2615	0.192	832523	keystroke_e	e	n/a
416.4055	0.136	832811	keystroke_r	r	n/a
416.6215	0.152	833243	keystroke_s	s	n/a
416.7975	0.088	833595	keystroke_Key.space	Key.space	n/a
417.0935	0.104	834187	keystroke_i	i	n/a
417.2455	0.128	834491	keystroke_m	m	n/a
417.4375	0.104	834875	keystroke_p	p	n/a
417.5975	0.112	835195	keystroke_r	r	n/a
417.6695	0.104	835339	keystroke_o	o	n/a
417.8775	0.216	835755	keystroke_v	v	n/a
418.0615	0.168	836123	keystroke_e	e	n/a
418.2215	0.096	836443	keystroke_m	m	n/a
418.3575	0.152	836715	keystroke_e	e	n/a
418.4375	0.088	836875	keystroke_n	n	n/a
418.5335	0.2	837067	keystroke_t	t	n/a
418.6535	0.112	837307	keystroke_Key.enter	Key.enter	n/a
418.7705	5.012	837541	prompt	n/a	cooper fleece reed casual\n
419.4135	0.176	838827	keystroke_c	c	n/a
419.5095	0.08	839019	keystroke_o	o	n/a
419.6935	0.088	839387	keystroke_o	o	n/a
419.8935	0.096	839787	keystroke_p	p	n/a
419.998	0.2235	839996	keystroke_e	e	n/a
420.1015	0.168	840203	keystroke_r	r	n/a
420.2375	0.096	840475	keystroke_Key.space	Key.space	n/a
420.4295	0.144	840859	keystroke_f	f	n/a
420.5575	0.072	841115	keystroke_l	l	n/a
420.8215	0.088	841643	keystroke_e	e	n/a
421.0055	0.144	842011	keystroke_e	e	n/a
421.1815	0.216	842363	keystroke_c	c	n/a
421.2935	0.176	842587	keystroke_e	e	n/a
421.4055	0.088	842811	keystroke_Key.space	Key.space	n/a
421.6055	0.176	843211	keystroke_r	r	n/a
421.6935	0.112	843387	keystroke_e	e	n/a
421.8935	0.128	843787	keystroke_e	e	n/a
422.1255	0.152	844251	keystroke_d	d	n/a
422.2695	0.088	844539	keystroke_Key.space	Key.space	n/a
422.6295	0.208	845259	keystroke_c	c	n/a
422.7975	0.2	845595	keystroke_a	a	n/a
423.0295	0.136	846059	keystroke_s	s	n/a
423.1735	0.096	846347	keystroke_u	u	n/a
423.2935	0.16	846587	keystroke_a	a	n/a
423.4135	0.088	846827	keystroke_l	l	n/a
423.6535	0.128	847307	keystroke_Key.enter	Key.enter	n/a
423.785	5.4055	847570	prompt	n/a	labor derek occasional readings\n
424.5735	0.08	849147	keystroke_l	l	n/a
424.6855	0.144	849371	keystroke_a	a	n/a
424.8215	0.128	849643	keystroke_b	b	n/a
424.9175	0.128	849835	keystroke_o	o	n/a
425.0295	0.136	850059	keystroke_r	r	n/a
425.1895	0.096	850379	keystroke_Key.space	Key.space	n/a
425.3655	0.184	850731	keystroke_d	d	n/a
425.6935	0.128	851387	keystroke_e	e	n/a
425.8935	0.2	851787	keystroke_r	r	n/a
425.9895	0.176	851979	keystroke_e	e	n/a
426.1575	0.08	852315	keystroke_k	k	n/a
426.3815	0.088	852763	keystroke_Key.space	Key.space	n/a
426.597	0.096	853194	keystroke_o	o	n/a
426.725	0.104	853450	keystroke_c	c	n/a
426.925	0.152	853850	keystroke_c	c	n/a
427.037	0.16	854074	keystroke_a	a	n/a
427.301	0.152	854602	keystroke_s	s	n/a
427.405	0.2	854810	keystroke_i	i	n/a
427.493	0.144	854986	keystroke_o	o	n/a
427.549	0.136	855098	keystroke_n	n	n/a
427.669	0.168	855338	keystroke_a	a	n/a
427.821	0.08	855642	keystroke_l	l	n/a
428.013	0.088	856026	keystroke_Key.space	Key.space	n/a
428.197	0.2	856394	keystroke_r	r	n/a
428.285	0.216	856570	keystroke_e	e	n/a
428.405	0.16	856810	keystroke_a	a	n/a
428.629	0.096	857258	keystroke_d	d	n/a
428.749	0.144	857498	keystroke_i	i	n/a
428.837	0.12	857674	keystroke_n	n	n/a
428.877	0.208	857754	keystroke_g	g	n/a
429.013	0.168	858026	keystroke_s	s	n/a
429.093	0.096	858186	keystroke_Key.enter	Key.enter	n/a
429.193	6.934	858386	prompt	n/a	elvis windsor assessing bidder\n
429.877	0.16	859754	keystroke_e	e	n/a
430.085	0.08	860170	keystroke_l	l	n/a
430.397	0.12	860794	keystroke_v	v	n/a
430.541	0.096	861082	keystroke_i	i	n/a
430.685	0.16	861370	keystroke_s	s	n/a
430.957	0.104	861914	keystroke_Key.space	Key.space	n/a
431.197	0.144	862394	keystroke_w	w	n/a
431.293	0.12	862586	keystroke_i	i	n/a
431.397	0.104	862794	keystroke_n	n	n/a
431.477	0.096	862954	keystroke_d	d	n/a
431.613	0.088	863226	keystroke_o	o	n/a
432.229	0.088	864458	keystroke_Key.backspace	Key.backspace	n/a
432.405	0.128	864810	keystroke_s	s	n/a
432.534	0.071	865068	keystroke_o	o	n/a
432.629	0.16	865258	keystroke_r	r	n/a
432.989	0.096	865978	keystroke_Key.space	Key.space	n/a
433.573	0.168	867146	keystroke_a	a	n/a
433.773	0.088	867546	keystroke_s	s	n/a
433.981	0.096	867962	keystroke_s	s	n/a
434.197	0.104	868394	keystroke_e	e	n/a
434.445	0.08	868890	keystroke_s	s	n/a
434.621	0.12	869242	keystroke_s	s	n/a
434.701	0.136	869402	keystroke_i	i	n/a
434.797	0.112	869594	keystroke_n	n	n/a
434.861	0.152	869722	keystroke_g	g	n/a
435.014	0.071	870028	keystroke_Key.space	Key.space	n/a
435.205	0.128	870410	keystroke_b	b	n/a
435.293	0.136	870586	keystroke_i	i	n/a
435.461	0.072	870922	keystroke_d	d	n/a
435.621	0.136	871242	keystroke_d	d	n/a
435.773	0.232	871546	keystroke_e	e	n/a
435.877	0.208	871754	keystroke_r	r	n/a
435.997	0.128	871994	keystroke_Key.enter	Key.enter	n/a
436.1295	4.453	872259	prompt	n/a	has watts modern width\n
436.741	0.104	873482	keystroke_h	h	n/a
436.845	0.2	873690	keystroke_a	a	n/a
436.9975	0.0955	873995	keystroke_s	s	n/a
437.077	0.088	874154	keystroke_Key.space	Key.space	n/a
437.197	0.216	874394	keystroke_w	w	n/a
437.309	0.152	874618	keystroke_a	a	n/a
437.525	0.096	875050	keystroke_t	t	n/a
437.733	0.112	875466	keystroke_t	t	n/a
437.941	0.16	875882	keystroke_s	s	n/a
438.117	0.08	876234	keystroke_Key.space	Key.space	n/a
438.381	0.112	876762	keystroke_m	m	n/a
438.453	0.152	876906	keystroke_o	o	n/a
438.613	0.144	877226	keystroke_d	d	n/a
438.733	0.248	877466	keystroke_e	e	n/a
438.885	0.1995	877770	keystroke_r	r	n/a
439.0215	0.087	878043	keystroke_n	n	n/a
439.2205	0.08	878441	keystroke_Key.space	Key.space	n/a
439.549	0.168	879098	keystroke_w	w	n/a
439.669	0.08	879338	keystroke_i	i	n/a
439.837	0.12	879674	keystroke_d	d	n/a
440.117	0.176	880234	keystroke_t	t	n/a
440.253	0.104	880506	keystroke_h	h	n/a
440.469	0.112	880938	keystroke_Key.enter	Key.enter	n/a
440.585	6.781	881170	prompt	n/a	galaxy peas supplier trackbacks\n
441.4135	0.16	882827	keystroke_g	g	n/a
441.5335	0.136	883067	keystroke_a	a	n/a
441.6215	0.088	883243	keystroke_l	l	n/a
441.7655	0.152	883531	keystroke_a	a	n/a
442.4775	0.0795	884955	keystroke_x	x	n/a
442.765	0.04	885530	keystroke_y	y	n/a
442.829	0.096	885658	keystroke_Key.space	Key.space	n/a
443.085	0.128	886170	keystroke_p	p	n/a
443.301	0.184	886602	keystroke_e	e	n/a
443.413	0.136	886826	keystroke_a	a	n/a
443.621	0.152	887242	keystroke_s	s	n/a
443.757	0.064	887514	keystroke_Key.space	Key.space	n/a
443.957	0.128	887914	keystroke_s	s	n/a
444.077	0.096	888154	keystroke_u	u	n/a
444.301	0.08	888602	keystroke_p	p	n/a
444.445	0.088	888890	keystroke_p	p	n/a
444.629	0.2155	889258	keystroke_l	l	n/a
444.7645	0.128	889529	keystroke_i	i	n/a
444.869	0.2155	889738	keystroke_e	e	n/a
445.0125	0.176	890025	keystroke_r	r	n/a
445.3085	0.08	890617	keystroke_Key.space	Key.space	n/a
445.6925	0.064	891385	keystroke_t	t	n/a
445.8685	0.153	891737	keystroke_r	r	n/a
445.9405	0.184	891881	keystroke_a	a	n/a
446.2285	0.144	892457	keystroke_c	c	n/a
446.4285	0.072	892857	keystroke_k	k	n/a
446.6525	0.088	893305	keystroke_b	b	n/a
446.7485	0.152	893497	keystroke_a	a	n/a
446.8845	0.144	893769	keystroke_c	c	n/a
447.0285	0.08	894057	keystroke_k	k	n/a
447.0925	0.136	894185	keystroke_s	s	n/a
447.2605	0.104	894521	keystroke_Key.enter	Key.enter	n/a
447.369	6.917	894738	prompt	n/a	modem digit drinking friday\n
447.9965	0.128	895993	keystroke_m	m	n/a
448.1645	0.104	896329	keystroke_o	o	n/a
448.3885	0.144	896777	keystroke_d	d	n/a
448.5085	0.232	897017	keystroke_e	e	n/a
448.6525	0.216	897305	keystroke_r	r	n/a
449.1565	0.0885	898313	keystroke_Key.backspace	Key.backspace	n/a
449.517	0.096	899034	keystroke_m	m	n/a
449.821	0.08	899642	keystroke_Key.space	Key.space	n/a
450.125	0.112	900250	keystroke_d	d	n/a
450.189	0.08	900378	keystroke_i	i	n/a
450.381	0.128	900762	keystroke_g	g	n/a
450.461	0.08	900922	keystroke_i	i	n/a
450.645	0.152	901290	keystroke_t	t	n/a
450.813	0.088	901626	keystroke_Key.space	Key.space	n/a
451.133	0.12	902266	keystroke_d	d	n/a
451.357	0.176	902714	keystroke_r	r	n/a
451.461	0.112	902922	keystroke_i	i	n/a
451.549	0.12	903098	keystroke_n	n	n/a
451.709	0.112	903418	keystroke_k	k	n/a
451.925	0.152	903850	keystroke_i	i	n/a
452.013	0.128	904026	keystroke_n	n	n/a
452.125	0.144	904250	keystroke_g	g	n/a
452.245	0.096	904490	keystroke_Key.space	Key.space	n/a
452.557	0.112	905114	keystroke_r	r	n/a
452.885	0.104	905770	keystroke_Key.backspace	Key.backspace	n/a
453.053	0.08	906106	keystroke_f	f	n/a
453.213	0.128	906426	keystroke_r	r	n/a
453.309	0.088	906618	keystroke_i	i	n/a
453.461	0.096	906922	keystroke_d	d	n/a
453.8765	0.12	907753	keystroke_a	a	n/a
454.1485	0.056	908297	keystroke_y	y	n/a
454.1725	0.112	908345	keystroke_Key.enter	Key.enter	n/a
454.289	7.781	908578	prompt	n/a	baptist duration blades computation\n
455.1565	0.128	910313	keystroke_b	b	n/a
455.3085	0.16	910617	keystroke_a	a	n/a
455.4765	0.096	910953	keystroke_p	p	n/a
455.7245	0.128	911449	keystroke_t	t	n/a
455.8445	0.12	911689	keystroke_i	i	n/a
456.0125	0.104	912025	keystroke_s	s	n/a
456.1965	0.136	912393	keystroke_t	t	n/a
456.4285	0.072	912857	keystroke_Key.space	Key.space	n/a
456.725	0.072	913450	keystroke_d	d	n/a
456.805	0.072	913610	keystroke_u	u	n/a
456.925	0.136	913850	keystroke_r	r	n/a
457.133	0.112	914266	keystroke_a	a	n/a
457.341	0.128	914682	keystroke_t	t	n/a
457.397	0.2	914794	keystroke_i	i	n/a
457.501	0.128	915002	keystroke_o	o	n/a
457.557	0.088	915114	keystroke_n	n	n/a
457.733	0.072	915466	keystroke_Key.space	Key.space	n/a
457.941	0.096	915882	keystroke_b	b	n/a
458.381	0.096	916762	keystroke_l	l	n/a
458.509	0.112	917018	keystroke_a	a	n/a
458.717	0.136	917434	keystroke_c	c	n/a
459.045	0.088	918090	keystroke_Key.backspace	Key.backspace	n/a
459.197	0.152	918394	keystroke_d	d	n/a
459.285	0.096	918570	keystroke_e	e	n/a
459.485	0.144	918970	keystroke_s	s	n/a
459.637	0.072	919274	keystroke_Key.space	Key.space	n/a
459.989	0.176	919978	keystroke_c	c	n/a
460.109	0.176	920218	keystroke_o	o	n/a
460.221	0.112	920442	keystroke_m	m	n/a
460.445	0.112	920890	keystroke_p	p	n/a
460.701	0.096	921402	keystroke_u	u	n/a
460.853	0.128	921706	keystroke_t	t	n/a
461.317	0.128	922634	keystroke_a	a	n/a
461.517	0.16	923034	keystroke_t	t	n/a
461.597	0.184	923194	keystroke_i	i	n/a
461.677	0.128	923354	keystroke_o	o	n/a
461.733	0.096	923466	keystroke_n	n	n/a
461.957	0.112	923914	keystroke_Key.enter	Key.enter	n/a
462.073	7.141	924146	prompt	n/a	marshall harvest champions incorrect\n
462.709	0.112	925418	keystroke_m	m	n/a
462.877	0.144	925754	keystroke_a	a	n/a
463.037	0.128	926074	keystroke_r	r	n/a
463.429	0.128	926858	keystroke_s	s	n/a
463.573	0.104	927146	keystroke_h	h	n/a
463.757	0.16	927514	keystroke_a	a	n/a
463.877	0.08	927754	keystroke_l	l	n/a
464.053	0.104	928106	keystroke_l	l	n/a
464.381	0.096	928762	keystroke_Key.space	Key.space	n/a
464.861	0.104	929722	keystroke_h	h	n/a
464.933	0.16	929866	keystroke_a	a	n/a
465.045	0.104	930090	keystroke_r	r	n/a
465.309	0.08	930618	keystroke_v	v	n/a
465.357	0.168	930714	keystroke_e	e	n/a
465.645	0.128	931290	keystroke_s	s	n/a
465.797	0.12	931594	keystroke_t	t	n/a
465.893	0.056	931786	keystroke_Key.space	Key.space	n/a
466.061	0.16	932122	keystroke_c	c	n/a
466.133	0.096	932266	keystroke_h	h	n/a
466.269	0.168	932538	keystroke_a	a	n/a
466.397	0.12	932794	keystroke_m	m	n/a
466.581	0.12	933162	keystroke_p	p	n/a
466.821	0.263	933642	keystroke_i	i	n/a
466.917	0.175	933834	keystroke_o	o	n/a
467.036	0.128	934072	keystroke_n	n	n/a
467.228	0.136	934456	keystroke_s	s	n/a
467.324	0.088	934648	keystroke_Key.space	Key.space	n/a
467.556	0.136	935112	keystroke_i	i	n/a
467.668	0.112	935336	keystroke_n	n	n/a
468.029	0.127	936058	keystroke_c	c	n/a
468.18	0.072	936360	keystroke_o	o	n/a
468.333	0.1115	936666	keystroke_r	r	n/a
468.532	0.104	937064	keystroke_r	r	n/a
468.596	0.144	937192	keystroke_e	e	n/a
468.812	0.088	937624	keystroke_c	c	n/a
469.028	0.184	938056	keystroke_t	t	n/a
469.148	0.065	938296	keystroke_Key.enter	Key.enter	n/a
469.217	8.5725	938434	prompt	n/a	roster geneva memorial criteria\n
469.836	0.16	939672	keystroke_r	r	n/a
470.052	0.072	940104	keystroke_o	o	n/a
470.244	0.104	940488	keystroke_s	s	n/a
470.452	0.136	940904	keystroke_t	t	n/a
470.556	0.216	941112	keystroke_e	e	n/a
470.716	0.152	941432	keystroke_r	r	n/a
470.836	0.08	941672	keystroke_Key.space	Key.space	n/a
471.148	0.224	942296	keystroke_g	g	n/a
471.276	0.176	942552	keystroke_e	e	n/a
471.412	0.104	942824	keystroke_n	n	n/a
472.284	0.136	944568	keystroke_e	e	n/a
472.508	0.208	945016	keystroke_v	v	n/a
472.636	0.216	945272	keystroke_a	a	n/a
472.852	0.056	945704	keystroke_Key.space	Key.space	n/a
473.044	0.128	946088	keystroke_m	m	n/a
473.204	0.112	946408	keystroke_e	e	n/a
473.292	0.112	946584	keystroke_m	m	n/a
473.732	0.04	947464	keystroke_e	e	n/a
474.332	0.096	948664	keystroke_Key.backspace	Key.backspace	n/a
474.74	0.088	949480	keystroke_o	o	n/a
474.9	0.152	949800	keystroke_r	r	n/a
475.036	0.072	950072	keystroke_i	i	n/a
475.14	0.168	950280	keystroke_a	a	n/a
475.276	0.064	950552	keystroke_l	l	n/a
475.452	0.096	950904	keystroke_Key.space	Key.space	n/a
475.756	0.128	951512	keystroke_r	r	n/a
476.092	0.088	952184	keystroke_Key.backspace	Key.backspace	n/a
476.204	0.104	952408	keystroke_c	c	n/a
476.436	0.184	952872	keystroke_r	r	n/a
476.628	0.04	953256	keystroke_i	i	n/a
477.012	0.144	954024	keystroke_t	t	n/a
477.148	0.2	954296	keystroke_e	e	n/a
477.292	0.16	954584	keystroke_r	r	n/a
477.444	0.072	954888	keystroke_i	i	n/a
477.54	0.176	955080	keystroke_a	a	n/a
477.717	0.071	955434	keystroke_Key.enter	Key.enter	n/a
477.7925	10.4685	955585	prompt	n/a	distributors semiconductor otherwise coleman\n
478.548	0.144	957096	keystroke_d	d	n/a
478.677	0.079	957354	keystroke_i	i	n/a
478.788	0.096	957576	keystroke_s	s	n/a
478.98	0.096	957960	keystroke_t	t	n/a
479.172	0.152	958344	keystroke_r	r	n/a
479.325	0.111	958650	keystroke_i	i	n/a
479.636	0.144	959272	keystroke_b	b	n/a
479.716	0.128	959432	keystroke_u	u	n/a
479.996	0.152	959992	keystroke_t	t	n/a
480.452	0.096	960904	keystroke_o	o	n/a
480.58	0.2235	961160	keystroke_r	r	n/a
480.724	0.176	961448	keystroke_s	s	n/a
481.028	0.08	962056	keystroke_Key.space	Key.space	n/a
481.644	0.104	963288	keystroke_s	s	n/a
481.868	0.128	963736	keystroke_e	e	n/a
481.932	0.096	963864	keystroke_m	m	n/a
482.116	0.056	964232	keystroke_e	e	n/a
482.476	0.096	964952	keystroke_Key.backspace	Key.backspace	n/a
482.7635	0.104	965527	keystroke_i	i	n/a
483.0035	0.16	966007	keystroke_c	c	n/a
483.2115	0.112	966423	keystroke_o	o	n/a
483.2835	0.104	966567	keystroke_n	n	n/a
483.5075	0.112	967015	keystroke_d	d	n/a
483.6435	0.088	967287	keystroke_u	u	n/a
483.7555	0.089	967511	keystroke_c	c	n/a
483.9965	0.12	967993	keystroke_t	t	n/a
484.1005	0.064	968201	keystroke_o	o	n/a
484.2285	0.16	968457	keystroke_r	r	n/a
484.3955	0.088	968791	keystroke_Key.space	Key.space	n/a
484.9805	0.088	969961	keystroke_o	o	n/a
485.1645	0.152	970329	keystroke_t	t	n/a
485.2445	0.08	970489	keystroke_h	h	n/a
485.3405	0.208	970681	keystroke_e	e	n/a
485.4685	0.144	970937	keystroke_r	r	n/a
485.8915	0.121	971783	keystroke_w	w	n/a
486.0275	0.089	972055	keystroke_i	i	n/a
486.2355	0.105	972471	keystroke_s	s	n/a
486.4445	0.143	972889	keystroke_e	e	n/a
486.5715	0.056	973143	keystroke_Key.space	Key.space	n/a
486.8515	0.153	973703	keystroke_c	c	n/a
486.9875	0.072	973975	keystroke_o	o	n/a
487.2035	0.096	974407	keystroke_l	l	n/a
487.3635	0.144	974727	keystroke_e	e	n/a
487.5475	0.096	975095	keystroke_m	m	n/a
487.7155	0.16	975431	keystroke_a	a	n/a
487.8595	0.08	975719	keystroke_n	n	n/a
488.1795	0.08	976359	keystroke_Key.enter	Key.enter	n/a
488.265	10.092	976530	prompt	n/a	involved dance framework challenges\n
488.9395	0.12	977879	keystroke_i	i	n/a
489.0515	0.112	978103	keystroke_n	n	n/a
489.1715	0.176	978343	keystroke_v	v	n/a
489.3315	0.088	978663	keystroke_o	o	n/a
489.5475	0.12	979095	keystroke_l	l	n/a
489.9635	0.136	979927	keystroke_v	v	n/a
490.0515	0.08	980103	keystroke_e	e	n/a
490.2435	0.136	980487	keystroke_d	d	n/a
490.3555	0.072	980711	keystroke_Key.space	Key.space	n/a
490.6115	0.2	981223	keystroke_d	d	n/a
490.7395	0.184	981479	keystroke_a	a	n/a
490.8995	0.104	981799	keystroke_n	n	n/a
490.9955	0.192	981991	keystroke_c	c	n/a
491.0835	0.184	982167	keystroke_e	e	n/a
491.7235	0.192	983447	keystroke_f	f	n/a
492.0275	0.176	984055	keystroke_r	r	n/a
492.1395	0.192	984279	keystroke_a	a	n/a
492.2915	0.088	984583	keystroke_n	n	n/a
492.5475	0.072	985095	keystroke_Key.backspace	Key.backspace	n/a
492.7395	0.072	985479	keystroke_Key.backspace	Key.backspace	n/a
