onset	duration	sample	value	key	prompt_text
54.5335	9.513	109067	prompt	n/a	the quick brown fox jumps over a lazy dog\n
57.806	0.013	115612	keystroke	t	n/a
57.833	0.105	115666	keystroke	h	n/a
57.983	0.0905	115966	keystroke	e	n/a
58.118	0.105	116236	keystroke	Key.space	n/a
58.283	0.1055	116566	keystroke	q	n/a
58.448	0.15	116896	keystroke	u	n/a
58.553	0.106	117106	keystroke	i	n/a
58.808	0.06	117616	keystroke	c	n/a
59.0485	0.1045	118097	keystroke	k	n/a
59.198	0.105	118396	keystroke	Key.space	n/a
59.468	0.075	118936	keystroke	b	n/a
59.603	0.0605	119206	keystroke	r	n/a
59.708	0.075	119416	keystroke	o	n/a
59.828	0.06	119656	keystroke	w	n/a
59.889	0.134	119778	keystroke	n	n/a
59.993	0.105	119986	keystroke	Key.space	n/a
60.158	0.0605	120316	keystroke	f	n/a
60.2335	0.0745	120467	keystroke	o	n/a
60.368	0.09	120736	keystroke	x	n/a
60.4885	0.0895	120977	keystroke	Key.space	n/a
60.7285	0.1045	121457	keystroke	j	n/a
60.923	0.09	121846	keystroke	u	n/a
61.163	0.105	122326	keystroke	m	n/a
61.328	0.1205	122656	keystroke	p	n/a
61.553	0.075	123106	keystroke	s	n/a
61.688	0.075	123376	keystroke	Key.space	n/a
61.808	0.12	123616	keystroke	o	n/a
61.958	0.09	123916	keystroke	v	n/a
62.093	0.195	124186	keystroke	e	n/a
62.243	0.1055	124486	keystroke	r	n/a
62.378	0.09	124756	keystroke	Key.space	n/a
62.483	0.1045	124966	keystroke	a	n/a
62.6025	0.06	125205	keystroke	Key.space	n/a
62.7075	0.121	125415	keystroke	l	n/a
62.8885	0.075	125777	keystroke	a	n/a
63.068	0.0755	126136	keystroke	z	n/a
63.2625	0.121	126525	keystroke	y	n/a
63.3675	0.105	126735	keystroke	Key.space	n/a
63.5185	0.075	127037	keystroke	d	n/a
63.6085	0.09	127217	keystroke	o	n/a
63.7575	0.016	127515	keystroke	g	n/a
63.983	0.06	127966	keystroke	Key.enter	n/a
64.0525	7.448	128105	prompt	n/a	development copyrights agreements coach\n
64.7185	0.0445	129437	keystroke	d	n/a
64.8835	0.0445	129767	keystroke	e	n/a
64.988	0.121	129976	keystroke	v	n/a
65.0935	0.0745	130187	keystroke	e	n/a
65.183	0.105	130366	keystroke	l	n/a
65.408	0.0905	130816	keystroke	o	n/a
65.5585	0.0745	131117	keystroke	p	n/a
65.693	0.0905	131386	keystroke	m	n/a
65.7985	0.09	131597	keystroke	e	n/a
65.9185	0.074	131837	keystroke	n	n/a
66.0085	0.075	132017	keystroke	t	n/a
66.1125	0.076	132225	keystroke	Key.space	n/a
66.5175	0.076	133035	keystroke	c	n/a
66.6085	0.0745	133217	keystroke	o	n/a
66.743	0.075	133486	keystroke	p	n/a
66.938	0.0595	133876	keystroke	y	n/a
67.1925	0.075	134385	keystroke	r	n/a
67.2825	0.076	134565	keystroke	i	n/a
67.419	0.0595	134838	keystroke	g	n/a
67.5085	0.06	135017	keystroke	h	n/a
67.583	0.12	135166	keystroke	t	n/a
67.688	0.09	135376	keystroke	s	n/a
67.793	0.06	135586	keystroke	Key.space	n/a
68.393	0.075	136786	keystroke	a	n/a
68.603	0.06	137206	keystroke	g	n/a
68.768	0.075	137536	keystroke	r	n/a
68.858	0.045	137716	keystroke	e	n/a
69.008	0.06	138016	keystroke	e	n/a
69.218	0.09	138436	keystroke	m	n/a
69.488	0.0755	138976	keystroke	e	n/a
69.593	0.105	139186	keystroke	n	n/a
69.683	0.0905	139366	keystroke	t	n/a
69.8035	0.12	139607	keystroke	s	n/a
69.9525	0.076	139905	keystroke	Key.space	n/a
70.583	0.0745	141166	keystroke	c	n/a
70.6875	0.075	141375	keystroke	o	n/a
70.7775	0.09	141555	keystroke	a	n/a
70.9125	0.046	141825	keystroke	c	n/a
70.9885	0.074	141977	keystroke	h	n/a
71.4225	0.075	142845	keystroke	Key.enter	n/a
71.5055	5.545	143011	prompt	n/a	sole delicious measure charge\n
72.1585	0.0745	144317	keystroke	s	n/a
72.308	0.106	144616	keystroke	o	n/a
72.488	0.105	144976	keystroke	l	n/a
72.608	0.075	145216	keystroke	e	n/a
72.713	0.09	145426	keystroke	Key.space	n/a
72.8185	0.0745	145637	keystroke	d	n/a
72.998	0.06	145996	keystroke	e	n/a
73.238	0.09	146476	keystroke	l	n/a
73.403	0.075	146806	keystroke	i	n/a
73.493	0.06	146986	keystroke	c	n/a
73.6135	0.075	147227	keystroke	i	n/a
73.8985	0.134	147797	keystroke	o	n/a
74.0635	0.075	148127	keystroke	u	n/a
74.1975	0.076	148395	keystroke	s	n/a
74.3925	0.075	148785	keystroke	Key.space	n/a
75.0085	0.09	150017	keystroke	m	n/a
75.084	0.1045	150168	keystroke	e	n/a
75.203	0.0605	150406	keystroke	a	n/a
75.218	0.1355	150436	keystroke	s	n/a
75.368	0.1055	150736	keystroke	u	n/a
75.488	0.12	150976	keystroke	r	n/a
75.593	0.0605	151186	keystroke	e	n/a
75.668	0.045	151336	keystroke	Key.space	n/a
76.073	0.09	152146	keystroke	c	n/a
76.178	0.06	152356	keystroke	h	n/a
76.253	0.1055	152506	keystroke	a	n/a
76.343	0.0605	152686	keystroke	r	n/a
76.523	0.075	153046	keystroke	g	n/a
76.568	0.105	153136	keystroke	e	n/a
77.003	0.045	154006	keystroke	Key.enter	n/a
77.055	7.975	154110	prompt	n/a	powered faced subscribe she'll\n
77.7225	0.09	155445	keystroke	p	n/a
77.948	0.0455	155896	keystroke	o	n/a
78.0225	0.12	156045	keystroke	w	n/a
78.0975	0.076	156195	keystroke	e	n/a
78.188	0.0905	156376	keystroke	r	n/a
78.2625	0.09	156525	keystroke	e	n/a
78.4285	0.089	156857	keystroke	d	n/a
78.5475	0.0755	157095	keystroke	Key.space	n/a
79.328	0.15	158656	keystroke	f	n/a
79.493	0.075	158986	keystroke	a	n/a
79.5385	0.1495	159077	keystroke	c	n/a
79.7485	0.1195	159497	keystroke	e	n/a
79.959	0.059	159918	keystroke	d	n/a
80.078	0.075	160156	keystroke	Key.space	n/a
80.678	0.105	161356	keystroke	s	n/a
80.843	0.09	161686	keystroke	u	n/a
80.903	0.09	161806	keystroke	b	n/a
81.008	0.075	162016	keystroke	s	n/a
81.398	0.076	162796	keystroke	c	n/a
81.593	0.0455	163186	keystroke	r	n/a
81.743	0.0905	163486	keystroke	i	n/a
81.8185	0.09	163637	keystroke	b	n/a
81.9235	0.075	163847	keystroke	e	n/a
82.1625	0.0455	164325	keystroke	Key.space	n/a
82.4335	0.074	164867	keystroke	s	n/a
82.5235	0.0895	165047	keystroke	h	n/a
82.5985	0.075	165197	keystroke	e	n/a
83.4225	0.076	166845	keystroke	'	n/a
84.008	0.0445	168016	keystroke	l	n/a
84.0835	0.09	168167	keystroke	l	n/a
84.968	0.06	169936	keystroke	Key.enter	n/a
85.036	8.379	170072	prompt	n/a	chester winners regional voices\n
85.7335	0.0895	171467	keystroke	c	n/a
85.838	0.09	171676	keystroke	h	n/a
85.913	0.09	171826	keystroke	e	n/a
86.0335	0.1345	172067	keystroke	t	n/a
86.138	0.24	172276	keystroke	e	n/a
86.303	0.1055	172606	keystroke	r	n/a
86.5725	0.0605	173145	keystroke	Key.backspace	n/a
86.7075	0.06	173415	keystroke	Key.backspace	n/a
86.8585	0.059	173717	keystroke	Key.backspace	n/a
86.9935	0.059	173987	keystroke	s	n/a
87.0835	0.135	174167	keystroke	t	n/a
87.2035	0.165	174407	keystroke	e	n/a
87.3085	0.09	174617	keystroke	r	n/a
87.5175	0.061	175035	keystroke	Key.space	n/a
88.1335	0.089	176267	keystroke	w	n/a
88.2235	0.09	176447	keystroke	i	n/a
88.3585	0.075	176717	keystroke	n	n/a
88.4935	0.09	176987	keystroke	n	n/a
88.5535	0.149	177107	keystroke	e	n/a
88.658	0.1495	177316	keystroke	r	n/a
88.823	0.1055	177646	keystroke	s	n/a
89.0475	0.06	178095	keystroke	Key.space	n/a
89.7975	0.045	179595	keystroke	d	n/a
90.1275	0.0605	180255	keystroke	Key.backspace	n/a
90.323	0.09	180646	keystroke	r	n/a
90.383	0.09	180766	keystroke	e	n/a
90.5785	0.059	181157	keystroke	g	n/a
90.653	0.21	181306	keystroke	i	n/a
90.8175	0.196	181635	keystroke	o	n/a
90.9085	0.12	181817	keystroke	n	n/a
91.0575	0.075	182115	keystroke	a	n/a
91.1625	0.106	182325	keystroke	l	n/a
91.283	0.0745	182566	keystroke	Key.space	n/a
91.7635	0.06	183527	keystroke	v	n/a
91.9285	0.045	183857	keystroke	o	n/a
92.093	0.0455	184186	keystroke	i	n/a
92.4685	0.0895	184937	keystroke	c	n/a
92.5125	0.1505	185025	keystroke	e	n/a
92.6485	0.09	185297	keystroke	s	n/a
93.338	0.075	186676	keystroke	Key.enter	n/a
93.4185	7.5115	186837	prompt	n/a	jurisdiction robert heights letting\n
94.043	0.075	188086	keystroke	j	n/a
94.238	0.09	188476	keystroke	u	n/a
94.313	0.06	188626	keystroke	r	n/a
94.418	0.1055	188836	keystroke	i	n/a
94.508	0.075	189016	keystroke	s	n/a
94.838	0.075	189676	keystroke	d	n/a
94.943	0.075	189886	keystroke	i	n/a
95.033	0.075	190066	keystroke	c	n/a
95.228	0.0605	190456	keystroke	t	n/a
95.303	0.21	190606	keystroke	i	n/a
95.378	0.105	190756	keystroke	o	n/a
95.3935	0.15	190787	keystroke	n	n/a
95.5135	0.074	191027	keystroke	Key.space	n/a
96.368	0.0605	192736	keystroke	r	n/a
96.488	0.09	192976	keystroke	o	n/a
96.6085	0.0895	193217	keystroke	b	n/a
96.7125	0.105	193425	keystroke	e	n/a
96.7885	0.074	193577	keystroke	r	n/a
96.9685	0.059	193937	keystroke	t	n/a
97.0725	0.075	194145	keystroke	Key.space	n/a
97.6125	0.0905	195225	keystroke	h	n/a
97.688	0.06	195376	keystroke	e	n/a
97.793	0.09	195586	keystroke	i	n/a
97.898	0.06	195796	keystroke	g	n/a
98.018	0.0905	196036	keystroke	h	n/a
98.1225	0.061	196245	keystroke	t	n/a
98.408	0.0605	196816	keystroke	s	n/a
98.5875	0.0755	197175	keystroke	Key.space	n/a
99.023	0.045	198046	keystroke	l	n/a
99.398	0.0745	198796	keystroke	e	n/a
99.6085	0.044	199217	keystroke	t	n/a
99.7275	0.076	199455	keystroke	t	n/a
99.8485	0.1645	199697	keystroke	i	n/a
99.9825	0.12	199965	keystroke	n	n/a
100.1335	0.044	200267	keystroke	g	n/a
100.868	0.06	201736	keystroke	Key.enter	n/a
100.9355	7.944	201871	prompt	n/a	raises accessibility it's canyon\n
101.693	0.075	203386	keystroke	r	n/a
101.813	0.105	203626	keystroke	a	n/a
101.948	0.075	203896	keystroke	i	n/a
102.068	0.12	204136	keystroke	s	n/a
102.158	0.09	204316	keystroke	e	n/a
102.308	0.1055	204616	keystroke	s	n/a
102.443	0.0605	204886	keystroke	Key.space	n/a
103.1185	0.1195	206237	keystroke	a	n/a
103.2535	0.075	206507	keystroke	c	n/a
103.4035	0.09	206807	keystroke	c	n/a
103.5535	0.089	207107	keystroke	e	n/a
103.7325	0.0905	207465	keystroke	s	n/a
103.8675	0.105	207735	keystroke	s	n/a
104.2425	0.091	208485	keystroke	i	n/a
104.394	0.045	208788	keystroke	b	n/a
104.648	0.165	209296	keystroke	i	n/a
104.9185	0.12	209837	keystroke	l	n/a
105.053	0.09	210106	keystroke	i	n/a
105.203	0.0755	210406	keystroke	t	n/a
105.2935	0.0745	210587	keystroke	y	n/a
105.443	0.06	210886	keystroke	Key.space	n/a
106.268	0.06	212536	keystroke	i	n/a
106.358	0.075	212716	keystroke	t	n/a
107.048	0.075	214096	keystroke	'	n/a
107.153	0.0755	214306	keystroke	s	n/a
107.2575	0.075	214515	keystroke	Key.space	n/a
107.768	0.0755	215536	keystroke	c	n/a
107.813	0.1055	215626	keystroke	a	n/a
107.9035	0.075	215807	keystroke	n	n/a
108.1135	0.06	216227	keystroke	y	n/a
108.2935	0.1195	216587	keystroke	o	n/a
108.3535	0.0895	216707	keystroke	n	n/a
108.8185	0.06	217637	keystroke	Key.enter	n/a
108.883	7.452	217766	prompt	n/a	fans banking collector architectural\n
109.583	0.09	219166	keystroke	f	n/a
109.688	0.105	219376	keystroke	a	n/a
109.748	0.105	219496	keystroke	n	n/a
110.0635	0.0895	220127	keystroke	s	n/a
110.2275	0.0605	220455	keystroke	Key.space	n/a
110.453	0.09	220906	keystroke	b	n/a
110.528	0.09	221056	keystroke	a	n/a
110.7835	0.09	221567	keystroke	n	n/a
110.933	0.075	221866	keystroke	k	n/a
111.1285	0.0895	222257	keystroke	i	n/a
111.188	0.075	222376	keystroke	n	n/a
111.278	0.0755	222556	keystroke	g	n/a
111.3685	0.0745	222737	keystroke	Key.space	n/a
112.0585	0.0895	224117	keystroke	c	n/a
112.1635	0.0745	224327	keystroke	o	n/a
112.343	0.06	224686	keystroke	l	n/a
112.448	0.0895	224896	keystroke	l	n/a
112.553	0.12	225106	keystroke	e	n/a
112.6285	0.1195	225257	keystroke	c	n/a
112.883	0.0305	225766	keystroke	t	n/a
112.973	0.06	225946	keystroke	o	n/a
113.063	0.0605	226126	keystroke	r	n/a
113.168	0.06	226336	keystroke	Key.space	n/a
113.813	0.09	227626	keystroke	a	n/a
114.008	0.075	228016	keystroke	r	n/a
114.2635	0.0595	228527	keystroke	c	n/a
114.3685	0.075	228737	keystroke	h	n/a
114.4585	0.09	228917	keystroke	i	n/a
114.624	0.089	229248	keystroke	t	n/a
114.6985	0.1195	229397	keystroke	e	n/a
114.9235	0.0745	229847	keystroke	c	n/a
115.119	0.044	230238	keystroke	t	n/a
115.1935	0.0895	230387	keystroke	u	n/a
115.298	0.075	230596	keystroke	r	n/a
115.418	0.0455	230836	keystroke	a	n/a
115.508	0.075	231016	keystroke	l	n/a
116.2575	0.075	232515	keystroke	Key.enter	n/a
116.339	6.506	232678	prompt	n/a	antivirus simple pearl clock\n
117.0235	0.09	234047	keystroke	a	n/a
117.2035	0.104	234407	keystroke	n	n/a
117.3375	0.09	234675	keystroke	t	n/a
117.489	0.0735	234978	keystroke	i	n/a
117.698	0.0455	235396	keystroke	v	n/a
117.9085	0.075	235817	keystroke	i	n/a
118.2835	0.0595	236567	keystroke	u	n/a
118.583	0.06	237166	keystroke	Key.backspace	n/a
118.688	0.061	237376	keystroke	r	n/a
118.793	0.075	237586	keystroke	u	n/a
118.883	0.075	237766	keystroke	s	n/a
119.018	0.06	238036	keystroke	Key.space	n/a
119.633	0.09	239266	keystroke	s	n/a
119.783	0.1505	239566	keystroke	i	n/a
119.888	0.105	239776	keystroke	m	n/a
120.083	0.0605	240166	keystroke	p	n/a
120.263	0.0605	240526	keystroke	l	n/a
120.3385	0.06	240677	keystroke	e	n/a
120.473	0.0605	240946	keystroke	Key.space	n/a
121.1175	0.046	242235	keystroke	p	n/a
121.1635	0.1345	242327	keystroke	e	n/a
121.2685	0.1495	242537	keystroke	a	n/a
121.374	0.0895	242748	keystroke	r	n/a
121.448	0.076	242896	keystroke	l	n/a
121.5685	0.075	243137	keystroke	Key.space	n/a
122.048	0.075	244096	keystroke	c	n/a
122.124	0.0895	244248	keystroke	l	n/a
122.303	0.0755	244606	keystroke	o	n/a
122.3935	0.06	244787	keystroke	c	n/a
122.468	0.09	244936	keystroke	k	n/a
122.7675	0.075	245535	keystroke	Key.enter	n/a
122.85	4.165	245700	prompt	n/a	japan cuba mods watson\n
123.444	0.0595	246888	keystroke	j	n/a
123.533	0.075	247066	keystroke	a	n/a
123.638	0.06	247276	keystroke	p	n/a
123.728	0.0455	247456	keystroke	a	n/a
123.878	0.075	247756	keystroke	n	n/a
123.983	0.075	247966	keystroke	Key.space	n/a
124.223	0.075	248446	keystroke	c	n/a
124.328	0.135	248656	keystroke	u	n/a
124.403	0.09	248806	keystroke	b	n/a
124.5085	0.09	249017	keystroke	a	n/a
124.613	0.075	249226	keystroke	Key.space	n/a
124.793	0.0905	249586	keystroke	m	n/a
124.913	0.06	249826	keystroke	o	n/a
125.003	0.135	250006	keystroke	d	n/a
125.093	0.1055	250186	keystroke	s	n/a
125.228	0.06	250456	keystroke	Key.space	n/a
125.904	0.074	251808	keystroke	w	n/a
126.038	0.09	252076	keystroke	a	n/a
126.173	0.06	252346	keystroke	t	n/a
126.368	0.09	252736	keystroke	s	n/a
126.488	0.105	252976	keystroke	o	n/a
126.548	0.09	253096	keystroke	n	n/a
126.9385	0.074	253877	keystroke	Key.enter	n/a
127.0195	5.6205	254039	prompt	n/a	impose chemicals latest corn\n
127.703	0.1045	255406	keystroke	i	n/a
127.7785	0.09	255557	keystroke	m	n/a
127.958	0.0605	255916	keystroke	p	n/a
128.1385	0.045	256277	keystroke	o	n/a
128.1985	0.09	256397	keystroke	s	n/a
128.2585	0.09	256517	keystroke	e	n/a
128.3785	0.074	256757	keystroke	Key.space	n/a
129.1735	0.045	258347	keystroke	c	n/a
129.2785	0.0595	258557	keystroke	h	n/a
129.353	0.105	258706	keystroke	e	n/a
129.488	0.105	258976	keystroke	m	n/a
129.6535	0.0895	259307	keystroke	i	n/a
129.818	0.1205	259636	keystroke	c	n/a
129.969	0.119	259938	keystroke	a	n/a
130.148	0.1055	260296	keystroke	l	n/a
130.313	0.0905	260626	keystroke	s	n/a
130.418	0.075	260836	keystroke	Key.space	n/a
131.0935	0.0745	262187	keystroke	l	n/a
131.169	0.0745	262338	keystroke	a	n/a
131.303	0.105	262606	keystroke	t	n/a
131.3785	0.1345	262757	keystroke	e	n/a
131.4685	0.165	262937	keystroke	s	n/a
131.588	0.075	263176	keystroke	t	n/a
131.678	0.06	263356	keystroke	Key.space	n/a
131.918	0.076	263836	keystroke	c	n/a
132.038	0.0755	264076	keystroke	o	n/a
132.158	0.0455	264316	keystroke	r	n/a
132.233	0.076	264466	keystroke	n	n/a
132.578	0.0605	265156	keystroke	Key.enter	n/a
132.6455	8.2595	265291	prompt	n/a	safety bouquet samples distinction\n
133.208	0.075	266416	keystroke	s	n/a
133.4935	0.015	266987	keystroke	a	n/a
134.093	0.135	268186	keystroke	f	n/a
134.2435	0.015	268487	keystroke	e	n/a
134.318	0.09	268636	keystroke	t	n/a
134.468	0.06	268936	keystroke	y	n/a
134.6185	0.03	269237	keystroke	Key.space	n/a
135.2035	0.1195	270407	keystroke	b	n/a
135.398	0.0905	270796	keystroke	o	n/a
135.473	0.09	270946	keystroke	u	n/a
135.6385	0.0595	271277	keystroke	g	n/a
136.238	0.0755	272476	keystroke	Key.backspace	n/a
136.4035	0.075	272807	keystroke	q	n/a
136.493	0.09	272986	keystroke	u	n/a
136.643	0.045	273286	keystroke	e	n/a
136.7935	0.0595	273587	keystroke	t	n/a
136.898	0.0605	273796	keystroke	Key.space	n/a
137.5735	0.075	275147	keystroke	s	n/a
137.7075	0.091	275415	keystroke	a	n/a
137.7985	0.074	275597	keystroke	m	n/a
137.9185	0.075	275837	keystroke	p	n/a
138.0835	0.074	276167	keystroke	l	n/a
138.1425	0.151	276285	keystroke	e	n/a
138.2485	0.105	276497	keystroke	s	n/a
138.3535	0.059	276707	keystroke	Key.space	n/a
138.863	0.075	277726	keystroke	d	n/a
138.9985	0.075	277997	keystroke	i	n/a
139.178	0.06	278356	keystroke	s	n/a
139.2985	0.0595	278597	keystroke	t	n/a
139.493	0.105	278986	keystroke	i	n/a
139.898	0.045	279796	keystroke	n	n/a
139.988	0.0755	279976	keystroke	c	n/a
140.183	0.045	280366	keystroke	t	n/a
140.2585	0.2545	280517	keystroke	i	n/a
140.3335	0.18	280667	keystroke	o	n/a
140.423	0.105	280846	keystroke	n	n/a
140.8585	0.045	281717	keystroke	Key.enter	n/a
140.9095	5.8005	281819	prompt	n/a	rings rouge established reduce\n
141.654	0.06	283308	keystroke	r	n/a
141.758	0.105	283516	keystroke	i	n/a
141.818	0.0905	283636	keystroke	n	n/a
141.893	0.075	283786	keystroke	g	n/a
141.983	0.0905	283966	keystroke	s	n/a
142.0735	0.0595	284147	keystroke	Key.space	n/a
142.253	0.0605	284506	keystroke	r	n/a
142.329	0.119	284658	keystroke	o	n/a
142.419	0.059	284838	keystroke	u	n/a
142.493	0.1055	284986	keystroke	g	n/a
142.5835	0.09	285167	keystroke	e	n/a
142.6885	0.0445	285377	keystroke	Key.space	n/a
143.378	0.076	286756	keystroke	e	n/a
143.513	0.09	287026	keystroke	s	n/a
143.663	0.075	287326	keystroke	t	n/a
143.753	0.06	287506	keystroke	a	n/a
143.843	0.076	287686	keystroke	b	n/a
143.978	0.106	287956	keystroke	l	n/a
144.1285	0.0745	288257	keystroke	i	n/a
144.218	0.09	288436	keystroke	s	n/a
144.3385	0.075	288677	keystroke	h	n/a
144.429	0.044	288858	keystroke	e	n/a
144.563	0.0905	289126	keystroke	d	n/a
144.6385	0.0445	289277	keystroke	Key.space	n/a
145.2685	0.12	290537	keystroke	r	n/a
145.3585	0.09	290717	keystroke	e	n/a
145.7785	0.075	291557	keystroke	d	n/a
145.9885	0.09	291977	keystroke	u	n/a
146.0935	0.105	292187	keystroke	c	n/a
146.1685	0.075	292337	keystroke	e	n/a
146.633	0.0755	293266	keystroke	Key.enter	n/a
146.713	5.9825	293426	prompt	n/a	walking nicole party weapon\n
148.103	0.075	296206	keystroke	w	n/a
148.208	0.075	296416	keystroke	a	n/a
148.313	0.091	296626	keystroke	l	n/a
148.3735	0.1195	296747	keystroke	k	n/a
148.644	0.0445	297288	keystroke	i	n/a
148.6585	0.105	297317	keystroke	n	n/a
148.7485	0.0905	297497	keystroke	g	n/a
148.8235	0.09	297647	keystroke	Key.space	n/a
148.943	0.076	297886	keystroke	d	n/a
149.0935	0.045	298187	keystroke	i	n/a
149.3635	0.0595	298727	keystroke	Key.backspace	n/a
149.498	0.075	298996	keystroke	Key.backspace	n/a
149.7235	0.0745	299447	keystroke	n	n/a
149.7835	0.12	299567	keystroke	i	n/a
149.9185	0.06	299837	keystroke	c	n/a
150.0385	0.06	300077	keystroke	o	n/a
150.1885	0.075	300377	keystroke	l	n/a
150.2785	0.0895	300557	keystroke	e	n/a
150.3985	0.0745	300797	keystroke	Key.space	n/a
150.833	0.0155	301666	keystroke	p	n/a
150.8635	0.0145	301727	keystroke	a	n/a
150.893	0.06	301786	keystroke	r	n/a
151.0585	0.045	302117	keystroke	t	n/a
151.193	0.105	302386	keystroke	y	n/a
151.2835	0.0445	302567	keystroke	Key.space	n/a
151.5685	0.0895	303137	keystroke	w	n/a
151.7635	0.09	303527	keystroke	e	n/a
151.8685	0.06	303737	keystroke	a	n/a
151.9425	0.091	303885	keystroke	p	n/a
152.1535	0.1045	304307	keystroke	o	n/a
152.2135	0.105	304427	keystroke	n	n/a
152.618	0.075	305236	keystroke	Key.enter	n/a
152.7005	11.035	305401	prompt	n/a	watershed recorded mandatory flavor\n
153.429	0.089	306858	keystroke	w	n/a
153.549	0.09	307098	keystroke	a	n/a
153.683	0.075	307366	keystroke	t	n/a
153.7735	0.1345	307547	keystroke	e	n/a
153.8785	0.0895	307757	keystroke	r	n/a
154.0735	0.06	308147	keystroke	s	n/a
154.1485	0.075	308297	keystroke	h	n/a
154.2385	0.06	308477	keystroke	e	n/a
154.5385	0.075	309077	keystroke	d	n/a
154.6725	0.046	309345	keystroke	Key.space	n/a
155.1685	0.045	310337	keystroke	r	n/a
155.1835	0.075	310367	keystroke	e	n/a
155.3335	0.09	310667	keystroke	c	n/a
155.4985	0.0595	310997	keystroke	o	n/a
155.573	0.1355	311146	keystroke	r	n/a
155.6635	0.075	311327	keystroke	d	n/a
155.813	0.075	311626	keystroke	e	n/a
155.9935	0.0755	311987	keystroke	d	n/a
156.098	0.075	312196	keystroke	Key.space	n/a
156.668	0.1205	313336	keystroke	n	n/a
157.088	0.045	314176	keystroke	Key.backspace	n/a
157.3135	0.09	314627	keystroke	m	n/a
157.4485	0.075	314897	keystroke	a	n/a
157.5535	0.075	315107	keystroke	n	n/a
157.6735	0.075	315347	keystroke	d	n/a
157.809	0.1195	315618	keystroke	a	n/a
158.1235	0.045	316247	keystroke	t	n/a
158.274	0.074	316548	keystroke	o	n/a
158.3785	0.0595	316757	keystroke	r	n/a
158.5435	0.0445	317087	keystroke	y	n/a
158.5575	0.016	317115	keystroke	t	n/a
158.6175	0.0605	317235	keystroke	Key.space	n/a
159.128	0.0155	318256	keystroke	Key.backspace	n/a
159.1885	0.0745	318377	keystroke	Key.backspace	n/a
159.5925	0.06	319185	keystroke	Key.space	n/a
160.2385	0.09	320477	keystroke	f	n/a
160.3585	0.09	320717	keystroke	a	n/a
160.3885	0.09	320777	keystroke	l	n/a
160.568	0.06	321136	keystroke	v	n/a
160.763	0.0905	321526	keystroke	o	n/a
161.273	0.0155	322546	keystroke	Key.backspace	n/a
161.333	0.03	322666	keystroke	Key.backspace	n/a
161.468	0.075	322936	keystroke	Key.backspace	n/a
161.6635	0.045	323327	keystroke	Key.backspace	n/a
162.3085	0.089	324617	keystroke	l	n/a
162.4135	0.1195	324827	keystroke	a	n/a
162.5635	0.0745	325127	keystroke	v	n/a
162.714	0.09	325428	keystroke	o	n/a
162.8785	0.0455	325757	keystroke	r	n/a
163.6585	0.075	327317	keystroke	Key.enter	n/a
163.7395	10.7055	327479	prompt	n/a	representative richards traveler crime\n
164.4835	0.1195	328967	keystroke	r	n/a
164.559	0.104	329118	keystroke	e	n/a
164.6935	0.0745	329387	keystroke	p	n/a
164.8135	0.1045	329627	keystroke	r	n/a
164.858	0.1355	329716	keystroke	e	n/a
164.978	0.09	329956	keystroke	s	n/a
165.128	0.076	330256	keystroke	e	n/a
165.2185	0.09	330437	keystroke	n	n/a
165.353	0.06	330706	keystroke	t	n/a
165.443	0.09	330886	keystroke	a	n/a
165.548	0.075	331096	keystroke	t	n/a
165.698	0.076	331396	keystroke	i	n/a
165.818	0.075	331636	keystroke	v	n/a
165.8945	0.0895	331789	keystroke	e	n/a
166.0285	0.0595	332057	keystroke	Key.space	n/a
166.733	0.091	333466	keystroke	r	n/a
166.8985	0.0755	333797	keystroke	i	n/a
167.004	0.089	334008	keystroke	c	n/a
167.108	0.0605	334216	keystroke	h	n/a
167.228	0.09	334456	keystroke	a	n/a
167.483	0.1205	334966	keystroke	r	n/a
167.5885	0.1645	335177	keystroke	d	n/a
167.708	0.105	335416	keystroke	s	n/a
167.843	0.075	335686	keystroke	Key.space	n/a
169.4035	0.014	338807	keystroke	t	n/a
169.479	0.1345	338958	keystroke	r	n/a
169.5835	0.09	339167	keystroke	e	n/a
170.1685	0.15	340337	keystroke	Key.backspace	n/a
170.3785	0.09	340757	keystroke	a	n/a
170.5135	0.1345	341027	keystroke	v	n/a
170.663	0.09	341326	keystroke	e	n/a
171.9085	0.0895	343817	keystroke	l	n/a
172.148	0.1205	344296	keystroke	e	n/a
172.238	0.075	344476	keystroke	r	n/a
172.4635	0.074	344927	keystroke	Key.space	n/a
173.169	0.059	346338	keystroke	c	n/a
173.364	0.044	346728	keystroke	r	n/a
173.453	0.135	346906	keystroke	i	n/a
173.513	0.105	347026	keystroke	m	n/a
173.649	0.0445	347298	keystroke	e	n/a
174.4285	0.015	348857	keystroke	Key.enter	n/a
174.452	10.9435	348904	prompt	n/a	pharmaceutical reforms slot tommy\n
175.2685	0.0745	350537	keystroke	p	n/a
175.823	0.09	351646	keystroke	h	n/a
175.943	0.1205	351886	keystroke	r	n/a
176.048	0.075	352096	keystroke	a	n/a
176.168	0.105	352336	keystroke	m	n/a
176.7385	0.015	353477	keystroke	Key.backspace	n/a
176.8435	0.045	353687	keystroke	Key.backspace	n/a
176.9785	0.075	353957	keystroke	Key.backspace	n/a
177.1135	0.1195	354227	keystroke	a	n/a
177.278	0.0755	354556	keystroke	r	n/a
177.5935	0.0745	355187	keystroke	m	n/a
177.7735	0.045	355547	keystroke	a	n/a
178.134	0.1035	356268	keystroke	c	n/a
178.2685	0.06	356537	keystroke	e	n/a
178.4185	0.075	356837	keystroke	u	n/a
178.5535	0.0745	357107	keystroke	t	n/a
178.6735	0.075	357347	keystroke	i	n/a
178.8235	0.06	357647	keystroke	c	n/a
180.683	0.075	361366	keystroke	a	n/a
180.803	0.0905	361606	keystroke	l	n/a
180.938	0.0755	361876	keystroke	Key.space	n/a
181.733	0.135	363466	keystroke	r	n/a
181.838	0.06	363676	keystroke	e	n/a
182.0035	0.075	364007	keystroke	f	n/a
182.108	0.075	364216	keystroke	o	n/a
182.213	0.06	364426	keystroke	r	n/a
182.333	0.09	364666	keystroke	m	n/a
182.4685	0.0605	364937	keystroke	s	n/a
182.588	0.045	365176	keystroke	Key.space	n/a
183.3075	0.075	366615	keystroke	s	n/a
183.3835	0.089	366767	keystroke	l	n/a
183.5775	0.076	367155	keystroke	o	n/a
183.6975	0.061	367395	keystroke	t	n/a
183.7725	0.0755	367545	keystroke	Key.space	n/a
183.9235	0.0745	367847	keystroke	t	n/a
184.0275	0.076	368055	keystroke	o	n/a
184.269	0.0145	368538	keystroke	m	n/a
184.3135	0.075	368627	keystroke	m	n/a
184.6585	0.044	369317	keystroke	y	n/a
185.3635	0.03	370727	keystroke	Key.enter	n/a
185.4	9.145	370800	prompt	n/a	yearly armenia electricity officials\n
186.1585	0.105	372317	keystroke	y	n/a
186.2185	0.15	372437	keystroke	e	n/a
186.3085	0.12	372617	keystroke	a	n/a
186.3835	0.09	372767	keystroke	r	n/a
186.4435	0.09	372887	keystroke	l	n/a
186.6235	0.045	373247	keystroke	y	n/a
186.713	0.03	373426	keystroke	Key.space	n/a
187.613	0.075	375226	keystroke	a	n/a
187.7035	0.165	375407	keystroke	r	n/a
187.8535	0.105	375707	keystroke	e	n/a
188.1235	0.1055	376247	keystroke	m	n/a
188.558	0.0455	377116	keystroke	Key.backspace	n/a
188.6785	0.075	377357	keystroke	Key.backspace	n/a
188.8735	0.0755	377747	keystroke	m	n/a
188.9785	0.075	377957	keystroke	e	n/a
189.1135	0.06	378227	keystroke	n	n/a
189.1885	0.09	378377	keystroke	i	n/a
189.3535	0.09	378707	keystroke	a	n/a
189.4735	0.045	378947	keystroke	Key.space	n/a
190.5235	0.045	381047	keystroke	e	n/a
190.5835	0.105	381167	keystroke	l	n/a
190.7035	0.1205	381407	keystroke	e	n/a
190.7935	0.1055	381587	keystroke	c	n/a
191.003	0.046	382006	keystroke	t	n/a
191.138	0.06	382276	keystroke	r	n/a
191.243	0.09	382486	keystroke	i	n/a
191.363	0.0755	382726	keystroke	c	n/a
191.499	0.074	382998	keystroke	i	n/a
191.618	0.03	383236	keystroke	t	n/a
191.7235	0.075	383447	keystroke	y	n/a
191.828	0.06	383656	keystroke	Key.space	n/a
192.7135	0.06	385427	keystroke	o	n/a
192.8185	0.06	385637	keystroke	f	n/a
192.9535	0.075	385907	keystroke	f	n/a
193.0585	0.075	386117	keystroke	i	n/a
193.1485	0.105	386297	keystroke	c	n/a
193.2685	0.075	386537	keystroke	i	n/a
193.3735	0.09	386747	keystroke	a	n/a
193.4935	0.09	386987	keystroke	l	n/a
193.6285	0.06	387257	keystroke	s	n/a
194.4685	0.075	388937	keystroke	Key.enter	n/a
194.5485	7.5715	389097	prompt	n/a	ctrl amanda accounting productive\n
195.2335	0.1045	390467	keystroke	c	n/a
195.4735	0.0305	390947	keystroke	t	n/a
195.578	0.075	391156	keystroke	r	n/a
195.698	0.075	391396	keystroke	l	n/a
195.818	0.045	391636	keystroke	Key.space	n/a
196.4485	0.1505	392897	keystroke	a	n/a
196.6285	0.075	393257	keystroke	m	n/a
196.6885	0.09	393377	keystroke	a	n/a
196.9285	0.09	393857	keystroke	n	n/a
197.0935	0.0745	394187	keystroke	d	n/a
197.1835	0.09	394367	keystroke	a	n/a
197.303	0.0755	394606	keystroke	Key.space	n/a
197.7835	0.075	395567	keystroke	a	n/a
197.9485	0.059	395897	keystroke	c	n/a
198.0685	0.075	396137	keystroke	c	n/a
198.1885	0.105	396377	keystroke	o	n/a
198.2335	0.09	396467	keystroke	u	n/a
198.5035	0.015	397007	keystroke	n	n/a
198.533	0.0305	397066	keystroke	t	n/a
198.6235	0.075	397247	keystroke	i	n/a
198.6675	0.09	397335	keystroke	n	n/a
198.7435	0.059	397487	keystroke	g	n/a
198.8485	0.0895	397697	keystroke	Key.space	n/a
199.7185	0.105	399437	keystroke	p	n/a
199.8375	0.076	399675	keystroke	r	n/a
200.0035	0.104	400007	keystroke	o	n/a
200.6035	0.0605	401207	keystroke	d	n/a
200.723	0.06	401446	keystroke	u	n/a
200.844	0.074	401688	keystroke	c	n/a
201.039	0.044	402078	keystroke	t	n/a
201.114	0.0445	402228	keystroke	i	n/a
201.248	0.105	402496	keystroke	v	n/a
201.338	0.0455	402676	keystroke	e	n/a
202.058	0.0595	404116	keystroke	Key.enter	n/a
202.1245	9.386	404249	prompt	n/a	extending inexpensive antenna consciousness\n
202.748	0.045	405496	keystroke	e	n/a
202.913	0.09	405826	keystroke	x	n/a
203.078	0.12	406156	keystroke	t	n/a
203.169	0.0595	406338	keystroke	e	n/a
203.273	0.075	406546	keystroke	n	n/a
203.364	0.06	406728	keystroke	d	n/a
203.468	0.075	406936	keystroke	i	n/a
203.513	0.09	407026	keystroke	n	n/a
203.633	0.06	407266	keystroke	g	n/a
203.7235	0.0895	407447	keystroke	Key.space	n/a
204.368	0.0755	408736	keystroke	i	n/a
204.398	0.0905	408796	keystroke	n	n/a
204.684	0.09	409368	keystroke	p	n/a
205.103	0.075	410206	keystroke	Key.backspace	n/a
205.2835	0.0605	410567	keystroke	e	n/a
205.463	0.0755	410926	keystroke	x	n/a
205.6285	0.105	411257	keystroke	p	n/a
205.823	0.0605	411646	keystroke	e	n/a
205.868	0.1055	411736	keystroke	n	n/a
206.003	0.09	412006	keystroke	s	n/a
206.153	0.09	412306	keystroke	i	n/a
206.288	0.0905	412576	keystroke	v	n/a
206.363	0.105	412726	keystroke	e	n/a
206.483	0.06	412966	keystroke	Key.space	n/a
207.1585	0.09	414317	keystroke	a	n/a
207.3235	0.09	414647	keystroke	n	n/a
207.5185	0.12	415037	keystroke	t	n/a
207.6235	0.105	415247	keystroke	e	n/a
207.7435	0.09	415487	keystroke	n	n/a
208.0135	0.075	416027	keystroke	n	n/a
208.1785	0.0745	416357	keystroke	a	n/a
208.2985	0.075	416597	keystroke	Key.space	n/a
209.123	0.0755	418246	keystroke	c	n/a
209.228	0.105	418456	keystroke	o	n/a
209.288	0.105	418576	keystroke	n	n/a
209.423	0.09	418846	keystroke	s	n/a
209.6485	0.075	419297	keystroke	c	n/a
209.7835	0.075	419567	keystroke	i	n/a
209.9785	0.1045	419957	keystroke	o	n/a
210.0385	0.09	420077	keystroke	u	n/a
210.159	0.0595	420318	keystroke	s	n/a
210.3225	0.061	420645	keystroke	n	n/a
210.4285	0.03	420857	keystroke	e	n/a
210.5775	0.046	421155	keystroke	s	n/a
210.6985	0.075	421397	keystroke	s	n/a
211.4335	0.075	422867	keystroke	Key.enter	n/a
211.5145	7.9455	423029	prompt	n/a	exceptions leadership pichunter julie\n
212.2285	0.075	424457	keystroke	e	n/a
212.4385	0.09	424877	keystroke	x	n/a
212.5885	0.105	425177	keystroke	c	n/a
212.6635	0.105	425327	keystroke	e	n/a
212.7385	0.075	425477	keystroke	p	n/a
212.8735	0.06	425747	keystroke	t	n/a
212.9935	0.195	425987	keystroke	i	n/a
213.0385	0.135	426077	keystroke	o	n/a
213.0835	0.135	426167	keystroke	n	n/a
213.2335	0.045	426467	keystroke	s	n/a
213.3085	0.075	426617	keystroke	Key.space	n/a
214.0435	0.12	428087	keystroke	l	n/a
214.1485	0.06	428297	keystroke	e	n/a
214.2535	0.105	428507	keystroke	a	n/a
214.3135	0.075	428627	keystroke	d	n/a
214.4785	0.1045	428957	keystroke	e	n/a
214.568	0.0605	429136	keystroke	r	n/a
214.7035	0.0755	429407	keystroke	s	n/a
214.7635	0.1055	429527	keystroke	h	n/a
214.87	0.118	429740	keystroke	i	n/a
215.0785	0.06	430157	keystroke	p	n/a
215.5285	0.045	431057	keystroke	Key.space	n/a
216.4585	0.0745	432917	keystroke	p	n/a
216.6835	0.06	433367	keystroke	i	n/a
216.7735	0.06	433547	keystroke	c	n/a
216.9685	0.105	433937	keystroke	h	n/a
217.1185	0.105	434237	keystroke	u	n/a
217.1785	0.105	434357	keystroke	n	n/a
217.2985	0.09	434597	keystroke	t	n/a
217.3585	0.1495	434717	keystroke	e	n/a
217.4635	0.075	434927	keystroke	r	n/a
217.5835	0.045	435167	keystroke	Key.space	n/a
218.4685	0.105	436937	keystroke	j	n/a
218.6775	0.075	437355	keystroke	u	n/a
218.8425	0.0905	437685	keystroke	l	n/a
218.9475	0.09	437895	keystroke	i	n/a
219.0525	0.061	438105	keystroke	e	n/a
219.398	0.06	438796	keystroke	Key.enter	n/a
219.4645	12.986	438929	prompt	n/a	biography anti privilege adopted\n
220.2685	0.0745	440537	keystroke	b	n/a
220.433	0.2105	440866	keystroke	i	n/a
220.6725	0.106	441345	keystroke	o	n/a
221.0485	0.0455	442097	keystroke	h	n/a
221.3785	0.06	442757	keystroke	Key.backspace	n/a
221.4685	0.06	442937	keystroke	g	n/a
221.6335	0.075	443267	keystroke	r	n/a
221.8885	0.06	443777	keystroke	a	n/a
222.0235	0.09	444047	keystroke	p	n/a
222.233	0.06	444466	keystroke	h	n/a
222.4285	0.06	444857	keystroke	y	n/a
222.4735	0.015	444947	keystroke	t	n/a
222.5175	0.075	445035	keystroke	Key.space	n/a
222.983	0.0605	445966	keystroke	=	n/a
223.1175	0.061	446235	keystroke	=	n/a
223.8835	0.0745	447767	keystroke	Key.backspace	n/a
224.063	0.06	448126	keystroke	Key.backspace	n/a
224.288	0.075	448576	keystroke	Key.backspace	n/a
224.6025	0.061	449205	keystroke	Key.backspace	n/a
224.8275	0.06	449655	keystroke	Key.space	n/a
225.699	0.0585	451398	keystroke	a	n/a
225.8035	0.0745	451607	keystroke	n	n/a
225.9385	0.06	451877	keystroke	t	n/a
226.0585	0.075	452117	keystroke	i	n/a
226.178	0.0595	452356	keystroke	Key.space	n/a
227.1085	0.09	454217	keystroke	p	n/a
227.184	0.0745	454368	keystroke	r	n/a
227.3485	0.09	454697	keystroke	i	n/a
227.4685	0.045	454937	keystroke	v	n/a
228.443	0.0755	456886	keystroke	i	n/a
228.623	0.09	457246	keystroke	l	n/a
228.773	0.06	457546	keystroke	e	n/a
228.909	0.1045	457818	keystroke	g	n/a
228.983	0.1205	457966	keystroke	e	n/a
229.133	0.045	458266	keystroke	Key.space	n/a
229.748	0.105	459496	keystroke	a	n/a
229.8985	0.0745	459797	keystroke	d	n/a
230.063	0.0755	460126	keystroke	o	n/a
230.318	0.0145	460636	keystroke	p	n/a
230.3485	0.0455	460697	keystroke	e	n/a
230.9035	0.0595	461807	keystroke	Key.backspace	n/a
231.009	0.104	462018	keystroke	t	n/a
231.0835	0.089	462167	keystroke	e	n/a
231.2635	0.075	462527	keystroke	d	n/a
232.3725	0.076	464745	keystroke	Key.enter	n/a
232.455	7.48	464910	prompt	n/a	clips investment denver monroe\n
233.2285	0.0745	466457	keystroke	c	n/a
233.318	0.1055	466636	keystroke	l	n/a
233.6485	0.105	467297	keystroke	i	n/a
233.8885	0.0895	467777	keystroke	p	n/a
234.0085	0.075	468017	keystroke	s	n/a
234.158	0.075	468316	keystroke	Key.space	n/a
234.669	0.089	469338	keystroke	i	n/a
234.714	0.104	469428	keystroke	n	n/a
234.773	0.075	469546	keystroke	v	n/a
234.8635	0.1345	469727	keystroke	e	n/a
234.969	0.1345	469938	keystroke	s	n/a
235.088	0.0605	470176	keystroke	t	n/a
235.299	0.104	470598	keystroke	m	n/a
235.463	0.075	470926	keystroke	e	n/a
235.6285	0.105	471257	keystroke	n	n/a
235.7785	0.0445	471557	keystroke	t	n/a
235.883	0.0605	471766	keystroke	Key.space	n/a
236.5135	0.0595	473027	keystroke	d	n/a
236.6935	0.03	473387	keystroke	e	n/a
236.768	0.075	473536	keystroke	n	n/a
236.904	0.074	473808	keystroke	v	n/a
237.009	0.1345	474018	keystroke	e	n/a
237.1285	0.075	474257	keystroke	r	n/a
237.293	0.0455	474586	keystroke	Key.space	n/a
238.209	0.0595	476418	keystroke	m	n/a
238.3135	0.15	476627	keystroke	o	n/a
238.4185	0.09	476837	keystroke	n	n/a
238.524	0.075	477048	keystroke	r	n/a
238.6285	0.0905	477257	keystroke	o	n/a
238.7335	0.075	477467	keystroke	e	n/a
239.8585	0.0745	479717	keystroke	Key.enter	n/a
239.94	6.685	479880	prompt	n/a	recreation warrant distant cork\n
240.7285	0.0895	481457	keystroke	r	n/a
240.7885	0.12	481577	keystroke	e	n/a
240.954	0.1195	481908	keystroke	c	n/a
241.1485	0.1205	482297	keystroke	r	n/a
241.254	0.12	482508	keystroke	e	n/a
241.358	0.105	482716	keystroke	a	n/a
241.419	0.075	482838	keystroke	t	n/a
241.583	0.24	483166	keystroke	i	n/a
241.658	0.1505	483316	keystroke	o	n/a
241.718	0.12	483436	keystroke	n	n/a
241.823	0.09	483646	keystroke	Key.space	n/a
242.4685	0.089	484937	keystroke	w	n/a
242.618	0.105	485236	keystroke	a	n/a
242.708	0.0755	485416	keystroke	r	n/a
242.843	0.1205	485686	keystroke	r	n/a
242.948	0.06	485896	keystroke	a	n/a
243.0385	0.0895	486077	keystroke	n	n/a
243.1435	0.0595	486287	keystroke	t	n/a
243.2335	0.0745	486467	keystroke	Key.space	n/a
243.878	0.06	487756	keystroke	d	n/a
244.013	0.0755	488026	keystroke	i	n/a
244.073	0.0755	488146	keystroke	s	n/a
244.209	0.044	488418	keystroke	t	n/a
244.283	0.0905	488566	keystroke	a	n/a
244.359	0.0885	488718	keystroke	n	n/a
244.478	0.06	488956	keystroke	t	n/a
244.583	0.0755	489166	keystroke	Key.space	n/a
245.244	0.0745	490488	keystroke	c	n/a
245.3335	0.045	490667	keystroke	o	n/a
245.408	0.06	490816	keystroke	r	n/a
245.828	0.075	491656	keystroke	k	n/a
246.563	0.0605	493126	keystroke	Key.enter	n/a
246.629	9.2665	493258	prompt	n/a	alto sense supervisor polish\n
247.2685	0.12	494537	keystroke	a	n/a
247.493	0.075	494986	keystroke	l	n/a
247.598	0.0755	495196	keystroke	t	n/a
247.853	0.0605	495706	keystroke	o	n/a
247.988	0.075	495976	keystroke	Key.space	n/a
248.5285	0.0605	497057	keystroke	s	n/a
248.6325	0.076	497265	keystroke	e	n/a
248.7225	0.076	497445	keystroke	n	n/a
248.8135	0.075	497627	keystroke	s	n/a
248.8735	0.075	497747	keystroke	e	n/a
249.0535	0.06	498107	keystroke	Key.space	n/a
249.8635	0.15	499727	keystroke	s	n/a
250.0285	0.09	500057	keystroke	p	n/a
250.4035	0.075	500807	keystroke	Key.backspace	n/a
250.6285	0.075	501257	keystroke	u	n/a
250.7935	0.09	501587	keystroke	p	n/a
250.8985	0.105	501797	keystroke	e	n/a
250.9885	0.074	501977	keystroke	r	n/a
251.2585	0.06	502517	keystroke	v	n/a
251.3335	0.076	502667	keystroke	i	n/a
251.499	0.0745	502998	keystroke	s	n/a
251.6635	0.075	503327	keystroke	o	n/a
251.7685	0.09	503537	keystroke	r	n/a
251.9035	0.06	503807	keystroke	Key.space	n/a
252.6835	0.09	505367	keystroke	o	n/a
253.058	0.0455	506116	keystroke	=	n/a
253.7775	0.046	507555	keystroke	Key.backspace	n/a
253.8985	0.06	507797	keystroke	Key.backspace	n/a
254.3185	0.059	508637	keystroke	p	n/a
254.5135	0.0595	509027	keystroke	o	n/a
254.664	0.0595	509328	keystroke	l	n/a
254.9035	0.075	509807	keystroke	i	n/a
254.9935	0.075	509987	keystroke	s	n/a
255.1435	0.06	510287	keystroke	h	n/a
255.8185	0.075	511637	keystroke	Key.enter	n/a
255.8985	9.656	511797	prompt	n/a	support contest baghdad accounts\n
256.6585	0.0755	513317	keystroke	s	n/a
256.7935	0.06	513587	keystroke	u	n/a
256.9435	0.075	513887	keystroke	p	n/a
257.0785	0.075	514157	keystroke	p	n/a
257.2435	0.06	514487	keystroke	o	n/a
257.3185	0.0595	514637	keystroke	r	n/a
257.484	0.059	514968	keystroke	t	n/a
257.573	0.0755	515146	keystroke	Key.space	n/a
258.3085	0.09	516617	keystroke	c	n/a
258.384	0.1045	516768	keystroke	o	n/a
258.4585	0.09	516917	keystroke	n	n/a
258.5935	0.09	517187	keystroke	t	n/a
258.6685	0.105	517337	keystroke	e	n/a
258.7885	0.15	517577	keystroke	s	n/a
258.893	0.0905	517786	keystroke	t	n/a
258.998	0.075	517996	keystroke	Key.space	n/a
260.1085	0.075	520217	keystroke	b	n/a
260.228	0.076	520456	keystroke	a	n/a
260.693	0.0455	521386	keystroke	g	n/a
261.068	0.075	522136	keystroke	h	n/a
261.428	0.076	522856	keystroke	d	n/a
261.533	0.15	523066	keystroke	a	n/a
261.774	0.0595	523548	keystroke	d	n/a
261.9535	0.059	523907	keystroke	Key.space	n/a
262.464	0.0595	524928	keystroke	c	n/a
262.853	0.045	525706	keystroke	Key.backspace	n/a
262.9885	0.075	525977	keystroke	a	n/a
263.1085	0.03	526217	keystroke	c	n/a
263.2285	0.045	526457	keystroke	c	n/a
263.3945	0.089	526789	keystroke	o	n/a
263.4385	0.075	526877	keystroke	u	n/a
263.6185	0.06	527237	keystroke	n	n/a
263.6935	0.0745	527387	keystroke	t	n/a
263.783	0.076	527566	keystroke	s	n/a
265.5385	0.014	531077	keystroke	Key.enter	n/a
265.5575	9.0125	531115	prompt	n/a	editorial seas ordinary vast\n
266.318	0.045	532636	keystroke	e	n/a
266.484	0.074	532968	keystroke	d	n/a
266.6035	0.075	533207	keystroke	i	n/a
266.724	0.0595	533448	keystroke	t	n/a
266.8285	0.06	533657	keystroke	o	n/a
266.9335	0.06	533867	keystroke	r	n/a
267.0235	0.06	534047	keystroke	i	n/a
267.1885	0.075	534377	keystroke	a	n/a
267.4135	0.105	534827	keystroke	l	n/a
267.5775	0.0755	535155	keystroke	Key.space	n/a
268.539	0.0745	537078	keystroke	s	n/a
268.629	0.0745	537258	keystroke	e	n/a
268.748	0.075	537496	keystroke	a	n/a
268.838	0.121	537676	keystroke	s	n/a
269.0035	0.06	538007	keystroke	Key.space	n/a
269.7235	0.0595	539447	keystroke	c	n/a
270.0685	0.06	540137	keystroke	Key.backspace	n/a
270.354	0.0595	540708	keystroke	p	n/a
270.369	0.0295	540738	keystroke	o	n/a
270.444	0.0595	540888	keystroke	r	n/a
270.9085	0.0145	541817	keystroke	Key.backspace	n/a
270.968	0.045	541936	keystroke	Key.backspace	n/a
271.178	0.0155	542356	keystroke	Key.backspace	n/a
271.8985	0.0455	543797	keystroke	o	n/a
271.974	0.0595	543948	keystroke	r	n/a
272.244	0.075	544488	keystroke	d	n/a
272.364	0.119	544728	keystroke	i	n/a
272.438	0.1055	544876	keystroke	n	n/a
272.558	0.1055	545116	keystroke	a	n/a
272.6935	0.06	545387	keystroke	r	n/a
272.814	0.0585	545628	keystroke	y	n/a
272.9185	0.09	545837	keystroke	Key.space	n/a
273.6535	0.105	547307	keystroke	v	n/a
273.744	0.1045	547488	keystroke	a	n/a
273.8185	0.18	547637	keystroke	s	n/a
273.9535	0.075	547907	keystroke	t	n/a
274.5235	0.045	549047	keystroke	Key.enter	n/a
274.5765	7.3435	549153	prompt	n/a	robots portable employ grew\n
275.334	0.074	550668	keystroke	r	n/a
275.4235	0.06	550847	keystroke	o	n/a
275.5285	0.09	551057	keystroke	b	n/a
275.663	0.09	551326	keystroke	o	n/a
275.7685	0.135	551537	keystroke	t	n/a
275.8885	0.1195	551777	keystroke	s	n/a
275.9935	0.0745	551987	keystroke	Key.space	n/a
276.788	0.075	553576	keystroke	p	n/a
276.968	0.06	553936	keystroke	o	n/a
277.013	0.0755	554026	keystroke	r	n/a
277.1785	0.0755	554357	keystroke	t	n/a
277.2685	0.0595	554537	keystroke	a	n/a
277.343	0.0605	554686	keystroke	b	n/a
277.478	0.0755	554956	keystroke	l	n/a
277.568	0.0605	555136	keystroke	e	n/a
277.6735	0.06	555347	keystroke	Key.space	n/a
278.379	0.059	556758	keystroke	e	n/a
278.498	0.09	556996	keystroke	m	n/a
278.6185	0.06	557237	keystroke	p	n/a
278.903	0.0605	557806	keystroke	l	n/a
279.084	0.044	558168	keystroke	o	n/a
279.248	0.0605	558496	keystroke	y	n/a
279.3385	0.0745	558677	keystroke	e	n/a
279.4885	0.0745	558977	keystroke	Key.space	n/a
279.8635	0.045	559727	keystroke	Key.backspace	n/a
279.9835	0.0745	559967	keystroke	Key.backspace	n/a
280.148	0.075	560296	keystroke	Key.space	n/a
280.9435	0.045	561887	keystroke	g	n/a
281.1085	0.1345	562217	keystroke	r	n/a
281.168	0.18	562336	keystroke	e	n/a
281.259	0.1345	562518	keystroke	w	n/a
281.8435	0.075	563687	keystroke	Key.enter	n/a
281.923	9.852	563846	prompt	n/a	sponsorship marvel context phpbb\n
282.6235	0.09	565247	keystroke	s	n/a
282.774	0.075	565548	keystroke	p	n/a
282.969	0.09	565938	keystroke	o	n/a
283.074	0.0895	566148	keystroke	n	n/a
283.193	0.091	566386	keystroke	s	n/a
283.6435	0.0595	567287	keystroke	o	n/a
283.7485	0.0595	567497	keystroke	r	n/a
283.958	0.045	567916	keystroke	s	n/a
284.0335	0.09	568067	keystroke	h	n/a
284.0635	0.1045	568127	keystroke	i	n/a
284.3335	0.075	568667	keystroke	p	n/a
284.4985	0.075	568997	keystroke	Key.space	n/a
285.128	0.0605	570256	keystroke	r	n/a
285.428	0.0595	570856	keystroke	Key.backspace	n/a
285.684	0.0745	571368	keystroke	m	n/a
285.699	0.1345	571398	keystroke	a	n/a
285.8035	0.0605	571607	keystroke	r	n/a
285.9985	0.0595	571997	keystroke	v	n/a
286.0435	0.075	572087	keystroke	e	n/a
286.1335	0.06	572267	keystroke	l	n/a
286.2535	0.06	572507	keystroke	Key.space	n/a
286.9885	0.09	573977	keystroke	c	n/a
287.0935	0.105	574187	keystroke	o	n/a
287.168	0.0755	574336	keystroke	n	n/a
287.303	0.121	574606	keystroke	t	n/a
287.393	0.061	574786	keystroke	e	n/a
287.6185	0.09	575237	keystroke	x	n/a
287.7535	0.045	575507	keystroke	t	n/a
288.0685	0.075	576137	keystroke	Key.space	n/a
288.953	0.0755	577906	keystroke	p	n/a
289.208	0.06	578416	keystroke	h	n/a
289.5535	0.06	579107	keystroke	p	n/a
289.9585	0.03	579917	keystroke	b	n/a
290.0635	0.06	580127	keystroke	b	n/a
291.728	0.045	583456	keystroke	Key.enter	n/a
291.7795	4.7805	583559	prompt	n/a	rough arch native wake\n
292.5085	0.0445	585017	keystroke	r	n/a
292.6135	0.1045	585227	keystroke	o	n/a
292.673	0.076	585346	keystroke	u	n/a
292.793	0.061	585586	keystroke	g	n/a
292.868	0.0755	585736	keystroke	h	n/a
292.9435	0.075	585887	keystroke	Key.space	n/a
293.078	0.0905	586156	keystroke	a	n/a
293.1535	0.0895	586307	keystroke	r	n/a
293.348	0.075	586696	keystroke	c	n/a
293.438	0.061	586876	keystroke	h	n/a
293.513	0.076	587026	keystroke	Key.space	n/a
293.8585	0.0745	587717	keystroke	n	n/a
293.948	0.091	587896	keystroke	a	n/a
294.039	0.06	588078	keystroke	t	n/a
294.129	0.0745	588258	keystroke	i	n/a
294.233	0.0905	588466	keystroke	v	n/a
294.3085	0.0895	588617	keystroke	e	n/a
294.4435	0.0595	588887	keystroke	Key.space	n/a
295.0875	0.0755	590175	keystroke	w	n/a
295.2235	0.074	590447	keystroke	k	n/a
295.3285	0.0755	590657	keystroke	a	n/a
295.5985	0.06	591197	keystroke	Key.backspace	n/a
295.718	0.0755	591436	keystroke	Key.backspace	n/a
295.8535	0.06	591707	keystroke	a	n/a
295.943	0.0905	591886	keystroke	k	n/a
296.049	0.0445	592098	keystroke	e	n/a
296.4825	0.075	592965	keystroke	Key.enter	n/a
296.5635	6.4615	593127	prompt	n/a	elements retreat tuesday color\n
297.114	0.0445	594228	keystroke	e	n/a
297.234	0.089	594468	keystroke	l	n/a
297.3385	0.0445	594677	keystroke	e	n/a
297.414	0.09	594828	keystroke	m	n/a
297.519	0.059	595038	keystroke	e	n/a
297.609	0.074	595218	keystroke	n	n/a
297.699	0.09	595398	keystroke	t	n/a
297.79	0.104	595580	keystroke	s	n/a
297.878	0.06	595756	keystroke	Key.space	n/a
298.523	0.1355	597046	keystroke	r	n/a
298.6135	0.105	597227	keystroke	e	n/a
299.0035	0.075	598007	keystroke	t	n/a
299.2285	0.12	598457	keystroke	r	n/a
299.3185	0.12	598637	keystroke	e	n/a
299.409	0.1195	598818	keystroke	a	n/a
299.4835	0.075	598967	keystroke	t	n/a
299.6635	0.06	599327	keystroke	Key.space	n/a
300.533	0.0905	601066	keystroke	t	n/a
300.6835	0.09	601367	keystroke	u	n/a
300.9085	0.09	601817	keystroke	e	n/a
301.1335	0.09	602267	keystroke	s	n/a
301.2085	0.12	602417	keystroke	d	n/a
301.3435	0.06	602687	keystroke	a	n/a
301.4335	0.09	602867	keystroke	y	n/a
301.6285	0.06	603257	keystroke	Key.space	n/a
302.1385	0.075	604277	keystroke	c	n/a
302.2735	0.075	604547	keystroke	o	n/a
302.4385	0.075	604877	keystroke	l	n/a
302.6035	0.075	605207	keystroke	o	n/a
302.6935	0.06	605387	keystroke	r	n/a
302.9635	0.0595	605927	keystroke	Key.enter	n/a
303.028	7.782	606056	prompt	n/a	tomorrow nationwide ricky mass\n
303.6985	0.06	607397	keystroke	t	n/a
303.8335	0.09	607667	keystroke	o	n/a
303.909	0.0745	607818	keystroke	m	n/a
304.0285	0.075	608057	keystroke	o	n/a
304.1635	0.075	608327	keystroke	o	n/a
304.2535	0.06	608507	keystroke	r	n/a
304.3585	0.09	608717	keystroke	o	n/a
304.449	0.0595	608898	keystroke	w	n/a
304.613	0.06	609226	keystroke	Key.space	n/a
304.988	0.03	609976	keystroke	Key.backspace	n/a
305.108	0.0605	610216	keystroke	Key.backspace	n/a
305.243	0.045	610486	keystroke	Key.backspace	n/a
305.378	0.075	610756	keystroke	Key.backspace	n/a
305.588	0.075	611176	keystroke	Key.backspace	n/a
305.7835	0.06	611567	keystroke	r	n/a
305.9185	0.06	611837	keystroke	r	n/a
305.9935	0.075	611987	keystroke	o	n/a
306.0985	0.105	612197	keystroke	w	n/a
306.2185	0.06	612437	keystroke	Key.space	n/a
307.028	0.0905	614056	keystroke	n	n/a
307.104	0.1045	614208	keystroke	a	n/a
307.2225	0.0465	614445	keystroke	t	n/a
307.2835	0.21	614567	keystroke	i	n/a
307.3435	0.1345	614687	keystroke	o	n/a
307.3885	0.12	614777	keystroke	n	n/a
307.5235	0.0745	615047	keystroke	w	n/a
307.6885	0.06	615377	keystroke	i	n/a
307.7785	0.045	615557	keystroke	d	n/a
307.9285	0.0455	615857	keystroke	e	n/a
308.003	0.105	616006	keystroke	Key.space	n/a
308.603	0.06	617206	keystroke	r	n/a
308.6935	0.0595	617387	keystroke	i	n/a
308.7985	0.0595	617597	keystroke	c	n/a
308.843	0.075	617686	keystroke	k	n/a
309.0385	0.045	618077	keystroke	y	n/a
309.143	0.0755	618286	keystroke	Key.space	n/a
309.9085	0.075	619817	keystroke	m	n/a
309.984	0.0895	619968	keystroke	a	n/a
310.1485	0.075	620297	keystroke	s	n/a
310.2685	0.09	620537	keystroke	s	n/a
310.7475	0.061	621495	keystroke	Key.enter	n/a
310.815	7.7205	621630	prompt	n/a	arthur anyway feeling delaware\n
311.6335	0.15	623267	keystroke	a	n/a
311.7685	0.075	623537	keystroke	r	n/a
311.9485	0.0605	623897	keystroke	t	n/a
312.023	0.0905	624046	keystroke	h	n/a
312.1285	0.075	624257	keystroke	u	n/a
312.2335	0.045	624467	keystroke	r	n/a
312.3235	0.06	624647	keystroke	Key.space	n/a
313.058	0.0605	626116	keystroke	a	n/a
313.133	0.0755	626266	keystroke	n	n/a
313.329	0.059	626658	keystroke	y	n/a
313.418	0.1205	626836	keystroke	w	n/a
313.5535	0.09	627107	keystroke	a	n/a
313.6735	0.06	627347	keystroke	u	n/a
314.2885	0.09	628577	keystroke	Key.backspace	n/a
314.4685	0.0595	628937	keystroke	y	n/a
314.6785	0.06	629357	keystroke	Key.space	n/a
315.3535	0.075	630707	keystroke	f	n/a
315.4885	0.06	630977	keystroke	e	n/a
315.6385	0.09	631277	keystroke	e	n/a
315.714	0.0895	631428	keystroke	l	n/a
315.8785	0.09	631757	keystroke	i	n/a
315.9535	0.09	631907	keystroke	n	n/a
315.9985	0.075	631997	keystroke	g	n/a
316.1035	0.06	632207	keystroke	Key.space	n/a
316.9285	0.06	633857	keystroke	d	n/a
317.1085	0.045	634217	keystroke	e	n/a
317.199	0.0895	634398	keystroke	l	n/a
317.3035	0.0755	634607	keystroke	a	n/a
317.483	0.0605	634966	keystroke	w	n/a
317.6035	0.09	635207	keystroke	a	n/a
317.7085	0.105	635417	keystroke	r	n/a
317.7835	0.0905	635567	keystroke	e	n/a
318.4585	0.075	636917	keystroke	Key.enter	n/a
318.539	7.616	637078	prompt	n/a	february interstate stack kyle\n
319.508	0.0155	639016	keystroke	f	n/a
319.569	0.0745	639138	keystroke	e	n/a
319.868	0.075	639736	keystroke	b	n/a
319.988	0.061	639976	keystroke	r	n/a
320.093	0.0755	640186	keystroke	u	n/a
320.184	0.12	640368	keystroke	a	n/a
320.259	0.06	640518	keystroke	r	n/a
320.3485	0.0755	640697	keystroke	y	n/a
320.483	0.045	640966	keystroke	Key.space	n/a
322.403	0.105	644806	keystroke	i	n/a
322.4635	0.1055	644927	keystroke	n	n/a
322.583	0.076	645166	keystroke	t	n/a
322.644	0.119	645288	keystroke	e	n/a
322.748	0.0905	645496	keystroke	r	n/a
322.898	0.1055	645796	keystroke	s	n/a
323.0185	0.045	646037	keystroke	t	n/a
323.1235	0.09	646247	keystroke	a	n/a
323.1835	0.105	646367	keystroke	t	n/a
323.2435	0.105	646487	keystroke	e	n/a
323.379	0.0745	646758	keystroke	Key.space	n/a
324.144	0.0595	648288	keystroke	s	n/a
324.2335	0.075	648467	keystroke	t	n/a
324.338	0.1205	648676	keystroke	a	n/a
324.4435	0.1045	648887	keystroke	c	n/a
324.563	0.075	649126	keystroke	k	n/a
324.6685	0.075	649337	keystroke	Key.space	n/a
325.178	0.0905	650356	keystroke	k	n/a
325.4035	0.0745	650807	keystroke	y	n/a
325.538	0.1055	651076	keystroke	l	n/a
325.6435	0.06	651287	keystroke	e	n/a
326.1085	0.0445	652217	keystroke	Key.enter	n/a
326.16	6.866	652320	prompt	n/a	warrant helpful amino illinois\n
326.7235	0.09	653447	keystroke	w	n/a
326.8735	0.09	653747	keystroke	a	n/a
326.9785	0.03	653957	keystroke	r	n/a
327.0835	0.09	654167	keystroke	r	n/a
327.1585	0.075	654317	keystroke	a	n/a
327.2485	0.09	654497	keystroke	n	n/a
327.3685	0.0455	654737	keystroke	t	n/a
327.4285	0.075	654857	keystroke	Key.space	n/a
328.3735	0.0455	656747	keystroke	h	n/a
328.4335	0.059	656867	keystroke	e	n/a
328.5385	0.075	657077	keystroke	l	n/a
328.719	0.045	657438	keystroke	p	n/a
328.8075	0.0455	657615	keystroke	f	n/a
328.929	0.059	657858	keystroke	u	n/a
329.019	0.105	658038	keystroke	l	n/a
329.168	0.075	658336	keystroke	Key.space	n/a
330.0085	0.075	660017	keystroke	a	n/a
330.0685	0.1205	660137	keystroke	m	n/a
330.2185	0.105	660437	keystroke	i	n/a
330.3085	0.06	660617	keystroke	n	n/a
330.3985	0.105	660797	keystroke	o	n/a
330.5185	0.059	661037	keystroke	Key.space	n/a
331.314	0.089	662628	keystroke	i	n/a
331.539	0.0595	663078	keystroke	l	n/a
331.658	0.06	663316	keystroke	l	n/a
331.7785	0.0745	663557	keystroke	i	n/a
332.1835	0.045	664367	keystroke	n	n/a
332.3035	0.06	664607	keystroke	o	n/a
332.469	0.06	664938	keystroke	i	n/a
332.559	0.0895	665118	keystroke	s	n/a
332.978	0.045	665956	keystroke	Key.enter	n/a
333.0295	9.0255	666059	prompt	n/a	alot impressed fifteen focuses\n
334.2235	0.06	668447	keystroke	a	n/a
334.2535	0.075	668507	keystroke	l	n/a
334.464	0.0595	668928	keystroke	o	n/a
334.568	0.0605	669136	keystroke	t	n/a
334.6295	0.104	669259	keystroke	Key.space	n/a
335.3485	0.09	670697	keystroke	i	n/a
335.454	0.0595	670908	keystroke	m	n/a
335.619	0.0595	671238	keystroke	p	n/a
335.7235	0.12	671447	keystroke	r	n/a
335.8135	0.09	671627	keystroke	e	n/a
336.0085	0.045	672017	keystroke	s	n/a
336.1285	0.1055	672257	keystroke	s	n/a
336.2635	0.06	672527	keystroke	e	n/a
336.3835	0.09	672767	keystroke	d	n/a
336.5335	0.075	673067	keystroke	Key.space	n/a
337.328	0.046	674656	keystroke	f	n/a
337.434	0.075	674868	keystroke	i	n/a
337.494	0.059	674988	keystroke	f	n/a
337.703	0.061	675406	keystroke	t	n/a
337.914	0.0445	675828	keystroke	e	n/a
338.034	0.0745	676068	keystroke	e	n/a
338.1535	0.09	676307	keystroke	n	n/a
338.2585	0.075	676517	keystroke	Key.space	n/a
338.5735	0.075	677147	keystroke	h	n/a
338.709	0.12	677418	keystroke	o	n/a
338.783	0.075	677566	keystroke	u	n/a
339.098	0.045	678196	keystroke	Key.backspace	n/a
339.218	0.06	678436	keystroke	Key.backspace	n/a
339.369	0.0745	678738	keystroke	Key.backspace	n/a
339.5185	0.075	679037	keystroke	f	n/a
339.6085	0.075	679217	keystroke	o	n/a
339.729	0.0895	679458	keystroke	c	n/a
339.8485	0.0755	679697	keystroke	u	n/a
339.9835	0.135	679967	keystroke	s	n/a
340.0735	0.06	680147	keystroke	e	n/a
340.4035	0.0755	680807	keystroke	s	n/a
341.9935	0.06	683987	keystroke	Key.enter	n/a
342.059	7.181	684118	prompt	n/a	device projects relevance sleeping\n
342.7885	0.0455	685577	keystroke	d	n/a
342.938	0.061	685876	keystroke	e	n/a
343.1185	0.0595	686237	keystroke	v	n/a
343.209	0.074	686418	keystroke	i	n/a
343.298	0.0905	686596	keystroke	c	n/a
343.359	0.0895	686718	keystroke	e	n/a
343.4785	0.06	686957	keystroke	Key.space	n/a
344.348	0.0605	688696	keystroke	p	n/a
344.423	0.06	688846	keystroke	r	n/a
344.5285	0.091	689057	keystroke	o	n/a
344.6045	0.089	689209	keystroke	j	n/a
344.709	0.0895	689418	keystroke	e	n/a
344.7535	0.09	689507	keystroke	c	n/a
344.9785	0.09	689957	keystroke	t	n/a
345.039	0.0895	690078	keystroke	s	n/a
345.1585	0.075	690317	keystroke	Key.space	n/a
345.984	0.1345	691968	keystroke	r	n/a
346.089	0.0595	692178	keystroke	e	n/a
346.1935	0.09	692387	keystroke	l	n/a
346.2685	0.045	692537	keystroke	e	n/a
346.4335	0.09	692867	keystroke	v	n/a
346.5685	0.12	693137	keystroke	a	n/a
346.7785	0.075	693557	keystroke	n	n/a
347.0785	0.12	694157	keystroke	c	n/a
347.1835	0.06	694367	keystroke	e	n/a
347.3035	0.06	694607	keystroke	Key.space	n/a
347.9635	0.09	695927	keystroke	s	n/a
348.069	0.09	696138	keystroke	l	n/a
348.1885	0.045	696377	keystroke	e	n/a
348.3235	0.06	696647	keystroke	e	n/a
348.4435	0.075	696887	keystroke	p	n/a
348.654	0.0745	697308	keystroke	i	n/a
348.6985	0.09	697397	keystroke	n	n/a
348.7735	0.03	697547	keystroke	g	n/a
349.178	0.06	698356	keystroke	Key.enter	n/a
349.2455	6.0995	698491	prompt	n/a	northern watt afterwards information\n
349.9735	0.015	699947	keystroke	n	n/a
350.0035	0.06	700007	keystroke	o	n/a
350.0785	0.06	700157	keystroke	r	n/a
350.229	0.06	700458	keystroke	t	n/a
350.2585	0.0605	700517	keystroke	h	n/a
350.363	0.091	700726	keystroke	e	n/a
350.438	0.075	700876	keystroke	r	n/a
350.528	0.06	701056	keystroke	n	n/a
350.633	0.0605	701266	keystroke	Key.space	n/a
351.114	0.075	702228	keystroke	w	n/a
351.279	0.059	702558	keystroke	a	n/a
351.518	0.0455	703036	keystroke	t	n/a
351.6535	0.045	703307	keystroke	t	n/a
351.7435	0.06	703487	keystroke	Key.space	n/a
352.0285	0.09	704057	keystroke	a	n/a
352.1335	0.075	704267	keystroke	f	n/a
352.3135	0.09	704627	keystroke	t	n/a
352.3885	0.12	704777	keystroke	e	n/a
352.4935	0.105	704987	keystroke	r	n/a
352.6135	0.075	705227	keystroke	w	n/a
352.7635	0.09	705527	keystroke	a	n/a
352.8685	0.075	705737	keystroke	r	n/a
352.9285	0.1345	705857	keystroke	d	n/a
353.0335	0.135	706067	keystroke	s	n/a
353.1835	0.0595	706367	keystroke	Key.space	n/a
353.9035	0.0895	707807	keystroke	i	n/a
353.979	0.074	707958	keystroke	n	n/a
354.083	0.06	708166	keystroke	f	n/a
354.188	0.076	708376	keystroke	o	n/a
354.279	0.0445	708558	keystroke	r	n/a
354.339	0.089	708678	keystroke	m	n/a
354.488	0.105	708976	keystroke	a	n/a
354.578	0.0305	709156	keystroke	t	n/a
354.6235	0.195	709247	keystroke	i	n/a
354.6835	0.12	709367	keystroke	o	n/a
354.7435	0.12	709487	keystroke	n	n/a
355.2985	0.045	710597	keystroke	Key.enter	n/a
355.3495	8.6505	710699	prompt	n/a	attorneys egypt tent ecology\n
356.048	0.06	712096	keystroke	a	n/a
356.1835	0.0595	712367	keystroke	t	n/a
356.318	0.06	712636	keystroke	t	n/a
356.423	0.0755	712846	keystroke	o	n/a
356.5435	0.0595	713087	keystroke	r	n/a
356.708	0.09	713416	keystroke	n	n/a
356.8735	0.06	713747	keystroke	e	n/a
357.0535	0.075	714107	keystroke	y	n/a
357.1735	0.09	714347	keystroke	s	n/a
357.2785	0.075	714557	keystroke	Key.space	n/a
358.074	0.059	716148	keystroke	e	n/a
358.239	0.045	716478	keystroke	g	n/a
358.4185	0.06	716837	keystroke	p	n/a
358.883	0.075	717766	keystroke	Key.backspace	n/a
359.078	0.075	718156	keystroke	u	n/a
359.214	0.089	718428	keystroke	p	n/a
359.6035	0.0745	719207	keystroke	Key.backspace	n/a
359.768	0.0605	719536	keystroke	Key.backspace	n/a
360.3535	0.0145	720707	keystroke	y	n/a
360.5785	0.06	721157	keystroke	p	n/a
360.7135	0.075	721427	keystroke	t	n/a
360.8935	0.06	721787	keystroke	Key.space	n/a
362.004	0.074	724008	keystroke	t	n/a
362.078	0.075	724156	keystroke	e	n/a
362.138	0.09	724276	keystroke	n	n/a
362.243	0.06	724486	keystroke	t	n/a
362.318	0.075	724636	keystroke	Key.space	n/a
362.529	0.059	725058	keystroke	e	n/a
362.693	0.09	725386	keystroke	c	n/a
362.8885	0.0455	725777	keystroke	o	n/a
363.0385	0.06	726077	keystroke	l	n/a
363.2035	0.045	726407	keystroke	o	n/a
363.3535	0.045	726707	keystroke	g	n/a
363.4435	0.06	726887	keystroke	y	n/a
363.938	0.06	727876	keystroke	Key.enter	n/a
364.0045	6.6855	728009	prompt	n/a	stream theorem final isaac\n
364.7035	0.0905	729407	keystroke	s	n/a
364.7785	0.059	729557	keystroke	t	n/a
364.9275	0.136	729855	keystroke	r	n/a
365.0185	0.104	730037	keystroke	e	n/a
365.079	0.105	730158	keystroke	a	n/a
365.184	0.0745	730368	keystroke	m	n/a
365.3035	0.075	730607	keystroke	Key.space	n/a
366.024	0.0445	732048	keystroke	t	n/a
366.1585	0.09	732317	keystroke	h	n/a
366.4735	0.0755	732947	keystroke	e	n/a
366.8185	0.075	733637	keystroke	o	n/a
367.0135	0.06	734027	keystroke	r	n/a
367.3285	0.06	734657	keystroke	e	n/a
367.4035	0.075	734807	keystroke	m	n/a
367.5385	0.075	735077	keystroke	Key.space	n/a
368.079	0.0745	736158	keystroke	f	n/a
368.1835	0.075	736367	keystroke	i	n/a
368.2885	0.105	736577	keystroke	n	n/a
368.4235	0.075	736847	keystroke	a	n/a
368.4685	0.09	736937	keystroke	l	n/a
368.5885	0.0895	737177	keystroke	Key.space	n/a
368.738	0.075	737476	keystroke	i	n/a
369.1135	0.0445	738227	keystroke	s	n/a
369.473	0.0155	738946	keystroke	a	n/a
369.518	0.1045	739036	keystroke	a	n/a
369.773	0.0605	739546	keystroke	c	n/a
370.6135	0.075	741227	keystroke	Key.enter	n/a
370.6945	8.576	741389	prompt	n/a	placing platinum until bundle\n
371.3485	0.0605	742697	keystroke	p	n/a
371.528	0.045	743056	keystroke	l	n/a
371.5885	0.12	743177	keystroke	a	n/a
371.6785	0.0745	743357	keystroke	c	n/a
371.7985	0.09	743597	keystroke	i	n/a
371.858	0.1055	743716	keystroke	n	n/a
371.948	0.0455	743896	keystroke	g	n/a
372.0535	0.0745	744107	keystroke	Key.space	n/a
372.503	0.075	745006	keystroke	o	n/a
373.2835	0.06	746567	keystroke	Key.backspace	n/a
373.8385	0.075	747677	keystroke	p	n/a
374.0335	0.045	748067	keystroke	l	n/a
374.0935	0.075	748187	keystroke	a	n/a
374.2445	0.074	748489	keystroke	t	n/a
374.3635	0.075	748727	keystroke	i	n/a
374.4535	0.12	748907	keystroke	n	n/a
374.9635	0.045	749927	keystroke	u	n/a
375.1735	0.0745	750347	keystroke	m	n/a
375.278	0.075	750556	keystroke	Key.space	n/a
376.1185	0.045	752237	keystroke	u	n/a
376.2685	0.0745	752537	keystroke	n	n/a
376.4035	0.0745	752807	keystroke	t	n/a
376.524	0.0895	753048	keystroke	i	n/a
376.6435	0.1205	753287	keystroke	l	n/a
376.7785	0.105	753557	keystroke	Key.space	n/a
377.0035	0.09	754007	keystroke	b	n/a
377.2135	0.09	754427	keystroke	u	n/a
377.3185	0.1045	754637	keystroke	n	n/a
377.438	0.076	754876	keystroke	d	n/a
377.5735	0.074	755147	keystroke	l	n/a
377.6625	0.031	755325	keystroke	e	n/a
379.208	0.06	758416	keystroke	Key.enter	n/a
379.2745	8.9065	758549	prompt	n/a	contributor projects grown missile\n
379.8535	0.0905	759707	keystroke	c	n/a
379.974	0.0895	759948	keystroke	o	n/a
380.034	0.089	760068	keystroke	n	n/a
380.108	0.0455	760216	keystroke	t	n/a
380.229	0.0745	760458	keystroke	r	n/a
380.2725	0.1205	760545	keystroke	i	n/a
380.5285	0.105	761057	keystroke	b	n/a
380.6185	0.1055	761237	keystroke	u	n/a
380.948	0.06	761896	keystroke	t	n/a
381.068	0.061	762136	keystroke	i	n/a
381.144	0.059	762288	keystroke	r	n/a
381.4885	0.075	762977	keystroke	=	n/a
381.6385	0.06	763277	keystroke	=	n/a
381.923	0.06	763846	keystroke	Key.backspace	n/a
382.088	0.045	764176	keystroke	Key.backspace	n/a
382.193	0.0755	764386	keystroke	Key.backspace	n/a
382.343	0.0905	764686	keystroke	Key.backspace	n/a
382.539	0.074	765078	keystroke	o	n/a
382.628	0.06	765256	keystroke	r	n/a
382.718	0.0745	765436	keystroke	Key.space	n/a
383.484	0.0745	766968	keystroke	p	n/a
383.5735	0.075	767147	keystroke	r	n/a
383.6935	0.075	767387	keystroke	o	n/a
383.7535	0.09	767507	keystroke	j	n/a
383.8285	0.12	767657	keystroke	e	n/a
383.9035	0.09	767807	keystroke	c	n/a
384.1135	0.06	768227	keystroke	t	n/a
384.2035	0.12	768407	keystroke	s	n/a
384.3235	0.059	768647	keystroke	Key.space	n/a
385.0585	0.0595	770117	keystroke	g	n/a
385.208	0.0605	770416	keystroke	r	n/a
385.299	0.0595	770598	keystroke	o	n/a
385.373	0.0755	770746	keystroke	w	n/a
385.463	0.075	770926	keystroke	n	n/a
385.583	0.0905	771166	keystroke	Key.space	n/a
385.839	0.059	771678	keystroke	m	n/a
385.943	0.135	771886	keystroke	i	n/a
386.183	0.135	772366	keystroke	s	n/a
386.393	0.075	772786	keystroke	s	n/a
386.558	0.135	773116	keystroke	i	n/a
386.7225	0.09	773445	keystroke	l	n/a
386.828	0.0755	773656	keystroke	e	n/a
388.1185	0.0595	776237	keystroke	Key.enter	n/a
388.185	9.67	776370	prompt	n/a	thinking searching transcript coaches\n
388.868	0.045	777736	keystroke	t	n/a
388.973	0.121	777946	keystroke	h	n/a
389.184	0.104	778368	keystroke	k	n/a
389.603	0.0605	779206	keystroke	Key.backspace	n/a
389.9935	0.075	779987	keystroke	i	n/a
390.1285	0.09	780257	keystroke	n	n/a
390.2335	0.09	780467	keystroke	k	n/a
390.4285	0.075	780857	keystroke	i	n/a
390.4735	0.0905	780947	keystroke	n	n/a
390.5785	0.0595	781157	keystroke	g	n/a
390.653	0.09	781306	keystroke	Key.space	n/a
390.879	0.0745	781758	keystroke	s	n/a
391.268	0.151	782536	keystroke	e	n/a
391.3885	0.12	782777	keystroke	a	n/a
391.478	0.06	782956	keystroke	r	n/a
391.6435	0.0745	783287	keystroke	c	n/a
391.7335	0.09	783467	keystroke	h	n/a
391.8385	0.12	783677	keystroke	i	n/a
391.9285	0.075	783857	keystroke	n	n/a
391.9885	0.06	783977	keystroke	g	n/a
392.0935	0.09	784187	keystroke	Key.space	n/a
392.7835	0.045	785567	keystroke	t	n/a
392.8885	0.12	785777	keystroke	r	n/a
392.9785	0.1055	785957	keystroke	a	n/a
393.0535	0.12	786107	keystroke	n	n/a
393.2035	0.075	786407	keystroke	s	n/a
393.4285	0.015	786857	keystroke	c	n/a
393.4585	0.06	786917	keystroke	i	n/a
394.5235	0.075	789047	keystroke	Key.backspace	n/a
394.644	0.059	789288	keystroke	r	n/a
394.958	0.105	789916	keystroke	i	n/a
395.2735	0.075	790547	keystroke	p	n/a
395.4685	0.045	790937	keystroke	t	n/a
395.6335	0.045	791267	keystroke	Key.space	n/a
396.309	0.09	792618	keystroke	c	n/a
396.4435	0.06	792887	keystroke	o	n/a
396.5185	0.1205	793037	keystroke	a	n/a
396.624	0.075	793248	keystroke	c	n/a
396.7435	0.0595	793487	keystroke	h	n/a
396.894	0.119	793788	keystroke	e	n/a
396.984	0.105	793968	keystroke	s	n/a
397.7785	0.075	795557	keystroke	Key.enter	n/a
397.8595	6.085	795719	prompt	n/a	calgary designated boats huge\n
398.6485	0.09	797297	keystroke	c	n/a
398.7235	0.075	797447	keystroke	a	n/a
398.8285	0.075	797657	keystroke	l	n/a
399.0685	0.0895	798137	keystroke	g	n/a
399.173	0.12	798346	keystroke	a	n/a
399.278	0.0905	798556	keystroke	r	n/a
399.3985	0.075	798797	keystroke	y	n/a
399.5185	0.09	799037	keystroke	Key.space	n/a
400.1935	0.18	800387	keystroke	d	n/a
400.3875	0.076	800775	keystroke	e	n/a
400.4335	0.1055	800867	keystroke	s	n/a
400.6135	0.105	801227	keystroke	i	n/a
400.793	0.06	801586	keystroke	g	n/a
400.8985	0.09	801797	keystroke	n	n/a
401.1235	0.1055	802247	keystroke	a	n/a
401.1985	0.15	802397	keystroke	t	n/a
401.3035	0.09	802607	keystroke	e	n/a
401.4685	0.09	802937	keystroke	d	n/a
401.6035	0.06	803207	keystroke	Key.space	n/a
402.309	0.059	804618	keystroke	b	n/a
402.428	0.0755	804856	keystroke	o	n/a
402.4735	0.105	804947	keystroke	a	n/a
402.594	0.075	805188	keystroke	t	n/a
402.684	0.1195	805368	keystroke	s	n/a
402.804	0.059	805608	keystroke	Key.space	n/a
403.1935	0.0745	806387	keystroke	h	n/a
403.283	0.0905	806566	keystroke	u	n/a
403.388	0.075	806776	keystroke	g	n/a
403.418	0.106	806836	keystroke	e	n/a
403.913	0.0305	807826	keystroke	Key.enter	n/a
403.948	7.8875	807896	prompt	n/a	exclusively integrate glory agrees\n
404.5735	0.135	809147	keystroke	e	n/a
404.7535	0.045	809507	keystroke	x	n/a
404.9035	0.075	809807	keystroke	c	n/a
405.054	0.1045	810108	keystroke	l	n/a
405.218	0.076	810436	keystroke	u	n/a
405.309	0.09	810618	keystroke	s	n/a
405.458	0.105	810916	keystroke	i	n/a
405.578	0.105	811156	keystroke	v	n/a
405.668	0.0905	811336	keystroke	e	n/a
405.818	0.1055	811636	keystroke	l	n/a
405.968	0.0905	811936	keystroke	y	n/a
406.1035	0.059	812207	keystroke	Key.space	n/a
406.8685	0.105	813737	keystroke	i	n/a
406.958	0.0755	813916	keystroke	n	n/a
407.4685	0.1195	814937	keystroke	t	n/a
407.573	0.1055	815146	keystroke	e	n/a
407.754	0.06	815508	keystroke	g	n/a
407.9035	0.09	815807	keystroke	r	n/a
407.9785	0.105	815957	keystroke	a	n/a
408.0985	0.075	816197	keystroke	t	n/a
408.1435	0.105	816287	keystroke	e	n/a
408.308	0.0605	816616	keystroke	Key.space	n/a
409.193	0.045	818386	keystroke	g	n/a
409.283	0.075	818566	keystroke	l	n/a
409.478	0.09	818956	keystroke	o	n/a
409.5835	0.0755	819167	keystroke	r	n/a
409.6885	0.06	819377	keystroke	y	n/a
409.7635	0.0745	819527	keystroke	Key.space	n/a
410.4835	0.076	820967	keystroke	a	n/a
410.6335	0.06	821267	keystroke	g	n/a
410.7835	0.075	821567	keystroke	r	n/a
410.8885	0.075	821777	keystroke	e	n/a
411.0385	0.075	822077	keystroke	e	n/a
411.2035	0.0905	822407	keystroke	s	n/a
411.7735	0.06	823547	keystroke	Key.enter	n/a
411.84	7.5855	823680	prompt	n/a	operators illustrations toys gloves\n
412.689	0.075	825378	keystroke	o	n/a
412.8535	0.0755	825707	keystroke	p	n/a
412.8835	0.105	825767	keystroke	e	n/a
412.9585	0.0905	825917	keystroke	r	n/a
413.0785	0.1055	826157	keystroke	a	n/a
413.1685	0.06	826337	keystroke	t	n/a
413.2435	0.09	826487	keystroke	o	n/a
413.3485	0.0755	826697	keystroke	r	n/a
413.4685	0.1205	826937	keystroke	s	n/a
413.6185	0.06	827237	keystroke	Key.space	n/a
414.669	0.12	829338	keystroke	i	n/a
414.894	0.06	829788	keystroke	l	n/a
415.029	0.074	830058	keystroke	l	n/a
415.209	0.075	830418	keystroke	u	n/a
415.299	0.089	830598	keystroke	s	n/a
415.434	0.06	830868	keystroke	t	n/a
415.554	0.1345	831108	keystroke	r	n/a
415.6435	0.0895	831287	keystroke	a	n/a
415.734	0.075	831468	keystroke	t	n/a
415.824	0.239	831648	keystroke	i	n/a
415.898	0.136	831796	keystroke	o	n/a
415.974	0.149	831948	keystroke	n	n/a
416.139	0.075	832278	keystroke	s	n/a
416.273	0.09	832546	keystroke	Key.space	n/a
417.1435	0.045	834287	keystroke	t	n/a
417.2035	0.06	834407	keystroke	o	n/a
417.3685	0.045	834737	keystroke	y	n/a
417.4435	0.105	834887	keystroke	s	n/a
417.5635	0.06	835127	keystroke	Key.space	n/a
417.7585	0.06	835517	keystroke	g	n/a
417.8485	0.0605	835697	keystroke	l	n/a
418.2545	0.059	836509	keystroke	o	n/a
418.4335	0.105	836867	keystroke	v	n/a
418.4935	0.1355	836987	keystroke	e	n/a
418.5985	0.0755	837197	keystroke	s	n/a
419.363	0.061	838726	keystroke	Key.enter	n/a
419.429	6.9115	838858	prompt	n/a	flickr farm reply peaceful\n
420.3535	0.09	840707	keystroke	f	n/a
420.4135	0.06	840827	keystroke	l	n/a
420.5785	0.06	841157	keystroke	i	n/a
420.6685	0.09	841337	keystroke	c	n/a
420.8935	0.09	841787	keystroke	k	n/a
421.089	0.0445	842178	keystroke	r	n/a
421.358	0.0755	842716	keystroke	Key.space	n/a
421.7935	0.0905	843587	keystroke	f	n/a
421.9285	0.12	843857	keystroke	a	n/a
422.0335	0.06	844067	keystroke	r	n/a
422.0785	0.075	844157	keystroke	m	n/a
422.1985	0.075	844397	keystroke	Key.space	n/a
423.038	0.09	846076	keystroke	r	n/a
423.083	0.105	846166	keystroke	e	n/a
423.1735	0.0595	846347	keystroke	p	n/a
423.339	0.074	846678	keystroke	l	n/a
423.534	0.059	847068	keystroke	y	n/a
423.638	0.0755	847276	keystroke	Key.space	n/a
424.449	0.1195	848898	keystroke	p	n/a
424.524	0.1045	849048	keystroke	e	n/a
424.5985	0.211	849197	keystroke	a	n/a
425.1085	0.12	850217	keystroke	c	n/a
425.2735	0.075	850547	keystroke	e	n/a
425.5885	0.045	851177	keystroke	f	n/a
425.694	0.1345	851388	keystroke	u	n/a
425.8435	0.105	851687	keystroke	l	n/a
426.278	0.061	852556	keystroke	Key.enter	n/a
426.345	7.271	852690	prompt	n/a	cruz politicians police poland\n
427.1635	0.075	854327	keystroke	c	n/a
427.373	0.0605	854746	keystroke	r	n/a
427.509	0.074	855018	keystroke	u	n/a
427.599	0.0895	855198	keystroke	z	n/a
427.7185	0.0895	855437	keystroke	Key.space	n/a
428.304	0.074	856608	keystroke	p	n/a
428.513	0.076	857026	keystroke	o	n/a
428.6785	0.075	857357	keystroke	l	n/a
428.8585	0.06	857717	keystroke	i	n/a
428.9485	0.075	857897	keystroke	t	n/a
429.0685	0.06	858137	keystroke	i	n/a
429.2335	0.075	858467	keystroke	c	n/a
429.368	0.061	858736	keystroke	i	n/a
429.714	0.0595	859428	keystroke	a	n/a
429.819	0.075	859638	keystroke	n	n/a
429.908	0.076	859816	keystroke	s	n/a
430.013	0.06	860026	keystroke	Key.space	n/a
430.7785	0.1195	861557	keystroke	p	n/a
431.0785	0.0755	862157	keystroke	o	n/a
431.289	0.059	862578	keystroke	l	n/a
431.483	0.045	862966	keystroke	i	n/a
431.574	0.1045	863148	keystroke	c	n/a
431.633	0.09	863266	keystroke	e	n/a
431.738	0.06	863476	keystroke	Key.space	n/a
432.309	0.09	864618	keystroke	p	n/a
432.5635	0.0905	865127	keystroke	o	n/a
432.759	0.0895	865518	keystroke	l	n/a
433.0285	0.075	866057	keystroke	a	n/a
433.1485	0.06	866297	keystroke	n	n/a
433.239	0.0595	866478	keystroke	d	n/a
433.553	0.061	867106	keystroke	Key.enter	n/a
433.6215	9.8195	867243	prompt	n/a	cognitive definitely doll why's\n
434.498	0.046	868996	keystroke	g	n/a
434.978	0.03	869956	keystroke	Key.backspace	n/a
435.158	0.061	870316	keystroke	c	n/a
435.473	0.091	870946	keystroke	o	n/a
435.669	0.059	871338	keystroke	g	n/a
435.879	0.09	871758	keystroke	n	n/a
435.998	0.09	871996	keystroke	i	n/a
436.2385	0.0595	872477	keystroke	t	n/a
436.344	0.044	872688	keystroke	i	n/a
436.434	0.1045	872868	keystroke	v	n/a
436.5535	0.075	873107	keystroke	e	n/a
436.6585	0.06	873317	keystroke	Key.space	n/a
437.154	0.0445	874308	keystroke	d	n/a
437.319	0.0445	874638	keystroke	e	n/a
437.4685	0.09	874937	keystroke	f	n/a
437.649	0.0445	875298	keystroke	i	n/a
437.6635	0.1055	875327	keystroke	n	n/a
437.7985	0.1045	875597	keystroke	i	n/a
437.858	0.09	875716	keystroke	t	n/a
437.9185	0.1055	875837	keystroke	e	n/a
438.038	0.0905	876076	keystroke	l	n/a
438.2335	0.06	876467	keystroke	y	n/a
438.3235	0.075	876647	keystroke	Key.space	n/a
439.089	0.06	878178	keystroke	d	n/a
439.254	0.059	878508	keystroke	o	n/a
439.433	0.0455	878866	keystroke	l	n/a
439.554	0.075	879108	keystroke	l	n/a
439.689	0.089	879378	keystroke	Key.space	n/a
439.808	0.076	879616	keystroke	w	n/a
439.868	0.091	879736	keystroke	h	n/a
440.049	0.059	880098	keystroke	t	n/a
440.064	0.015	880128	keystroke	y	n/a
441.1285	0.09	882257	keystroke	Key.backspace	n/a
441.324	0.0445	882648	keystroke	Key.backspace	n/a
441.639	0.0595	883278	keystroke	y	n/a
442.6285	0.1055	885257	keystroke	'	n/a
442.794	0.06	885588	keystroke	s	n/a
443.363	0.076	886726	keystroke	Key.enter	n/a
443.445	7.3905	886890	prompt	n/a	abroad assess reveals cheats\n
444.189	0.0445	888378	keystroke	a	n/a
444.3535	0.075	888707	keystroke	b	n/a
444.414	0.074	888828	keystroke	r	n/a
444.564	0.059	889128	keystroke	o	n/a
444.6535	0.09	889307	keystroke	a	n/a
444.728	0.0905	889456	keystroke	d	n/a
444.8035	0.09	889607	keystroke	Key.space	n/a
445.6435	0.0755	891287	keystroke	a	n/a
445.794	0.075	891588	keystroke	s	n/a
445.914	0.105	891828	keystroke	s	n/a
446.049	0.075	892098	keystroke	e	n/a
446.199	0.075	892398	keystroke	s	n/a
446.349	0.09	892698	keystroke	s	n/a
446.484	0.074	892968	keystroke	Key.space	n/a
447.264	0.135	894528	keystroke	r	n/a
447.369	0.075	894738	keystroke	e	n/a
447.564	0.03	895128	keystroke	v	n/a
447.624	0.2695	895248	keystroke	e	n/a
447.9085	0.105	895817	keystroke	a	n/a
448.0285	0.075	896057	keystroke	s	n/a
448.1485	0.1355	896297	keystroke	l	n/a
448.553	0.075	897106	keystroke	Key.backspace	n/a
448.703	0.0605	897406	keystroke	Key.backspace	n/a
448.9135	0.09	897827	keystroke	l	n/a
449.033	0.061	898066	keystroke	s	n/a
449.123	0.0755	898246	keystroke	Key.space	n/a
449.874	0.1195	899748	keystroke	c	n/a
449.964	0.0745	899928	keystroke	h	n/a
450.0535	0.0905	900107	keystroke	e	n/a
450.1445	0.089	900289	keystroke	a	n/a
450.2485	0.105	900497	keystroke	t	n/a
450.3385	0.1055	900677	keystroke	s	n/a
450.7585	0.0755	901517	keystroke	Key.enter	n/a
450.8395	7.6605	901679	prompt	n/a	notify television passwords gambling\n
451.734	0.074	903468	keystroke	n	n/a
451.869	0.0745	903738	keystroke	o	n/a
451.959	0.0745	903918	keystroke	t	n/a
452.078	0.061	904156	keystroke	i	n/a
452.154	0.059	904308	keystroke	f	n/a
452.304	0.044	904608	keystroke	y	n/a
452.393	0.06	904786	keystroke	Key.space	n/a
453.084	0.104	906168	keystroke	t	n/a
453.174	0.0745	906348	keystroke	e	n/a
453.278	0.106	906556	keystroke	l	n/a
453.368	0.0605	906736	keystroke	e	n/a
453.549	0.075	907098	keystroke	v	n/a
453.969	0.09	907938	keystroke	i	n/a
454.089	0.075	908178	keystroke	s	n/a
454.194	0.224	908388	keystroke	i	n/a
454.268	0.121	908536	keystroke	o	n/a
454.344	0.12	908688	keystroke	n	n/a
454.433	0.091	908866	keystroke	Key.space	n/a
455.2435	0.0755	910487	keystroke	p	n/a
455.3335	0.0745	910667	keystroke	a	n/a
455.393	0.061	910786	keystroke	s	n/a
455.529	0.059	911058	keystroke	s	n/a
455.694	0.06	911388	keystroke	w	n/a
455.769	0.075	911538	keystroke	o	n/a
455.858	0.121	911716	keystroke	r	n/a
455.964	0.12	911928	keystroke	d	n/a
456.054	0.1195	912108	keystroke	s	n/a
456.2035	0.06	912407	keystroke	Key.space	n/a
456.8335	0.045	913667	keystroke	c	n/a
457.148	0.06	914296	keystroke	Key.backspace	n/a
457.253	0.075	914506	keystroke	g	n/a
457.343	0.09	914686	keystroke	a	n/a
457.448	0.075	914896	keystroke	m	n/a
457.6595	0.0595	915319	keystroke	b	n/a
457.7935	0.0755	915587	keystroke	l	n/a
457.989	0.0745	915978	keystroke	i	n/a
458.0335	0.0605	916067	keystroke	n	n/a
458.1085	0.0605	916217	keystroke	g	n/a
458.4385	0.06	916877	keystroke	Key.enter	n/a
458.5025	8.998	917005	prompt	n/a	compression absolute hoped wrong\n
461.561	0.001	923122	keystroke	c	n/a
461.588	0.1055	923176	keystroke	o	n/a
461.6635	0.0595	923327	keystroke	m	n/a
461.798	0.06	923596	keystroke	p	n/a
461.874	0.089	923748	keystroke	r	n/a
461.949	0.12	923898	keystroke	e	n/a
462.189	0.045	924378	keystroke	s	n/a
462.294	0.074	924588	keystroke	s	n/a
462.429	0.2395	924858	keystroke	i	n/a
462.5185	0.12	925037	keystroke	o	n/a
462.594	0.1045	925188	keystroke	n	n/a
462.6535	0.075	925307	keystroke	Key.space	n/a
463.388	0.0155	926776	keystroke	a	n/a
463.4335	0.0605	926867	keystroke	b	n/a
463.553	0.0755	927106	keystroke	s	n/a
463.658	0.061	927316	keystroke	o	n/a
463.8085	0.045	927617	keystroke	l	n/a
463.9135	0.0745	927827	keystroke	u	n/a
464.019	0.0895	928038	keystroke	t	n/a
464.0785	0.0905	928157	keystroke	e	n/a
464.1835	0.06	928367	keystroke	Key.space	n/a
464.9635	0.015	929927	keystroke	h	n/a
465.024	0.059	930048	keystroke	p	n/a
465.444	0.089	930888	keystroke	Key.backspace	n/a
465.668	0.06	931336	keystroke	o	n/a
465.803	0.091	931606	keystroke	p	n/a
465.9235	0.0605	931847	keystroke	e	n/a
466.1035	0.06	932207	keystroke	d	n/a
466.1935	0.075	932387	keystroke	Key.space	n/a
466.613	0.091	933226	keystroke	w	n/a
466.719	0.059	933438	keystroke	r	n/a
466.8085	0.0905	933617	keystroke	o	n/a
466.8845	0.105	933769	keystroke	n	n/a
467.0045	0.0295	934009	keystroke	g	n/a
467.4235	0.075	934847	keystroke	Key.enter	n/a
467.5055	5.9945	935011	prompt	n/a	immune feeling videos bookmark\n
468.264	0.135	936528	keystroke	i	n/a
468.3685	0.09	936737	keystroke	m	n/a
468.5185	0.09	937037	keystroke	m	n/a
468.7435	0.0455	937487	keystroke	u	n/a
468.8935	0.0755	937787	keystroke	n	n/a
468.9835	0.0605	937967	keystroke	e	n/a
469.088	0.06	938176	keystroke	Key.space	n/a
469.8235	0.0455	939647	keystroke	f	n/a
469.914	0.044	939828	keystroke	e	n/a
470.048	0.06	940096	keystroke	e	n/a
470.184	0.105	940368	keystroke	l	n/a
470.379	0.09	940758	keystroke	i	n/a
470.439	0.0745	940878	keystroke	n	n/a
470.5285	0.06	941057	keystroke	g	n/a
470.6485	0.06	941297	keystroke	Key.space	n/a
470.8285	0.075	941657	keystroke	v	n/a
470.9335	0.0755	941867	keystroke	i	n/a
471.0235	0.045	942047	keystroke	d	n/a
471.1885	0.0455	942377	keystroke	e	n/a
471.2495	0.074	942499	keystroke	o	n/a
471.3535	0.0905	942707	keystroke	s	n/a
471.5185	0.06	943037	keystroke	Key.space	n/a
472.149	0.075	944298	keystroke	b	n/a
472.329	0.0445	944658	keystroke	o	n/a
472.464	0.135	944928	keystroke	o	n/a
472.524	0.12	945048	keystroke	k	n/a
472.764	0.0895	945528	keystroke	m	n/a
472.8985	0.0905	945797	keystroke	a	n/a
473.003	0.076	946006	keystroke	r	n/a
473.0935	0.0755	946187	keystroke	k	n/a
473.439	0.06	946878	keystroke	Key.enter	n/a
473.51	9.065	947020	prompt	n/a	dept movie accurate its\n
475.3285	0.076	950657	keystroke	d	n/a
475.5385	0.045	951077	keystroke	e	n/a
475.704	0.075	951408	keystroke	p	n/a
475.824	0.045	951648	keystroke	t	n/a
475.9735	0.0595	951947	keystroke	Key.space	n/a
476.6935	0.09	953387	keystroke	m	n/a
476.8435	0.06	953687	keystroke	o	n/a
476.9185	0.0905	953837	keystroke	v	n/a
477.069	0.075	954138	keystroke	i	n/a
477.129	0.09	954258	keystroke	e	n/a
477.294	0.06	954588	keystroke	Key.space	n/a
478.104	0.09	956208	keystroke	a	n/a
478.269	0.09	956538	keystroke	c	n/a
478.4185	0.076	956837	keystroke	c	n/a
478.5385	0.0745	957077	keystroke	u	n/a
478.629	0.045	957258	keystroke	r	n/a
478.8685	0.1205	957737	keystroke	a	n/a
478.989	0.09	957978	keystroke	t	n/a
479.049	0.0895	958098	keystroke	e	n/a
480.5635	0.0755	961127	keystroke	Key.space	n/a
481.1185	0.0605	962237	keystroke	i	n/a
481.164	0.09	962328	keystroke	t	n/a
481.269	0.09	962538	keystroke	s	n/a
482.514	0.06	965028	keystroke	Key.enter	n/a
482.579	7.049	965158	prompt	n/a	cooper enclosed note chicken\n
483.174	0.075	966348	keystroke	c	n/a
483.278	0.061	966556	keystroke	o	n/a
483.429	0.06	966858	keystroke	o	n/a
483.594	0.06	967188	keystroke	p	n/a
483.609	0.03	967218	keystroke	o	n/a
483.7145	0.0895	967429	keystroke	e	n/a
483.774	0.09	967548	keystroke	r	n/a
484.104	0.06	968208	keystroke	Key.backspace	n/a
484.239	0.06	968478	keystroke	Key.backspace	n/a
484.374	0.075	968748	keystroke	Key.backspace	n/a
484.509	0.09	969018	keystroke	e	n/a
484.569	0.075	969138	keystroke	r	n/a
484.659	0.06	969318	keystroke	Key.space	n/a
485.364	0.0895	970728	keystroke	c	n/a
485.8135	0.045	971627	keystroke	Key.backspace	n/a
485.8895	0.0745	971779	keystroke	e	n/a
486.0085	0.075	972017	keystroke	n	n/a
486.1135	0.061	972227	keystroke	c	n/a
486.3685	0.06	972737	keystroke	l	n/a
486.609	0.0745	973218	keystroke	o	n/a
486.6685	0.12	973337	keystroke	s	n/a
486.7585	0.0605	973517	keystroke	e	n/a
486.894	0.09	973788	keystroke	d	n/a
487.014	0.075	974028	keystroke	Key.space	n/a
487.749	0.045	975498	keystroke	n	n/a
487.824	0.09	975648	keystroke	o	n/a
487.8835	0.12	975767	keystroke	t	n/a
487.974	0.0895	975948	keystroke	e	n/a
488.079	0.0745	976158	keystroke	Key.space	n/a
488.4385	0.075	976877	keystroke	c	n/a
488.5285	0.0905	977057	keystroke	h	n/a
488.664	0.045	977328	keystroke	i	n/a
488.739	0.089	977478	keystroke	c	n/a
488.844	0.075	977688	keystroke	k	n/a
488.949	0.075	977898	keystroke	e	n/a
489.054	0.075	978108	keystroke	n	n/a
489.5485	0.075	979097	keystroke	Key.enter	n/a
489.628	13.8725	979256	prompt	n/a	pakistan ceremony instantly drawings\n
490.644	0.06	981288	keystroke	[	n/a
490.898	0.075	981796	keystroke	a	n/a
491.004	0.075	982008	keystroke	k	n/a
491.183	0.075	982366	keystroke	i	n/a
491.259	0.09	982518	keystroke	s	n/a
491.663	0.06	983326	keystroke	Key.backspace	n/a
491.798	0.045	983596	keystroke	Key.backspace	n/a
491.918	0.06	983836	keystroke	Key.backspace	n/a
492.068	0.045	984136	keystroke	Key.backspace	n/a
492.188	0.046	984376	keystroke	Key.backspace	n/a
492.308	0.076	984616	keystroke	Key.backspace	n/a
493.2385	0.045	986477	keystroke	p	n/a
493.854	0.06	987708	keystroke	a	n/a
494.078	0.046	988156	keystroke	k	n/a
494.259	0.0595	988518	keystroke	i	n/a
494.3945	0.1345	988789	keystroke	s	n/a
494.5735	0.0605	989147	keystroke	t	n/a
494.7085	0.1055	989417	keystroke	r	n/a
494.828	0.061	989656	keystroke	a	n/a
494.979	0.089	989958	keystroke	n	n/a
495.443	0.0605	990886	keystroke	Key.backspace	n/a
495.563	0.06	991126	keystroke	Key.backspace	n/a
495.713	0.0755	991426	keystroke	Key.backspace	n/a
495.834	0.075	991668	keystroke	a	n/a
495.924	0.0895	991848	keystroke	n	n/a
496.029	0.074	992058	keystroke	Key.space	n/a
497.139	0.12	994278	keystroke	c	n/a
497.244	0.075	994488	keystroke	e	n/a
497.409	0.135	994818	keystroke	r	n/a
497.5285	0.075	995057	keystroke	e	n/a
497.7685	0.09	995537	keystroke	m	n/a
498.054	0.075	996108	keystroke	o	n/a
498.189	0.075	996378	keystroke	n	n/a
498.399	0.045	996798	keystroke	y	n/a
498.399	0.06	996798	keystroke	t	n/a
498.503	0.075	997006	keystroke	Key.space	n/a
498.969	0.03	997938	keystroke	Key.backspace	n/a
499.089	0.06	998178	keystroke	Key.backspace	n/a
499.224	0.06	998448	keystroke	Key.backspace	n/a
499.45	0.059	998900	keystroke	y	n/a
499.614	0.045	999228	keystroke	Key.space	n/a
500.349	0.09	1000698	keystroke	i	n/a
500.424	0.075	1000848	keystroke	n	n/a
500.514	0.06	1001028	keystroke	s	n/a
500.588	0.0605	1001176	keystroke	t	n/a
500.6785	0.0605	1001357	keystroke	a	n/a
500.724	0.09	1001448	keystroke	n	n/a
500.844	0.075	1001688	keystroke	t	n/a
500.964	0.09	1001928	keystroke	l	n/a
501.249	0.015	1002498	keystroke	y	n/a
501.294	0.06	1002588	keystroke	Key.space	n/a
502.0585	0.076	1004117	keystroke	d	n/a
502.209	0.1045	1004418	keystroke	r	n/a
502.299	0.0595	1004598	keystroke	a	n/a
502.419	0.1045	1004838	keystroke	w	n/a
502.614	0.12	1005228	keystroke	i	n/a
502.674	0.105	1005348	keystroke	n	n/a
502.823	0.061	1005646	keystroke	g	n/a
502.899	0.1055	1005798	keystroke	s	n/a
503.4385	0.0605	1006877	keystroke	Key.enter	n/a
503.5055	10.0455	1007011	prompt	n/a	paid possibility if endorsed\n
504.324	0.029	1008648	keystroke	p	n/a
504.428	0.075	1008856	keystroke	a	n/a
504.594	0.06	1009188	keystroke	i	n/a
504.6835	0.045	1009367	keystroke	d	n/a
504.7885	0.06	1009577	keystroke	Key.space	n/a
505.4185	0.0755	1010837	keystroke	p	n/a
505.599	0.0895	1011198	keystroke	o	n/a
505.7035	0.075	1011407	keystroke	s	n/a
505.8535	0.061	1011707	keystroke	s	n/a
505.9595	0.104	1011919	keystroke	i	n/a
506.3345	0.1045	1012669	keystroke	b	n/a
506.499	0.075	1012998	keystroke	i	n/a
506.889	0.0595	1013778	keystroke	i	n/a
507.519	0.0295	1015038	keystroke	=	n/a
508.343	0.0605	1016686	keystroke	Key.backspace	n/a
508.4785	0.0595	1016957	keystroke	Key.backspace	n/a
509.049	0.075	1018098	keystroke	l	n/a
509.3035	0.0755	1018607	keystroke	i	n/a
509.484	0.075	1018968	keystroke	t	n/a
509.649	0.09	1019298	keystroke	y	n/a
509.889	0.06	1019778	keystroke	Key.space	n/a
510.834	0.045	1021668	keystroke	i	n/a
510.9235	0.0455	1021847	keystroke	f	n/a
510.983	0.076	1021966	keystroke	Key.space	n/a
511.1635	0.06	1022327	keystroke	e	n/a
511.2385	0.09	1022477	keystroke	n	n/a
511.3435	0.09	1022687	keystroke	d	n/a
511.479	0.075	1022958	keystroke	o	n/a
511.584	0.09	1023168	keystroke	r	n/a
511.914	0.1195	1023828	keystroke	s	n/a
512.0035	0.076	1024007	keystroke	e	n/a
512.1835	0.06	1024367	keystroke	d	n/a
513.5035	0.0455	1027007	keystroke	Key.enter	n/a
513.5545	5.487	1027109	prompt	n/a	oman combination verbal posted\n
514.314	0.0905	1028628	keystroke	o	n/a
514.449	0.105	1028898	keystroke	m	n/a
514.5685	0.0605	1029137	keystroke	a	n/a
514.659	0.074	1029318	keystroke	n	n/a
514.718	0.09	1029436	keystroke	Key.space	n/a
514.958	0.09	1029916	keystroke	c	n/a
515.034	0.105	1030068	keystroke	o	n/a
515.0785	0.0905	1030157	keystroke	m	n/a
515.289	0.045	1030578	keystroke	b	n/a
515.394	0.1355	1030788	keystroke	i	n/a
515.454	0.105	1030908	keystroke	n	n/a
515.53	0.134	1031060	keystroke	a	n/a
515.649	0.075	1031298	keystroke	t	n/a
515.739	0.194	1031478	keystroke	i	n/a
515.7835	0.1205	1031567	keystroke	o	n/a
515.8135	0.1505	1031627	keystroke	n	n/a
515.8885	0.1045	1031777	keystroke	Key.space	n/a
516.758	0.06	1033516	keystroke	v	n/a
516.879	0.105	1033758	keystroke	e	n/a
516.939	0.075	1033878	keystroke	r	n/a
517.0435	0.0755	1034087	keystroke	b	n/a
517.133	0.091	1034266	keystroke	a	n/a
517.269	0.045	1034538	keystroke	l	n/a
517.374	0.089	1034748	keystroke	Key.space	n/a
518.064	0.075	1036128	keystroke	p	n/a
518.244	0.075	1036488	keystroke	o	n/a
518.304	0.075	1036608	keystroke	s	n/a
518.394	0.09	1036788	keystroke	t	n/a
518.469	0.074	1036938	keystroke	e	n/a
518.619	0.0905	1037238	keystroke	d	n/a
518.9785	0.0605	1037957	keystroke	Key.enter	n/a
519.053	5.1325	1038106	prompt	n/a	contents default models stolen\n
519.654	0.09	1039308	keystroke	c	n/a
519.729	0.1195	1039458	keystroke	o	n/a
519.833	0.076	1039666	keystroke	n	n/a
519.924	0.09	1039848	keystroke	t	n/a
519.998	0.061	1039996	keystroke	e	n/a
520.089	0.105	1040178	keystroke	n	n/a
520.269	0.06	1040538	keystroke	t	n/a
520.314	0.105	1040628	keystroke	s	n/a
520.4335	0.0745	1040867	keystroke	Key.space	n/a
520.8535	0.0445	1041707	keystroke	d	n/a
520.989	0.075	1041978	keystroke	e	n/a
521.124	0.1055	1042248	keystroke	f	n/a
521.214	0.075	1042428	keystroke	a	n/a
521.274	0.1205	1042548	keystroke	u	n/a
521.409	0.09	1042818	keystroke	l	n/a
521.5145	0.0595	1043029	keystroke	t	n/a
521.604	0.089	1043208	keystroke	Key.space	n/a
521.844	0.0905	1043688	keystroke	m	n/a
521.9485	0.0755	1043897	keystroke	o	n/a
522.0085	0.0605	1044017	keystroke	d	n/a
522.158	0.076	1044316	keystroke	e	n/a
522.2485	0.076	1044497	keystroke	l	n/a
522.369	0.06	1044738	keystroke	s	n/a
522.443	0.061	1044886	keystroke	Key.space	n/a
523.029	0.044	1046058	keystroke	s	n/a
523.238	0.046	1046476	keystroke	t	n/a
523.419	0.09	1046838	keystroke	o	n/a
523.659	0.075	1047318	keystroke	l	n/a
523.749	0.045	1047498	keystroke	e	n/a
523.854	0.06	1047708	keystroke	n	n/a
524.124	0.06	1048248	keystroke	Key.enter	n/a
524.192	6.744	1048384	prompt	n/a	tunnel arnold sponsored reserves\n
524.889	0.0895	1049778	keystroke	t	n/a
524.9935	0.0155	1049987	keystroke	u	n/a
525.0235	0.015	1050047	keystroke	n	n/a
525.0835	0.09	1050167	keystroke	n	n/a
525.1885	0.075	1050377	keystroke	e	n/a
525.324	0.0595	1050648	keystroke	l	n/a
525.4585	0.09	1050917	keystroke	Key.space	n/a
525.5495	0.1045	1051099	keystroke	a	n/a
525.6385	0.06	1051277	keystroke	r	n/a
525.7285	0.075	1051457	keystroke	n	n/a
525.8485	0.0755	1051697	keystroke	o	n/a
525.9985	0.075	1051997	keystroke	l	n/a
526.1185	0.06	1052237	keystroke	d	n/a
526.1935	0.09	1052387	keystroke	Key.space	n/a
526.524	0.06	1053048	keystroke	s	n/a
526.614	0.0595	1053228	keystroke	o	n/a
527.0185	0.0455	1054037	keystroke	Key.backspace	n/a
527.4685	0.0755	1054937	keystroke	p	n/a
527.844	0.1345	1055688	keystroke	o	n/a
527.9485	0.1055	1055897	keystroke	n	n/a
528.129	0.075	1056258	keystroke	s	n/a
528.309	0.06	1056618	keystroke	o	n/a
528.3985	0.1055	1056797	keystroke	r	n/a
528.5485	0.09	1057097	keystroke	e	n/a
528.7135	0.075	1057427	keystroke	d	n/a
528.804	0.0895	1057608	keystroke	Key.space	n/a
529.299	0.1495	1058598	keystroke	r	n/a
529.4185	0.135	1058837	keystroke	e	n/a
529.569	0.1345	1059138	keystroke	s	n/a
529.6585	0.165	1059317	keystroke	e	n/a
529.7935	0.09	1059587	keystroke	r	n/a
530.049	0.045	1060098	keystroke	v	n/a
530.1085	0.06	1060217	keystroke	e	n/a
530.229	0.075	1060458	keystroke	s	n/a
530.874	0.06	1061748	keystroke	Key.enter	n/a
530.94	4.99	1061880	prompt	n/a	provide kind torture surge\n
531.6995	0.059	1063399	keystroke	p	n/a
531.774	0.0595	1063548	keystroke	r	n/a
531.909	0.0295	1063818	keystroke	o	n/a
531.9685	0.06	1063937	keystroke	v	n/a
532.0745	0.0595	1064149	keystroke	i	n/a
532.1785	0.0305	1064357	keystroke	d	n/a
532.299	0.06	1064598	keystroke	e	n/a
532.4035	0.075	1064807	keystroke	Key.space	n/a
532.7185	0.06	1065437	keystroke	k	n/a
532.884	0.075	1065768	keystroke	i	n/a
532.944	0.06	1065888	keystroke	n	n/a
533.018	0.076	1066036	keystroke	d	n/a
533.123	0.0605	1066246	keystroke	Key.space	n/a
533.814	0.045	1067628	keystroke	t	n/a
533.9185	0.0745	1067837	keystroke	o	n/a
534.0085	0.0595	1068017	keystroke	r	n/a
534.264	0.059	1068528	keystroke	t	n/a
534.338	0.075	1068676	keystroke	u	n/a
534.4285	0.0895	1068857	keystroke	r	n/a
534.504	0.09	1069008	keystroke	e	n/a
534.578	0.0755	1069156	keystroke	Key.space	n/a
535.224	0.09	1070448	keystroke	s	n/a
535.389	0.0895	1070778	keystroke	u	n/a
535.4635	0.045	1070927	keystroke	r	n/a
535.6285	0.06	1071257	keystroke	g	n/a
535.6735	0.0755	1071347	keystroke	e	n/a
535.854	0.0745	1071708	keystroke	Key.enter	n/a
535.933	4.2275	1071866	prompt	n/a	noticed sitting invite many\n
536.619	0.0745	1073238	keystroke	n	n/a
536.724	0.0895	1073448	keystroke	o	n/a
536.829	0.045	1073658	keystroke	t	n/a
536.934	0.06	1073868	keystroke	i	n/a
536.979	0.1045	1073958	keystroke	c	n/a
537.039	0.0895	1074078	keystroke	e	n/a
537.2335	0.075	1074467	keystroke	d	n/a
537.3385	0.075	1074677	keystroke	Key.space	n/a
537.474	0.075	1074948	keystroke	s	n/a
537.6085	0.075	1075217	keystroke	i	n/a
537.729	0.0445	1075458	keystroke	t	n/a
537.849	0.0745	1075698	keystroke	t	n/a
537.939	0.09	1075878	keystroke	i	n/a
537.9985	0.1055	1075997	keystroke	n	n/a
538.074	0.045	1076148	keystroke	g	n/a
538.209	0.06	1076418	keystroke	Key.space	n/a
538.5685	0.1055	1077137	keystroke	i	n/a
538.659	0.0745	1077318	keystroke	n	n/a
538.7345	0.06	1077469	keystroke	v	n/a
538.854	0.059	1077708	keystroke	i	n/a
538.929	0.074	1077858	keystroke	t	n/a
538.9895	0.1035	1077979	keystroke	e	n/a
539.108	0.0605	1078216	keystroke	Key.space	n/a
539.409	0.075	1078818	keystroke	m	n/a
539.499	0.06	1078998	keystroke	a	n/a
539.589	0.0595	1079178	keystroke	n	n/a
539.7535	0.0455	1079507	keystroke	y	n/a
540.099	0.059	1080198	keystroke	Key.enter	n/a
540.165	8.1405	1080330	prompt	n/a	polymer harvest trek cottage\n
540.8485	0.0455	1081697	keystroke	p	n/a
541.044	0.075	1082088	keystroke	o	n/a
541.313	0.076	1082626	keystroke	u	n/a
541.749	0.03	1083498	keystroke	Key.backspace	n/a
541.988	0.061	1083976	keystroke	l	n/a
542.198	0.061	1084396	keystroke	y	n/a
542.4985	0.06	1084997	keystroke	m	n/a
542.5885	0.1205	1085177	keystroke	e	n/a
542.6635	0.075	1085327	keystroke	r	n/a
542.7535	0.06	1085507	keystroke	Key.space	n/a
543.474	0.0755	1086948	keystroke	h	n/a
543.5495	0.074	1087099	keystroke	a	n/a
543.6245	0.0445	1087249	keystroke	r	n/a
543.789	0.075	1087578	keystroke	v	n/a
543.849	0.21	1087698	keystroke	e	n/a
543.984	0.12	1087968	keystroke	s	n/a
544.059	0.06	1088118	keystroke	t	n/a
544.134	0.075	1088268	keystroke	Key.space	n/a
544.8985	0.1505	1089797	keystroke	t	n/a
545.019	0.21	1090038	keystroke	e	n/a
545.034	0.1195	1090068	keystroke	r	n/a
545.1385	0.0755	1090277	keystroke	k	n/a
545.333	0.076	1090666	keystroke	Key.space	n/a
545.6185	0.0455	1091237	keystroke	Key.backspace	n/a
545.7385	0.0605	1091477	keystroke	Key.backspace	n/a
545.8585	0.075	1091717	keystroke	Key.backspace	n/a
546.024	0.0445	1092048	keystroke	Key.backspace	n/a
546.0835	0.091	1092167	keystroke	r	n/a
546.1435	0.121	1092287	keystroke	e	n/a
546.2195	0.059	1092439	keystroke	k	n/a
546.2935	0.075	1092587	keystroke	Key.space	n/a
546.9835	0.0905	1093967	keystroke	c	n/a
547.2385	0.06	1094477	keystroke	o	n/a
547.329	0.06	1094658	keystroke	t	n/a
547.464	0.075	1094928	keystroke	t	n/a
547.598	0.076	1095196	keystroke	a	n/a
547.688	0.076	1095376	keystroke	g	n/a
547.749	0.0895	1095498	keystroke	e	n/a
548.229	0.075	1096458	keystroke	Key.enter	n/a
548.3105	6.535	1096621	prompt	n/a	boundary karma truly robust\n
549.0835	0.0605	1098167	keystroke	b	n/a
549.2485	0.0905	1098497	keystroke	o	n/a
549.2935	0.0755	1098587	keystroke	u	n/a
549.459	0.09	1098918	keystroke	n	n/a
549.534	0.0895	1099068	keystroke	d	n/a
549.6085	0.075	1099217	keystroke	a	n/a
549.7735	0.075	1099547	keystroke	r	n/a
549.8635	0.0755	1099727	keystroke	y	n/a
549.999	0.0745	1099998	keystroke	Key.space	n/a
550.6435	0.075	1101287	keystroke	k	n/a
550.7335	0.0905	1101467	keystroke	a	n/a
550.839	0.0445	1101678	keystroke	r	n/a
550.929	0.0745	1101858	keystroke	m	n/a
551.1245	0.0595	1102249	keystroke	a	n/a
551.199	0.0745	1102398	keystroke	Key.space	n/a
552.4135	0.0605	1104827	keystroke	t	n/a
552.549	0.059	1105098	keystroke	r	n/a
552.653	0.121	1105306	keystroke	u	n/a
552.7895	0.0885	1105579	keystroke	l	n/a
552.939	0.075	1105878	keystroke	y	n/a
553.058	0.06	1106116	keystroke	Key.space	n/a
553.869	0.075	1107738	keystroke	r	n/a
553.974	0.09	1107948	keystroke	o	n/a
554.169	0.06	1108338	keystroke	b	n/a
554.289	0.045	1108578	keystroke	u	n/a
554.363	0.121	1108726	keystroke	s	n/a
554.439	0.06	1108878	keystroke	t	n/a
554.799	0.045	1109598	keystroke	Key.enter	n/a
554.8495	10.7505	1109699	prompt	n/a	acting operation resident cycles\n
555.504	0.12	1111008	keystroke	a	n/a
555.714	0.06	1111428	keystroke	c	n/a
555.879	0.045	1111758	keystroke	t	n/a
555.969	0.075	1111938	keystroke	i	n/a
556.029	0.075	1112058	keystroke	n	n/a
556.104	0.045	1112208	keystroke	g	n/a
556.2385	0.045	1112477	keystroke	Key.space	n/a
556.8235	0.06	1113647	keystroke	o	n/a
556.9895	0.0895	1113979	keystroke	p	n/a
557.1235	0.0305	1114247	keystroke	e	n/a
557.1385	0.06	1114277	keystroke	r	n/a
557.2135	0.12	1114427	keystroke	a	n/a
557.3035	0.06	1114607	keystroke	t	n/a
557.379	0.18	1114758	keystroke	i	n/a
557.439	0.105	1114878	keystroke	o	n/a
557.469	0.1195	1114938	keystroke	n	n/a
557.5735	0.075	1115147	keystroke	Key.space	n/a
558.383	0.12	1116766	keystroke	r	n/a
558.474	0.09	1116948	keystroke	e	n/a
558.6085	0.105	1117217	keystroke	s	n/a
558.7435	0.06	1117487	keystroke	i	n/a
558.8335	0.0755	1117667	keystroke	d	n/a
558.984	0.1055	1117968	keystroke	n	n/a
559.3585	0.06	1118717	keystroke	t	n/a
559.6435	0.06	1119287	keystroke	Key.backspace	n/a
559.7635	0.0605	1119527	keystroke	Key.backspace	n/a
559.8535	0.075	1119707	keystroke	e	n/a
559.9585	0.0905	1119917	keystroke	n	n/a
560.034	0.06	1120068	keystroke	t	n/a
560.139	0.06	1120278	keystroke	Key.space	n/a
560.8585	0.0755	1121717	keystroke	c	n/a
561.0235	0.0755	1122047	keystroke	u	n/a
561.0385	0.045	1122077	keystroke	y	n/a
561.114	0.075	1122228	keystroke	c	n/a
561.504	0.029	1123008	keystroke	Key.backspace	n/a
561.6235	0.0605	1123247	keystroke	Key.backspace	n/a
561.7585	0.0905	1123517	keystroke	Key.backspace	n/a
561.939	0.09	1123878	keystroke	c	n/a
562.044	0.06	1124088	keystroke	y	n/a
562.194	0.09	1124388	keystroke	l	n/a
562.299	0.06	1124598	keystroke	e	n/a
562.6585	0.0305	1125317	keystroke	Key.backspace	n/a
562.794	0.045	1125588	keystroke	Key.backspace	n/a
562.928	0.061	1125856	keystroke	Key.backspace	n/a
563.0485	0.09	1126097	keystroke	Key.backspace	n/a
563.154	0.0595	1126308	keystroke	c	n/a
563.2595	0.0595	1126519	keystroke	y	n/a
563.6635	0.045	1127327	keystroke	Key.backspace	n/a
563.7835	0.075	1127567	keystroke	Key.backspace	n/a
563.9195	0.074	1127839	keystroke	y	n/a
563.9945	0.0595	1127989	keystroke	c	n/a
564.1435	0.061	1128287	keystroke	l	n/a
564.2345	0.12	1128469	keystroke	e	n/a
564.3245	0.104	1128649	keystroke	s	n/a
565.554	0.045	1131108	keystroke	Key.enter	n/a
565.6035	8.9375	1131207	prompt	n/a	hilton varieties choosing thesaurus\n
566.4985	0.1505	1132997	keystroke	h	n/a
566.664	0.09	1133328	keystroke	i	n/a
566.799	0.0895	1133598	keystroke	l	n/a
566.9335	0.045	1133867	keystroke	t	n/a
567.0095	0.1045	1134019	keystroke	o	n/a
567.084	0.075	1134168	keystroke	n	n/a
567.174	0.06	1134348	keystroke	Key.space	n/a
567.864	0.0755	1135728	keystroke	v	n/a
567.954	0.1195	1135908	keystroke	a	n/a
568.029	0.0895	1136058	keystroke	r	n/a
568.1335	0.06	1136267	keystroke	i	n/a
568.494	0.06	1136988	keystroke	t	n/a
569.094	0.06	1138188	keystroke	Key.backspace	n/a
569.184	0.0755	1138368	keystroke	e	n/a
569.334	0.06	1138668	keystroke	t	n/a
569.349	0.075	1138698	keystroke	i	n/a
569.544	0.1345	1139088	keystroke	e	n/a
569.6335	0.135	1139267	keystroke	s	n/a
569.7985	0.0755	1139597	keystroke	Key.space	n/a
570.5345	0.0745	1141069	keystroke	c	n/a
570.624	0.045	1141248	keystroke	h	n/a
570.729	0.06	1141458	keystroke	o	n/a
570.849	0.0895	1141698	keystroke	o	n/a
570.954	0.0745	1141908	keystroke	s	n/a
571.134	0.0745	1142268	keystroke	i	n/a
571.1785	0.0745	1142357	keystroke	n	n/a
571.239	0.0445	1142478	keystroke	g	n/a
571.493	0.045	1142986	keystroke	Key.space	n/a
572.124	0.0445	1144248	keystroke	t	n/a
572.1835	0.045	1144367	keystroke	h	n/a
572.244	0.0605	1144488	keystroke	e	n/a
572.4095	0.059	1144819	keystroke	s	n/a
572.769	0.0895	1145538	keystroke	a	n/a
572.9335	0.075	1145867	keystroke	u	n/a
573.069	0.06	1146138	keystroke	r	n/a
573.3385	0.075	1146677	keystroke	s	n/a
573.744	0.0595	1147488	keystroke	Key.backspace	n/a
573.8635	0.0755	1147727	keystroke	u	n/a
573.954	0.075	1147908	keystroke	s	n/a
574.464	0.075	1148928	keystroke	Key.enter	n/a
574.5455	6.52	1149091	prompt	n/a	marcus ronald methods watches\n
575.139	0.1055	1150278	keystroke	m	n/a
575.229	0.06	1150458	keystroke	a	n/a
575.259	0.075	1150518	keystroke	r	n/a
575.439	0.075	1150878	keystroke	c	n/a
575.529	0.075	1151058	keystroke	u	n/a
575.709	0.06	1151418	keystroke	s	n/a
575.844	0.075	1151688	keystroke	Key.space	n/a
576.4145	0.045	1152829	keystroke	r	n/a
576.4745	0.089	1152949	keystroke	n	n/a
576.5945	0.0895	1153189	keystroke	o	n/a
577.134	0.03	1154268	keystroke	Key.backspace	n/a
577.238	0.076	1154476	keystroke	Key.backspace	n/a
577.4195	0.0895	1154839	keystroke	o	n/a
577.449	0.09	1154898	keystroke	n	n/a
577.554	0.06	1155108	keystroke	a	n/a
577.689	0.06	1155378	keystroke	l	n/a
577.779	0.0595	1155558	keystroke	d	n/a
577.8535	0.075	1155707	keystroke	Key.space	n/a
578.754	0.075	1157508	keystroke	m	n/a
578.814	0.06	1157628	keystroke	e	n/a
578.919	0.075	1157838	keystroke	t	n/a
578.979	0.06	1157958	keystroke	h	n/a
579.069	0.0895	1158138	keystroke	o	n/a
579.1895	0.104	1158379	keystroke	d	n/a
579.2785	0.1045	1158557	keystroke	s	n/a
579.399	0.06	1158798	keystroke	Key.space	n/a
579.999	0.105	1159998	keystroke	w	n/a
580.119	0.105	1160238	keystroke	a	n/a
580.209	0.045	1160418	keystroke	t	n/a
580.374	0.074	1160748	keystroke	c	n/a
580.404	0.075	1160808	keystroke	h	n/a
580.508	0.135	1161016	keystroke	e	n/a
580.584	0.1045	1161168	keystroke	s	n/a
581.0035	0.06	1162007	keystroke	Key.enter	n/a
581.0695	6.821	1162139	prompt	n/a	arguments growing water handbook\n
581.679	0.105	1163358	keystroke	a	n/a
581.8135	0.091	1163627	keystroke	r	n/a
582.084	0.06	1164168	keystroke	g	n/a
582.234	0.0745	1164468	keystroke	u	n/a
582.4445	0.0595	1164889	keystroke	m	n/a
582.488	0.075	1164976	keystroke	e	n/a
582.609	0.075	1165218	keystroke	n	n/a
582.669	0.06	1165338	keystroke	t	n/a
582.804	0.12	1165608	keystroke	s	n/a
582.909	0.074	1165818	keystroke	Key.space	n/a
583.253	0.076	1166506	keystroke	g	n/a
583.404	0.09	1166808	keystroke	r	n/a
583.524	0.075	1167048	keystroke	o	n/a
583.614	0.0755	1167228	keystroke	w	n/a
583.749	0.09	1167498	keystroke	i	n/a
583.809	0.09	1167618	keystroke	n	n/a
583.884	0.06	1167768	keystroke	g	n/a
583.974	0.075	1167948	keystroke	Key.space	n/a
584.918	0.016	1169836	keystroke	w	n/a
584.949	0.075	1169898	keystroke	a	n/a
585.039	0.12	1170078	keystroke	t	n/a
585.1435	0.1055	1170287	keystroke	e	n/a
585.204	0.09	1170408	keystroke	r	n/a
585.279	0.0745	1170558	keystroke	Key.space	n/a
586.1045	0.104	1172209	keystroke	h	n/a
586.2235	0.105	1172447	keystroke	a	n/a
586.3145	0.0895	1172629	keystroke	n	n/a
586.4185	0.0455	1172837	keystroke	d	n/a
586.5245	0.075	1173049	keystroke	b	n/a
586.854	0.104	1173708	keystroke	o	n/a
586.9745	0.1045	1173949	keystroke	o	n/a
587.229	0.104	1174458	keystroke	k	n/a
587.814	0.075	1175628	keystroke	Key.enter	n/a
587.8945	10.151	1175789	prompt	n/a	brutal webcast spirituality josh\n
588.534	0.09	1177068	keystroke	b	n/a
588.6695	0.1045	1177339	keystroke	r	n/a
588.849	0.105	1177698	keystroke	u	n/a
588.9695	0.09	1177939	keystroke	t	n/a
589.0735	0.1055	1178147	keystroke	a	n/a
589.194	0.0895	1178388	keystroke	k	n/a
589.3435	0.06	1178687	keystroke	Key.space	n/a
590.4985	0.045	1180997	keystroke	Key.backspace	n/a
590.5585	0.0755	1181117	keystroke	Key.backspace	n/a
590.874	0.06	1181748	keystroke	l	n/a
591.099	0.06	1182198	keystroke	Key.space	n/a
591.6545	0.075	1183309	keystroke	w	n/a
591.699	0.0745	1183398	keystroke	e	n/a
591.8345	0.0745	1183669	keystroke	b	n/a
592.014	0.105	1184028	keystroke	c	n/a
592.0745	0.1045	1184149	keystroke	a	n/a
592.1495	0.2095	1184299	keystroke	s	n/a
592.313	0.0755	1184626	keystroke	t	n/a
592.404	0.0745	1184808	keystroke	Key.space	n/a
593.154	0.075	1186308	keystroke	s	n/a
593.304	0.06	1186608	keystroke	t	n/a
593.409	0.09	1186818	keystroke	p	n/a
593.799	0.045	1187598	keystroke	Key.backspace	n/a
593.919	0.075	1187838	keystroke	Key.backspace	n/a
594.0995	0.059	1188199	keystroke	p	n/a
594.3385	0.0755	1188677	keystroke	r	n/a
594.9985	0.105	1189997	keystroke	Key.backspace	n/a
595.1195	0.029	1190239	keystroke	i	n/a
595.1335	0.0755	1190267	keystroke	r	n/a
595.254	0.0895	1190508	keystroke	i	n/a
595.3585	0.045	1190717	keystroke	t	n/a
595.614	0.1055	1191228	keystroke	u	n/a
595.8235	0.09	1191647	keystroke	a	n/a
596.0185	0.09	1192037	keystroke	l	n/a
596.26	0.059	1192520	keystroke	i	n/a
596.349	0.06	1192698	keystroke	t	n/a
596.4385	0.0605	1192877	keystroke	y	n/a
596.514	0.09	1193028	keystroke	Key.space	n/a
597.189	0.074	1194378	keystroke	j	n/a
