onset	duration	sample	value	key	prompt_text
54.5335	9.513	109067	prompt	n/a	the quick brown fox jumps over a lazy dog\n
57.806	0.013	115612	keystroke_t	t	n/a
57.833	0.105	115666	keystroke_h	h	n/a
57.983	0.0905	115966	keystroke_e	e	n/a
58.118	0.105	116236	keystroke_Key.space	Key.space	n/a
58.283	0.1055	116566	keystroke_q	q	n/a
58.448	0.15	116896	keystroke_u	u	n/a
58.553	0.106	117106	keystroke_i	i	n/a
58.808	0.06	117616	keystroke_c	c	n/a
59.0485	0.1045	118097	keystroke_k	k	n/a
59.198	0.105	118396	keystroke_Key.space	Key.space	n/a
59.468	0.075	118936	keystroke_b	b	n/a
59.603	0.0605	119206	keystroke_r	r	n/a
59.708	0.075	119416	keystroke_o	o	n/a
59.828	0.06	119656	keystroke_w	w	n/a
59.889	0.134	119778	keystroke_n	n	n/a
59.993	0.105	119986	keystroke_Key.space	Key.space	n/a
60.158	0.0605	120316	keystroke_f	f	n/a
60.2335	0.0745	120467	keystroke_o	o	n/a
60.368	0.09	120736	keystroke_x	x	n/a
60.4885	0.0895	120977	keystroke_Key.space	Key.space	n/a
60.7285	0.1045	121457	keystroke_j	j	n/a
60.923	0.09	121846	keystroke_u	u	n/a
61.163	0.105	122326	keystroke_m	m	n/a
61.328	0.1205	122656	keystroke_p	p	n/a
61.553	0.075	123106	keystroke_s	s	n/a
61.688	0.075	123376	keystroke_Key.space	Key.space	n/a
61.808	0.12	123616	keystroke_o	o	n/a
61.958	0.09	123916	keystroke_v	v	n/a
62.093	0.195	124186	keystroke_e	e	n/a
62.243	0.1055	124486	keystroke_r	r	n/a
62.378	0.09	124756	keystroke_Key.space	Key.space	n/a
62.483	0.1045	124966	keystroke_a	a	n/a
62.6025	0.06	125205	keystroke_Key.space	Key.space	n/a
62.7075	0.121	125415	keystroke_l	l	n/a
62.8885	0.075	125777	keystroke_a	a	n/a
63.068	0.0755	126136	keystroke_z	z	n/a
63.2625	0.121	126525	keystroke_y	y	n/a
63.3675	0.105	126735	keystroke_Key.space	Key.space	n/a
63.5185	0.075	127037	keystroke_d	d	n/a
63.6085	0.09	127217	keystroke_o	o	n/a
63.7575	0.016	127515	keystroke_g	g	n/a
63.983	0.06	127966	keystroke_Key.enter	Key.enter	n/a
64.0525	7.448	128105	prompt	n/a	development copyrights agreements coach\n
64.7185	0.0445	129437	keystroke_d	d	n/a
64.8835	0.0445	129767	keystroke_e	e	n/a
64.988	0.121	129976	keystroke_v	v	n/a
65.0935	0.0745	130187	keystroke_e	e	n/a
65.183	0.105	130366	keystroke_l	l	n/a
65.408	0.0905	130816	keystroke_o	o	n/a
65.5585	0.0745	131117	keystroke_p	p	n/a
65.693	0.0905	131386	keystroke_m	m	n/a
65.7985	0.09	131597	keystroke_e	e	n/a
65.9185	0.074	131837	keystroke_n	n	n/a
66.0085	0.075	132017	keystroke_t	t	n/a
66.1125	0.076	132225	keystroke_Key.space	Key.space	n/a
66.5175	0.076	133035	keystroke_c	c	n/a
66.6085	0.0745	133217	keystroke_o	o	n/a
66.743	0.075	133486	keystroke_p	p	n/a
66.938	0.0595	133876	keystroke_y	y	n/a
67.1925	0.075	134385	keystroke_r	r	n/a
67.2825	0.076	134565	keystroke_i	i	n/a
67.419	0.0595	134838	keystroke_g	g	n/a
67.5085	0.06	135017	keystroke_h	h	n/a
67.583	0.12	135166	keystroke_t	t	n/a
67.688	0.09	135376	keystroke_s	s	n/a
67.793	0.06	135586	keystroke_Key.space	Key.space	n/a
68.393	0.075	136786	keystroke_a	a	n/a
68.603	0.06	137206	keystroke_g	g	n/a
68.768	0.075	137536	keystroke_r	r	n/a
68.858	0.045	137716	keystroke_e	e	n/a
69.008	0.06	138016	keystroke_e	e	n/a
69.218	0.09	138436	keystroke_m	m	n/a
69.488	0.0755	138976	keystroke_e	e	n/a
69.593	0.105	139186	keystroke_n	n	n/a
69.683	0.0905	139366	keystroke_t	t	n/a
69.8035	0.12	139607	keystroke_s	s	n/a
69.9525	0.076	139905	keystroke_Key.space	Key.space	n/a
70.583	0.0745	141166	keystroke_c	c	n/a
70.6875	0.075	141375	keystroke_o	o	n/a
70.7775	0.09	141555	keystroke_a	a	n/a
70.9125	0.046	141825	keystroke_c	c	n/a
70.9885	0.074	141977	keystroke_h	h	n/a
71.4225	0.075	142845	keystroke_Key.enter	Key.enter	n/a
71.5055	5.545	143011	prompt	n/a	sole delicious measure charge\n
72.1585	0.0745	144317	keystroke_s	s	n/a
72.308	0.106	144616	keystroke_o	o	n/a
72.488	0.105	144976	keystroke_l	l	n/a
72.608	0.075	145216	keystroke_e	e	n/a
72.713	0.09	145426	keystroke_Key.space	Key.space	n/a
72.8185	0.0745	145637	keystroke_d	d	n/a
72.998	0.06	145996	keystroke_e	e	n/a
73.238	0.09	146476	keystroke_l	l	n/a
73.403	0.075	146806	keystroke_i	i	n/a
73.493	0.06	146986	keystroke_c	c	n/a
73.6135	0.075	147227	keystroke_i	i	n/a
73.8985	0.134	147797	keystroke_o	o	n/a
74.0635	0.075	148127	keystroke_u	u	n/a
74.1975	0.076	148395	keystroke_s	s	n/a
74.3925	0.075	148785	keystroke_Key.space	Key.space	n/a
75.0085	0.09	150017	keystroke_m	m	n/a
75.084	0.1045	150168	keystroke_e	e	n/a
75.203	0.0605	150406	keystroke_a	a	n/a
75.218	0.1355	150436	keystroke_s	s	n/a
75.368	0.1055	150736	keystroke_u	u	n/a
75.488	0.12	150976	keystroke_r	r	n/a
75.593	0.0605	151186	keystroke_e	e	n/a
75.668	0.045	151336	keystroke_Key.space	Key.space	n/a
76.073	0.09	152146	keystroke_c	c	n/a
76.178	0.06	152356	keystroke_h	h	n/a
76.253	0.1055	152506	keystroke_a	a	n/a
76.343	0.0605	152686	keystroke_r	r	n/a
76.523	0.075	153046	keystroke_g	g	n/a
76.568	0.105	153136	keystroke_e	e	n/a
77.003	0.045	154006	keystroke_Key.enter	Key.enter	n/a
77.055	7.975	154110	prompt	n/a	powered faced subscribe she'll\n
77.7225	0.09	155445	keystroke_p	p	n/a
77.948	0.0455	155896	keystroke_o	o	n/a
78.0225	0.12	156045	keystroke_w	w	n/a
78.0975	0.076	156195	keystroke_e	e	n/a
78.188	0.0905	156376	keystroke_r	r	n/a
78.2625	0.09	156525	keystroke_e	e	n/a
78.4285	0.089	156857	keystroke_d	d	n/a
78.5475	0.0755	157095	keystroke_Key.space	Key.space	n/a
79.328	0.15	158656	keystroke_f	f	n/a
79.493	0.075	158986	keystroke_a	a	n/a
79.5385	0.1495	159077	keystroke_c	c	n/a
79.7485	0.1195	159497	keystroke_e	e	n/a
79.959	0.059	159918	keystroke_d	d	n/a
80.078	0.075	160156	keystroke_Key.space	Key.space	n/a
80.678	0.105	161356	keystroke_s	s	n/a
80.843	0.09	161686	keystroke_u	u	n/a
80.903	0.09	161806	keystroke_b	b	n/a
81.008	0.075	162016	keystroke_s	s	n/a
81.398	0.076	162796	keystroke_c	c	n/a
81.593	0.0455	163186	keystroke_r	r	n/a
81.743	0.0905	163486	keystroke_i	i	n/a
81.8185	0.09	163637	keystroke_b	b	n/a
81.9235	0.075	163847	keystroke_e	e	n/a
82.1625	0.0455	164325	keystroke_Key.space	Key.space	n/a
82.4335	0.074	164867	keystroke_s	s	n/a
82.5235	0.0895	165047	keystroke_h	h	n/a
82.5985	0.075	165197	keystroke_e	e	n/a
83.4225	0.076	166845	keystroke_'	'	n/a
84.008	0.0445	168016	keystroke_l	l	n/a
84.0835	0.09	168167	keystroke_l	l	n/a
84.968	0.06	169936	keystroke_Key.enter	Key.enter	n/a
85.036	8.379	170072	prompt	n/a	chester winners regional voices\n
85.7335	0.0895	171467	keystroke_c	c	n/a
85.838	0.09	171676	keystroke_h	h	n/a
85.913	0.09	171826	keystroke_e	e	n/a
86.0335	0.1345	172067	keystroke_t	t	n/a
86.138	0.24	172276	keystroke_e	e	n/a
86.303	0.1055	172606	keystroke_r	r	n/a
86.5725	0.0605	173145	keystroke_Key.backspace	Key.backspace	n/a
86.7075	0.06	173415	keystroke_Key.backspace	Key.backspace	n/a
86.8585	0.059	173717	keystroke_Key.backspace	Key.backspace	n/a
86.9935	0.059	173987	keystroke_s	s	n/a
87.0835	0.135	174167	keystroke_t	t	n/a
87.2035	0.165	174407	keystroke_e	e	n/a
87.3085	0.09	174617	keystroke_r	r	n/a
87.5175	0.061	175035	keystroke_Key.space	Key.space	n/a
88.1335	0.089	176267	keystroke_w	w	n/a
88.2235	0.09	176447	keystroke_i	i	n/a
88.3585	0.075	176717	keystroke_n	n	n/a
88.4935	0.09	176987	keystroke_n	n	n/a
88.5535	0.149	177107	keystroke_e	e	n/a
88.658	0.1495	177316	keystroke_r	r	n/a
88.823	0.1055	177646	keystroke_s	s	n/a
89.0475	0.06	178095	keystroke_Key.space	Key.space	n/a
89.7975	0.045	179595	keystroke_d	d	n/a
90.1275	0.0605	180255	keystroke_Key.backspace	Key.backspace	n/a
90.323	0.09	180646	keystroke_r	r	n/a
90.383	0.09	180766	keystroke_e	e	n/a
90.5785	0.059	181157	keystroke_g	g	n/a
90.653	0.21	181306	keystroke_i	i	n/a
90.8175	0.196	181635	keystroke_o	o	n/a
90.9085	0.12	181817	keystroke_n	n	n/a
91.0575	0.075	182115	keystroke_a	a	n/a
91.1625	0.106	182325	keystroke_l	l	n/a
91.283	0.0745	182566	keystroke_Key.space	Key.space	n/a
91.7635	0.06	183527	keystroke_v	v	n/a
91.9285	0.045	183857	keystroke_o	o	n/a
92.093	0.0455	184186	keystroke_i	i	n/a
92.4685	0.0895	184937	keystroke_c	c	n/a
92.5125	0.1505	185025	keystroke_e	e	n/a
92.6485	0.09	185297	keystroke_s	s	n/a
93.338	0.075	186676	keystroke_Key.enter	Key.enter	n/a
93.4185	7.5115	186837	prompt	n/a	jurisdiction robert heights letting\n
94.043	0.075	188086	keystroke_j	j	n/a
94.238	0.09	188476	keystroke_u	u	n/a
94.313	0.06	188626	keystroke_r	r	n/a
94.418	0.1055	188836	keystroke_i	i	n/a
94.508	0.075	189016	keystroke_s	s	n/a
94.838	0.075	189676	keystroke_d	d	n/a
94.943	0.075	189886	keystroke_i	i	n/a
95.033	0.075	190066	keystroke_c	c	n/a
95.228	0.0605	190456	keystroke_t	t	n/a
95.303	0.21	190606	keystroke_i	i	n/a
95.378	0.105	190756	keystroke_o	o	n/a
95.3935	0.15	190787	keystroke_n	n	n/a
95.5135	0.074	191027	keystroke_Key.space	Key.space	n/a
96.368	0.0605	192736	keystroke_r	r	n/a
96.488	0.09	192976	keystroke_o	o	n/a
96.6085	0.0895	193217	keystroke_b	b	n/a
96.7125	0.105	193425	keystroke_e	e	n/a
96.7885	0.074	193577	keystroke_r	r	n/a
96.9685	0.059	193937	keystroke_t	t	n/a
97.0725	0.075	194145	keystroke_Key.space	Key.space	n/a
97.6125	0.0905	195225	keystroke_h	h	n/a
97.688	0.06	195376	keystroke_e	e	n/a
97.793	0.09	195586	keystroke_i	i	n/a
97.898	0.06	195796	keystroke_g	g	n/a
98.018	0.0905	196036	keystroke_h	h	n/a
98.1225	0.061	196245	keystroke_t	t	n/a
98.408	0.0605	196816	keystroke_s	s	n/a
98.5875	0.0755	197175	keystroke_Key.space	Key.space	n/a
99.023	0.045	198046	keystroke_l	l	n/a
99.398	0.0745	198796	keystroke_e	e	n/a
99.6085	0.044	199217	keystroke_t	t	n/a
99.7275	0.076	199455	keystroke_t	t	n/a
99.8485	0.1645	199697	keystroke_i	i	n/a
99.9825	0.12	199965	keystroke_n	n	n/a
100.1335	0.044	200267	keystroke_g	g	n/a
100.868	0.06	201736	keystroke_Key.enter	Key.enter	n/a
100.9355	7.944	201871	prompt	n/a	raises accessibility it's canyon\n
101.693	0.075	203386	keystroke_r	r	n/a
101.813	0.105	203626	keystroke_a	a	n/a
101.948	0.075	203896	keystroke_i	i	n/a
102.068	0.12	204136	keystroke_s	s	n/a
102.158	0.09	204316	keystroke_e	e	n/a
102.308	0.1055	204616	keystroke_s	s	n/a
102.443	0.0605	204886	keystroke_Key.space	Key.space	n/a
103.1185	0.1195	206237	keystroke_a	a	n/a
103.2535	0.075	206507	keystroke_c	c	n/a
103.4035	0.09	206807	keystroke_c	c	n/a
103.5535	0.089	207107	keystroke_e	e	n/a
103.7325	0.0905	207465	keystroke_s	s	n/a
103.8675	0.105	207735	keystroke_s	s	n/a
104.2425	0.091	208485	keystroke_i	i	n/a
104.394	0.045	208788	keystroke_b	b	n/a
104.648	0.165	209296	keystroke_i	i	n/a
104.9185	0.12	209837	keystroke_l	l	n/a
105.053	0.09	210106	keystroke_i	i	n/a
105.203	0.0755	210406	keystroke_t	t	n/a
105.2935	0.0745	210587	keystroke_y	y	n/a
105.443	0.06	210886	keystroke_Key.space	Key.space	n/a
106.268	0.06	212536	keystroke_i	i	n/a
106.358	0.075	212716	keystroke_t	t	n/a
107.048	0.075	214096	keystroke_'	'	n/a
107.153	0.0755	214306	keystroke_s	s	n/a
107.2575	0.075	214515	keystroke_Key.space	Key.space	n/a
107.768	0.0755	215536	keystroke_c	c	n/a
107.813	0.1055	215626	keystroke_a	a	n/a
107.9035	0.075	215807	keystroke_n	n	n/a
108.1135	0.06	216227	keystroke_y	y	n/a
108.2935	0.1195	216587	keystroke_o	o	n/a
108.3535	0.0895	216707	keystroke_n	n	n/a
108.8185	0.06	217637	keystroke_Key.enter	Key.enter	n/a
108.883	7.452	217766	prompt	n/a	fans banking collector architectural\n
109.583	0.09	219166	keystroke_f	f	n/a
109.688	0.105	219376	keystroke_a	a	n/a
109.748	0.105	219496	keystroke_n	n	n/a
110.0635	0.0895	220127	keystroke_s	s	n/a
110.2275	0.0605	220455	keystroke_Key.space	Key.space	n/a
110.453	0.09	220906	keystroke_b	b	n/a
110.528	0.09	221056	keystroke_a	a	n/a
110.7835	0.09	221567	keystroke_n	n	n/a
110.933	0.075	221866	keystroke_k	k	n/a
111.1285	0.0895	222257	keystroke_i	i	n/a
111.188	0.075	222376	keystroke_n	n	n/a
111.278	0.0755	222556	keystroke_g	g	n/a
111.3685	0.0745	222737	keystroke_Key.space	Key.space	n/a
112.0585	0.0895	224117	keystroke_c	c	n/a
112.1635	0.0745	224327	keystroke_o	o	n/a
112.343	0.06	224686	keystroke_l	l	n/a
112.448	0.0895	224896	keystroke_l	l	n/a
112.553	0.12	225106	keystroke_e	e	n/a
112.6285	0.1195	225257	keystroke_c	c	n/a
112.883	0.0305	225766	keystroke_t	t	n/a
112.973	0.06	225946	keystroke_o	o	n/a
113.063	0.0605	226126	keystroke_r	r	n/a
113.168	0.06	226336	keystroke_Key.space	Key.space	n/a
113.813	0.09	227626	keystroke_a	a	n/a
114.008	0.075	228016	keystroke_r	r	n/a
114.2635	0.0595	228527	keystroke_c	c	n/a
114.3685	0.075	228737	keystroke_h	h	n/a
114.4585	0.09	228917	keystroke_i	i	n/a
114.624	0.089	229248	keystroke_t	t	n/a
114.6985	0.1195	229397	keystroke_e	e	n/a
114.9235	0.0745	229847	keystroke_c	c	n/a
115.119	0.044	230238	keystroke_t	t	n/a
115.1935	0.0895	230387	keystroke_u	u	n/a
115.298	0.075	230596	keystroke_r	r	n/a
115.418	0.0455	230836	keystroke_a	a	n/a
115.508	0.075	231016	keystroke_l	l	n/a
116.2575	0.075	232515	keystroke_Key.enter	Key.enter	n/a
116.339	6.506	232678	prompt	n/a	antivirus simple pearl clock\n
117.0235	0.09	234047	keystroke_a	a	n/a
117.2035	0.104	234407	keystroke_n	n	n/a
117.3375	0.09	234675	keystroke_t	t	n/a
117.489	0.0735	234978	keystroke_i	i	n/a
117.698	0.0455	235396	keystroke_v	v	n/a
117.9085	0.075	235817	keystroke_i	i	n/a
118.2835	0.0595	236567	keystroke_u	u	n/a
118.583	0.06	237166	keystroke_Key.backspace	Key.backspace	n/a
118.688	0.061	237376	keystroke_r	r	n/a
118.793	0.075	237586	keystroke_u	u	n/a
118.883	0.075	237766	keystroke_s	s	n/a
119.018	0.06	238036	keystroke_Key.space	Key.space	n/a
119.633	0.09	239266	keystroke_s	s	n/a
119.783	0.1505	239566	keystroke_i	i	n/a
119.888	0.105	239776	keystroke_m	m	n/a
120.083	0.0605	240166	keystroke_p	p	n/a
120.263	0.0605	240526	keystroke_l	l	n/a
120.3385	0.06	240677	keystroke_e	e	n/a
120.473	0.0605	240946	keystroke_Key.space	Key.space	n/a
121.1175	0.046	242235	keystroke_p	p	n/a
121.1635	0.1345	242327	keystroke_e	e	n/a
121.2685	0.1495	242537	keystroke_a	a	n/a
121.374	0.0895	242748	keystroke_r	r	n/a
121.448	0.076	242896	keystroke_l	l	n/a
121.5685	0.075	243137	keystroke_Key.space	Key.space	n/a
122.048	0.075	244096	keystroke_c	c	n/a
122.124	0.0895	244248	keystroke_l	l	n/a
122.303	0.0755	244606	keystroke_o	o	n/a
122.3935	0.06	244787	keystroke_c	c	n/a
122.468	0.09	244936	keystroke_k	k	n/a
122.7675	0.075	245535	keystroke_Key.enter	Key.enter	n/a
122.85	4.165	245700	prompt	n/a	japan cuba mods watson\n
123.444	0.0595	246888	keystroke_j	j	n/a
123.533	0.075	247066	keystroke_a	a	n/a
123.638	0.06	247276	keystroke_p	p	n/a
123.728	0.0455	247456	keystroke_a	a	n/a
123.878	0.075	247756	keystroke_n	n	n/a
123.983	0.075	247966	keystroke_Key.space	Key.space	n/a
124.223	0.075	248446	keystroke_c	c	n/a
124.328	0.135	248656	keystroke_u	u	n/a
124.403	0.09	248806	keystroke_b	b	n/a
124.5085	0.09	249017	keystroke_a	a	n/a
124.613	0.075	249226	keystroke_Key.space	Key.space	n/a
124.793	0.0905	249586	keystroke_m	m	n/a
124.913	0.06	249826	keystroke_o	o	n/a
125.003	0.135	250006	keystroke_d	d	n/a
125.093	0.1055	250186	keystroke_s	s	n/a
125.228	0.06	250456	keystroke_Key.space	Key.space	n/a
125.904	0.074	251808	keystroke_w	w	n/a
126.038	0.09	252076	keystroke_a	a	n/a
126.173	0.06	252346	keystroke_t	t	n/a
126.368	0.09	252736	keystroke_s	s	n/a
126.488	0.105	252976	keystroke_o	o	n/a
126.548	0.09	253096	keystroke_n	n	n/a
126.9385	0.074	253877	keystroke_Key.enter	Key.enter	n/a
127.0195	5.6205	254039	prompt	n/a	impose chemicals latest corn\n
127.703	0.1045	255406	keystroke_i	i	n/a
127.7785	0.09	255557	keystroke_m	m	n/a
127.958	0.0605	255916	keystroke_p	p	n/a
128.1385	0.045	256277	keystroke_o	o	n/a
128.1985	0.09	256397	keystroke_s	s	n/a
128.2585	0.09	256517	keystroke_e	e	n/a
128.3785	0.074	256757	keystroke_Key.space	Key.space	n/a
129.1735	0.045	258347	keystroke_c	c	n/a
129.2785	0.0595	258557	keystroke_h	h	n/a
129.353	0.105	258706	keystroke_e	e	n/a
129.488	0.105	258976	keystroke_m	m	n/a
129.6535	0.0895	259307	keystroke_i	i	n/a
129.818	0.1205	259636	keystroke_c	c	n/a
129.969	0.119	259938	keystroke_a	a	n/a
130.148	0.1055	260296	keystroke_l	l	n/a
130.313	0.0905	260626	keystroke_s	s	n/a
130.418	0.075	260836	keystroke_Key.space	Key.space	n/a
131.0935	0.0745	262187	keystroke_l	l	n/a
131.169	0.0745	262338	keystroke_a	a	n/a
131.303	0.105	262606	keystroke_t	t	n/a
131.3785	0.1345	262757	keystroke_e	e	n/a
131.4685	0.165	262937	keystroke_s	s	n/a
131.588	0.075	263176	keystroke_t	t	n/a
131.678	0.06	263356	keystroke_Key.space	Key.space	n/a
131.918	0.076	263836	keystroke_c	c	n/a
132.038	0.0755	264076	keystroke_o	o	n/a
132.158	0.0455	264316	keystroke_r	r	n/a
132.233	0.076	264466	keystroke_n	n	n/a
132.578	0.0605	265156	keystroke_Key.enter	Key.enter	n/a
132.6455	8.2595	265291	prompt	n/a	safety bouquet samples distinction\n
133.208	0.075	266416	keystroke_s	s	n/a
133.4935	0.015	266987	keystroke_a	a	n/a
134.093	0.135	268186	keystroke_f	f	n/a
134.2435	0.015	268487	keystroke_e	e	n/a
134.318	0.09	268636	keystroke_t	t	n/a
134.468	0.06	268936	keystroke_y	y	n/a
134.6185	0.03	269237	keystroke_Key.space	Key.space	n/a
135.2035	0.1195	270407	keystroke_b	b	n/a
135.398	0.0905	270796	keystroke_o	o	n/a
135.473	0.09	270946	keystroke_u	u	n/a
135.6385	0.0595	271277	keystroke_g	g	n/a
136.238	0.0755	272476	keystroke_Key.backspace	Key.backspace	n/a
136.4035	0.075	272807	keystroke_q	q	n/a
136.493	0.09	272986	keystroke_u	u	n/a
136.643	0.045	273286	keystroke_e	e	n/a
136.7935	0.0595	273587	keystroke_t	t	n/a
136.898	0.0605	273796	keystroke_Key.space	Key.space	n/a
137.5735	0.075	275147	keystroke_s	s	n/a
137.7075	0.091	275415	keystroke_a	a	n/a
137.7985	0.074	275597	keystroke_m	m	n/a
137.9185	0.075	275837	keystroke_p	p	n/a
138.0835	0.074	276167	keystroke_l	l	n/a
138.1425	0.151	276285	keystroke_e	e	n/a
138.2485	0.105	276497	keystroke_s	s	n/a
138.3535	0.059	276707	keystroke_Key.space	Key.space	n/a
138.863	0.075	277726	keystroke_d	d	n/a
138.9985	0.075	277997	keystroke_i	i	n/a
139.178	0.06	278356	keystroke_s	s	n/a
139.2985	0.0595	278597	keystroke_t	t	n/a
139.493	0.105	278986	keystroke_i	i	n/a
139.898	0.045	279796	keystroke_n	n	n/a
139.988	0.0755	279976	keystroke_c	c	n/a
140.183	0.045	280366	keystroke_t	t	n/a
140.2585	0.2545	280517	keystroke_i	i	n/a
140.3335	0.18	280667	keystroke_o	o	n/a
140.423	0.105	280846	keystroke_n	n	n/a
140.8585	0.045	281717	keystroke_Key.enter	Key.enter	n/a
140.9095	5.8005	281819	prompt	n/a	rings rouge established reduce\n
141.654	0.06	283308	keystroke_r	r	n/a
141.758	0.105	283516	keystroke_i	i	n/a
141.818	0.0905	283636	keystroke_n	n	n/a
141.893	0.075	283786	keystroke_g	g	n/a
141.983	0.0905	283966	keystroke_s	s	n/a
142.0735	0.0595	284147	keystroke_Key.space	Key.space	n/a
142.253	0.0605	284506	keystroke_r	r	n/a
142.329	0.119	284658	keystroke_o	o	n/a
142.419	0.059	284838	keystroke_u	u	n/a
142.493	0.1055	284986	keystroke_g	g	n/a
142.5835	0.09	285167	keystroke_e	e	n/a
142.6885	0.0445	285377	keystroke_Key.space	Key.space	n/a
143.378	0.076	286756	keystroke_e	e	n/a
143.513	0.09	287026	keystroke_s	s	n/a
143.663	0.075	287326	keystroke_t	t	n/a
143.753	0.06	287506	keystroke_a	a	n/a
143.843	0.076	287686	keystroke_b	b	n/a
143.978	0.106	287956	keystroke_l	l	n/a
144.1285	0.0745	288257	keystroke_i	i	n/a
144.218	0.09	288436	keystroke_s	s	n/a
144.3385	0.075	288677	keystroke_h	h	n/a
144.429	0.044	288858	keystroke_e	e	n/a
144.563	0.0905	289126	keystroke_d	d	n/a
144.6385	0.0445	289277	keystroke_Key.space	Key.space	n/a
145.2685	0.12	290537	keystroke_r	r	n/a
145.3585	0.09	290717	keystroke_e	e	n/a
145.7785	0.075	291557	keystroke_d	d	n/a
145.9885	0.09	291977	keystroke_u	u	n/a
146.0935	0.105	292187	keystroke_c	c	n/a
146.1685	0.075	292337	keystroke_e	e	n/a
146.633	0.0755	293266	keystroke_Key.enter	Key.enter	n/a
146.713	5.9825	293426	prompt	n/a	walking nicole party weapon\n
148.103	0.075	296206	keystroke_w	w	n/a
148.208	0.075	296416	keystroke_a	a	n/a
148.313	0.091	296626	keystroke_l	l	n/a
148.3735	0.1195	296747	keystroke_k	k	n/a
148.644	0.0445	297288	keystroke_i	i	n/a
148.6585	0.105	297317	keystroke_n	n	n/a
148.7485	0.0905	297497	keystroke_g	g	n/a
148.8235	0.09	297647	keystroke_Key.space	Key.space	n/a
148.943	0.076	297886	keystroke_d	d	n/a
149.0935	0.045	298187	keystroke_i	i	n/a
149.3635	0.0595	298727	keystroke_Key.backspace	Key.backspace	n/a
149.498	0.075	298996	keystroke_Key.backspace	Key.backspace	n/a
149.7235	0.0745	299447	keystroke_n	n	n/a
149.7835	0.12	299567	keystroke_i	i	n/a
149.9185	0.06	299837	keystroke_c	c	n/a
150.0385	0.06	300077	keystroke_o	o	n/a
150.1885	0.075	300377	keystroke_l	l	n/a
150.2785	0.0895	300557	keystroke_e	e	n/a
150.3985	0.0745	300797	keystroke_Key.space	Key.space	n/a
150.833	0.0155	301666	keystroke_p	p	n/a
150.8635	0.0145	301727	keystroke_a	a	n/a
150.893	0.06	301786	keystroke_r	r	n/a
151.0585	0.045	302117	keystroke_t	t	n/a
151.193	0.105	302386	keystroke_y	y	n/a
151.2835	0.0445	302567	keystroke_Key.space	Key.space	n/a
151.5685	0.0895	303137	keystroke_w	w	n/a
151.7635	0.09	303527	keystroke_e	e	n/a
151.8685	0.06	303737	keystroke_a	a	n/a
151.9425	0.091	303885	keystroke_p	p	n/a
152.1535	0.1045	304307	keystroke_o	o	n/a
152.2135	0.105	304427	keystroke_n	n	n/a
152.618	0.075	305236	keystroke_Key.enter	Key.enter	n/a
152.7005	11.035	305401	prompt	n/a	watershed recorded mandatory flavor\n
153.429	0.089	306858	keystroke_w	w	n/a
153.549	0.09	307098	keystroke_a	a	n/a
153.683	0.075	307366	keystroke_t	t	n/a
153.7735	0.1345	307547	keystroke_e	e	n/a
153.8785	0.0895	307757	keystroke_r	r	n/a
154.0735	0.06	308147	keystroke_s	s	n/a
154.1485	0.075	308297	keystroke_h	h	n/a
154.2385	0.06	308477	keystroke_e	e	n/a
154.5385	0.075	309077	keystroke_d	d	n/a
154.6725	0.046	309345	keystroke_Key.space	Key.space	n/a
155.1685	0.045	310337	keystroke_r	r	n/a
155.1835	0.075	310367	keystroke_e	e	n/a
155.3335	0.09	310667	keystroke_c	c	n/a
155.4985	0.0595	310997	keystroke_o	o	n/a
155.573	0.1355	311146	keystroke_r	r	n/a
155.6635	0.075	311327	keystroke_d	d	n/a
155.813	0.075	311626	keystroke_e	e	n/a
155.9935	0.0755	311987	keystroke_d	d	n/a
156.098	0.075	312196	keystroke_Key.space	Key.space	n/a
156.668	0.1205	313336	keystroke_n	n	n/a
157.088	0.045	314176	keystroke_Key.backspace	Key.backspace	n/a
157.3135	0.09	314627	keystroke_m	m	n/a
157.4485	0.075	314897	keystroke_a	a	n/a
157.5535	0.075	315107	keystroke_n	n	n/a
157.6735	0.075	315347	keystroke_d	d	n/a
157.809	0.1195	315618	keystroke_a	a	n/a
158.1235	0.045	316247	keystroke_t	t	n/a
158.274	0.074	316548	keystroke_o	o	n/a
158.3785	0.0595	316757	keystroke_r	r	n/a
158.5435	0.0445	317087	keystroke_y	y	n/a
158.5575	0.016	317115	keystroke_t	t	n/a
158.6175	0.0605	317235	keystroke_Key.space	Key.space	n/a
159.128	0.0155	318256	keystroke_Key.backspace	Key.backspace	n/a
159.1885	0.0745	318377	keystroke_Key.backspace	Key.backspace	n/a
159.5925	0.06	319185	keystroke_Key.space	Key.space	n/a
160.2385	0.09	320477	keystroke_f	f	n/a
160.3585	0.09	320717	keystroke_a	a	n/a
160.3885	0.09	320777	keystroke_l	l	n/a
160.568	0.06	321136	keystroke_v	v	n/a
160.763	0.0905	321526	keystroke_o	o	n/a
161.273	0.0155	322546	keystroke_Key.backspace	Key.backspace	n/a
161.333	0.03	322666	keystroke_Key.backspace	Key.backspace	n/a
161.468	0.075	322936	keystroke_Key.backspace	Key.backspace	n/a
161.6635	0.045	323327	keystroke_Key.backspace	Key.backspace	n/a
162.3085	0.089	324617	keystroke_l	l	n/a
162.4135	0.1195	324827	keystroke_a	a	n/a
162.5635	0.0745	325127	keystroke_v	v	n/a
162.714	0.09	325428	keystroke_o	o	n/a
162.8785	0.0455	325757	keystroke_r	r	n/a
163.6585	0.075	327317	keystroke_Key.enter	Key.enter	n/a
163.7395	10.7055	327479	prompt	n/a	representative richards traveler crime\n
164.4835	0.1195	328967	keystroke_r	r	n/a
164.559	0.104	329118	keystroke_e	e	n/a
164.6935	0.0745	329387	keystroke_p	p	n/a
164.8135	0.1045	329627	keystroke_r	r	n/a
164.858	0.1355	329716	keystroke_e	e	n/a
164.978	0.09	329956	keystroke_s	s	n/a
165.128	0.076	330256	keystroke_e	e	n/a
165.2185	0.09	330437	keystroke_n	n	n/a
165.353	0.06	330706	keystroke_t	t	n/a
165.443	0.09	330886	keystroke_a	a	n/a
165.548	0.075	331096	keystroke_t	t	n/a
165.698	0.076	331396	keystroke_i	i	n/a
165.818	0.075	331636	keystroke_v	v	n/a
165.8945	0.0895	331789	keystroke_e	e	n/a
166.0285	0.0595	332057	keystroke_Key.space	Key.space	n/a
166.733	0.091	333466	keystroke_r	r	n/a
166.8985	0.0755	333797	keystroke_i	i	n/a
167.004	0.089	334008	keystroke_c	c	n/a
167.108	0.0605	334216	keystroke_h	h	n/a
167.228	0.09	334456	keystroke_a	a	n/a
167.483	0.1205	334966	keystroke_r	r	n/a
167.5885	0.1645	335177	keystroke_d	d	n/a
167.708	0.105	335416	keystroke_s	s	n/a
167.843	0.075	335686	keystroke_Key.space	Key.space	n/a
169.4035	0.014	338807	keystroke_t	t	n/a
169.479	0.1345	338958	keystroke_r	r	n/a
169.5835	0.09	339167	keystroke_e	e	n/a
170.1685	0.15	340337	keystroke_Key.backspace	Key.backspace	n/a
170.3785	0.09	340757	keystroke_a	a	n/a
170.5135	0.1345	341027	keystroke_v	v	n/a
170.663	0.09	341326	keystroke_e	e	n/a
171.9085	0.0895	343817	keystroke_l	l	n/a
172.148	0.1205	344296	keystroke_e	e	n/a
172.238	0.075	344476	keystroke_r	r	n/a
172.4635	0.074	344927	keystroke_Key.space	Key.space	n/a
173.169	0.059	346338	keystroke_c	c	n/a
173.364	0.044	346728	keystroke_r	r	n/a
173.453	0.135	346906	keystroke_i	i	n/a
173.513	0.105	347026	keystroke_m	m	n/a
173.649	0.0445	347298	keystroke_e	e	n/a
174.4285	0.015	348857	keystroke_Key.enter	Key.enter	n/a
174.452	10.9435	348904	prompt	n/a	pharmaceutical reforms slot tommy\n
175.2685	0.0745	350537	keystroke_p	p	n/a
175.823	0.09	351646	keystroke_h	h	n/a
175.943	0.1205	351886	keystroke_r	r	n/a
176.048	0.075	352096	keystroke_a	a	n/a
176.168	0.105	352336	keystroke_m	m	n/a
176.7385	0.015	353477	keystroke_Key.backspace	Key.backspace	n/a
176.8435	0.045	353687	keystroke_Key.backspace	Key.backspace	n/a
176.9785	0.075	353957	keystroke_Key.backspace	Key.backspace	n/a
177.1135	0.1195	354227	keystroke_a	a	n/a
177.278	0.0755	354556	keystroke_r	r	n/a
177.5935	0.0745	355187	keystroke_m	m	n/a
177.7735	0.045	355547	keystroke_a	a	n/a
178.134	0.1035	356268	keystroke_c	c	n/a
178.2685	0.06	356537	keystroke_e	e	n/a
178.4185	0.075	356837	keystroke_u	u	n/a
178.5535	0.0745	357107	keystroke_t	t	n/a
178.6735	0.075	357347	keystroke_i	i	n/a
178.8235	0.06	357647	keystroke_c	c	n/a
180.683	0.075	361366	keystroke_a	a	n/a
180.803	0.0905	361606	keystroke_l	l	n/a
180.938	0.0755	361876	keystroke_Key.space	Key.space	n/a
181.733	0.135	363466	keystroke_r	r	n/a
181.838	0.06	363676	keystroke_e	e	n/a
182.0035	0.075	364007	keystroke_f	f	n/a
182.108	0.075	364216	keystroke_o	o	n/a
182.213	0.06	364426	keystroke_r	r	n/a
182.333	0.09	364666	keystroke_m	m	n/a
182.4685	0.0605	364937	keystroke_s	s	n/a
182.588	0.045	365176	keystroke_Key.space	Key.space	n/a
183.3075	0.075	366615	keystroke_s	s	n/a
183.3835	0.089	366767	keystroke_l	l	n/a
183.5775	0.076	367155	keystroke_o	o	n/a
183.6975	0.061	367395	keystroke_t	t	n/a
183.7725	0.0755	367545	keystroke_Key.space	Key.space	n/a
183.9235	0.0745	367847	keystroke_t	t	n/a
184.0275	0.076	368055	keystroke_o	o	n/a
184.269	0.0145	368538	keystroke_m	m	n/a
184.3135	0.075	368627	keystroke_m	m	n/a
184.6585	0.044	369317	keystroke_y	y	n/a
185.3635	0.03	370727	keystroke_Key.enter	Key.enter	n/a
185.4	9.145	370800	prompt	n/a	yearly armenia electricity officials\n
186.1585	0.105	372317	keystroke_y	y	n/a
186.2185	0.15	372437	keystroke_e	e	n/a
186.3085	0.12	372617	keystroke_a	a	n/a
186.3835	0.09	372767	keystroke_r	r	n/a
186.4435	0.09	372887	keystroke_l	l	n/a
186.6235	0.045	373247	keystroke_y	y	n/a
186.713	0.03	373426	keystroke_Key.space	Key.space	n/a
187.613	0.075	375226	keystroke_a	a	n/a
187.7035	0.165	375407	keystroke_r	r	n/a
187.8535	0.105	375707	keystroke_e	e	n/a
188.1235	0.1055	376247	keystroke_m	m	n/a
188.558	0.0455	377116	keystroke_Key.backspace	Key.backspace	n/a
188.6785	0.075	377357	keystroke_Key.backspace	Key.backspace	n/a
188.8735	0.0755	377747	keystroke_m	m	n/a
188.9785	0.075	377957	keystroke_e	e	n/a
189.1135	0.06	378227	keystroke_n	n	n/a
189.1885	0.09	378377	keystroke_i	i	n/a
189.3535	0.09	378707	keystroke_a	a	n/a
189.4735	0.045	378947	keystroke_Key.space	Key.space	n/a
190.5235	0.045	381047	keystroke_e	e	n/a
190.5835	0.105	381167	keystroke_l	l	n/a
190.7035	0.1205	381407	keystroke_e	e	n/a
190.7935	0.1055	381587	keystroke_c	c	n/a
191.003	0.046	382006	keystroke_t	t	n/a
191.138	0.06	382276	keystroke_r	r	n/a
191.243	0.09	382486	keystroke_i	i	n/a
191.363	0.0755	382726	keystroke_c	c	n/a
191.499	0.074	382998	keystroke_i	i	n/a
191.618	0.03	383236	keystroke_t	t	n/a
191.7235	0.075	383447	keystroke_y	y	n/a
191.828	0.06	383656	keystroke_Key.space	Key.space	n/a
192.7135	0.06	385427	keystroke_o	o	n/a
192.8185	0.06	385637	keystroke_f	f	n/a
192.9535	0.075	385907	keystroke_f	f	n/a
193.0585	0.075	386117	keystroke_i	i	n/a
193.1485	0.105	386297	keystroke_c	c	n/a
193.2685	0.075	386537	keystroke_i	i	n/a
193.3735	0.09	386747	keystroke_a	a	n/a
193.4935	0.09	386987	keystroke_l	l	n/a
193.6285	0.06	387257	keystroke_s	s	n/a
194.4685	0.075	388937	keystroke_Key.enter	Key.enter	n/a
194.5485	7.5715	389097	prompt	n/a	ctrl amanda accounting productive\n
195.2335	0.1045	390467	keystroke_c	c	n/a
195.4735	0.0305	390947	keystroke_t	t	n/a
195.578	0.075	391156	keystroke_r	r	n/a
195.698	0.075	391396	keystroke_l	l	n/a
195.818	0.045	391636	keystroke_Key.space	Key.space	n/a
196.4485	0.1505	392897	keystroke_a	a	n/a
196.6285	0.075	393257	keystroke_m	m	n/a
196.6885	0.09	393377	keystroke_a	a	n/a
196.9285	0.09	393857	keystroke_n	n	n/a
197.0935	0.0745	394187	keystroke_d	d	n/a
197.1835	0.09	394367	keystroke_a	a	n/a
197.303	0.0755	394606	keystroke_Key.space	Key.space	n/a
197.7835	0.075	395567	keystroke_a	a	n/a
197.9485	0.059	395897	keystroke_c	c	n/a
198.0685	0.075	396137	keystroke_c	c	n/a
198.1885	0.105	396377	keystroke_o	o	n/a
198.2335	0.09	396467	keystroke_u	u	n/a
198.5035	0.015	397007	keystroke_n	n	n/a
198.533	0.0305	397066	keystroke_t	t	n/a
198.6235	0.075	397247	keystroke_i	i	n/a
198.6675	0.09	397335	keystroke_n	n	n/a
198.7435	0.059	397487	keystroke_g	g	n/a
198.8485	0.0895	397697	keystroke_Key.space	Key.space	n/a
199.7185	0.105	399437	keystroke_p	p	n/a
199.8375	0.076	399675	keystroke_r	r	n/a
200.0035	0.104	400007	keystroke_o	o	n/a
200.6035	0.0605	401207	keystroke_d	d	n/a
200.723	0.06	401446	keystroke_u	u	n/a
200.844	0.074	401688	keystroke_c	c	n/a
201.039	0.044	402078	keystroke_t	t	n/a
201.114	0.0445	402228	keystroke_i	i	n/a
201.248	0.105	402496	keystroke_v	v	n/a
201.338	0.0455	402676	keystroke_e	e	n/a
202.058	0.0595	404116	keystroke_Key.enter	Key.enter	n/a
202.1245	9.386	404249	prompt	n/a	extending inexpensive antenna consciousness\n
202.748	0.045	405496	keystroke_e	e	n/a
202.913	0.09	405826	keystroke_x	x	n/a
203.078	0.12	406156	keystroke_t	t	n/a
203.169	0.0595	406338	keystroke_e	e	n/a
203.273	0.075	406546	keystroke_n	n	n/a
203.364	0.06	406728	keystroke_d	d	n/a
203.468	0.075	406936	keystroke_i	i	n/a
203.513	0.09	407026	keystroke_n	n	n/a
203.633	0.06	407266	keystroke_g	g	n/a
203.7235	0.0895	407447	keystroke_Key.space	Key.space	n/a
204.368	0.0755	408736	keystroke_i	i	n/a
204.398	0.0905	408796	keystroke_n	n	n/a
204.684	0.09	409368	keystroke_p	p	n/a
205.103	0.075	410206	keystroke_Key.backspace	Key.backspace	n/a
205.2835	0.0605	410567	keystroke_e	e	n/a
205.463	0.0755	410926	keystroke_x	x	n/a
205.6285	0.105	411257	keystroke_p	p	n/a
205.823	0.0605	411646	keystroke_e	e	n/a
205.868	0.1055	411736	keystroke_n	n	n/a
206.003	0.09	412006	keystroke_s	s	n/a
206.153	0.09	412306	keystroke_i	i	n/a
206.288	0.0905	412576	keystroke_v	v	n/a
206.363	0.105	412726	keystroke_e	e	n/a
206.483	0.06	412966	keystroke_Key.space	Key.space	n/a
207.1585	0.09	414317	keystroke_a	a	n/a
207.3235	0.09	414647	keystroke_n	n	n/a
207.5185	0.12	415037	keystroke_t	t	n/a
207.6235	0.105	415247	keystroke_e	e	n/a
207.7435	0.09	415487	keystroke_n	n	n/a
208.0135	0.075	416027	keystroke_n	n	n/a
208.1785	0.0745	416357	keystroke_a	a	n/a
208.2985	0.075	416597	keystroke_Key.space	Key.space	n/a
209.123	0.0755	418246	keystroke_c	c	n/a
209.228	0.105	418456	keystroke_o	o	n/a
209.288	0.105	418576	keystroke_n	n	n/a
209.423	0.09	418846	keystroke_s	s	n/a
209.6485	0.075	419297	keystroke_c	c	n/a
209.7835	0.075	419567	keystroke_i	i	n/a
209.9785	0.1045	419957	keystroke_o	o	n/a
210.0385	0.09	420077	keystroke_u	u	n/a
210.159	0.0595	420318	keystroke_s	s	n/a
210.3225	0.061	420645	keystroke_n	n	n/a
210.4285	0.03	420857	keystroke_e	e	n/a
210.5775	0.046	421155	keystroke_s	s	n/a
210.6985	0.075	421397	keystroke_s	s	n/a
211.4335	0.075	422867	keystroke_Key.enter	Key.enter	n/a
211.5145	7.9455	423029	prompt	n/a	exceptions leadership pichunter julie\n
212.2285	0.075	424457	keystroke_e	e	n/a
212.4385	0.09	424877	keystroke_x	x	n/a
212.5885	0.105	425177	keystroke_c	c	n/a
212.6635	0.105	425327	keystroke_e	e	n/a
212.7385	0.075	425477	keystroke_p	p	n/a
212.8735	0.06	425747	keystroke_t	t	n/a
212.9935	0.195	425987	keystroke_i	i	n/a
213.0385	0.135	426077	keystroke_o	o	n/a
213.0835	0.135	426167	keystroke_n	n	n/a
213.2335	0.045	426467	keystroke_s	s	n/a
213.3085	0.075	426617	keystroke_Key.space	Key.space	n/a
214.0435	0.12	428087	keystroke_l	l	n/a
214.1485	0.06	428297	keystroke_e	e	n/a
214.2535	0.105	428507	keystroke_a	a	n/a
214.3135	0.075	428627	keystroke_d	d	n/a
214.4785	0.1045	428957	keystroke_e	e	n/a
214.568	0.0605	429136	keystroke_r	r	n/a
214.7035	0.0755	429407	keystroke_s	s	n/a
214.7635	0.1055	429527	keystroke_h	h	n/a
214.87	0.118	429740	keystroke_i	i	n/a
215.0785	0.06	430157	keystroke_p	p	n/a
215.5285	0.045	431057	keystroke_Key.space	Key.space	n/a
216.4585	0.0745	432917	keystroke_p	p	n/a
216.6835	0.06	433367	keystroke_i	i	n/a
216.7735	0.06	433547	keystroke_c	c	n/a
216.9685	0.105	433937	keystroke_h	h	n/a
217.1185	0.105	434237	keystroke_u	u	n/a
217.1785	0.105	434357	keystroke_n	n	n/a
217.2985	0.09	434597	keystroke_t	t	n/a
217.3585	0.1495	434717	keystroke_e	e	n/a
217.4635	0.075	434927	keystroke_r	r	n/a
217.5835	0.045	435167	keystroke_Key.space	Key.space	n/a
218.4685	0.105	436937	keystroke_j	j	n/a
218.6775	0.075	437355	keystroke_u	u	n/a
218.8425	0.0905	437685	keystroke_l	l	n/a
218.9475	0.09	437895	keystroke_i	i	n/a
219.0525	0.061	438105	keystroke_e	e	n/a
219.398	0.06	438796	keystroke_Key.enter	Key.enter	n/a
219.4645	12.986	438929	prompt	n/a	biography anti privilege adopted\n
220.2685	0.0745	440537	keystroke_b	b	n/a
220.433	0.2105	440866	keystroke_i	i	n/a
220.6725	0.106	441345	keystroke_o	o	n/a
221.0485	0.0455	442097	keystroke_h	h	n/a
221.3785	0.06	442757	keystroke_Key.backspace	Key.backspace	n/a
221.4685	0.06	442937	keystroke_g	g	n/a
221.6335	0.075	443267	keystroke_r	r	n/a
221.8885	0.06	443777	keystroke_a	a	n/a
222.0235	0.09	444047	keystroke_p	p	n/a
222.233	0.06	444466	keystroke_h	h	n/a
222.4285	0.06	444857	keystroke_y	y	n/a
222.4735	0.015	444947	keystroke_t	t	n/a
222.5175	0.075	445035	keystroke_Key.space	Key.space	n/a
222.983	0.0605	445966	keystroke_=	=	n/a
223.1175	0.061	446235	keystroke_=	=	n/a
223.8835	0.0745	447767	keystroke_Key.backspace	Key.backspace	n/a
224.063	0.06	448126	keystroke_Key.backspace	Key.backspace	n/a
224.288	0.075	448576	keystroke_Key.backspace	Key.backspace	n/a
224.6025	0.061	449205	keystroke_Key.backspace	Key.backspace	n/a
224.8275	0.06	449655	keystroke_Key.space	Key.space	n/a
225.699	0.0585	451398	keystroke_a	a	n/a
225.8035	0.0745	451607	keystroke_n	n	n/a
225.9385	0.06	451877	keystroke_t	t	n/a
226.0585	0.075	452117	keystroke_i	i	n/a
226.178	0.0595	452356	keystroke_Key.space	Key.space	n/a
227.1085	0.09	454217	keystroke_p	p	n/a
227.184	0.0745	454368	keystroke_r	r	n/a
227.3485	0.09	454697	keystroke_i	i	n/a
227.4685	0.045	454937	keystroke_v	v	n/a
228.443	0.0755	456886	keystroke_i	i	n/a
228.623	0.09	457246	keystroke_l	l	n/a
228.773	0.06	457546	keystroke_e	e	n/a
228.909	0.1045	457818	keystroke_g	g	n/a
228.983	0.1205	457966	keystroke_e	e	n/a
229.133	0.045	458266	keystroke_Key.space	Key.space	n/a
229.748	0.105	459496	keystroke_a	a	n/a
229.8985	0.0745	459797	keystroke_d	d	n/a
230.063	0.0755	460126	keystroke_o	o	n/a
230.318	0.0145	460636	keystroke_p	p	n/a
230.3485	0.0455	460697	keystroke_e	e	n/a
230.9035	0.0595	461807	keystroke_Key.backspace	Key.backspace	n/a
231.009	0.104	462018	keystroke_t	t	n/a
231.0835	0.089	462167	keystroke_e	e	n/a
231.2635	0.075	462527	keystroke_d	d	n/a
232.3725	0.076	464745	keystroke_Key.enter	Key.enter	n/a
232.455	7.48	464910	prompt	n/a	clips investment denver monroe\n
233.2285	0.0745	466457	keystroke_c	c	n/a
233.318	0.1055	466636	keystroke_l	l	n/a
233.6485	0.105	467297	keystroke_i	i	n/a
233.8885	0.0895	467777	keystroke_p	p	n/a
234.0085	0.075	468017	keystroke_s	s	n/a
234.158	0.075	468316	keystroke_Key.space	Key.space	n/a
234.669	0.089	469338	keystroke_i	i	n/a
234.714	0.104	469428	keystroke_n	n	n/a
234.773	0.075	469546	keystroke_v	v	n/a
234.8635	0.1345	469727	keystroke_e	e	n/a
234.969	0.1345	469938	keystroke_s	s	n/a
235.088	0.0605	470176	keystroke_t	t	n/a
235.299	0.104	470598	keystroke_m	m	n/a
235.463	0.075	470926	keystroke_e	e	n/a
235.6285	0.105	471257	keystroke_n	n	n/a
235.7785	0.0445	471557	keystroke_t	t	n/a
235.883	0.0605	471766	keystroke_Key.space	Key.space	n/a
236.5135	0.0595	473027	keystroke_d	d	n/a
236.6935	0.03	473387	keystroke_e	e	n/a
236.768	0.075	473536	keystroke_n	n	n/a
236.904	0.074	473808	keystroke_v	v	n/a
237.009	0.1345	474018	keystroke_e	e	n/a
237.1285	0.075	474257	keystroke_r	r	n/a
237.293	0.0455	474586	keystroke_Key.space	Key.space	n/a
238.209	0.0595	476418	keystroke_m	m	n/a
238.3135	0.15	476627	keystroke_o	o	n/a
238.4185	0.09	476837	keystroke_n	n	n/a
238.524	0.075	477048	keystroke_r	r	n/a
238.6285	0.0905	477257	keystroke_o	o	n/a
238.7335	0.075	477467	keystroke_e	e	n/a
239.8585	0.0745	479717	keystroke_Key.enter	Key.enter	n/a
239.94	6.685	479880	prompt	n/a	recreation warrant distant cork\n
240.7285	0.0895	481457	keystroke_r	r	n/a
240.7885	0.12	481577	keystroke_e	e	n/a
240.954	0.1195	481908	keystroke_c	c	n/a
241.1485	0.1205	482297	keystroke_r	r	n/a
241.254	0.12	482508	keystroke_e	e	n/a
241.358	0.105	482716	keystroke_a	a	n/a
241.419	0.075	482838	keystroke_t	t	n/a
241.583	0.24	483166	keystroke_i	i	n/a
241.658	0.1505	483316	keystroke_o	o	n/a
241.718	0.12	483436	keystroke_n	n	n/a
241.823	0.09	483646	keystroke_Key.space	Key.space	n/a
242.4685	0.089	484937	keystroke_w	w	n/a
242.618	0.105	485236	keystroke_a	a	n/a
242.708	0.0755	485416	keystroke_r	r	n/a
242.843	0.1205	485686	keystroke_r	r	n/a
242.948	0.06	485896	keystroke_a	a	n/a
243.0385	0.0895	486077	keystroke_n	n	n/a
243.1435	0.0595	486287	keystroke_t	t	n/a
243.2335	0.0745	486467	keystroke_Key.space	Key.space	n/a
243.878	0.06	487756	keystroke_d	d	n/a
244.013	0.0755	488026	keystroke_i	i	n/a
244.073	0.0755	488146	keystroke_s	s	n/a
244.209	0.044	488418	keystroke_t	t	n/a
244.283	0.0905	488566	keystroke_a	a	n/a
244.359	0.0885	488718	keystroke_n	n	n/a
244.478	0.06	488956	keystroke_t	t	n/a
244.583	0.0755	489166	keystroke_Key.space	Key.space	n/a
245.244	0.0745	490488	keystroke_c	c	n/a
245.3335	0.045	490667	keystroke_o	o	n/a
245.408	0.06	490816	keystroke_r	r	n/a
245.828	0.075	491656	keystroke_k	k	n/a
246.563	0.0605	493126	keystroke_Key.enter	Key.enter	n/a
246.629	9.2665	493258	prompt	n/a	alto sense supervisor polish\n
247.2685	0.12	494537	keystroke_a	a	n/a
247.493	0.075	494986	keystroke_l	l	n/a
247.598	0.0755	495196	keystroke_t	t	n/a
247.853	0.0605	495706	keystroke_o	o	n/a
247.988	0.075	495976	keystroke_Key.space	Key.space	n/a
248.5285	0.0605	497057	keystroke_s	s	n/a
248.6325	0.076	497265	keystroke_e	e	n/a
248.7225	0.076	497445	keystroke_n	n	n/a
248.8135	0.075	497627	keystroke_s	s	n/a
248.8735	0.075	497747	keystroke_e	e	n/a
249.0535	0.06	498107	keystroke_Key.space	Key.space	n/a
249.8635	0.15	499727	keystroke_s	s	n/a
250.0285	0.09	500057	keystroke_p	p	n/a
250.4035	0.075	500807	keystroke_Key.backspace	Key.backspace	n/a
250.6285	0.075	501257	keystroke_u	u	n/a
250.7935	0.09	501587	keystroke_p	p	n/a
250.8985	0.105	501797	keystroke_e	e	n/a
250.9885	0.074	501977	keystroke_r	r	n/a
251.2585	0.06	502517	keystroke_v	v	n/a
251.3335	0.076	502667	keystroke_i	i	n/a
251.499	0.0745	502998	keystroke_s	s	n/a
251.6635	0.075	503327	keystroke_o	o	n/a
251.7685	0.09	503537	keystroke_r	r	n/a
251.9035	0.06	503807	keystroke_Key.space	Key.space	n/a
252.6835	0.09	505367	keystroke_o	o	n/a
253.058	0.0455	506116	keystroke_=	=	n/a
253.7775	0.046	507555	keystroke_Key.backspace	Key.backspace	n/a
253.8985	0.06	507797	keystroke_Key.backspace	Key.backspace	n/a
254.3185	0.059	508637	keystroke_p	p	n/a
254.5135	0.0595	509027	keystroke_o	o	n/a
254.664	0.0595	509328	keystroke_l	l	n/a
254.9035	0.075	509807	keystroke_i	i	n/a
254.9935	0.075	509987	keystroke_s	s	n/a
255.1435	0.06	510287	keystroke_h	h	n/a
255.8185	0.075	511637	keystroke_Key.enter	Key.enter	n/a
255.8985	9.656	511797	prompt	n/a	support contest baghdad accounts\n
256.6585	0.0755	513317	keystroke_s	s	n/a
256.7935	0.06	513587	keystroke_u	u	n/a
256.9435	0.075	513887	keystroke_p	p	n/a
257.0785	0.075	514157	keystroke_p	p	n/a
257.2435	0.06	514487	keystroke_o	o	n/a
257.3185	0.0595	514637	keystroke_r	r	n/a
257.484	0.059	514968	keystroke_t	t	n/a
257.573	0.0755	515146	keystroke_Key.space	Key.space	n/a
258.3085	0.09	516617	keystroke_c	c	n/a
258.384	0.1045	516768	keystroke_o	o	n/a
258.4585	0.09	516917	keystroke_n	n	n/a
258.5935	0.09	517187	keystroke_t	t	n/a
258.6685	0.105	517337	keystroke_e	e	n/a
258.7885	0.15	517577	keystroke_s	s	n/a
258.893	0.0905	517786	keystroke_t	t	n/a
258.998	0.075	517996	keystroke_Key.space	Key.space	n/a
260.1085	0.075	520217	keystroke_b	b	n/a
260.228	0.076	520456	keystroke_a	a	n/a
260.693	0.0455	521386	keystroke_g	g	n/a
261.068	0.075	522136	keystroke_h	h	n/a
261.428	0.076	522856	keystroke_d	d	n/a
261.533	0.15	523066	keystroke_a	a	n/a
261.774	0.0595	523548	keystroke_d	d	n/a
261.9535	0.059	523907	keystroke_Key.space	Key.space	n/a
262.464	0.0595	524928	keystroke_c	c	n/a
262.853	0.045	525706	keystroke_Key.backspace	Key.backspace	n/a
262.9885	0.075	525977	keystroke_a	a	n/a
263.1085	0.03	526217	keystroke_c	c	n/a
263.2285	0.045	526457	keystroke_c	c	n/a
263.3945	0.089	526789	keystroke_o	o	n/a
263.4385	0.075	526877	keystroke_u	u	n/a
263.6185	0.06	527237	keystroke_n	n	n/a
263.6935	0.0745	527387	keystroke_t	t	n/a
263.783	0.076	527566	keystroke_s	s	n/a
265.5385	0.014	531077	keystroke_Key.enter	Key.enter	n/a
265.5575	9.0125	531115	prompt	n/a	editorial seas ordinary vast\n
266.318	0.045	532636	keystroke_e	e	n/a
266.484	0.074	532968	keystroke_d	d	n/a
266.6035	0.075	533207	keystroke_i	i	n/a
266.724	0.0595	533448	keystroke_t	t	n/a
266.8285	0.06	533657	keystroke_o	o	n/a
266.9335	0.06	533867	keystroke_r	r	n/a
267.0235	0.06	534047	keystroke_i	i	n/a
267.1885	0.075	534377	keystroke_a	a	n/a
267.4135	0.105	534827	keystroke_l	l	n/a
267.5775	0.0755	535155	keystroke_Key.space	Key.space	n/a
268.539	0.0745	537078	keystroke_s	s	n/a
268.629	0.0745	537258	keystroke_e	e	n/a
268.748	0.075	537496	keystroke_a	a	n/a
268.838	0.121	537676	keystroke_s	s	n/a
269.0035	0.06	538007	keystroke_Key.space	Key.space	n/a
269.7235	0.0595	539447	keystroke_c	c	n/a
270.0685	0.06	540137	keystroke_Key.backspace	Key.backspace	n/a
270.354	0.0595	540708	keystroke_p	p	n/a
270.369	0.0295	540738	keystroke_o	o	n/a
270.444	0.0595	540888	keystroke_r	r	n/a
270.9085	0.0145	541817	keystroke_Key.backspace	Key.backspace	n/a
270.968	0.045	541936	keystroke_Key.backspace	Key.backspace	n/a
271.178	0.0155	542356	keystroke_Key.backspace	Key.backspace	n/a
271.8985	0.0455	543797	keystroke_o	o	n/a
271.974	0.0595	543948	keystroke_r	r	n/a
272.244	0.075	544488	keystroke_d	d	n/a
272.364	0.119	544728	keystroke_i	i	n/a
272.438	0.1055	544876	keystroke_n	n	n/a
272.558	0.1055	545116	keystroke_a	a	n/a
272.6935	0.06	545387	keystroke_r	r	n/a
272.814	0.0585	545628	keystroke_y	y	n/a
272.9185	0.09	545837	keystroke_Key.space	Key.space	n/a
273.6535	0.105	547307	keystroke_v	v	n/a
273.744	0.1045	547488	keystroke_a	a	n/a
273.8185	0.18	547637	keystroke_s	s	n/a
273.9535	0.075	547907	keystroke_t	t	n/a
274.5235	0.045	549047	keystroke_Key.enter	Key.enter	n/a
274.5765	7.3435	549153	prompt	n/a	robots portable employ grew\n
275.334	0.074	550668	keystroke_r	r	n/a
275.4235	0.06	550847	keystroke_o	o	n/a
275.5285	0.09	551057	keystroke_b	b	n/a
275.663	0.09	551326	keystroke_o	o	n/a
275.7685	0.135	551537	keystroke_t	t	n/a
275.8885	0.1195	551777	keystroke_s	s	n/a
275.9935	0.0745	551987	keystroke_Key.space	Key.space	n/a
276.788	0.075	553576	keystroke_p	p	n/a
276.968	0.06	553936	keystroke_o	o	n/a
277.013	0.0755	554026	keystroke_r	r	n/a
277.1785	0.0755	554357	keystroke_t	t	n/a
277.2685	0.0595	554537	keystroke_a	a	n/a
277.343	0.0605	554686	keystroke_b	b	n/a
277.478	0.0755	554956	keystroke_l	l	n/a
277.568	0.0605	555136	keystroke_e	e	n/a
277.6735	0.06	555347	keystroke_Key.space	Key.space	n/a
278.379	0.059	556758	keystroke_e	e	n/a
278.498	0.09	556996	keystroke_m	m	n/a
278.6185	0.06	557237	keystroke_p	p	n/a
278.903	0.0605	557806	keystroke_l	l	n/a
279.084	0.044	558168	keystroke_o	o	n/a
279.248	0.0605	558496	keystroke_y	y	n/a
279.3385	0.0745	558677	keystroke_e	e	n/a
279.4885	0.0745	558977	keystroke_Key.space	Key.space	n/a
279.8635	0.045	559727	keystroke_Key.backspace	Key.backspace	n/a
279.9835	0.0745	559967	keystroke_Key.backspace	Key.backspace	n/a
280.148	0.075	560296	keystroke_Key.space	Key.space	n/a
280.9435	0.045	561887	keystroke_g	g	n/a
281.1085	0.1345	562217	keystroke_r	r	n/a
281.168	0.18	562336	keystroke_e	e	n/a
281.259	0.1345	562518	keystroke_w	w	n/a
281.8435	0.075	563687	keystroke_Key.enter	Key.enter	n/a
281.923	9.852	563846	prompt	n/a	sponsorship marvel context phpbb\n
282.6235	0.09	565247	keystroke_s	s	n/a
282.774	0.075	565548	keystroke_p	p	n/a
282.969	0.09	565938	keystroke_o	o	n/a
283.074	0.0895	566148	keystroke_n	n	n/a
283.193	0.091	566386	keystroke_s	s	n/a
283.6435	0.0595	567287	keystroke_o	o	n/a
283.7485	0.0595	567497	keystroke_r	r	n/a
283.958	0.045	567916	keystroke_s	s	n/a
284.0335	0.09	568067	keystroke_h	h	n/a
284.0635	0.1045	568127	keystroke_i	i	n/a
284.3335	0.075	568667	keystroke_p	p	n/a
284.4985	0.075	568997	keystroke_Key.space	Key.space	n/a
285.128	0.0605	570256	keystroke_r	r	n/a
285.428	0.0595	570856	keystroke_Key.backspace	Key.backspace	n/a
285.684	0.0745	571368	keystroke_m	m	n/a
285.699	0.1345	571398	keystroke_a	a	n/a
285.8035	0.0605	571607	keystroke_r	r	n/a
285.9985	0.0595	571997	keystroke_v	v	n/a
286.0435	0.075	572087	keystroke_e	e	n/a
286.1335	0.06	572267	keystroke_l	l	n/a
286.2535	0.06	572507	keystroke_Key.space	Key.space	n/a
286.9885	0.09	573977	keystroke_c	c	n/a
287.0935	0.105	574187	keystroke_o	o	n/a
287.168	0.0755	574336	keystroke_n	n	n/a
287.303	0.121	574606	keystroke_t	t	n/a
287.393	0.061	574786	keystroke_e	e	n/a
287.6185	0.09	575237	keystroke_x	x	n/a
287.7535	0.045	575507	keystroke_t	t	n/a
288.0685	0.075	576137	keystroke_Key.space	Key.space	n/a
288.953	0.0755	577906	keystroke_p	p	n/a
289.208	0.06	578416	keystroke_h	h	n/a
289.5535	0.06	579107	keystroke_p	p	n/a
289.9585	0.03	579917	keystroke_b	b	n/a
290.0635	0.06	580127	keystroke_b	b	n/a
291.728	0.045	583456	keystroke_Key.enter	Key.enter	n/a
291.7795	4.7805	583559	prompt	n/a	rough arch native wake\n
292.5085	0.0445	585017	keystroke_r	r	n/a
292.6135	0.1045	585227	keystroke_o	o	n/a
292.673	0.076	585346	keystroke_u	u	n/a
292.793	0.061	585586	keystroke_g	g	n/a
292.868	0.0755	585736	keystroke_h	h	n/a
292.9435	0.075	585887	keystroke_Key.space	Key.space	n/a
293.078	0.0905	586156	keystroke_a	a	n/a
293.1535	0.0895	586307	keystroke_r	r	n/a
293.348	0.075	586696	keystroke_c	c	n/a
293.438	0.061	586876	keystroke_h	h	n/a
293.513	0.076	587026	keystroke_Key.space	Key.space	n/a
293.8585	0.0745	587717	keystroke_n	n	n/a
293.948	0.091	587896	keystroke_a	a	n/a
294.039	0.06	588078	keystroke_t	t	n/a
294.129	0.0745	588258	keystroke_i	i	n/a
294.233	0.0905	588466	keystroke_v	v	n/a
294.3085	0.0895	588617	keystroke_e	e	n/a
294.4435	0.0595	588887	keystroke_Key.space	Key.space	n/a
295.0875	0.0755	590175	keystroke_w	w	n/a
295.2235	0.074	590447	keystroke_k	k	n/a
295.3285	0.0755	590657	keystroke_a	a	n/a
295.5985	0.06	591197	keystroke_Key.backspace	Key.backspace	n/a
295.718	0.0755	591436	keystroke_Key.backspace	Key.backspace	n/a
295.8535	0.06	591707	keystroke_a	a	n/a
295.943	0.0905	591886	keystroke_k	k	n/a
296.049	0.0445	592098	keystroke_e	e	n/a
296.4825	0.075	592965	keystroke_Key.enter	Key.enter	n/a
296.5635	6.4615	593127	prompt	n/a	elements retreat tuesday color\n
297.114	0.0445	594228	keystroke_e	e	n/a
297.234	0.089	594468	keystroke_l	l	n/a
297.3385	0.0445	594677	keystroke_e	e	n/a
297.414	0.09	594828	keystroke_m	m	n/a
297.519	0.059	595038	keystroke_e	e	n/a
297.609	0.074	595218	keystroke_n	n	n/a
297.699	0.09	595398	keystroke_t	t	n/a
297.79	0.104	595580	keystroke_s	s	n/a
297.878	0.06	595756	keystroke_Key.space	Key.space	n/a
298.523	0.1355	597046	keystroke_r	r	n/a
298.6135	0.105	597227	keystroke_e	e	n/a
299.0035	0.075	598007	keystroke_t	t	n/a
299.2285	0.12	598457	keystroke_r	r	n/a
299.3185	0.12	598637	keystroke_e	e	n/a
299.409	0.1195	598818	keystroke_a	a	n/a
299.4835	0.075	598967	keystroke_t	t	n/a
299.6635	0.06	599327	keystroke_Key.space	Key.space	n/a
300.533	0.0905	601066	keystroke_t	t	n/a
300.6835	0.09	601367	keystroke_u	u	n/a
300.9085	0.09	601817	keystroke_e	e	n/a
301.1335	0.09	602267	keystroke_s	s	n/a
301.2085	0.12	602417	keystroke_d	d	n/a
301.3435	0.06	602687	keystroke_a	a	n/a
301.4335	0.09	602867	keystroke_y	y	n/a
301.6285	0.06	603257	keystroke_Key.space	Key.space	n/a
302.1385	0.075	604277	keystroke_c	c	n/a
302.2735	0.075	604547	keystroke_o	o	n/a
302.4385	0.075	604877	keystroke_l	l	n/a
302.6035	0.075	605207	keystroke_o	o	n/a
302.6935	0.06	605387	keystroke_r	r	n/a
302.9635	0.0595	605927	keystroke_Key.enter	Key.enter	n/a
303.028	7.782	606056	prompt	n/a	tomorrow nationwide ricky mass\n
303.6985	0.06	607397	keystroke_t	t	n/a
303.8335	0.09	607667	keystroke_o	o	n/a
303.909	0.0745	607818	keystroke_m	m	n/a
304.0285	0.075	608057	keystroke_o	o	n/a
304.1635	0.075	608327	keystroke_o	o	n/a
304.2535	0.06	608507	keystroke_r	r	n/a
304.3585	0.09	608717	keystroke_o	o	n/a
304.449	0.0595	608898	keystroke_w	w	n/a
304.613	0.06	609226	keystroke_Key.space	Key.space	n/a
304.988	0.03	609976	keystroke_Key.backspace	Key.backspace	n/a
305.108	0.0605	610216	keystroke_Key.backspace	Key.backspace	n/a
305.243	0.045	610486	keystroke_Key.backspace	Key.backspace	n/a
305.378	0.075	610756	keystroke_Key.backspace	Key.backspace	n/a
305.588	0.075	611176	keystroke_Key.backspace	Key.backspace	n/a
305.7835	0.06	611567	keystroke_r	r	n/a
305.9185	0.06	611837	keystroke_r	r	n/a
305.9935	0.075	611987	keystroke_o	o	n/a
306.0985	0.105	612197	keystroke_w	w	n/a
306.2185	0.06	612437	keystroke_Key.space	Key.space	n/a
307.028	0.0905	614056	keystroke_n	n	n/a
307.104	0.1045	614208	keystroke_a	a	n/a
307.2225	0.0465	614445	keystroke_t	t	n/a
307.2835	0.21	614567	keystroke_i	i	n/a
307.3435	0.1345	614687	keystroke_o	o	n/a
307.3885	0.12	614777	keystroke_n	n	n/a
307.5235	0.0745	615047	keystroke_w	w	n/a
307.6885	0.06	615377	keystroke_i	i	n/a
307.7785	0.045	615557	keystroke_d	d	n/a
307.9285	0.0455	615857	keystroke_e	e	n/a
308.003	0.105	616006	keystroke_Key.space	Key.space	n/a
308.603	0.06	617206	keystroke_r	r	n/a
308.6935	0.0595	617387	keystroke_i	i	n/a
308.7985	0.0595	617597	keystroke_c	c	n/a
308.843	0.075	617686	keystroke_k	k	n/a
309.0385	0.045	618077	keystroke_y	y	n/a
309.143	0.0755	618286	keystroke_Key.space	Key.space	n/a
309.9085	0.075	619817	keystroke_m	m	n/a
309.984	0.0895	619968	keystroke_a	a	n/a
310.1485	0.075	620297	keystroke_s	s	n/a
310.2685	0.09	620537	keystroke_s	s	n/a
310.7475	0.061	621495	keystroke_Key.enter	Key.enter	n/a
310.815	7.7205	621630	prompt	n/a	arthur anyway feeling delaware\n
311.6335	0.15	623267	keystroke_a	a	n/a
311.7685	0.075	623537	keystroke_r	r	n/a
311.9485	0.0605	623897	keystroke_t	t	n/a
312.023	0.0905	624046	keystroke_h	h	n/a
312.1285	0.075	624257	keystroke_u	u	n/a
312.2335	0.045	624467	keystroke_r	r	n/a
312.3235	0.06	624647	keystroke_Key.space	Key.space	n/a
313.058	0.0605	626116	keystroke_a	a	n/a
313.133	0.0755	626266	keystroke_n	n	n/a
313.329	0.059	626658	keystroke_y	y	n/a
313.418	0.1205	626836	keystroke_w	w	n/a
313.5535	0.09	627107	keystroke_a	a	n/a
313.6735	0.06	627347	keystroke_u	u	n/a
314.2885	0.09	628577	keystroke_Key.backspace	Key.backspace	n/a
314.4685	0.0595	628937	keystroke_y	y	n/a
314.6785	0.06	629357	keystroke_Key.space	Key.space	n/a
315.3535	0.075	630707	keystroke_f	f	n/a
315.4885	0.06	630977	keystroke_e	e	n/a
315.6385	0.09	631277	keystroke_e	e	n/a
315.714	0.0895	631428	keystroke_l	l	n/a
315.8785	0.09	631757	keystroke_i	i	n/a
315.9535	0.09	631907	keystroke_n	n	n/a
315.9985	0.075	631997	keystroke_g	g	n/a
316.1035	0.06	632207	keystroke_Key.space	Key.space	n/a
316.9285	0.06	633857	keystroke_d	d	n/a
317.1085	0.045	634217	keystroke_e	e	n/a
317.199	0.0895	634398	keystroke_l	l	n/a
317.3035	0.0755	634607	keystroke_a	a	n/a
317.483	0.0605	634966	keystroke_w	w	n/a
317.6035	0.09	635207	keystroke_a	a	n/a
317.7085	0.105	635417	keystroke_r	r	n/a
317.7835	0.0905	635567	keystroke_e	e	n/a
318.4585	0.075	636917	keystroke_Key.enter	Key.enter	n/a
318.539	7.616	637078	prompt	n/a	february interstate stack kyle\n
319.508	0.0155	639016	keystroke_f	f	n/a
319.569	0.0745	639138	keystroke_e	e	n/a
319.868	0.075	639736	keystroke_b	b	n/a
319.988	0.061	639976	keystroke_r	r	n/a
320.093	0.0755	640186	keystroke_u	u	n/a
320.184	0.12	640368	keystroke_a	a	n/a
320.259	0.06	640518	keystroke_r	r	n/a
320.3485	0.0755	640697	keystroke_y	y	n/a
320.483	0.045	640966	keystroke_Key.space	Key.space	n/a
322.403	0.105	644806	keystroke_i	i	n/a
322.4635	0.1055	644927	keystroke_n	n	n/a
322.583	0.076	645166	keystroke_t	t	n/a
322.644	0.119	645288	keystroke_e	e	n/a
322.748	0.0905	645496	keystroke_r	r	n/a
322.898	0.1055	645796	keystroke_s	s	n/a
323.0185	0.045	646037	keystroke_t	t	n/a
323.1235	0.09	646247	keystroke_a	a	n/a
323.1835	0.105	646367	keystroke_t	t	n/a
323.2435	0.105	646487	keystroke_e	e	n/a
323.379	0.0745	646758	keystroke_Key.space	Key.space	n/a
324.144	0.0595	648288	keystroke_s	s	n/a
324.2335	0.075	648467	keystroke_t	t	n/a
324.338	0.1205	648676	keystroke_a	a	n/a
324.4435	0.1045	648887	keystroke_c	c	n/a
324.563	0.075	649126	keystroke_k	k	n/a
324.6685	0.075	649337	keystroke_Key.space	Key.space	n/a
325.178	0.0905	650356	keystroke_k	k	n/a
325.4035	0.0745	650807	keystroke_y	y	n/a
325.538	0.1055	651076	keystroke_l	l	n/a
325.6435	0.06	651287	keystroke_e	e	n/a
326.1085	0.0445	652217	keystroke_Key.enter	Key.enter	n/a
326.16	6.866	652320	prompt	n/a	warrant helpful amino illinois\n
326.7235	0.09	653447	keystroke_w	w	n/a
326.8735	0.09	653747	keystroke_a	a	n/a
326.9785	0.03	653957	keystroke_r	r	n/a
327.0835	0.09	654167	keystroke_r	r	n/a
327.1585	0.075	654317	keystroke_a	a	n/a
327.2485	0.09	654497	keystroke_n	n	n/a
327.3685	0.0455	654737	keystroke_t	t	n/a
327.4285	0.075	654857	keystroke_Key.space	Key.space	n/a
328.3735	0.0455	656747	keystroke_h	h	n/a
328.4335	0.059	656867	keystroke_e	e	n/a
328.5385	0.075	657077	keystroke_l	l	n/a
328.719	0.045	657438	keystroke_p	p	n/a
328.8075	0.0455	657615	keystroke_f	f	n/a
328.929	0.059	657858	keystroke_u	u	n/a
329.019	0.105	658038	keystroke_l	l	n/a
329.168	0.075	658336	keystroke_Key.space	Key.space	n/a
330.0085	0.075	660017	keystroke_a	a	n/a
330.0685	0.1205	660137	keystroke_m	m	n/a
330.2185	0.105	660437	keystroke_i	i	n/a
330.3085	0.06	660617	keystroke_n	n	n/a
330.3985	0.105	660797	keystroke_o	o	n/a
330.5185	0.059	661037	keystroke_Key.space	Key.space	n/a
331.314	0.089	662628	keystroke_i	i	n/a
331.539	0.0595	663078	keystroke_l	l	n/a
331.658	0.06	663316	keystroke_l	l	n/a
331.7785	0.0745	663557	keystroke_i	i	n/a
332.1835	0.045	664367	keystroke_n	n	n/a
332.3035	0.06	664607	keystroke_o	o	n/a
332.469	0.06	664938	keystroke_i	i	n/a
332.559	0.0895	665118	keystroke_s	s	n/a
332.978	0.045	665956	keystroke_Key.enter	Key.enter	n/a
333.0295	9.0255	666059	prompt	n/a	alot impressed fifteen focuses\n
334.2235	0.06	668447	keystroke_a	a	n/a
334.2535	0.075	668507	keystroke_l	l	n/a
334.464	0.0595	668928	keystroke_o	o	n/a
334.568	0.0605	669136	keystroke_t	t	n/a
334.6295	0.104	669259	keystroke_Key.space	Key.space	n/a
335.3485	0.09	670697	keystroke_i	i	n/a
335.454	0.0595	670908	keystroke_m	m	n/a
335.619	0.0595	671238	keystroke_p	p	n/a
335.7235	0.12	671447	keystroke_r	r	n/a
335.8135	0.09	671627	keystroke_e	e	n/a
336.0085	0.045	672017	keystroke_s	s	n/a
336.1285	0.1055	672257	keystroke_s	s	n/a
336.2635	0.06	672527	keystroke_e	e	n/a
336.3835	0.09	672767	keystroke_d	d	n/a
336.5335	0.075	673067	keystroke_Key.space	Key.space	n/a
337.328	0.046	674656	keystroke_f	f	n/a
337.434	0.075	674868	keystroke_i	i	n/a
337.494	0.059	674988	keystroke_f	f	n/a
337.703	0.061	675406	keystroke_t	t	n/a
337.914	0.0445	675828	keystroke_e	e	n/a
338.034	0.0745	676068	keystroke_e	e	n/a
338.1535	0.09	676307	keystroke_n	n	n/a
338.2585	0.075	676517	keystroke_Key.space	Key.space	n/a
338.5735	0.075	677147	keystroke_h	h	n/a
338.709	0.12	677418	keystroke_o	o	n/a
338.783	0.075	677566	keystroke_u	u	n/a
339.098	0.045	678196	keystroke_Key.backspace	Key.backspace	n/a
339.218	0.06	678436	keystroke_Key.backspace	Key.backspace	n/a
339.369	0.0745	678738	keystroke_Key.backspace	Key.backspace	n/a
339.5185	0.075	679037	keystroke_f	f	n/a
339.6085	0.075	679217	keystroke_o	o	n/a
339.729	0.0895	679458	keystroke_c	c	n/a
339.8485	0.0755	679697	keystroke_u	u	n/a
339.9835	0.135	679967	keystroke_s	s	n/a
340.0735	0.06	680147	keystroke_e	e	n/a
340.4035	0.0755	680807	keystroke_s	s	n/a
341.9935	0.06	683987	keystroke_Key.enter	Key.enter	n/a
342.059	7.181	684118	prompt	n/a	device projects relevance sleeping\n
342.7885	0.0455	685577	keystroke_d	d	n/a
342.938	0.061	685876	keystroke_e	e	n/a
343.1185	0.0595	686237	keystroke_v	v	n/a
343.209	0.074	686418	keystroke_i	i	n/a
343.298	0.0905	686596	keystroke_c	c	n/a
343.359	0.0895	686718	keystroke_e	e	n/a
343.4785	0.06	686957	keystroke_Key.space	Key.space	n/a
344.348	0.0605	688696	keystroke_p	p	n/a
344.423	0.06	688846	keystroke_r	r	n/a
344.5285	0.091	689057	keystroke_o	o	n/a
344.6045	0.089	689209	keystroke_j	j	n/a
344.709	0.0895	689418	keystroke_e	e	n/a
344.7535	0.09	689507	keystroke_c	c	n/a
344.9785	0.09	689957	keystroke_t	t	n/a
345.039	0.0895	690078	keystroke_s	s	n/a
345.1585	0.075	690317	keystroke_Key.space	Key.space	n/a
345.984	0.1345	691968	keystroke_r	r	n/a
346.089	0.0595	692178	keystroke_e	e	n/a
346.1935	0.09	692387	keystroke_l	l	n/a
346.2685	0.045	692537	keystroke_e	e	n/a
346.4335	0.09	692867	keystroke_v	v	n/a
346.5685	0.12	693137	keystroke_a	a	n/a
346.7785	0.075	693557	keystroke_n	n	n/a
347.0785	0.12	694157	keystroke_c	c	n/a
347.1835	0.06	694367	keystroke_e	e	n/a
347.3035	0.06	694607	keystroke_Key.space	Key.space	n/a
347.9635	0.09	695927	keystroke_s	s	n/a
348.069	0.09	696138	keystroke_l	l	n/a
348.1885	0.045	696377	keystroke_e	e	n/a
348.3235	0.06	696647	keystroke_e	e	n/a
348.4435	0.075	696887	keystroke_p	p	n/a
348.654	0.0745	697308	keystroke_i	i	n/a
348.6985	0.09	697397	keystroke_n	n	n/a
348.7735	0.03	697547	keystroke_g	g	n/a
349.178	0.06	698356	keystroke_Key.enter	Key.enter	n/a
349.2455	6.0995	698491	prompt	n/a	northern watt afterwards information\n
349.9735	0.015	699947	keystroke_n	n	n/a
350.0035	0.06	700007	keystroke_o	o	n/a
350.0785	0.06	700157	keystroke_r	r	n/a
350.229	0.06	700458	keystroke_t	t	n/a
350.2585	0.0605	700517	keystroke_h	h	n/a
350.363	0.091	700726	keystroke_e	e	n/a
350.438	0.075	700876	keystroke_r	r	n/a
350.528	0.06	701056	keystroke_n	n	n/a
350.633	0.0605	701266	keystroke_Key.space	Key.space	n/a
351.114	0.075	702228	keystroke_w	w	n/a
351.279	0.059	702558	keystroke_a	a	n/a
351.518	0.0455	703036	keystroke_t	t	n/a
351.6535	0.045	703307	keystroke_t	t	n/a
351.7435	0.06	703487	keystroke_Key.space	Key.space	n/a
352.0285	0.09	704057	keystroke_a	a	n/a
352.1335	0.075	704267	keystroke_f	f	n/a
352.3135	0.09	704627	keystroke_t	t	n/a
352.3885	0.12	704777	keystroke_e	e	n/a
352.4935	0.105	704987	keystroke_r	r	n/a
352.6135	0.075	705227	keystroke_w	w	n/a
352.7635	0.09	705527	keystroke_a	a	n/a
352.8685	0.075	705737	keystroke_r	r	n/a
352.9285	0.1345	705857	keystroke_d	d	n/a
353.0335	0.135	706067	keystroke_s	s	n/a
353.1835	0.0595	706367	keystroke_Key.space	Key.space	n/a
353.9035	0.0895	707807	keystroke_i	i	n/a
353.979	0.074	707958	keystroke_n	n	n/a
354.083	0.06	708166	keystroke_f	f	n/a
354.188	0.076	708376	keystroke_o	o	n/a
354.279	0.0445	708558	keystroke_r	r	n/a
354.339	0.089	708678	keystroke_m	m	n/a
354.488	0.105	708976	keystroke_a	a	n/a
354.578	0.0305	709156	keystroke_t	t	n/a
354.6235	0.195	709247	keystroke_i	i	n/a
354.6835	0.12	709367	keystroke_o	o	n/a
354.7435	0.12	709487	keystroke_n	n	n/a
355.2985	0.045	710597	keystroke_Key.enter	Key.enter	n/a
355.3495	8.6505	710699	prompt	n/a	attorneys egypt tent ecology\n
356.048	0.06	712096	keystroke_a	a	n/a
356.1835	0.0595	712367	keystroke_t	t	n/a
356.318	0.06	712636	keystroke_t	t	n/a
356.423	0.0755	712846	keystroke_o	o	n/a
356.5435	0.0595	713087	keystroke_r	r	n/a
356.708	0.09	713416	keystroke_n	n	n/a
356.8735	0.06	713747	keystroke_e	e	n/a
357.0535	0.075	714107	keystroke_y	y	n/a
357.1735	0.09	714347	keystroke_s	s	n/a
357.2785	0.075	714557	keystroke_Key.space	Key.space	n/a
358.074	0.059	716148	keystroke_e	e	n/a
358.239	0.045	716478	keystroke_g	g	n/a
358.4185	0.06	716837	keystroke_p	p	n/a
358.883	0.075	717766	keystroke_Key.backspace	Key.backspace	n/a
359.078	0.075	718156	keystroke_u	u	n/a
359.214	0.089	718428	keystroke_p	p	n/a
359.6035	0.0745	719207	keystroke_Key.backspace	Key.backspace	n/a
359.768	0.0605	719536	keystroke_Key.backspace	Key.backspace	n/a
360.3535	0.0145	720707	keystroke_y	y	n/a
360.5785	0.06	721157	keystroke_p	p	n/a
360.7135	0.075	721427	keystroke_t	t	n/a
360.8935	0.06	721787	keystroke_Key.space	Key.space	n/a
362.004	0.074	724008	keystroke_t	t	n/a
362.078	0.075	724156	keystroke_e	e	n/a
362.138	0.09	724276	keystroke_n	n	n/a
362.243	0.06	724486	keystroke_t	t	n/a
362.318	0.075	724636	keystroke_Key.space	Key.space	n/a
362.529	0.059	725058	keystroke_e	e	n/a
362.693	0.09	725386	keystroke_c	c	n/a
362.8885	0.0455	725777	keystroke_o	o	n/a
363.0385	0.06	726077	keystroke_l	l	n/a
363.2035	0.045	726407	keystroke_o	o	n/a
363.3535	0.045	726707	keystroke_g	g	n/a
363.4435	0.06	726887	keystroke_y	y	n/a
363.938	0.06	727876	keystroke_Key.enter	Key.enter	n/a
364.0045	6.6855	728009	prompt	n/a	stream theorem final isaac\n
364.7035	0.0905	729407	keystroke_s	s	n/a
364.7785	0.059	729557	keystroke_t	t	n/a
364.9275	0.136	729855	keystroke_r	r	n/a
365.0185	0.104	730037	keystroke_e	e	n/a
365.079	0.105	730158	keystroke_a	a	n/a
365.184	0.0745	730368	keystroke_m	m	n/a
365.3035	0.075	730607	keystroke_Key.space	Key.space	n/a
366.024	0.0445	732048	keystroke_t	t	n/a
366.1585	0.09	732317	keystroke_h	h	n/a
366.4735	0.0755	732947	keystroke_e	e	n/a
366.8185	0.075	733637	keystroke_o	o	n/a
367.0135	0.06	734027	keystroke_r	r	n/a
367.3285	0.06	734657	keystroke_e	e	n/a
367.4035	0.075	734807	keystroke_m	m	n/a
367.5385	0.075	735077	keystroke_Key.space	Key.space	n/a
368.079	0.0745	736158	keystroke_f	f	n/a
368.1835	0.075	736367	keystroke_i	i	n/a
368.2885	0.105	736577	keystroke_n	n	n/a
368.4235	0.075	736847	keystroke_a	a	n/a
368.4685	0.09	736937	keystroke_l	l	n/a
368.5885	0.0895	737177	keystroke_Key.space	Key.space	n/a
368.738	0.075	737476	keystroke_i	i	n/a
369.1135	0.0445	738227	keystroke_s	s	n/a
369.473	0.0155	738946	keystroke_a	a	n/a
369.518	0.1045	739036	keystroke_a	a	n/a
369.773	0.0605	739546	keystroke_c	c	n/a
370.6135	0.075	741227	keystroke_Key.enter	Key.enter	n/a
370.6945	8.576	741389	prompt	n/a	placing platinum until bundle\n
371.3485	0.0605	742697	keystroke_p	p	n/a
371.528	0.045	743056	keystroke_l	l	n/a
371.5885	0.12	743177	keystroke_a	a	n/a
371.6785	0.0745	743357	keystroke_c	c	n/a
371.7985	0.09	743597	keystroke_i	i	n/a
371.858	0.1055	743716	keystroke_n	n	n/a
371.948	0.0455	743896	keystroke_g	g	n/a
372.0535	0.0745	744107	keystroke_Key.space	Key.space	n/a
372.503	0.075	745006	keystroke_o	o	n/a
373.2835	0.06	746567	keystroke_Key.backspace	Key.backspace	n/a
373.8385	0.075	747677	keystroke_p	p	n/a
374.0335	0.045	748067	keystroke_l	l	n/a
374.0935	0.075	748187	keystroke_a	a	n/a
374.2445	0.074	748489	keystroke_t	t	n/a
374.3635	0.075	748727	keystroke_i	i	n/a
374.4535	0.12	748907	keystroke_n	n	n/a
374.9635	0.045	749927	keystroke_u	u	n/a
375.1735	0.0745	750347	keystroke_m	m	n/a
375.278	0.075	750556	keystroke_Key.space	Key.space	n/a
376.1185	0.045	752237	keystroke_u	u	n/a
376.2685	0.0745	752537	keystroke_n	n	n/a
376.4035	0.0745	752807	keystroke_t	t	n/a
376.524	0.0895	753048	keystroke_i	i	n/a
376.6435	0.1205	753287	keystroke_l	l	n/a
376.7785	0.105	753557	keystroke_Key.space	Key.space	n/a
377.0035	0.09	754007	keystroke_b	b	n/a
377.2135	0.09	754427	keystroke_u	u	n/a
377.3185	0.1045	754637	keystroke_n	n	n/a
377.438	0.076	754876	keystroke_d	d	n/a
377.5735	0.074	755147	keystroke_l	l	n/a
377.6625	0.031	755325	keystroke_e	e	n/a
379.208	0.06	758416	keystroke_Key.enter	Key.enter	n/a
379.2745	8.9065	758549	prompt	n/a	contributor projects grown missile\n
379.8535	0.0905	759707	keystroke_c	c	n/a
379.974	0.0895	759948	keystroke_o	o	n/a
380.034	0.089	760068	keystroke_n	n	n/a
380.108	0.0455	760216	keystroke_t	t	n/a
380.229	0.0745	760458	keystroke_r	r	n/a
380.2725	0.1205	760545	keystroke_i	i	n/a
380.5285	0.105	761057	keystroke_b	b	n/a
380.6185	0.1055	761237	keystroke_u	u	n/a
380.948	0.06	761896	keystroke_t	t	n/a
381.068	0.061	762136	keystroke_i	i	n/a
381.144	0.059	762288	keystroke_r	r	n/a
381.4885	0.075	762977	keystroke_=	=	n/a
381.6385	0.06	763277	keystroke_=	=	n/a
381.923	0.06	763846	keystroke_Key.backspace	Key.backspace	n/a
382.088	0.045	764176	keystroke_Key.backspace	Key.backspace	n/a
382.193	0.0755	764386	keystroke_Key.backspace	Key.backspace	n/a
382.343	0.0905	764686	keystroke_Key.backspace	Key.backspace	n/a
382.539	0.074	765078	keystroke_o	o	n/a
382.628	0.06	765256	keystroke_r	r	n/a
382.718	0.0745	765436	keystroke_Key.space	Key.space	n/a
383.484	0.0745	766968	keystroke_p	p	n/a
383.5735	0.075	767147	keystroke_r	r	n/a
383.6935	0.075	767387	keystroke_o	o	n/a
383.7535	0.09	767507	keystroke_j	j	n/a
383.8285	0.12	767657	keystroke_e	e	n/a
383.9035	0.09	767807	keystroke_c	c	n/a
384.1135	0.06	768227	keystroke_t	t	n/a
384.2035	0.12	768407	keystroke_s	s	n/a
384.3235	0.059	768647	keystroke_Key.space	Key.space	n/a
385.0585	0.0595	770117	keystroke_g	g	n/a
385.208	0.0605	770416	keystroke_r	r	n/a
385.299	0.0595	770598	keystroke_o	o	n/a
385.373	0.0755	770746	keystroke_w	w	n/a
385.463	0.075	770926	keystroke_n	n	n/a
385.583	0.0905	771166	keystroke_Key.space	Key.space	n/a
385.839	0.059	771678	keystroke_m	m	n/a
385.943	0.135	771886	keystroke_i	i	n/a
386.183	0.135	772366	keystroke_s	s	n/a
386.393	0.075	772786	keystroke_s	s	n/a
386.558	0.135	773116	keystroke_i	i	n/a
386.7225	0.09	773445	keystroke_l	l	n/a
386.828	0.0755	773656	keystroke_e	e	n/a
388.1185	0.0595	776237	keystroke_Key.enter	Key.enter	n/a
388.185	9.67	776370	prompt	n/a	thinking searching transcript coaches\n
388.868	0.045	777736	keystroke_t	t	n/a
388.973	0.121	777946	keystroke_h	h	n/a
389.184	0.104	778368	keystroke_k	k	n/a
389.603	0.0605	779206	keystroke_Key.backspace	Key.backspace	n/a
389.9935	0.075	779987	keystroke_i	i	n/a
390.1285	0.09	780257	keystroke_n	n	n/a
390.2335	0.09	780467	keystroke_k	k	n/a
390.4285	0.075	780857	keystroke_i	i	n/a
390.4735	0.0905	780947	keystroke_n	n	n/a
390.5785	0.0595	781157	keystroke_g	g	n/a
390.653	0.09	781306	keystroke_Key.space	Key.space	n/a
390.879	0.0745	781758	keystroke_s	s	n/a
391.268	0.151	782536	keystroke_e	e	n/a
391.3885	0.12	782777	keystroke_a	a	n/a
391.478	0.06	782956	keystroke_r	r	n/a
391.6435	0.0745	783287	keystroke_c	c	n/a
391.7335	0.09	783467	keystroke_h	h	n/a
391.8385	0.12	783677	keystroke_i	i	n/a
391.9285	0.075	783857	keystroke_n	n	n/a
391.9885	0.06	783977	keystroke_g	g	n/a
392.0935	0.09	784187	keystroke_Key.space	Key.space	n/a
392.7835	0.045	785567	keystroke_t	t	n/a
392.8885	0.12	785777	keystroke_r	r	n/a
392.9785	0.1055	785957	keystroke_a	a	n/a
393.0535	0.12	786107	keystroke_n	n	n/a
393.2035	0.075	786407	keystroke_s	s	n/a
393.4285	0.015	786857	keystroke_c	c	n/a
393.4585	0.06	786917	keystroke_i	i	n/a
394.5235	0.075	789047	keystroke_Key.backspace	Key.backspace	n/a
394.644	0.059	789288	keystroke_r	r	n/a
394.958	0.105	789916	keystroke_i	i	n/a
395.2735	0.075	790547	keystroke_p	p	n/a
395.4685	0.045	790937	keystroke_t	t	n/a
395.6335	0.045	791267	keystroke_Key.space	Key.space	n/a
396.309	0.09	792618	keystroke_c	c	n/a
396.4435	0.06	792887	keystroke_o	o	n/a
396.5185	0.1205	793037	keystroke_a	a	n/a
396.624	0.075	793248	keystroke_c	c	n/a
396.7435	0.0595	793487	keystroke_h	h	n/a
396.894	0.119	793788	keystroke_e	e	n/a
396.984	0.105	793968	keystroke_s	s	n/a
397.7785	0.075	795557	keystroke_Key.enter	Key.enter	n/a
397.8595	6.085	795719	prompt	n/a	calgary designated boats huge\n
398.6485	0.09	797297	keystroke_c	c	n/a
398.7235	0.075	797447	keystroke_a	a	n/a
398.8285	0.075	797657	keystroke_l	l	n/a
399.0685	0.0895	798137	keystroke_g	g	n/a
399.173	0.12	798346	keystroke_a	a	n/a
399.278	0.0905	798556	keystroke_r	r	n/a
399.3985	0.075	798797	keystroke_y	y	n/a
399.5185	0.09	799037	keystroke_Key.space	Key.space	n/a
400.1935	0.18	800387	keystroke_d	d	n/a
400.3875	0.076	800775	keystroke_e	e	n/a
400.4335	0.1055	800867	keystroke_s	s	n/a
400.6135	0.105	801227	keystroke_i	i	n/a
400.793	0.06	801586	keystroke_g	g	n/a
400.8985	0.09	801797	keystroke_n	n	n/a
401.1235	0.1055	802247	keystroke_a	a	n/a
401.1985	0.15	802397	keystroke_t	t	n/a
401.3035	0.09	802607	keystroke_e	e	n/a
401.4685	0.09	802937	keystroke_d	d	n/a
401.6035	0.06	803207	keystroke_Key.space	Key.space	n/a
402.309	0.059	804618	keystroke_b	b	n/a
402.428	0.0755	804856	keystroke_o	o	n/a
402.4735	0.105	804947	keystroke_a	a	n/a
402.594	0.075	805188	keystroke_t	t	n/a
402.684	0.1195	805368	keystroke_s	s	n/a
402.804	0.059	805608	keystroke_Key.space	Key.space	n/a
403.1935	0.0745	806387	keystroke_h	h	n/a
403.283	0.0905	806566	keystroke_u	u	n/a
403.388	0.075	806776	keystroke_g	g	n/a
403.418	0.106	806836	keystroke_e	e	n/a
403.913	0.0305	807826	keystroke_Key.enter	Key.enter	n/a
403.948	7.8875	807896	prompt	n/a	exclusively integrate glory agrees\n
404.5735	0.135	809147	keystroke_e	e	n/a
404.7535	0.045	809507	keystroke_x	x	n/a
404.9035	0.075	809807	keystroke_c	c	n/a
405.054	0.1045	810108	keystroke_l	l	n/a
405.218	0.076	810436	keystroke_u	u	n/a
405.309	0.09	810618	keystroke_s	s	n/a
405.458	0.105	810916	keystroke_i	i	n/a
405.578	0.105	811156	keystroke_v	v	n/a
405.668	0.0905	811336	keystroke_e	e	n/a
405.818	0.1055	811636	keystroke_l	l	n/a
405.968	0.0905	811936	keystroke_y	y	n/a
406.1035	0.059	812207	keystroke_Key.space	Key.space	n/a
406.8685	0.105	813737	keystroke_i	i	n/a
406.958	0.0755	813916	keystroke_n	n	n/a
407.4685	0.1195	814937	keystroke_t	t	n/a
407.573	0.1055	815146	keystroke_e	e	n/a
407.754	0.06	815508	keystroke_g	g	n/a
407.9035	0.09	815807	keystroke_r	r	n/a
407.9785	0.105	815957	keystroke_a	a	n/a
408.0985	0.075	816197	keystroke_t	t	n/a
408.1435	0.105	816287	keystroke_e	e	n/a
408.308	0.0605	816616	keystroke_Key.space	Key.space	n/a
409.193	0.045	818386	keystroke_g	g	n/a
409.283	0.075	818566	keystroke_l	l	n/a
409.478	0.09	818956	keystroke_o	o	n/a
409.5835	0.0755	819167	keystroke_r	r	n/a
409.6885	0.06	819377	keystroke_y	y	n/a
409.7635	0.0745	819527	keystroke_Key.space	Key.space	n/a
410.4835	0.076	820967	keystroke_a	a	n/a
410.6335	0.06	821267	keystroke_g	g	n/a
410.7835	0.075	821567	keystroke_r	r	n/a
410.8885	0.075	821777	keystroke_e	e	n/a
411.0385	0.075	822077	keystroke_e	e	n/a
411.2035	0.0905	822407	keystroke_s	s	n/a
411.7735	0.06	823547	keystroke_Key.enter	Key.enter	n/a
411.84	7.5855	823680	prompt	n/a	operators illustrations toys gloves\n
412.689	0.075	825378	keystroke_o	o	n/a
412.8535	0.0755	825707	keystroke_p	p	n/a
412.8835	0.105	825767	keystroke_e	e	n/a
412.9585	0.0905	825917	keystroke_r	r	n/a
413.0785	0.1055	826157	keystroke_a	a	n/a
413.1685	0.06	826337	keystroke_t	t	n/a
413.2435	0.09	826487	keystroke_o	o	n/a
413.3485	0.0755	826697	keystroke_r	r	n/a
413.4685	0.1205	826937	keystroke_s	s	n/a
413.6185	0.06	827237	keystroke_Key.space	Key.space	n/a
414.669	0.12	829338	keystroke_i	i	n/a
414.894	0.06	829788	keystroke_l	l	n/a
415.029	0.074	830058	keystroke_l	l	n/a
415.209	0.075	830418	keystroke_u	u	n/a
415.299	0.089	830598	keystroke_s	s	n/a
415.434	0.06	830868	keystroke_t	t	n/a
415.554	0.1345	831108	keystroke_r	r	n/a
415.6435	0.0895	831287	keystroke_a	a	n/a
415.734	0.075	831468	keystroke_t	t	n/a
415.824	0.239	831648	keystroke_i	i	n/a
415.898	0.136	831796	keystroke_o	o	n/a
415.974	0.149	831948	keystroke_n	n	n/a
416.139	0.075	832278	keystroke_s	s	n/a
416.273	0.09	832546	keystroke_Key.space	Key.space	n/a
417.1435	0.045	834287	keystroke_t	t	n/a
417.2035	0.06	834407	keystroke_o	o	n/a
417.3685	0.045	834737	keystroke_y	y	n/a
417.4435	0.105	834887	keystroke_s	s	n/a
417.5635	0.06	835127	keystroke_Key.space	Key.space	n/a
417.7585	0.06	835517	keystroke_g	g	n/a
417.8485	0.0605	835697	keystroke_l	l	n/a
418.2545	0.059	836509	keystroke_o	o	n/a
418.4335	0.105	836867	keystroke_v	v	n/a
418.4935	0.1355	836987	keystroke_e	e	n/a
418.5985	0.0755	837197	keystroke_s	s	n/a
419.363	0.061	838726	keystroke_Key.enter	Key.enter	n/a
419.429	6.9115	838858	prompt	n/a	flickr farm reply peaceful\n
420.3535	0.09	840707	keystroke_f	f	n/a
420.4135	0.06	840827	keystroke_l	l	n/a
420.5785	0.06	841157	keystroke_i	i	n/a
420.6685	0.09	841337	keystroke_c	c	n/a
420.8935	0.09	841787	keystroke_k	k	n/a
421.089	0.0445	842178	keystroke_r	r	n/a
421.358	0.0755	842716	keystroke_Key.space	Key.space	n/a
421.7935	0.0905	843587	keystroke_f	f	n/a
421.9285	0.12	843857	keystroke_a	a	n/a
422.0335	0.06	844067	keystroke_r	r	n/a
422.0785	0.075	844157	keystroke_m	m	n/a
422.1985	0.075	844397	keystroke_Key.space	Key.space	n/a
423.038	0.09	846076	keystroke_r	r	n/a
423.083	0.105	846166	keystroke_e	e	n/a
423.1735	0.0595	846347	keystroke_p	p	n/a
423.339	0.074	846678	keystroke_l	l	n/a
423.534	0.059	847068	keystroke_y	y	n/a
423.638	0.0755	847276	keystroke_Key.space	Key.space	n/a
424.449	0.1195	848898	keystroke_p	p	n/a
424.524	0.1045	849048	keystroke_e	e	n/a
424.5985	0.211	849197	keystroke_a	a	n/a
425.1085	0.12	850217	keystroke_c	c	n/a
425.2735	0.075	850547	keystroke_e	e	n/a
425.5885	0.045	851177	keystroke_f	f	n/a
425.694	0.1345	851388	keystroke_u	u	n/a
425.8435	0.105	851687	keystroke_l	l	n/a
426.278	0.061	852556	keystroke_Key.enter	Key.enter	n/a
426.345	7.271	852690	prompt	n/a	cruz politicians police poland\n
427.1635	0.075	854327	keystroke_c	c	n/a
427.373	0.0605	854746	keystroke_r	r	n/a
427.509	0.074	855018	keystroke_u	u	n/a
427.599	0.0895	855198	keystroke_z	z	n/a
427.7185	0.0895	855437	keystroke_Key.space	Key.space	n/a
428.304	0.074	856608	keystroke_p	p	n/a
428.513	0.076	857026	keystroke_o	o	n/a
428.6785	0.075	857357	keystroke_l	l	n/a
428.8585	0.06	857717	keystroke_i	i	n/a
428.9485	0.075	857897	keystroke_t	t	n/a
429.0685	0.06	858137	keystroke_i	i	n/a
429.2335	0.075	858467	keystroke_c	c	n/a
429.368	0.061	858736	keystroke_i	i	n/a
429.714	0.0595	859428	keystroke_a	a	n/a
429.819	0.075	859638	keystroke_n	n	n/a
429.908	0.076	859816	keystroke_s	s	n/a
430.013	0.06	860026	keystroke_Key.space	Key.space	n/a
430.7785	0.1195	861557	keystroke_p	p	n/a
431.0785	0.0755	862157	keystroke_o	o	n/a
431.289	0.059	862578	keystroke_l	l	n/a
431.483	0.045	862966	keystroke_i	i	n/a
431.574	0.1045	863148	keystroke_c	c	n/a
431.633	0.09	863266	keystroke_e	e	n/a
431.738	0.06	863476	keystroke_Key.space	Key.space	n/a
432.309	0.09	864618	keystroke_p	p	n/a
432.5635	0.0905	865127	keystroke_o	o	n/a
432.759	0.0895	865518	keystroke_l	l	n/a
433.0285	0.075	866057	keystroke_a	a	n/a
433.1485	0.06	866297	keystroke_n	n	n/a
433.239	0.0595	866478	keystroke_d	d	n/a
433.553	0.061	867106	keystroke_Key.enter	Key.enter	n/a
433.6215	9.8195	867243	prompt	n/a	cognitive definitely doll why's\n
434.498	0.046	868996	keystroke_g	g	n/a
434.978	0.03	869956	keystroke_Key.backspace	Key.backspace	n/a
435.158	0.061	870316	keystroke_c	c	n/a
435.473	0.091	870946	keystroke_o	o	n/a
435.669	0.059	871338	keystroke_g	g	n/a
435.879	0.09	871758	keystroke_n	n	n/a
435.998	0.09	871996	keystroke_i	i	n/a
436.2385	0.0595	872477	keystroke_t	t	n/a
436.344	0.044	872688	keystroke_i	i	n/a
436.434	0.1045	872868	keystroke_v	v	n/a
436.5535	0.075	873107	keystroke_e	e	n/a
436.6585	0.06	873317	keystroke_Key.space	Key.space	n/a
437.154	0.0445	874308	keystroke_d	d	n/a
437.319	0.0445	874638	keystroke_e	e	n/a
437.4685	0.09	874937	keystroke_f	f	n/a
437.649	0.0445	875298	keystroke_i	i	n/a
437.6635	0.1055	875327	keystroke_n	n	n/a
437.7985	0.1045	875597	keystroke_i	i	n/a
437.858	0.09	875716	keystroke_t	t	n/a
437.9185	0.1055	875837	keystroke_e	e	n/a
438.038	0.0905	876076	keystroke_l	l	n/a
438.2335	0.06	876467	keystroke_y	y	n/a
438.3235	0.075	876647	keystroke_Key.space	Key.space	n/a
439.089	0.06	878178	keystroke_d	d	n/a
439.254	0.059	878508	keystroke_o	o	n/a
439.433	0.0455	878866	keystroke_l	l	n/a
439.554	0.075	879108	keystroke_l	l	n/a
439.689	0.089	879378	keystroke_Key.space	Key.space	n/a
439.808	0.076	879616	keystroke_w	w	n/a
439.868	0.091	879736	keystroke_h	h	n/a
440.049	0.059	880098	keystroke_t	t	n/a
440.064	0.015	880128	keystroke_y	y	n/a
441.1285	0.09	882257	keystroke_Key.backspace	Key.backspace	n/a
441.324	0.0445	882648	keystroke_Key.backspace	Key.backspace	n/a
441.639	0.0595	883278	keystroke_y	y	n/a
442.6285	0.1055	885257	keystroke_'	'	n/a
442.794	0.06	885588	keystroke_s	s	n/a
443.363	0.076	886726	keystroke_Key.enter	Key.enter	n/a
443.445	7.3905	886890	prompt	n/a	abroad assess reveals cheats\n
444.189	0.0445	888378	keystroke_a	a	n/a
444.3535	0.075	888707	keystroke_b	b	n/a
444.414	0.074	888828	keystroke_r	r	n/a
444.564	0.059	889128	keystroke_o	o	n/a
444.6535	0.09	889307	keystroke_a	a	n/a
444.728	0.0905	889456	keystroke_d	d	n/a
444.8035	0.09	889607	keystroke_Key.space	Key.space	n/a
445.6435	0.0755	891287	keystroke_a	a	n/a
445.794	0.075	891588	keystroke_s	s	n/a
445.914	0.105	891828	keystroke_s	s	n/a
446.049	0.075	892098	keystroke_e	e	n/a
446.199	0.075	892398	keystroke_s	s	n/a
446.349	0.09	892698	keystroke_s	s	n/a
446.484	0.074	892968	keystroke_Key.space	Key.space	n/a
447.264	0.135	894528	keystroke_r	r	n/a
447.369	0.075	894738	keystroke_e	e	n/a
447.564	0.03	895128	keystroke_v	v	n/a
447.624	0.2695	895248	keystroke_e	e	n/a
447.9085	0.105	895817	keystroke_a	a	n/a
448.0285	0.075	896057	keystroke_s	s	n/a
448.1485	0.1355	896297	keystroke_l	l	n/a
448.553	0.075	897106	keystroke_Key.backspace	Key.backspace	n/a
448.703	0.0605	897406	keystroke_Key.backspace	Key.backspace	n/a
448.9135	0.09	897827	keystroke_l	l	n/a
449.033	0.061	898066	keystroke_s	s	n/a
449.123	0.0755	898246	keystroke_Key.space	Key.space	n/a
449.874	0.1195	899748	keystroke_c	c	n/a
449.964	0.0745	899928	keystroke_h	h	n/a
450.0535	0.0905	900107	keystroke_e	e	n/a
450.1445	0.089	900289	keystroke_a	a	n/a
450.2485	0.105	900497	keystroke_t	t	n/a
450.3385	0.1055	900677	keystroke_s	s	n/a
450.7585	0.0755	901517	keystroke_Key.enter	Key.enter	n/a
450.8395	7.6605	901679	prompt	n/a	notify television passwords gambling\n
451.734	0.074	903468	keystroke_n	n	n/a
451.869	0.0745	903738	keystroke_o	o	n/a
451.959	0.0745	903918	keystroke_t	t	n/a
452.078	0.061	904156	keystroke_i	i	n/a
452.154	0.059	904308	keystroke_f	f	n/a
452.304	0.044	904608	keystroke_y	y	n/a
452.393	0.06	904786	keystroke_Key.space	Key.space	n/a
453.084	0.104	906168	keystroke_t	t	n/a
453.174	0.0745	906348	keystroke_e	e	n/a
453.278	0.106	906556	keystroke_l	l	n/a
453.368	0.0605	906736	keystroke_e	e	n/a
453.549	0.075	907098	keystroke_v	v	n/a
453.969	0.09	907938	keystroke_i	i	n/a
454.089	0.075	908178	keystroke_s	s	n/a
454.194	0.224	908388	keystroke_i	i	n/a
454.268	0.121	908536	keystroke_o	o	n/a
454.344	0.12	908688	keystroke_n	n	n/a
454.433	0.091	908866	keystroke_Key.space	Key.space	n/a
455.2435	0.0755	910487	keystroke_p	p	n/a
455.3335	0.0745	910667	keystroke_a	a	n/a
455.393	0.061	910786	keystroke_s	s	n/a
455.529	0.059	911058	keystroke_s	s	n/a
455.694	0.06	911388	keystroke_w	w	n/a
455.769	0.075	911538	keystroke_o	o	n/a
455.858	0.121	911716	keystroke_r	r	n/a
455.964	0.12	911928	keystroke_d	d	n/a
456.054	0.1195	912108	keystroke_s	s	n/a
456.2035	0.06	912407	keystroke_Key.space	Key.space	n/a
456.8335	0.045	913667	keystroke_c	c	n/a
457.148	0.06	914296	keystroke_Key.backspace	Key.backspace	n/a
457.253	0.075	914506	keystroke_g	g	n/a
457.343	0.09	914686	keystroke_a	a	n/a
457.448	0.075	914896	keystroke_m	m	n/a
457.6595	0.0595	915319	keystroke_b	b	n/a
457.7935	0.0755	915587	keystroke_l	l	n/a
457.989	0.0745	915978	keystroke_i	i	n/a
458.0335	0.0605	916067	keystroke_n	n	n/a
458.1085	0.0605	916217	keystroke_g	g	n/a
458.4385	0.06	916877	keystroke_Key.enter	Key.enter	n/a
458.5025	8.998	917005	prompt	n/a	compression absolute hoped wrong\n
461.561	0.001	923122	keystroke_c	c	n/a
461.588	0.1055	923176	keystroke_o	o	n/a
461.6635	0.0595	923327	keystroke_m	m	n/a
461.798	0.06	923596	keystroke_p	p	n/a
461.874	0.089	923748	keystroke_r	r	n/a
461.949	0.12	923898	keystroke_e	e	n/a
462.189	0.045	924378	keystroke_s	s	n/a
462.294	0.074	924588	keystroke_s	s	n/a
462.429	0.2395	924858	keystroke_i	i	n/a
462.5185	0.12	925037	keystroke_o	o	n/a
462.594	0.1045	925188	keystroke_n	n	n/a
462.6535	0.075	925307	keystroke_Key.space	Key.space	n/a
463.388	0.0155	926776	keystroke_a	a	n/a
463.4335	0.0605	926867	keystroke_b	b	n/a
463.553	0.0755	927106	keystroke_s	s	n/a
463.658	0.061	927316	keystroke_o	o	n/a
463.8085	0.045	927617	keystroke_l	l	n/a
463.9135	0.0745	927827	keystroke_u	u	n/a
464.019	0.0895	928038	keystroke_t	t	n/a
464.0785	0.0905	928157	keystroke_e	e	n/a
464.1835	0.06	928367	keystroke_Key.space	Key.space	n/a
464.9635	0.015	929927	keystroke_h	h	n/a
465.024	0.059	930048	keystroke_p	p	n/a
465.444	0.089	930888	keystroke_Key.backspace	Key.backspace	n/a
465.668	0.06	931336	keystroke_o	o	n/a
465.803	0.091	931606	keystroke_p	p	n/a
465.9235	0.0605	931847	keystroke_e	e	n/a
466.1035	0.06	932207	keystroke_d	d	n/a
466.1935	0.075	932387	keystroke_Key.space	Key.space	n/a
466.613	0.091	933226	keystroke_w	w	n/a
466.719	0.059	933438	keystroke_r	r	n/a
466.8085	0.0905	933617	keystroke_o	o	n/a
466.8845	0.105	933769	keystroke_n	n	n/a
467.0045	0.0295	934009	keystroke_g	g	n/a
467.4235	0.075	934847	keystroke_Key.enter	Key.enter	n/a
467.5055	5.9945	935011	prompt	n/a	immune feeling videos bookmark\n
468.264	0.135	936528	keystroke_i	i	n/a
468.3685	0.09	936737	keystroke_m	m	n/a
468.5185	0.09	937037	keystroke_m	m	n/a
468.7435	0.0455	937487	keystroke_u	u	n/a
468.8935	0.0755	937787	keystroke_n	n	n/a
468.9835	0.0605	937967	keystroke_e	e	n/a
469.088	0.06	938176	keystroke_Key.space	Key.space	n/a
469.8235	0.0455	939647	keystroke_f	f	n/a
469.914	0.044	939828	keystroke_e	e	n/a
470.048	0.06	940096	keystroke_e	e	n/a
470.184	0.105	940368	keystroke_l	l	n/a
470.379	0.09	940758	keystroke_i	i	n/a
470.439	0.0745	940878	keystroke_n	n	n/a
470.5285	0.06	941057	keystroke_g	g	n/a
470.6485	0.06	941297	keystroke_Key.space	Key.space	n/a
470.8285	0.075	941657	keystroke_v	v	n/a
470.9335	0.0755	941867	keystroke_i	i	n/a
471.0235	0.045	942047	keystroke_d	d	n/a
471.1885	0.0455	942377	keystroke_e	e	n/a
471.2495	0.074	942499	keystroke_o	o	n/a
471.3535	0.0905	942707	keystroke_s	s	n/a
471.5185	0.06	943037	keystroke_Key.space	Key.space	n/a
472.149	0.075	944298	keystroke_b	b	n/a
472.329	0.0445	944658	keystroke_o	o	n/a
472.464	0.135	944928	keystroke_o	o	n/a
472.524	0.12	945048	keystroke_k	k	n/a
472.764	0.0895	945528	keystroke_m	m	n/a
472.8985	0.0905	945797	keystroke_a	a	n/a
473.003	0.076	946006	keystroke_r	r	n/a
473.0935	0.0755	946187	keystroke_k	k	n/a
473.439	0.06	946878	keystroke_Key.enter	Key.enter	n/a
473.51	9.065	947020	prompt	n/a	dept movie accurate its\n
475.3285	0.076	950657	keystroke_d	d	n/a
475.5385	0.045	951077	keystroke_e	e	n/a
475.704	0.075	951408	keystroke_p	p	n/a
475.824	0.045	951648	keystroke_t	t	n/a
475.9735	0.0595	951947	keystroke_Key.space	Key.space	n/a
476.6935	0.09	953387	keystroke_m	m	n/a
476.8435	0.06	953687	keystroke_o	o	n/a
476.9185	0.0905	953837	keystroke_v	v	n/a
477.069	0.075	954138	keystroke_i	i	n/a
477.129	0.09	954258	keystroke_e	e	n/a
477.294	0.06	954588	keystroke_Key.space	Key.space	n/a
478.104	0.09	956208	keystroke_a	a	n/a
478.269	0.09	956538	keystroke_c	c	n/a
478.4185	0.076	956837	keystroke_c	c	n/a
478.5385	0.0745	957077	keystroke_u	u	n/a
478.629	0.045	957258	keystroke_r	r	n/a
478.8685	0.1205	957737	keystroke_a	a	n/a
478.989	0.09	957978	keystroke_t	t	n/a
479.049	0.0895	958098	keystroke_e	e	n/a
480.5635	0.0755	961127	keystroke_Key.space	Key.space	n/a
481.1185	0.0605	962237	keystroke_i	i	n/a
481.164	0.09	962328	keystroke_t	t	n/a
481.269	0.09	962538	keystroke_s	s	n/a
482.514	0.06	965028	keystroke_Key.enter	Key.enter	n/a
482.579	7.049	965158	prompt	n/a	cooper enclosed note chicken\n
483.174	0.075	966348	keystroke_c	c	n/a
483.278	0.061	966556	keystroke_o	o	n/a
483.429	0.06	966858	keystroke_o	o	n/a
483.594	0.06	967188	keystroke_p	p	n/a
483.609	0.03	967218	keystroke_o	o	n/a
483.7145	0.0895	967429	keystroke_e	e	n/a
483.774	0.09	967548	keystroke_r	r	n/a
484.104	0.06	968208	keystroke_Key.backspace	Key.backspace	n/a
484.239	0.06	968478	keystroke_Key.backspace	Key.backspace	n/a
484.374	0.075	968748	keystroke_Key.backspace	Key.backspace	n/a
484.509	0.09	969018	keystroke_e	e	n/a
484.569	0.075	969138	keystroke_r	r	n/a
484.659	0.06	969318	keystroke_Key.space	Key.space	n/a
485.364	0.0895	970728	keystroke_c	c	n/a
485.8135	0.045	971627	keystroke_Key.backspace	Key.backspace	n/a
485.8895	0.0745	971779	keystroke_e	e	n/a
486.0085	0.075	972017	keystroke_n	n	n/a
486.1135	0.061	972227	keystroke_c	c	n/a
486.3685	0.06	972737	keystroke_l	l	n/a
486.609	0.0745	973218	keystroke_o	o	n/a
486.6685	0.12	973337	keystroke_s	s	n/a
486.7585	0.0605	973517	keystroke_e	e	n/a
486.894	0.09	973788	keystroke_d	d	n/a
487.014	0.075	974028	keystroke_Key.space	Key.space	n/a
487.749	0.045	975498	keystroke_n	n	n/a
487.824	0.09	975648	keystroke_o	o	n/a
487.8835	0.12	975767	keystroke_t	t	n/a
487.974	0.0895	975948	keystroke_e	e	n/a
488.079	0.0745	976158	keystroke_Key.space	Key.space	n/a
488.4385	0.075	976877	keystroke_c	c	n/a
488.5285	0.0905	977057	keystroke_h	h	n/a
488.664	0.045	977328	keystroke_i	i	n/a
488.739	0.089	977478	keystroke_c	c	n/a
488.844	0.075	977688	keystroke_k	k	n/a
488.949	0.075	977898	keystroke_e	e	n/a
489.054	0.075	978108	keystroke_n	n	n/a
489.5485	0.075	979097	keystroke_Key.enter	Key.enter	n/a
489.628	13.8725	979256	prompt	n/a	pakistan ceremony instantly drawings\n
490.644	0.06	981288	keystroke_[	[	n/a
490.898	0.075	981796	keystroke_a	a	n/a
491.004	0.075	982008	keystroke_k	k	n/a
491.183	0.075	982366	keystroke_i	i	n/a
491.259	0.09	982518	keystroke_s	s	n/a
491.663	0.06	983326	keystroke_Key.backspace	Key.backspace	n/a
491.798	0.045	983596	keystroke_Key.backspace	Key.backspace	n/a
491.918	0.06	983836	keystroke_Key.backspace	Key.backspace	n/a
492.068	0.045	984136	keystroke_Key.backspace	Key.backspace	n/a
492.188	0.046	984376	keystroke_Key.backspace	Key.backspace	n/a
492.308	0.076	984616	keystroke_Key.backspace	Key.backspace	n/a
493.2385	0.045	986477	keystroke_p	p	n/a
493.854	0.06	987708	keystroke_a	a	n/a
494.078	0.046	988156	keystroke_k	k	n/a
494.259	0.0595	988518	keystroke_i	i	n/a
494.3945	0.1345	988789	keystroke_s	s	n/a
494.5735	0.0605	989147	keystroke_t	t	n/a
494.7085	0.1055	989417	keystroke_r	r	n/a
494.828	0.061	989656	keystroke_a	a	n/a
494.979	0.089	989958	keystroke_n	n	n/a
495.443	0.0605	990886	keystroke_Key.backspace	Key.backspace	n/a
495.563	0.06	991126	keystroke_Key.backspace	Key.backspace	n/a
495.713	0.0755	991426	keystroke_Key.backspace	Key.backspace	n/a
495.834	0.075	991668	keystroke_a	a	n/a
495.924	0.0895	991848	keystroke_n	n	n/a
496.029	0.074	992058	keystroke_Key.space	Key.space	n/a
497.139	0.12	994278	keystroke_c	c	n/a
497.244	0.075	994488	keystroke_e	e	n/a
497.409	0.135	994818	keystroke_r	r	n/a
497.5285	0.075	995057	keystroke_e	e	n/a
497.7685	0.09	995537	keystroke_m	m	n/a
498.054	0.075	996108	keystroke_o	o	n/a
498.189	0.075	996378	keystroke_n	n	n/a
498.399	0.045	996798	keystroke_y	y	n/a
498.399	0.06	996798	keystroke_t	t	n/a
498.503	0.075	997006	keystroke_Key.space	Key.space	n/a
498.969	0.03	997938	keystroke_Key.backspace	Key.backspace	n/a
499.089	0.06	998178	keystroke_Key.backspace	Key.backspace	n/a
499.224	0.06	998448	keystroke_Key.backspace	Key.backspace	n/a
499.45	0.059	998900	keystroke_y	y	n/a
499.614	0.045	999228	keystroke_Key.space	Key.space	n/a
500.349	0.09	1000698	keystroke_i	i	n/a
500.424	0.075	1000848	keystroke_n	n	n/a
500.514	0.06	1001028	keystroke_s	s	n/a
500.588	0.0605	1001176	keystroke_t	t	n/a
500.6785	0.0605	1001357	keystroke_a	a	n/a
500.724	0.09	1001448	keystroke_n	n	n/a
500.844	0.075	1001688	keystroke_t	t	n/a
500.964	0.09	1001928	keystroke_l	l	n/a
501.249	0.015	1002498	keystroke_y	y	n/a
501.294	0.06	1002588	keystroke_Key.space	Key.space	n/a
502.0585	0.076	1004117	keystroke_d	d	n/a
502.209	0.1045	1004418	keystroke_r	r	n/a
502.299	0.0595	1004598	keystroke_a	a	n/a
502.419	0.1045	1004838	keystroke_w	w	n/a
502.614	0.12	1005228	keystroke_i	i	n/a
502.674	0.105	1005348	keystroke_n	n	n/a
502.823	0.061	1005646	keystroke_g	g	n/a
502.899	0.1055	1005798	keystroke_s	s	n/a
503.4385	0.0605	1006877	keystroke_Key.enter	Key.enter	n/a
503.5055	10.0455	1007011	prompt	n/a	paid possibility if endorsed\n
504.324	0.029	1008648	keystroke_p	p	n/a
504.428	0.075	1008856	keystroke_a	a	n/a
504.594	0.06	1009188	keystroke_i	i	n/a
504.6835	0.045	1009367	keystroke_d	d	n/a
504.7885	0.06	1009577	keystroke_Key.space	Key.space	n/a
505.4185	0.0755	1010837	keystroke_p	p	n/a
505.599	0.0895	1011198	keystroke_o	o	n/a
505.7035	0.075	1011407	keystroke_s	s	n/a
505.8535	0.061	1011707	keystroke_s	s	n/a
505.9595	0.104	1011919	keystroke_i	i	n/a
506.3345	0.1045	1012669	keystroke_b	b	n/a
506.499	0.075	1012998	keystroke_i	i	n/a
506.889	0.0595	1013778	keystroke_i	i	n/a
507.519	0.0295	1015038	keystroke_=	=	n/a
508.343	0.0605	1016686	keystroke_Key.backspace	Key.backspace	n/a
508.4785	0.0595	1016957	keystroke_Key.backspace	Key.backspace	n/a
509.049	0.075	1018098	keystroke_l	l	n/a
509.3035	0.0755	1018607	keystroke_i	i	n/a
509.484	0.075	1018968	keystroke_t	t	n/a
509.649	0.09	1019298	keystroke_y	y	n/a
509.889	0.06	1019778	keystroke_Key.space	Key.space	n/a
510.834	0.045	1021668	keystroke_i	i	n/a
510.9235	0.0455	1021847	keystroke_f	f	n/a
510.983	0.076	1021966	keystroke_Key.space	Key.space	n/a
511.1635	0.06	1022327	keystroke_e	e	n/a
511.2385	0.09	1022477	keystroke_n	n	n/a
511.3435	0.09	1022687	keystroke_d	d	n/a
511.479	0.075	1022958	keystroke_o	o	n/a
511.584	0.09	1023168	keystroke_r	r	n/a
511.914	0.1195	1023828	keystroke_s	s	n/a
512.0035	0.076	1024007	keystroke_e	e	n/a
512.1835	0.06	1024367	keystroke_d	d	n/a
513.5035	0.0455	1027007	keystroke_Key.enter	Key.enter	n/a
513.5545	5.487	1027109	prompt	n/a	oman combination verbal posted\n
514.314	0.0905	1028628	keystroke_o	o	n/a
514.449	0.105	1028898	keystroke_m	m	n/a
514.5685	0.0605	1029137	keystroke_a	a	n/a
514.659	0.074	1029318	keystroke_n	n	n/a
514.718	0.09	1029436	keystroke_Key.space	Key.space	n/a
514.958	0.09	1029916	keystroke_c	c	n/a
515.034	0.105	1030068	keystroke_o	o	n/a
515.0785	0.0905	1030157	keystroke_m	m	n/a
515.289	0.045	1030578	keystroke_b	b	n/a
515.394	0.1355	1030788	keystroke_i	i	n/a
515.454	0.105	1030908	keystroke_n	n	n/a
515.53	0.134	1031060	keystroke_a	a	n/a
515.649	0.075	1031298	keystroke_t	t	n/a
515.739	0.194	1031478	keystroke_i	i	n/a
515.7835	0.1205	1031567	keystroke_o	o	n/a
515.8135	0.1505	1031627	keystroke_n	n	n/a
515.8885	0.1045	1031777	keystroke_Key.space	Key.space	n/a
516.758	0.06	1033516	keystroke_v	v	n/a
516.879	0.105	1033758	keystroke_e	e	n/a
516.939	0.075	1033878	keystroke_r	r	n/a
517.0435	0.0755	1034087	keystroke_b	b	n/a
517.133	0.091	1034266	keystroke_a	a	n/a
517.269	0.045	1034538	keystroke_l	l	n/a
517.374	0.089	1034748	keystroke_Key.space	Key.space	n/a
518.064	0.075	1036128	keystroke_p	p	n/a
518.244	0.075	1036488	keystroke_o	o	n/a
518.304	0.075	1036608	keystroke_s	s	n/a
518.394	0.09	1036788	keystroke_t	t	n/a
518.469	0.074	1036938	keystroke_e	e	n/a
518.619	0.0905	1037238	keystroke_d	d	n/a
518.9785	0.0605	1037957	keystroke_Key.enter	Key.enter	n/a
519.053	5.1325	1038106	prompt	n/a	contents default models stolen\n
519.654	0.09	1039308	keystroke_c	c	n/a
519.729	0.1195	1039458	keystroke_o	o	n/a
519.833	0.076	1039666	keystroke_n	n	n/a
519.924	0.09	1039848	keystroke_t	t	n/a
519.998	0.061	1039996	keystroke_e	e	n/a
520.089	0.105	1040178	keystroke_n	n	n/a
520.269	0.06	1040538	keystroke_t	t	n/a
520.314	0.105	1040628	keystroke_s	s	n/a
520.4335	0.0745	1040867	keystroke_Key.space	Key.space	n/a
520.8535	0.0445	1041707	keystroke_d	d	n/a
520.989	0.075	1041978	keystroke_e	e	n/a
521.124	0.1055	1042248	keystroke_f	f	n/a
521.214	0.075	1042428	keystroke_a	a	n/a
521.274	0.1205	1042548	keystroke_u	u	n/a
521.409	0.09	1042818	keystroke_l	l	n/a
521.5145	0.0595	1043029	keystroke_t	t	n/a
521.604	0.089	1043208	keystroke_Key.space	Key.space	n/a
521.844	0.0905	1043688	keystroke_m	m	n/a
521.9485	0.0755	1043897	keystroke_o	o	n/a
522.0085	0.0605	1044017	keystroke_d	d	n/a
522.158	0.076	1044316	keystroke_e	e	n/a
522.2485	0.076	1044497	keystroke_l	l	n/a
522.369	0.06	1044738	keystroke_s	s	n/a
522.443	0.061	1044886	keystroke_Key.space	Key.space	n/a
523.029	0.044	1046058	keystroke_s	s	n/a
523.238	0.046	1046476	keystroke_t	t	n/a
523.419	0.09	1046838	keystroke_o	o	n/a
523.659	0.075	1047318	keystroke_l	l	n/a
523.749	0.045	1047498	keystroke_e	e	n/a
523.854	0.06	1047708	keystroke_n	n	n/a
524.124	0.06	1048248	keystroke_Key.enter	Key.enter	n/a
524.192	6.744	1048384	prompt	n/a	tunnel arnold sponsored reserves\n
524.889	0.0895	1049778	keystroke_t	t	n/a
524.9935	0.0155	1049987	keystroke_u	u	n/a
525.0235	0.015	1050047	keystroke_n	n	n/a
525.0835	0.09	1050167	keystroke_n	n	n/a
525.1885	0.075	1050377	keystroke_e	e	n/a
525.324	0.0595	1050648	keystroke_l	l	n/a
525.4585	0.09	1050917	keystroke_Key.space	Key.space	n/a
525.5495	0.1045	1051099	keystroke_a	a	n/a
525.6385	0.06	1051277	keystroke_r	r	n/a
525.7285	0.075	1051457	keystroke_n	n	n/a
525.8485	0.0755	1051697	keystroke_o	o	n/a
525.9985	0.075	1051997	keystroke_l	l	n/a
526.1185	0.06	1052237	keystroke_d	d	n/a
526.1935	0.09	1052387	keystroke_Key.space	Key.space	n/a
526.524	0.06	1053048	keystroke_s	s	n/a
526.614	0.0595	1053228	keystroke_o	o	n/a
527.0185	0.0455	1054037	keystroke_Key.backspace	Key.backspace	n/a
527.4685	0.0755	1054937	keystroke_p	p	n/a
527.844	0.1345	1055688	keystroke_o	o	n/a
527.9485	0.1055	1055897	keystroke_n	n	n/a
528.129	0.075	1056258	keystroke_s	s	n/a
528.309	0.06	1056618	keystroke_o	o	n/a
528.3985	0.1055	1056797	keystroke_r	r	n/a
528.5485	0.09	1057097	keystroke_e	e	n/a
528.7135	0.075	1057427	keystroke_d	d	n/a
528.804	0.0895	1057608	keystroke_Key.space	Key.space	n/a
529.299	0.1495	1058598	keystroke_r	r	n/a
529.4185	0.135	1058837	keystroke_e	e	n/a
529.569	0.1345	1059138	keystroke_s	s	n/a
529.6585	0.165	1059317	keystroke_e	e	n/a
529.7935	0.09	1059587	keystroke_r	r	n/a
530.049	0.045	1060098	keystroke_v	v	n/a
530.1085	0.06	1060217	keystroke_e	e	n/a
530.229	0.075	1060458	keystroke_s	s	n/a
530.874	0.06	1061748	keystroke_Key.enter	Key.enter	n/a
530.94	4.99	1061880	prompt	n/a	provide kind torture surge\n
531.6995	0.059	1063399	keystroke_p	p	n/a
531.774	0.0595	1063548	keystroke_r	r	n/a
531.909	0.0295	1063818	keystroke_o	o	n/a
531.9685	0.06	1063937	keystroke_v	v	n/a
532.0745	0.0595	1064149	keystroke_i	i	n/a
532.1785	0.0305	1064357	keystroke_d	d	n/a
532.299	0.06	1064598	keystroke_e	e	n/a
532.4035	0.075	1064807	keystroke_Key.space	Key.space	n/a
532.7185	0.06	1065437	keystroke_k	k	n/a
532.884	0.075	1065768	keystroke_i	i	n/a
532.944	0.06	1065888	keystroke_n	n	n/a
533.018	0.076	1066036	keystroke_d	d	n/a
533.123	0.0605	1066246	keystroke_Key.space	Key.space	n/a
533.814	0.045	1067628	keystroke_t	t	n/a
533.9185	0.0745	1067837	keystroke_o	o	n/a
534.0085	0.0595	1068017	keystroke_r	r	n/a
534.264	0.059	1068528	keystroke_t	t	n/a
534.338	0.075	1068676	keystroke_u	u	n/a
534.4285	0.0895	1068857	keystroke_r	r	n/a
534.504	0.09	1069008	keystroke_e	e	n/a
534.578	0.0755	1069156	keystroke_Key.space	Key.space	n/a
535.224	0.09	1070448	keystroke_s	s	n/a
535.389	0.0895	1070778	keystroke_u	u	n/a
535.4635	0.045	1070927	keystroke_r	r	n/a
535.6285	0.06	1071257	keystroke_g	g	n/a
535.6735	0.0755	1071347	keystroke_e	e	n/a
535.854	0.0745	1071708	keystroke_Key.enter	Key.enter	n/a
535.933	4.2275	1071866	prompt	n/a	noticed sitting invite many\n
536.619	0.0745	1073238	keystroke_n	n	n/a
536.724	0.0895	1073448	keystroke_o	o	n/a
536.829	0.045	1073658	keystroke_t	t	n/a
536.934	0.06	1073868	keystroke_i	i	n/a
536.979	0.1045	1073958	keystroke_c	c	n/a
537.039	0.0895	1074078	keystroke_e	e	n/a
537.2335	0.075	1074467	keystroke_d	d	n/a
537.3385	0.075	1074677	keystroke_Key.space	Key.space	n/a
537.474	0.075	1074948	keystroke_s	s	n/a
537.6085	0.075	1075217	keystroke_i	i	n/a
537.729	0.0445	1075458	keystroke_t	t	n/a
537.849	0.0745	1075698	keystroke_t	t	n/a
537.939	0.09	1075878	keystroke_i	i	n/a
537.9985	0.1055	1075997	keystroke_n	n	n/a
538.074	0.045	1076148	keystroke_g	g	n/a
538.209	0.06	1076418	keystroke_Key.space	Key.space	n/a
538.5685	0.1055	1077137	keystroke_i	i	n/a
538.659	0.0745	1077318	keystroke_n	n	n/a
538.7345	0.06	1077469	keystroke_v	v	n/a
538.854	0.059	1077708	keystroke_i	i	n/a
538.929	0.074	1077858	keystroke_t	t	n/a
538.9895	0.1035	1077979	keystroke_e	e	n/a
539.108	0.0605	1078216	keystroke_Key.space	Key.space	n/a
539.409	0.075	1078818	keystroke_m	m	n/a
539.499	0.06	1078998	keystroke_a	a	n/a
539.589	0.0595	1079178	keystroke_n	n	n/a
539.7535	0.0455	1079507	keystroke_y	y	n/a
540.099	0.059	1080198	keystroke_Key.enter	Key.enter	n/a
540.165	8.1405	1080330	prompt	n/a	polymer harvest trek cottage\n
540.8485	0.0455	1081697	keystroke_p	p	n/a
541.044	0.075	1082088	keystroke_o	o	n/a
541.313	0.076	1082626	keystroke_u	u	n/a
541.749	0.03	1083498	keystroke_Key.backspace	Key.backspace	n/a
541.988	0.061	1083976	keystroke_l	l	n/a
542.198	0.061	1084396	keystroke_y	y	n/a
542.4985	0.06	1084997	keystroke_m	m	n/a
542.5885	0.1205	1085177	keystroke_e	e	n/a
542.6635	0.075	1085327	keystroke_r	r	n/a
542.7535	0.06	1085507	keystroke_Key.space	Key.space	n/a
543.474	0.0755	1086948	keystroke_h	h	n/a
543.5495	0.074	1087099	keystroke_a	a	n/a
543.6245	0.0445	1087249	keystroke_r	r	n/a
543.789	0.075	1087578	keystroke_v	v	n/a
543.849	0.21	1087698	keystroke_e	e	n/a
543.984	0.12	1087968	keystroke_s	s	n/a
544.059	0.06	1088118	keystroke_t	t	n/a
544.134	0.075	1088268	keystroke_Key.space	Key.space	n/a
544.8985	0.1505	1089797	keystroke_t	t	n/a
545.019	0.21	1090038	keystroke_e	e	n/a
545.034	0.1195	1090068	keystroke_r	r	n/a
545.1385	0.0755	1090277	keystroke_k	k	n/a
545.333	0.076	1090666	keystroke_Key.space	Key.space	n/a
545.6185	0.0455	1091237	keystroke_Key.backspace	Key.backspace	n/a
545.7385	0.0605	1091477	keystroke_Key.backspace	Key.backspace	n/a
545.8585	0.075	1091717	keystroke_Key.backspace	Key.backspace	n/a
546.024	0.0445	1092048	keystroke_Key.backspace	Key.backspace	n/a
546.0835	0.091	1092167	keystroke_r	r	n/a
546.1435	0.121	1092287	keystroke_e	e	n/a
546.2195	0.059	1092439	keystroke_k	k	n/a
546.2935	0.075	1092587	keystroke_Key.space	Key.space	n/a
546.9835	0.0905	1093967	keystroke_c	c	n/a
547.2385	0.06	1094477	keystroke_o	o	n/a
547.329	0.06	1094658	keystroke_t	t	n/a
547.464	0.075	1094928	keystroke_t	t	n/a
547.598	0.076	1095196	keystroke_a	a	n/a
547.688	0.076	1095376	keystroke_g	g	n/a
547.749	0.0895	1095498	keystroke_e	e	n/a
548.229	0.075	1096458	keystroke_Key.enter	Key.enter	n/a
548.3105	6.535	1096621	prompt	n/a	boundary karma truly robust\n
549.0835	0.0605	1098167	keystroke_b	b	n/a
549.2485	0.0905	1098497	keystroke_o	o	n/a
549.2935	0.0755	1098587	keystroke_u	u	n/a
549.459	0.09	1098918	keystroke_n	n	n/a
549.534	0.0895	1099068	keystroke_d	d	n/a
549.6085	0.075	1099217	keystroke_a	a	n/a
549.7735	0.075	1099547	keystroke_r	r	n/a
549.8635	0.0755	1099727	keystroke_y	y	n/a
549.999	0.0745	1099998	keystroke_Key.space	Key.space	n/a
550.6435	0.075	1101287	keystroke_k	k	n/a
550.7335	0.0905	1101467	keystroke_a	a	n/a
550.839	0.0445	1101678	keystroke_r	r	n/a
550.929	0.0745	1101858	keystroke_m	m	n/a
551.1245	0.0595	1102249	keystroke_a	a	n/a
551.199	0.0745	1102398	keystroke_Key.space	Key.space	n/a
552.4135	0.0605	1104827	keystroke_t	t	n/a
552.549	0.059	1105098	keystroke_r	r	n/a
552.653	0.121	1105306	keystroke_u	u	n/a
552.7895	0.0885	1105579	keystroke_l	l	n/a
552.939	0.075	1105878	keystroke_y	y	n/a
553.058	0.06	1106116	keystroke_Key.space	Key.space	n/a
553.869	0.075	1107738	keystroke_r	r	n/a
553.974	0.09	1107948	keystroke_o	o	n/a
554.169	0.06	1108338	keystroke_b	b	n/a
554.289	0.045	1108578	keystroke_u	u	n/a
554.363	0.121	1108726	keystroke_s	s	n/a
554.439	0.06	1108878	keystroke_t	t	n/a
554.799	0.045	1109598	keystroke_Key.enter	Key.enter	n/a
554.8495	10.7505	1109699	prompt	n/a	acting operation resident cycles\n
555.504	0.12	1111008	keystroke_a	a	n/a
555.714	0.06	1111428	keystroke_c	c	n/a
555.879	0.045	1111758	keystroke_t	t	n/a
555.969	0.075	1111938	keystroke_i	i	n/a
556.029	0.075	1112058	keystroke_n	n	n/a
556.104	0.045	1112208	keystroke_g	g	n/a
556.2385	0.045	1112477	keystroke_Key.space	Key.space	n/a
556.8235	0.06	1113647	keystroke_o	o	n/a
556.9895	0.0895	1113979	keystroke_p	p	n/a
557.1235	0.0305	1114247	keystroke_e	e	n/a
557.1385	0.06	1114277	keystroke_r	r	n/a
557.2135	0.12	1114427	keystroke_a	a	n/a
557.3035	0.06	1114607	keystroke_t	t	n/a
557.379	0.18	1114758	keystroke_i	i	n/a
557.439	0.105	1114878	keystroke_o	o	n/a
557.469	0.1195	1114938	keystroke_n	n	n/a
557.5735	0.075	1115147	keystroke_Key.space	Key.space	n/a
