onset	duration	sample	value	key	prompt_text
0.8255	5.8875	1651	prompt	n/a	the quick brown fox jumps over a lazy dog\n
1.8015	0.0575	3603	keystroke_t	t	n/a
1.86	0.1185	3720	keystroke_h	h	n/a
1.9635	0.121	3927	keystroke_e	e	n/a
2.009	0.1645	4018	keystroke_Key.space	Key.space	n/a
2.1135	0.1205	4227	keystroke_q	q	n/a
2.2185	0.061	4437	keystroke_u	u	n/a
2.3695	0.089	4739	keystroke_i	i	n/a
2.5035	0.136	5007	keystroke_c	c	n/a
2.6545	0.105	5309	keystroke_k	k	n/a
2.849	0.1345	5698	keystroke_Key.space	Key.space	n/a
2.999	0.0895	5998	keystroke_b	b	n/a
3.2535	0.1055	6507	keystroke_r	r	n/a
3.374	0.105	6748	keystroke_o	o	n/a
3.4935	0.1215	6987	keystroke_w	w	n/a
3.599	0.1355	7198	keystroke_n	n	n/a
3.644	0.165	7288	keystroke_Key.space	Key.space	n/a
3.854	0.1055	7708	keystroke_f	f	n/a
3.9595	0.104	7919	keystroke_o	o	n/a
4.0645	0.135	8129	keystroke_x	x	n/a
4.154	0.1355	8308	keystroke_Key.space	Key.space	n/a
4.2145	0.1045	8429	keystroke_j	j	n/a
4.2745	0.09	8549	keystroke_u	u	n/a
4.4695	0.1645	8939	keystroke_m	m	n/a
4.5285	0.136	9057	keystroke_p	p	n/a
4.6195	0.1345	9239	keystroke_s	s	n/a
4.6795	0.12	9359	keystroke_Key.space	Key.space	n/a
4.7995	0.12	9599	keystroke_o	o	n/a
4.8745	0.165	9749	keystroke_v	v	n/a
4.98	0.1795	9960	keystroke_e	e	n/a
5.0685	0.1805	10137	keystroke_r	r	n/a
5.174	0.1345	10348	keystroke_Key.space	Key.space	n/a
5.3245	0.135	10649	keystroke_a	a	n/a
5.4445	0.1195	10889	keystroke_Key.space	Key.space	n/a
5.579	0.1245	11158	keystroke_l	l	n/a
5.6885	0.06	11377	keystroke_a	a	n/a
5.868	0.1205	11736	keystroke_z	z	n/a
6.0025	0.106	12005	keystroke_y	y	n/a
6.1535	0.1215	12307	keystroke_Key.space	Key.space	n/a
6.244	0.105	12488	keystroke_d	d	n/a
6.3195	0.1355	12639	keystroke_o	o	n/a
6.485	0.105	12970	keystroke_g	g	n/a
6.619	0.09	13238	keystroke_Key.enter	Key.enter	n/a
6.719	7.2535	13438	prompt	n/a	movements community population tragedy\n
7.31	0.18	14620	keystroke_m	m	n/a
7.399	0.1505	14798	keystroke_o	o	n/a
7.505	0.119	15010	keystroke_v	v	n/a
7.685	0.1195	15370	keystroke_e	e	n/a
7.82	0.1045	15640	keystroke_m	m	n/a
7.909	0.106	15818	keystroke_e	e	n/a
8.045	0.104	16090	keystroke_n	n	n/a
8.105	0.18	16210	keystroke_t	t	n/a
8.225	0.164	16450	keystroke_s	s	n/a
8.299	0.121	16598	keystroke_Key.space	Key.space	n/a
8.449	0.1205	16898	keystroke_c	c	n/a
8.509	0.165	17018	keystroke_o	o	n/a
8.615	0.1045	17230	keystroke_m	m	n/a
8.75	0.105	17500	keystroke_m	m	n/a
9.1395	0.12	18279	keystroke_u	u	n/a
9.215	0.21	18430	keystroke_n	n	n/a
9.395	0.1195	18790	keystroke_i	i	n/a
9.4995	0.2095	18999	keystroke_t	t	n/a
9.62	0.1495	19240	keystroke_y	y	n/a
9.7545	0.1505	19509	keystroke_Key.space	Key.space	n/a
9.9945	0.0895	19989	keystroke_p	p	n/a
10.055	0.225	20110	keystroke_o	o	n/a
10.2945	0.1355	20589	keystroke_p	p	n/a
10.595	0.089	21190	keystroke_l	l	n/a
10.94	0.0745	21880	keystroke_Key.backspace	Key.backspace	n/a
11.075	0.09	22150	keystroke_Key.backspace	Key.backspace	n/a
11.6745	0.1205	23349	keystroke_p	p	n/a
11.915	0.1495	23830	keystroke_u	u	n/a
12.0795	0.12	24159	keystroke_l	l	n/a
12.215	0.119	24430	keystroke_a	a	n/a
12.259	0.136	24518	keystroke_t	t	n/a
12.365	0.225	24730	keystroke_i	i	n/a
12.4245	0.12	24849	keystroke_o	o	n/a
12.5	0.1345	25000	keystroke_n	n	n/a
12.6195	0.1195	25239	keystroke_Key.space	Key.space	n/a
12.8595	0.1055	25719	keystroke_t	t	n/a
12.92	0.135	25840	keystroke_r	r	n/a
13.01	0.15	26020	keystroke_a	a	n/a
13.13	0.1495	26260	keystroke_g	g	n/a
13.234	0.12	26468	keystroke_e	e	n/a
13.4305	0.149	26861	keystroke_d	d	n/a
13.5345	0.09	27069	keystroke_y	y	n/a
13.91	0.06	27820	keystroke_Key.enter	Key.enter	n/a
13.977	3.6405	27954	prompt	n/a	reminder glow billion rand\n
14.464	0.151	28928	keystroke_r	r	n/a
14.555	0.1495	29110	keystroke_e	e	n/a
14.72	0.1045	29440	keystroke_m	m	n/a
14.795	0.165	29590	keystroke_i	i	n/a
14.915	0.135	29830	keystroke_n	n	n/a
14.99	0.135	29980	keystroke_d	d	n/a
15.11	0.195	30220	keystroke_e	e	n/a
15.245	0.12	30490	keystroke_r	r	n/a
15.35	0.149	30700	keystroke_Key.space	Key.space	n/a
15.485	0.104	30970	keystroke_g	g	n/a
15.575	0.15	31150	keystroke_l	l	n/a
15.65	0.165	31300	keystroke_o	o	n/a
15.74	0.09	31480	keystroke_w	w	n/a
15.8	0.104	31600	keystroke_Key.space	Key.space	n/a
15.92	0.0895	31840	keystroke_b	b	n/a
15.965	0.135	31930	keystroke_i	i	n/a
16.0545	0.1055	32109	keystroke_l	l	n/a
16.22	0.09	32440	keystroke_l	l	n/a
16.325	0.3295	32650	keystroke_i	i	n/a
16.46	0.1345	32920	keystroke_o	o	n/a
16.5955	0.1795	33191	keystroke_n	n	n/a
16.79	0.119	33580	keystroke_Key.space	Key.space	n/a
16.94	0.165	33880	keystroke_r	r	n/a
17.06	0.15	34120	keystroke_a	a	n/a
17.1945	0.1045	34389	keystroke_n	n	n/a
17.3445	0.1055	34689	keystroke_d	d	n/a
17.525	0.09	35050	keystroke_Key.enter	Key.enter	n/a
17.621	5.471	35242	prompt	n/a	consumption wooden option interview\n
18.14	0.165	36280	keystroke_c	c	n/a
18.2905	0.119	36581	keystroke_o	o	n/a
18.5595	0.0905	37119	keystroke_n	n	n/a
18.695	0.105	37390	keystroke_s	s	n/a
18.784	0.121	37568	keystroke_u	u	n/a
18.95	0.15	37900	keystroke_m	m	n/a
19.16	0.0895	38320	keystroke_p	p	n/a
19.31	0.12	38620	keystroke_t	t	n/a
19.4	0.27	38800	keystroke_i	i	n/a
19.475	0.1195	38950	keystroke_o	o	n/a
19.5795	0.1505	39159	keystroke_n	n	n/a
19.685	0.135	39370	keystroke_Key.space	Key.space	n/a
19.7745	0.1355	39549	keystroke_w	w	n/a
19.8945	0.1055	39789	keystroke_o	o	n/a
19.9695	0.0895	39939	keystroke_d	d	n/a
20.299	0.075	40598	keystroke_Key.backspace	Key.backspace	n/a
20.48	0.105	40960	keystroke_o	o	n/a
20.5695	0.15	41139	keystroke_d	d	n/a
20.6745	0.1655	41349	keystroke_e	e	n/a
20.825	0.12	41650	keystroke_n	n	n/a
20.93	0.105	41860	keystroke_Key.space	Key.space	n/a
21.065	0.135	42130	keystroke_o	o	n/a
21.1395	0.0905	42279	keystroke_p	p	n/a
21.275	0.075	42550	keystroke_t	t	n/a
21.365	0.225	42730	keystroke_i	i	n/a
21.47	0.225	42940	keystroke_o	o	n/a
21.785	0.135	43570	keystroke_n	n	n/a
21.965	0.105	43930	keystroke_Key.space	Key.space	n/a
22.085	0.1495	44170	keystroke_i	i	n/a
22.16	0.15	44320	keystroke_n	n	n/a
22.265	0.105	44530	keystroke_t	t	n/a
22.385	0.1195	44770	keystroke_e	e	n/a
22.475	0.045	44950	keystroke_r	r	n/a
22.6555	0.0435	45311	keystroke_v	v	n/a
22.73	0.09	45460	keystroke_i	i	n/a
22.805	0.105	45610	keystroke_e	e	n/a
22.865	0.0895	45730	keystroke_w	w	n/a
23.015	0.075	46030	keystroke_Key.enter	Key.enter	n/a
23.102	3.5005	46204	prompt	n/a	responded truly remains covers\n
23.6	0.1345	47200	keystroke_r	r	n/a
23.645	0.195	47290	keystroke_e	e	n/a
23.75	0.135	47500	keystroke_s	s	n/a
23.8555	0.1345	47711	keystroke_p	p	n/a
23.9	0.1355	47800	keystroke_o	o	n/a
24.05	0.135	48100	keystroke_n	n	n/a
24.185	0.104	48370	keystroke_d	d	n/a
24.305	0.18	48610	keystroke_e	e	n/a
24.425	0.105	48850	keystroke_d	d	n/a
24.5	0.135	49000	keystroke_Key.space	Key.space	n/a
24.65	0.12	49300	keystroke_t	t	n/a
24.725	0.1345	49450	keystroke_r	r	n/a
24.7845	0.1655	49569	keystroke_u	u	n/a
24.89	0.1045	49780	keystroke_l	l	n/a
25.0095	0.1205	50019	keystroke_y	y	n/a
25.115	0.135	50230	keystroke_Key.space	Key.space	n/a
25.235	0.135	50470	keystroke_r	r	n/a
25.2955	0.1185	50591	keystroke_e	e	n/a
25.3555	0.1495	50711	keystroke_m	m	n/a
25.49	0.1195	50980	keystroke_a	a	n/a
25.595	0.135	51190	keystroke_i	i	n/a
25.7005	0.0755	51401	keystroke_n	n	n/a
25.7155	0.1345	51431	keystroke_s	s	n/a
25.776	0.149	51552	keystroke_Key.space	Key.space	n/a
25.9105	0.0895	51821	keystroke_c	c	n/a
25.9845	0.1355	51969	keystroke_o	o	n/a
26.09	0.135	52180	keystroke_v	v	n/a
26.165	0.194	52330	keystroke_e	e	n/a
26.27	0.165	52540	keystroke_r	r	n/a
26.405	0.0905	52810	keystroke_s	s	n/a
26.54	0.06	53080	keystroke_Key.enter	Key.enter	n/a
26.608	4.659	53216	prompt	n/a	offline resist camcorder regional\n
27.155	0.105	54310	keystroke_o	o	n/a
27.23	0.075	54460	keystroke_f	f	n/a
27.3805	0.134	54761	keystroke_f	f	n/a
27.47	0.195	54940	keystroke_l	l	n/a
27.575	0.15	55150	keystroke_i	i	n/a
27.65	0.15	55300	keystroke_n	n	n/a
27.7105	0.1045	55421	keystroke_e	e	n/a
27.785	0.135	55570	keystroke_Key.space	Key.space	n/a
27.8445	0.1665	55689	keystroke_r	r	n/a
27.95	0.15	55900	keystroke_e	e	n/a
28.04	0.12	56080	keystroke_s	s	n/a
28.1755	0.1045	56351	keystroke_i	i	n/a
28.4305	0.134	56861	keystroke_s	s	n/a
28.5055	0.1645	57011	keystroke_t	t	n/a
28.715	0.0895	57430	keystroke_Key.space	Key.space	n/a
28.94	0.15	57880	keystroke_c	c	n/a
29.06	0.135	58120	keystroke_a	a	n/a
29.15	0.105	58300	keystroke_m	m	n/a
29.2395	0.135	58479	keystroke_c	c	n/a
29.3895	0.12	58779	keystroke_o	o	n/a
29.5245	0.076	59049	keystroke_r	r	n/a
29.7045	0.1205	59409	keystroke_d	d	n/a
29.8255	0.135	59651	keystroke_e	e	n/a
29.9295	0.2105	59859	keystroke_r	r	n/a
30.125	0.1495	60250	keystroke_Key.space	Key.space	n/a
30.335	0.105	60670	keystroke_r	r	n/a
30.395	0.105	60790	keystroke_e	e	n/a
30.545	0.0905	61090	keystroke_g	g	n/a
30.6205	0.195	61241	keystroke_i	i	n/a
30.68	0.1205	61360	keystroke_o	o	n/a
30.7555	0.15	61511	keystroke_n	n	n/a
30.8445	0.09	61689	keystroke_a	a	n/a
30.9355	0.074	61871	keystroke_l	l	n/a
31.16	0.105	62320	keystroke_Key.enter	Key.enter	n/a
31.273	4.0295	62546	prompt	n/a	tactics ballet furthermore renew\n
31.8345	0.0755	63669	keystroke_t	t	n/a
31.91	0.1495	63820	keystroke_a	a	n/a
32.0905	0.1195	64181	keystroke_c	c	n/a
32.3155	0.06	64631	keystroke_t	t	n/a
32.39	0.12	64780	keystroke_i	i	n/a
32.57	0.1345	65140	keystroke_c	c	n/a
32.645	0.15	65290	keystroke_s	s	n/a
32.765	0.134	65530	keystroke_Key.space	Key.space	n/a
32.9155	0.1045	65831	keystroke_b	b	n/a
33.05	0.1055	66100	keystroke_a	a	n/a
33.1405	0.075	66281	keystroke_l	l	n/a
33.3045	0.12	66609	keystroke_l	l	n/a
33.38	0.1655	66760	keystroke_e	e	n/a
33.47	0.1055	66940	keystroke_t	t	n/a
33.559	0.121	67118	keystroke_Key.space	Key.space	n/a
33.725	0.1045	67450	keystroke_f	f	n/a
33.8	0.12	67600	keystroke_u	u	n/a
33.86	0.12	67720	keystroke_r	r	n/a
33.98	0.0905	67960	keystroke_t	t	n/a
34.04	0.105	68080	keystroke_h	h	n/a
34.115	0.1345	68230	keystroke_e	e	n/a
34.19	0.1345	68380	keystroke_r	r	n/a
34.3095	0.15	68619	keystroke_m	m	n/a
34.355	0.1345	68710	keystroke_o	o	n/a
34.4745	0.1205	68949	keystroke_r	r	n/a
34.5355	0.134	69071	keystroke_e	e	n/a
34.64	0.1045	69280	keystroke_Key.space	Key.space	n/a
34.7145	0.1055	69429	keystroke_r	r	n/a
34.7895	0.1055	69579	keystroke_e	e	n/a
34.9105	0.104	69821	keystroke_n	n	n/a
35	0.1205	70000	keystroke_e	e	n/a
35.0755	0.1045	70151	keystroke_w	w	n/a
35.2395	0.06	70479	keystroke_Key.enter	Key.enter	n/a
35.306	5.2605	70612	prompt	n/a	shooting football behalf geography\n
35.9455	0.1045	71891	keystroke_s	s	n/a
36.02	0.1055	72040	keystroke_h	h	n/a
36.185	0.15	72370	keystroke_o	o	n/a
36.635	0.12	73270	keystroke_o	o	n/a
36.815	0.12	73630	keystroke_t	t	n/a
36.92	0.12	73840	keystroke_i	i	n/a
36.98	0.135	73960	keystroke_n	n	n/a
37.085	0.075	74170	keystroke_g	g	n/a
37.145	0.135	74290	keystroke_Key.space	Key.space	n/a
37.325	0.105	74650	keystroke_f	f	n/a
37.4	0.06	74800	keystroke_o	o	n/a
37.535	0.09	75070	keystroke_o	o	n/a
37.61	0.1055	75220	keystroke_t	t	n/a
37.73	0.105	75460	keystroke_b	b	n/a
37.82	0.105	75640	keystroke_a	a	n/a
37.91	0.06	75820	keystroke_l	l	n/a
38.0455	0.1045	76091	keystroke_l	l	n/a
38.3295	0.136	76659	keystroke_Key.space	Key.space	n/a
38.5105	0.075	77021	keystroke_b	b	n/a
38.5705	0.1345	77141	keystroke_e	e	n/a
38.7195	0.1205	77439	keystroke_h	h	n/a
38.9155	0.074	77831	keystroke_a	a	n/a
39.0055	0.1195	78011	keystroke_l	l	n/a
39.1105	0.12	78221	keystroke_f	f	n/a
39.215	0.1045	78430	keystroke_Key.space	Key.space	n/a
39.4095	0.151	78819	keystroke_g	g	n/a
39.4855	0.15	78971	keystroke_e	e	n/a
39.5755	0.105	79151	keystroke_o	o	n/a
39.695	0.1655	79390	keystroke_g	g	n/a
39.755	0.2105	79510	keystroke_r	r	n/a
39.875	0.18	79750	keystroke_a	a	n/a
39.98	0.135	79960	keystroke_p	p	n/a
40.13	0.135	80260	keystroke_h	h	n/a
40.25	0.1045	80500	keystroke_y	y	n/a
40.475	0.09	80950	keystroke_Key.enter	Key.enter	n/a
40.5715	5.3505	81143	prompt	n/a	containers meters behavioral collectibles\n
41.105	0.1505	82210	keystroke_c	c	n/a
41.21	0.15	82420	keystroke_o	o	n/a
41.315	0.1055	82630	keystroke_n	n	n/a
41.435	0.12	82870	keystroke_t	t	n/a
41.51	0.135	83020	keystroke_a	a	n/a
41.57	0.12	83140	keystroke_i	i	n/a
41.66	0.12	83320	keystroke_n	n	n/a
41.705	0.135	83410	keystroke_e	e	n/a
41.795	0.1805	83590	keystroke_r	r	n/a
41.915	0.135	83830	keystroke_s	s	n/a
42.02	0.12	84040	keystroke_Key.space	Key.space	n/a
42.08	0.12	84160	keystroke_m	m	n/a
42.1555	0.1345	84311	keystroke_e	e	n/a
42.275	0.1355	84550	keystroke_t	t	n/a
42.395	0.1345	84790	keystroke_e	e	n/a
42.5005	0.1795	85001	keystroke_r	r	n/a
42.605	0.15	85210	keystroke_s	s	n/a
42.695	0.12	85390	keystroke_Key.space	Key.space	n/a
42.83	0.105	85660	keystroke_b	b	n/a
42.92	0.105	85840	keystroke_e	e	n/a
43.1	0.075	86200	keystroke_h	h	n/a
43.19	0.1195	86380	keystroke_a	a	n/a
43.28	0.1355	86560	keystroke_v	v	n/a
43.3845	0.1655	86769	keystroke_i	i	n/a
43.475	0.1195	86950	keystroke_o	o	n/a
43.6395	0.1055	87279	keystroke_r	r	n/a
43.8055	0.149	87611	keystroke_a	a	n/a
43.925	0.1055	87850	keystroke_l	l	n/a
44.0895	0.09	88179	keystroke_Key.space	Key.space	n/a
44.2555	0.12	88511	keystroke_c	c	n/a
44.3155	0.0895	88631	keystroke_o	o	n/a
44.615	0.0595	89230	keystroke_l	l	n/a
44.735	0.105	89470	keystroke_l	l	n/a
44.81	0.18	89620	keystroke_e	e	n/a
44.8705	0.0895	89741	keystroke_c	c	n/a
45.0955	0.075	90191	keystroke_t	t	n/a
45.1855	0.089	90371	keystroke_i	i	n/a
45.3655	0.105	90731	keystroke_b	b	n/a
45.4845	0.106	90969	keystroke_l	l	n/a
45.6045	0.151	91209	keystroke_e	e	n/a
45.695	0.105	91390	keystroke_s	s	n/a
45.8445	0.0755	91689	keystroke_Key.enter	Key.enter	n/a
45.9265	4.4055	91853	prompt	n/a	drives slowly strings wanna\n
46.4595	0.1505	92919	keystroke_d	d	n/a
46.745	0.09	93490	keystroke_i	i	n/a
47.0905	0.1045	94181	keystroke_Key.backspace	Key.backspace	n/a
47.1805	0.104	94361	keystroke_r	r	n/a
47.3455	0.12	94691	keystroke_i	i	n/a
47.4655	0.2245	94931	keystroke_v	v	n/a
47.6595	0.165	95319	keystroke_e	e	n/a
47.7495	0.1055	95499	keystroke_s	s	n/a
47.8395	0.1355	95679	keystroke_Key.space	Key.space	n/a
47.915	0.1345	95830	keystroke_s	s	n/a
48.02	0.1655	96040	keystroke_l	l	n/a
48.0805	0.15	96161	keystroke_o	o	n/a
48.1855	0.0895	96371	keystroke_w	w	n/a
48.515	0.15	97030	keystroke_l	l	n/a
48.62	0.15	97240	keystroke_y	y	n/a
48.755	0.15	97510	keystroke_Key.space	Key.space	n/a
48.875	0.135	97750	keystroke_s	s	n/a
48.995	0.135	97990	keystroke_t	t	n/a
49.07	0.12	98140	keystroke_r	r	n/a
49.145	0.1205	98290	keystroke_i	i	n/a
49.22	0.1355	98440	keystroke_n	n	n/a
49.3105	0.165	98621	keystroke_g	g	n/a
49.3705	0.134	98741	keystroke_s	s	n/a
49.4905	0.12	98981	keystroke_Key.space	Key.space	n/a
49.6255	0.165	99251	keystroke_w	w	n/a
49.7005	0.12	99401	keystroke_a	a	n/a
49.8055	0.0455	99611	keystroke_n	n	n/a
49.9255	0.105	99851	keystroke_n	n	n/a
50.0455	0.075	100091	keystroke_a	a	n/a
50.2555	0.074	100511	keystroke_Key.enter	Key.enter	n/a
50.3365	4.8855	100673	prompt	n/a	rider sbjct live executive\n
50.8255	0.09	101651	keystroke_r	r	n/a
50.9295	0.12	101859	keystroke_i	i	n/a
51.125	0.1345	102250	keystroke_d	d	n/a
51.2445	0.165	102489	keystroke_e	e	n/a
51.3645	0.1505	102729	keystroke_r	r	n/a
51.4545	0.135	102909	keystroke_Key.space	Key.space	n/a
51.6645	0.12	103329	keystroke_s	s	n/a
51.9345	0.105	103869	keystroke_b	b	n/a
52.0855	0.1345	104171	keystroke_j	j	n/a
52.3695	0.06	104739	keystroke_c	c	n/a
52.775	0.105	105550	keystroke_t	t	n/a
53.06	0.1345	106120	keystroke_Key.space	Key.space	n/a
53.39	0.1805	106780	keystroke_l	l	n/a
53.4955	0.12	106991	keystroke_i	i	n/a
53.5855	0.1495	107171	keystroke_v	v	n/a
53.765	0.12	107530	keystroke_e	e	n/a
53.87	0.12	107740	keystroke_Key.space	Key.space	n/a
53.96	0.12	107920	keystroke_e	e	n/a
54.11	0.1505	108220	keystroke_x	x	n/a
54.305	0.135	108610	keystroke_e	e	n/a
54.395	0.12	108790	keystroke_c	c	n/a
54.5605	0.1195	109121	keystroke_u	u	n/a
54.6955	0.0745	109391	keystroke_t	t	n/a
54.8	0.12	109600	keystroke_i	i	n/a
54.905	0.135	109810	keystroke_v	v	n/a
54.98	0.1205	109960	keystroke_e	e	n/a
55.13	0.09	110260	keystroke_Key.enter	Key.enter	n/a
55.2275	4.555	110455	prompt	n/a	silence shock pubmed malawi\n
55.7605	0.105	111521	keystroke_s	s	n/a
55.9245	0.2405	111849	keystroke_i	i	n/a
56.0745	0.1355	112149	keystroke_l	l	n/a
56.24	0.09	112480	keystroke_e	e	n/a
56.331	0.1485	112662	keystroke_n	n	n/a
56.4355	0.225	112871	keystroke_c	c	n/a
56.5555	0.1345	113111	keystroke_e	e	n/a
56.675	0.12	113350	keystroke_Key.space	Key.space	n/a
56.885	0.12	113770	keystroke_s	s	n/a
56.99	0.09	113980	keystroke_h	h	n/a
57.2	0.105	114400	keystroke_o	o	n/a
57.3655	0.1345	114731	keystroke_c	c	n/a
57.53	0.12	115060	keystroke_k	k	n/a
57.635	0.12	115270	keystroke_Key.space	Key.space	n/a
57.785	0.105	115570	keystroke_p	p	n/a
57.98	0.105	115960	keystroke_u	u	n/a
58.1	0.105	116200	keystroke_b	b	n/a
58.22	0.1495	116440	keystroke_m	m	n/a
58.3405	0.195	116681	keystroke_e	e	n/a
58.4305	0.18	116861	keystroke_d	d	n/a
58.5495	0.151	117099	keystroke_Key.space	Key.space	n/a
58.73	0.0895	117460	keystroke_m	m	n/a
58.8055	0.1045	117611	keystroke_a	a	n/a
58.9255	0.1195	117851	keystroke_l	l	n/a
59.1955	0.18	118391	keystroke_a	a	n/a
59.33	0.15	118660	keystroke_w	w	n/a
59.45	0.09	118900	keystroke_i	i	n/a
59.705	0.0755	119410	keystroke_Key.enter	Key.enter	n/a
59.787	5.155	119574	prompt	n/a	library restrictions investigation garage\n
60.44	0.12	120880	keystroke_l	l	n/a
60.5005	0.12	121001	keystroke_i	i	n/a
60.605	0.1505	121210	keystroke_b	b	n/a
60.7405	0.135	121481	keystroke_r	r	n/a
60.8595	0.226	121719	keystroke_a	a	n/a
61.0395	0.18	122079	keystroke_r	r	n/a
61.19	0.1055	122380	keystroke_y	y	n/a
61.3095	0.1205	122619	keystroke_Key.space	Key.space	n/a
61.3855	0.1495	122771	keystroke_r	r	n/a
61.445	0.1355	122890	keystroke_e	e	n/a
61.55	0.1505	123100	keystroke_s	s	n/a
61.6705	0.135	123341	keystroke_t	t	n/a
61.7455	0.135	123491	keystroke_r	r	n/a
61.8505	0.075	123701	keystroke_i	i	n/a
61.9555	0.12	123911	keystroke_c	c	n/a
62.2255	0.1195	124451	keystroke_t	t	n/a
62.27	0.2995	124540	keystroke_i	i	n/a
62.375	0.1495	124750	keystroke_o	o	n/a
62.4945	0.135	124989	keystroke_n	n	n/a
62.6005	0.1345	125201	keystroke_s	s	n/a
62.6595	0.105	125319	keystroke_Key.space	Key.space	n/a
62.7655	0.1045	125531	keystroke_i	i	n/a
62.8255	0.135	125651	keystroke_n	n	n/a
62.915	0.12	125830	keystroke_v	v	n/a
63.0955	0.2545	126191	keystroke_e	e	n/a
63.1855	0.1495	126371	keystroke_s	s	n/a
63.3055	0.105	126611	keystroke_t	t	n/a
63.4255	0.0595	126851	keystroke_i	i	n/a
63.5	0.105	127000	keystroke_g	g	n/a
63.59	0.135	127180	keystroke_a	a	n/a
63.6655	0.135	127331	keystroke_t	t	n/a
63.7555	0.2395	127511	keystroke_i	i	n/a
63.815	0.135	127630	keystroke_o	o	n/a
63.92	0.135	127840	keystroke_n	n	n/a
64.025	0.1505	128050	keystroke_Key.space	Key.space	n/a
64.1	0.1205	128200	keystroke_g	g	n/a
64.205	0.135	128410	keystroke_a	a	n/a
64.31	0.135	128620	keystroke_r	r	n/a
64.43	0.15	128860	keystroke_a	a	n/a
64.565	0.15	129130	keystroke_g	g	n/a
64.6405	0.134	129281	keystroke_e	e	n/a
64.8645	0.075	129729	keystroke_Key.enter	Key.enter	n/a
64.946	6.116	129892	prompt	n/a	regime screensavers literary genome\n
65.4955	0.209	130991	keystroke_r	r	n/a
65.6005	0.15	131201	keystroke_e	e	n/a
66.005	0.12	132010	keystroke_g	g	n/a
66.185	0.1505	132370	keystroke_i	i	n/a
66.26	0.165	132520	keystroke_m	m	n/a
66.47	0.1805	132940	keystroke_e	e	n/a
66.5895	0.136	133179	keystroke_Key.space	Key.space	n/a
66.875	0.165	133750	keystroke_s	s	n/a
66.9655	0.15	133931	keystroke_c	c	n/a
67.265	0.075	134530	keystroke_r	r	n/a
67.295	0.09	134590	keystroke_e	e	n/a
67.4595	0.12	134919	keystroke_e	e	n/a
67.5505	0.1195	135101	keystroke_n	n	n/a
67.6245	0.151	135249	keystroke_s	s	n/a
67.7755	0.1795	135551	keystroke_a	a	n/a
67.9105	0.119	135821	keystroke_v	v	n/a
68.0595	0.151	136119	keystroke_e	e	n/a
68.196	0.2095	136392	keystroke_r	r	n/a
68.3305	0.1495	136661	keystroke_s	s	n/a
68.3905	0.119	136781	keystroke_Key.space	Key.space	n/a
68.4955	0.12	136991	keystroke_l	l	n/a
68.5555	0.134	137111	keystroke_i	i	n/a
68.6005	0.1345	137201	keystroke_t	t	n/a
68.7055	0.1645	137411	keystroke_e	e	n/a
68.825	0.15	137650	keystroke_r	r	n/a
69.14	0.165	138280	keystroke_a	a	n/a
69.215	0.165	138430	keystroke_r	r	n/a
69.395	0.1055	138790	keystroke_y	y	n/a
69.575	0.12	139150	keystroke_Key.space	Key.space	n/a
69.7405	0.165	139481	keystroke_g	g	n/a
69.965	0.165	139930	keystroke_e	e	n/a
70.415	0.1195	140830	keystroke_n	n	n/a
70.5195	0.1805	141039	keystroke_o	o	n/a
70.6405	0.1345	141281	keystroke_m	m	n/a
70.7755	0.105	141551	keystroke_e	e	n/a
70.955	0.1055	141910	keystroke_Key.enter	Key.enter	n/a
71.0665	3.8505	142133	prompt	n/a	drag folders churches winter\n
71.585	0.165	143170	keystroke_d	d	n/a
71.66	0.105	143320	keystroke_r	r	n/a
71.7805	0.1645	143561	keystroke_a	a	n/a
71.885	0.1205	143770	keystroke_g	g	n/a
71.975	0.15	143950	keystroke_Key.space	Key.space	n/a
72.14	0.105	144280	keystroke_f	f	n/a
72.2005	0.1345	144401	keystroke_o	o	n/a
72.2755	0.1945	144551	keystroke_l	l	n/a
72.44	0.1055	144880	keystroke_d	d	n/a
72.53	0.1505	145060	keystroke_e	e	n/a
72.65	0.1655	145300	keystroke_r	r	n/a
72.785	0.15	145570	keystroke_s	s	n/a
72.83	0.1355	145660	keystroke_Key.space	Key.space	n/a
73.0105	0.1495	146021	keystroke_c	c	n/a
73.115	0.15	146230	keystroke_h	h	n/a
73.175	0.1505	146350	keystroke_u	u	n/a
73.4755	0.09	146951	keystroke_r	r	n/a
73.5955	0.165	147191	keystroke_c	c	n/a
73.7305	0.12	147461	keystroke_h	h	n/a
73.8655	0.21	147731	keystroke_e	e	n/a
73.9705	0.1345	147941	keystroke_s	s	n/a
74.09	0.12	148180	keystroke_Key.space	Key.space	n/a
74.24	0.1055	148480	keystroke_w	w	n/a
74.3	0.1055	148600	keystroke_i	i	n/a
74.375	0.12	148750	keystroke_n	n	n/a
74.4355	0.1495	148871	keystroke_t	t	n/a
74.6	0.1355	149200	keystroke_e	e	n/a
74.69	0.12	149380	keystroke_r	r	n/a
74.8545	0.061	149709	keystroke_Key.enter	Key.enter	n/a
74.922	5.8295	149844	prompt	n/a	idaho blackberry malpractice classes\n
75.5455	0.105	151091	keystroke_i	i	n/a
75.6805	0.195	151361	keystroke_d	d	n/a
75.8605	0.105	151721	keystroke_a	a	n/a
75.9805	0.165	151961	keystroke_h	h	n/a
76.0855	0.135	152171	keystroke_o	o	n/a
76.3105	0.134	152621	keystroke_Key.space	Key.space	n/a
76.625	0.1195	153250	keystroke_b	b	n/a
76.7295	0.105	153459	keystroke_l	l	n/a
76.8055	0.1495	153611	keystroke_a	a	n/a
76.895	0.1505	153790	keystroke_c	c	n/a
76.94	0.1355	153880	keystroke_k	k	n/a
77.2105	0.1195	154421	keystroke_b	b	n/a
77.2855	0.12	154571	keystroke_e	e	n/a
77.3895	0.091	154779	keystroke_r	r	n/a
77.5555	0.135	155111	keystroke_r	r	n/a
77.6455	0.105	155291	keystroke_y	y	n/a
78.02	0.12	156040	keystroke_Key.space	Key.space	n/a
78.3505	0.12	156701	keystroke_m	m	n/a
78.4855	0.105	156971	keystroke_a	a	n/a
78.5755	0.045	157151	keystroke_l	l	n/a
78.7255	0.105	157451	keystroke_p	p	n/a
78.8005	0.12	157601	keystroke_r	r	n/a
78.9055	0.135	157811	keystroke_a	a	n/a
79.1005	0.12	158201	keystroke_c	c	n/a
79.34	0.0605	158680	keystroke_t	t	n/a
79.43	0.09	158860	keystroke_i	i	n/a
79.5505	0.1795	159101	keystroke_c	c	n/a
79.67	0.135	159340	keystroke_e	e	n/a
79.775	0.12	159550	keystroke_Key.space	Key.space	n/a
79.85	0.1655	159700	keystroke_c	c	n/a
79.91	0.09	159820	keystroke_l	l	n/a
80.001	0.149	160002	keystroke_a	a	n/a
80.105	0.12	160210	keystroke_s	s	n/a
80.3	0.0905	160600	keystroke_s	s	n/a
80.4055	0.18	160811	keystroke_e	e	n/a
80.525	0.1055	161050	keystroke_s	s	n/a
80.6755	0.074	161351	keystroke_Key.enter	Key.enter	n/a
80.756	4.706	161512	prompt	n/a	victor attended suspect entities\n
81.3055	0.104	162611	keystroke_v	v	n/a
81.38	0.1055	162760	keystroke_i	i	n/a
81.5155	0.089	163031	keystroke_c	c	n/a
81.7405	0.12	163481	keystroke_t	t	n/a
81.8155	0.104	163631	keystroke_o	o	n/a
81.8745	0.15	163749	keystroke_r	r	n/a
81.965	0.135	163930	keystroke_Key.space	Key.space	n/a
82.04	0.15	164080	keystroke_a	a	n/a
82.145	0.075	164290	keystroke_t	t	n/a
82.3105	0.105	164621	keystroke_t	t	n/a
82.3845	0.121	164769	keystroke_e	e	n/a
82.4895	0.1055	164979	keystroke_n	n	n/a
82.6405	0.1045	165281	keystroke_d	d	n/a
82.85	0.1645	165700	keystroke_e	e	n/a
82.9245	0.1655	165849	keystroke_d	d	n/a
83.0605	0.149	166121	keystroke_Key.space	Key.space	n/a
83.15	0.0755	166300	keystroke_s	s	n/a
83.2105	0.12	166421	keystroke_u	u	n/a
83.3145	0.0905	166629	keystroke_s	s	n/a
83.48	0.135	166960	keystroke_p	p	n/a
83.585	0.18	167170	keystroke_e	e	n/a
83.675	0.045	167350	keystroke_c	c	n/a
83.9	0.1195	167800	keystroke_t	t	n/a
84.0045	0.105	168009	keystroke_Key.space	Key.space	n/a
84.4095	0.135	168819	keystroke_e	e	n/a
84.4845	0.136	168969	keystroke_n	n	n/a
84.59	0.0895	169180	keystroke_t	t	n/a
84.7255	0.105	169451	keystroke_i	i	n/a
84.8455	0.075	169691	keystroke_t	t	n/a
84.9505	0.1195	169901	keystroke_i	i	n/a
85.085	0.1495	170170	keystroke_e	e	n/a
85.1745	0.106	170349	keystroke_s	s	n/a
85.3555	0.1045	170711	keystroke_Key.enter	Key.enter	n/a
85.469	4.928	170938	prompt	n/a	columns vessel sheriff streaming\n
86.061	0.134	172122	keystroke_c	c	n/a
86.165	0.075	172330	keystroke_o	o	n/a
86.36	0.12	172720	keystroke_l	l	n/a
86.51	0.12	173020	keystroke_u	u	n/a
86.615	0.106	173230	keystroke_m	m	n/a
86.81	0.1355	173620	keystroke_n	n	n/a
86.9305	0.135	173861	keystroke_s	s	n/a
87.005	0.105	174010	keystroke_Key.space	Key.space	n/a
87.14	0.1055	174280	keystroke_v	v	n/a
87.275	0.135	174550	keystroke_e	e	n/a
87.35	0.0905	174700	keystroke_s	s	n/a
87.5305	0.165	175061	keystroke_s	s	n/a
87.6205	0.12	175241	keystroke_e	e	n/a
87.7555	0.12	175511	keystroke_l	l	n/a
87.9795	0.136	175959	keystroke_Key.space	Key.space	n/a
88.1445	0.121	176289	keystroke_s	s	n/a
88.2355	0.104	176471	keystroke_h	h	n/a
88.3705	0.12	176741	keystroke_e	e	n/a
88.506	0.104	177012	keystroke_r	r	n/a
88.64	0.135	177280	keystroke_i	i	n/a
88.79	0.0755	177580	keystroke_f	f	n/a
88.926	0.134	177852	keystroke_f	f	n/a
89.1355	0.15	178271	keystroke_Key.space	Key.space	n/a
89.345	0.135	178690	keystroke_s	s	n/a
89.4655	0.0895	178931	keystroke_t	t	n/a
89.6455	0.12	179291	keystroke_r	r	n/a
89.6755	0.1645	179351	keystroke_e	e	n/a
89.7505	0.1345	179501	keystroke_a	a	n/a
89.81	0.1205	179620	keystroke_m	m	n/a
89.9305	0.1495	179861	keystroke_i	i	n/a
90.035	0.12	180070	keystroke_n	n	n/a
90.1405	0.09	180281	keystroke_g	g	n/a
90.3045	0.09	180609	keystroke_Key.enter	Key.enter	n/a
90.4015	4.4505	180803	prompt	n/a	spam photo dimensional baptist\n
90.8895	0.135	181779	keystroke_s	s	n/a
91.0095	0.106	182019	keystroke_p	p	n/a
91.16	0.105	182320	keystroke_a	a	n/a
91.2195	0.1355	182439	keystroke_m	m	n/a
91.3245	0.105	182649	keystroke_Key.space	Key.space	n/a
91.445	0.1195	182890	keystroke_p	p	n/a
91.61	0.1205	183220	keystroke_h	h	n/a
91.7155	0.1045	183431	keystroke_o	o	n/a
91.835	0.1055	183670	keystroke_t	t	n/a
91.955	0.135	183910	keystroke_o	o	n/a
92.105	0.135	184210	keystroke_Key.space	Key.space	n/a
92.33	0.09	184660	keystroke_d	d	n/a
92.39	0.165	184780	keystroke_i	i	n/a
92.51	0.12	185020	keystroke_m	m	n/a
92.66	0.1205	185320	keystroke_e	e	n/a
92.7655	0.105	185531	keystroke_n	n	n/a
92.8855	0.1195	185771	keystroke_s	s	n/a
93.006	0.1645	186012	keystroke_i	i	n/a
93.02	0.1355	186040	keystroke_o	o	n/a
93.11	0.151	186220	keystroke_n	n	n/a
93.3055	0.09	186611	keystroke_a	a	n/a
93.4105	0.105	186821	keystroke_l	l	n/a
93.5595	0.106	187119	keystroke_Key.space	Key.space	n/a
93.8455	0.119	187691	keystroke_b	b	n/a
93.9805	0.1055	187961	keystroke_a	a	n/a
94.0705	0.09	188141	keystroke_p	p	n/a
94.1755	0.12	188351	keystroke_t	t	n/a
94.2805	0.12	188561	keystroke_i	i	n/a
94.4605	0.149	188921	keystroke_s	s	n/a
94.5655	0.105	189131	keystroke_t	t	n/a
94.7755	0.075	189551	keystroke_Key.enter	Key.enter	n/a
94.8555	4.511	189711	prompt	n/a	pride listing screensavers cruise\n
95.4205	0.0905	190841	keystroke_p	p	n/a
95.5115	0.104	191023	keystroke_r	r	n/a
95.6455	0.1045	191291	keystroke_i	i	n/a
95.7345	0.1805	191469	keystroke_d	d	n/a
95.8395	0.121	191679	keystroke_e	e	n/a
95.9155	0.119	191831	keystroke_Key.space	Key.space	n/a
95.9745	0.166	191949	keystroke_l	l	n/a
96.0645	0.076	192129	keystroke_i	i	n/a
96.1405	0.119	192281	keystroke_s	s	n/a
96.216	0.1035	192432	keystroke_t	t	n/a
96.2905	0.18	192581	keystroke_i	i	n/a
96.3945	0.165	192789	keystroke_n	n	n/a
96.5445	0.1205	193089	keystroke_g	g	n/a
96.6955	0.06	193391	keystroke_Key.space	Key.space	n/a
96.8755	0.12	193751	keystroke_s	s	n/a
96.9805	0.105	193961	keystroke_c	c	n/a
97.2195	0.076	194439	keystroke_r	r	n/a
97.2805	0.06	194561	keystroke_e	e	n/a
97.4155	0.09	194831	keystroke_e	e	n/a
97.5055	0.105	195011	keystroke_n	n	n/a
97.6555	0.15	195311	keystroke_s	s	n/a
97.7595	0.181	195519	keystroke_a	a	n/a
97.8805	0.135	195761	keystroke_v	v	n/a
98.0305	0.2095	196061	keystroke_e	e	n/a
98.1955	0.1945	196391	keystroke_r	r	n/a
98.33	0.165	196660	keystroke_s	s	n/a
98.405	0.12	196810	keystroke_Key.space	Key.space	n/a
98.5555	0.21	197111	keystroke_c	c	n/a
98.72	0.1355	197440	keystroke_r	r	n/a
98.8255	0.18	197651	keystroke_u	u	n/a
98.8855	0.135	197771	keystroke_i	i	n/a
99.0355	0.105	198071	keystroke_s	s	n/a
99.0955	0.105	198191	keystroke_e	e	n/a
99.2605	0.104	198521	keystroke_Key.enter	Key.enter	n/a
99.3695	7.049	198739	prompt	n/a	greensboro unions prepaid employee\n
99.92	0.165	199840	keystroke_g	g	n/a
100.205	0.18	200410	keystroke_r	r	n/a
100.31	0.1205	200620	keystroke_e	e	n/a
100.4905	0.12	200981	keystroke_e	e	n/a
100.6245	0.1065	201249	keystroke_n	n	n/a
100.7905	0.0895	201581	keystroke_s	s	n/a
100.94	0.1355	201880	keystroke_b	b	n/a
101.031	0.074	202062	keystroke_o	o	n/a
101.1205	0.1045	202241	keystroke_r	r	n/a
101.225	0.12	202450	keystroke_o	o	n/a
101.359	0.121	202718	keystroke_Key.space	Key.space	n/a
101.4955	0.1345	202991	keystroke_u	u	n/a
101.615	0.1355	203230	keystroke_n	n	n/a
101.735	0.255	203470	keystroke_i	i	n/a
101.8255	0.1495	203651	keystroke_o	o	n/a
101.9455	0.165	203891	keystroke_n	n	n/a
102.1545	0.12	204309	keystroke_s	s	n/a
102.395	0.1045	204790	keystroke_Key.space	Key.space	n/a
103.3255	0.119	206651	keystroke_p	p	n/a
103.4	0.135	206800	keystroke_r	r	n/a
103.461	0.149	206922	keystroke_e	e	n/a
103.6245	0.1055	207249	keystroke_p	p	n/a
103.7455	0.1195	207491	keystroke_a	a	n/a
103.8505	0.059	207701	keystroke_p	p	n/a
104.4345	0.075	208869	keystroke_Key.backspace	Key.backspace	n/a
105.11	0.09	210220	keystroke_i	i	n/a
105.23	0.1195	210460	keystroke_d	d	n/a
105.3345	0.15	210669	keystroke_Key.space	Key.space	n/a
105.4555	0.105	210911	keystroke_e	e	n/a
105.5305	0.09	211061	keystroke_m	m	n/a
105.6655	0.149	211331	keystroke_p	p	n/a
105.7705	0.18	211541	keystroke_l	l	n/a
105.8745	0.1505	211749	keystroke_o	o	n/a
105.9505	0.12	211901	keystroke_y	y	n/a
106.04	0.0755	212080	keystroke_e	e	n/a
106.1895	0.106	212379	keystroke_e	e	n/a
106.3555	0.059	212711	keystroke_Key.enter	Key.enter	n/a
106.4225	4.0295	212845	prompt	n/a	information pilot combo deserve\n
106.97	0.12	213940	keystroke_i	i	n/a
107.045	0.135	214090	keystroke_n	n	n/a
107.1355	0.1195	214271	keystroke_f	f	n/a
107.24	0.075	214480	keystroke_o	o	n/a
107.3	0.105	214600	keystroke_r	r	n/a
107.39	0.12	214780	keystroke_m	m	n/a
107.48	0.12	214960	keystroke_a	a	n/a
107.555	0.135	215110	keystroke_t	t	n/a
107.6305	0.2245	215261	keystroke_i	i	n/a
107.675	0.136	215350	keystroke_o	o	n/a
107.7955	0.1195	215591	keystroke_n	n	n/a
107.885	0.12	215770	keystroke_Key.space	Key.space	n/a
108.02	0.0895	216040	keystroke_p	p	n/a
108.0945	0.1055	216189	keystroke_i	i	n/a
108.3195	0.211	216639	keystroke_l	l	n/a
108.4555	0.12	216911	keystroke_o	o	n/a
108.5595	0.09	217119	keystroke_t	t	n/a
108.635	0.105	217270	keystroke_Key.space	Key.space	n/a
108.7855	0.1345	217571	keystroke_c	c	n/a
108.89	0.1345	217780	keystroke_o	o	n/a
108.9505	0.15	217901	keystroke_m	m	n/a
109.115	0.0895	218230	keystroke_b	b	n/a
109.2055	0.135	218411	keystroke_o	o	n/a
109.3705	0.12	218741	keystroke_Key.space	Key.space	n/a
109.5205	0.15	219041	keystroke_d	d	n/a
109.5955	0.15	219191	keystroke_e	e	n/a
109.7005	0.21	219401	keystroke_s	s	n/a
109.8655	0.105	219731	keystroke_e	e	n/a
109.8955	0.105	219791	keystroke_r	r	n/a
110.1355	0.12	220271	keystroke_v	v	n/a
110.2105	0.105	220421	keystroke_e	e	n/a
110.3755	0.075	220751	keystroke_Key.enter	Key.enter	n/a
110.4565	4.9165	220913	prompt	n/a	consortium oral tracks kruger\n
111.1405	0.1645	222281	keystroke_c	c	n/a
111.215	0.1655	222430	keystroke_o	o	n/a
111.3355	0.1195	222671	keystroke_n	n	n/a
111.665	0.135	223330	keystroke_s	s	n/a
111.785	0.12	223570	keystroke_o	o	n/a
111.89	0.15	223780	keystroke_r	r	n/a
111.995	0.1355	223990	keystroke_t	t	n/a
112.145	0.06	224290	keystroke_i	i	n/a
112.2955	0.075	224591	keystroke_u	u	n/a
112.4755	0.1345	224951	keystroke_m	m	n/a
112.625	0.165	225250	keystroke_Key.space	Key.space	n/a
112.895	0.09	225790	keystroke_o	o	n/a
112.97	0.15	225940	keystroke_r	r	n/a
113.09	0.1355	226180	keystroke_a	a	n/a
113.2405	0.0895	226481	keystroke_l	l	n/a
113.375	0.12	226750	keystroke_Key.space	Key.space	n/a
113.465	0.1345	226930	keystroke_t	t	n/a
113.54	0.12	227080	keystroke_r	r	n/a
113.5995	0.1805	227199	keystroke_a	a	n/a
113.7655	0.149	227531	keystroke_c	c	n/a
113.8855	0.1195	227771	keystroke_k	k	n/a
114.0505	0.164	228101	keystroke_s	s	n/a
114.1545	0.135	228309	keystroke_Key.space	Key.space	n/a
114.44	0.0755	228880	keystroke_k	k	n/a
114.6645	0.105	229329	keystroke_r	r	n/a
114.8155	0.1045	229631	keystroke_u	u	n/a
114.9355	0.1345	229871	keystroke_g	g	n/a
114.9955	0.1795	229991	keystroke_e	e	n/a
115.1	0.12	230200	keystroke_r	r	n/a
115.295	0.075	230590	keystroke_Key.enter	Key.enter	n/a
115.378	5.139	230756	prompt	n/a	decisions team appreciated fighters\n
116.0455	0.1045	232091	keystroke_d	d	n/a
116.105	0.151	232210	keystroke_e	e	n/a
116.256	0.164	232512	keystroke_c	c	n/a
116.405	0.06	232810	keystroke_i	i	n/a
116.48	0.105	232960	keystroke_s	s	n/a
116.5705	0.225	233141	keystroke_i	i	n/a
116.6155	0.1495	233231	keystroke_o	o	n/a
116.7055	0.1945	233411	keystroke_n	n	n/a
116.7795	0.1355	233559	keystroke_s	s	n/a
116.8545	0.12	233709	keystroke_Key.space	Key.space	n/a
116.945	0.1805	233890	keystroke_t	t	n/a
117.02	0.1955	234040	keystroke_e	e	n/a
117.1405	0.164	234281	keystroke_a	a	n/a
117.2905	0.165	234581	keystroke_m	m	n/a
117.4095	0.1505	234819	keystroke_Key.space	Key.space	n/a
117.5455	0.164	235091	keystroke_a	a	n/a
117.6495	0.075	235299	keystroke_p	p	n/a
117.7845	0.1205	235569	keystroke_p	p	n/a
117.8445	0.106	235689	keystroke_r	r	n/a
117.9195	0.121	235839	keystroke_e	e	n/a
118.0845	0.136	236169	keystroke_c	c	n/a
118.2055	0.075	236411	keystroke_i	i	n/a
118.2355	0.18	236471	keystroke_a	a	n/a
118.4005	0.119	236801	keystroke_t	t	n/a
118.5055	0.209	237011	keystroke_e	e	n/a
118.6245	0.1205	237249	keystroke_d	d	n/a
118.73	0.15	237460	keystroke_Key.space	Key.space	n/a
118.85	0.09	237700	keystroke_f	f	n/a
118.925	0.1655	237850	keystroke_i	i	n/a
119.3605	0.1195	238721	keystroke_g	g	n/a
119.5705	0.105	239141	keystroke_h	h	n/a
119.765	0.0455	239530	keystroke_t	t	n/a
119.87	0.1945	239740	keystroke_e	e	n/a
120.035	0.225	240070	keystroke_r	r	n/a
120.2455	0.09	240491	keystroke_s	s	n/a
120.455	0.06	240910	keystroke_Key.enter	Key.enter	n/a
120.5215	7.66	241043	prompt	n/a	substantially facing sorted operator\n
121.0105	0.105	242021	keystroke_s	s	n/a
121.1005	0.164	242201	keystroke_u	u	n/a
121.2345	0.1055	242469	keystroke_b	b	n/a
121.3105	0.1345	242621	keystroke_s	s	n/a
121.4145	0.1655	242829	keystroke_t	t	n/a
121.805	0.12	243610	keystroke_a	a	n/a
121.9105	0.12	243821	keystroke_n	n	n/a
122.93	0.15	245860	keystroke_t	t	n/a
123.035	0.075	246070	keystroke_i	i	n/a
123.1555	0.1345	246311	keystroke_a	a	n/a
123.2305	0.0895	246461	keystroke_l	l	n/a
123.395	0.1355	246790	keystroke_l	l	n/a
123.5145	0.166	247029	keystroke_y	y	n/a
123.7095	0.1655	247419	keystroke_Key.space	Key.space	n/a
124.0095	0.121	248019	keystroke_f	f	n/a
124.1155	0.1795	248231	keystroke_a	a	n/a
124.2505	0.1345	248501	keystroke_c	c	n/a
124.52	0.165	249040	keystroke_i	i	n/a
124.61	0.1655	249220	keystroke_n	n	n/a
124.715	0.135	249430	keystroke_g	g	n/a
124.895	0.12	249790	keystroke_s	s	n/a
125.495	0.1045	250990	keystroke_Key.backspace	Key.backspace	n/a
125.6155	0.165	251231	keystroke_Key.space	Key.space	n/a
125.7655	0.1495	251531	keystroke_s	s	n/a
125.8405	0.12	251681	keystroke_o	o	n/a
125.9305	0.074	251861	keystroke_r	r	n/a
126.1105	0.135	252221	keystroke_t	t	n/a
126.2605	0.225	252521	keystroke_e	e	n/a
126.3955	0.15	252791	keystroke_d	d	n/a
126.4695	0.1505	252939	keystroke_Key.space	Key.space	n/a
126.53	0.21	253060	keystroke_o	o	n/a
126.6045	0.1205	253209	keystroke_p	p	n/a
126.68	0.1205	253360	keystroke_e	e	n/a
126.7545	0.091	253509	keystroke_r	r	n/a
126.8605	0.1495	253721	keystroke_a	a	n/a
126.965	0.18	253930	keystroke_t	t	n/a
127.28	0.135	254560	keystroke_e	e	n/a
127.5945	0.0755	255189	keystroke_Key.backspace	Key.backspace	n/a
127.775	0.075	255550	keystroke_o	o	n/a
127.865	0.09	255730	keystroke_r	r	n/a
128.105	0.075	256210	keystroke_Key.enter	Key.enter	n/a
128.188	4.524	256376	prompt	n/a	amazon carry permanent develop\n
128.7195	0.06	257439	keystroke_a	a	n/a
128.7955	0.09	257591	keystroke_m	m	n/a
128.93	0.06	257860	keystroke_a	a	n/a
129.14	0.12	258280	keystroke_z	z	n/a
129.23	0.12	258460	keystroke_o	o	n/a
129.3055	0.1345	258611	keystroke_n	n	n/a
129.35	0.135	258700	keystroke_Key.space	Key.space	n/a
129.47	0.165	258940	keystroke_c	c	n/a
129.62	0.105	259240	keystroke_a	a	n/a
129.74	0.09	259480	keystroke_r	r	n/a
129.8755	0.135	259751	keystroke_r	r	n/a
129.9655	0.1195	259931	keystroke_y	y	n/a
130.115	0.12	260230	keystroke_Key.space	Key.space	n/a
130.22	0.1205	260440	keystroke_p	p	n/a
130.2955	0.135	260591	keystroke_e	e	n/a
130.3555	0.15	260711	keystroke_r	r	n/a
130.4605	0.135	260921	keystroke_m	m	n/a
130.85	0.1055	261700	keystroke_a	a	n/a
131.135	0.09	262270	keystroke_n	n	n/a
131.21	0.1055	262420	keystroke_e	e	n/a
131.3305	0.1195	262661	keystroke_n	n	n/a
131.4805	0.12	262961	keystroke_t	t	n/a
131.57	0.1345	263140	keystroke_Key.space	Key.space	n/a
131.7345	0.165	263469	keystroke_d	d	n/a
131.84	0.12	263680	keystroke_e	e	n/a
132.0495	0.106	264099	keystroke_v	v	n/a
132.1095	0.1205	264219	keystroke_e	e	n/a
132.2005	0.1645	264401	keystroke_l	l	n/a
132.29	0.15	264580	keystroke_o	o	n/a
132.3345	0.136	264669	keystroke_p	p	n/a
132.635	0.075	265270	keystroke_Key.enter	Key.enter	n/a
132.718	4.104	265436	prompt	n/a	kinds recipe vocal computing\n
133.37	0.165	266740	keystroke_k	k	n/a
133.505	0.18	267010	keystroke_i	i	n/a
133.6395	0.1505	267279	keystroke_n	n	n/a
133.73	0.1795	267460	keystroke_d	d	n/a
133.8205	0.1495	267641	keystroke_s	s	n/a
133.9105	0.179	267821	keystroke_Key.space	Key.space	n/a
134.03	0.1195	268060	keystroke_r	r	n/a
134.1055	0.134	268211	keystroke_e	e	n/a
134.2855	0.164	268571	keystroke_c	c	n/a
134.4195	0.2405	268839	keystroke_i	i	n/a
134.54	0.135	269080	keystroke_p	p	n/a
134.735	0.15	269470	keystroke_e	e	n/a
134.855	0.12	269710	keystroke_Key.space	Key.space	n/a
135.05	0.105	270100	keystroke_v	v	n/a
135.11	0.12	270220	keystroke_o	o	n/a
135.245	0.1505	270490	keystroke_c	c	n/a
135.38	0.12	270760	keystroke_a	a	n/a
135.47	0.105	270940	keystroke_l	l	n/a
135.62	0.06	271240	keystroke_Key.space	Key.space	n/a
135.65	0.1655	271300	keystroke_c	c	n/a
135.74	0.1355	271480	keystroke_o	o	n/a
135.905	0.12	271810	keystroke_m	m	n/a
136.07	0.15	272140	keystroke_p	p	n/a
136.16	0.075	272320	keystroke_u	u	n/a
136.265	0.105	272530	keystroke_t	t	n/a
136.355	0.1355	272710	keystroke_i	i	n/a
136.445	0.1345	272890	keystroke_n	n	n/a
136.5645	0.0905	273129	keystroke_g	g	n/a
136.745	0.075	273490	keystroke_Key.enter	Key.enter	n/a
136.829	4.8075	273658	prompt	n/a	accordingly recall angeles witch\n
137.36	0.15	274720	keystroke_a	a	n/a
137.495	0.105	274990	keystroke_c	c	n/a
137.675	0.09	275350	keystroke_c	c	n/a
137.78	0.075	275560	keystroke_o	o	n/a
137.84	0.1655	275680	keystroke_r	r	n/a
137.93	0.1345	275860	keystroke_d	d	n/a
138.0355	0.15	276071	keystroke_i	i	n/a
138.125	0.1505	276250	keystroke_n	n	n/a
138.2305	0.119	276461	keystroke_g	g	n/a
138.4095	0.105	276819	keystroke_l	l	n/a
138.53	0.12	277060	keystroke_y	y	n/a
138.635	0.15	277270	keystroke_Key.space	Key.space	n/a
138.8	0.105	277600	keystroke_r	r	n/a
138.86	0.12	277720	keystroke_e	e	n/a
139.0555	0.1195	278111	keystroke_c	c	n/a
139.16	0.1355	278320	keystroke_a	a	n/a
139.205	0.0755	278410	keystroke_l	l	n/a
139.3405	0.12	278681	keystroke_l	l	n/a
139.4305	0.135	278861	keystroke_Key.space	Key.space	n/a
139.5205	0.12	279041	keystroke_a	a	n/a
139.6095	0.0905	279219	keystroke_n	n	n/a
139.7305	0.165	279461	keystroke_g	g	n/a
139.8205	0.119	279641	keystroke_e	e	n/a
139.955	0.1205	279910	keystroke_l	l	n/a
140.09	0.2255	280180	keystroke_e	e	n/a
140.2095	0.151	280419	keystroke_s	s	n/a
140.3745	0.09	280749	keystroke_Key.space	Key.space	n/a
140.4795	0.121	280959	keystroke_w	w	n/a
140.6895	0.1355	281379	keystroke_i	i	n/a
140.795	0.06	281590	keystroke_t	t	n/a
141.0055	0.15	282011	keystroke_c	c	n/a
141.17	0.15	282340	keystroke_h	h	n/a
141.545	0.09	283090	keystroke_Key.enter	Key.enter	n/a
141.6405	3.5235	283281	prompt	n/a	lesser camp resolve skype\n
142.175	0.105	284350	keystroke_l	l	n/a
142.2355	0.149	284471	keystroke_e	e	n/a
142.3255	0.119	284651	keystroke_s	s	n/a
142.52	0.1655	285040	keystroke_s	s	n/a
142.5955	0.1645	285191	keystroke_e	e	n/a
142.6705	0.1045	285341	keystroke_r	r	n/a
142.745	0.1645	285490	keystroke_Key.space	Key.space	n/a
142.9245	0.1505	285849	keystroke_c	c	n/a
143.0295	0.15	286059	keystroke_a	a	n/a
143.1195	0.2255	286239	keystroke_m	m	n/a
143.24	0.12	286480	keystroke_p	p	n/a
143.3145	0.151	286629	keystroke_Key.space	Key.space	n/a
143.39	0.1505	286780	keystroke_r	r	n/a
143.4805	0.255	286961	keystroke_e	e	n/a
143.6305	0.165	287261	keystroke_s	s	n/a
143.7655	0.18	287531	keystroke_o	o	n/a
143.9005	0.1645	287801	keystroke_l	l	n/a
144.035	0.105	288070	keystroke_v	v	n/a
144.065	0.1055	288130	keystroke_e	e	n/a
144.2	0.12	288400	keystroke_Key.space	Key.space	n/a
144.32	0.12	288640	keystroke_s	s	n/a
144.41	0.135	288820	keystroke_k	k	n/a
144.5455	0.1045	289091	keystroke_y	y	n/a
144.71	0.12	289420	keystroke_p	p	n/a
144.89	0.1055	289780	keystroke_e	e	n/a
145.085	0.075	290170	keystroke_Key.enter	Key.enter	n/a
145.1685	5.2905	290337	prompt	n/a	mesh sheep recover perspective\n
145.79	0.15	291580	keystroke_m	m	n/a
145.91	0.24	291820	keystroke_e	e	n/a
146.03	0.135	292060	keystroke_s	s	n/a
146.1805	0.119	292361	keystroke_h	h	n/a
146.2555	0.149	292511	keystroke_Key.space	Key.space	n/a
146.3295	0.12	292659	keystroke_s	s	n/a
146.435	0.1045	292870	keystroke_h	h	n/a
146.5695	0.0905	293139	keystroke_e	e	n/a
146.7355	0.12	293471	keystroke_e	e	n/a
147.0505	0.12	294101	keystroke_p	p	n/a
147.47	0.12	294940	keystroke_Key.space	Key.space	n/a
147.545	0.12	295090	keystroke_r	r	n/a
147.635	0.12	295270	keystroke_e	e	n/a
147.83	0.1055	295660	keystroke_c	c	n/a
147.95	0.09	295900	keystroke_o	o	n/a
148.0555	0.1345	296111	keystroke_v	v	n/a
148.13	0.195	296260	keystroke_e	e	n/a
148.235	0.135	296470	keystroke_r	r	n/a
148.31	0.1345	296620	keystroke_Key.space	Key.space	n/a
148.4005	0.134	296801	keystroke_p	p	n/a
148.52	0.1795	297040	keystroke_e	e	n/a
148.6555	0.1945	297311	keystroke_r	r	n/a
148.8955	0.18	297791	keystroke_s	s	n/a
149.225	0.1195	298450	keystroke_p	p	n/a
149.4045	0.1355	298809	keystroke_e	e	n/a
149.495	0.105	298990	keystroke_c	c	n/a
149.735	0.0605	299470	keystroke_t	t	n/a
149.81	0.105	299620	keystroke_i	i	n/a
149.93	0.135	299860	keystroke_v	v	n/a
150.035	0.105	300070	keystroke_e	e	n/a
150.3505	0.104	300701	keystroke_Key.enter	Key.enter	n/a
150.4625	7.091	300925	prompt	n/a	compliant fujitsu technical welfare\n
151.0855	0.1345	302171	keystroke_c	c	n/a
151.13	0.15	302260	keystroke_o	o	n/a
151.205	0.1205	302410	keystroke_m	m	n/a
151.4	0.135	302800	keystroke_p	p	n/a
151.4755	0.12	302951	keystroke_l	l	n/a
151.6995	0.1205	303399	keystroke_i	i	n/a
152.105	0.135	304210	keystroke_a	a	n/a
152.2555	0.119	304511	keystroke_n	n	n/a
152.36	0.135	304720	keystroke_t	t	n/a
152.45	0.165	304900	keystroke_Key.space	Key.space	n/a
152.6745	0.121	305349	keystroke_f	f	n/a
152.81	0.1805	305620	keystroke_j	j	n/a
152.9	0.1655	305800	keystroke_u	u	n/a
153.2595	0.061	306519	keystroke_Key.backspace	Key.backspace	n/a
153.3945	0.045	306789	keystroke_Key.backspace	Key.backspace	n/a
153.5895	0.12	307179	keystroke_u	u	n/a
153.7245	0.256	307449	keystroke_j	j	n/a
153.9045	0.12	307809	keystroke_i	i	n/a
154.0995	0.1655	308199	keystroke_t	t	n/a
154.2195	0.12	308439	keystroke_s	s	n/a
154.325	0.105	308650	keystroke_u	u	n/a
154.52	0.135	309040	keystroke_Key.space	Key.space	n/a
154.7295	0.09	309459	keystroke_t	t	n/a
154.8045	0.135	309609	keystroke_e	e	n/a
154.985	0.1655	309970	keystroke_c	c	n/a
155.1205	0.0895	310241	keystroke_h	h	n/a
155.3145	0.15	310629	keystroke_n	n	n/a
155.4045	0.09	310809	keystroke_i	i	n/a
155.4505	0.164	310901	keystroke_c	c	n/a
155.57	0.1355	311140	keystroke_a	a	n/a
155.9	0.135	311800	keystroke_l	l	n/a
156.14	0.15	312280	keystroke_Key.space	Key.space	n/a
156.3955	0.1645	312791	keystroke_w	w	n/a
156.485	0.1355	312970	keystroke_e	e	n/a
156.545	0.135	313090	keystroke_l	l	n/a
156.6805	0.1345	313361	keystroke_f	f	n/a
156.8	0.1805	313600	keystroke_a	a	n/a
156.9655	0.21	313931	keystroke_r	r	n/a
157.16	0.105	314320	keystroke_e	e	n/a
157.46	0.09	314920	keystroke_Key.enter	Key.enter	n/a
157.5575	4.344	315115	prompt	n/a	occasional audi strain disk\n
158.12	0.135	316240	keystroke_o	o	n/a
158.2705	0.1045	316541	keystroke_c	c	n/a
158.4355	0.12	316871	keystroke_c	c	n/a
158.5405	0.165	317081	keystroke_a	a	n/a
158.6155	0.15	317231	keystroke_s	s	n/a
158.7195	0.2105	317439	keystroke_i	i	n/a
158.78	0.12	317560	keystroke_o	o	n/a
158.855	0.15	317710	keystroke_n	n	n/a
158.99	0.0895	317980	keystroke_a	a	n/a
159.0655	0.104	318131	keystroke_l	l	n/a
159.2	0.135	318400	keystroke_Key.space	Key.space	n/a
159.365	0.135	318730	keystroke_a	a	n/a
159.4395	0.106	318879	keystroke_u	u	n/a
159.5745	0.12	319149	keystroke_d	d	n/a
159.7095	0.09	319419	keystroke_i	i	n/a
159.995	0.1195	319990	keystroke_Key.space	Key.space	n/a
160.0995	0.1355	320199	keystroke_s	s	n/a
160.2195	0.21	320439	keystroke_t	t	n/a
160.31	0.2245	320620	keystroke_r	r	n/a
160.46	0.1655	320920	keystroke_a	a	n/a
160.6705	0.135	321341	keystroke_i	i	n/a
160.7605	0.149	321521	keystroke_n	n	n/a
160.8945	0.1205	321789	keystroke_Key.space	Key.space	n/a
160.9245	0.135	321849	keystroke_s	s	n/a
161.225	0.105	322450	keystroke_Key.backspace	Key.backspace	n/a
161.3455	0.104	322691	keystroke_d	d	n/a
161.465	0.0755	322930	keystroke_i	i	n/a
161.5555	0.09	323111	keystroke_s	s	n/a
161.63	0.1205	323260	keystroke_k	k	n/a
161.825	0.075	323650	keystroke_Key.enter	Key.enter	n/a
161.9075	3.8345	323815	prompt	n/a	game know installing mixing\n
162.605	0.1495	325210	keystroke_g	g	n/a
162.695	0.15	325390	keystroke_a	a	n/a
162.785	0.12	325570	keystroke_m	m	n/a
162.8755	0.135	325751	keystroke_e	e	n/a
162.95	0.135	325900	keystroke_Key.space	Key.space	n/a
162.995	0.2105	325990	keystroke_k	k	n/a
163.1	0.1355	326200	keystroke_n	n	n/a
163.1455	0.1345	326291	keystroke_o	o	n/a
163.2505	0.09	326501	keystroke_w	w	n/a
163.31	0.135	326620	keystroke_Key.space	Key.space	n/a
163.43	0.12	326860	keystroke_i	i	n/a
164.0755	0.12	328151	keystroke_n	n	n/a
164.1655	0.12	328331	keystroke_s	s	n/a
164.2705	0.12	328541	keystroke_t	t	n/a
164.3605	0.105	328721	keystroke_a	a	n/a
164.375	0.0905	328750	keystroke_l	l	n/a
164.5395	0.181	329079	keystroke_l	l	n/a
164.6305	0.1495	329261	keystroke_i	i	n/a
164.7355	0.134	329471	keystroke_n	n	n/a
164.81	0.1495	329620	keystroke_g	g	n/a
164.9145	0.151	329829	keystroke_Key.space	Key.space	n/a
165.0195	0.1805	330039	keystroke_m	m	n/a
165.1095	0.0755	330219	keystroke_i	i	n/a
165.2	0.1195	330400	keystroke_x	x	n/a
165.3345	0.1205	330669	keystroke_i	i	n/a
165.395	0.12	330790	keystroke_n	n	n/a
165.485	0.12	330970	keystroke_g	g	n/a
165.6495	0.09	331299	keystroke_Key.enter	Key.enter	n/a
165.7485	4.208	331497	prompt	n/a	clients hospital partner funny\n
166.355	0.135	332710	keystroke_c	c	n/a
166.445	0.1495	332890	keystroke_l	l	n/a
166.505	0.1055	333010	keystroke_i	i	n/a
166.6245	0.1055	333249	keystroke_e	e	n/a
166.7155	0.12	333431	keystroke_n	n	n/a
166.8505	0.164	333701	keystroke_t	t	n/a
166.91	0.1205	333820	keystroke_s	s	n/a
166.985	0.1345	333970	keystroke_Key.space	Key.space	n/a
167.0745	0.12	334149	keystroke_h	h	n/a
167.1345	0.121	334269	keystroke_o	o	n/a
167.2405	0.104	334481	keystroke_s	s	n/a
167.4645	0.1805	334929	keystroke_p	p	n/a
167.5855	0.135	335171	keystroke_i	i	n/a
167.7355	0.1645	335471	keystroke_t	t	n/a
167.8705	0.1495	335741	keystroke_a	a	n/a
168.0355	0.1195	336071	keystroke_l	l	n/a
168.1845	0.12	336369	keystroke_Key.space	Key.space	n/a
168.3945	0.1205	336789	keystroke_p	p	n/a
168.5005	0.1795	337001	keystroke_a	a	n/a
168.56	0.195	337120	keystroke_r	r	n/a
168.695	0.1355	337390	keystroke_t	t	n/a
168.832	0.118	337664	keystroke_n	n	n/a
168.935	0.165	337870	keystroke_e	e	n/a
169.025	0.135	338050	keystroke_r	r	n/a
169.115	0.195	338230	keystroke_Key.space	Key.space	n/a
169.2945	0.121	338589	keystroke_f	f	n/a
169.3245	0.136	338649	keystroke_u	u	n/a
169.4295	0.0905	338859	keystroke_n	n	n/a
169.5805	0.1195	339161	keystroke_n	n	n/a
169.715	0.075	339430	keystroke_y	y	n/a
169.895	0.0605	339790	keystroke_Key.enter	Key.enter	n/a
169.961	5.621	339922	prompt	n/a	obituaries locations artist socks\n
170.6005	0.15	341201	keystroke_o	o	n/a
170.7355	0.105	341471	keystroke_b	b	n/a
171.245	0.0895	342490	keystroke_i	i	n/a
171.3795	0.136	342759	keystroke_t	t	n/a
171.4845	0.121	342969	keystroke_u	u	n/a
171.68	0.2105	343360	keystroke_a	a	n/a
171.8305	0.1645	343661	keystroke_r	r	n/a
172.0255	0.135	344051	keystroke_i	i	n/a
172.1755	0.24	344351	keystroke_e	e	n/a
172.2955	0.15	344591	keystroke_s	s	n/a
172.5205	0.134	345041	keystroke_Key.space	Key.space	n/a
172.8505	0.165	345701	keystroke_l	l	n/a
172.9405	0.12	345881	keystroke_o	o	n/a
173.0005	0.1645	346001	keystroke_c	c	n/a
173.15	0.15	346300	keystroke_a	a	n/a
173.301	0.1195	346602	keystroke_t	t	n/a
173.33	0.345	346660	keystroke_i	i	n/a
173.4955	0.1345	346991	keystroke_o	o	n/a
173.5995	0.165	347199	keystroke_n	n	n/a
173.7495	0.106	347499	keystroke_s	s	n/a
173.8245	0.1355	347649	keystroke_Key.space	Key.space	n/a
173.9295	0.15	347859	keystroke_a	a	n/a
174.0205	0.135	348041	keystroke_r	r	n/a
174.2605	0.12	348521	keystroke_t	t	n/a
174.3955	0.135	348791	keystroke_i	i	n/a
174.5155	0.165	349031	keystroke_s	s	n/a
174.6505	0.1495	349301	keystroke_t	t	n/a
174.785	0.135	349570	keystroke_Key.space	Key.space	n/a
174.875	0.1355	349750	keystroke_s	s	n/a
174.935	0.12	349870	keystroke_o	o	n/a
175.085	0.12	350170	keystroke_c	c	n/a
175.25	0.105	350500	keystroke_k	k	n/a
175.325	0.105	350650	keystroke_s	s	n/a
175.49	0.09	350980	keystroke_Key.enter	Key.enter	n/a
175.5865	4.228	351173	prompt	n/a	yards addressed skill winning\n
176.345	0.105	352690	keystroke_y	y	n/a
176.48	0.12	352960	keystroke_a	a	n/a
176.525	0.165	353050	keystroke_r	r	n/a
176.66	0.2245	353320	keystroke_d	d	n/a
176.7955	0.164	353591	keystroke_s	s	n/a
176.9145	0.136	353829	keystroke_Key.space	Key.space	n/a
176.9755	0.18	353951	keystroke_a	a	n/a
177.1255	0.09	354251	keystroke_d	d	n/a
177.2745	0.106	354549	keystroke_d	d	n/a
177.485	0.1645	354970	keystroke_r	r	n/a
177.545	0.15	355090	keystroke_e	e	n/a
177.6195	0.12	355239	keystroke_s	s	n/a
177.8155	0.135	355631	keystroke_s	s	n/a
177.9055	0.18	355811	keystroke_e	e	n/a
177.9805	0.18	355961	keystroke_d	d	n/a
178.1305	0.105	356261	keystroke_Key.space	Key.space	n/a
178.1755	0.135	356351	keystroke_s	s	n/a
178.2505	0.1345	356501	keystroke_k	k	n/a
178.325	0.1505	356650	keystroke_i	i	n/a
178.4305	0.09	356861	keystroke_l	l	n/a
178.5955	0.12	357191	keystroke_l	l	n/a
178.73	0.1045	357460	keystroke_Key.space	Key.space	n/a
178.79	0.1205	357580	keystroke_w	w	n/a
178.8805	0.1645	357761	keystroke_i	i	n/a
179.03	0.0895	358060	keystroke_n	n	n/a
179.195	0.1045	358390	keystroke_n	n	n/a
179.33	0.1355	358660	keystroke_i	i	n/a
179.4195	0.15	358839	keystroke_n	n	n/a
179.5555	0.09	359111	keystroke_g	g	n/a
179.7345	0.0755	359469	keystroke_Key.enter	Key.enter	n/a
179.8195	5.7975	359639	prompt	n/a	foreign solutions growing makers\n
180.41	0.135	360820	keystroke_f	f	n/a
180.485	0.135	360970	keystroke_o	o	n/a
180.665	0.1055	361330	keystroke_r	r	n/a
180.8295	0.1505	361659	keystroke_e	e	n/a
180.965	0.1045	361930	keystroke_i	i	n/a
181.085	0.12	362170	keystroke_g	g	n/a
181.235	0.12	362470	keystroke_n	n	n/a
181.385	0.135	362770	keystroke_Key.space	Key.space	n/a
181.505	0.1045	363010	keystroke_s	s	n/a
181.64	0.12	363280	keystroke_o	o	n/a
181.865	0.1795	363730	keystroke_l	l	n/a
181.97	0.09	363940	keystroke_u	u	n/a
182.0895	0.1205	364179	keystroke_t	t	n/a
182.1945	0.285	364389	keystroke_i	i	n/a
182.2695	0.1655	364539	keystroke_o	o	n/a
182.42	0.15	364840	keystroke_n	n	n/a
182.495	0.1655	364990	keystroke_s	s	n/a
182.5995	0.15	365199	keystroke_Key.space	Key.space	n/a
182.69	0.1805	365380	keystroke_g	g	n/a
182.78	0.18	365560	keystroke_r	r	n/a
183.0195	0.105	366039	keystroke_o	o	n/a
183.1995	0.0755	366399	keystroke_w	w	n/a
183.3345	0.1355	366669	keystroke_i	i	n/a
183.425	0.135	366850	keystroke_n	n	n/a
183.515	0.135	367030	keystroke_g	g	n/a
183.59	0.135	367180	keystroke_Key.space	Key.space	n/a
183.725	0.06	367450	keystroke_m	m	n/a
183.815	0.15	367630	keystroke_a	a	n/a
183.89	0.045	367780	keystroke_r	r	n/a
184.22	0.03	368440	keystroke_Key.backspace	Key.backspace	n/a
184.2945	0.0455	368589	keystroke_Key.backspace	Key.backspace	n/a
184.91	0.135	369820	keystroke_a	a	n/a
185.015	0.105	370030	keystroke_k	k	n/a
185.135	0.105	370270	keystroke_e	e	n/a
185.18	0.165	370360	keystroke_r	r	n/a
185.3	0.1055	370600	keystroke_s	s	n/a
185.54	0.0745	371080	keystroke_Key.enter	Key.enter	n/a
185.6205	4.811	371241	prompt	n/a	seeks richard entity bottles\n
186.3355	0.0895	372671	keystroke_s	s	n/a
186.455	0.12	372910	keystroke_e	e	n/a
186.6355	0.1045	373271	keystroke_e	e	n/a
186.755	0.1505	373510	keystroke_k	k	n/a
186.845	0.15	373690	keystroke_s	s	n/a
186.9205	0.1345	373841	keystroke_Key.space	Key.space	n/a
186.995	0.09	373990	keystroke_r	r	n/a
187.1	0.135	374200	keystroke_i	i	n/a
187.22	0.12	374440	keystroke_c	c	n/a
187.355	0.15	374710	keystroke_h	h	n/a
187.49	0.165	374980	keystroke_a	a	n/a
187.565	0.2255	375130	keystroke_r	r	n/a
187.7905	0.1345	375581	keystroke_d	d	n/a
187.91	0.135	375820	keystroke_Key.space	Key.space	n/a
188.0305	0.1345	376061	keystroke_e	e	n/a
188.135	0.105	376270	keystroke_n	n	n/a
188.24	0.1055	376480	keystroke_t	t	n/a
188.33	0.1055	376660	keystroke_i	i	n/a
188.3895	0.106	376779	keystroke_t	t	n/a
188.6155	0.105	377231	keystroke_y	y	n/a
188.84	0.12	377680	keystroke_Key.space	Key.space	n/a
189.545	0.12	379090	keystroke_b	b	n/a
189.65	0.12	379300	keystroke_o	o	n/a
189.725	0.075	379450	keystroke_t	t	n/a
189.875	0.1055	379750	keystroke_t	t	n/a
190.0255	0.135	380051	keystroke_l	l	n/a
190.1155	0.165	380231	keystroke_e	e	n/a
190.2055	0.135	380411	keystroke_s	s	n/a
190.3555	0.074	380711	keystroke_Key.enter	Key.enter	n/a
190.4395	5.032	380879	prompt	n/a	aruba maryland difference sunglasses\n
191.105	0.1495	382210	keystroke_a	a	n/a
191.3	0.135	382600	keystroke_r	r	n/a
191.4055	0.1495	382811	keystroke_u	u	n/a
191.51	0.15	383020	keystroke_b	b	n/a
191.6755	0.15	383351	keystroke_a	a	n/a
191.765	0.135	383530	keystroke_Key.space	Key.space	n/a
191.93	0.12	383860	keystroke_m	m	n/a
192.02	0.135	384040	keystroke_a	a	n/a
192.0805	0.1645	384161	keystroke_r	r	n/a
192.365	0.06	384730	keystroke_y	y	n/a
192.53	0.1195	385060	keystroke_l	l	n/a
192.6505	0.135	385301	keystroke_a	a	n/a
192.7545	0.166	385509	keystroke_n	n	n/a
192.905	0.12	385810	keystroke_d	d	n/a
192.9795	0.135	385959	keystroke_Key.space	Key.space	n/a
193.145	0.105	386290	keystroke_d	d	n/a
193.2355	0.105	386471	keystroke_i	i	n/a
193.3255	0.075	386651	keystroke_f	f	n/a
193.49	0.06	386980	keystroke_f	f	n/a
193.565	0.09	387130	keystroke_e	e	n/a
193.67	0.105	387340	keystroke_r	r	n/a
193.76	0.09	387520	keystroke_e	e	n/a
193.85	0.135	387700	keystroke_n	n	n/a
193.97	0.195	387940	keystroke_c	c	n/a
194.09	0.15	388180	keystroke_e	e	n/a
194.195	0.15	388390	keystroke_Key.space	Key.space	n/a
194.285	0.135	388570	keystroke_s	s	n/a
194.39	0.135	388780	keystroke_u	u	n/a
194.465	0.12	388930	keystroke_n	n	n/a
194.555	0.105	389110	keystroke_g	g	n/a
194.69	0.1055	389380	keystroke_l	l	n/a
194.78	0.1055	389560	keystroke_a	a	n/a
194.84	0.09	389680	keystroke_s	s	n/a
195.005	0.09	390010	keystroke_s	s	n/a
195.11	0.165	390220	keystroke_e	e	n/a
195.2005	0.1195	390401	keystroke_s	s	n/a
195.41	0.06	390820	keystroke_Key.enter	Key.enter	n/a
195.476	4.286	390952	prompt	n/a	jose soccer supplies quarter\n
196.1455	0.15	392291	keystroke_j	j	n/a
196.2205	0.104	392441	keystroke_o	o	n/a
196.3095	0.166	392619	keystroke_s	s	n/a
196.4005	0.134	392801	keystroke_e	e	n/a
196.5045	0.15	393009	keystroke_Key.space	Key.space	n/a
196.5955	0.089	393191	keystroke_s	s	n/a
196.6695	0.1055	393339	keystroke_o	o	n/a
196.79	0.09	393580	keystroke_c	c	n/a
196.955	0.105	393910	keystroke_c	c	n/a
197.09	0.21	394180	keystroke_e	e	n/a
197.2555	0.1495	394511	keystroke_r	r	n/a
197.45	0.165	394900	keystroke_Key.space	Key.space	n/a
197.72	0.12	395440	keystroke_s	s	n/a
197.855	0.1505	395710	keystroke_u	u	n/a
197.96	0.09	395920	keystroke_p	p	n/a
198.11	0.09	396220	keystroke_p	p	n/a
198.32	0.1655	396640	keystroke_l	l	n/a
198.395	0.12	396790	keystroke_i	i	n/a
198.4705	0.1795	396941	keystroke_e	e	n/a
198.5605	0.1195	397121	keystroke_s	s	n/a
198.665	0.105	397330	keystroke_Key.space	Key.space	n/a
198.785	0.105	397570	keystroke_q	q	n/a
198.875	0.105	397750	keystroke_u	u	n/a
199.01	0.135	398020	keystroke_a	a	n/a
199.085	0.09	398170	keystroke_r	r	n/a
199.2805	0.105	398561	keystroke_t	t	n/a
199.3995	0.1645	398799	keystroke_e	e	n/a
199.5205	0.0895	399041	keystroke_r	r	n/a
199.685	0.0745	399370	keystroke_Key.enter	Key.enter	n/a
199.7655	3.8065	399531	prompt	n/a	narrow dice careers epic\n
200.3745	0.165	400749	keystroke_n	n	n/a
200.48	0.1045	400960	keystroke_a	a	n/a
200.5255	0.1045	401051	keystroke_r	r	n/a
200.7045	0.1355	401409	keystroke_r	r	n/a
200.825	0.0905	401650	keystroke_o	o	n/a
200.9	0.1355	401800	keystroke_w	w	n/a
200.975	0.18	401950	keystroke_Key.space	Key.space	n/a
201.095	0.09	402190	keystroke_d	d	n/a
201.2	0.135	402400	keystroke_i	i	n/a
201.32	0.165	402640	keystroke_c	c	n/a
201.395	0.135	402790	keystroke_e	e	n/a
201.5	0.12	403000	keystroke_Key.space	Key.space	n/a
201.65	0.151	403300	keystroke_c	c	n/a
201.7855	0.1645	403571	keystroke_a	a	n/a
201.935	0.135	403870	keystroke_r	r	n/a
202.055	0.075	404110	keystroke_e	e	n/a
202.235	0.15	404470	keystroke_e	e	n/a
202.3255	0.2395	404651	keystroke_r	r	n/a
202.505	0.135	405010	keystroke_s	s	n/a
202.6255	0.1195	405251	keystroke_Key.space	Key.space	n/a
202.715	0.165	405430	keystroke_e	e	n/a
202.85	0.165	405700	keystroke_p	p	n/a
202.97	0.105	405940	keystroke_i	i	n/a
203.12	0.165	406240	keystroke_c	c	n/a
203.495	0.075	406990	keystroke_Key.enter	Key.enter	n/a
203.575	3.687	407150	prompt	n/a	joining vault make diagram\n
204.3505	0.134	408701	keystroke_j	j	n/a
204.4555	0.1795	408911	keystroke_o	o	n/a
204.5455	0.1495	409091	keystroke_i	i	n/a
204.65	0.1205	409300	keystroke_n	n	n/a
204.8005	0.15	409601	keystroke_i	i	n/a
204.875	0.1505	409750	keystroke_n	n	n/a
204.9805	0.105	409961	keystroke_g	g	n/a
205.04	0.1195	410080	keystroke_Key.space	Key.space	n/a
205.2205	0.135	410441	keystroke_v	v	n/a
205.34	0.165	410680	keystroke_a	a	n/a
205.4145	0.18	410829	keystroke_u	u	n/a
205.5355	0.119	411071	keystroke_l	l	n/a
205.6405	0.15	411281	keystroke_t	t	n/a
205.745	0.1655	411490	keystroke_Key.space	Key.space	n/a
205.7755	0.15	411551	keystroke_m	m	n/a
205.9115	0.1335	411823	keystroke_a	a	n/a
206	0.105	412000	keystroke_k	k	n/a
206.06	0.135	412120	keystroke_e	e	n/a
206.135	0.165	412270	keystroke_Key.space	Key.space	n/a
206.24	0.165	412480	keystroke_d	d	n/a
206.39	0.12	412780	keystroke_i	i	n/a
206.495	0.1345	412990	keystroke_a	a	n/a
206.6305	0.1495	413261	keystroke_g	g	n/a
206.7055	0.1945	413411	keystroke_r	r	n/a
206.765	0.15	413530	keystroke_a	a	n/a
206.93	0.105	413860	keystroke_m	m	n/a
207.17	0.09	414340	keystroke_Key.enter	Key.enter	n/a
207.2665	5.2605	414533	prompt	n/a	laser represent coating architecture\n
207.905	0.105	415810	keystroke_l	l	n/a
208.025	0.1805	416050	keystroke_a	a	n/a
208.145	0.21	416290	keystroke_s	s	n/a
208.281	0.179	416562	keystroke_e	e	n/a
208.37	0.15	416740	keystroke_r	r	n/a
208.445	0.165	416890	keystroke_Key.space	Key.space	n/a
208.58	0.1355	417160	keystroke_r	r	n/a
208.6255	0.165	417251	keystroke_e	e	n/a
208.7595	0.1205	417519	keystroke_p	p	n/a
208.895	0.1655	417790	keystroke_r	r	n/a
208.9855	0.09	417971	keystroke_e	e	n/a
209.0605	0.225	418121	keystroke_s	s	n/a
209.195	0.165	418390	keystroke_e	e	n/a
209.3455	0.12	418691	keystroke_n	n	n/a
209.48	0.105	418960	keystroke_t	t	n/a
209.5855	0.089	419171	keystroke_Key.space	Key.space	n/a
209.735	0.12	419470	keystroke_c	c	n/a
209.8405	0.104	419681	keystroke_o	o	n/a
209.9605	0.12	419921	keystroke_a	a	n/a
210.0505	0.0895	420101	keystroke_t	t	n/a
210.1555	0.1195	420311	keystroke_i	i	n/a
210.231	0.119	420462	keystroke_n	n	n/a
210.29	0.135	420580	keystroke_g	g	n/a
210.38	0.18	420760	keystroke_Key.space	Key.space	n/a
210.455	0.165	420910	keystroke_a	a	n/a
210.5305	0.0745	421061	keystroke_r	r	n/a
210.7405	0.135	421481	keystroke_c	c	n/a
210.8605	0.179	421721	keystroke_h	h	n/a
210.9505	0.119	421901	keystroke_i	i	n/a
211.1005	0.135	422201	keystroke_t	t	n/a
211.1745	0.166	422349	keystroke_e	e	n/a
211.3855	0.104	422771	keystroke_c	c	n/a
211.655	0.09	423310	keystroke_t	t	n/a
211.805	0.12	423610	keystroke_u	u	n/a
211.926	0.119	423852	keystroke_r	r	n/a
212.015	0.12	424030	keystroke_e	e	n/a
212.435	0.0895	424870	keystroke_Key.enter	Key.enter	n/a
212.531	5.2605	425062	prompt	n/a	geographic asthma vista workout\n
213.0805	0.15	426161	keystroke_g	g	n/a
213.1555	0.15	426311	keystroke_e	e	n/a
213.2605	0.105	426521	keystroke_o	o	n/a
213.3955	0.12	426791	keystroke_g	g	n/a
213.4255	0.18	426851	keystroke_r	r	n/a
213.5305	0.135	427061	keystroke_a	a	n/a
213.6205	0.18	427241	keystroke_p	p	n/a
213.7845	0.196	427569	keystroke_h	h	n/a
213.9055	0.135	427811	keystroke_i	i	n/a
213.9955	0.164	427991	keystroke_c	c	n/a
214.1005	0.149	428201	keystroke_Key.space	Key.space	n/a
214.2505	0.1795	428501	keystroke_a	a	n/a
214.355	0.21	428710	keystroke_s	s	n/a
214.535	0.165	429070	keystroke_t	t	n/a
214.715	0.1045	429430	keystroke_h	h	n/a
214.9555	0.1345	429911	keystroke_m	m	n/a
215.1195	0.15	430239	keystroke_a	a	n/a
215.2245	0.135	430449	keystroke_Key.space	Key.space	n/a
215.9305	0.135	431861	keystroke_v	v	n/a
216.0355	0.12	432071	keystroke_i	i	n/a
216.1405	0.135	432281	keystroke_s	s	n/a
216.2605	0.165	432521	keystroke_t	t	n/a
216.395	0.1505	432790	keystroke_a	a	n/a
216.5	0.135	433000	keystroke_Key.space	Key.space	n/a
216.65	0.09	433300	keystroke_w	w	n/a
216.71	0.105	433420	keystroke_o	o	n/a
216.8005	0.1345	433601	keystroke_r	r	n/a
216.92	0.12	433840	keystroke_k	k	n/a
217.265	0.15	434530	keystroke_o	o	n/a
217.34	0.12	434680	keystroke_u	u	n/a
217.4755	0.074	434951	keystroke_t	t	n/a
217.6845	0.105	435369	keystroke_Key.enter	Key.enter	n/a
217.796	4.406	435592	prompt	n/a	rebel probably albert mineral\n
218.4205	0.135	436841	keystroke_r	r	n/a
218.4955	0.149	436991	keystroke_e	e	n/a
218.6305	0.135	437261	keystroke_b	b	n/a
218.7795	0.091	437559	keystroke_e	e	n/a
218.93	0.0755	437860	keystroke_l	l	n/a
219.02	0.12	438040	keystroke_Key.space	Key.space	n/a
219.1545	0.09	438309	keystroke_p	p	n/a
219.2295	0.0905	438459	keystroke_r	r	n/a
219.335	0.1495	438670	keystroke_o	o	n/a
219.4695	0.061	438939	keystroke_b	b	n/a
219.5595	0.1505	439119	keystroke_a	a	n/a
219.635	0.105	439270	keystroke_b	b	n/a
219.7995	0.135	439599	keystroke_l	l	n/a
219.965	0.1345	439930	keystroke_y	y	n/a
220.0395	0.15	440079	keystroke_Key.space	Key.space	n/a
220.1745	0.15	440349	keystroke_a	a	n/a
220.28	0.195	440560	keystroke_l	l	n/a
220.445	0.15	440890	keystroke_b	b	n/a
220.61	0.2255	441220	keystroke_e	e	n/a
220.73	0.225	441460	keystroke_r	r	n/a
220.865	0.21	441730	keystroke_t	t	n/a
221.06	0.12	442120	keystroke_Key.space	Key.space	n/a
221.315	0.135	442630	keystroke_m	m	n/a
221.405	0.195	442810	keystroke_i	i	n/a
221.555	0.12	443110	keystroke_n	n	n/a
221.645	0.12	443290	keystroke_e	e	n/a
221.705	0.135	443410	keystroke_r	r	n/a
221.811	0.104	443622	keystroke_a	a	n/a
221.885	0.135	443770	keystroke_l	l	n/a
222.11	0.09	444220	keystroke_Key.enter	Key.enter	n/a
222.2065	6.925	444413	prompt	n/a	that'll becoming batteries authorization\n
222.966	0.119	445932	keystroke_t	t	n/a
223.04	0.1505	446080	keystroke_h	h	n/a
223.205	0.135	446410	keystroke_a	a	n/a
223.28	0.12	446560	keystroke_t	t	n/a
223.415	0.045	446830	keystroke_;	;	n/a
223.82	0.09	447640	keystroke_Key.backspace	Key.backspace	n/a
224.15	0.1205	448300	keystroke_'	'	n/a
224.54	0.09	449080	keystroke_l	l	n/a
224.675	0.1195	449350	keystroke_l	l	n/a
224.901	0.164	449802	keystroke_Key.space	Key.space	n/a
225.125	0.1345	450250	keystroke_b	b	n/a
225.2445	0.1055	450489	keystroke_e	e	n/a
225.3645	0.12	450729	keystroke_c	c	n/a
225.4545	0.15	450909	keystroke_o	o	n/a
225.5155	0.149	451031	keystroke_m	m	n/a
225.6805	0.149	451361	keystroke_i	i	n/a
225.77	0.135	451540	keystroke_n	n	n/a
225.9195	0.09	451839	keystroke_g	g	n/a
225.9495	0.12	451899	keystroke_Key.space	Key.space	n/a
226.0395	0.1205	452079	keystroke_b	b	n/a
226.1295	0.121	452259	keystroke_a	a	n/a
226.2045	0.091	452409	keystroke_t	t	n/a
226.3845	0.075	452769	keystroke_t	t	n/a
226.4605	0.165	452921	keystroke_e	e	n/a
226.565	0.12	453130	keystroke_r	r	n/a
226.7	0.135	453400	keystroke_i	i	n/a
226.835	0.24	453670	keystroke_e	e	n/a
226.985	0.165	453970	keystroke_s	s	n/a
227.135	0.12	454270	keystroke_Key.space	Key.space	n/a
227.5405	0.1195	455081	keystroke_a	a	n/a
227.5855	0.0895	455171	keystroke_u	u	n/a
227.72	0.12	455440	keystroke_t	t	n/a
227.825	0.1355	455650	keystroke_h	h	n/a
227.8845	0.121	455769	keystroke_o	o	n/a
227.9745	0.1205	455949	keystroke_r	r	n/a
228.0955	0.09	456191	keystroke_i	i	n/a
228.1705	0.104	456341	keystroke_z	z	n/a
228.41	0.1195	456820	keystroke_a	a	n/a
228.4995	0.165	456999	keystroke_t	t	n/a
228.6045	0.2255	457209	keystroke_i	i	n/a
228.6505	0.164	457301	keystroke_o	o	n/a
228.7555	0.149	457511	keystroke_n	n	n/a
229.04	0.09	458080	keystroke_Key.enter	Key.enter	n/a
229.136	3.821	458272	prompt	n/a	former under retention coins\n
229.7005	0.09	459401	keystroke_f	f	n/a
229.7595	0.1055	459519	keystroke_o	o	n/a
229.8505	0.0895	459701	keystroke_r	r	n/a
230.0155	0.0895	460031	keystroke_m	m	n/a
230.045	0.15	460090	keystroke_e	e	n/a
230.12	0.135	460240	keystroke_r	r	n/a
230.21	0.15	460420	keystroke_Key.space	Key.space	n/a
230.27	0.105	460540	keystroke_u	u	n/a
230.33	0.1505	460660	keystroke_n	n	n/a
230.4945	0.106	460989	keystroke_d	d	n/a
230.615	0.165	461230	keystroke_e	e	n/a
230.735	0.105	461470	keystroke_r	r	n/a
230.825	0.135	461650	keystroke_Key.space	Key.space	n/a
230.915	0.1205	461830	keystroke_r	r	n/a
231.005	0.165	462010	keystroke_e	e	n/a
231.155	0.18	462310	keystroke_t	t	n/a
231.305	0.15	462610	keystroke_e	e	n/a
231.485	0.135	462970	keystroke_n	n	n/a
231.635	0.12	463270	keystroke_t	t	n/a
231.77	0.27	463540	keystroke_i	i	n/a
231.815	0.226	463630	keystroke_o	o	n/a
232.0255	0.1495	464051	keystroke_n	n	n/a
232.16	0.135	464320	keystroke_Key.space	Key.space	n/a
232.31	0.1355	464620	keystroke_c	c	n/a
232.415	0.1505	464830	keystroke_o	o	n/a
232.49	0.12	464980	keystroke_i	i	n/a
232.55	0.135	465100	keystroke_n	n	n/a
232.686	0.074	465372	keystroke_s	s	n/a
232.8645	0.09	465729	keystroke_Key.enter	Key.enter	n/a
232.962	6.3105	465924	prompt	n/a	debug porsche coordinates curve\n
233.63	0.1655	467260	keystroke_d	d	n/a
233.705	0.15	467410	keystroke_e	e	n/a
233.855	0.18	467710	keystroke_b	b	n/a
233.96	0.12	467920	keystroke_u	u	n/a
234.065	0.1505	468130	keystroke_g	g	n/a
234.1705	0.1195	468341	keystroke_Key.space	Key.space	n/a
234.29	0.15	468580	keystroke_p	p	n/a
234.425	0.165	468850	keystroke_o	o	n/a
234.74	0.1355	469480	keystroke_r	r	n/a
235.01	0.1195	470020	keystroke_s	s	n/a
235.1755	0.12	470351	keystroke_h	h	n/a
235.5055	0.0895	471011	keystroke_e	e	n/a
235.73	0.075	471460	keystroke_Key.backspace	Key.backspace	n/a
236.06	0.089	472120	keystroke_Key.backspace	Key.backspace	n/a
236.27	0.135	472540	keystroke_c	c	n/a
236.39	0.09	472780	keystroke_h	h	n/a
236.5855	0.105	473171	keystroke_e	e	n/a
236.8545	0.106	473709	keystroke_Key.space	Key.space	n/a
237.02	0.12	474040	keystroke_c	c	n/a
237.095	0.105	474190	keystroke_o	o	n/a
237.2605	0.105	474521	keystroke_o	o	n/a
237.4555	0.104	474911	keystroke_r	r	n/a
237.6345	0.12	475269	keystroke_d	d	n/a
237.74	0.1055	475480	keystroke_i	i	n/a
237.8	0.1505	475600	keystroke_n	n	n/a
237.905	0.1355	475810	keystroke_a	a	n/a
237.9805	0.195	475961	keystroke_t	t	n/a
238.0855	0.2845	476171	keystroke_e	e	n/a
238.2055	0.21	476411	keystroke_s	s	n/a
238.3555	0.089	476711	keystroke_Key.space	Key.space	n/a
238.5055	0.135	477011	keystroke_c	c	n/a
238.595	0.1055	477190	keystroke_u	u	n/a
238.7155	0.1195	477431	keystroke_r	r	n/a
238.8655	0.1495	477731	keystroke_v	v	n/a
238.9705	0.1195	477941	keystroke_e	e	n/a
239.165	0.105	478330	keystroke_Key.enter	Key.enter	n/a
239.2765	3.536	478553	prompt	n/a	bank attacked has funky\n
239.9455	0.179	479891	keystroke_b	b	n/a
240.1695	0.12	480339	keystroke_a	a	n/a
240.3045	0.151	480609	keystroke_n	n	n/a
240.3955	0.12	480791	keystroke_k	k	n/a
240.4245	0.135	480849	keystroke_Key.space	Key.space	n/a
240.5295	0.121	481059	keystroke_a	a	n/a
240.6195	0.105	481239	keystroke_t	t	n/a
240.7845	0.136	481569	keystroke_t	t	n/a
240.9355	0.164	481871	keystroke_a	a	n/a
241.1155	0.105	482231	keystroke_c	c	n/a
241.2045	0.135	482409	keystroke_k	k	n/a
241.3245	0.1505	482649	keystroke_e	e	n/a
241.3855	0.1345	482771	keystroke_d	d	n/a
241.49	0.135	482980	keystroke_Key.space	Key.space	n/a
241.595	0.06	483190	keystroke_h	h	n/a
241.67	0.165	483340	keystroke_a	a	n/a
241.745	0.15	483490	keystroke_s	s	n/a
241.8505	0.1045	483701	keystroke_Key.space	Key.space	n/a
242.015	0.15	484030	keystroke_f	f	n/a
242.105	0.105	484210	keystroke_u	u	n/a
242.18	0.24	484360	keystroke_n	n	n/a
242.3155	0.1495	484631	keystroke_k	k	n/a
242.4505	0.12	484901	keystroke_y	y	n/a
242.7195	0.0905	485439	keystroke_Key.enter	Key.enter	n/a
242.8165	4.031	485633	prompt	n/a	roughly close cruz jill\n
243.3345	0.1055	486669	keystroke_r	r	n/a
243.4705	0.164	486941	keystroke_o	o	n/a
243.575	0.1205	487150	keystroke_u	u	n/a
243.665	0.1045	487330	keystroke_g	g	n/a
243.7855	0.1045	487571	keystroke_h	h	n/a
243.846	0.1035	487692	keystroke_t	t	n/a
243.9655	0.105	487931	keystroke_l	l	n/a
244.04	0.1045	488080	keystroke_y	y	n/a
244.16	0.0895	488320	keystroke_Key.space	Key.space	n/a
244.2955	0.149	488591	keystroke_c	c	n/a
244.4005	0.195	488801	keystroke_l	l	n/a
244.4895	0.165	488979	keystroke_o	o	n/a
244.6105	0.1345	489221	keystroke_s	s	n/a
244.7	0.165	489400	keystroke_e	e	n/a
244.73	0.12	489460	keystroke_Key.space	Key.space	n/a
245	0.18	490000	keystroke_c	c	n/a
245.135	0.135	490270	keystroke_r	r	n/a
245.255	0.105	490510	keystroke_u	u	n/a
245.405	0.1195	490810	keystroke_z	z	n/a
245.48	0.1205	490960	keystroke_Key.space	Key.space	n/a
245.5555	0.0895	491111	keystroke_k	k	n/a
245.825	0.06	491650	keystroke_Key.backspace	Key.backspace	n/a
245.99	0.15	491980	keystroke_j	j	n/a
246.08	0.15	492160	keystroke_i	i	n/a
246.185	0.0755	492370	keystroke_l	l	n/a
246.365	0.0905	492730	keystroke_l	l	n/a
246.74	0.105	493480	keystroke_Key.enter	Key.enter	n/a
246.8545	7.0885	493709	prompt	n/a	conferences retain examination exclusion\n
247.9255	0.135	495851	keystroke_c	c	n/a
248.0305	0.104	496061	keystroke_o	o	n/a
248.1795	0.1655	496359	keystroke_f	f	n/a
248.36	0.06	496720	keystroke_e	e	n/a
248.5855	0.0595	497171	keystroke_Key.backspace	Key.backspace	n/a
248.7055	0.0745	497411	keystroke_Key.backspace	Key.backspace	n/a
248.9005	0.1345	497801	keystroke_n	n	n/a
249.02	0.135	498040	keystroke_f	f	n/a
249.14	0.12	498280	keystroke_e	e	n/a
249.2605	0.135	498521	keystroke_r	r	n/a
249.365	0.135	498730	keystroke_e	e	n/a
249.485	0.135	498970	keystroke_n	n	n/a
249.62	0.195	499240	keystroke_c	c	n/a
249.725	0.195	499450	keystroke_e	e	n/a
249.83	0.1805	499660	keystroke_s	s	n/a
249.89	0.15	499780	keystroke_Key.space	Key.space	n/a
250.0105	0.135	500021	keystroke_r	r	n/a
250.0855	0.12	500171	keystroke_e	e	n/a
250.25	0.135	500500	keystroke_t	t	n/a
250.355	0.15	500710	keystroke_a	a	n/a
250.55	0.165	501100	keystroke_i	i	n/a
250.685	0.12	501370	keystroke_n	n	n/a
250.76	0.135	501520	keystroke_Key.space	Key.space	n/a
250.8205	0.135	501641	keystroke_e	e	n/a
251.0155	0.164	502031	keystroke_x	x	n/a
251.1195	0.1205	502239	keystroke_a	a	n/a
251.255	0.12	502510	keystroke_m	m	n/a
251.525	0.1205	503050	keystroke_n	n	n/a
251.7655	0.074	503531	keystroke_Key.backspace	Key.backspace	n/a
252.0055	0.135	504011	keystroke_i	i	n/a
252.0955	0.12	504191	keystroke_n	n	n/a
252.156	0.1345	504312	keystroke_a	a	n/a
252.2455	0.1195	504491	keystroke_t	t	n/a
252.38	0.1805	504760	keystroke_i	i	n/a
252.395	0.1205	504790	keystroke_o	o	n/a
252.4855	0.165	504971	keystroke_n	n	n/a
252.6655	0.12	505331	keystroke_Key.space	Key.space	n/a
252.7555	0.105	505511	keystroke_e	e	n/a
252.9355	0.105	505871	keystroke_x	x	n/a
253.1605	0.15	506321	keystroke_c	c	n/a
253.2355	0.134	506471	keystroke_l	l	n/a
253.2955	0.105	506591	keystroke_u	u	n/a
253.4155	0.135	506831	keystroke_s	s	n/a
253.5355	0.1495	507071	keystroke_i	i	n/a
253.5655	0.1045	507131	keystroke_o	o	n/a
253.64	0.1055	507280	keystroke_n	n	n/a
253.8945	0.046	507789	keystroke_Key.enter	Key.enter	n/a
253.9465	8.7105	507893	prompt	n/a	bryant governmental philosophy detect\n
254.795	0.12	509590	keystroke_b	b	n/a
254.93	0.15	509860	keystroke_r	r	n/a
255.11	0.1205	510220	keystroke_y	y	n/a
255.3655	0.149	510731	keystroke_a	a	n/a
255.5305	0.1345	511061	keystroke_n	n	n/a
255.6805	0.1345	511361	keystroke_t	t	n/a
255.8	0.15	511600	keystroke_Key.space	Key.space	n/a
255.98	0.1055	511960	keystroke_g	g	n/a
256.055	0.12	512110	keystroke_o	o	n/a
256.2055	0.179	512411	keystroke_v	v	n/a
256.2805	0.179	512561	keystroke_e	e	n/a
256.3855	0.135	512771	keystroke_r	r	n/a
256.4295	0.106	512859	keystroke_n	n	n/a
256.61	0.09	513220	keystroke_m	m	n/a
256.7005	0.1195	513401	keystroke_e	e	n/a
256.85	0.135	513700	keystroke_n	n	n/a
257.255	0.1795	514510	keystroke_t	t	n/a
257.405	0.1495	514810	keystroke_a	a	n/a
257.57	0.1495	515140	keystroke_l	l	n/a
257.9	0.1355	515800	keystroke_Key.space	Key.space	n/a
258.1395	0.1365	516279	keystroke_p	p	n/a
258.3795	0.151	516759	keystroke_h	h	n/a
258.47	0.1655	516940	keystroke_i	i	n/a
258.755	0.165	517510	keystroke_l	l	n/a
258.845	0.165	517690	keystroke_o	o	n/a
258.9955	0.1045	517991	keystroke_s	s	n/a
259.175	0.195	518350	keystroke_p	p	n/a
259.415	0.2255	518830	keystroke_h	h	n/a
259.61	0.045	519220	keystroke_y	y	n/a
259.865	0.06	519730	keystroke_Key.backspace	Key.backspace	n/a
260.015	0.075	520030	keystroke_Key.backspace	Key.backspace	n/a
260.135	0.075	520270	keystroke_Key.backspace	Key.backspace	n/a
260.36	0.165	520720	keystroke_o	o	n/a
260.435	0.12	520870	keystroke_p	p	n/a
260.6295	0.106	521259	keystroke_h	h	n/a
260.87	0.12	521740	keystroke_y	y	n/a
261.275	0.18	522550	keystroke_Key.space	Key.space	n/a
261.5455	0.135	523091	keystroke_d	d	n/a
261.6205	0.135	523241	keystroke_e	e	n/a
261.785	0.1055	523570	keystroke_t	t	n/a
261.8605	0.119	523721	keystroke_e	e	n/a
262.0245	0.0905	524049	keystroke_c	c	n/a
262.2805	0.075	524561	keystroke_t	t	n/a
262.55	0.1045	525100	keystroke_Key.enter	Key.enter	n/a
262.6615	4.435	525323	prompt	n/a	reduced during trinidad norton\n
263.1805	0.15	526361	keystroke_r	r	n/a
263.2545	0.151	526509	keystroke_e	e	n/a
263.4345	0.091	526869	keystroke_d	d	n/a
263.5395	0.106	527079	keystroke_u	u	n/a
263.615	0.135	527230	keystroke_c	c	n/a
263.7655	0.165	527531	keystroke_e	e	n/a
263.8705	0.135	527741	keystroke_d	d	n/a
263.9605	0.135	527921	keystroke_Key.space	Key.space	n/a
264.0655	0.12	528131	keystroke_d	d	n/a
264.1555	0.09	528311	keystroke_u	u	n/a
264.2305	0.12	528461	keystroke_r	r	n/a
264.3805	0.12	528761	keystroke_i	i	n/a
264.4705	0.15	528941	keystroke_n	n	n/a
264.575	0.1645	529150	keystroke_g	g	n/a
264.7545	0.0905	529509	keystroke_Key.space	Key.space	n/a
264.875	0.21	529750	keystroke_t	t	n/a
264.95	0.225	529900	keystroke_r	r	n/a
265.2955	0.1345	530591	keystroke_i	i	n/a
265.4	0.15	530800	keystroke_n	n	n/a
265.565	0.1505	531130	keystroke_i	i	n/a
265.745	0.1505	531490	keystroke_d	d	n/a
265.8805	0.194	531761	keystroke_a	a	n/a
266.015	0.1955	532030	keystroke_d	d	n/a
266.135	0.15	532270	keystroke_Key.space	Key.space	n/a
266.3605	0.1495	532721	keystroke_n	n	n/a
266.435	0.12	532870	keystroke_o	o	n/a
266.5105	0.1345	533021	keystroke_r	r	n/a
266.63	0.12	533260	keystroke_t	t	n/a
266.705	0.135	533410	keystroke_o	o	n/a
266.78	0.12	533560	keystroke_n	n	n/a
267.02	0.0755	534040	keystroke_Key.enter	Key.enter	n/a
267.1015	7.0305	534203	prompt	n/a	energy recruiting surprise cartridges\n
267.6505	0.1045	535301	keystroke_e	e	n/a
267.7855	0.1345	535571	keystroke_n	n	n/a
267.905	0.09	535810	keystroke_e	e	n/a
267.9505	0.0895	535901	keystroke_r	r	n/a
268.16	0.0755	536320	keystroke_g	g	n/a
268.2505	0.1045	536501	keystroke_y	y	n/a
268.46	0.135	536920	keystroke_Key.space	Key.space	n/a
268.55	0.1205	537100	keystroke_r	r	n/a
268.6255	0.12	537251	keystroke_e	e	n/a
268.805	0.135	537610	keystroke_c	c	n/a
269.0005	0.1345	538001	keystroke_r	r	n/a
269.135	0.1355	538270	keystroke_u	u	n/a
269.24	0.075	538480	keystroke_i	i	n/a
269.3005	0.0895	538601	keystroke_t	t	n/a
269.4055	0.1345	538811	keystroke_i	i	n/a
269.5255	0.1495	539051	keystroke_n	n	n/a
269.6005	0.1645	539201	keystroke_g	g	n/a
269.72	0.165	539440	keystroke_Key.space	Key.space	n/a
270.08	0.1205	540160	keystroke_s	s	n/a
270.185	0.1205	540370	keystroke_u	u	n/a
270.3055	0.1345	540611	keystroke_r	r	n/a
270.4845	0.121	540969	keystroke_p	p	n/a
270.71	0.105	541420	keystroke_r	r	n/a
270.8305	0.105	541661	keystroke_i	i	n/a
271.19	0.18	542380	keystroke_s	s	n/a
271.2645	0.181	542529	keystroke_e	e	n/a
271.4305	0.149	542861	keystroke_Key.space	Key.space	n/a
271.6705	0.225	543341	keystroke_c	c	n/a
271.91	0.285	543820	keystroke_a	a	n/a
272.135	0.24	544270	keystroke_r	r	n/a
272.3	0.165	544600	keystroke_t	t	n/a
272.5255	0.1795	545051	keystroke_i	i	n/a
272.9145	0.075	545829	keystroke_Key.backspace	Key.backspace	n/a
273.05	0.091	546100	keystroke_r	r	n/a
273.1695	0.105	546339	keystroke_i	i	n/a
273.245	0.105	546490	keystroke_d	d	n/a
273.425	0.1795	546850	keystroke_g	g	n/a
273.5295	0.2405	547059	keystroke_e	e	n/a
273.6955	0.134	547391	keystroke_s	s	n/a
274.025	0.105	548050	keystroke_Key.enter	Key.enter	n/a
274.136	5.8015	548272	prompt	n/a	namespace awful guards cleanup\n
274.67	0.0895	549340	keystroke_n	n	n/a
274.7745	0.135	549549	keystroke_a	a	n/a
274.865	0.1045	549730	keystroke_m	m	n/a
274.9245	0.12	549849	keystroke_e	e	n/a
274.9995	0.12	549999	keystroke_s	s	n/a
275.0905	0.1195	550181	keystroke_p	p	n/a
275.1945	0.15	550389	keystroke_a	a	n/a
275.2845	0.1955	550569	keystroke_c	c	n/a
275.3745	0.165	550749	keystroke_e	e	n/a
275.4645	0.1505	550929	keystroke_Key.space	Key.space	n/a
275.5245	0.1205	551049	keystroke_a	a	n/a
275.7655	0.1045	551531	keystroke_w	w	n/a
275.915	0.135	551830	keystroke_f	f	n/a
276.005	0.195	552010	keystroke_u	u	n/a
276.11	0.135	552220	keystroke_l	l	n/a
276.185	0.15	552370	keystroke_Key.space	Key.space	n/a
276.26	0.165	552520	keystroke_g	g	n/a
276.395	0.165	552790	keystroke_a	a	n/a
276.575	0.12	553150	keystroke_u	u	n/a
276.89	0.2095	553780	keystroke_Key.backspace	Key.backspace	n/a
277.3995	0.075	554799	keystroke_Key.backspace	Key.backspace	n/a
277.6545	0.105	555309	keystroke_u	u	n/a
277.745	0.1645	555490	keystroke_a	a	n/a
277.8055	0.1345	555611	keystroke_r	r	n/a
278.6	0.1505	557200	keystroke_d	d	n/a
278.675	0.1505	557350	keystroke_s	s	n/a
278.9005	0.1345	557801	keystroke_Key.space	Key.space	n/a
279.0655	0.135	558131	keystroke_c	c	n/a
279.1545	0.1355	558309	keystroke_l	l	n/a
279.2305	0.1345	558461	keystroke_e	e	n/a
279.32	0.12	558640	keystroke_a	a	n/a
279.35	0.15	558700	keystroke_n	n	n/a
279.485	0.15	558970	keystroke_u	u	n/a
279.59	0.09	559180	keystroke_p	p	n/a
279.875	0.06	559750	keystroke_Key.enter	Key.enter	n/a
279.942	9.805	559884	prompt	n/a	doctor curriculum runner customized\n
280.475	0.12	560950	keystroke_d	d	n/a
280.55	0.0905	561100	keystroke_o	o	n/a
280.7005	0.1195	561401	keystroke_c	c	n/a
280.9405	0.0745	561881	keystroke_t	t	n/a
280.985	0.105	561970	keystroke_o	o	n/a
281.105	0.105	562210	keystroke_r	r	n/a
281.18	0.09	562360	keystroke_Key.space	Key.space	n/a
281.3	0.1205	562600	keystroke_c	c	n/a
281.435	0.09	562870	keystroke_i	i	n/a
281.54	0.06	563080	keystroke_r	r	n/a
281.675	0.1055	563350	keystroke_r	r	n/a
281.795	0.09	563590	keystroke_i	i	n/a
281.915	0.135	563830	keystroke_c	c	n/a
282.035	0.18	564070	keystroke_u	u	n/a
282.14	0.1355	564280	keystroke_l	l	n/a
282.3495	0.1805	564699	keystroke_u	u	n/a
282.515	0.1655	565030	keystroke_m	m	n/a
284	0.15	568000	keystroke_Key.space	Key.space	n/a
284.75	0.075	569500	keystroke_Key.backspace	Key.backspace	n/a
284.93	0.045	569860	keystroke_Key.backspace	Key.backspace	n/a
285.065	0.045	570130	keystroke_Key.backspace	Key.backspace	n/a
285.185	0.06	570370	keystroke_Key.backspace	Key.backspace	n/a
285.32	0.06	570640	keystroke_Key.backspace	Key.backspace	n/a
285.47	0.0605	570940	keystroke_Key.backspace	Key.backspace	n/a
285.62	0.045	571240	keystroke_Key.backspace	Key.backspace	n/a
285.725	0.075	571450	keystroke_Key.backspace	Key.backspace	n/a
285.86	0.06	571720	keystroke_Key.backspace	Key.backspace	n/a
286.025	0.09	572050	keystroke_Key.backspace	Key.backspace	n/a
286.295	0.1055	572590	keystroke_u	u	n/a
286.4295	0.06	572859	keystroke_r	r	n/a
286.55	0.1055	573100	keystroke_r	r	n/a
286.6245	0.09	573249	keystroke_i	i	n/a
286.7755	0.1195	573551	keystroke_c	c	n/a
286.8655	0.1495	573731	keystroke_u	u	n/a
287.0005	0.1345	574001	keystroke_l	l	n/a
287.1645	0.1205	574329	keystroke_u	u	n/a
287.39	0.135	574780	keystroke_m	m	n/a
287.57	0.135	575140	keystroke_Key.space	Key.space	n/a
287.72	0.12	575440	keystroke_r	r	n/a
287.795	0.1195	575590	keystroke_u	u	n/a
287.8995	0.091	575799	keystroke_n	n	n/a
288.0495	0.136	576099	keystroke_n	n	n/a
288.1705	0.134	576341	keystroke_e	e	n/a
288.2155	0.1195	576431	keystroke_r	r	n/a
288.3195	0.09	576639	keystroke_Key.space	Key.space	n/a
288.455	0.1195	576910	keystroke_c	c	n/a
288.5005	0.075	577001	keystroke_u	u	n/a
288.635	0.1655	577270	keystroke_s	s	n/a
288.7555	0.104	577511	keystroke_t	t	n/a
288.8155	0.15	577631	keystroke_o	o	n/a
288.92	0.1805	577840	keystroke_m	m	n/a
289.0405	0.12	578081	keystroke_i	i	n/a
289.146	0.2295	578292	keystroke_z	z	n/a
289.2955	0.2095	578591	keystroke_e	e	n/a
289.4305	0.1495	578861	keystroke_d	d	n/a
289.655	0.09	579310	keystroke_Key.enter	Key.enter	n/a
289.751	3.6705	579502	prompt	n/a	commands climb copy somewhere\n
290.3	0.12	580600	keystroke_c	c	n/a
290.375	0.12	580750	keystroke_o	o	n/a
290.51	0.06	581020	keystroke_m	m	n/a
290.6605	0.0895	581321	keystroke_m	m	n/a
290.72	0.1195	581440	keystroke_a	a	n/a
290.8545	0.1205	581709	keystroke_n	n	n/a
290.9155	0.179	581831	keystroke_d	d	n/a
291.005	0.1355	582010	keystroke_s	s	n/a
291.0795	0.1205	582159	keystroke_Key.space	Key.space	n/a
291.185	0.1345	582370	keystroke_c	c	n/a
291.2605	0.1795	582521	keystroke_l	l	n/a
291.3655	0.15	582731	keystroke_i	i	n/a
291.4245	0.151	582849	keystroke_m	m	n/a
291.5305	0.119	583061	keystroke_b	b	n/a
291.6345	0.105	583269	keystroke_Key.space	Key.space	n/a
291.755	0.1355	583510	keystroke_c	c	n/a
291.8305	0.18	583661	keystroke_o	o	n/a
291.9195	0.12	583839	keystroke_p	p	n/a
292.0545	0.1355	584109	keystroke_y	y	n/a
292.16	0.12	584320	keystroke_Key.space	Key.space	n/a
292.22	0.1055	584440	keystroke_s	s	n/a
292.31	0.135	584620	keystroke_o	o	n/a
292.4	0.15	584800	keystroke_m	m	n/a
292.535	0.09	585070	keystroke_e	e	n/a
292.7005	0.1195	585401	keystroke_w	w	n/a
292.8655	0.1045	585731	keystroke_h	h	n/a
292.985	0.105	585970	keystroke_e	e	n/a
293.1055	0.1345	586211	keystroke_r	r	n/a
293.195	0.1355	586390	keystroke_e	e	n/a
293.3455	0.074	586691	keystroke_Key.enter	Key.enter	n/a
293.425	8.6825	586850	prompt	n/a	experts province undertaken elizabeth\n
295.2805	0.119	590561	keystroke_3	3	n/a
295.505	0.1795	591010	keystroke_s	s	n/a
295.9995	0.091	591999	keystroke_Key.backspace	Key.backspace	n/a
296.165	0.105	592330	keystroke_Key.backspace	Key.backspace	n/a
296.5405	0.09	593081	keystroke_e	e	n/a
296.7205	0.135	593441	keystroke_x	x	n/a
296.84	0.1195	593680	keystroke_p	p	n/a
296.9445	0.1805	593889	keystroke_e	e	n/a
297.08	0.1055	594160	keystroke_r	r	n/a
297.335	0.165	594670	keystroke_t	t	n/a
297.59	0.15	595180	keystroke_s	s	n/a
297.665	0.15	595330	keystroke_Key.space	Key.space	n/a
297.8	0.1355	595600	keystroke_p	p	n/a
297.8905	0.1045	595781	keystroke_r	r	n/a
298.2355	0.0745	596471	keystroke_o	o	n/a
298.73	0.1355	597460	keystroke_v	v	n/a
298.8495	0.1055	597699	keystroke_i	i	n/a
298.8955	0.1495	597791	keystroke_n	n	n/a
299	0.18	598000	keystroke_c	c	n/a
299.12	0.135	598240	keystroke_e	e	n/a
299.2095	0.1355	598419	keystroke_Key.space	Key.space	n/a
299.3455	0.135	598691	keystroke_u	u	n/a
299.4205	0.15	598841	keystroke_n	n	n/a
299.4955	0.12	598991	keystroke_d	d	n/a
299.5855	0.165	599171	keystroke_e	e	n/a
299.7205	0.105	599441	keystroke_r	r	n/a
299.9145	0.1205	599829	keystroke_t	t	n/a
299.9905	0.164	599981	keystroke_a	a	n/a
300.08	0.1045	600160	keystroke_k	k	n/a
300.23	0.1505	600460	keystroke_e	e	n/a
300.3345	0.1205	600669	keystroke_n	n	n/a
300.395	0.15	600790	keystroke_Key.space	Key.space	n/a
300.53	0.12	601060	keystroke_e	e	n/a
300.62	0.18	601240	keystroke_l	l	n/a
300.71	0.12	601420	keystroke_i	i	n/a
300.815	0.166	601630	keystroke_z	z	n/a
301.0995	0.1655	602199	keystroke_a	a	n/a
301.5505	0.09	603101	keystroke_b	b	n/a
301.625	0.1345	603250	keystroke_e	e	n/a
301.7155	0.0895	603431	keystroke_t	t	n/a
301.7895	0.06	603579	keystroke_h	h	n/a
301.9845	0.1205	603969	keystroke_Key.enter	Key.enter	n/a
302.1115	7.0305	604223	prompt	n/a	cleaner manuals controversy paperback\n
302.6755	0.1345	605351	keystroke_c	c	n/a
302.78	0.1055	605560	keystroke_l	l	n/a
302.8695	0.151	605739	keystroke_e	e	n/a
302.9455	0.135	605891	keystroke_a	a	n/a
303.0055	0.12	606011	keystroke_n	n	n/a
303.3505	0.12	606701	keystroke_e	e	n/a
303.4105	0.18	606821	keystroke_r	r	n/a
303.5445	0.165	607089	keystroke_Key.space	Key.space	n/a
303.7255	0.075	607451	keystroke_m	m	n/a
303.8155	0.105	607631	keystroke_a	a	n/a
303.9055	0.15	607811	keystroke_n	n	n/a
303.9805	0.135	607961	keystroke_u	u	n/a
304.13	0.12	608260	keystroke_a	a	n/a
304.3105	0.15	608621	keystroke_l	l	n/a
304.4755	0.1345	608951	keystroke_s	s	n/a
304.5355	0.1195	609071	keystroke_Key.space	Key.space	n/a
304.7305	0.119	609461	keystroke_c	c	n/a
304.79	0.1345	609580	keystroke_o	o	n/a
304.8505	0.135	609701	keystroke_n	n	n/a
304.9995	0.106	609999	keystroke_t	t	n/a
305.1345	0.0305	610269	keystroke_r	r	n/a
305.1495	0.1055	610299	keystroke_o	o	n/a
305.3905	0.195	610781	keystroke_v	v	n/a
305.5705	0.2095	611141	keystroke_e	e	n/a
305.69	0.135	611380	keystroke_r	r	n/a
305.84	0.135	611680	keystroke_y	y	n/a
306.3955	0.0445	612791	keystroke_Key.backspace	Key.backspace	n/a
306.515	0.0605	613030	keystroke_Key.backspace	Key.backspace	n/a
307.055	0.1205	614110	keystroke_r	r	n/a
307.19	0.15	614380	keystroke_s	s	n/a
307.355	0.075	614710	keystroke_y	y	n/a
307.58	0.15	615160	keystroke_Key.space	Key.space	n/a
308.15	0.09	616300	keystroke_p	p	n/a
308.2555	0.1045	616511	keystroke_a	a	n/a
308.3455	0.09	616691	keystroke_p	p	n/a
308.4205	0.1045	616841	keystroke_e	e	n/a
308.4805	0.1195	616961	keystroke_r	r	n/a
308.57	0.1055	617140	keystroke_b	b	n/a
308.69	0.1055	617380	keystroke_a	a	n/a
308.7655	0.12	617531	keystroke_c	c	n/a
308.8405	0.105	617681	keystroke_k	k	n/a
309.0655	0.075	618131	keystroke_Key.enter	Key.enter	n/a
309.1525	3.5445	618305	prompt	n/a	meant algebra pendant dirt\n
309.695	0.1205	619390	keystroke_m	m	n/a
309.74	0.1955	619480	keystroke_e	e	n/a
309.86	0.165	619720	keystroke_a	a	n/a
309.95	0.135	619900	keystroke_n	n	n/a
310.055	0.135	620110	keystroke_t	t	n/a
310.145	0.12	620290	keystroke_Key.space	Key.space	n/a
310.25	0.12	620500	keystroke_a	a	n/a
310.3105	0.1195	620621	keystroke_l	l	n/a
310.46	0.15	620920	keystroke_g	g	n/a
310.5505	0.1195	621101	keystroke_e	e	n/a
310.685	0.105	621370	keystroke_b	b	n/a
310.805	0.165	621610	keystroke_r	r	n/a
310.9105	0.165	621821	keystroke_a	a	n/a
311.0455	0.119	622091	keystroke_Key.space	Key.space	n/a
311.1955	0.1045	622391	keystroke_p	p	n/a
311.3155	0.1045	622631	keystroke_e	e	n/a
311.4055	0.1345	622811	keystroke_n	n	n/a
311.525	0.1655	623050	keystroke_d	d	n/a
311.6	0.1655	623200	keystroke_a	a	n/a
311.7205	0.1495	623441	keystroke_n	n	n/a
311.8555	0.12	623711	keystroke_t	t	n/a
311.9605	0.12	623921	keystroke_Key.space	Key.space	n/a
312.1255	0.135	624251	keystroke_d	d	n/a
312.2605	0.12	624521	keystroke_i	i	n/a
312.3655	0.134	624731	keystroke_r	r	n/a
312.4705	0.105	624941	keystroke_t	t	n/a
312.6045	0.09	625209	keystroke_Key.enter	Key.enter	n/a
312.701	5.306	625402	prompt	n/a	favorite eastern indexes zoloft\n
313.265	0.1055	626530	keystroke_f	f	n/a
313.34	0.151	626680	keystroke_a	a	n/a
313.5055	0.1195	627011	keystroke_v	v	n/a
313.58	0.09	627160	keystroke_o	o	n/a
313.715	0.12	627430	keystroke_r	r	n/a
313.85	0.045	627700	keystroke_i	i	n/a
314.225	0.105	628450	keystroke_t	t	n/a
314.465	0.15	628930	keystroke_e	e	n/a
314.63	0.1505	629260	keystroke_Key.space	Key.space	n/a
314.9155	0.195	629831	keystroke_e	e	n/a
315.0505	0.1945	630101	keystroke_a	a	n/a
315.17	0.15	630340	keystroke_s	s	n/a
315.305	0.135	630610	keystroke_t	t	n/a
315.41	0.195	630820	keystroke_e	e	n/a
315.545	0.15	631090	keystroke_r	r	n/a
315.725	0.105	631450	keystroke_n	n	n/a
315.8	0.12	631600	keystroke_Key.space	Key.space	n/a
315.935	0.1195	631870	keystroke_i	i	n/a
315.996	0.1495	631992	keystroke_n	n	n/a
316.085	0.1355	632170	keystroke_d	d	n/a
316.1755	0.135	632351	keystroke_e	e	n/a
316.3555	0.15	632711	keystroke_x	x	n/a
316.5655	0.225	633131	keystroke_e	e	n/a
316.685	0.1355	633370	keystroke_s	s	n/a
316.8055	0.1645	633611	keystroke_Key.space	Key.space	n/a
316.97	0.1655	633940	keystroke_z	z	n/a
317.105	0.075	634210	keystroke_o	o	n/a
317.3005	0.06	634601	keystroke_l	l	n/a
317.4655	0.1345	634931	keystroke_o	o	n/a
317.54	0.0905	635080	keystroke_f	f	n/a
317.72	0.105	635440	keystroke_t	t	n/a
317.915	0.09	635830	keystroke_Key.enter	Key.enter	n/a
318.0145	4.6575	636029	prompt	n/a	already reports developed those\n
318.7545	0.1505	637509	keystroke_a	a	n/a
318.9205	0.1045	637841	keystroke_l	l	n/a
318.98	0.135	637960	keystroke_r	r	n/a
319.055	0.2555	638110	keystroke_e	e	n/a
319.1295	0.1815	638259	keystroke_a	a	n/a
319.311	0.089	638622	keystroke_d	d	n/a
319.37	0.105	638740	keystroke_y	y	n/a
319.445	0.165	638890	keystroke_Key.space	Key.space	n/a
319.58	0.15	639160	keystroke_r	r	n/a
319.655	0.1505	639310	keystroke_e	e	n/a
319.745	0.135	639490	keystroke_p	p	n/a
319.835	0.135	639670	keystroke_o	o	n/a
319.94	0.165	639880	keystroke_r	r	n/a
320.03	0.21	640060	keystroke_t	t	n/a
320.195	0.1505	640390	keystroke_s	s	n/a
320.2845	0.121	640569	keystroke_Key.space	Key.space	n/a
320.45	0.135	640900	keystroke_d	d	n/a
320.525	0.1045	641050	keystroke_e	e	n/a
320.81	0.12	641620	keystroke_v	v	n/a
321.1255	0.1195	642251	keystroke_e	e	n/a
321.275	0.195	642550	keystroke_l	l	n/a
321.3955	0.195	642791	keystroke_o	o	n/a
321.4405	0.1795	642881	keystroke_p	p	n/a
321.6055	0.2095	643211	keystroke_e	e	n/a
321.68	0.15	643360	keystroke_d	d	n/a
321.8	0.135	643600	keystroke_Key.space	Key.space	n/a
321.9505	0.104	643901	keystroke_t	t	n/a
322.0255	0.149	644051	keystroke_h	h	n/a
322.1005	0.134	644201	keystroke_o	o	n/a
322.2195	0.136	644439	keystroke_s	s	n/a
322.295	0.12	644590	keystroke_e	e	n/a
322.5945	0.0755	645189	keystroke_Key.enter	Key.enter	n/a
322.676	4.586	645352	prompt	n/a	lancaster quiz formed grip\n
323.285	0.09	646570	keystroke_l	l	n/a
323.39	0.105	646780	keystroke_a	a	n/a
323.48	0.1355	646960	keystroke_n	n	n/a
323.5855	0.195	647171	keystroke_c	c	n/a
323.735	0.165	647470	keystroke_a	a	n/a
323.84	0.285	647680	keystroke_s	s	n/a
323.975	0.2255	647950	keystroke_e	e	n/a
324.335	0.105	648670	keystroke_Key.backspace	Key.backspace	n/a
324.4705	0.12	648941	keystroke_t	t	n/a
324.651	0.074	649302	keystroke_e	e	n/a
325.0255	0.12	650051	keystroke_r	r	n/a
325.265	0.12	650530	keystroke_Key.space	Key.space	n/a
325.43	0.0905	650860	keystroke_q	q	n/a
325.5205	0.1495	651041	keystroke_u	u	n/a
325.6105	0.09	651221	keystroke_i	i	n/a
325.7005	0.1495	651401	keystroke_z	z	n/a
325.7905	0.1645	651581	keystroke_Key.space	Key.space	n/a
325.94	0.1345	651880	keystroke_f	f	n/a
326	0.1055	652000	keystroke_o	o	n/a
326.1355	0.075	652271	keystroke_r	r	n/a
326.1945	0.135	652389	keystroke_m	m	n/a
326.315	0.1805	652630	keystroke_e	e	n/a
326.405	0.135	652810	keystroke_d	d	n/a
326.5245	0.136	653049	keystroke_Key.space	Key.space	n/a
326.6445	0.121	653289	keystroke_g	g	n/a
326.7355	0.135	653471	keystroke_r	r	n/a
326.8095	0.181	653619	keystroke_i	i	n/a
326.9155	0.09	653831	keystroke_p	p	n/a
327.1705	0.09	654341	keystroke_Key.enter	Key.enter	n/a
327.266	3.671	654532	prompt	n/a	allen weed follow bundle\n
327.9805	0.134	655961	keystroke_a	a	n/a
328.0855	0.09	656171	keystroke_l	l	n/a
328.2355	0.12	656471	keystroke_l	l	n/a
328.3855	0.105	656771	keystroke_e	e	n/a
328.4755	0.105	656951	keystroke_n	n	n/a
328.5205	0.149	657041	keystroke_Key.space	Key.space	n/a
328.6545	0.12	657309	keystroke_w	w	n/a
328.7305	0.0595	657461	keystroke_e	e	n/a
328.8945	0.166	657789	keystroke_e	e	n/a
329.0155	0.1795	658031	keystroke_d	d	n/a
329.18	0.1345	658360	keystroke_Key.space	Key.space	n/a
329.3295	0.136	658659	keystroke_f	f	n/a
329.4055	0.12	658811	keystroke_o	o	n/a
329.5855	0.09	659171	keystroke_l	l	n/a
329.7505	0.135	659501	keystroke_l	l	n/a
329.8255	0.15	659651	keystroke_o	o	n/a
329.9455	0.135	659891	keystroke_w	w	n/a
330.0045	0.1505	660009	keystroke_Key.space	Key.space	n/a
330.1405	0.105	660281	keystroke_b	b	n/a
330.2155	0.18	660431	keystroke_u	u	n/a
330.3505	0.12	660701	keystroke_n	n	n/a
330.4405	0.135	660881	keystroke_d	d	n/a
330.5605	0.1655	661121	keystroke_l	l	n/a
330.7105	0.0895	661421	keystroke_e	e	n/a
330.83	0.105	661660	keystroke_Key.enter	Key.enter	n/a
330.9415	4.6455	661883	prompt	n/a	resulting wildlife can't minimum\n
331.7605	0.195	663521	keystroke_r	r	n/a
331.8205	0.21	663641	keystroke_e	e	n/a
331.9105	0.15	663821	keystroke_s	s	n/a
331.9855	0.105	663971	keystroke_u	u	n/a
332.0455	0.12	664091	keystroke_l	l	n/a
332.151	0.1045	664302	keystroke_t	t	n/a
332.2405	0.15	664481	keystroke_i	i	n/a
332.3155	0.165	664631	keystroke_n	n	n/a
332.4955	0.134	664991	keystroke_g	g	n/a
332.5855	0.134	665171	keystroke_Key.space	Key.space	n/a
332.795	0.12	665590	keystroke_w	w	n/a
332.9005	0.135	665801	keystroke_i	i	n/a
332.975	0.1205	665950	keystroke_l	l	n/a
333.1105	0.1045	666221	keystroke_d	d	n/a
333.2005	0.1345	666401	keystroke_l	l	n/a
333.26	0.1505	666520	keystroke_i	i	n/a
333.365	0.15	666730	keystroke_f	f	n/a
333.455	0.1655	666910	keystroke_e	e	n/a
333.666	0.1195	667332	keystroke_Key.space	Key.space	n/a
333.92	0.1355	667840	keystroke_c	c	n/a
333.995	0.1355	667990	keystroke_a	a	n/a
334.07	0.1795	668140	keystroke_n	n	n/a
334.235	0.1355	668470	keystroke_'	'	n/a
334.3545	0.121	668709	keystroke_t	t	n/a
334.4295	0.136	668859	keystroke_Key.space	Key.space	n/a
334.4455	0.134	668891	keystroke_m	m	n/a
334.5355	0.165	669071	keystroke_i	i	n/a
334.685	0.1205	669370	keystroke_n	n	n/a
334.7605	0.15	669521	keystroke_i	i	n/a
334.895	0.135	669790	keystroke_m	m	n/a
335.0445	0.105	670089	keystroke_u	u	n/a
335.27	0.1345	670540	keystroke_m	m	n/a
335.5095	0.0755	671019	keystroke_Key.enter	Key.enter	n/a
335.591	4.421	671182	prompt	n/a	stay kill reggae means\n
336.2005	0.135	672401	keystroke_s	s	n/a
336.455	0.1355	672910	keystroke_t	t	n/a
336.545	0.1805	673090	keystroke_a	a	n/a
336.6505	0.09	673301	keystroke_y	y	n/a
336.7555	0.135	673511	keystroke_Key.space	Key.space	n/a
336.9205	0.1645	673841	keystroke_k	k	n/a
337.07	0.0605	674140	keystroke_i	i	n/a
337.086	0.0895	674172	keystroke_l	l	n/a
337.2655	0.0895	674531	keystroke_l	l	n/a
337.4	0.12	674800	keystroke_Key.space	Key.space	n/a
337.4905	0.1195	674981	keystroke_r	r	n/a
337.58	0.15	675160	keystroke_e	e	n/a
337.775	0.165	675550	keystroke_g	g	n/a
338.03	0.09	676060	keystroke_a	a	n/a
338.3605	0.09	676721	keystroke_Key.backspace	Key.backspace	n/a
338.4355	0.12	676871	keystroke_g	g	n/a
338.5255	0.1945	677051	keystroke_a	a	n/a
338.69	0.165	677380	keystroke_e	e	n/a
339.035	0.135	678070	keystroke_Key.space	Key.space	n/a
339.3655	0.12	678731	keystroke_m	m	n/a
339.4405	0.15	678881	keystroke_e	e	n/a
339.5155	0.12	679031	keystroke_a	a	n/a
339.6055	0.075	679211	keystroke_n	n	n/a
339.7255	0.0745	679451	keystroke_s	s	n/a
339.9505	0.06	679901	keystroke_Key.enter	Key.enter	n/a
340.0165	5.9955	680033	prompt	n/a	breed shield bailey declaration\n
340.6105	0.1045	681221	keystroke_b	b	n/a
340.6705	0.1345	681341	keystroke_r	r	n/a
340.7605	0.09	681521	keystroke_e	e	n/a
340.9105	0.225	681821	keystroke_e	e	n/a
341.0145	0.1655	682029	keystroke_d	d	n/a
341.136	0.149	682272	keystroke_Key.space	Key.space	n/a
341.195	0.105	682390	keystroke_s	s	n/a
341.286	0.134	682572	keystroke_h	h	n/a
341.36	0.135	682720	keystroke_i	i	n/a
341.51	0.09	683020	keystroke_e	e	n/a
342.2455	0.165	684491	keystroke_l	l	n/a
342.3805	0.18	684761	keystroke_d	d	n/a
342.5445	0.1355	685089	keystroke_Key.space	Key.space	n/a
342.695	0.136	685390	keystroke_b	b	n/a
342.845	0.1655	685690	keystroke_a	a	n/a
343.0255	0.195	686051	keystroke_i	i	n/a
343.115	0.165	686230	keystroke_l	l	n/a
343.49	0.135	686980	keystroke_e	e	n/a
343.7455	0.1045	687491	keystroke_y	y	n/a
343.985	0.135	687970	keystroke_Key.space	Key.space	n/a
344.241	0.134	688482	keystroke_d	d	n/a
344.33	0.135	688660	keystroke_e	e	n/a
344.48	0.1355	688960	keystroke_c	c	n/a
344.57	0.1055	689140	keystroke_l	l	n/a
344.6905	0.1795	689381	keystroke_a	a	n/a
344.9605	0.135	689921	keystroke_r	r	n/a
345.065	0.166	690130	keystroke_a	a	n/a
345.2755	0.1205	690551	keystroke_t	t	n/a
345.4255	0.225	690851	keystroke_i	i	n/a
345.4405	0.18	690881	keystroke_o	o	n/a
345.6055	0.135	691211	keystroke_n	n	n/a
345.9205	0.09	691841	keystroke_Key.enter	Key.enter	n/a
346.016	6.266	692032	prompt	n/a	over gibraltar ultram customers\n
346.6855	0.1195	693371	keystroke_o	o	n/a
346.775	0.18	693550	keystroke_v	v	n/a
346.8805	0.2095	693761	keystroke_e	e	n/a
346.9705	0.1645	693941	keystroke_r	r	n/a
347.06	0.15	694120	keystroke_Key.space	Key.space	n/a
347.2405	0.15	694481	keystroke_g	g	n/a
347.51	0.21	695020	keystroke_i	i	n/a
347.645	0.1505	695290	keystroke_b	b	n/a
348.3205	0.1795	696641	keystroke_r	r	n/a
348.455	0.1805	696910	keystroke_a	a	n/a
348.666	0.134	697332	keystroke_l	l	n/a
348.95	0.1805	697900	keystroke_t	t	n/a
349.1005	0.285	698201	keystroke_a	a	n/a
349.3255	0.15	698651	keystroke_r	r	n/a
349.535	0.151	699070	keystroke_Key.space	Key.space	n/a
349.805	0.285	699610	keystroke_u	u	n/a
350.0305	0.1355	700061	keystroke_l	l	n/a
350.18	0.18	700360	keystroke_t	t	n/a
350.2255	0.2095	700451	keystroke_r	r	n/a
350.346	0.164	700692	keystroke_a	a	n/a
350.495	0.1205	700990	keystroke_m	m	n/a
350.78	0.1505	701560	keystroke_Key.space	Key.space	n/a
351.47	0.12	702940	keystroke_c	c	n/a
351.5	0.105	703000	keystroke_u	u	n/a
351.6205	0.1495	703241	keystroke_s	s	n/a
351.7255	0.105	703451	keystroke_t	t	n/a
351.785	0.1355	703570	keystroke_o	o	n/a
351.8605	0.1645	703721	keystroke_m	m	n/a
351.9505	0.0895	703901	keystroke_e	e	n/a
352.01	0.12	704020	keystroke_r	r	n/a
352.1	0.09	704200	keystroke_s	s	n/a
352.22	0.06	704440	keystroke_Key.enter	Key.enter	n/a
352.2865	7.856	704573	prompt	n/a	popularity belgium pledge device\n
352.835	0.135	705670	keystroke_o	o	n/a
352.94	0.1055	705880	keystroke_p	p	n/a
353.24	0.0755	706480	keystroke_Key.backspace	Key.backspace	n/a
353.3595	0.061	706719	keystroke_Key.backspace	Key.backspace	n/a
353.601	0.0295	707202	keystroke_p	p	n/a
353.645	0.15	707290	keystroke_o	o	n/a
353.765	0.105	707530	keystroke_p	p	n/a
353.93	0.1355	707860	keystroke_u	u	n/a
354.0505	0.1195	708101	keystroke_l	l	n/a
354.2	0.165	708400	keystroke_a	a	n/a
354.29	0.1505	708580	keystroke_t	t	n/a
354.4705	0.12	708941	keystroke_i	i	n/a
354.8605	0.09	709721	keystroke_Key.backspace	Key.backspace	n/a
355.0105	0.075	710021	keystroke_Key.backspace	Key.backspace	n/a
355.1005	0.075	710201	keystroke_r	r	n/a
355.205	0.12	710410	keystroke_i	i	n/a
355.3405	0.2245	710681	keystroke_t	t	n/a
355.46	0.165	710920	keystroke_y	y	n/a
355.79	0.105	711580	keystroke_Key.space	Key.space	n/a
355.9855	0.1495	711971	keystroke_b	b	n/a
356.1205	0.1495	712241	keystroke_e	e	n/a
356.495	0.1355	712990	keystroke_l	l	n/a
356.7355	0.15	713471	keystroke_g	g	n/a
356.9605	0.105	713921	keystroke_u	u	n/a
357.26	0.0755	714520	keystroke_Key.backspace	Key.backspace	n/a
357.4555	0.06	714911	keystroke_i	i	n/a
357.6205	0.0605	715241	keystroke_u	u	n/a
357.7695	0.136	715539	keystroke_m	m	n/a
357.9345	0.121	715869	keystroke_Key.space	Key.space	n/a
358.1305	0.21	716261	keystroke_p	p	n/a
358.2505	0.164	716501	keystroke_l	l	n/a
358.3555	0.165	716711	keystroke_e	e	n/a
