onset	duration	sample	value	key	prompt_text
9.32	9.9965	18640	prompt	n/a	the quick brown fox jumps over a lazy dog\n
11.006	0.057	22012	keystroke_t	t	n/a
11.033	0.075	22066	keystroke_h	h	n/a
11.123	0.1955	22246	keystroke_e	e	n/a
11.2435	0.1795	22487	keystroke_Key.space	Key.space	n/a
11.4535	0.165	22907	keystroke_q	q	n/a
12.4585	0.075	24917	keystroke_u	u	n/a
12.624	0.09	25248	keystroke_i	i	n/a
12.774	0.12	25548	keystroke_c	c	n/a
12.909	0.075	25818	keystroke_k	k	n/a
13.029	0.075	26058	keystroke_Key.space	Key.space	n/a
13.134	0.15	26268	keystroke_f	f	n/a
13.734	0.105	27468	keystroke_Key.backspace	Key.backspace	n/a
14.034	0.105	28068	keystroke_b	b	n/a
14.289	0.135	28578	keystroke_r	r	n/a
14.409	0.105	28818	keystroke_o	o	n/a
14.484	0.1045	28968	keystroke_w	w	n/a
14.6335	0.0755	29267	keystroke_n	n	n/a
14.7685	0.09	29537	keystroke_Key.space	Key.space	n/a
14.874	0.1345	29748	keystroke_f	f	n/a
15.0235	0.075	30047	keystroke_o	o	n/a
15.1735	0.105	30347	keystroke_x	x	n/a
15.3235	0.105	30647	keystroke_Key.space	Key.space	n/a
15.3835	0.09	30767	keystroke_j	j	n/a
15.5785	0.06	31157	keystroke_u	u	n/a
15.7735	0.12	31547	keystroke_m	m	n/a
15.9385	0.1055	31877	keystroke_p	p	n/a
16.104	0.12	32208	keystroke_s	s	n/a
16.239	0.1195	32478	keystroke_Key.space	Key.space	n/a
16.4335	0.105	32867	keystroke_o	o	n/a
16.5385	0.075	33077	keystroke_v	v	n/a
16.7185	0.135	33437	keystroke_e	e	n/a
16.7935	0.165	33587	keystroke_r	r	n/a
16.9435	0.105	33887	keystroke_Key.space	Key.space	n/a
17.0185	0.165	34037	keystroke_a	a	n/a
17.1685	0.09	34337	keystroke_Key.space	Key.space	n/a
17.3335	0.105	34667	keystroke_l	l	n/a
17.5435	0.045	35087	keystroke_a	a	n/a
17.7535	0.105	35507	keystroke_z	z	n/a
17.8885	0.09	35777	keystroke_y	y	n/a
18.5485	0.105	37097	keystroke_Key.space	Key.space	n/a
18.8185	0.09	37637	keystroke_d	d	n/a
18.9535	0.105	37907	keystroke_o	o	n/a
19.0735	0.06	38147	keystroke_g	g	n/a
19.2385	0.075	38477	keystroke_Key.enter	Key.enter	n/a
19.321	7.4045	38642	prompt	n/a	depends in guru validity\n
20.228	0.075	40456	keystroke_d	d	n/a
20.394	0.075	40788	keystroke_e	e	n/a
20.5735	0.075	41147	keystroke_p	p	n/a
20.6635	0.12	41327	keystroke_e	e	n/a
20.7985	0.076	41597	keystroke_n	n	n/a
20.9335	0.105	41867	keystroke_d	d	n/a
21.0835	0.12	42167	keystroke_s	s	n/a
21.2485	0.0905	42497	keystroke_Key.space	Key.space	n/a
21.8935	0.075	43787	keystroke_i	i	n/a
22.0885	0.06	44177	keystroke_n	n	n/a
22.1785	0.12	44357	keystroke_Key.space	Key.space	n/a
22.9435	0.09	45887	keystroke_g	g	n/a
23.0935	0.075	46187	keystroke_u	u	n/a
23.3935	0.075	46787	keystroke_r	r	n/a
23.6785	0.075	47357	keystroke_u	u	n/a
23.8585	0.1055	47717	keystroke_Key.space	Key.space	n/a
24.969	0.06	49938	keystroke_v	v	n/a
25.314	0.12	50628	keystroke_a	a	n/a
25.629	0.1045	51258	keystroke_l	l	n/a
25.7935	0.075	51587	keystroke_i	i	n/a
25.9735	0.075	51947	keystroke_d	d	n/a
26.0935	0.105	52187	keystroke_i	i	n/a
26.2585	0.105	52517	keystroke_t	t	n/a
26.4085	0.0755	52817	keystroke_y	y	n/a
26.6635	0.06	53327	keystroke_Key.enter	Key.enter	n/a
26.7285	17.067	53457	prompt	n/a	vincent troy intensive promo\n
27.819	0.105	55638	keystroke_w	w	n/a
27.939	0.075	55878	keystroke_i	i	n/a
28.089	0.075	56178	keystroke_n	n	n/a
28.239	0.15	56478	keystroke_c	c	n/a
28.374	0.1045	56748	keystroke_e	e	n/a
29.0785	0.045	58157	keystroke_Key.backspace	Key.backspace	n/a
29.3935	0.06	58787	keystroke_Key.backspace	Key.backspace	n/a
29.724	0.06	59448	keystroke_Key.backspace	Key.backspace	n/a
30.203	0.046	60406	keystroke_Key.backspace	Key.backspace	n/a
30.7135	0.045	61427	keystroke_Key.backspace	Key.backspace	n/a
30.9095	0.119	61819	keystroke_c	c	n/a
31.809	0.045	63618	keystroke_Key.backspace	Key.backspace	n/a
32.229	0.09	64458	keystroke_v	v	n/a
32.514	0.06	65028	keystroke_i	i	n/a
32.664	0.075	65328	keystroke_n	n	n/a
32.769	0.1795	65538	keystroke_c	c	n/a
32.9185	0.135	65837	keystroke_e	e	n/a
33.0835	0.075	66167	keystroke_n	n	n/a
33.2485	0.12	66497	keystroke_t	t	n/a
33.9835	0.075	67967	keystroke_Key.space	Key.space	n/a
34.1335	0.12	68267	keystroke_t	t	n/a
34.3585	0.06	68717	keystroke_r	r	n/a
34.6135	0.105	69227	keystroke_o	o	n/a
35.784	0.075	71568	keystroke_y	y	n/a
35.964	0.09	71928	keystroke_Key.space	Key.space	n/a
36.159	0.06	72318	keystroke_i	i	n/a
36.3535	0.06	72707	keystroke_n	n	n/a
36.4585	0.15	72917	keystroke_t	t	n/a
36.5935	0.15	73187	keystroke_e	e	n/a
36.7285	0.045	73457	keystroke_n	n	n/a
37.2985	0.105	74597	keystroke_s	s	n/a
37.5385	0.15	75077	keystroke_v	v	n/a
37.5685	0.105	75137	keystroke_i	i	n/a
37.8085	0.1205	75617	keystroke_e	e	n/a
37.913	0.1355	75826	keystroke_Key.space	Key.space	n/a
38.1385	0.1055	76277	keystroke_p	p	n/a
38.919	0.105	77838	keystroke_Key.backspace	Key.backspace	n/a
39.369	0.075	78738	keystroke_Key.backspace	Key.backspace	n/a
39.849	0.09	79698	keystroke_Key.backspace	Key.backspace	n/a
40.374	0.075	80748	keystroke_Key.backspace	Key.backspace	n/a
40.689	0.06	81378	keystroke_Key.backspace	Key.backspace	n/a
41.154	0.075	82308	keystroke_i	i	n/a
41.259	0.135	82518	keystroke_v	v	n/a
41.514	0.135	83028	keystroke_e	e	n/a
41.664	0.09	83328	keystroke_Key.space	Key.space	n/a
42.084	0.135	84168	keystroke_p	p	n/a
42.744	0.075	85488	keystroke_r	r	n/a
43.0135	0.09	86027	keystroke_o	o	n/a
43.2535	0.06	86507	keystroke_m	m	n/a
43.4335	0.105	86867	keystroke_o	o	n/a
43.7185	0.075	87437	keystroke_Key.enter	Key.enter	n/a
43.799	6.8665	87598	prompt	n/a	retirement enables neighbor book\n
44.4535	0.12	88907	keystroke_r	r	n/a
44.5435	0.105	89087	keystroke_e	e	n/a
44.7685	0.105	89537	keystroke_t	t	n/a
44.9035	0.1355	89807	keystroke_i	i	n/a
45.0235	0.1055	90047	keystroke_r	r	n/a
45.099	0.135	90198	keystroke_e	e	n/a
45.279	0.075	90558	keystroke_m	m	n/a
45.354	0.135	90708	keystroke_e	e	n/a
45.504	0.06	91008	keystroke_n	n	n/a
45.579	0.15	91158	keystroke_t	t	n/a
45.714	0.15	91428	keystroke_Key.space	Key.space	n/a
45.924	0.135	91848	keystroke_e	e	n/a
46.104	0.06	92208	keystroke_n	n	n/a
46.209	0.165	92418	keystroke_a	a	n/a
46.434	0.09	92868	keystroke_b	b	n/a
46.584	0.12	93168	keystroke_l	l	n/a
46.689	0.18	93378	keystroke_e	e	n/a
46.854	0.15	93708	keystroke_s	s	n/a
47.019	0.12	94038	keystroke_Key.space	Key.space	n/a
47.619	0.06	95238	keystroke_n	n	n/a
48.024	0.09	96048	keystroke_e	e	n/a
48.144	0.075	96288	keystroke_i	i	n/a
48.294	0.075	96588	keystroke_g	g	n/a
48.414	0.06	96828	keystroke_h	h	n/a
48.8185	0.09	97637	keystroke_b	b	n/a
49.0585	0.075	98117	keystroke_o	o	n/a
49.1635	0.135	98327	keystroke_r	r	n/a
49.3585	0.12	98717	keystroke_Key.space	Key.space	n/a
49.8995	0.12	99799	keystroke_b	b	n/a
50.0935	0.0605	100187	keystroke_o	o	n/a
50.229	0.105	100458	keystroke_o	o	n/a
50.349	0.09	100698	keystroke_k	k	n/a
50.604	0.06	101208	keystroke_Key.enter	Key.enter	n/a
50.6685	6.3425	101337	prompt	n/a	legendary drag fate create\n
51.264	0.12	102528	keystroke_l	l	n/a
51.444	0.105	102888	keystroke_e	e	n/a
51.669	0.075	103338	keystroke_g	g	n/a
52.479	0.09	104958	keystroke_e	e	n/a
52.629	0.06	105258	keystroke_n	n	n/a
52.749	0.105	105498	keystroke_d	d	n/a
52.929	0.18	105858	keystroke_a	a	n/a
53.094	0.105	106188	keystroke_r	r	n/a
53.364	0.045	106728	keystroke_y	y	n/a
53.649	0.12	107298	keystroke_Key.space	Key.space	n/a
53.859	0.09	107718	keystroke_d	d	n/a
54.1295	0.104	108259	keystroke_r	r	n/a
54.2635	0.136	108527	keystroke_a	a	n/a
54.5635	0.09	109127	keystroke_g	g	n/a
54.7585	0.1055	109517	keystroke_Key.space	Key.space	n/a
54.984	0.12	109968	keystroke_f	f	n/a
55.119	0.165	110238	keystroke_a	a	n/a
55.269	0.12	110538	keystroke_t	t	n/a
55.374	0.12	110748	keystroke_e	e	n/a
55.509	0.1345	111018	keystroke_Key.space	Key.space	n/a
55.809	0.1045	111618	keystroke_c	c	n/a
56.0635	0.105	112127	keystroke_r	r	n/a
56.1235	0.18	112247	keystroke_e	e	n/a
56.2435	0.135	112487	keystroke_a	a	n/a
56.3935	0.09	112787	keystroke_t	t	n/a
56.4685	0.151	112937	keystroke_e	e	n/a
56.9345	0.0745	113869	keystroke_Key.enter	Key.enter	n/a
57.0155	8.335	114031	prompt	n/a	armstrong omega nirvana selection\n
57.654	0.12	115308	keystroke_a	a	n/a
57.909	0.0905	115818	keystroke_r	r	n/a
58.1035	0.06	116207	keystroke_m	m	n/a
58.284	0.135	116568	keystroke_s	s	n/a
58.434	0.09	116868	keystroke_t	t	n/a
58.7635	0.105	117527	keystroke_r	r	n/a
58.8835	0.165	117767	keystroke_o	o	n/a
59.0495	0.074	118099	keystroke_n	n	n/a
59.1385	0.0905	118277	keystroke_g	g	n/a
59.23	0.104	118460	keystroke_Key.space	Key.space	n/a
59.439	0.09	118878	keystroke_o	o	n/a
59.6785	0.06	119357	keystroke_m	m	n/a
59.8585	0.12	119717	keystroke_e	e	n/a
60.1285	0.135	120257	keystroke_g	g	n/a
60.2485	0.135	120497	keystroke_a	a	n/a
60.6085	0.105	121217	keystroke_Key.space	Key.space	n/a
61.2395	0.075	122479	keystroke_n	n	n/a
61.5095	0.0745	123019	keystroke_i	i	n/a
61.689	0.105	123378	keystroke_r	r	n/a
62.0185	0.135	124037	keystroke_v	v	n/a
62.1985	0.12	124397	keystroke_a	a	n/a
62.4085	0.045	124817	keystroke_n	n	n/a
62.4985	0.1355	124997	keystroke_a	a	n/a
62.6945	0.15	125389	keystroke_Key.space	Key.space	n/a
63.1745	0.165	126349	keystroke_s	s	n/a
63.8945	0.09	127789	keystroke_e	e	n/a
64.0295	0.105	128059	keystroke_l	l	n/a
64.1195	0.12	128239	keystroke_e	e	n/a
64.3895	0.09	128779	keystroke_c	c	n/a
64.674	0.105	129348	keystroke_t	t	n/a
64.7945	0.1645	129589	keystroke_i	i	n/a
64.914	0.165	129828	keystroke_o	o	n/a
65.019	0.1055	130038	keystroke_n	n	n/a
65.2895	0.06	130579	keystroke_Key.enter	Key.enter	n/a
65.355	9.1165	130710	prompt	n/a	consists bracelet help 'twas\n
66.2495	0.15	132499	keystroke_c	c	n/a
66.4145	0.105	132829	keystroke_o	o	n/a
66.5795	0.06	133159	keystroke_n	n	n/a
66.6695	0.105	133339	keystroke_s	s	n/a
66.8045	0.075	133609	keystroke_i	i	n/a
66.9395	0.135	133879	keystroke_s	s	n/a
67.1795	0.075	134359	keystroke_t	t	n/a
67.3445	0.1195	134689	keystroke_s	s	n/a
67.479	0.105	134958	keystroke_Key.space	Key.space	n/a
67.719	0.12	135438	keystroke_b	b	n/a
67.974	0.15	135948	keystroke_r	r	n/a
68.125	0.194	136250	keystroke_a	a	n/a
68.439	0.135	136878	keystroke_c	c	n/a
68.589	0.09	137178	keystroke_e	e	n/a
68.724	0.09	137448	keystroke_l	l	n/a
69.339	0.09	138678	keystroke_e	e	n/a
69.504	0.075	139008	keystroke_t	t	n/a
69.714	0.135	139428	keystroke_Key.space	Key.space	n/a
69.969	0.075	139938	keystroke_h	h	n/a
70.1785	0.105	140357	keystroke_e	e	n/a
70.1945	0.164	140389	keystroke_l	l	n/a
71.019	0.09	142038	keystroke_p	p	n/a
71.154	0.1345	142308	keystroke_Key.space	Key.space	n/a
71.4985	0.105	142997	keystroke_t	t	n/a
72.459	0.06	144918	keystroke_Key.backspace	Key.backspace	n/a
72.999	0.06	145998	keystroke_'	'	n/a
73.359	0.105	146718	keystroke_t	t	n/a
73.8235	0.09	147647	keystroke_w	w	n/a
73.9885	0.165	147977	keystroke_a	a	n/a
74.1385	0.075	148277	keystroke_s	s	n/a
74.3935	0.075	148787	keystroke_Key.enter	Key.enter	n/a
74.477	8.6485	148954	prompt	n/a	where'd crisis slightly laden\n
75.1595	0.105	150319	keystroke_w	w	n/a
75.3395	0.075	150679	keystroke_h	h	n/a
75.4295	0.12	150859	keystroke_e	e	n/a
75.5495	0.089	151099	keystroke_r	r	n/a
75.6245	0.074	151249	keystroke_e	e	n/a
75.8495	0.09	151699	keystroke_'	'	n/a
75.9535	0.075	151907	keystroke_s	s	n/a
76.4185	0.09	152837	keystroke_Key.backspace	Key.backspace	n/a
76.584	0.12	153168	keystroke_d	d	n/a
76.749	0.12	153498	keystroke_Key.space	Key.space	n/a
77.4395	0.15	154879	keystroke_c	c	n/a
77.7395	0.135	155479	keystroke_r	r	n/a
77.8895	0.06	155779	keystroke_i	i	n/a
78.0395	0.105	156079	keystroke_s	s	n/a
78.1745	0.06	156349	keystroke_i	i	n/a
78.714	0.105	157428	keystroke_Key.space	Key.space	n/a
79.089	0.09	158178	keystroke_s	s	n/a
79.569	0.105	159138	keystroke_Key.backspace	Key.backspace	n/a
79.974	0.075	159948	keystroke_Key.backspace	Key.backspace	n/a
80.109	0.12	160218	keystroke_s	s	n/a
80.334	0.105	160668	keystroke_Key.space	Key.space	n/a
80.814	0.105	161628	keystroke_s	s	n/a
80.964	0.09	161928	keystroke_l	l	n/a
81.129	0.075	162258	keystroke_i	i	n/a
81.234	0.09	162468	keystroke_g	g	n/a
81.369	0.06	162738	keystroke_h	h	n/a
81.474	0.105	162948	keystroke_t	t	n/a
81.684	0.075	163368	keystroke_l	l	n/a
81.879	0.06	163758	keystroke_y	y	n/a
82.014	0.105	164028	keystroke_Key.space	Key.space	n/a
82.254	0.105	164508	keystroke_l	l	n/a
82.389	0.135	164778	keystroke_a	a	n/a
82.539	0.12	165078	keystroke_d	d	n/a
82.764	0.09	165528	keystroke_e	e	n/a
82.869	0.06	165738	keystroke_n	n	n/a
83.094	0.03	166188	keystroke_Key.enter	Key.enter	n/a
83.129	6.6865	166258	prompt	n/a	mounted states situation offense\n
83.859	0.09	167718	keystroke_m	m	n/a
84.009	0.12	168018	keystroke_o	o	n/a
84.144	0.075	168288	keystroke_u	u	n/a
84.324	0.075	168648	keystroke_n	n	n/a
84.444	0.1195	168888	keystroke_t	t	n/a
84.534	0.1195	169068	keystroke_e	e	n/a
84.7735	0.135	169547	keystroke_d	d	n/a
84.9235	0.09	169847	keystroke_Key.space	Key.space	n/a
85.0585	0.15	170117	keystroke_s	s	n/a
85.2395	0.134	170479	keystroke_t	t	n/a
85.3585	0.15	170717	keystroke_a	a	n/a
85.4785	0.1055	170957	keystroke_t	t	n/a
85.4935	0.2105	170987	keystroke_e	e	n/a
85.764	0.135	171528	keystroke_s	s	n/a
85.974	0.105	171948	keystroke_Key.space	Key.space	n/a
86.394	0.12	172788	keystroke_s	s	n/a
86.529	0.06	173058	keystroke_i	i	n/a
87.1135	0.0905	174227	keystroke_t	t	n/a
87.339	0.0605	174678	keystroke_u	u	n/a
87.4145	0.15	174829	keystroke_a	a	n/a
87.5495	0.12	175099	keystroke_t	t	n/a
87.6395	0.21	175279	keystroke_i	i	n/a
87.7745	0.15	175549	keystroke_o	o	n/a
87.9095	0.135	175819	keystroke_n	n	n/a
88.0295	0.135	176059	keystroke_Key.space	Key.space	n/a
88.2095	0.1045	176419	keystroke_o	o	n/a
88.299	0.075	176598	keystroke_f	f	n/a
88.434	0.12	176868	keystroke_f	f	n/a
88.569	0.12	177138	keystroke_e	e	n/a
89.184	0.075	178368	keystroke_n	n	n/a
89.274	0.195	178548	keystroke_s	s	n/a
89.409	0.12	178818	keystroke_e	e	n/a
89.739	0.075	179478	keystroke_Key.enter	Key.enter	n/a
89.819	9.4315	179638	prompt	n/a	emissions prime abstract gauge\n
90.429	0.105	180858	keystroke_e	e	n/a
90.5945	0.075	181189	keystroke_m	m	n/a
90.8045	0.075	181609	keystroke_i	i	n/a
91.374	0.09	182748	keystroke_s	s	n/a
91.569	0.105	183138	keystroke_s	s	n/a
91.734	0.105	183468	keystroke_o	o	n/a
91.899	0.075	183798	keystroke_n	n	n/a
91.989	0.12	183978	keystroke_s	s	n/a
92.124	0.135	184248	keystroke_Key.space	Key.space	n/a
92.409	0.105	184818	keystroke_p	p	n/a
93.384	0.105	186768	keystroke_r	r	n/a
93.7895	0.06	187579	keystroke_i	i	n/a
93.9845	0.09	187969	keystroke_m	m	n/a
94.1195	0.135	188239	keystroke_e	e	n/a
94.2695	0.12	188539	keystroke_Key.space	Key.space	n/a
94.9745	0.165	189949	keystroke_a	a	n/a
95.4245	0.105	190849	keystroke_b	b	n/a
95.6935	0.106	191387	keystroke_s	s	n/a
95.889	0.075	191778	keystroke_t	t	n/a
96.084	0.135	192168	keystroke_r	r	n/a
96.204	0.225	192408	keystroke_a	a	n/a
96.414	0.1205	192828	keystroke_t	t	n/a
97.2545	0.09	194509	keystroke_Key.backspace	Key.backspace	n/a
97.3595	0.105	194719	keystroke_c	c	n/a
97.5995	0.135	195199	keystroke_t	t	n/a
97.7345	0.165	195469	keystroke_Key.space	Key.space	n/a
97.9145	0.12	195829	keystroke_g	g	n/a
98.1395	0.105	196279	keystroke_a	a	n/a
98.4395	0.06	196879	keystroke_u	u	n/a
98.7995	0.105	197599	keystroke_g	g	n/a
98.9795	0.105	197959	keystroke_e	e	n/a
99.1895	0.0595	198379	keystroke_Key.enter	Key.enter	n/a
99.254	7.8415	198508	prompt	n/a	gaming untitled heading bulgaria\n
100.0595	0.09	200119	keystroke_g	g	n/a
100.2235	0.12	200447	keystroke_a	a	n/a
100.3285	0.091	200657	keystroke_m	m	n/a
100.5985	0.076	201197	keystroke_i	i	n/a
100.8095	0.045	201619	keystroke_n	n	n/a
100.8545	0.1195	201709	keystroke_g	g	n/a
100.959	0.12	201918	keystroke_Key.space	Key.space	n/a
101.214	0.06	202428	keystroke_u	u	n/a
101.424	0.06	202848	keystroke_n	n	n/a
101.724	0.09	203448	keystroke_t	t	n/a
102.234	0.045	204468	keystroke_i	i	n/a
103.134	0.09	206268	keystroke_t	t	n/a
103.269	0.0895	206538	keystroke_l	l	n/a
103.3885	0.12	206777	keystroke_e	e	n/a
103.6295	0.135	207259	keystroke_d	d	n/a
103.8095	0.135	207619	keystroke_Key.space	Key.space	n/a
104.2145	0.075	208429	keystroke_h	h	n/a
104.3045	0.135	208609	keystroke_e	e	n/a
104.4095	0.15	208819	keystroke_a	a	n/a
104.5745	0.135	209149	keystroke_d	d	n/a
104.7695	0.075	209539	keystroke_i	i	n/a
104.9495	0.075	209899	keystroke_n	n	n/a
104.9795	0.1045	209959	keystroke_g	g	n/a
105.0695	0.1045	210139	keystroke_Key.space	Key.space	n/a
105.519	0.09	211038	keystroke_b	b	n/a
105.759	0.075	211518	keystroke_u	u	n/a
105.969	0.105	211938	keystroke_l	l	n/a
106.209	0.075	212418	keystroke_g	g	n/a
106.344	0.18	212688	keystroke_a	a	n/a
106.509	0.1195	213018	keystroke_r	r	n/a
106.6435	0.135	213287	keystroke_a	a	n/a
107.0335	0.06	214067	keystroke_Key.enter	Key.enter	n/a
107.0985	6.372	214197	prompt	n/a	protest tune homes carriers\n
107.7545	0.0895	215509	keystroke_p	p	n/a
107.904	0.075	215808	keystroke_r	r	n/a
107.964	0.105	215928	keystroke_o	o	n/a
108.1145	0.1345	216229	keystroke_t	t	n/a
108.2045	0.1945	216409	keystroke_e	e	n/a
108.414	0.1805	216828	keystroke_s	s	n/a
108.5795	0.15	217159	keystroke_t	t	n/a
108.7145	0.12	217429	keystroke_Key.space	Key.space	n/a
109.1045	0.12	218209	keystroke_t	t	n/a
109.2995	0.06	218599	keystroke_u	u	n/a
109.4945	0.075	218989	keystroke_n	n	n/a
109.5845	0.12	219169	keystroke_e	e	n/a
109.7495	0.135	219499	keystroke_Key.space	Key.space	n/a
110.1695	0.09	220339	keystroke_h	h	n/a
110.2895	0.12	220579	keystroke_o	o	n/a
110.4695	0.1045	220939	keystroke_m	m	n/a
110.559	0.18	221118	keystroke_e	e	n/a
110.709	0.18	221418	keystroke_s	s	n/a
110.889	0.12	221778	keystroke_Key.space	Key.space	n/a
111.339	0.105	222678	keystroke_c	c	n/a
111.579	0.0905	223158	keystroke_r	r	n/a
112.194	0.09	224388	keystroke_Key.backspace	Key.backspace	n/a
112.344	0.135	224688	keystroke_a	a	n/a
112.494	0.075	224988	keystroke_r	r	n/a
112.7495	0.015	225499	keystroke_r	r	n/a
112.7945	0.0895	225589	keystroke_i	i	n/a
112.929	0.165	225858	keystroke_e	e	n/a
113.019	0.12	226038	keystroke_r	r	n/a
113.244	0.09	226488	keystroke_s	s	n/a
113.409	0.06	226818	keystroke_Key.enter	Key.enter	n/a
113.4745	10.8565	226949	prompt	n/a	veterinary publisher refund phases\n
114.3245	0.12	228649	keystroke_v	v	n/a
114.5795	0.105	229159	keystroke_e	e	n/a
114.8195	0.12	229639	keystroke_t	t	n/a
114.9545	0.18	229909	keystroke_e	e	n/a
115.0895	0.135	230179	keystroke_r	r	n/a
115.4645	0.09	230929	keystroke_i	i	n/a
115.9295	0.06	231859	keystroke_n	n	n/a
116.2895	0.135	232579	keystroke_a	a	n/a
116.4395	0.09	232879	keystroke_r	r	n/a
116.724	0.06	233448	keystroke_y	y	n/a
116.874	0.12	233748	keystroke_Key.space	Key.space	n/a
117.339	0.09	234678	keystroke_p	p	n/a
117.504	0.075	235008	keystroke_u	u	n/a
117.744	0.12	235488	keystroke_b	b	n/a
118.389	0.075	236778	keystroke_l	l	n/a
118.569	0.075	237138	keystroke_i	i	n/a
118.689	0.165	237378	keystroke_s	s	n/a
118.974	0.03	237948	keystroke_h	h	n/a
119.049	0.09	238098	keystroke_e	e	n/a
119.9785	0.075	239957	keystroke_Key.backspace	Key.backspace	n/a
120.5045	0.1195	241009	keystroke_e	e	n/a
120.684	0.105	241368	keystroke_r	r	n/a
120.894	0.105	241788	keystroke_Key.space	Key.space	n/a
121.374	0.09	242748	keystroke_r	r	n/a
121.419	0.12	242838	keystroke_e	e	n/a
121.644	0.135	243288	keystroke_f	f	n/a
121.794	0.06	243588	keystroke_u	u	n/a
121.989	0.075	243978	keystroke_n	n	n/a
122.079	0.15	244158	keystroke_d	d	n/a
122.244	0.09	244488	keystroke_Key.space	Key.space	n/a
122.6795	0.0895	245359	keystroke_p	p	n/a
122.874	0.075	245748	keystroke_h	h	n/a
123.024	0.135	246048	keystroke_a	a	n/a
123.174	0.12	246348	keystroke_s	s	n/a
123.669	0.15	247338	keystroke_e	e	n/a
123.834	0.1205	247668	keystroke_s	s	n/a
124.2395	0.0895	248479	keystroke_Key.enter	Key.enter	n/a
124.334	6.0865	248668	prompt	n/a	deck crucial discharge julian\n
124.884	0.06	249768	keystroke_d	d	n/a
125.049	0.09	250098	keystroke_e	e	n/a
125.229	0.135	250458	keystroke_c	c	n/a
125.379	0.105	250758	keystroke_k	k	n/a
125.469	0.105	250938	keystroke_Key.space	Key.space	n/a
125.694	0.12	251388	keystroke_c	c	n/a
125.949	0.12	251898	keystroke_r	r	n/a
126.114	0.075	252228	keystroke_u	u	n/a
126.519	0.135	253038	keystroke_c	c	n/a
126.639	0.075	253278	keystroke_i	i	n/a
126.759	0.12	253518	keystroke_a	a	n/a
126.849	0.105	253698	keystroke_l	l	n/a
126.954	0.12	253908	keystroke_Key.space	Key.space	n/a
127.179	0.09	254358	keystroke_d	d	n/a
127.329	0.09	254658	keystroke_i	i	n/a
127.434	0.12	254868	keystroke_s	s	n/a
127.764	0.18	255528	keystroke_c	c	n/a
127.959	0.075	255918	keystroke_h	h	n/a
128.169	0.15	256338	keystroke_a	a	n/a
128.32	0.1195	256640	keystroke_r	r	n/a
128.619	0.12	257238	keystroke_g	g	n/a
128.74	0.134	257480	keystroke_e	e	n/a
128.859	0.12	257718	keystroke_Key.space	Key.space	n/a
129.159	0.0755	258318	keystroke_j	j	n/a
129.5345	0.06	259069	keystroke_u	u	n/a
129.7445	0.105	259489	keystroke_l	l	n/a
129.9395	0.06	259879	keystroke_i	i	n/a
130.0445	0.135	260089	keystroke_a	a	n/a
130.1645	0.06	260329	keystroke_n	n	n/a
130.3745	0.045	260749	keystroke_Key.enter	Key.enter	n/a
130.4235	6.117	260847	prompt	n/a	consumer monkey clay reporting\n
131.0795	0.1495	262159	keystroke_c	c	n/a
131.214	0.135	262428	keystroke_o	o	n/a
131.364	0.076	262728	keystroke_n	n	n/a
131.424	0.1205	262848	keystroke_s	s	n/a
131.5745	0.06	263149	keystroke_u	u	n/a
131.7695	0.075	263539	keystroke_m	m	n/a
131.8895	0.09	263779	keystroke_e	e	n/a
131.9495	0.12	263899	keystroke_r	r	n/a
132.0845	0.135	264169	keystroke_Key.space	Key.space	n/a
132.3395	0.12	264679	keystroke_m	m	n/a
132.4895	0.135	264979	keystroke_o	o	n/a
132.6395	0.075	265279	keystroke_n	n	n/a
133.1795	0.075	266359	keystroke_k	k	n/a
133.2845	0.09	266569	keystroke_e	e	n/a
133.4495	0.06	266899	keystroke_y	y	n/a
133.5545	0.105	267109	keystroke_Key.space	Key.space	n/a
134.1095	0.135	268219	keystroke_c	c	n/a
134.2595	0.1045	268519	keystroke_l	l	n/a
134.379	0.12	268758	keystroke_a	a	n/a
134.574	0.075	269148	keystroke_y	y	n/a
134.799	0.09	269598	keystroke_Key.space	Key.space	n/a
135.219	0.135	270438	keystroke_r	r	n/a
135.324	0.105	270648	keystroke_e	e	n/a
135.504	0.075	271008	keystroke_p	p	n/a
135.639	0.135	271278	keystroke_o	o	n/a
135.699	0.105	271398	keystroke_r	r	n/a
135.894	0.075	271788	keystroke_t	t	n/a
136.014	0.09	272028	keystroke_i	i	n/a
136.239	0.045	272478	keystroke_n	n	n/a
136.285	0.089	272570	keystroke_g	g	n/a
136.479	0.06	272958	keystroke_Key.enter	Key.enter	n/a
136.544	7.767	273088	prompt	n/a	expression raymond temporal phases\n
137.154	0.06	274308	keystroke_e	e	n/a
137.349	0.105	274698	keystroke_x	x	n/a
137.514	0.09	275028	keystroke_p	p	n/a
137.605	0.135	275210	keystroke_r	r	n/a
137.694	0.135	275388	keystroke_e	e	n/a
137.859	0.121	275718	keystroke_s	s	n/a
138.054	0.09	276108	keystroke_s	s	n/a
138.159	0.135	276318	keystroke_i	i	n/a
138.249	0.165	276498	keystroke_o	o	n/a
138.429	0.105	276858	keystroke_n	n	n/a
138.519	0.1205	277038	keystroke_Key.space	Key.space	n/a
138.8045	0.1345	277609	keystroke_r	r	n/a
138.954	0.15	277908	keystroke_a	a	n/a
139.164	0.075	278328	keystroke_y	y	n/a
139.389	0.105	278778	keystroke_m	m	n/a
139.524	0.135	279048	keystroke_o	o	n/a
139.914	0.075	279828	keystroke_n	n	n/a
140.019	0.15	280038	keystroke_d	d	n/a
140.184	0.09	280368	keystroke_Key.space	Key.space	n/a
140.469	0.075	280938	keystroke_t	t	n/a
140.694	0.12	281388	keystroke_e	e	n/a
140.919	0.09	281838	keystroke_m	m	n/a
141.189	0.09	282378	keystroke_p	p	n/a
141.354	0.12	282708	keystroke_o	o	n/a
141.519	0.075	283038	keystroke_r	r	n/a
141.639	0.135	283278	keystroke_a	a	n/a
141.909	0.075	283818	keystroke_l	l	n/a
142.689	0.1345	285378	keystroke_Key.space	Key.space	n/a
143.184	0.075	286368	keystroke_p	p	n/a
143.319	0.105	286638	keystroke_h	h	n/a
143.514	0.135	287028	keystroke_a	a	n/a
143.664	0.135	287328	keystroke_s	s	n/a
143.829	0.18	287658	keystroke_e	e	n/a
143.979	0.135	287958	keystroke_s	s	n/a
144.264	0.045	288528	keystroke_Key.enter	Key.enter	n/a
144.3135	6.0575	288627	prompt	n/a	triple beat journals bracket\n
144.984	0.0905	289968	keystroke_t	t	n/a
145.1645	0.09	290329	keystroke_r	r	n/a
145.4195	0.12	290839	keystroke_i	i	n/a
145.6595	0.06	291319	keystroke_p	p	n/a
145.8395	0.135	291679	keystroke_l	l	n/a
145.9595	0.105	291919	keystroke_e	e	n/a
146.1245	0.15	292249	keystroke_Key.space	Key.space	n/a
146.4845	0.0745	292969	keystroke_b	b	n/a
146.664	0.15	293328	keystroke_e	e	n/a
146.769	0.15	293538	keystroke_a	a	n/a
146.889	0.135	293778	keystroke_t	t	n/a
147.069	0.135	294138	keystroke_Key.space	Key.space	n/a
147.25	0.074	294500	keystroke_j	j	n/a
147.399	0.135	294798	keystroke_o	o	n/a
147.519	0.09	295038	keystroke_u	u	n/a
147.819	0.09	295638	keystroke_r	r	n/a
148.044	0.075	296088	keystroke_n	n	n/a
148.149	0.121	296298	keystroke_a	a	n/a
148.254	0.105	296508	keystroke_l	l	n/a
148.389	0.135	296778	keystroke_s	s	n/a
148.554	0.12	297108	keystroke_Key.space	Key.space	n/a
148.839	0.09	297678	keystroke_b	b	n/a
149.094	0.135	298188	keystroke_r	r	n/a
149.215	0.194	298430	keystroke_a	a	n/a
149.469	0.12	298938	keystroke_c	c	n/a
149.814	0.105	299628	keystroke_k	k	n/a
149.934	0.135	299868	keystroke_e	e	n/a
150.099	0.105	300198	keystroke_t	t	n/a
150.309	0.06	300618	keystroke_Key.enter	Key.enter	n/a
150.3735	6.3125	300747	prompt	n/a	tied kills body governance\n
151.0145	0.075	302029	keystroke_t	t	n/a
151.1645	0.105	302329	keystroke_i	i	n/a
151.2545	0.105	302509	keystroke_e	e	n/a
151.4645	0.119	302929	keystroke_d	d	n/a
151.5685	0.106	303137	keystroke_Key.space	Key.space	n/a
151.9895	0.09	303979	keystroke_k	k	n/a
152.1995	0.06	304399	keystroke_i	i	n/a
152.679	0.06	305358	keystroke_l	l	n/a
152.829	0.075	305658	keystroke_l	l	n/a
153.009	0.075	306018	keystroke_s	s	n/a
153.504	0.105	307008	keystroke_Key.space	Key.space	n/a
153.8345	0.12	307669	keystroke_b	b	n/a
153.9845	0.09	307969	keystroke_o	o	n/a
154.0745	0.105	308149	keystroke_d	d	n/a
154.2545	0.075	308509	keystroke_y	y	n/a
154.3445	0.105	308689	keystroke_Key.space	Key.space	n/a
154.5695	0.09	309139	keystroke_g	g	n/a
154.6745	0.09	309349	keystroke_o	o	n/a
154.7945	0.105	309589	keystroke_v	v	n/a
155.0195	0.2095	310039	keystroke_e	e	n/a
155.184	0.135	310368	keystroke_r	r	n/a
155.454	0.075	310908	keystroke_n	n	n/a
155.934	0.135	311868	keystroke_a	a	n/a
156.084	0.06	312168	keystroke_n	n	n/a
156.309	0.165	312618	keystroke_c	c	n/a
156.444	0.12	312888	keystroke_e	e	n/a
156.624	0.06	313248	keystroke_Key.enter	Key.enter	n/a
156.69	9.101	313380	prompt	n/a	raises supplement research while\n
157.389	0.105	314778	keystroke_r	r	n/a
157.884	0.105	315768	keystroke_a	a	n/a
158.019	0.0755	316038	keystroke_i	i	n/a
158.169	0.195	316338	keystroke_s	s	n/a
158.349	0.165	316698	keystroke_e	e	n/a
158.5895	0.12	317179	keystroke_s	s	n/a
158.9345	0.195	317869	keystroke_s	s	n/a
159.564	0.075	319128	keystroke_Key.backspace	Key.backspace	n/a
159.729	0.105	319458	keystroke_Key.space	Key.space	n/a
159.849	0.105	319698	keystroke_s	s	n/a
159.984	0.075	319968	keystroke_u	u	n/a
160.224	0.045	320448	keystroke_p	p	n/a
160.359	0.075	320718	keystroke_p	p	n/a
160.494	0.12	320988	keystroke_l	l	n/a
160.659	0.12	321318	keystroke_e	e	n/a
160.854	0.0755	321708	keystroke_m	m	n/a
160.9445	0.135	321889	keystroke_e	e	n/a
161.0645	0.06	322129	keystroke_n	n	n/a
161.1545	0.135	322309	keystroke_t	t	n/a
161.3045	0.165	322609	keystroke_Key.space	Key.space	n/a
161.7685	0.1355	323537	keystroke_r	r	n/a
161.8435	0.1665	323687	keystroke_e	e	n/a
161.964	0.271	323928	keystroke_a	a	n/a
163.6135	0.0605	327227	keystroke_Key.backspace	Key.backspace	n/a
163.8245	0.1345	327649	keystroke_s	s	n/a
163.9435	0.286	327887	keystroke_e	e	n/a
164.0785	0.1365	328157	keystroke_a	a	n/a
164.2	0.1495	328400	keystroke_r	r	n/a
164.514	0.15	329028	keystroke_c	c	n/a
164.649	0.075	329298	keystroke_h	h	n/a
164.769	0.105	329538	keystroke_Key.space	Key.space	n/a
164.979	0.1355	329958	keystroke_w	w	n/a
165.0995	0.09	330199	keystroke_h	h	n/a
165.2045	0.15	330409	keystroke_i	i	n/a
165.3395	0.12	330679	keystroke_l	l	n/a
165.5045	0.105	331009	keystroke_e	e	n/a
165.7445	0.045	331489	keystroke_Key.enter	Key.enter	n/a
165.7935	9.3425	331587	prompt	n/a	shade bold describes claimed\n
166.479	0.1355	332958	keystroke_a	a	n/a
167.1995	0.09	334399	keystroke_h	h	n/a
167.739	0.105	335478	keystroke_Key.backspace	Key.backspace	n/a
168.174	0.075	336348	keystroke_Key.backspace	Key.backspace	n/a
168.444	0.105	336888	keystroke_s	s	n/a
168.729	0.075	337458	keystroke_h	h	n/a
168.849	0.135	337698	keystroke_a	a	n/a
169.044	0.09	338088	keystroke_d	d	n/a
169.224	0.105	338448	keystroke_e	e	n/a
169.434	0.135	338868	keystroke_Key.space	Key.space	n/a
169.854	0.12	339708	keystroke_b	b	n/a
170.0045	0.09	340009	keystroke_o	o	n/a
170.2145	0.06	340429	keystroke_l	l	n/a
170.4995	0.15	340999	keystroke_d	d	n/a
170.6345	0.165	341269	keystroke_Key.space	Key.space	n/a
171.2645	0.105	342529	keystroke_d	d	n/a
171.445	0.119	342890	keystroke_e	e	n/a
171.744	0.12	343488	keystroke_s	s	n/a
171.969	0.09	343938	keystroke_c	c	n/a
172.209	0.09	344418	keystroke_r	r	n/a
172.284	0.09	344568	keystroke_i	i	n/a
172.4495	0.105	344899	keystroke_b	b	n/a
172.644	0.1805	345288	keystroke_e	e	n/a
172.779	0.1505	345558	keystroke_s	s	n/a
172.9145	0.135	345829	keystroke_Key.space	Key.space	n/a
173.3045	0.12	346609	keystroke_c	c	n/a
173.4995	0.105	346999	keystroke_l	l	n/a
173.6645	0.135	347329	keystroke_a	a	n/a
174.1295	0.075	348259	keystroke_i	i	n/a
174.3545	0.075	348709	keystroke_m	m	n/a
174.6695	0.075	349339	keystroke_e	e	n/a
174.8645	0.09	349729	keystroke_d	d	n/a
175.0745	0.06	350149	keystroke_Key.enter	Key.enter	n/a
175.1385	10.8125	350277	prompt	n/a	stephen aurora arts dream\n
175.7645	0.1355	351529	keystroke_s	s	n/a
176.4695	0.0755	352939	keystroke_t	t	n/a
176.635	0.105	353270	keystroke_e	e	n/a
176.875	0.09	353750	keystroke_p	p	n/a
177.07	0.075	354140	keystroke_h	h	n/a
177.219	0.121	354438	keystroke_e	e	n/a
177.369	0.076	354738	keystroke_n	n	n/a
177.519	0.09	355038	keystroke_Key.space	Key.space	n/a
177.82	0.135	355640	keystroke_a	a	n/a
178.03	0.09	356060	keystroke_u	u	n/a
178.195	0.104	356390	keystroke_r	r	n/a
178.449	0.091	356898	keystroke_o	o	n/a
178.6445	0.165	357289	keystroke_a	a	n/a
178.8395	0.1495	357679	keystroke_Key.space	Key.space	n/a
179.8595	0.045	359719	keystroke_Key.backspace	Key.backspace	n/a
180.8195	0.075	361639	keystroke_Key.backspace	Key.backspace	n/a
181.194	0.075	362388	keystroke_Key.backspace	Key.backspace	n/a
181.809	0.105	363618	keystroke_o	o	n/a
182.0795	0.135	364159	keystroke_r	r	n/a
182.1995	0.18	364399	keystroke_a	a	n/a
182.3645	0.165	364729	keystroke_Key.space	Key.space	n/a
182.9795	0.15	365959	keystroke_a	a	n/a
183.1295	0.12	366259	keystroke_r	r	n/a
183.4745	0.1195	366949	keystroke_s	s	n/a
183.984	0.09	367968	keystroke_Key.backspace	Key.backspace	n/a
184.149	0.09	368298	keystroke_t	t	n/a
184.329	0.165	368658	keystroke_s	s	n/a
184.509	0.165	369018	keystroke_Key.space	Key.space	n/a
185.185	0.09	370370	keystroke_d	d	n/a
185.365	0.12	370730	keystroke_r	r	n/a
185.44	0.165	370880	keystroke_e	e	n/a
185.56	0.135	371120	keystroke_a	a	n/a
185.695	0.09	371390	keystroke_m	m	n/a
185.9045	0.045	371809	keystroke_Key.enter	Key.enter	n/a
185.9545	7.8265	371909	prompt	n/a	stylus lady vinyl specialty\n
186.5645	0.135	373129	keystroke_s	s	n/a
186.7145	0.105	373429	keystroke_t	t	n/a
186.9395	0.06	373879	keystroke_y	y	n/a
187.1945	0.0895	374389	keystroke_l	l	n/a
187.359	0.06	374718	keystroke_u	u	n/a
187.494	0.135	374988	keystroke_s	s	n/a
187.614	0.15	375228	keystroke_Key.space	Key.space	n/a
187.794	0.1205	375588	keystroke_l	l	n/a
187.8995	0.135	375799	keystroke_a	a	n/a
188.0345	0.12	376069	keystroke_d	d	n/a
188.2445	0.075	376489	keystroke_y	y	n/a
188.3645	0.15	376729	keystroke_Key.space	Key.space	n/a
188.7245	0.12	377449	keystroke_v	v	n/a
188.8595	0.09	377719	keystroke_i	i	n/a
189.0395	0.06	378079	keystroke_n	n	n/a
189.4895	0.09	378979	keystroke_y	y	n/a
189.7145	0.09	379429	keystroke_l	l	n/a
189.9245	0.105	379849	keystroke_Key.space	Key.space	n/a
190.3745	0.12	380749	keystroke_s	s	n/a
190.5395	0.075	381079	keystroke_p	p	n/a
190.6295	0.18	381259	keystroke_e	e	n/a
191.0495	0.06	382099	keystroke_i	i	n/a
191.5445	0.075	383089	keystroke_Key.backspace	Key.backspace	n/a
192.5495	0.12	385099	keystroke_c	c	n/a
192.7145	0.06	385429	keystroke_i	i	n/a
192.8945	0.12	385789	keystroke_a	a	n/a
193.0445	0.0905	386089	keystroke_l	l	n/a
193.3145	0.075	386629	keystroke_t	t	n/a
193.45	0.06	386900	keystroke_y	y	n/a
193.72	0.059	387440	keystroke_Key.enter	Key.enter	n/a
193.784	9.612	387568	prompt	n/a	advance long trusts yugoslavia\n
194.3945	0.105	388789	keystroke_a	a	n/a
194.6645	0.105	389329	keystroke_d	d	n/a
194.9195	0.135	389839	keystroke_v	v	n/a
195.5045	0.135	391009	keystroke_a	a	n/a
195.6245	0.075	391249	keystroke_n	n	n/a
195.7895	0.135	391579	keystroke_c	c	n/a
195.8945	0.15	391789	keystroke_e	e	n/a
196.0895	0.15	392179	keystroke_Key.space	Key.space	n/a
196.3295	0.09	392659	keystroke_l	l	n/a
196.5395	0.09	393079	keystroke_o	o	n/a
196.8245	0.076	393649	keystroke_n	n	n/a
196.9595	0.165	393919	keystroke_g	g	n/a
197.0945	0.15	394189	keystroke_Key.space	Key.space	n/a
197.6495	0.09	395299	keystroke_t	t	n/a
197.8595	0.09	395719	keystroke_r	r	n/a
197.9945	0.075	395989	keystroke_u	u	n/a
198.1145	0.18	396229	keystroke_s	s	n/a
198.2795	0.165	396559	keystroke_t	t	n/a
198.4595	0.135	396919	keystroke_s	s	n/a
198.6695	0.15	397339	keystroke_Key.space	Key.space	n/a
199.1345	0.075	398269	keystroke_y	y	n/a
199.5245	0.06	399049	keystroke_u	u	n/a
199.8095	0.135	399619	keystroke_g	g	n/a
200.6945	0.0895	401389	keystroke_o	o	n/a
201.339	0.1205	402678	keystroke_s	s	n/a
201.5795	0.09	403159	keystroke_l	l	n/a
202.629	0.12	405258	keystroke_a	a	n/a
202.84	0.135	405680	keystroke_v	v	n/a
203.0195	0.09	406039	keystroke_i	i	n/a
203.1395	0.1355	406279	keystroke_a	a	n/a
203.35	0.0445	406700	keystroke_Key.enter	Key.enter	n/a
203.399	5.8625	406798	prompt	n/a	guru adam dublin when\n
204.2645	0.12	408529	keystroke_g	g	n/a
204.6845	0.09	409369	keystroke_u	u	n/a
204.9095	0.09	409819	keystroke_r	r	n/a
205.419	0.075	410838	keystroke_u	u	n/a
205.569	0.15	411138	keystroke_Key.space	Key.space	n/a
205.87	0.119	411740	keystroke_a	a	n/a
206.02	0.134	412040	keystroke_d	d	n/a
206.199	0.165	412398	keystroke_a	a	n/a
206.334	0.09	412668	keystroke_m	m	n/a
206.439	0.12	412878	keystroke_Key.space	Key.space	n/a
206.934	0.12	413868	keystroke_d	d	n/a
207.1595	0.075	414319	keystroke_u	u	n/a
207.3995	0.135	414799	keystroke_b	b	n/a
207.564	0.09	415128	keystroke_l	l	n/a
207.759	0.0755	415518	keystroke_i	i	n/a
208.3295	0.045	416659	keystroke_n	n	n/a
208.4645	0.09	416929	keystroke_Key.space	Key.space	n/a
208.6295	0.12	417259	keystroke_w	w	n/a
208.7645	0.06	417529	keystroke_h	h	n/a
208.8845	0.12	417769	keystroke_e	e	n/a
208.9595	0.075	417919	keystroke_n	n	n/a
209.1995	0.06	418399	keystroke_Key.enter	Key.enter	n/a
209.265	7.301	418530	prompt	n/a	ruling specialty includes noon\n
210.1295	0.105	420259	keystroke_r	r	n/a
210.2795	0.09	420559	keystroke_u	u	n/a
210.4595	0.1195	420919	keystroke_l	l	n/a
210.609	0.075	421218	keystroke_i	i	n/a
210.789	0.076	421578	keystroke_n	n	n/a
210.879	0.1205	421758	keystroke_g	g	n/a
210.969	0.1355	421938	keystroke_Key.space	Key.space	n/a
211.224	0.1355	422448	keystroke_s	s	n/a
211.4495	0.09	422899	keystroke_p	p	n/a
211.5545	0.135	423109	keystroke_e	e	n/a
212.109	0.105	424218	keystroke_c	c	n/a
212.319	0.076	424638	keystroke_i	i	n/a
212.425	0.1345	424850	keystroke_a	a	n/a
212.5745	0.09	425149	keystroke_l	l	n/a
212.9945	0.09	425989	keystroke_t	t	n/a
213.0995	0.075	426199	keystroke_y	y	n/a
213.3095	0.135	426619	keystroke_Key.space	Key.space	n/a
213.865	0.045	427730	keystroke_i	i	n/a
214.03	0.075	428060	keystroke_n	n	n/a
214.18	0.135	428360	keystroke_c	c	n/a
214.614	0.09	429228	keystroke_l	l	n/a
214.779	0.061	429558	keystroke_u	u	n/a
214.9	0.089	429800	keystroke_d	d	n/a
215.1095	0.105	430219	keystroke_e	e	n/a
215.364	0.135	430728	keystroke_s	s	n/a
215.544	0.15	431088	keystroke_Key.space	Key.space	n/a
215.814	0.06	431628	keystroke_n	n	n/a
215.9645	0.06	431929	keystroke_o	o	n/a
216.084	0.1355	432168	keystroke_o	o	n/a
216.2345	0.06	432469	keystroke_n	n	n/a
216.5045	0.06	433009	keystroke_Key.enter	Key.enter	n/a
216.569	11.0375	433138	prompt	n/a	baskets mexico deals charging\n
217.1795	0.15	434359	keystroke_b	b	n/a
217.3595	0.1355	434719	keystroke_a	a	n/a
217.51	0.15	435020	keystroke_s	s	n/a
217.675	0.105	435350	keystroke_k	k	n/a
217.81	0.165	435620	keystroke_e	e	n/a
217.96	0.12	435920	keystroke_t	t	n/a
218.485	0.0895	436970	keystroke_s	s	n/a
218.6345	0.135	437269	keystroke_Key.space	Key.space	n/a
219.0845	0.12	438169	keystroke_m	m	n/a
219.1895	0.12	438379	keystroke_e	e	n/a
219.8195	0.135	439639	keystroke_c	c	n/a
220.0145	0.045	440029	keystroke_i	i	n/a
220.2245	0.12	440449	keystroke_c	c	n/a
220.3295	0.09	440659	keystroke_o	o	n/a
220.4495	0.135	440899	keystroke_Key.space	Key.space	n/a
221.0495	0.075	442099	keystroke_Key.backspace	Key.backspace	n/a
221.4695	0.06	442939	keystroke_Key.backspace	Key.backspace	n/a
221.8595	0.09	443719	keystroke_Key.backspace	Key.backspace	n/a
222.3095	0.09	444619	keystroke_Key.backspace	Key.backspace	n/a
222.745	0.075	445490	keystroke_Key.backspace	Key.backspace	n/a
223.225	0.09	446450	keystroke_x	x	n/a
223.554	0.091	447108	keystroke_i	i	n/a
223.689	0.121	447378	keystroke_c	c	n/a
223.839	0.09	447678	keystroke_o	o	n/a
223.944	0.1355	447888	keystroke_Key.space	Key.space	n/a
224.7095	0.075	449419	keystroke_d	d	n/a
224.8745	0.135	449749	keystroke_e	e	n/a
224.9795	0.165	449959	keystroke_a	a	n/a
225.3695	0.15	450739	keystroke_l	l	n/a
225.5345	0.12	451069	keystroke_s	s	n/a
225.6695	0.165	451339	keystroke_Key.space	Key.space	n/a
225.9395	0.1505	451879	keystroke_c	c	n/a
226.135	0.03	452270	keystroke_h	h	n/a
226.21	0.21	452420	keystroke_a	a	n/a
226.375	0.105	452750	keystroke_r	r	n/a
226.6145	0.09	453229	keystroke_g	g	n/a
226.7195	0.075	453439	keystroke_i	i	n/a
226.8995	0.105	453799	keystroke_n	n	n/a
227.0195	0.075	454039	keystroke_g	g	n/a
227.5145	0.09	455029	keystroke_Key.enter	Key.enter	n/a
227.609	8.502	455218	prompt	n/a	fantasy imagination corrected periodic\n
228.3695	0.12	456739	keystroke_f	f	n/a
228.5195	0.1805	457039	keystroke_a	a	n/a
228.64	0.075	457280	keystroke_n	n	n/a
228.79	0.12	457580	keystroke_t	t	n/a
228.925	0.195	457850	keystroke_a	a	n/a
229.15	0.135	458300	keystroke_s	s	n/a
229.405	0.06	458810	keystroke_y	y	n/a
229.54	0.12	459080	keystroke_Key.space	Key.space	n/a
229.69	0.075	459380	keystroke_i	i	n/a
229.885	0.075	459770	keystroke_m	m	n/a
230.68	0.15	461360	keystroke_a	a	n/a
231.19	0.09	462380	keystroke_g	g	n/a
231.385	0.09	462770	keystroke_i	i	n/a
231.58	0.075	463160	keystroke_n	n	n/a
231.73	0.195	463460	keystroke_a	a	n/a
231.91	0.105	463820	keystroke_t	t	n/a
232	0.195	464000	keystroke_i	i	n/a
232.12	0.21	464240	keystroke_o	o	n/a
232.3	0.105	464600	keystroke_n	n	n/a
232.495	0.1045	464990	keystroke_Key.space	Key.space	n/a
232.7495	0.1355	465499	keystroke_c	c	n/a
233.02	0.12	466040	keystroke_o	o	n/a
233.185	0.06	466370	keystroke_r	r	n/a
233.425	0.03	466850	keystroke_r	r	n/a
233.44	0.12	466880	keystroke_e	e	n/a
233.65	0.12	467300	keystroke_c	c	n/a
233.875	0.15	467750	keystroke_t	t	n/a
233.98	0.135	467960	keystroke_e	e	n/a
234.2195	0.12	468439	keystroke_d	d	n/a
234.3395	0.105	468679	keystroke_Key.space	Key.space	n/a
234.5345	0.0895	469069	keystroke_p	p	n/a
234.639	0.196	469278	keystroke_e	e	n/a
234.745	0.1645	469490	keystroke_r	r	n/a
235.149	0.075	470298	keystroke_i	i	n/a
235.3595	0.09	470719	keystroke_o	o	n/a
235.5095	0.105	471019	keystroke_d	d	n/a
235.6595	0.09	471319	keystroke_i	i	n/a
235.7795	0.12	471559	keystroke_c	c	n/a
236.0345	0.075	472069	keystroke_Key.enter	Key.enter	n/a
236.114	8.517	472228	prompt	n/a	objective why'd largely solid\n
236.92	0.105	473840	keystroke_o	o	n/a
237.055	0.15	474110	keystroke_b	b	n/a
237.325	0.075	474650	keystroke_j	j	n/a
237.55	0.135	475100	keystroke_e	e	n/a
237.82	0.09	475640	keystroke_c	c	n/a
238.06	0.09	476120	keystroke_t	t	n/a
238.4495	0.075	476899	keystroke_i	i	n/a
238.5395	0.12	477079	keystroke_v	v	n/a
238.7645	0.135	477529	keystroke_e	e	n/a
238.9145	0.105	477829	keystroke_Key.space	Key.space	n/a
239.1245	0.105	478249	keystroke_w	w	n/a
239.2145	0.075	478429	keystroke_h	h	n/a
239.6195	0.075	479239	keystroke_y	y	n/a
240.3245	0.105	480649	keystroke_'	'	n/a
240.5345	0.105	481069	keystroke_d	d	n/a
240.7745	0.135	481549	keystroke_Key.space	Key.space	n/a
241.3145	0.12	482629	keystroke_l	l	n/a
241.5245	0.165	483049	keystroke_a	a	n/a
241.6295	0.105	483259	keystroke_r	r	n/a
241.9595	0.03	483919	keystroke_g	g	n/a
242.11	0.119	484220	keystroke_e	e	n/a
242.305	0.1045	484610	keystroke_l	l	n/a
242.5145	0.06	485029	keystroke_y	y	n/a
242.6345	0.105	485269	keystroke_Key.space	Key.space	n/a
242.7995	0.135	485599	keystroke_s	s	n/a
243.0095	0.075	486019	keystroke_o	o	n/a
244.0295	0.09	488059	keystroke_l	l	n/a
244.2095	0.075	488419	keystroke_i	i	n/a
244.3295	0.105	488659	keystroke_d	d	n/a
244.5545	0.075	489109	keystroke_Key.enter	Key.enter	n/a
244.6355	7.736	489271	prompt	n/a	blade meaning legal entrepreneur\n
245.575	0.1205	491150	keystroke_b	b	n/a
245.7555	0.089	491511	keystroke_l	l	n/a
245.8295	0.136	491659	keystroke_a	a	n/a
245.9795	0.135	491959	keystroke_d	d	n/a
246.1895	0.091	492379	keystroke_e	e	n/a
246.3695	0.15	492739	keystroke_Key.space	Key.space	n/a
246.7595	0.09	493519	keystroke_m	m	n/a
246.8195	0.18	493639	keystroke_e	e	n/a
246.9545	0.15	493909	keystroke_a	a	n/a
247.0295	0.06	494059	keystroke_n	n	n/a
247.1645	0.09	494329	keystroke_i	i	n/a
247.3595	0.075	494719	keystroke_n	n	n/a
247.4495	0.105	494899	keystroke_g	g	n/a
247.5545	0.135	495109	keystroke_Key.space	Key.space	n/a
248.0645	0.105	496129	keystroke_l	l	n/a
248.1855	0.12	496371	keystroke_e	e	n/a
248.3795	0.121	496759	keystroke_g	g	n/a
248.4855	0.15	496971	keystroke_a	a	n/a
248.6195	0.09	497239	keystroke_l	l	n/a
248.7245	0.135	497449	keystroke_Key.space	Key.space	n/a
249.2495	0.105	498499	keystroke_e	e	n/a
249.4445	0.09	498889	keystroke_n	n	n/a
249.5645	0.105	499129	keystroke_t	t	n/a
249.8345	0.195	499669	keystroke_r	r	n/a
250.0145	0.12	500029	keystroke_e	e	n/a
250.3295	0.12	500659	keystroke_p	p	n/a
250.5845	0.165	501169	keystroke_r	r	n/a
250.7505	0.134	501501	keystroke_e	e	n/a
251.0645	0.09	502129	keystroke_n	n	n/a
251.5895	0.105	503179	keystroke_e	e	n/a
251.9495	0.09	503899	keystroke_u	u	n/a
252.0995	0.06	504199	keystroke_r	r	n/a
252.3095	0.06	504619	keystroke_Key.enter	Key.enter	n/a
252.3735	6.193	504747	prompt	n/a	insider blades inside pioneer\n
252.9695	0.075	505939	keystroke_i	i	n/a
253.1495	0.0755	506299	keystroke_n	n	n/a
253.2395	0.12	506479	keystroke_s	s	n/a
253.3445	0.075	506689	keystroke_i	i	n/a
253.4195	0.09	506839	keystroke_d	d	n/a
253.5995	0.15	507199	keystroke_e	e	n/a
253.7345	0.12	507469	keystroke_r	r	n/a
253.9145	0.12	507829	keystroke_Key.space	Key.space	n/a
254.2295	0.12	508459	keystroke_b	b	n/a
254.3795	0.12	508759	keystroke_l	l	n/a
254.4545	0.121	508909	keystroke_a	a	n/a
254.5755	0.1345	509151	keystroke_d	d	n/a
254.7855	0.1945	509571	keystroke_e	e	n/a
254.964	0.1215	509928	keystroke_s	s	n/a
255.1145	0.105	510229	keystroke_Key.space	Key.space	n/a
255.4145	0.075	510829	keystroke_i	i	n/a
255.5795	0.075	511159	keystroke_n	n	n/a
255.6845	0.135	511369	keystroke_s	s	n/a
255.8045	0.09	511609	keystroke_i	i	n/a
255.9095	0.091	511819	keystroke_d	d	n/a
256.0745	0.15	512149	keystroke_e	e	n/a
256.2545	0.15	512509	keystroke_Key.space	Key.space	n/a
256.5995	0.09	513199	keystroke_p	p	n/a
256.8845	0.105	513769	keystroke_i	i	n/a
257.0795	0.091	514159	keystroke_o	o	n/a
257.2905	0.074	514581	keystroke_n	n	n/a
257.9645	0.135	515929	keystroke_e	e	n/a
258.1745	0.105	516349	keystroke_e	e	n/a
258.2945	0.09	516589	keystroke_r	r	n/a
258.5045	0.06	517009	keystroke_Key.enter	Key.enter	n/a
258.5695	13.857	517139	prompt	n/a	horse linear enabled clearly\n
259.225	0.06	518450	keystroke_h	h	n/a
259.36	0.18	518720	keystroke_o	o	n/a
259.705	0.075	519410	keystroke_u	u	n/a
259.84	0.09	519680	keystroke_r	r	n/a
260.035	0.1505	520070	keystroke_s	s	n/a
260.1405	0.135	520281	keystroke_e	e	n/a
260.3355	0.149	520671	keystroke_Key.space	Key.space	n/a
260.62	0.105	521240	keystroke_l	l	n/a
261.235	0.09	522470	keystroke_Key.backspace	Key.backspace	n/a
261.5795	0.075	523159	keystroke_Key.backspace	Key.backspace	n/a
261.9395	0.075	523879	keystroke_Key.backspace	Key.backspace	n/a
262.2695	0.09	524539	keystroke_Key.backspace	Key.backspace	n/a
262.5845	0.075	525169	keystroke_Key.backspace	Key.backspace	n/a
263.3495	0.075	526699	keystroke_Key.backspace	Key.backspace	n/a
263.5895	0.09	527179	keystroke_r	r	n/a
263.7695	0.15	527539	keystroke_s	s	n/a
263.8595	0.165	527719	keystroke_e	e	n/a
264.0845	0.15	528169	keystroke_Key.space	Key.space	n/a
265.2855	0.1195	530571	keystroke_l	l	n/a
265.465	0.0745	530930	keystroke_i	i	n/a
265.6445	0.09	531289	keystroke_n	n	n/a
265.7945	0.255	531589	keystroke_e	e	n/a
265.9145	0.165	531829	keystroke_a	a	n/a
266.0645	0.0905	532129	keystroke_r	r	n/a
266.29	0.135	532580	keystroke_Key.space	Key.space	n/a
266.755	0.12	533510	keystroke_e	e	n/a
266.89	0.075	533780	keystroke_n	n	n/a
266.98	0.255	533960	keystroke_a	a	n/a
267.19	0.135	534380	keystroke_b	b	n/a
267.355	0.105	534710	keystroke_l	l	n/a
267.43	0.12	534860	keystroke_e	e	n/a
267.655	0.1355	535310	keystroke_d	d	n/a
267.8055	0.105	535611	keystroke_Key.space	Key.space	n/a
268.33	0.105	536660	keystroke_c	c	n/a
268.435	0.105	536870	keystroke_l	l	n/a
268.495	0.195	536990	keystroke_a	a	n/a
268.705	0.24	537410	keystroke_e	e	n/a
268.84	0.106	537680	keystroke_a	a	n/a
268.9	0.135	537800	keystroke_r	r	n/a
269.08	0.075	538160	keystroke_l	l	n/a
269.23	0.075	538460	keystroke_y	y	n/a
269.95	0.09	539900	keystroke_Key.backspace	Key.backspace	n/a
270.25	0.075	540500	keystroke_Key.backspace	Key.backspace	n/a
270.58	0.075	541160	keystroke_Key.backspace	Key.backspace	n/a
270.94	0.0605	541880	keystroke_Key.backspace	Key.backspace	n/a
271.1505	0.075	542301	keystroke_Key.backspace	Key.backspace	n/a
271.4055	0.075	542811	keystroke_Key.backspace	Key.backspace	n/a
271.6155	0.1795	543231	keystroke_e	e	n/a
271.6755	0.1345	543351	keystroke_a	a	n/a
271.7655	0.1195	543531	keystroke_r	r	n/a
271.9	0.1345	543800	keystroke_l	l	n/a
272.1245	0.06	544249	keystroke_y	y	n/a
272.3495	0.075	544699	keystroke_Key.enter	Key.enter	n/a
272.4295	7.647	544859	prompt	n/a	lamp glasgow peer liberal\n
273.025	0.105	546050	keystroke_l	l	n/a
273.1605	0.15	546321	keystroke_a	a	n/a
273.2955	0.12	546591	keystroke_m	m	n/a
273.5205	0.06	547041	keystroke_p	p	n/a
273.7895	0.12	547579	keystroke_Key.space	Key.space	n/a
274.3745	0.135	548749	keystroke_g	g	n/a
274.5405	0.09	549081	keystroke_l	l	n/a
274.6145	0.196	549229	keystroke_a	a	n/a
274.7945	0.136	549589	keystroke_s	s	n/a
275.1845	0.09	550369	keystroke_g	g	n/a
275.4245	0.0905	550849	keystroke_o	o	n/a
275.545	0.09	551090	keystroke_w	w	n/a
276.235	0.12	552470	keystroke_Key.space	Key.space	n/a
276.46	0.1205	552920	keystroke_p	p	n/a
276.9105	0.09	553821	keystroke_e	e	n/a
277.0905	0.06	554181	keystroke_e	e	n/a
277.2255	0.12	554451	keystroke_r	r	n/a
277.4805	0.135	554961	keystroke_Key.space	Key.space	n/a
278.095	0.12	556190	keystroke_l	l	n/a
278.515	0.075	557030	keystroke_i	i	n/a
278.725	0.135	557450	keystroke_b	b	n/a
279.385	0.165	558770	keystroke_e	e	n/a
279.505	0.12	559010	keystroke_r	r	n/a
279.64	0.135	559280	keystroke_a	a	n/a
279.76	0.075	559520	keystroke_l	l	n/a
280	0.075	560000	keystroke_Key.enter	Key.enter	n/a
280.08	6.2215	560160	prompt	n/a	accordance attempts binary trusted\n
280.72	0.135	561440	keystroke_a	a	n/a
280.96	0.075	561920	keystroke_c	c	n/a
281.14	0.075	562280	keystroke_c	c	n/a
281.29	0.12	562580	keystroke_o	o	n/a
281.38	0.12	562760	keystroke_r	r	n/a
281.545	0.135	563090	keystroke_d	d	n/a
281.695	0.15	563390	keystroke_a	a	n/a
281.846	0.059	563692	keystroke_n	n	n/a
281.98	0.165	563960	keystroke_c	c	n/a
282.115	0.15	564230	keystroke_e	e	n/a
282.266	0.119	564532	keystroke_Key.space	Key.space	n/a
282.445	0.1655	564890	keystroke_a	a	n/a
282.6255	0.075	565251	keystroke_t	t	n/a
282.7905	0.075	565581	keystroke_t	t	n/a
282.8505	0.15	565701	keystroke_e	e	n/a
282.9855	0.105	565971	keystroke_m	m	n/a
283.1655	0.0745	566331	keystroke_p	p	n/a
283.285	0.105	566570	keystroke_t	t	n/a
283.495	0.12	566990	keystroke_s	s	n/a
283.645	0.135	567290	keystroke_Key.space	Key.space	n/a
284.02	0.075	568040	keystroke_b	b	n/a
284.155	0.06	568310	keystroke_i	i	n/a
284.3205	0.089	568641	keystroke_n	n	n/a
284.3505	0.18	568701	keystroke_a	a	n/a
284.5155	0.0895	569031	keystroke_r	r	n/a
284.725	0.075	569450	keystroke_y	y	n/a
284.875	0.105	569750	keystroke_Key.space	Key.space	n/a
285.04	0.105	570080	keystroke_t	t	n/a
285.265	0.09	570530	keystroke_r	r	n/a
285.385	0.06	570770	keystroke_u	u	n/a
285.49	0.165	570980	keystroke_s	s	n/a
285.64	0.165	571280	keystroke_t	t	n/a
285.76	0.09	571520	keystroke_e	e	n/a
285.9695	0.09	571939	keystroke_d	d	n/a
286.2245	0.075	572449	keystroke_Key.enter	Key.enter	n/a
286.3045	6.267	572609	prompt	n/a	literary homeless ordinance daily\n
286.8695	0.105	573739	keystroke_l	l	n/a
287.0795	0.061	574159	keystroke_i	i	n/a
287.3045	0.121	574609	keystroke_t	t	n/a
287.4105	0.1945	574821	keystroke_e	e	n/a
287.545	0.135	575090	keystroke_r	r	n/a
287.71	0.1795	575420	keystroke_a	a	n/a
287.8595	0.105	575719	keystroke_r	r	n/a
288.0545	0.045	576109	keystroke_y	y	n/a
288.2045	0.105	576409	keystroke_Key.space	Key.space	n/a
288.3395	0.09	576679	keystroke_h	h	n/a
288.4745	0.15	576949	keystroke_o	o	n/a
288.6845	0.075	577369	keystroke_m	m	n/a
288.7745	0.075	577549	keystroke_e	e	n/a
288.8945	0.09	577789	keystroke_l	l	n/a
289.0295	0.165	578059	keystroke_e	e	n/a
289.2245	0.105	578449	keystroke_s	s	n/a
289.4195	0.135	578839	keystroke_s	s	n/a
289.8395	0.12	579679	keystroke_Key.space	Key.space	n/a
290.0195	0.0755	580039	keystroke_o	o	n/a
290.125	0.12	580250	keystroke_r	r	n/a
290.4695	0.0905	580939	keystroke_d	d	n/a
290.62	0.075	581240	keystroke_i	i	n/a
290.815	0.075	581630	keystroke_n	n	n/a
290.905	0.18	581810	keystroke_a	a	n/a
291.07	0.075	582140	keystroke_n	n	n/a
291.175	0.1495	582350	keystroke_c	c	n/a
291.295	0.18	582590	keystroke_e	e	n/a
291.49	0.09	582980	keystroke_Key.space	Key.space	n/a
291.61	0.135	583220	keystroke_d	d	n/a
291.715	0.165	583430	keystroke_a	a	n/a
291.85	0.09	583700	keystroke_i	i	n/a
292	0.135	584000	keystroke_l	l	n/a
292.21	0.075	584420	keystroke_y	y	n/a
292.51	0.06	585020	keystroke_Key.enter	Key.enter	n/a
292.5755	9.326	585151	prompt	n/a	cams graphic harmful model\n
293.2145	0.181	586429	keystroke_c	c	n/a
293.4555	0.15	586911	keystroke_a	a	n/a
293.6195	0.09	587239	keystroke_m	m	n/a
293.8305	0.089	587661	keystroke_s	s	n/a
294.055	0.105	588110	keystroke_Key.space	Key.space	n/a
294.55	0.09	589100	keystroke_g	g	n/a
294.76	0.09	589520	keystroke_r	r	n/a
294.805	0.285	589610	keystroke_a	a	n/a
295	0.075	590000	keystroke_h	h	n/a
295.21	0.09	590420	keystroke_p	p	n/a
295.465	0.12	590930	keystroke_h	h	n/a
296.56	0.06	593120	keystroke_Key.backspace	Key.backspace	n/a
296.935	0.09	593870	keystroke_Key.backspace	Key.backspace	n/a
297.4	0.06	594800	keystroke_Key.backspace	Key.backspace	n/a
297.88	0.09	595760	keystroke_p	p	n/a
298.045	0.09	596090	keystroke_h	h	n/a
298.195	0.075	596390	keystroke_i	i	n/a
298.45	0.2095	596900	keystroke_c	c	n/a
298.8545	0.09	597709	keystroke_Key.space	Key.space	n/a
298.9755	0.059	597951	keystroke_h	h	n/a
299.0495	0.136	598099	keystroke_a	a	n/a
299.1705	0.074	598341	keystroke_r	r	n/a
299.4095	0.076	598819	keystroke_f	f	n/a
299.815	0.075	599630	keystroke_Key.backspace	Key.backspace	n/a
300.0405	0.0895	600081	keystroke_m	m	n/a
300.145	0.09	600290	keystroke_f	f	n/a
300.415	0.075	600830	keystroke_u	u	n/a
300.595	0.09	601190	keystroke_l	l	n/a
300.715	0.105	601430	keystroke_Key.space	Key.space	n/a
301.0005	0.105	602001	keystroke_m	m	n/a
301.15	0.0905	602300	keystroke_o	o	n/a
301.2255	0.0895	602451	keystroke_d	d	n/a
301.4205	0.06	602841	keystroke_e	e	n/a
301.63	0.0905	603260	keystroke_l	l	n/a
301.8255	0.0745	603651	keystroke_Key.enter	Key.enter	n/a
301.9055	8.621	603811	prompt	n/a	dispatch savannah calculators prevent\n
302.5905	0.135	605181	keystroke_d	d	n/a
302.7405	0.09	605481	keystroke_i	i	n/a
302.9055	0.135	605811	keystroke_s	s	n/a
303.2505	0.15	606501	keystroke_p	p	n/a
303.5055	0.1495	607011	keystroke_a	a	n/a
303.67	0.0905	607340	keystroke_t	t	n/a
303.9555	0.1195	607911	keystroke_c	c	n/a
304.09	0.0605	608180	keystroke_h	h	n/a
304.18	0.1205	608360	keystroke_Key.space	Key.space	n/a
304.45	0.09	608900	keystroke_s	s	n/a
304.7805	0.15	609561	keystroke_a	a	n/a
305.0955	0.135	610191	keystroke_v	v	n/a
305.2455	0.12	610491	keystroke_a	a	n/a
305.8155	0.06	611631	keystroke_n	n	n/a
306.0255	0.045	612051	keystroke_n	n	n/a
306.115	0.09	612230	keystroke_a	a	n/a
306.28	0.06	612560	keystroke_h	h	n/a
306.415	0.135	612830	keystroke_Key.space	Key.space	n/a
307.135	0.135	614270	keystroke_c	c	n/a
307.315	0.15	614630	keystroke_a	a	n/a
307.48	0.075	614960	keystroke_l	l	n/a
307.735	0.12	615470	keystroke_c	c	n/a
307.885	0.075	615770	keystroke_u	u	n/a
308.08	0.09	616160	keystroke_l	l	n/a
308.14	0.15	616280	keystroke_a	a	n/a
308.305	0.09	616610	keystroke_t	t	n/a
308.41	0.105	616820	keystroke_o	o	n/a
308.545	0.0895	617090	keystroke_r	r	n/a
308.7395	0.12	617479	keystroke_s	s	n/a
308.9195	0.135	617839	keystroke_Key.space	Key.space	n/a
309.415	0.09	618830	keystroke_p	p	n/a
309.49	0.135	618980	keystroke_r	r	n/a
309.58	0.12	619160	keystroke_e	e	n/a
309.865	0.15	619730	keystroke_v	v	n/a
310.03	0.12	620060	keystroke_e	e	n/a
310.151	0.074	620302	keystroke_n	n	n/a
310.255	0.12	620510	keystroke_t	t	n/a
310.435	0.09	620870	keystroke_Key.enter	Key.enter	n/a
310.5295	7.692	621059	prompt	n/a	broke origin cyber obtained\n
311.17	0.105	622340	keystroke_b	b	n/a
311.395	0.15	622790	keystroke_r	r	n/a
311.5	0.09	623000	keystroke_o	o	n/a
311.65	0.105	623300	keystroke_k	k	n/a
311.77	0.105	623540	keystroke_e	e	n/a
312.04	0.135	624080	keystroke_Key.space	Key.space	n/a
312.49	0.105	624980	keystroke_o	o	n/a
312.67	0.15	625340	keystroke_r	r	n/a
313	0.06	626000	keystroke_i	i	n/a
313.4055	0.105	626811	keystroke_g	g	n/a
313.4955	0.09	626991	keystroke_i	i	n/a
313.7505	0.015	627501	keystroke_n	n	n/a
313.7955	0.105	627591	keystroke_Key.space	Key.space	n/a
314.0355	0.15	628071	keystroke_c	c	n/a
314.5305	0.06	629061	keystroke_y	y	n/a
314.9345	0.105	629869	keystroke_b	b	n/a
315.1005	0.074	630201	keystroke_l	l	n/a
315.5945	0.075	631189	keystroke_Key.backspace	Key.backspace	n/a
315.7295	0.166	631459	keystroke_e	e	n/a
315.8495	0.1205	631699	keystroke_r	r	n/a
316.195	0.105	632390	keystroke_Key.space	Key.space	n/a
316.69	0.12	633380	keystroke_o	o	n/a
316.99	0.12	633980	keystroke_b	b	n/a
317.26	0.15	634520	keystroke_t	t	n/a
317.425	0.12	634850	keystroke_a	a	n/a
317.485	0.075	634970	keystroke_i	i	n/a
317.665	0.075	635330	keystroke_n	n	n/a
317.725	0.09	635450	keystroke_e	e	n/a
317.935	0.075	635870	keystroke_d	d	n/a
318.16	0.06	636320	keystroke_Key.enter	Key.enter	n/a
318.2245	7.182	636449	prompt	n/a	certain bags polished carlo\n
318.8805	0.12	637761	keystroke_c	c	n/a
319.0905	0.149	638181	keystroke_e	e	n/a
319.4205	0.12	638841	keystroke_r	r	n/a
319.6905	0.075	639381	keystroke_t	t	n/a
319.8555	0.149	639711	keystroke_a	a	n/a
319.9455	0.09	639891	keystroke_i	i	n/a
320.1555	0.06	640311	keystroke_n	n	n/a
320.2755	0.12	640551	keystroke_Key.space	Key.space	n/a
320.7845	0.106	641569	keystroke_b	b	n/a
320.9205	0.194	641841	keystroke_a	a	n/a
321.3095	0.0905	642619	keystroke_g	g	n/a
321.505	0.12	643010	keystroke_d	d	n/a
322.03	0.0745	644060	keystroke_Key.backspace	Key.backspace	n/a
322.1495	0.12	644299	keystroke_s	s	n/a
322.2995	0.166	644599	keystroke_Key.space	Key.space	n/a
322.9605	0.075	645921	keystroke_p	p	n/a
323.1105	0.075	646221	keystroke_o	o	n/a
323.2455	0.15	646491	keystroke_l	l	n/a
323.3805	0.075	646761	keystroke_i	i	n/a
323.5005	0.135	647001	keystroke_s	s	n/a
323.6055	0.075	647211	keystroke_h	h	n/a
323.7255	0.09	647451	keystroke_e	e	n/a
323.9205	0.135	647841	keystroke_d	d	n/a
324.0405	0.134	648081	keystroke_Key.space	Key.space	n/a
324.3705	0.149	648741	keystroke_c	c	n/a
324.4905	0.195	648981	keystroke_a	a	n/a
324.6555	0.105	649311	keystroke_r	r	n/a
324.9555	0.075	649911	keystroke_l	l	n/a
325.1055	0.075	650211	keystroke_o	o	n/a
325.3605	0.045	650721	keystroke_Key.enter	Key.enter	n/a
325.4115	6.85	650823	prompt	n/a	interview terminals exceed thing\n
326.0355	0.06	652071	keystroke_i	i	n/a
326.2005	0.09	652401	keystroke_n	n	n/a
326.3355	0.105	652671	keystroke_t	t	n/a
326.4255	0.1645	652851	keystroke_e	e	n/a
326.56	0.105	653120	keystroke_r	r	n/a
326.8	0.1205	653600	keystroke_v	v	n/a
326.9355	0.09	653871	keystroke_i	i	n/a
327.0555	0.165	654111	keystroke_e	e	n/a
327.1755	0.135	654351	keystroke_w	w	n/a
327.3255	0.12	654651	keystroke_Key.space	Key.space	n/a
327.8055	0.105	655611	keystroke_t	t	n/a
327.9405	0.15	655881	keystroke_e	e	n/a
328.0605	0.12	656121	keystroke_r	r	n/a
328.2255	0.09	656451	keystroke_m	m	n/a
328.4055	0.075	656811	keystroke_i	i	n/a
328.57	0.075	657140	keystroke_n	n	n/a
328.705	0.105	657410	keystroke_a	a	n/a
328.885	0.135	657770	keystroke_l	l	n/a
329.065	0.135	658130	keystroke_s	s	n/a
329.5755	0.075	659151	keystroke_Key.space	Key.space	n/a
329.875	0.075	659750	keystroke_e	e	n/a
330.085	0.105	660170	keystroke_x	x	n/a
330.325	0.135	660650	keystroke_c	c	n/a
330.505	0.09	661010	keystroke_e	e	n/a
330.655	0.045	661310	keystroke_e	e	n/a
330.82	0.1355	661640	keystroke_d	d	n/a
331.0305	0.225	662061	keystroke_Key.space	Key.space	n/a
331.5405	0.105	663081	keystroke_t	t	n/a
331.6455	0.075	663291	keystroke_h	h	n/a
331.7805	0.105	663561	keystroke_i	i	n/a
331.9305	0.105	663861	keystroke_n	n	n/a
332.0205	0.09	664041	keystroke_g	g	n/a
332.2005	0.06	664401	keystroke_Key.enter	Key.enter	n/a
332.264	6.3575	664528	prompt	n/a	pride trademarks likely evident\n
333.0105	0.105	666021	keystroke_p	p	n/a
333.1295	0.09	666259	keystroke_r	r	n/a
333.2055	0.089	666411	keystroke_i	i	n/a
333.3695	0.0905	666739	keystroke_d	d	n/a
333.5495	0.136	667099	keystroke_e	e	n/a
333.7305	0.135	667461	keystroke_Key.space	Key.space	n/a
334.1955	0.09	668391	keystroke_t	t	n/a
334.4205	0.105	668841	keystroke_r	r	n/a
334.4955	0.1645	668991	keystroke_a	a	n/a
334.645	0.09	669290	keystroke_d	d	n/a
334.825	0.075	669650	keystroke_e	e	n/a
335.035	0.06	670070	keystroke_m	m	n/a
335.065	0.165	670130	keystroke_a	a	n/a
335.185	0.12	670370	keystroke_r	r	n/a
335.335	0.075	670670	keystroke_k	k	n/a
335.5	0.1055	671000	keystroke_s	s	n/a
335.9505	0.105	671901	keystroke_Key.space	Key.space	n/a
336.1605	0.105	672321	keystroke_l	l	n/a
336.3255	0.075	672651	keystroke_i	i	n/a
336.5055	0.06	673011	keystroke_k	k	n/a
336.5655	0.09	673131	keystroke_e	e	n/a
336.7155	0.12	673431	keystroke_l	l	n/a
336.9255	0.075	673851	keystroke_y	y	n/a
337.1355	0.09	674271	keystroke_Key.space	Key.space	n/a
337.4355	0.075	674871	keystroke_e	e	n/a
337.6605	0.1345	675321	keystroke_v	v	n/a
337.855	0.06	675710	keystroke_i	i	n/a
337.916	0.104	675832	keystroke_d	d	n/a
338.095	0.135	676190	keystroke_e	e	n/a
338.245	0.06	676490	keystroke_n	n	n/a
338.35	0.105	676700	keystroke_t	t	n/a
338.5605	0.06	677121	keystroke_Key.enter	Key.enter	n/a
338.626	7.7805	677252	prompt	n/a	slowly found country compromise\n
339.4005	0.105	678801	keystroke_s	s	n/a
339.5355	0.09	679071	keystroke_l	l	n/a
339.7755	0.06	679551	keystroke_o	o	n/a
339.9855	0.0895	679971	keystroke_w	w	n/a
340.195	0.09	680390	keystroke_l	l	n/a
340.405	0.0755	680810	keystroke_y	y	n/a
340.585	0.105	681170	keystroke_Key.space	Key.space	n/a
340.945	0.105	681890	keystroke_f	f	n/a
341.035	0.15	682070	keystroke_o	o	n/a
341.155	0.075	682310	keystroke_u	u	n/a
341.38	0.06	682760	keystroke_n	n	n/a
341.53	0.105	683060	keystroke_d	d	n/a
341.785	0.15	683570	keystroke_Key.space	Key.space	n/a
342.325	0.15	684650	keystroke_c	c	n/a
342.49	0.105	684980	keystroke_o	o	n/a
342.55	0.075	685100	keystroke_u	u	n/a
342.775	0.06	685550	keystroke_n	n	n/a
342.82	0.06	685640	keystroke_t	t	n/a
343.0005	0.045	686001	keystroke_r	r	n/a
343.1055	0.06	686211	keystroke_y	y	n/a
343.345	0.12	686690	keystroke_Key.space	Key.space	n/a
343.915	0.15	687830	keystroke_c	c	n/a
344.05	0.165	688100	keystroke_o	o	n/a
344.155	0.135	688310	keystroke_m	m	n/a
344.44	0.075	688880	keystroke_p	p	n/a
344.6955	0.105	689391	keystroke_r	r	n/a
345.2655	0.09	690531	keystroke_o	o	n/a
345.715	0.075	691430	keystroke_m	m	n/a
345.88	0.075	691760	keystroke_i	i	n/a
345.985	0.1655	691970	keystroke_s	s	n/a
346.1055	0.135	692211	keystroke_e	e	n/a
346.3305	0.075	692661	keystroke_Key.enter	Key.enter	n/a
346.41	8.6815	692820	prompt	n/a	belarus version timer escorts\n
347.2305	0.119	694461	keystroke_b	b	n/a
347.4855	0.075	694971	keystroke_e	e	n/a
347.6955	0.105	695391	keystroke_l	l	n/a
348.2505	0.135	696501	keystroke_a	a	n/a
348.82	0.105	697640	keystroke_r	r	n/a
349.09	0.075	698180	keystroke_u	u	n/a
349.3	0.135	698600	keystroke_s	s	n/a
349.45	0.1355	698900	keystroke_Key.space	Key.space	n/a
349.8705	0.135	699741	keystroke_v	v	n/a
350.17	0.12	700340	keystroke_e	e	n/a
350.245	0.135	700490	keystroke_r	r	n/a
350.8005	0.12	701601	keystroke_s	s	n/a
350.9205	0.225	701841	keystroke_i	i	n/a
351.0405	0.18	702081	keystroke_o	o	n/a
351.3405	0.0595	702681	keystroke_n	n	n/a
351.73	0.12	703460	keystroke_Key.space	Key.space	n/a
352.36	0.105	704720	keystroke_t	t	n/a
352.45	0.075	704900	keystroke_i	i	n/a
352.585	0.12	705170	keystroke_m	m	n/a
352.69	0.2405	705380	keystroke_e	e	n/a
352.9155	0.105	705831	keystroke_r	r	n/a
353.1855	0.105	706371	keystroke_Key.space	Key.space	n/a
353.6355	0.09	707271	keystroke_e	e	n/a
353.8455	0.105	707691	keystroke_s	s	n/a
354.0855	0.0895	708171	keystroke_c	c	n/a
354.2655	0.09	708531	keystroke_o	o	n/a
354.4455	0.09	708891	keystroke_r	r	n/a
354.6405	0.075	709281	keystroke_t	t	n/a
354.8055	0.135	709611	keystroke_s	s	n/a
355.0305	0.06	710061	keystroke_Key.enter	Key.enter	n/a
355.0945	8.1125	710189	prompt	n/a	jonathan comparing novels defensive\n
356.035	0.105	712070	keystroke_j	j	n/a
356.26	0.09	712520	keystroke_o	o	n/a
356.44	0.06	712880	keystroke_n	n	n/a
356.545	0.1655	713090	keystroke_a	a	n/a
356.7555	0.0895	713511	keystroke_t	t	n/a
356.86	0.06	713720	keystroke_h	h	n/a
356.981	0.15	713962	keystroke_a	a	n/a
357.145	0.06	714290	keystroke_n	n	n/a
357.295	0.09	714590	keystroke_Key.space	Key.space	n/a
357.73	0.135	715460	keystroke_c	c	n/a
357.88	0.105	715760	keystroke_o	o	n/a
358.045	0.12	716090	keystroke_m	m	n/a
358.2555	0.105	716511	keystroke_p	p	n/a
358.4805	0.1195	716961	keystroke_a	a	n/a
358.615	0.09	717230	keystroke_r	r	n/a
358.705	0.075	717410	keystroke_i	i	n/a
358.9	0.075	717800	keystroke_n	n	n/a
359.02	0.105	718040	keystroke_g	g	n/a
359.17	0.15	718340	keystroke_Key.space	Key.space	n/a
360.385	0.075	720770	keystroke_n	n	n/a
360.535	0.135	721070	keystroke_o	o	n/a
360.671	0.134	721342	keystroke_v	v	n/a
360.865	0.1055	721730	keystroke_e	e	n/a
361.0155	0.06	722031	keystroke_l	l	n/a
361.1205	0.135	722241	keystroke_Key.space	Key.space	n/a
361.3605	0.09	722721	keystroke_d	d	n/a
361.5405	0.12	723081	keystroke_e	e	n/a
361.9755	0.105	723951	keystroke_f	f	n/a
362.1255	0.105	724251	keystroke_e	e	n/a
362.2755	0.045	724551	keystroke_n	n	n/a
362.4855	0.135	724971	keystroke_s	s	n/a
362.6055	0.09	725211	keystroke_i	i	n/a
362.7405	0.135	725481	keystroke_v	v	n/a
362.9655	0.09	725931	keystroke_e	e	n/a
363.1305	0.075	726261	keystroke_Key.enter	Key.enter	n/a
363.2095	10.047	726419	prompt	n/a	heritage filled chevrolet aluminium\n
363.8805	0.09	727761	keystroke_h	h	n/a
364.0305	0.135	728061	keystroke_e	e	n/a
364.1355	0.12	728271	keystroke_r	r	n/a
364.7205	0.075	729441	keystroke_i	i	n/a
364.871	0.1045	729742	keystroke_t	t	n/a
365.0955	0.15	730191	keystroke_a	a	n/a
365.2305	0.09	730461	keystroke_g	g	n/a
365.4255	0.12	730851	keystroke_e	e	n/a
365.5305	0.135	731061	keystroke_Key.space	Key.space	n/a
365.771	0.135	731542	keystroke_f	f	n/a
365.936	0.045	731872	keystroke_i	i	n/a
366.086	0.075	732172	keystroke_l	l	n/a
366.236	0.105	732472	keystroke_l	l	n/a
366.431	0.089	732862	keystroke_e	e	n/a
366.6555	0.12	733311	keystroke_d	d	n/a
366.7605	0.135	733521	keystroke_Key.space	Key.space	n/a
367.1805	0.15	734361	keystroke_c	c	n/a
367.3455	0.0745	734691	keystroke_h	h	n/a
367.705	0.1055	735410	keystroke_e	e	n/a
368.0055	0.135	736011	keystroke_v	v	n/a
368.4555	0.075	736911	keystroke_r	r	n/a
368.6205	0.075	737241	keystroke_o	o	n/a
368.8155	0.12	737631	keystroke_l	l	n/a
368.9505	0.15	737901	keystroke_e	e	n/a
369.1605	0.075	738321	keystroke_t	t	n/a
369.4905	0.1195	738981	keystroke_Key.space	Key.space	n/a
369.85	0.15	739700	keystroke_a	a	n/a
370.9005	0.105	741801	keystroke_l	l	n/a
371.3055	0.06	742611	keystroke_u	u	n/a
371.5605	0.075	743121	keystroke_m	m	n/a
371.8005	0.0455	743601	keystroke_i	i	n/a
371.9955	0.06	743991	keystroke_n	n	n/a
372.236	0.0445	744472	keystroke_i	i	n/a
372.73	0.06	745460	keystroke_u	u	n/a
372.97	0.061	745940	keystroke_m	m	n/a
373.21	0.045	746420	keystroke_Key.enter	Key.enter	n/a
373.2605	7.9615	746521	prompt	n/a	quad amendment lesbians column\n
374.05	0.105	748100	keystroke_q	q	n/a
374.215	0.105	748430	keystroke_u	u	n/a
374.35	0.165	748700	keystroke_a	a	n/a
374.575	0.15	749150	keystroke_d	d	n/a
374.785	0.165	749570	keystroke_Key.space	Key.space	n/a
375.04	0.12	750080	keystroke_a	a	n/a
375.325	0.09	750650	keystroke_m	m	n/a
375.565	0.12	751130	keystroke_e	e	n/a
375.715	0.0605	751430	keystroke_n	n	n/a
375.8205	0.09	751641	keystroke_d	d	n/a
376.315	0.075	752630	keystroke_m	m	n/a
376.42	0.1355	752840	keystroke_e	e	n/a
376.5555	0.06	753111	keystroke_n	n	n/a
376.6755	0.15	753351	keystroke_t	t	n/a
376.8555	0.15	753711	keystroke_Key.space	Key.space	n/a
377.1555	0.1355	754311	keystroke_l	l	n/a
377.321	0.09	754642	keystroke_e	e	n/a
377.546	0.105	755092	keystroke_s	s	n/a
377.966	0.105	755932	keystroke_b	b	n/a
378.101	0.09	756202	keystroke_i	i	n/a
378.251	0.12	756502	keystroke_a	a	n/a
378.416	0.06	756832	keystroke_n	n	n/a
378.551	0.1045	757102	keystroke_s	s	n/a
378.9405	0.09	757881	keystroke_Key.space	Key.space	n/a
379.4205	0.15	758841	keystroke_c	c	n/a
379.5855	0.09	759171	keystroke_o	o	n/a
379.7955	0.075	759591	keystroke_l	l	n/a
380.0205	0.06	760041	keystroke_u	u	n/a
380.2755	0.03	760551	keystroke_m	m	n/a
380.8605	0.06	761721	keystroke_n	n	n/a
381.16	0.0605	762320	keystroke_Key.enter	Key.enter	n/a
381.225	6.312	762450	prompt	n/a	magical flex wire observe\n
381.866	0.089	763732	keystroke_m	m	n/a
381.97	0.105	763940	keystroke_a	a	n/a
382.135	0.09	764270	keystroke_g	g	n/a
382.24	0.075	764480	keystroke_i	i	n/a
382.465	0.21	764930	keystroke_c	c	n/a
382.63	0.151	765260	keystroke_a	a	n/a
383.021	0.074	766042	keystroke_l	l	n/a
383.126	0.135	766252	keystroke_Key.space	Key.space	n/a
383.365	0.121	766730	keystroke_f	f	n/a
383.546	0.09	767092	keystroke_l	l	n/a
383.62	0.075	767240	keystroke_e	e	n/a
383.83	0.12	767660	keystroke_x	x	n/a
383.965	0.121	767930	keystroke_Key.space	Key.space	n/a
384.2955	0.105	768591	keystroke_w	w	n/a
384.5055	0.09	769011	keystroke_i	i	n/a
384.5805	0.12	769161	keystroke_r	r	n/a
384.6705	0.12	769341	keystroke_e	e	n/a
384.7755	0.165	769551	keystroke_Key.space	Key.space	n/a
385.1955	0.09	770391	keystroke_o	o	n/a
385.75	0.1355	771500	keystroke_b	b	n/a
386.3655	0.15	772731	keystroke_s	s	n/a
386.5455	0.12	773091	keystroke_e	e	n/a
386.6205	0.075	773241	keystroke_r	r	n/a
386.8755	0.12	773751	keystroke_v	v	n/a
387.19	0.135	774380	keystroke_e	e	n/a
387.475	0.06	774950	keystroke_Key.enter	Key.enter	n/a
387.54	6.222	775080	prompt	n/a	bleeding number surgeon focus\n
388.376	0.12	776752	keystroke_b	b	n/a
388.615	0.09	777230	keystroke_l	l	n/a
388.885	0.075	777770	keystroke_e	e	n/a
389.05	0.06	778100	keystroke_e	e	n/a
389.2	0.075	778400	keystroke_d	d	n/a
389.305	0.09	778610	keystroke_i	i	n/a
389.485	0.075	778970	keystroke_n	n	n/a
389.546	0.104	779092	keystroke_g	g	n/a
389.635	0.12	779270	keystroke_Key.space	Key.space	n/a
389.74	0.06	779480	keystroke_n	n	n/a
389.92	0.045	779840	keystroke_u	u	n/a
390.115	0.075	780230	keystroke_m	m	n/a
390.175	0.09	780350	keystroke_b	b	n/a
390.4305	0.15	780861	keystroke_e	e	n/a
390.5055	0.165	781011	keystroke_r	r	n/a
390.6555	0.15	781311	keystroke_Key.space	Key.space	n/a
390.8505	0.1055	781701	keystroke_s	s	n/a
391.061	0.075	782122	keystroke_u	u	n/a
391.241	0.075	782482	keystroke_r	r	n/a
391.4955	0.09	782991	keystroke_g	g	n/a
391.8105	0.09	783621	keystroke_e	e	n/a
392.0505	0.1045	784101	keystroke_o	o	n/a
392.245	0.0755	784490	keystroke_n	n	n/a
392.3805	0.09	784761	keystroke_Key.space	Key.space	n/a
392.65	0.1355	785300	keystroke_f	f	n/a
392.95	0.1055	785900	keystroke_o	o	n/a
393.1305	0.135	786261	keystroke_c	c	n/a
393.2955	0.06	786591	keystroke_u	u	n/a
393.5205	0.105	787041	keystroke_s	s	n/a
393.686	0.075	787372	keystroke_Key.enter	Key.enter	n/a
393.765	16.5575	787530	prompt	n/a	recreation wallpapers carl acquire\n
394.436	0.12	788872	keystroke_r	r	n/a
394.541	0.0895	789082	keystroke_e	e	n/a
394.7505	0.105	789501	keystroke_c	c	n/a
394.9755	0.12	789951	keystroke_r	r	n/a
395.036	0.1795	790072	keystroke_e	e	n/a
395.1555	0.18	790311	keystroke_a	a	n/a
395.3355	0.105	790671	keystroke_t	t	n/a
395.4255	0.1805	790851	keystroke_i	i	n/a
395.546	0.1945	791092	keystroke_o	o	n/a
395.6955	0.12	791391	keystroke_n	n	n/a
395.801	0.12	791602	keystroke_Key.space	Key.space	n/a
395.936	0.09	791872	keystroke_w	w	n/a
396.0705	0.12	792141	keystroke_a	a	n/a
396.2205	0.09	792441	keystroke_l	l	n/a
396.3855	0.105	792771	keystroke_l	l	n/a
396.7005	0.06	793401	keystroke_p	p	n/a
396.7755	0.135	793551	keystroke_a	a	n/a
397.2555	0.075	794511	keystroke_p	p	n/a
397.3305	0.15	794661	keystroke_a	a	n/a
397.556	0.1945	795112	keystroke_e	e	n/a
398.1855	0.06	796371	keystroke_Key.backspace	Key.backspace	n/a
398.605	0.075	797210	keystroke_Key.backspace	Key.backspace	n/a
398.725	0.12	797450	keystroke_e	e	n/a
398.815	0.09	797630	keystroke_r	r	n/a
399.1455	0.12	798291	keystroke_s	s	n/a
399.3105	0.135	798621	keystroke_Key.space	Key.space	n/a
399.8505	0.12	799701	keystroke_c	c	n/a
400.2555	0.12	800511	keystroke_a	a	n/a
400.3605	0.0905	800721	keystroke_r	r	n/a
400.5255	0.105	801051	keystroke_l	l	n/a
400.6755	0.09	801351	keystroke_Key.space	Key.space	n/a
401.0505	0.105	802101	keystroke_a	a	n/a
401.426	0.06	802852	keystroke_x	x	n/a
402.085	0.09	804170	keystroke_Key.backspace	Key.backspace	n/a
403.5255	0.15	807051	keystroke_c	c	n/a
403.8855	0.105	807771	keystroke_q	q	n/a
404.1555	0.09	808311	keystroke_y	y	n/a
404.2905	0.12	808581	keystroke_u	u	n/a
404.3955	0.12	808791	keystroke_r	r	n/a
404.4705	0.12	808941	keystroke_e	e	n/a
406.226	0.045	812452	keystroke_Key.backspace	Key.backspace	n/a
406.645	0.06	813290	keystroke_Key.backspace	Key.backspace	n/a
407.17	0.075	814340	keystroke_Key.backspace	Key.backspace	n/a
408.7455	0.06	817491	keystroke_Key.backspace	Key.backspace	n/a
409.6005	0.09	819201	keystroke_u	u	n/a
409.7355	0.12	819471	keystroke_i	i	n/a
409.87	0.15	819740	keystroke_r	r	n/a
409.9755	0.1195	819951	keystroke_e	e	n/a
410.245	0.075	820490	keystroke_Key.enter	Key.enter	n/a
410.3265	10.7655	820653	prompt	n/a	config insert accommodation rates\n
411.0405	0.15	822081	keystroke_c	c	n/a
411.175	0.1355	822350	keystroke_o	o	n/a
411.356	0.0595	822712	keystroke_n	n	n/a
411.7005	0.075	823401	keystroke_f	f	n/a
411.8955	0.075	823791	keystroke_i	i	n/a
412.0455	0.105	824091	keystroke_g	g	n/a
412.2855	0.105	824571	keystroke_Key.space	Key.space	n/a
412.616	0.075	825232	keystroke_i	i	n/a
412.7955	0.09	825591	keystroke_n	n	n/a
412.8705	0.15	825741	keystroke_s	s	n/a
412.9905	0.12	825981	keystroke_e	e	n/a
413.0955	0.075	826191	keystroke_r	r	n/a
413.2455	0.12	826491	keystroke_t	t	n/a
413.3805	0.195	826761	keystroke_Key.space	Key.space	n/a
413.9955	0.1195	827991	keystroke_a	a	n/a
414.25	0.09	828500	keystroke_c	c	n/a
414.415	0.09	828830	keystroke_c	c	n/a
414.641	0.09	829282	keystroke_o	o	n/a
414.941	0.06	829882	keystroke_m	m	n/a
415.091	0.06	830182	keystroke_m	m	n/a
415.196	0.12	830392	keystroke_e	e	n/a
415.6005	0.09	831201	keystroke_o	o	n/a
416.1705	0.075	832341	keystroke_Key.backspace	Key.backspace	n/a
416.3505	0.075	832701	keystroke_Key.backspace	Key.backspace	n/a
416.6655	0.09	833331	keystroke_o	o	n/a
416.8605	0.09	833721	keystroke_d	d	n/a
417.0105	0.135	834021	keystroke_a	a	n/a
417.2055	0.09	834411	keystroke_t	t	n/a
417.3105	0.24	834621	keystroke_i	i	n/a
417.4455	0.18	834891	keystroke_o	o	n/a
417.6405	0.105	835281	keystroke_n	n	n/a
417.7755	0.105	835551	keystroke_Key.space	Key.space	n/a
418.0605	0.1505	836121	keystroke_a	a	n/a
418.196	0.135	836392	keystroke_r	r	n/a
418.301	0.21	836602	keystroke_e	e	n/a
418.496	0.1495	836992	keystroke_s	s	n/a
419.0505	0.0605	838101	keystroke_Key.backspace	Key.backspace	n/a
419.4555	0.06	838911	keystroke_Key.backspace	Key.backspace	n/a
419.7855	0.06	839571	keystroke_Key.backspace	Key.backspace	n/a
420.0555	0.06	840111	keystroke_Key.backspace	Key.backspace	n/a
420.1605	0.165	840321	keystroke_r	r	n/a
420.3405	0.195	840681	keystroke_a	a	n/a
420.5055	0.135	841011	keystroke_t	t	n/a
420.5955	0.105	841191	keystroke_e	e	n/a
420.7905	0.1205	841581	keystroke_s	s	n/a
421.016	0.075	842032	keystroke_Key.enter	Key.enter	n/a
421.095	6.222	842190	prompt	n/a	rides beam craft putting\n
422.096	0.09	844192	keystroke_r	r	n/a
422.216	0.09	844432	keystroke_i	i	n/a
422.321	0.075	844642	keystroke_d	d	n/a
422.486	0.165	844972	keystroke_e	e	n/a
422.636	0.18	845272	keystroke_s	s	n/a
422.876	0.135	845752	keystroke_Key.space	Key.space	n/a
423.341	0.105	846682	keystroke_b	b	n/a
423.566	0.1645	847132	keystroke_e	e	n/a
423.7005	0.12	847401	keystroke_a	a	n/a
423.8355	0.06	847671	keystroke_m	m	n/a
423.9405	0.105	847881	keystroke_Key.space	Key.space	n/a
424.4205	0.12	848841	keystroke_c	c	n/a
424.6755	0.135	849351	keystroke_r	r	n/a
424.7955	0.195	849591	keystroke_a	a	n/a
425.3055	0.105	850611	keystroke_f	f	n/a
425.5605	0.12	851121	keystroke_t	t	n/a
425.8005	0.105	851601	keystroke_Key.space	Key.space	n/a
426.2055	0.045	852411	keystroke_p	p	n/a
426.3555	0.0755	852711	keystroke_u	u	n/a
426.506	0.059	853012	keystroke_t	t	n/a
426.64	0.09	853280	keystroke_t	t	n/a
426.745	0.09	853490	keystroke_i	i	n/a
426.91	0.091	853820	keystroke_n	n	n/a
427.015	0.105	854030	keystroke_g	g	n/a
427.24	0.075	854480	keystroke_Key.enter	Key.enter	n/a
427.32	6.147	854640	prompt	n/a	muscles cells where afraid\n
428.126	0.074	856252	keystroke_m	m	n/a
428.321	0.045	856642	keystroke_u	u	n/a
428.575	0.135	857150	keystroke_s	s	n/a
428.83	0.105	857660	keystroke_c	c	n/a
429.206	0.075	858412	keystroke_l	l	n/a
429.356	0.09	858712	keystroke_e	e	n/a
429.521	0.135	859042	keystroke_s	s	n/a
429.671	0.12	859342	keystroke_Key.space	Key.space	n/a
429.866	0.135	859732	keystroke_c	c	n/a
430.061	0.09	860122	keystroke_e	e	n/a
430.196	0.075	860392	keystroke_l	l	n/a
430.376	0.09	860752	keystroke_l	l	n/a
430.541	0.12	861082	keystroke_s	s	n/a
430.691	0.1645	861382	keystroke_Key.space	Key.space	n/a
431.081	0.105	862162	keystroke_w	w	n/a
431.246	0.075	862492	keystroke_h	h	n/a
431.336	0.075	862672	keystroke_e	e	n/a
431.396	0.15	862792	keystroke_r	r	n/a
431.501	0.1495	863002	keystroke_e	e	n/a
431.621	0.1645	863242	keystroke_Key.space	Key.space	n/a
431.831	0.195	863662	keystroke_a	a	n/a
432.056	0.12	864112	keystroke_f	f	n/a
432.296	0.09	864592	keystroke_r	r	n/a
432.9405	0.105	865881	keystroke_a	a	n/a
433.0465	0.074	866093	keystroke_i	i	n/a
433.1655	0.1055	866331	keystroke_d	d	n/a
433.4055	0.06	866811	keystroke_Key.enter	Key.enter	n/a
433.4705	8.9665	866941	prompt	n/a	preview curtis install obtained\n
434.1105	0.09	868221	keystroke_p	p	n/a
434.2605	0.15	868521	keystroke_r	r	n/a
434.3805	0.105	868761	keystroke_e	e	n/a
434.6055	0.135	869211	keystroke_v	v	n/a
434.7705	0.075	869541	keystroke_i	i	n/a
434.8905	0.1355	869781	keystroke_e	e	n/a
434.981	0.12	869962	keystroke_w	w	n/a
435.131	0.134	870262	keystroke_Key.space	Key.space	n/a
435.6855	0.15	871371	keystroke_c	c	n/a
435.8655	0.06	871731	keystroke_u	u	n/a
436.4655	0.0755	872931	keystroke_r	r	n/a
436.661	0.075	873322	keystroke_t	t	n/a
436.826	0.09	873652	keystroke_i	i	n/a
436.946	0.12	873892	keystroke_s	s	n/a
437.081	0.135	874162	keystroke_Key.space	Key.space	n/a
437.261	0.075	874522	keystroke_i	i	n/a
437.441	0.075	874882	keystroke_n	n	n/a
438.536	0.104	877072	keystroke_s	s	n/a
438.79	0.061	877580	keystroke_t	t	n/a
438.97	0.121	877940	keystroke_a	a	n/a
439.121	0.075	878242	keystroke_l	l	n/a
439.301	0.075	878602	keystroke_l	l	n/a
439.42	0.135	878840	keystroke_Key.space	Key.space	n/a
439.885	0.076	879770	keystroke_o	o	n/a
440.0355	0.135	880071	keystroke_b	b	n/a
440.4555	0.135	880911	keystroke_a	a	n/a
441.2955	0.0905	882591	keystroke_Key.backspace	Key.backspace	n/a
441.491	0.0745	882982	keystroke_t	t	n/a
441.6105	0.135	883221	keystroke_a	a	n/a
441.6855	0.075	883371	keystroke_i	i	n/a
441.8655	0.075	883731	keystroke_n	n	n/a
441.9555	0.06	883911	keystroke_e	e	n/a
442.1355	0.09	884271	keystroke_d	d	n/a
442.3755	0.06	884751	keystroke_Key.enter	Key.enter	n/a
442.4395	7.8275	884879	prompt	n/a	verizon trend onion really\n
443.2305	0.135	886461	keystroke_v	v	n/a
443.8305	0.15	887661	keystroke_e	e	n/a
443.9655	0.075	887931	keystroke_r	r	n/a
444.4905	0.075	888981	keystroke_i	i	n/a
444.6555	0.105	889311	keystroke_z	z	n/a
444.7455	0.12	889491	keystroke_o	o	n/a
444.9255	0.105	889851	keystroke_n	n	n/a
445.0455	0.135	890091	keystroke_Key.space	Key.space	n/a
445.7805	0.135	891561	keystroke_t	t	n/a
446.2905	0.135	892581	keystroke_r	r	n/a
446.4105	0.1195	892821	keystroke_e	e	n/a
447.0255	0.045	894051	keystroke_n	n	n/a
447.1155	0.135	894231	keystroke_d	d	n/a
447.4455	0.12	894891	keystroke_Key.space	Key.space	n/a
447.6255	0.105	895251	keystroke_o	o	n/a
447.8955	0.06	895791	keystroke_n	n	n/a
448.06	0.2405	896120	keystroke_i	i	n/a
448.1655	0.195	896331	keystroke_o	o	n/a
448.4055	0.105	896811	keystroke_n	n	n/a
448.5255	0.09	897051	keystroke_Key.space	Key.space	n/a
448.8255	0.165	897651	keystroke_r	r	n/a
448.9005	0.165	897801	keystroke_e	e	n/a
449.3955	0.105	898791	keystroke_a	a	n/a
449.546	0.075	899092	keystroke_l	l	n/a
449.711	0.09	899422	keystroke_l	l	n/a
449.921	0.06	899842	keystroke_y	y	n/a
450.191	0.075	900382	keystroke_Key.enter	Key.enter	n/a
450.27	7.0775	900540	prompt	n/a	guides retailers silent heads\n
450.91	0.09	901820	keystroke_g	g	n/a
451.0455	0.0745	902091	keystroke_u	u	n/a
451.255	0.0905	902510	keystroke_i	i	n/a
451.45	0.091	902900	keystroke_d	d	n/a
451.6305	0.09	903261	keystroke_e	e	n/a
451.826	0.135	903652	keystroke_s	s	n/a
451.991	0.15	903982	keystroke_Key.space	Key.space	n/a
452.366	0.12	904732	keystroke_r	r	n/a
452.456	0.1345	904912	keystroke_e	e	n/a
452.6955	0.12	905391	keystroke_t	t	n/a
452.8005	0.15	905601	keystroke_a	a	n/a
452.9955	0.075	905991	keystroke_i	i	n/a
453.1905	0.105	906381	keystroke_l	l	n/a
453.3105	0.18	906621	keystroke_e	e	n/a
453.5205	0.15	907041	keystroke_r	r	n/a
453.8955	0.12	907791	keystroke_s	s	n/a
454.0905	0.1205	908181	keystroke_Key.space	Key.space	n/a
454.4655	0.12	908931	keystroke_s	s	n/a
454.7355	0.075	909471	keystroke_i	i	n/a
454.8855	0.105	909771	keystroke_l	l	n/a
455.1255	0.15	910251	keystroke_e	e	n/a
455.2605	0.06	910521	keystroke_n	n	n/a
455.3955	0.18	910791	keystroke_t	t	n/a
455.5605	0.165	911121	keystroke_Key.space	Key.space	n/a
455.8455	0.09	911691	keystroke_h	h	n/a
455.9805	0.285	911961	keystroke_e	e	n/a
456.0855	0.21	912171	keystroke_a	a	n/a
456.8655	0.09	913731	keystroke_d	d	n/a
457.0155	0.12	914031	keystroke_s	s	n/a
457.2705	0.075	914541	keystroke_Key.enter	Key.enter	n/a
457.3505	10.212	914701	prompt	n/a	mails voyuer participated denver\n
458.2905	0.09	916581	keystroke_m	m	n/a
458.4255	0.12	916851	keystroke_a	a	n/a
458.561	0.074	917122	keystroke_i	i	n/a
458.6655	0.1355	917331	keystroke_l	l	n/a
458.831	0.0895	917662	keystroke_s	s	n/a
459.22	0.135	918440	keystroke_Key.space	Key.space	n/a
459.776	0.044	919552	keystroke_v	v	n/a
460.3305	0.1055	920661	keystroke_o	o	n/a
461.4405	0.075	922881	keystroke_y	y	n/a
461.651	0.06	923302	keystroke_u	u	n/a
461.9355	0.12	923871	keystroke_e	e	n/a
462.1305	0.09	924261	keystroke_r	r	n/a
462.4005	0.09	924801	keystroke_Key.space	Key.space	n/a
462.6255	0.075	925251	keystroke_p	p	n/a
462.7305	0.165	925461	keystroke_a	a	n/a
463.3455	0.105	926691	keystroke_r	r	n/a
463.9305	0.09	927861	keystroke_t	t	n/a
464.1255	0.075	928251	keystroke_i	i	n/a
464.3205	0.15	928641	keystroke_c	c	n/a
464.4555	0.09	928911	keystroke_i	i	n/a
465.3105	0.09	930621	keystroke_p	p	n/a
465.4455	0.15	930891	keystroke_a	a	n/a
465.6105	0.15	931221	keystroke_t	t	n/a
465.7155	0.105	931431	keystroke_e	e	n/a
465.925	0.136	931850	keystroke_d	d	n/a
466.03	0.136	932060	keystroke_Key.space	Key.space	n/a
466.226	0.075	932452	keystroke_d	d	n/a
466.406	0.12	932812	keystroke_e	e	n/a
466.646	0.06	933292	keystroke_n	n	n/a
466.886	0.12	933772	keystroke_v	v	n/a
467.126	0.1345	934252	keystroke_e	e	n/a
467.201	0.1495	934402	keystroke_r	r	n/a
467.4855	0.075	934971	keystroke_Key.enter	Key.enter	n/a
467.566	6.9265	935132	prompt	n/a	graduate pakistan hacker class\n
468.1755	0.075	936351	keystroke_g	g	n/a
468.3705	0.12	936741	keystroke_r	r	n/a
468.4605	0.1805	936921	keystroke_a	a	n/a
468.671	0.12	937342	keystroke_d	d	n/a
469.106	0.06	938212	keystroke_u	u	n/a
469.271	0.135	938542	keystroke_a	a	n/a
469.421	0.135	938842	keystroke_t	t	n/a
469.511	0.135	939022	keystroke_e	e	n/a
469.931	0.135	939862	keystroke_Key.space	Key.space	n/a
470.351	0.105	940702	keystroke_p	p	n/a
470.576	0.12	941152	keystroke_a	a	n/a
470.711	0.075	941422	keystroke_k	k	n/a
470.966	0.045	941932	keystroke_i	i	n/a
471.131	0.135	942262	keystroke_s	s	n/a
471.341	0.1195	942682	keystroke_t	t	n/a
471.475	0.1655	942950	keystroke_a	a	n/a
471.7005	0.061	943401	keystroke_n	n	n/a
471.8655	0.09	943731	keystroke_Key.space	Key.space	n/a
472.3455	0.09	944691	keystroke_h	h	n/a
472.4805	0.1805	944961	keystroke_a	a	n/a
472.676	0.15	945352	keystroke_c	c	n/a
472.811	0.075	945622	keystroke_k	k	n/a
473.051	0.195	946102	keystroke_e	e	n/a
473.231	0.12	946462	keystroke_r	r	n/a
473.366	0.134	946732	keystroke_Key.space	Key.space	n/a
473.606	0.135	947212	keystroke_c	c	n/a
473.771	0.09	947542	keystroke_l	l	n/a
473.876	0.135	947752	keystroke_a	a	n/a
474.041	0.0895	948082	keystroke_s	s	n/a
474.2355	0.06	948471	keystroke_s	s	n/a
474.4005	0.09	948801	keystroke_Key.enter	Key.enter	n/a
474.495	9.342	948990	prompt	n/a	retain industries armenia respectively\n
475.2405	0.15	950481	keystroke_r	r	n/a
475.6155	0.09	951231	keystroke_e	e	n/a
475.7805	0.09	951561	keystroke_t	t	n/a
475.9155	0.15	951831	keystroke_a	a	n/a
476.0055	0.09	952011	keystroke_i	i	n/a
476.2455	0.06	952491	keystroke_n	n	n/a
476.4405	0.09	952881	keystroke_Key.space	Key.space	n/a
476.6955	0.075	953391	keystroke_i	i	n/a
476.8755	0.075	953751	keystroke_n	n	n/a
477.1455	0.075	954291	keystroke_d	d	n/a
477.2355	0.075	954471	keystroke_u	u	n/a
477.4305	0.135	954861	keystroke_s	s	n/a
477.5955	0.09	955191	keystroke_t	t	n/a
477.8655	0.105	955731	keystroke_r	r	n/a
478.0455	0.09	956091	keystroke_i	i	n/a
478.3155	0.195	956631	keystroke_e	e	n/a
478.4805	0.12	956961	keystroke_s	s	n/a
478.7205	0.12	957441	keystroke_Key.space	Key.space	n/a
479.0805	0.165	958161	keystroke_a	a	n/a
479.3055	0.06	958611	keystroke_r	r	n/a
479.5005	0.075	959001	keystroke_m	m	n/a
479.7855	0.15	959571	keystroke_e	e	n/a
479.9655	0.075	959931	keystroke_n	n	n/a
480.1755	0.06	960351	keystroke_i	i	n/a
480.2955	0.15	960591	keystroke_a	a	n/a
480.4605	0.1505	960921	keystroke_Key.space	Key.space	n/a
480.686	0.105	961372	keystroke_r	r	n/a
480.746	0.135	961492	keystroke_e	e	n/a
481.0905	0.12	962181	keystroke_s	s	n/a
481.2405	0.105	962481	keystroke_p	p	n/a
481.736	0.1045	963472	keystroke_e	e	n/a
481.9305	0.12	963861	keystroke_c	c	n/a
482.2155	0.15	964431	keystroke_t	t	n/a
482.651	0.09	965302	keystroke_i	i	n/a
483.041	0.105	966082	keystroke_v	v	n/a
483.221	0.09	966442	keystroke_e	e	n/a
483.326	0.106	966652	keystroke_l	l	n/a
483.506	0.075	967012	keystroke_y	y	n/a
483.776	0.059	967552	keystroke_Key.enter	Key.enter	n/a
483.8425	10.81	967685	prompt	n/a	findings algebra subdivision witch\n
484.435	0.106	968870	keystroke_f	f	n/a
484.556	0.075	969112	keystroke_i	i	n/a
484.736	0.089	969472	keystroke_n	n	n/a
484.8105	0.0755	969621	keystroke_d	d	n/a
485.531	0.075	971062	keystroke_i	i	n/a
485.726	0.075	971452	keystroke_n	n	n/a
485.786	0.09	971572	keystroke_g	g	n/a
486.056	0.135	972112	keystroke_s	s	n/a
486.251	0.1495	972502	keystroke_Key.space	Key.space	n/a
486.8205	0.105	973641	keystroke_a	a	n/a
486.9705	0.105	973941	keystroke_l	l	n/a
487.3755	0.0755	974751	keystroke_g	g	n/a
487.616	0.105	975232	keystroke_e	e	n/a
488.2305	0.105	976461	keystroke_b	b	n/a
488.5005	0.12	977001	keystroke_r	r	n/a
488.6055	0.18	977211	keystroke_a	a	n/a
488.8455	0.12	977691	keystroke_Key.space	Key.space	n/a
489.071	0.1045	978142	keystroke_s	s	n/a
489.2655	0.075	978531	keystroke_u	u	n/a
489.596	0.12	979192	keystroke_b	b	n/a
489.911	0.105	979822	keystroke_d	d	n/a
490.046	0.09	980092	keystroke_i	i	n/a
490.256	0.105	980512	keystroke_v	v	n/a
492.056	0.06	984112	keystroke_i	i	n/a
492.281	0.105	984562	keystroke_s	s	n/a
492.401	0.195	984802	keystroke_i	i	n/a
492.521	0.18	985042	keystroke_o	o	n/a
492.761	0.09	985522	keystroke_n	n	n/a
492.896	0.105	985792	keystroke_Key.space	Key.space	n/a
493.1805	0.135	986361	keystroke_w	w	n/a
493.7205	0.075	987441	keystroke_i	i	n/a
493.9305	0.06	987861	keystroke_t	t	n/a
494.1855	0.09	988371	keystroke_c	c	n/a
494.3355	0.06	988671	keystroke_h	h	n/a
494.5905	0.06	989181	keystroke_Key.enter	Key.enter	n/a
494.658	8.169	989316	prompt	n/a	bernard gaps wellness tires\n
495.4005	0.105	990801	keystroke_b	b	n/a
495.806	0.1945	991612	keystroke_e	e	n/a
495.9855	0.075	991971	keystroke_r	r	n/a
496.1805	0.09	992361	keystroke_n	n	n/a
496.3005	0.12	992601	keystroke_a	a	n/a
497.1855	0.091	994371	keystroke_r	r	n/a
497.4105	0.061	994821	keystroke_d	d	n/a
497.6205	0.121	995241	keystroke_Key.space	Key.space	n/a
499.918	0.0575	999836	keystroke_g	g	n/a
499.9905	0.135	999981	keystroke_a	a	n/a
500.1705	0.09	1000341	keystroke_p	p	n/a
500.2755	0.135	1000551	keystroke_s	s	n/a
500.4255	0.135	1000851	keystroke_Key.space	Key.space	n/a
500.6055	0.12	1001211	keystroke_w	w	n/a
500.7405	0.09	1001481	keystroke_e	e	n/a
501.0705	0.03	1002141	keystroke_l	l	n/a
501.2055	0.06	1002411	keystroke_l	l	n/a
501.4455	0.0305	1002891	keystroke_n	n	n/a
501.4605	0.1055	1002921	keystroke_e	e	n/a
501.626	0.09	1003252	keystroke_s	s	n/a
501.791	0.165	1003582	keystroke_s	s	n/a
501.911	0.135	1003822	keystroke_Key.space	Key.space	n/a
502.061	0.12	1004122	keystroke_t	t	n/a
502.196	0.09	1004392	keystroke_i	i	n/a
502.331	0.105	1004662	keystroke_r	r	n/a
502.376	0.195	1004752	keystroke_e	e	n/a
502.526	0.135	1005052	keystroke_s	s	n/a
502.766	0.06	1005532	keystroke_Key.enter	Key.enter	n/a
502.83	7.2125	1005660	prompt	n/a	fund bowling http ships\n
503.351	0.135	1006702	keystroke_f	f	n/a
503.501	0.075	1007002	keystroke_u	u	n/a
503.711	0.09	1007422	keystroke_n	n	n/a
503.786	0.135	1007572	keystroke_d	d	n/a
503.906	0.12	1007812	keystroke_Key.space	Key.space	n/a
504.311	0.105	1008622	keystroke_b	b	n/a
504.476	0.075	1008952	keystroke_o	o	n/a
504.656	0.105	1009312	keystroke_l	l	n/a
504.881	0.105	1009762	keystroke_w	w	n/a
505.6605	0.075	1011321	keystroke_Key.backspace	Key.backspace	n/a
505.8855	0.06	1011771	keystroke_Key.backspace	Key.backspace	n/a
506.2605	0.045	1012521	keystroke_w	w	n/a
506.4255	0.075	1012851	keystroke_l	l	n/a
506.5905	0.075	1013181	keystroke_i	i	n/a
506.7855	0.09	1013571	keystroke_n	n	n/a
506.8905	0.09	1013781	keystroke_g	g	n/a
506.9655	0.12	1013931	keystroke_Key.space	Key.space	n/a
507.2805	0.075	1014561	keystroke_h	h	n/a
507.7605	0.06	1015521	keystroke_t	t	n/a
508.361	0.105	1016722	keystroke_t	t	n/a
508.541	0.09	1017082	keystroke_p	p	n/a
508.826	0.075	1017652	keystroke_Key.space	Key.space	n/a
508.976	0.12	1017952	keystroke_s	s	n/a
509.111	0.06	1018222	keystroke_h	h	n/a
509.351	0.18	1018702	keystroke_i	i	n/a
509.561	0.135	1019122	keystroke_p	p	n/a
509.786	0.09	1019572	keystroke_s	s	n/a
509.981	0.06	1019962	keystroke_Key.enter	Key.enter	n/a
510.047	5.7555	1020094	prompt	n/a	back flow compliant banking\n
510.791	0.1345	1021582	keystroke_b	b	n/a
510.9555	0.165	1021911	keystroke_a	a	n/a
511.1355	0.1205	1022271	keystroke_c	c	n/a
511.256	0.075	1022512	keystroke_k	k	n/a
511.391	0.105	1022782	keystroke_Key.space	Key.space	n/a
511.541	0.105	1023082	keystroke_f	f	n/a
511.691	0.09	1023382	keystroke_l	l	n/a
511.886	0.09	1023772	keystroke_o	o	n/a
511.976	0.12	1023952	keystroke_w	w	n/a
512.156	0.15	1024312	keystroke_Key.space	Key.space	n/a
512.5905	0.12	1025181	keystroke_c	c	n/a
512.7105	0.1355	1025421	keystroke_o	o	n/a
512.8755	0.12	1025751	keystroke_m	m	n/a
513.131	0.09	1026262	keystroke_p	p	n/a
513.7605	0.075	1027521	keystroke_l	l	n/a
513.9255	0.075	1027851	keystroke_i	i	n/a
514.0455	0.15	1028091	keystroke_a	a	n/a
514.2405	0.045	1028481	keystroke_n	n	n/a
514.3005	0.12	1028601	keystroke_t	t	n/a
514.4355	0.1055	1028871	keystroke_Key.space	Key.space	n/a
514.616	0.105	1029232	keystroke_b	b	n/a
514.751	0.135	1029502	keystroke_a	a	n/a
514.901	0.1505	1029802	keystroke_n	n	n/a
515.0215	0.12	1030043	keystroke_k	k	n/a
515.2615	0.06	1030523	keystroke_i	i	n/a
515.3965	0.1345	1030793	keystroke_n	n	n/a
515.5465	0.0895	1031093	keystroke_g	g	n/a
515.711	0.09	1031422	keystroke_Key.enter	Key.enter	n/a
515.806	5.9515	1031612	prompt	n/a	taxi heavily leading down\n
516.4165	0.12	1032833	keystroke_t	t	n/a
516.5655	0.165	1033131	keystroke_a	a	n/a
516.9105	0.12	1033821	keystroke_x	x	n/a
517.1365	0.075	1034273	keystroke_i	i	n/a
517.2865	0.104	1034573	keystroke_Key.space	Key.space	n/a
517.7505	0.06	1035501	keystroke_h	h	n/a
517.8705	0.15	1035741	keystroke_e	e	n/a
517.9755	0.135	1035951	keystroke_a	a	n/a
518.2905	0.12	1036581	keystroke_v	v	n/a
518.6815	0.074	1037363	keystroke_i	i	n/a
518.8305	0.136	1037661	keystroke_l	l	n/a
519.0255	0.0605	1038051	keystroke_y	y	n/a
519.131	0.135	1038262	keystroke_Key.space	Key.space	n/a
519.926	0.18	1039852	keystroke_l	l	n/a
520.091	0.135	1040182	keystroke_e	e	n/a
520.196	0.165	1040392	keystroke_a	a	n/a
520.346	0.12	1040692	keystroke_d	d	n/a
520.526	0.075	1041052	keystroke_i	i	n/a
520.736	0.06	1041472	keystroke_n	n	n/a
520.781	0.1205	1041562	keystroke_g	g	n/a
520.8865	0.12	1041773	keystroke_Key.space	Key.space	n/a
521.0965	0.12	1042193	keystroke_d	d	n/a
521.2315	0.09	1042463	keystroke_o	o	n/a
521.3365	0.09	1042673	keystroke_w	w	n/a
521.4865	0.06	1042973	keystroke_n	n	n/a
521.7115	0.0445	1043423	keystroke_Key.enter	Key.enter	n/a
521.76	6.133	1043520	prompt	n/a	paperback ultimately occurs keno\n
522.416	0.105	1044832	keystroke_p	p	n/a
522.536	0.12	1045072	keystroke_a	a	n/a
522.701	0.09	1045402	keystroke_p	p	n/a
522.851	0.165	1045702	keystroke_e	e	n/a
523.001	0.06	1046002	keystroke_r	r	n/a
523.421	0.1195	1046842	keystroke_b	b	n/a
523.5705	0.165	1047141	keystroke_a	a	n/a
523.7505	0.135	1047501	keystroke_c	c	n/a
523.9005	0.06	1047801	keystroke_k	k	n/a
523.9905	0.105	1047981	keystroke_Key.space	Key.space	n/a
524.2605	0.06	1048521	keystroke_u	u	n/a
524.531	0.075	1049062	keystroke_l	l	n/a
524.726	0.0905	1049452	keystroke_t	t	n/a
524.8465	0.0745	1049693	keystroke_i	i	n/a
525.056	0.075	1050112	keystroke_m	m	n/a
525.146	0.1355	1050292	keystroke_a	a	n/a
525.266	0.1355	1050532	keystroke_t	t	n/a
525.3715	0.135	1050743	keystroke_e	e	n/a
525.5065	0.1045	1051013	keystroke_l	l	n/a
525.7165	0.06	1051433	keystroke_y	y	n/a
525.8365	0.105	1051673	keystroke_Key.space	Key.space	n/a
525.9565	0.104	1051913	keystroke_o	o	n/a
526.1515	0.075	1052303	keystroke_c	c	n/a
526.2865	0.104	1052573	keystroke_c	c	n/a
526.556	0.015	1053112	keystroke_u	u	n/a
526.586	0.12	1053172	keystroke_r	r	n/a
526.721	0.1205	1053442	keystroke_Key.space	Key.space	n/a
527.0065	0.075	1054013	keystroke_k	k	n/a
527.1555	0.105	1054311	keystroke_e	e	n/a
527.2755	0.075	1054551	keystroke_n	n	n/a
527.4855	0.061	1054971	keystroke_o	o	n/a
527.8005	0.09	1055601	keystroke_Key.enter	Key.enter	n/a
527.898	10.6	1055796	prompt	n/a	suffering train girls violin\n
528.4905	0.1055	1056981	keystroke_s	s	n/a
528.626	0.09	1057252	keystroke_u	u	n/a
528.776	0.075	1057552	keystroke_f	f	n/a
528.926	0.105	1057852	keystroke_f	f	n/a
529.076	0.15	1058152	keystroke_e	e	n/a
529.181	0.135	1058362	keystroke_r	r	n/a
529.286	0.105	1058572	keystroke_e	e	n/a
529.346	0.09	1058692	keystroke_i	i	n/a
529.541	0.09	1059082	keystroke_n	n	n/a
529.601	0.1045	1059202	keystroke_g	g	n/a
529.676	0.1495	1059352	keystroke_Key.space	Key.space	n/a
529.8705	0.1505	1059741	keystroke_t	t	n/a
530.426	0.06	1060852	keystroke_Key.backspace	Key.backspace	n/a
530.6505	0.061	1061301	keystroke_Key.backspace	Key.backspace	n/a
530.9355	0.045	1061871	keystroke_Key.backspace	Key.backspace	n/a
531.3555	0.061	1062711	keystroke_Key.backspace	Key.backspace	n/a
531.7155	0.045	1063431	keystroke_Key.backspace	Key.backspace	n/a
532.046	0.045	1064092	keystroke_Key.backspace	Key.backspace	n/a
532.556	0.0595	1065112	keystroke_i	i	n/a
532.6905	0.09	1065381	keystroke_n	n	n/a
532.7505	0.1205	1065501	keystroke_g	g	n/a
532.8405	0.1355	1065681	keystroke_Key.space	Key.space	n/a
534.161	0.15	1068322	keystroke_t	t	n/a
534.716	0.105	1069432	keystroke_r	r	n/a
534.851	0.135	1069702	keystroke_a	a	n/a
534.941	0.09	1069882	keystroke_i	i	n/a
535.211	0.015	1070422	keystroke_n	n	n/a
535.331	0.09	1070662	keystroke_Key.space	Key.space	n/a
535.721	0.06	1071442	keystroke_g	g	n/a
535.841	0.09	1071682	keystroke_i	i	n/a
535.961	0.12	1071922	keystroke_r	r	n/a
536.111	0.105	1072222	keystroke_l	l	n/a
536.231	0.1045	1072462	keystroke_s	s	n/a
536.3665	0.104	1072733	keystroke_Key.space	Key.space	n/a
536.6955	0.15	1073391	keystroke_v	v	n/a
536.9955	0.075	1073991	keystroke_i	i	n/a
537.2205	0.045	1074441	keystroke_o	o	n/a
537.8805	0.105	1075761	keystroke_l	l	n/a
538.0605	0.0755	1076121	keystroke_i	i	n/a
538.256	0.06	1076512	keystroke_n	n	n/a
538.451	0.045	1076902	keystroke_Key.enter	Key.enter	n/a
538.501	13.1065	1077002	prompt	n/a	phil drivers volkswagen satisfaction\n
539.4865	0.104	1078973	keystroke_p	p	n/a
539.6955	0.061	1079391	keystroke_h	h	n/a
539.8465	0.15	1079693	keystroke_i	i	n/a
540.0865	0.105	1080173	keystroke_l	l	n/a
540.1915	0.135	1080383	keystroke_Key.space	Key.space	n/a
540.3415	0.075	1080683	keystroke_d	d	n/a
540.641	0.06	1081282	keystroke_r	r	n/a
541.226	0.06	1082452	keystroke_i	i	n/a
541.406	0.06	1082812	keystroke_b	b	n/a
541.616	0.21	1083232	keystroke_e	e	n/a
541.736	0.135	1083472	keystroke_r	r	n/a
542.321	0.075	1084642	keystroke_Key.backspace	Key.backspace	n/a
542.696	0.06	1085392	keystroke_Key.backspace	Key.backspace	n/a
542.9965	0.074	1085993	keystroke_Key.backspace	Key.backspace	n/a
543.0855	0.09	1086171	keystroke_v	v	n/a
543.2655	0.1505	1086531	keystroke_e	e	n/a
543.356	0.12	1086712	keystroke_r	r	n/a
543.536	0.12	1087072	keystroke_s	s	n/a
543.896	0.135	1087792	keystroke_Key.space	Key.space	n/a
544.346	0.15	1088692	keystroke_v	v	n/a
544.541	0.1045	1089082	keystroke_o	o	n/a
544.7805	0.106	1089561	keystroke_l	l	n/a
545.5455	0.075	1091091	keystroke_k	k	n/a
545.786	0.105	1091572	keystroke_s	s	n/a
546.341	0.12	1092682	keystroke_w	w	n/a
546.5655	0.165	1093131	keystroke_a	a	n/a
547.061	0.045	1094122	keystroke_g	g	n/a
547.226	0.09	1094452	keystroke_e	e	n/a
547.376	0.06	1094752	keystroke_n	n	n/a
547.481	0.09	1094962	keystroke_Key.space	Key.space	n/a
547.646	0.15	1095292	keystroke_s	s	n/a
548.396	0.12	1096792	keystroke_a	a	n/a
548.621	0.075	1097242	keystroke_t	t	n/a
549.266	0.06	1098532	keystroke_i	i	n/a
549.506	0.09	1099012	keystroke_s	s	n/a
549.761	0.135	1099522	keystroke_f	f	n/a
550.241	0.21	1100482	keystroke_a	a	n/a
550.496	0.1055	1100992	keystroke_c	c	n/a
550.7815	0.12	1101563	keystroke_t	t	n/a
550.9465	0.284	1101893	keystroke_i	i	n/a
551.0955	0.24	1102191	keystroke_o	o	n/a
551.3055	0.09	1102611	keystroke_n	n	n/a
551.5305	0.075	1103061	keystroke_Key.enter	Key.enter	n/a
551.6105	13.017	1103221	prompt	n/a	uzbekistan legislative description alike\n
552.3855	0.075	1104771	keystroke_u	u	n/a
552.836	0.105	1105672	keystroke_z	z	n/a
553.196	0.135	1106392	keystroke_b	b	n/a
553.526	0.09	1107052	keystroke_e	e	n/a
553.766	0.09	1107532	keystroke_k	k	n/a
554.051	0.075	1108102	keystroke_i	i	n/a
554.201	0.135	1108402	keystroke_s	s	n/a
554.426	0.1205	1108852	keystroke_t	t	n/a
554.5615	0.135	1109123	keystroke_a	a	n/a
554.6965	0.06	1109393	keystroke_n	n	n/a
554.7865	0.135	1109573	keystroke_Key.space	Key.space	n/a
554.9815	0.12	1109963	keystroke_l	l	n/a
555.1165	0.12	1110233	keystroke_e	e	n/a
555.4015	0.075	1110803	keystroke_g	g	n/a
556.046	0.075	1112092	keystroke_i	i	n/a
557.3215	0.09	1114643	keystroke_s	s	n/a
557.5165	0.105	1115033	keystroke_l	l	n/a
557.6065	0.105	1115213	keystroke_a	a	n/a
557.9965	0.105	1115993	keystroke_t	t	n/a
558.1165	0.09	1116233	keystroke_i	i	n/a
558.2665	0.12	1116533	keystroke_v	v	n/a
558.5065	0.12	1117013	keystroke_e	e	n/a
558.6105	0.136	1117221	keystroke_Key.space	Key.space	n/a
558.7755	0.076	1117551	keystroke_d	d	n/a
558.9565	0.12	1117913	keystroke_e	e	n/a
559.1965	0.105	1118393	keystroke_s	s	n/a
559.3615	0.105	1118723	keystroke_c	c	n/a
559.6155	0.09	1119231	keystroke_r	r	n/a
559.7655	0.15	1119531	keystroke_i	i	n/a
560.1715	0.075	1120343	keystroke_p	p	n/a
560.3515	0.06	1120703	keystroke_t	t	n/a
560.621	0.21	1121242	keystroke_i	i	n/a
560.741	0.18	1121482	keystroke_o	o	n/a
560.906	0.105	1121812	keystroke_n	n	n/a
561.056	0.105	1122112	keystroke_Key.space	Key.space	n/a
561.206	0.15	1122412	keystroke_a	a	n/a
561.371	0.09	1122742	keystroke_l	l	n/a
561.806	0.075	1123612	keystroke_k	k	n/a
561.956	0.075	1123912	keystroke_i	i	n/a
562.151	0.09	1124302	keystroke_k	k	n/a
562.571	0.06	1125142	keystroke_Key.backspace	Key.backspace	n/a
563.0805	0.075	1126161	keystroke_Key.backspace	Key.backspace	n/a
563.7555	0.06	1127511	keystroke_Key.backspace	Key.backspace	n/a
564.0255	0.06	1128051	keystroke_i	i	n/a
564.1755	0.09	1128351	keystroke_k	k	n/a
564.3255	0.105	1128651	keystroke_e	e	n/a
564.581	0.045	1129162	keystroke_Key.enter	Key.enter	n/a
564.6305	8.0975	1129261	prompt	n/a	devel peoples somebody's hired\n
565.301	0.046	1130602	keystroke_d	d	n/a
565.421	0.12	1130842	keystroke_e	e	n/a
566.096	0.09	1132192	keystroke_v	v	n/a
566.321	0.09	1132642	keystroke_e	e	n/a
566.5765	0.0895	1133153	keystroke_l	l	n/a
566.7865	0.075	1133573	keystroke_Key.space	Key.space	n/a
567.0265	0.075	1134053	keystroke_p	p	n/a
567.1165	0.105	1134233	keystroke_e	e	n/a
567.2365	0.18	1134473	keystroke_o	o	n/a
567.4015	0.075	1134803	keystroke_p	p	n/a
567.5965	0.135	1135193	keystroke_l	l	n/a
567.7165	0.09	1135433	keystroke_e	e	n/a
567.8965	0.12	1135793	keystroke_s	s	n/a
568.0615	0.105	1136123	keystroke_Key.space	Key.space	n/a
568.4965	0.12	1136993	keystroke_s	s	n/a
568.5865	0.15	1137173	keystroke_o	o	n/a
568.7515	0.09	1137503	keystroke_m	m	n/a
569.2465	0.06	1138493	keystroke_e	e	n/a
569.5015	0.105	1139003	keystroke_d	d	n/a
570.0115	0.075	1140023	keystroke_Key.backspace	Key.backspace	n/a
570.1915	0.09	1140383	keystroke_b	b	n/a
570.3115	0.105	1140623	keystroke_o	o	n/a
570.4315	0.09	1140863	keystroke_d	d	n/a
570.5965	0.075	1141193	keystroke_y	y	n/a
571.421	0.075	1142842	keystroke_'	'	n/a
571.526	0.105	1143052	keystroke_s	s	n/a
571.632	0.134	1143264	keystroke_Key.space	Key.space	n/a
571.811	0.0895	1143622	keystroke_h	h	n/a
571.9765	0.104	1143953	keystroke_i	i	n/a
572.1865	0.134	1144373	keystroke_r	r	n/a
572.2755	0.091	1144551	keystroke_e	e	n/a
572.4715	0.09	1144943	keystroke_d	d	n/a
572.6665	0.06	1145333	keystroke_Key.enter	Key.enter	n/a
572.731	9.837	1145462	prompt	n/a	enhanced cotton engineering href\n
573.3715	0.075	1146743	keystroke_e	e	n/a
573.5065	0.0745	1147013	keystroke_n	n	n/a
573.716	0.075	1147432	keystroke_h	h	n/a
573.806	0.15	1147612	keystroke_a	a	n/a
573.941	0.09	1147882	keystroke_n	n	n/a
574.091	0.165	1148182	keystroke_c	c	n/a
574.241	0.105	1148482	keystroke_e	e	n/a
574.466	0.0905	1148932	keystroke_d	d	n/a
574.6015	0.06	1149203	keystroke_Key.space	Key.space	n/a
574.811	0.1355	1149622	keystroke_c	c	n/a
574.9915	0.045	1149983	keystroke_o	o	n/a
575.1265	0.06	1150253	keystroke_t	t	n/a
575.3065	0.06	1150613	keystroke_t	t	n/a
575.3815	0.15	1150763	keystroke_o	o	n/a
575.5915	0.09	1151183	keystroke_n	n	n/a
575.7255	0.061	1151451	keystroke_Key.space	Key.space	n/a
575.9065	0.105	1151813	keystroke_e	e	n/a
576.0415	0.075	1152083	keystroke_n	n	n/a
576.416	0.09	1152832	keystroke_g	g	n/a
576.551	0.0755	1153102	keystroke_i	i	n/a
576.8215	0.0745	1153643	keystroke_n	n	n/a
577.241	0.105	1154482	keystroke_e	e	n/a
577.646	0.1055	1155292	keystroke_e	e	n/a
577.7965	0.12	1155593	keystroke_r	r	n/a
577.9315	0.045	1155863	keystroke_i	i	n/a
578.1265	0.075	1156253	keystroke_n	n	n/a
578.1565	0.135	1156313	keystroke_g	g	n/a
578.3065	0.119	1156613	keystroke_Key.space	Key.space	n/a
578.6665	0.075	1157333	keystroke_h	h	n/a
579.0565	0.12	1158113	keystroke_e	e	n/a
579.2815	0.0745	1158563	keystroke_r	r	n/a
579.566	0.105	1159132	keystroke_f	f	n/a
580.271	0.06	1160542	keystroke_Key.backspace	Key.backspace	n/a
580.6615	0.045	1161323	keystroke_Key.backspace	Key.backspace	n/a
581.0665	0.06	1162133	keystroke_Key.backspace	Key.backspace	n/a
581.1565	0.12	1162313	keystroke_r	r	n/a
581.2615	0.075	1162523	keystroke_e	e	n/a
581.4565	0.105	1162913	keystroke_f	f	n/a
582.506	0.06	1165012	keystroke_Key.enter	Key.enter	n/a
582.571	14.1725	1165142	prompt	n/a	barn phantom characteristic motivated\n
