onset	duration	sample	value	key	prompt_text
2.2085	12.744	4417	prompt	n/a	the quick brown fox jumps over a lazy dog\n
4.243	0.058	8486	keystroke	t	n/a
4.3465	0.105	8693	keystroke	h	n/a
4.5115	0.12	9023	keystroke	e	n/a
4.6465	0.134	9293	keystroke	Key.space	n/a
4.9005	0.12	9801	keystroke	q	n/a
5.83	0.06	11660	keystroke	u	n/a
6.025	0.075	12050	keystroke	i	n/a
6.46	0.06	12920	keystroke	k	n/a
6.94	0.075	13880	keystroke	Key.backspace	n/a
7.12	0.1495	14240	keystroke	c	n/a
7.705	0.06	15410	keystroke	k	n/a
8.11	0.06	16220	keystroke	Key.space	n/a
8.6495	0.1355	17299	keystroke	b	n/a
8.9195	0.12	17839	keystroke	r	n/a
9.1295	0.15	18259	keystroke	o	n/a
9.2945	0.1055	18589	keystroke	w	n/a
9.535	0.18	19070	keystroke	n	n/a
9.7	0.12	19400	keystroke	Key.space	n/a
9.895	0.135	19790	keystroke	f	n/a
10	0.15	20000	keystroke	o	n/a
10.315	0.015	20630	keystroke	x	n/a
10.69	0.075	21380	keystroke	Key.space	n/a
10.87	0.105	21740	keystroke	j	n/a
11.065	0.105	22130	keystroke	u	n/a
11.335	0.165	22670	keystroke	m	n/a
11.485	0.105	22970	keystroke	p	n/a
11.7395	0.12	23479	keystroke	s	n/a
11.9195	0.105	23839	keystroke	Key.space	n/a
12.055	0.1345	24110	keystroke	o	n/a
12.2495	0.1205	24499	keystroke	v	n/a
12.445	0.195	24890	keystroke	e	n/a
12.595	0.12	25190	keystroke	r	n/a
12.745	0.105	25490	keystroke	Key.space	n/a
12.835	0.12	25670	keystroke	a	n/a
12.94	0.12	25880	keystroke	Key.space	n/a
13.075	0.165	26150	keystroke	l	n/a
13.195	0.105	26390	keystroke	a	n/a
13.555	0.15	27110	keystroke	z	n/a
13.81	0.1795	27620	keystroke	y	n/a
13.9595	0.12	27919	keystroke	Key.space	n/a
14.2295	0.135	28459	keystroke	d	n/a
14.3345	0.15	28669	keystroke	o	n/a
14.6195	0.105	29239	keystroke	g	n/a
14.8295	0.12	29659	keystroke	Key.enter	n/a
14.9635	9.116	29927	prompt	n/a	guards magnificent junior staff\n
15.6395	0.135	31279	keystroke	g	n/a
16.0295	0.105	32059	keystroke	u	n/a
16.4345	0.135	32869	keystroke	a	n/a
16.6595	0.105	33319	keystroke	r	n/a
16.9595	0.1205	33919	keystroke	d	n/a
17.185	0.1345	34370	keystroke	s	n/a
17.3345	0.105	34669	keystroke	Key.space	n/a
17.5895	0.135	35179	keystroke	m	n/a
17.7095	0.105	35419	keystroke	a	n/a
18.1295	0.075	36259	keystroke	g	n/a
18.3095	0.21	36619	keystroke	n	n/a
18.4745	0.12	36949	keystroke	i	n/a
18.7745	0.12	37549	keystroke	f	n/a
18.9095	0.09	37819	keystroke	i	n/a
19.2245	0.105	38449	keystroke	c	n/a
19.45	0.105	38900	keystroke	i	n/a
20.17	0.105	40340	keystroke	Key.backspace	n/a
20.32	0.15	40640	keystroke	e	n/a
20.485	0.075	40970	keystroke	n	n/a
20.665	0.105	41330	keystroke	t	n/a
20.83	0.135	41660	keystroke	Key.space	n/a
21.16	0.135	42320	keystroke	j	n/a
21.49	0.09	42980	keystroke	u	n/a
21.7745	0.21	43549	keystroke	n	n/a
21.8945	0.135	43789	keystroke	i	n/a
22.4195	0.09	44839	keystroke	o	n/a
22.6295	0.105	45259	keystroke	r	n/a
22.7795	0.105	45559	keystroke	Key.space	n/a
23.0345	0.165	46069	keystroke	s	n/a
23.2145	0.18	46429	keystroke	t	n/a
23.3795	0.12	46759	keystroke	a	n/a
23.6195	0.1055	47239	keystroke	f	n/a
23.8	0.12	47600	keystroke	f	n/a
23.98	0.09	47960	keystroke	Key.enter	n/a
24.084	11.533	48168	prompt	n/a	organisations assignment corresponding double\n
24.8195	0.1205	49639	keystroke	o	n/a
25.045	0.09	50090	keystroke	r	n/a
25.3	0.15	50600	keystroke	g	n/a
25.435	0.1045	50870	keystroke	a	n/a
25.5845	0.196	51169	keystroke	n	n/a
25.7345	0.121	51469	keystroke	i	n/a
25.9895	0.181	51979	keystroke	s	n/a
26.1395	0.12	52279	keystroke	a	n/a
26.2895	0.121	52579	keystroke	t	n/a
26.3645	0.27	52729	keystroke	i	n/a
26.4555	0.164	52911	keystroke	o	n/a
26.6055	0.104	53211	keystroke	n	n/a
26.7695	0.1055	53539	keystroke	s	n/a
26.95	0.105	53900	keystroke	Key.space	n/a
27.085	0.09	54170	keystroke	a	n/a
27.5045	0.075	55009	keystroke	s	n/a
27.6845	0.1205	55369	keystroke	s	n/a
27.79	0.06	55580	keystroke	i	n/a
28.525	0.09	57050	keystroke	g	n/a
28.675	0.105	57350	keystroke	n	n/a
29.26	0.105	58520	keystroke	m	n/a
29.366	0.149	58732	keystroke	e	n/a
29.5445	0.045	59089	keystroke	n	n/a
29.7095	0.105	59419	keystroke	t	n/a
30.0095	0.06	60019	keystroke	Key.space	n/a
30.4895	0.1055	60979	keystroke	c	n/a
30.5795	0.09	61159	keystroke	o	n/a
30.7745	0.09	61549	keystroke	r	n/a
30.9395	0.18	61879	keystroke	r	n/a
31.0895	0.15	62179	keystroke	e	n/a
31.3895	0.12	62779	keystroke	s	n/a
32.5	0.1355	65000	keystroke	p	n/a
32.7405	0.15	65481	keystroke	o	n/a
32.9355	0.12	65871	keystroke	n	n/a
33.1455	0.12	66291	keystroke	d	n/a
33.2805	0.075	66561	keystroke	i	n/a
33.4605	0.135	66921	keystroke	n	n/a
33.6555	0.135	67311	keystroke	g	n/a
33.8055	0.09	67611	keystroke	Key.space	n/a
34.1945	0.121	68389	keystroke	d	n/a
34.3905	0.1495	68781	keystroke	o	n/a
34.541	0.119	69082	keystroke	u	n/a
35.005	0.09	70010	keystroke	b	n/a
35.125	0.12	70250	keystroke	l	n/a
35.26	0.12	70520	keystroke	e	n/a
35.515	0.09	71030	keystroke	Key.enter	n/a
35.6235	9.898	71247	prompt	n/a	shock merchandise indicator afraid\n
36.28	0.1495	72560	keystroke	s	n/a
36.3695	0.21	72739	keystroke	h	n/a
36.4895	0.15	72979	keystroke	o	n/a
36.7445	0.12	73489	keystroke	c	n/a
36.8945	0.165	73789	keystroke	k	n/a
37.0445	0.105	74089	keystroke	Key.space	n/a
37.3145	0.135	74629	keystroke	m	n/a
37.3745	0.21	74749	keystroke	e	n/a
37.5395	0.105	75079	keystroke	r	n/a
37.8995	0.03	75799	keystroke	c	n/a
38.4545	0.045	76909	keystroke	h	n/a
38.5145	0.105	77029	keystroke	a	n/a
39.0845	0.105	78169	keystroke	n	n/a
39.5045	0.105	79009	keystroke	s	n/a
39.85	0.105	79700	keystroke	Key.backspace	n/a
39.94	0.15	79880	keystroke	d	n/a
40.15	0.12	80300	keystroke	i	n/a
40.495	0.24	80990	keystroke	s	n/a
40.69	0.18	81380	keystroke	e	n/a
40.93	0.165	81860	keystroke	Key.space	n/a
41.096	0.149	82192	keystroke	i	n/a
41.32	0.03	82640	keystroke	n	n/a
41.7395	0.135	83479	keystroke	d	n/a
41.8595	0.105	83719	keystroke	i	n/a
42.2955	0.134	84591	keystroke	c	n/a
42.5195	0.135	85039	keystroke	a	n/a
42.6845	0.136	85369	keystroke	t	n/a
42.8945	0.1505	85789	keystroke	o	n/a
43.06	0.105	86120	keystroke	r	n/a
43.2095	0.09	86419	keystroke	Key.space	n/a
43.3895	0.12	86779	keystroke	a	n/a
43.5695	0.12	87139	keystroke	f	n/a
43.8545	0.135	87709	keystroke	r	n/a
44.0495	0.105	88099	keystroke	a	n/a
44.2595	0.105	88519	keystroke	i	n/a
44.4095	0.105	88819	keystroke	e	n/a
44.8145	0.12	89629	keystroke	Key.backspace	n/a
44.9805	0.135	89961	keystroke	d	n/a
45.4445	0.075	90889	keystroke	Key.enter	n/a
45.5275	8.2445	91055	prompt	n/a	tablets conservation largest deal\n
46.2395	0.135	92479	keystroke	t	n/a
46.4195	0.135	92839	keystroke	a	n/a
46.6745	0.105	93349	keystroke	b	n/a
46.8095	0.15	93619	keystroke	l	n/a
46.9145	0.105	93829	keystroke	e	n/a
47.3945	0.09	94789	keystroke	t	n/a
47.6495	0.12	95299	keystroke	s	n/a
47.7845	0.075	95569	keystroke	Key.space	n/a
47.9345	0.15	95869	keystroke	c	n/a
48.0695	0.12	96139	keystroke	o	n/a
48.7145	0.105	97429	keystroke	n	n/a
48.9845	0.165	97969	keystroke	s	n/a
49.1345	0.225	98269	keystroke	e	n/a
49.3145	0.105	98629	keystroke	r	n/a
49.57	0.1795	99140	keystroke	v	n/a
49.7345	0.12	99469	keystroke	a	n/a
49.8995	0.15	99799	keystroke	t	n/a
50.02	0.3	100040	keystroke	i	n/a
50.095	0.2095	100190	keystroke	o	n/a
50.275	0.2695	100550	keystroke	n	n/a
50.485	0.1495	100970	keystroke	Key.space	n/a
50.7395	0.15	101479	keystroke	l	n/a
50.8145	0.135	101629	keystroke	a	n/a
51.0845	0.075	102169	keystroke	r	n/a
51.3105	0.15	102621	keystroke	g	n/a
51.4455	0.135	102891	keystroke	e	n/a
51.6855	0.1945	103371	keystroke	s	n/a
51.82	0.105	103640	keystroke	t	n/a
51.985	0.135	103970	keystroke	Key.space	n/a
52.75	0.105	105500	keystroke	d	n/a
52.945	0.12	105890	keystroke	e	n/a
53.14	0.105	106280	keystroke	a	n/a
53.32	0.105	106640	keystroke	l	n/a
53.68	0.0895	107360	keystroke	Key.enter	n/a
53.776	7.5855	107552	prompt	n/a	accredited detailed tenant degree\n
54.6095	0.09	109219	keystroke	a	n/a
54.8195	0.075	109639	keystroke	c	n/a
54.9845	0.105	109969	keystroke	c	n/a
55.2245	0.15	110449	keystroke	r	n/a
55.3295	0.12	110659	keystroke	e	n/a
55.6295	0.09	111259	keystroke	d	n/a
55.8845	0.105	111769	keystroke	i	n/a
56.0345	0.12	112069	keystroke	t	n/a
56.2295	0.12	112459	keystroke	e	n/a
56.5	0.12	113000	keystroke	d	n/a
56.74	0.15	113480	keystroke	Key.space	n/a
57.04	0.09	114080	keystroke	d	n/a
57.235	0.15	114470	keystroke	e	n/a
57.4	0.18	114800	keystroke	t	n/a
57.55	0.135	115100	keystroke	a	n/a
57.715	0.105	115430	keystroke	i	n/a
57.94	0.165	115880	keystroke	l	n/a
58.06	0.09	116120	keystroke	e	n/a
58.285	0.12	116570	keystroke	d	n/a
58.39	0.09	116780	keystroke	Key.space	n/a
58.525	0.12	117050	keystroke	t	n/a
58.63	0.165	117260	keystroke	e	n/a
58.78	0.09	117560	keystroke	n	n/a
59.065	0.105	118130	keystroke	a	n/a
59.215	0.12	118430	keystroke	n	n/a
59.365	0.105	118730	keystroke	t	n/a
59.65	0.0745	119300	keystroke	Key.space	n/a
59.8595	0.075	119719	keystroke	d	n/a
60.0695	0.105	120139	keystroke	e	n/a
60.4295	0.06	120859	keystroke	g	n/a
60.6695	0.09	121339	keystroke	r	n/a
60.7445	0.105	121489	keystroke	e	n/a
61	0.105	122000	keystroke	e	n/a
61.24	0.12	122480	keystroke	Key.enter	n/a
61.3645	11.5575	122729	prompt	n/a	hockey earliest chance checkout\n
62.065	0.075	124130	keystroke	h	n/a
62.185	0.09	124370	keystroke	a	n/a
62.38	0.105	124760	keystroke	o	n/a
62.725	0.09	125450	keystroke	Key.backspace	n/a
62.89	0.12	125780	keystroke	Key.backspace	n/a
64.72	0.135	129440	keystroke	o	n/a
65.08	0.045	130160	keystroke	c	n/a
65.275	0.075	130550	keystroke	k	n/a
65.44	0.12	130880	keystroke	e	n/a
65.6195	0.075	131239	keystroke	y	n/a
66.1445	0.12	132289	keystroke	Key.space	n/a
66.43	0.105	132860	keystroke	e	n/a
66.655	0.12	133310	keystroke	a	n/a
66.925	0.105	133850	keystroke	r	n/a
67.435	0.15	134870	keystroke	l	n/a
67.675	0.075	135350	keystroke	i	n/a
67.87	0.105	135740	keystroke	e	n/a
68.335	0.15	136670	keystroke	s	n/a
68.589	0.121	137178	keystroke	t	n/a
68.739	0.1355	137478	keystroke	Key.space	n/a
69.0245	0.1805	138049	keystroke	c	n/a
69.175	0.119	138350	keystroke	h	n/a
69.279	0.136	138558	keystroke	a	n/a
69.43	0.135	138860	keystroke	n	n/a
69.835	0.12	139670	keystroke	c	n/a
70.09	0.1345	140180	keystroke	e	n/a
70.269	0.09	140538	keystroke	Key.space	n/a
70.5545	0.135	141109	keystroke	c	n/a
70.9295	0.105	141859	keystroke	h	n/a
71.0795	0.105	142159	keystroke	e	n/a
71.3345	0.15	142669	keystroke	c	n/a
71.4995	0.105	142999	keystroke	k	n/a
71.8745	0.181	143749	keystroke	o	n/a
71.9795	0.135	143959	keystroke	u	n/a
72.1295	0.135	144259	keystroke	t	n/a
72.8045	0.105	145609	keystroke	Key.enter	n/a
72.928	8.3915	145856	prompt	n/a	black ceremony assessed corner\n
73.6595	0.1205	147319	keystroke	b	n/a
73.825	0.12	147650	keystroke	l	n/a
73.96	0.09	147920	keystroke	a	n/a
74.185	0.15	148370	keystroke	c	n/a
74.365	0.15	148730	keystroke	k	n/a
74.5	0.12	149000	keystroke	Key.space	n/a
74.7245	0.09	149449	keystroke	c	n/a
74.9495	0.15	149899	keystroke	e	n/a
75.0695	0.105	150139	keystroke	r	n/a
75.7445	0.12	151489	keystroke	e	n/a
75.9995	0.18	151999	keystroke	m	n/a
76.1495	0.195	152299	keystroke	o	n/a
76.3295	0.15	152659	keystroke	n	n/a
76.4345	0.12	152869	keystroke	e	n/a
77.0195	0.12	154039	keystroke	Key.backspace	n/a
77.335	0.135	154670	keystroke	y	n/a
77.56	0.104	155120	keystroke	Key.space	n/a
77.845	0.119	155690	keystroke	a	n/a
78.1	0.075	156200	keystroke	s	n/a
78.279	0.121	156558	keystroke	s	n/a
78.37	0.12	156740	keystroke	e	n/a
78.61	0.0895	157220	keystroke	s	n/a
78.8045	0.135	157609	keystroke	s	n/a
78.9095	0.105	157819	keystroke	e	n/a
79.1495	0.12	158299	keystroke	d	n/a
79.4945	0.09	158989	keystroke	Key.space	n/a
79.8695	0.1205	159739	keystroke	c	n/a
80.215	0.15	160430	keystroke	o	n/a
80.425	0.06	160850	keystroke	r	n/a
80.725	0.09	161450	keystroke	n	n/a
80.845	0.195	161690	keystroke	e	n/a
80.98	0.12	161960	keystroke	r	n/a
81.235	0.075	162470	keystroke	Key.enter	n/a
81.3235	6.8125	162647	prompt	n/a	levitra coding mails suggested\n
82.03	0.135	164060	keystroke	l	n/a
82.135	0.09	164270	keystroke	e	n/a
82.3745	0.1055	164749	keystroke	v	n/a
82.525	0.1045	165050	keystroke	i	n/a
82.72	0.105	165440	keystroke	t	n/a
82.96	0.165	165920	keystroke	r	n/a
83.17	0.12	166340	keystroke	a	n/a
83.4245	0.09	166849	keystroke	Key.space	n/a
83.665	0.1345	167330	keystroke	c	n/a
83.755	0.1345	167510	keystroke	o	n/a
83.9795	0.15	167959	keystroke	d	n/a
84.1145	0.075	168229	keystroke	i	n/a
84.3395	0.075	168679	keystroke	n	n/a
84.5195	0.105	169039	keystroke	g	n/a
84.669	0.1055	169338	keystroke	Key.space	n/a
84.8945	0.135	169789	keystroke	m	n/a
85.0145	0.12	170029	keystroke	a	n/a
85.1495	0.075	170299	keystroke	i	n/a
85.3445	0.1355	170689	keystroke	l	n/a
85.51	0.12	171020	keystroke	s	n/a
85.675	0.09	171350	keystroke	Key.space	n/a
86.23	0.165	172460	keystroke	s	n/a
86.38	0.105	172760	keystroke	u	n/a
86.59	0.0895	173180	keystroke	g	n/a
86.785	0.1345	173570	keystroke	g	n/a
86.9205	0.134	173841	keystroke	e	n/a
87.1295	0.24	174259	keystroke	s	n/a
87.2645	0.165	174529	keystroke	t	n/a
87.3995	0.12	174799	keystroke	e	n/a
87.6995	0.135	175399	keystroke	d	n/a
88.0445	0.09	176089	keystroke	Key.enter	n/a
88.1395	10.37	176279	prompt	n/a	interventions shopzilla highlights injection\n
88.7945	0.12	177589	keystroke	i	n/a
88.9445	0.12	177889	keystroke	n	n/a
89.0495	0.09	178099	keystroke	t	n/a
89.2595	0.255	178519	keystroke	e	n/a
89.4545	0.105	178909	keystroke	r	n/a
89.7395	0.135	179479	keystroke	v	n/a
90.0095	0.09	180019	keystroke	e	n/a
90.1895	0.12	180379	keystroke	n	n/a
90.3095	0.135	180619	keystroke	t	n/a
90.4445	0.24	180889	keystroke	i	n/a
90.5495	0.12	181099	keystroke	o	n/a
90.6395	0.1205	181279	keystroke	n	n/a
90.79	0.15	181580	keystroke	s	n/a
91.015	0.06	182030	keystroke	Key.space	n/a
91.57	0.15	183140	keystroke	s	n/a
91.705	0.24	183410	keystroke	h	n/a
91.855	0.195	183710	keystroke	o	n/a
92.0645	0.0895	184129	keystroke	p	n/a
92.589	0.15	185178	keystroke	z	n/a
92.754	0.105	185508	keystroke	i	n/a
93.009	0.075	186018	keystroke	l	n/a
93.204	0.135	186408	keystroke	l	n/a
93.324	0.12	186648	keystroke	a	n/a
93.459	0.12	186918	keystroke	Key.space	n/a
93.699	0.06	187398	keystroke	h	n/a
94.509	0.12	189018	keystroke	g	n/a
94.824	0.09	189648	keystroke	Key.backspace	n/a
95.109	0.12	190218	keystroke	i	n/a
95.214	0.135	190428	keystroke	g	n/a
95.364	0.12	190728	keystroke	h	n/a
95.634	0.18	191268	keystroke	l	n/a
95.769	0.15	191538	keystroke	i	n/a
95.934	0.135	191868	keystroke	g	n/a
96.039	0.12	192078	keystroke	h	n/a
96.204	0.12	192408	keystroke	t	n/a
96.489	0.15	192978	keystroke	s	n/a
96.669	0.0905	193338	keystroke	Key.space	n/a
96.7745	0.105	193549	keystroke	i	n/a
96.9545	0.09	193909	keystroke	n	n/a
97.1945	0.105	194389	keystroke	j	n/a
97.3145	0.09	194629	keystroke	e	n/a
97.5545	0.135	195109	keystroke	c	n/a
97.8095	0.12	195619	keystroke	t	n/a
97.9445	0.255	195889	keystroke	i	n/a
98.0345	0.15	196069	keystroke	o	n/a
98.1545	0.12	196309	keystroke	n	n/a
98.4395	0.06	196879	keystroke	Key.enter	n/a
98.514	6.407	197028	prompt	n/a	tribe thehun religion queen\n
99.1595	0.105	198319	keystroke	t	n/a
99.4145	0.09	198829	keystroke	r	n/a
99.5495	0.105	199099	keystroke	i	n/a
99.8345	0.075	199669	keystroke	b	n/a
100.0745	0.09	200149	keystroke	e	n/a
100.1795	0.0895	200359	keystroke	Key.space	n/a
100.3895	0.105	200779	keystroke	t	n/a
100.5245	0.045	201049	keystroke	h	n/a
100.5995	0.12	201199	keystroke	e	n/a
101.1095	0.09	202219	keystroke	h	n/a
101.3645	0.09	202729	keystroke	u	n/a
101.6045	0.105	203209	keystroke	n	n/a
101.8295	0.105	203659	keystroke	Key.space	n/a
102.0845	0.15	204169	keystroke	r	n/a
102.1895	0.15	204379	keystroke	e	n/a
102.3545	0.18	204709	keystroke	l	n/a
102.4745	0.135	204949	keystroke	i	n/a
102.6695	0.135	205339	keystroke	g	n/a
102.7595	0.165	205519	keystroke	i	n/a
102.8795	0.195	205759	keystroke	o	n/a
102.9995	0.195	205999	keystroke	n	n/a
103.2095	0.105	206419	keystroke	Key.space	n/a
103.4945	0.135	206989	keystroke	q	n/a
103.6445	0.135	207289	keystroke	u	n/a
104.1095	0.075	208219	keystroke	e	n/a
104.3045	0.12	208609	keystroke	e	n/a
104.4695	0.15	208939	keystroke	n	n/a
104.7995	0.119	209599	keystroke	Key.enter	n/a
104.9235	9.785	209847	prompt	n/a	warriors fail calcium relevant\n
105.6095	0.27	211219	keystroke	w	n/a
105.7895	0.12	211579	keystroke	a	n/a
105.8945	0.089	211789	keystroke	r	n/a
106.0745	0.12	212149	keystroke	r	n/a
106.1795	0.075	212359	keystroke	i	n/a
106.6295	0.135	213259	keystroke	o	n/a
106.8245	0.12	213649	keystroke	r	n/a
107.0635	0.136	214127	keystroke	s	n/a
107.2735	0.105	214547	keystroke	Key.space	n/a
107.4235	0.1805	214847	keystroke	f	n/a
107.574	0.105	215148	keystroke	a	n/a
107.7095	0.0895	215419	keystroke	i	n/a
108.144	0.105	216288	keystroke	Key.space	n/a
108.384	0.105	216768	keystroke	c	n/a
108.594	0.105	217188	keystroke	a	n/a
108.714	0.135	217428	keystroke	l	n/a
109.104	0.075	218208	keystroke	Key.backspace	n/a
109.284	0.075	218568	keystroke	Key.backspace	n/a
109.464	0.09	218928	keystroke	Key.backspace	n/a
109.659	0.105	219318	keystroke	Key.backspace	n/a
109.9735	0.0755	219947	keystroke	l	n/a
110.2295	0.075	220459	keystroke	Key.space	n/a
110.4085	0.136	220817	keystroke	c	n/a
110.6035	0.12	221207	keystroke	a	n/a
110.6795	0.134	221359	keystroke	l	n/a
110.9485	0.135	221897	keystroke	c	n/a
111.2185	0.09	222437	keystroke	i	n/a
111.8945	0.075	223789	keystroke	u	n/a
112.2095	0.12	224419	keystroke	m	n/a
112.7495	0.06	225499	keystroke	Key.space	n/a
113.0495	0.15	226099	keystroke	r	n/a
113.1395	0.135	226279	keystroke	e	n/a
113.4845	0.135	226969	keystroke	l	n/a
113.6045	0.09	227209	keystroke	e	n/a
113.8145	0.18	227629	keystroke	v	n/a
114.0095	0.1795	228019	keystroke	a	n/a
114.2045	0.104	228409	keystroke	n	n/a
114.3235	0.15	228647	keystroke	t	n/a
114.6235	0.075	229247	keystroke	Key.enter	n/a
114.7135	6.347	229427	prompt	n/a	colors awarded hire inquire\n
115.449	0.15	230898	keystroke	c	n/a
115.5685	0.09	231137	keystroke	o	n/a
115.7945	0.09	231589	keystroke	l	n/a
116.0045	0.12	232009	keystroke	o	n/a
116.0945	0.105	232189	keystroke	r	n/a
116.379	0.12	232758	keystroke	s	n/a
116.604	0.075	233208	keystroke	Key.space	n/a
116.724	0.12	233448	keystroke	a	n/a
116.964	0.18	233928	keystroke	w	n/a
117.084	0.135	234168	keystroke	a	n/a
117.234	0.09	234468	keystroke	r	n/a
117.459	0.105	234918	keystroke	d	n/a
117.684	0.09	235368	keystroke	e	n/a
117.909	0.135	235818	keystroke	d	n/a
118.074	0.09	236148	keystroke	Key.space	n/a
118.344	0.12	236688	keystroke	h	n/a
118.554	0.105	237108	keystroke	i	n/a
118.689	0.225	237378	keystroke	r	n/a
118.899	0.105	237798	keystroke	e	n/a
119.109	0.105	238218	keystroke	Key.space	n/a
119.424	0.105	238848	keystroke	i	n/a
119.574	0.1055	239148	keystroke	n	n/a
119.7995	0.12	239599	keystroke	q	n/a
119.9345	0.165	239869	keystroke	u	n/a
120.0845	0.105	240169	keystroke	i	n/a
120.3695	0.195	240739	keystroke	r	n/a
120.5495	0.15	241099	keystroke	e	n/a
120.9835	0.075	241967	keystroke	Key.enter	n/a
121.075	8.244	242150	prompt	n/a	ukraine rules hands consultancy\n
121.7185	0.091	243437	keystroke	u	n/a
122.1395	0.06	244279	keystroke	k	n/a
122.4845	0.21	244969	keystroke	r	n/a
122.6795	0.12	245359	keystroke	a	n/a
123.909	0.09	247818	keystroke	i	n/a
124.134	0.12	248268	keystroke	n	n/a
124.254	0.135	248508	keystroke	e	n/a
124.569	0.075	249138	keystroke	Key.space	n/a
124.854	0.1345	249708	keystroke	r	n/a
125.0035	0.09	250007	keystroke	u	n/a
125.2435	0.135	250487	keystroke	l	n/a
125.3945	0.119	250789	keystroke	e	n/a
125.6485	0.15	251297	keystroke	s	n/a
125.7835	0.105	251567	keystroke	Key.space	n/a
126.3545	0.105	252709	keystroke	h	n/a
126.4295	0.15	252859	keystroke	a	n/a
126.5945	0.12	253189	keystroke	n	n/a
126.7295	0.12	253459	keystroke	d	n/a
126.9395	0.15	253879	keystroke	s	n/a
127.1045	0.09	254209	keystroke	Key.space	n/a
127.4045	0.21	254809	keystroke	c	n/a
127.5245	0.15	255049	keystroke	o	n/a
127.6595	0.135	255319	keystroke	n	n/a
127.7945	0.15	255589	keystroke	s	n/a
127.9745	0.09	255949	keystroke	u	n/a
128.1995	0.135	256399	keystroke	l	n/a
128.2895	0.105	256579	keystroke	t	n/a
128.4695	0.12	256939	keystroke	a	n/a
128.5445	0.12	257089	keystroke	n	n/a
128.7395	0.18	257479	keystroke	c	n/a
128.9045	0.105	257809	keystroke	y	n/a
129.204	0.105	258408	keystroke	Key.enter	n/a
129.3255	10.058	258651	prompt	n/a	organizations investigate or racing\n
129.9235	0.15	259847	keystroke	o	n/a
130.0435	0.105	260087	keystroke	r	n/a
130.314	0.135	260628	keystroke	a	n/a
130.914	0.1055	261828	keystroke	Key.backspace	n/a
131.0495	0.165	262099	keystroke	g	n/a
131.1845	0.135	262369	keystroke	a	n/a
131.4695	0.195	262939	keystroke	n	n/a
131.6345	0.12	263269	keystroke	i	n/a
131.9945	0.105	263989	keystroke	a	n/a
132.3245	0.12	264649	keystroke	Key.backspace	n/a
132.3995	0.15	264799	keystroke	z	n/a
133.2095	0.165	266419	keystroke	a	n/a
133.4345	0.135	266869	keystroke	t	n/a
133.5545	0.315	267109	keystroke	i	n/a
133.6595	0.164	267319	keystroke	o	n/a
133.7795	0.135	267559	keystroke	n	n/a
133.9895	0.135	267979	keystroke	s	n/a
134.4235	0.12	268847	keystroke	Key.space	n/a
134.7695	0.104	269539	keystroke	i	n/a
134.9045	0.135	269809	keystroke	n	n/a
135.0835	0.106	270167	keystroke	v	n/a
135.2635	0.121	270527	keystroke	e	n/a
135.4895	0.149	270979	keystroke	s	n/a
135.5945	0.1195	271189	keystroke	t	n/a
135.729	0.105	271458	keystroke	i	n/a
136.2845	0.165	272569	keystroke	g	n/a
136.4345	0.15	272869	keystroke	a	n/a
136.7345	0.135	273469	keystroke	t	n/a
136.9445	0.135	273889	keystroke	e	n/a
137.1395	0.105	274279	keystroke	Key.space	n/a
137.3345	0.135	274669	keystroke	o	n/a
137.4545	0.135	274909	keystroke	r	n/a
137.6195	0.0895	275239	keystroke	Key.space	n/a
137.7845	0.195	275569	keystroke	r	n/a
137.9645	0.105	275929	keystroke	a	n/a
138.2195	0.12	276439	keystroke	c	n/a
138.7285	0.09	277457	keystroke	i	n/a
138.9395	0.12	277879	keystroke	n	n/a
139.0895	0.134	278179	keystroke	g	n/a
139.2835	0.09	278567	keystroke	Key.enter	n/a
139.3905	7.703	278781	prompt	n/a	delivers tucson gonna stem\n
140.019	0.105	280038	keystroke	d	n/a
140.229	0.135	280458	keystroke	e	n/a
140.319	0.165	280638	keystroke	l	n/a
140.424	0.12	280848	keystroke	i	n/a
140.574	0.15	281148	keystroke	v	n/a
140.709	0.24	281418	keystroke	e	n/a
140.889	0.135	281778	keystroke	r	n/a
141.1595	0.135	282319	keystroke	s	n/a
141.3395	0.09	282679	keystroke	Key.space	n/a
141.7145	0.12	283429	keystroke	t	n/a
141.8945	0.105	283789	keystroke	u	n/a
142.1945	0.12	284389	keystroke	c	n/a
142.6295	0.134	285259	keystroke	s	n/a
143.8585	0.12	287717	keystroke	o	n/a
144.1285	0.09	288257	keystroke	n	n/a
144.3835	0.075	288767	keystroke	Key.space	n/a
144.5935	0.135	289187	keystroke	g	n/a
144.6985	0.09	289397	keystroke	o	n/a
144.9085	0.075	289817	keystroke	n	n/a
145.1035	0.12	290207	keystroke	n	n/a
145.2085	0.12	290417	keystroke	a	n/a
145.6435	0.12	291287	keystroke	Key.space	n/a
145.8835	0.21	291767	keystroke	s	n/a
146.0485	0.196	292097	keystroke	t	n/a
146.3485	0.135	292697	keystroke	e	n/a
146.6485	0.15	293297	keystroke	m	n/a
146.9335	0.15	293867	keystroke	Key.enter	n/a
147.0975	11.141	294195	prompt	n/a	samba agriculture laptop central\n
147.774	0.225	295548	keystroke	s	n/a
147.924	0.165	295848	keystroke	a	n/a
148.059	0.15	296118	keystroke	m	n/a
148.299	0.09	296598	keystroke	b	n/a
148.539	0.12	297078	keystroke	e	n/a
148.914	0.15	297828	keystroke	Key.backspace	n/a
149.034	0.12	298068	keystroke	a	n/a
149.199	0.135	298398	keystroke	Key.space	n/a
149.514	0.12	299028	keystroke	a	n/a
149.709	0.075	299418	keystroke	g	n/a
149.934	0.09	299868	keystroke	r	n/a
150.084	0.075	300168	keystroke	i	n/a
150.459	0.105	300918	keystroke	u	n/a
151.1035	0.15	302207	keystroke	c	n/a
151.5685	0.075	303137	keystroke	Key.backspace	n/a
151.7485	0.105	303497	keystroke	Key.backspace	n/a
151.8235	0.166	303647	keystroke	c	n/a
152.0035	0.106	304007	keystroke	u	n/a
152.2445	0.119	304489	keystroke	l	n/a
152.3485	0.121	304697	keystroke	t	n/a
152.5885	0.1205	305177	keystroke	u	n/a
152.754	0.12	305508	keystroke	r	n/a
152.9485	0.151	305897	keystroke	e	n/a
153.1295	0.135	306259	keystroke	Key.space	n/a
153.3995	0.1345	306799	keystroke	l	n/a
153.489	0.135	306978	keystroke	a	n/a
153.7735	0.135	307547	keystroke	p	n/a
154.179	0.105	308358	keystroke	t	n/a
154.419	0.12	308838	keystroke	o	n/a
154.749	0.105	309498	keystroke	p	n/a
154.989	0.12	309978	keystroke	Key.space	n/a
155.379	0.12	310758	keystroke	c	n/a
155.619	0.21	311238	keystroke	e	n/a
155.709	0.18	311418	keystroke	n	n/a
155.814	0.165	311628	keystroke	t	n/a
156.204	0.195	312408	keystroke	r	n/a
156.429	0.135	312858	keystroke	a	n/a
156.624	0.195	313248	keystroke	l	n/a
156.879	0.135	313758	keystroke	Key.space	n/a
157.809	0.09	315618	keystroke	Key.backspace	n/a
158.0935	0.135	316187	keystroke	Key.enter	n/a
158.2435	8.7395	316487	prompt	n/a	auction dependence measured tent\n
158.8435	0.09	317687	keystroke	a	n/a
159.0085	0.105	318017	keystroke	u	n/a
159.2635	0.12	318527	keystroke	c	n/a
159.5035	0.1505	319007	keystroke	t	n/a
159.5785	0.255	319157	keystroke	i	n/a
159.6985	0.15	319397	keystroke	o	n/a
159.7885	0.12	319577	keystroke	n	n/a
160.0585	0.075	320117	keystroke	Key.space	n/a
160.1935	0.09	320387	keystroke	d	n/a
160.3885	0.1205	320777	keystroke	e	n/a
160.539	0.12	321078	keystroke	p	n/a
160.734	0.105	321468	keystroke	e	n/a
160.854	0.105	321708	keystroke	n	n/a
161.004	0.1045	322008	keystroke	c	n/a
161.2435	0.091	322487	keystroke	e	n/a
162.5335	0.09	325067	keystroke	Key.backspace	n/a
162.7285	0.135	325457	keystroke	Key.backspace	n/a
162.9235	0.135	325847	keystroke	d	n/a
163.134	0.0745	326268	keystroke	e	n/a
163.3735	0.091	326747	keystroke	n	n/a
163.5085	0.121	327017	keystroke	c	n/a
163.7635	0.09	327527	keystroke	e	n/a
164.2885	0.105	328577	keystroke	Key.space	n/a
164.8135	0.15	329627	keystroke	m	n/a
164.9035	0.15	329807	keystroke	e	n/a
165.0835	0.106	330167	keystroke	a	n/a
165.2935	0.165	330587	keystroke	s	n/a
165.4735	0.105	330947	keystroke	u	n/a
165.6385	0.166	331277	keystroke	r	n/a
165.7595	0.1195	331519	keystroke	e	n/a
166.014	0.12	332028	keystroke	d	n/a
166.119	0.135	332238	keystroke	Key.space	n/a
166.2685	0.135	332537	keystroke	t	n/a
166.3885	0.1505	332777	keystroke	e	n/a
166.5235	0.135	333047	keystroke	n	n/a
166.629	0.135	333258	keystroke	t	n/a
166.884	0.09	333768	keystroke	Key.enter	n/a
166.989	6.421	333978	prompt	n/a	governments prep tells bucks\n
167.6035	0.105	335207	keystroke	g	n/a
167.814	0.0895	335628	keystroke	o	n/a
167.9335	0.18	335867	keystroke	v	n/a
168.0835	0.225	336167	keystroke	e	n/a
168.2785	0.105	336557	keystroke	r	n/a
168.4885	0.0905	336977	keystroke	n	n/a
168.7585	0.135	337517	keystroke	m	n/a
168.9085	0.165	337817	keystroke	e	n/a
169.0585	0.09	338117	keystroke	n	n/a
169.1635	0.135	338327	keystroke	t	n/a
169.4035	0.165	338807	keystroke	s	n/a
169.5235	0.09	339047	keystroke	Key.space	n/a
169.7785	0.135	339557	keystroke	p	n/a
169.8835	0.255	339767	keystroke	r	n/a
170.1085	0.165	340217	keystroke	e	n/a
170.3935	0.165	340787	keystroke	p	n/a
170.5285	0.135	341057	keystroke	Key.space	n/a
170.7535	0.135	341507	keystroke	t	n/a
170.9635	0.135	341927	keystroke	e	n/a
171.144	0.075	342288	keystroke	l	n/a
171.339	0.12	342678	keystroke	l	n/a
171.429	0.165	342858	keystroke	s	n/a
171.639	0.105	343278	keystroke	Key.space	n/a
171.864	0.135	343728	keystroke	b	n/a
171.969	0.105	343938	keystroke	u	n/a
172.209	0.21	344418	keystroke	c	n/a
172.404	0.09	344808	keystroke	k	n/a
173.049	0.105	346098	keystroke	s	n/a
173.289	0.12	346578	keystroke	Key.enter	n/a
173.413	11.7205	346826	prompt	n/a	economic representative barcelona private\n
174.114	0.105	348228	keystroke	e	n/a
174.698	0.135	349396	keystroke	c	n/a
174.804	0.089	349608	keystroke	o	n/a
175.329	0.149	350658	keystroke	n	n/a
175.508	0.12	351016	keystroke	o	n/a
175.763	0.18	351526	keystroke	m	n/a
175.898	0.09	351796	keystroke	i	n/a
176.123	0.15	352246	keystroke	c	n/a
176.8135	0.105	353627	keystroke	Key.space	n/a
177.1285	0.18	354257	keystroke	r	n/a
177.2335	0.165	354467	keystroke	e	n/a
177.4885	0.15	354977	keystroke	p	n/a
177.5935	0.195	355187	keystroke	r	n/a
177.7435	0.15	355487	keystroke	e	n/a
178.0135	0.165	356027	keystroke	s	n/a
178.1935	0.165	356387	keystroke	e	n/a
178.3285	0.135	356657	keystroke	n	n/a
178.4335	0.135	356867	keystroke	t	n/a
178.6285	0.135	357257	keystroke	a	n/a
178.7485	0.15	357497	keystroke	t	n/a
178.8685	0.255	357737	keystroke	i	n/a
178.9735	0.18	357947	keystroke	o	n/a
179.0935	0.225	358187	keystroke	n	n/a
179.3185	0.165	358637	keystroke	Key.space	n/a
179.6785	0.15	359357	keystroke	b	n/a
179.8135	0.15	359627	keystroke	a	n/a
180.0085	0.12	360017	keystroke	r	n/a
180.2635	0.1055	360527	keystroke	c	n/a
180.4735	0.135	360947	keystroke	e	n/a
180.5785	0.09	361157	keystroke	l	n/a
180.7885	0.1805	361577	keystroke	o	n/a
180.909	0.15	361818	keystroke	n	n/a
181.014	0.15	362028	keystroke	a	n/a
181.254	0.09	362508	keystroke	Key.space	n/a
181.479	0.15	362958	keystroke	p	n/a
181.614	0.105	363228	keystroke	r	n/a
181.779	0.09	363558	keystroke	i	n/a
182.7685	0.135	365537	keystroke	c	n/a
183.5335	0.105	367067	keystroke	Key.backspace	n/a
183.6235	0.18	367247	keystroke	v	n/a
183.7285	0.165	367457	keystroke	a	n/a
184.1335	0.27	368267	keystroke	t	n/a
184.3435	0.18	368687	keystroke	e	n/a
184.9885	0.135	369977	keystroke	Key.enter	n/a
185.143	8.3305	370286	prompt	n/a	burlington applying patrol expense\n
185.9185	0.135	371837	keystroke	b	n/a
186.1585	0.12	372317	keystroke	u	n/a
186.2785	0.12	372557	keystroke	r	n/a
186.5035	0.195	373007	keystroke	l	n/a
186.6385	0.135	373277	keystroke	i	n/a
186.8185	0.135	373637	keystroke	g	n/a
186.9835	0.105	373967	keystroke	n	n/a
187.5085	0.075	375017	keystroke	Key.backspace	n/a
187.658	0.0905	375316	keystroke	Key.backspace	n/a
187.8685	0.12	375737	keystroke	n	n/a
187.9735	0.15	375947	keystroke	g	n/a
188.3185	0.15	376637	keystroke	t	n/a
188.4085	0.135	376817	keystroke	o	n/a
188.6185	0.21	377237	keystroke	n	n/a
188.7685	0.135	377537	keystroke	Key.space	n/a
188.9335	0.1345	377867	keystroke	a	n/a
189.173	0.03	378346	keystroke	p	n/a
189.293	0.105	378586	keystroke	p	n/a
189.533	0.12	379066	keystroke	l	n/a
189.7285	0.135	379457	keystroke	y	n/a
189.8935	0.105	379787	keystroke	i	n/a
190.0585	0.09	380117	keystroke	n	n/a
190.5085	0.12	381017	keystroke	g	n/a
190.6735	0.12	381347	keystroke	Key.space	n/a
190.9735	0.12	381947	keystroke	p	n/a
191.1535	0.165	382307	keystroke	a	n/a
191.2735	0.12	382547	keystroke	t	n/a
191.5135	0.1195	383027	keystroke	r	n/a
191.6185	0.0905	383237	keystroke	o	n/a
191.859	0.18	383718	keystroke	l	n/a
191.994	0.135	383988	keystroke	Key.space	n/a
192.159	0.105	384318	keystroke	e	n/a
192.4285	0.15	384857	keystroke	x	n/a
192.5635	0.12	385127	keystroke	p	n/a
192.7585	0.09	385517	keystroke	e	n/a
192.8785	0.105	385757	keystroke	n	n/a
193.0135	0.18	386027	keystroke	s	n/a
193.1785	0.12	386357	keystroke	e	n/a
193.3435	0.12	386687	keystroke	Key.enter	n/a
193.478	5.792	386956	prompt	n/a	voters grant chevy smith\n
194.1685	0.12	388337	keystroke	v	n/a
194.3035	0.135	388607	keystroke	o	n/a
194.4685	0.1205	388937	keystroke	t	n/a
194.679	0.209	389358	keystroke	e	n/a
194.828	0.12	389656	keystroke	r	n/a
195.353	0.15	390706	keystroke	s	n/a
195.548	0.06	391096	keystroke	Key.space	n/a
195.728	0.105	391456	keystroke	g	n/a
195.968	0.165	391936	keystroke	r	n/a
196.103	0.12	392206	keystroke	a	n/a
196.283	0.12	392566	keystroke	n	n/a
196.463	0.135	392926	keystroke	t	n/a
196.643	0.105	393286	keystroke	Key.space	n/a
196.958	0.12	393916	keystroke	c	n/a
197.1535	0.12	394307	keystroke	h	n/a
197.2585	0.09	394517	keystroke	e	n/a
197.5585	0.134	395117	keystroke	v	n/a
197.7835	0.165	395567	keystroke	y	n/a
197.9035	0.165	395807	keystroke	Key.space	n/a
198.1135	0.135	396227	keystroke	s	n/a
198.3685	0.2095	396737	keystroke	m	n/a
198.4885	0.1355	396977	keystroke	i	n/a
198.654	0.135	397308	keystroke	t	n/a
198.909	0.105	397818	keystroke	h	n/a
199.164	0.105	398328	keystroke	Key.enter	n/a
199.2725	10.85	398545	prompt	n/a	liabilities receiver warner eric\n
200.003	0.18	400006	keystroke	l	n/a
200.123	0.136	400246	keystroke	i	n/a
200.273	0.105	400546	keystroke	a	n/a
200.483	0.03	400966	keystroke	m	n/a
200.918	0.105	401836	keystroke	Key.backspace	n/a
201.009	0.165	402018	keystroke	b	n/a
201.219	0.0895	402438	keystroke	i	n/a
201.4285	0.18	402857	keystroke	l	n/a
201.5335	0.09	403067	keystroke	i	n/a
201.6385	0.15	403277	keystroke	t	n/a
202.0285	0.06	404057	keystroke	i	n/a
202.1935	0.105	404387	keystroke	e	n/a
202.4635	0.15	404927	keystroke	s	n/a
202.5685	0.12	405137	keystroke	Key.space	n/a
202.8235	0.135	405647	keystroke	r	n/a
202.8985	0.135	405797	keystroke	e	n/a
203.1835	0.045	406367	keystroke	d	n/a
203.7085	0.06	407417	keystroke	Key.backspace	n/a
203.8135	0.135	407627	keystroke	c	n/a
203.9935	0.06	407987	keystroke	i	n/a
204.5335	0.12	409067	keystroke	Key.backspace	n/a
204.6385	0.105	409277	keystroke	e	n/a
204.8635	0.075	409727	keystroke	i	n/a
204.9685	0.165	409937	keystroke	v	n/a
205.1485	0.225	410297	keystroke	e	n/a
205.3135	0.1355	410627	keystroke	r	n/a
205.553	0.0895	411106	keystroke	Key.space	n/a
206.093	0.255	412186	keystroke	w	n/a
206.213	0.165	412426	keystroke	a	n/a
206.363	0.12	412726	keystroke	r	n/a
206.813	0.09	413626	keystroke	n	n/a
206.993	0.195	413986	keystroke	e	n/a
207.098	0.165	414196	keystroke	r	n/a
207.323	0.105	414646	keystroke	Key.space	n/a
207.563	0.075	415126	keystroke	e	n/a
207.833	0.135	415666	keystroke	r	n/a
208.088	0.105	416176	keystroke	i	n/a
208.283	0.12	416566	keystroke	c	n/a
210.038	0.075	420076	keystroke	Key.enter	n/a
210.13	5.925	420260	prompt	n/a	lawyer sword cedar acids\n
210.683	0.135	421366	keystroke	l	n/a
210.819	0.1195	421638	keystroke	a	n/a
211.0435	0.12	422087	keystroke	w	n/a
211.2535	0.105	422507	keystroke	y	n/a
211.4335	0.21	422867	keystroke	e	n/a
211.5835	0.135	423167	keystroke	r	n/a
211.7485	0.105	423497	keystroke	Key.space	n/a
211.9885	0.135	423977	keystroke	s	n/a
212.2435	0.15	424487	keystroke	w	n/a
212.3935	0.135	424787	keystroke	o	n/a
212.6335	0.12	425267	keystroke	r	n/a
212.9635	0.135	425927	keystroke	d	n/a
213.1735	0.09	426347	keystroke	Key.space	n/a
213.4135	0.105	426827	keystroke	c	n/a
213.653	0.075	427306	keystroke	e	n/a
213.863	0.105	427726	keystroke	d	n/a
214.043	0.12	428086	keystroke	a	n/a
214.133	0.105	428266	keystroke	r	n/a
214.523	0.12	429046	keystroke	Key.space	n/a
214.703	0.12	429406	keystroke	a	n/a
214.958	0.12	429916	keystroke	c	n/a
215.228	0.12	430456	keystroke	i	n/a
215.393	0.12	430786	keystroke	d	n/a
215.648	0.135	431296	keystroke	s	n/a
215.978	0.075	431956	keystroke	Key.enter	n/a
216.0665	11.7115	432133	prompt	n/a	include shoes presidential extends\n
216.713	0.105	433426	keystroke	i	n/a
216.893	0.12	433786	keystroke	n	n/a
217.253	0.15	434506	keystroke	c	n/a
217.388	0.1205	434776	keystroke	l	n/a
217.5975	0.105	435195	keystroke	u	n/a
217.7625	0.121	435525	keystroke	d	n/a
217.9885	0.119	435977	keystroke	e	n/a
218.1535	0.119	436307	keystroke	Key.space	n/a
218.4525	0.15	436905	keystroke	s	n/a
218.5575	0.181	437115	keystroke	h	n/a
218.7535	0.119	437507	keystroke	o	n/a
218.9785	0.104	437957	keystroke	e	n/a
219.1875	0.135	438375	keystroke	s	n/a
219.3975	0.105	438795	keystroke	Key.space	n/a
219.848	0.135	439696	keystroke	p	n/a
219.938	0.225	439876	keystroke	r	n/a
220.1185	0.1645	440237	keystroke	e	n/a
220.373	0.15	440746	keystroke	s	n/a
220.553	0.135	441106	keystroke	i	n/a
221.378	0.105	442756	keystroke	d	n/a
221.573	0.15	443146	keystroke	e	n/a
221.648	0.135	443296	keystroke	n	n/a
221.798	0.165	443596	keystroke	t	n/a
221.903	0.195	443806	keystroke	i	n/a
222.473	0.135	444946	keystroke	a	n/a
222.668	0.15	445336	keystroke	l	n/a
223.103	0.09	446206	keystroke	Key.space	n/a
223.343	0.105	446686	keystroke	e	n/a
223.583	0.15	447166	keystroke	x	n/a
223.838	0.15	447676	keystroke	t	n/a
224.018	0.15	448036	keystroke	e	n/a
224.153	0.12	448306	keystroke	n	n/a
224.333	0.045	448666	keystroke	s	n/a
224.738	0.075	449476	keystroke	d	n/a
225.023	0.09	450046	keystroke	=	n/a
225.353	0.0755	450706	keystroke	=	n/a
225.668	0.1195	451336	keystroke	Key.backspace	n/a
225.848	0.12	451696	keystroke	Key.backspace	n/a
226.103	0.06	452206	keystroke	Key.backspace	n/a
226.283	0.09	452566	keystroke	Key.backspace	n/a
226.973	0.15	453946	keystroke	d	n/a
227.198	0.18	454396	keystroke	s	n/a
227.663	0.105	455326	keystroke	Key.enter	n/a
227.7865	5.533	455573	prompt	n/a	exam taylor blink angola\n
228.593	0.105	457186	keystroke	e	n/a
228.848	0.135	457696	keystroke	x	n/a
229.103	0.135	458206	keystroke	a	n/a
229.253	0.21	458506	keystroke	m	n/a
229.418	0.15	458836	keystroke	Key.space	n/a
229.688	0.12	459376	keystroke	t	n/a
229.898	0.15	459796	keystroke	a	n/a
230.033	0.12	460066	keystroke	y	n/a
230.288	0.12	460576	keystroke	l	n/a
230.528	0.135	461056	keystroke	o	n/a
230.664	0.149	461328	keystroke	r	n/a
230.843	0.09	461686	keystroke	Key.space	n/a
231.053	0.12	462106	keystroke	b	n/a
231.158	0.195	462316	keystroke	l	n/a
231.308	0.12	462616	keystroke	i	n/a
231.548	0.105	463096	keystroke	n	n/a
231.833	0.06	463666	keystroke	k	n/a
232.043	0.09	464086	keystroke	Key.space	n/a
232.268	0.1355	464536	keystroke	a	n/a
232.3885	0.119	464777	keystroke	n	n/a
232.5835	0.119	465167	keystroke	g	n/a
232.6875	0.09	465375	keystroke	o	n/a
232.9125	0.105	465825	keystroke	l	n/a
233.0325	0.121	466065	keystroke	a	n/a
233.228	0.09	466456	keystroke	Key.enter	n/a
233.3225	7.52	466645	prompt	n/a	foster copyrights markers vote\n
233.9775	0.135	467955	keystroke	g	n/a
234.3375	0.105	468675	keystroke	Key.backspace	n/a
234.4875	0.15	468975	keystroke	f	n/a
234.6225	0.105	469245	keystroke	o	n/a
234.7725	0.045	469545	keystroke	r	n/a
235.1625	0.09	470325	keystroke	Key.backspace	n/a
235.2375	0.195	470475	keystroke	s	n/a
235.388	0.1345	470776	keystroke	t	n/a
235.5975	0.1505	471195	keystroke	e	n/a
235.7025	0.1505	471405	keystroke	r	n/a
235.868	0.135	471736	keystroke	Key.space	n/a
236.123	0.165	472246	keystroke	c	n/a
236.258	0.15	472516	keystroke	o	n/a
236.948	0.135	473896	keystroke	p	n/a
237.173	0.09	474346	keystroke	y	n/a
237.428	0.12	474856	keystroke	r	n/a
237.518	0.105	475036	keystroke	i	n/a
237.683	0.135	475366	keystroke	g	n/a
237.788	0.12	475576	keystroke	h	n/a
237.923	0.105	475846	keystroke	t	n/a
238.178	0.135	476356	keystroke	s	n/a
238.328	0.12	476656	keystroke	Key.space	n/a
238.643	0.15	477286	keystroke	m	n/a
238.748	0.15	477496	keystroke	a	n/a
238.883	0.12	477766	keystroke	r	n/a
239.048	0.12	478096	keystroke	k	n/a
239.153	0.195	478306	keystroke	e	n/a
239.303	0.12	478606	keystroke	r	n/a
239.543	0.15	479086	keystroke	s	n/a
239.738	0.09	479476	keystroke	Key.space	n/a
239.978	0.165	479956	keystroke	v	n/a
240.083	0.135	480166	keystroke	o	n/a
240.293	0.135	480586	keystroke	t	n/a
240.503	0.135	481006	keystroke	e	n/a
240.713	0.12	481426	keystroke	Key.enter	n/a
240.847	7.285	481694	prompt	n/a	cemetery painful cleared below\n
241.4335	0.104	482867	keystroke	c	n/a
241.6575	0.135	483315	keystroke	e	n/a
241.7625	0.136	483525	keystroke	m	n/a
241.9125	0.135	483825	keystroke	t	n/a
242.0485	0.209	484097	keystroke	e	n/a
242.2125	0.1205	484425	keystroke	r	n/a
242.468	0.1205	484936	keystroke	a	n/a
242.8875	0.12	485775	keystroke	Key.backspace	n/a
243.2035	0.119	486407	keystroke	y	n/a
243.4575	0.075	486915	keystroke	Key.space	n/a
243.7275	0.12	487455	keystroke	p	n/a
243.8175	0.15	487635	keystroke	a	n/a
243.9825	0.09	487965	keystroke	i	n/a
244.1775	0.12	488355	keystroke	n	n/a
244.4325	0.165	488865	keystroke	f	n/a
244.5675	0.09	489135	keystroke	u	n/a
244.8225	0.1505	489645	keystroke	l	n/a
244.928	0.12	489856	keystroke	Key.space	n/a
245.138	0.12	490276	keystroke	c	n/a
245.258	0.12	490516	keystroke	l	n/a
245.423	0.135	490846	keystroke	e	n/a
245.648	0.075	491296	keystroke	a	n/a
245.693	0.135	491386	keystroke	r	n/a
246.368	0.06	492736	keystroke	e	n/a
246.608	0.12	493216	keystroke	d	n/a
246.833	0.09	493666	keystroke	Key.space	n/a
247.043	0.12	494086	keystroke	b	n/a
247.283	0.12	494566	keystroke	e	n/a
247.448	0.105	494896	keystroke	l	n/a
247.658	0.15	495316	keystroke	o	n/a
247.778	0.135	495556	keystroke	w	n/a
248.003	0.12	496006	keystroke	Key.enter	n/a
248.1385	11.769	496277	prompt	n/a	places washing mazda alternatively\n
248.843	0.09	497686	keystroke	p	n/a
248.963	0.135	497926	keystroke	a	n/a
249.068	0.105	498136	keystroke	l	n/a
249.278	0.105	498556	keystroke	c	n/a
249.503	0.12	499006	keystroke	e	n/a
249.728	0.135	499456	keystroke	s	n/a
249.848	0.09	499696	keystroke	Key.space	n/a
250.058	0.18	500116	keystroke	w	n/a
250.193	0.12	500386	keystroke	a	n/a
250.5975	0.1655	501195	keystroke	s	n/a
250.733	0.12	501466	keystroke	h	n/a
250.988	0.105	501976	keystroke	i	n/a
251.153	0.12	502306	keystroke	n	n/a
251.273	0.105	502546	keystroke	g	n/a
251.423	0.075	502846	keystroke	Key.space	n/a
251.618	0.12	503236	keystroke	m	n/a
251.7075	0.1505	503415	keystroke	a	n/a
252.383	0.135	504766	keystroke	z	n/a
252.638	0.12	505276	keystroke	d	n/a
252.863	0.105	505726	keystroke	a	n/a
253.013	0.1045	506026	keystroke	Key.space	n/a
253.508	0.075	507016	keystroke	a	n/a
253.643	0.075	507286	keystroke	l	n/a
254.213	0.18	508426	keystroke	r	n/a
254.318	0.105	508636	keystroke	e	n/a
255.083	0.135	510166	keystroke	=	n/a
256.027	0.105	512054	keystroke	Key.backspace	n/a
256.237	0.18	512474	keystroke	Key.backspace	n/a
256.8225	0.1195	513645	keystroke	Key.backspace	n/a
257.2125	0.135	514425	keystroke	t	n/a
257.4525	0.18	514905	keystroke	e	n/a
257.5875	0.106	515175	keystroke	r	n/a
258.1875	0.12	516375	keystroke	n	n/a
258.3375	0.18	516675	keystroke	a	n/a
258.5475	0.135	517095	keystroke	t	n/a
258.7125	0.135	517425	keystroke	i	n/a
258.9075	0.195	517815	keystroke	v	n/a
259.0425	0.15	518085	keystroke	e	n/a
259.2375	0.15	518475	keystroke	l	n/a
259.5075	0.09	519015	keystroke	y	n/a
259.7625	0.135	519525	keystroke	Key.enter	n/a
259.912	6.625	519824	prompt	n/a	stable logan cancelled earrings\n
260.618	0.15	521236	keystroke	s	n/a
260.738	0.21	521476	keystroke	t	n/a
260.933	0.075	521866	keystroke	a	n/a
261.158	0.105	522316	keystroke	b	n/a
261.3225	0.18	522645	keystroke	l	n/a
261.4275	0.12	522855	keystroke	e	n/a
261.5625	0.09	523125	keystroke	Key.space	n/a
261.7275	0.1195	523455	keystroke	l	n/a
261.937	0.135	523874	keystroke	o	n/a
262.088	0.059	524176	keystroke	b	n/a
262.417	0.135	524834	keystroke	Key.backspace	n/a
262.5385	0.134	525077	keystroke	g	n/a
262.7475	0.165	525495	keystroke	a	n/a
263.0335	0.104	526067	keystroke	n	n/a
263.3025	0.06	526605	keystroke	Key.space	n/a
263.4525	0.135	526905	keystroke	c	n/a
263.6475	0.12	527295	keystroke	a	n/a
263.7375	0.135	527475	keystroke	n	n/a
263.9025	0.12	527805	keystroke	c	n/a
264.1575	0.12	528315	keystroke	e	n/a
264.2325	0.09	528465	keystroke	l	n/a
264.4275	0.12	528855	keystroke	l	n/a
264.5025	0.09	529005	keystroke	e	n/a
264.7125	0.12	529425	keystroke	d	n/a
264.8025	0.105	529605	keystroke	Key.space	n/a
264.968	0.135	529936	keystroke	e	n/a
265.148	0.12	530296	keystroke	a	n/a
265.253	0.135	530506	keystroke	r	n/a
265.568	0.105	531136	keystroke	r	n/a
265.718	0.105	531436	keystroke	i	n/a
265.958	0.105	531916	keystroke	n	n/a
266.063	0.105	532126	keystroke	g	n/a
266.228	0.135	532456	keystroke	s	n/a
266.408	0.12	532816	keystroke	Key.enter	n/a
266.5415	6.9025	533083	prompt	n/a	indonesian dome parade pants\n
267.263	0.105	534526	keystroke	i	n/a
267.428	0.105	534856	keystroke	n	n/a
267.548	0.134	535096	keystroke	d	n/a
267.668	0.1045	535336	keystroke	o	n/a
267.8775	0.12	535755	keystroke	n	n/a
268.0125	0.0905	536025	keystroke	e	n/a
268.223	0.15	536446	keystroke	s	n/a
268.343	0.135	536686	keystroke	i	n/a
268.523	0.15	537046	keystroke	a	n/a
268.658	0.15	537316	keystroke	n	n/a
269.078	0.09	538156	keystroke	Key.space	n/a
269.468	0.135	538936	keystroke	d	n/a
269.588	0.12	539176	keystroke	o	n/a
269.828	0.105	539656	keystroke	n	n/a
270.173	0.075	540346	keystroke	Key.backspace	n/a
270.443	0.15	540886	keystroke	m	n/a
270.533	0.15	541066	keystroke	e	n/a
270.743	0.075	541486	keystroke	Key.space	n/a
270.983	0.12	541966	keystroke	p	n/a
271.073	0.165	542146	keystroke	a	n/a
271.223	0.18	542446	keystroke	r	n/a
271.388	0.135	542776	keystroke	a	n/a
271.748	0.15	543496	keystroke	d	n/a
272.033	0.15	544066	keystroke	e	n/a
272.153	0.15	544306	keystroke	Key.space	n/a
272.393	0.105	544786	keystroke	p	n/a
272.453	0.134	544906	keystroke	a	n/a
272.708	0.12	545416	keystroke	n	n/a
272.918	0.09	545836	keystroke	t	n/a
273.143	0.149	546286	keystroke	s	n/a
273.352	0.09	546704	keystroke	Key.enter	n/a
273.4485	12.7385	546897	prompt	n/a	exercise emergency invisible wellington\n
274.1775	0.075	548355	keystroke	e	n/a
274.448	0.105	548896	keystroke	x	n/a
274.673	0.105	549346	keystroke	e	n/a
274.973	0.09	549946	keystroke	r	n/a
275.423	0.105	550846	keystroke	c	n/a
275.8125	0.105	551625	keystroke	i	n/a
276.0975	0.24	552195	keystroke	s	n/a
276.2775	0.12	552555	keystroke	e	n/a
276.4725	0.12	552945	keystroke	Key.space	n/a
276.6675	0.1355	553335	keystroke	e	n/a
276.848	0.12	553696	keystroke	m	n/a
277.253	0.24	554506	keystroke	e	n/a
277.433	0.15	554866	keystroke	r	n/a
277.748	0.1195	555496	keystroke	g	n/a
277.9575	0.12	555915	keystroke	e	n/a
278.0925	0.12	556185	keystroke	n	n/a
278.408	0.165	556816	keystroke	c	n/a
278.618	0.12	557236	keystroke	y	n/a
279.068	0.105	558136	keystroke	Key.space	n/a
279.383	0.15	558766	keystroke	i	n/a
279.503	0.135	559006	keystroke	n	n/a
279.653	0.12	559306	keystroke	v	n/a
279.758	0.105	559516	keystroke	i	n/a
279.923	0.15	559846	keystroke	s	n/a
280.043	0.075	560086	keystroke	i	n/a
280.208	0.105	560416	keystroke	t	n/a
280.583	0.105	561166	keystroke	=	n/a
280.703	0.045	561406	keystroke	b	n/a
281.183	0.09	562366	keystroke	Key.backspace	n/a
281.362	0.121	562724	keystroke	Key.backspace	n/a
281.767	0.09	563534	keystroke	b	n/a
282.052	0.075	564104	keystroke	Key.backspace	n/a
282.232	0.12	564464	keystroke	Key.backspace	n/a
282.322	0.151	564644	keystroke	b	n/a
282.683	0.075	565366	keystroke	e	n/a
283.087	0.075	566174	keystroke	Key.backspace	n/a
283.372	0.15	566744	keystroke	l	n/a
283.537	0.135	567074	keystroke	e	n/a
283.9875	0.06	567975	keystroke	Key.space	n/a
284.4375	0.15	568875	keystroke	w	n/a
284.5425	0.135	569085	keystroke	e	n/a
284.7525	0.075	569505	keystroke	l	n/a
284.9625	0.12	569925	keystroke	l	n/a
285.0225	0.195	570045	keystroke	i	n/a
285.2025	0.09	570405	keystroke	n	n/a
285.2775	0.12	570555	keystroke	g	n/a
285.5475	0.1505	571095	keystroke	t	n/a
285.6225	0.12	571245	keystroke	o	n/a
285.8025	0.135	571605	keystroke	n	n/a
286.0875	0.09	572175	keystroke	Key.enter	n/a
286.192	6.925	572384	prompt	n/a	colleges reseller cargo julia\n
286.8375	0.165	573675	keystroke	c	n/a
286.9275	0.09	573855	keystroke	o	n/a
287.1525	0.09	574305	keystroke	l	n/a
287.3475	0.105	574695	keystroke	l	n/a
287.4225	0.135	574845	keystroke	e	n/a
287.6475	0.135	575295	keystroke	g	n/a
287.7975	0.135	575595	keystroke	e	n/a
288.0975	0.1655	576195	keystroke	s	n/a
288.278	0.06	576556	keystroke	Key.space	n/a
288.548	0.135	577096	keystroke	r	n/a
288.623	0.105	577246	keystroke	e	n/a
288.863	0.135	577726	keystroke	s	n/a
288.968	0.135	577936	keystroke	e	n/a
289.208	0.075	578416	keystroke	l	n/a
289.403	0.06	578806	keystroke	l	n/a
289.658	0.0895	579316	keystroke	r	n/a
290.0025	0.135	580005	keystroke	Key.backspace	n/a
290.0475	0.195	580095	keystroke	e	n/a
290.1825	0.15	580365	keystroke	r	n/a
290.4075	0.15	580815	keystroke	Key.space	n/a
290.8275	0.135	581655	keystroke	c	n/a
291.0225	0.105	582045	keystroke	a	n/a
291.1285	0.104	582257	keystroke	r	n/a
291.353	0.179	582706	keystroke	g	n/a
291.458	0.21	582916	keystroke	o	n/a
291.623	0.134	583246	keystroke	Key.space	n/a
291.907	0.091	583814	keystroke	j	n/a
292.118	0.089	584236	keystroke	u	n/a
292.462	0.166	584924	keystroke	l	n/a
292.567	0.121	585134	keystroke	i	n/a
292.792	0.135	585584	keystroke	a	n/a
293.002	0.106	586004	keystroke	Key.enter	n/a
293.1215	8.0205	586243	prompt	n/a	paradise pickup sister christine\n
293.783	0.089	587566	keystroke	p	n/a
293.902	0.151	587804	keystroke	a	n/a
294.037	0.076	588074	keystroke	p	n/a
294.382	0.151	588764	keystroke	r	n/a
294.712	0.06	589424	keystroke	Key.backspace	n/a
294.877	0.105	589754	keystroke	Key.backspace	n/a
294.938	0.165	589876	keystroke	r	n/a
295.057	0.135	590114	keystroke	a	n/a
295.312	0.135	590624	keystroke	d	n/a
295.402	0.09	590804	keystroke	i	n/a
295.658	0.1495	591316	keystroke	s	n/a
295.8675	0.135	591735	keystroke	e	n/a
296.0175	0.135	592035	keystroke	Key.space	n/a
296.1675	0.135	592335	keystroke	p	n/a
296.4525	0.105	592905	keystroke	i	n/a
296.6025	0.21	593205	keystroke	c	n/a
296.7525	0.12	593505	keystroke	k	n/a
297.0225	0.225	594045	keystroke	u	n/a
297.1425	0.225	594285	keystroke	p	n/a
297.3075	0.135	594615	keystroke	Key.space	n/a
297.4875	0.165	594975	keystroke	s	n/a
297.6075	0.135	595215	keystroke	o	n/a
297.9375	0.12	595875	keystroke	Key.backspace	n/a
298.223	0.075	596446	keystroke	i	n/a
298.313	0.165	596626	keystroke	s	n/a
298.448	0.165	596896	keystroke	t	n/a
298.643	0.225	597286	keystroke	e	n/a
298.793	0.15	597586	keystroke	r	n/a
298.958	0.09	597916	keystroke	Key.space	n/a
299.183	0.195	598366	keystroke	c	n/a
299.348	0.135	598696	keystroke	h	n/a
299.828	0.12	599656	keystroke	r	n/a
300.008	0.105	600016	keystroke	i	n/a
300.172	0.135	600344	keystroke	s	n/a
300.352	0.106	600704	keystroke	t	n/a
300.488	0.089	600976	keystroke	i	n/a
300.652	0.151	601304	keystroke	n	n/a
300.817	0.166	601634	keystroke	e	n/a
301.012	0.12	602024	keystroke	Key.enter	n/a
301.1465	8.6805	602293	prompt	n/a	welsh software vienna conducted\n
301.777	0.045	603554	keystroke	s	n/a
302.182	0.135	604364	keystroke	Key.backspace	n/a
302.257	0.18	604514	keystroke	w	n/a
302.407	0.15	604814	keystroke	e	n/a
302.767	0.105	605534	keystroke	l	n/a
303.067	0.15	606134	keystroke	s	n/a
303.202	0.075	606404	keystroke	h	n/a
303.577	0.045	607154	keystroke	Key.space	n/a
303.742	0.18	607484	keystroke	s	n/a
303.907	0.135	607814	keystroke	o	n/a
304.117	0.105	608234	keystroke	f	n/a
304.342	0.105	608684	keystroke	t	n/a
304.972	0.36	609944	keystroke	w	n/a
305.212	0.165	610424	keystroke	a	n/a
305.287	0.255	610574	keystroke	r	n/a
305.512	0.18	611024	keystroke	e	n/a
305.962	0.09	611924	keystroke	Key.space	n/a
306.487	0.1505	612974	keystroke	v	n/a
306.5775	0.105	613155	keystroke	i	n/a
306.7575	0.135	613515	keystroke	e	n/a
306.9975	0.105	613995	keystroke	n	n/a
307.2075	0.12	614415	keystroke	n	n/a
307.3425	0.12	614685	keystroke	a	n/a
307.4925	0.105	614985	keystroke	Key.space	n/a
307.642	0.195	615284	keystroke	c	n/a
307.747	0.135	615494	keystroke	o	n/a
307.867	0.15	615734	keystroke	n	n/a
308.137	0.105	616274	keystroke	d	n/a
308.617	0.03	617234	keystroke	u	n/a
308.797	0.105	617594	keystroke	c	n/a
309.067	0.12	618134	keystroke	t	n/a
309.292	0.09	618584	keystroke	e	n/a
309.517	0.135	619034	keystroke	d	n/a
309.697	0.12	619394	keystroke	Key.enter	n/a
309.8315	10.7205	619663	prompt	n/a	meetup luggage satellite conjunction\n
310.4775	0.075	620955	keystroke	m	n/a
310.5825	0.1495	621165	keystroke	e	n/a
310.792	0.09	621584	keystroke	t	n/a
310.972	0.105	621944	keystroke	t	n/a
311.437	0.075	622874	keystroke	Key.backspace	n/a
311.617	0.135	623234	keystroke	Key.backspace	n/a
311.707	0.135	623414	keystroke	e	n/a
311.932	0.135	623864	keystroke	t	n/a
312.5025	0.179	625005	keystroke	u	n/a
312.6375	0.164	625275	keystroke	p	n/a
312.817	0.1195	625634	keystroke	Key.space	n/a
313.102	0.12	626204	keystroke	l	n/a
313.327	0.105	626654	keystroke	u	n/a
313.567	0.075	627134	keystroke	g	n/a
313.777	0.18	627554	keystroke	g	n/a
313.942	0.1505	627884	keystroke	a	n/a
314.1225	0.15	628245	keystroke	g	n/a
314.3175	0.165	628635	keystroke	e	n/a
314.5125	0.135	629025	keystroke	Key.space	n/a
314.8575	0.285	629715	keystroke	s	n/a
315.1575	0.045	630315	keystroke	t	n/a
315.6075	0.12	631215	keystroke	Key.backspace	n/a
315.7125	0.165	631425	keystroke	a	n/a
315.8475	0.195	631695	keystroke	t	n/a
316.0275	0.165	632055	keystroke	e	n/a
316.3275	0.105	632655	keystroke	l	n/a
316.5675	0.195	633135	keystroke	l	n/a
316.7025	0.105	633405	keystroke	i	n/a
316.8825	0.24	633765	keystroke	t	n/a
317.0625	0.15	634125	keystroke	e	n/a
317.2725	0.1345	634545	keystroke	Key.space	n/a
317.542	0.195	635084	keystroke	c	n/a
317.632	0.165	635264	keystroke	o	n/a
317.782	0.15	635564	keystroke	n	n/a
318.187	0.135	636374	keystroke	j	n/a
318.427	0.1205	636854	keystroke	u	n/a
318.9215	0.075	637843	keystroke	n	n/a
319.1015	0.151	638203	keystroke	c	n/a
319.4165	0.15	638833	keystroke	t	n/a
319.4775	0.314	638955	keystroke	i	n/a
319.5975	0.209	639195	keystroke	o	n/a
319.717	0.1345	639434	keystroke	n	n/a
320.4215	0.12	640843	keystroke	Key.enter	n/a
320.562	8.1795	641124	prompt	n/a	couples expedia armed circuit\n
321.0965	0.181	642193	keystroke	c	n/a
321.1865	0.166	642373	keystroke	o	n/a
321.4425	0.18	642885	keystroke	p	n/a
321.9075	0.0895	643815	keystroke	Key.backspace	n/a
322.177	0.195	644354	keystroke	u	n/a
322.327	0.105	644654	keystroke	p	n/a
322.567	0.135	645134	keystroke	l	n/a
322.672	0.135	645344	keystroke	e	n/a
322.927	0.15	645854	keystroke	s	n/a
323.062	0.105	646124	keystroke	Key.space	n/a
323.272	0.09	646544	keystroke	e	n/a
323.512	0.15	647024	keystroke	x	n/a
323.647	0.135	647294	keystroke	p	n/a
323.797	0.12	647594	keystroke	e	n/a
324.067	0.135	648134	keystroke	d	n/a
324.172	0.12	648344	keystroke	i	n/a
324.367	0.12	648734	keystroke	a	n/a
324.532	0.1055	649064	keystroke	Key.space	n/a
324.7425	0.15	649485	keystroke	a	n/a
324.9075	0.135	649815	keystroke	r	n/a
325.7625	0.105	651525	keystroke	m	n/a
326.2275	0.135	652455	keystroke	e	n/a
326.5425	0.165	653085	keystroke	d	n/a
326.7525	0.105	653505	keystroke	Key.space	n/a
326.9325	0.165	653865	keystroke	c	n/a
327.1125	0.12	654225	keystroke	i	n/a
327.2775	0.135	654555	keystroke	r	n/a
327.7425	0.165	655485	keystroke	c	n/a
327.9225	0.06	655845	keystroke	u	n/a
328.237	0.075	656474	keystroke	i	n/a
328.342	0.135	656684	keystroke	t	n/a
328.672	0.06	657344	keystroke	Key.enter	n/a
328.7575	7.214	657515	prompt	n/a	mutual notice behind leslie\n
329.512	0.12	659024	keystroke	m	n/a
329.767	0.135	659534	keystroke	u	n/a
329.992	0.165	659984	keystroke	t	n/a
330.172	0.105	660344	keystroke	u	n/a
330.337	0.135	660674	keystroke	a	n/a
330.487	0.21	660974	keystroke	l	n/a
330.652	0.135	661304	keystroke	Key.space	n/a
330.847	0.18	661694	keystroke	n	n/a
330.952	0.15	661904	keystroke	o	n/a
331.042	0.135	662084	keystroke	t	n/a
331.222	0.105	662444	keystroke	i	n/a
331.402	0.135	662804	keystroke	c	n/a
331.687	0.1355	663374	keystroke	e	n/a
331.7915	0.12	663583	keystroke	Key.space	n/a
332.0775	0.075	664155	keystroke	b	n/a
332.8575	0.015	665715	keystroke	e	n/a
333.4425	0.1195	666885	keystroke	h	n/a
333.622	0.105	667244	keystroke	i	n/a
333.832	0.135	667664	keystroke	n	n/a
333.982	0.18	667964	keystroke	d	n/a
334.117	0.105	668234	keystroke	Key.space	n/a
334.282	0.165	668564	keystroke	l	n/a
334.417	0.12	668834	keystroke	e	n/a
334.627	0.18	669254	keystroke	s	n/a
334.792	0.195	669584	keystroke	l	n/a
334.927	0.135	669854	keystroke	i	n/a
335.467	0.12	670934	keystroke	e	n/a
335.857	0.105	671714	keystroke	Key.enter	n/a
335.978	9.9835	671956	prompt	n/a	announcements finish disease preparing\n
336.592	0.15	673184	keystroke	a	n/a
336.727	0.075	673454	keystroke	n	n/a
336.907	0.15	673814	keystroke	n	n/a
337.012	0.285	674024	keystroke	o	n/a
337.222	0.12	674444	keystroke	u	n/a
337.477	0.12	674954	keystroke	n	n/a
337.8075	0.135	675615	keystroke	c	n/a
338.0775	0.09	676155	keystroke	e	n/a
338.2425	0.135	676485	keystroke	m	n/a
338.3325	0.254	676665	keystroke	e	n/a
338.4825	0.149	676965	keystroke	n	n/a
338.5715	0.135	677143	keystroke	t	n/a
338.7965	0.1805	677593	keystroke	s	n/a
338.9615	0.0905	677923	keystroke	Key.space	n/a
339.202	0.165	678404	keystroke	f	n/a
339.3215	0.0605	678643	keystroke	i	n/a
339.502	0.2095	679004	keystroke	n	n/a
339.637	0.1205	679274	keystroke	i	n/a
339.8015	0.15	679603	keystroke	s	n/a
339.9675	0.149	679935	keystroke	h	n/a
340.1175	0.104	680235	keystroke	Key.space	n/a
340.3265	0.1205	680653	keystroke	d	n/a
340.462	0.0905	680924	keystroke	i	n/a
340.7325	0.36	681465	keystroke	s	n/a
341.6475	0.135	683295	keystroke	e	n/a
342.2625	0.15	684525	keystroke	a	n/a
342.7115	0.151	685423	keystroke	s	n/a
343.072	0.135	686144	keystroke	e	n/a
343.5525	0.12	687105	keystroke	Key.space	n/a
343.9725	0.135	687945	keystroke	p	n/a
344.0625	0.21	688125	keystroke	r	n/a
344.1825	0.15	688365	keystroke	e	n/a
344.4975	0.165	688995	keystroke	p	n/a
344.8565	0.135	689713	keystroke	a	n/a
345.0665	0.181	690133	keystroke	r	n/a
345.2625	0.12	690525	keystroke	i	n/a
345.4875	0.15	690975	keystroke	n	n/a
345.6225	0.195	691245	keystroke	g	n/a
345.8025	0.15	691605	keystroke	Key.enter	n/a
345.966	8.8155	691932	prompt	n/a	factory open blank dining\n
346.7775	0.135	693555	keystroke	f	n/a
346.8975	0.12	693795	keystroke	a	n/a
347.1075	0.15	694215	keystroke	c	n/a
347.3925	0.105	694785	keystroke	o	n/a
347.4675	0.105	694935	keystroke	t	n/a
347.722	0.12	695444	keystroke	r	n/a
348.232	0.105	696464	keystroke	Key.backspace	n/a
348.427	0.135	696854	keystroke	Key.backspace	n/a
348.9815	0.1205	697963	keystroke	Key.backspace	n/a
349.1465	0.1355	698293	keystroke	t	n/a
349.3265	0.1355	698653	keystroke	o	n/a
349.507	0.105	699014	keystroke	r	n/a
349.717	0.03	699434	keystroke	y	n/a
350.287	0.12	700574	keystroke	Key.space	n/a
350.467	0.1945	700934	keystroke	o	n/a
350.6315	0.15	701263	keystroke	p	n/a
350.7675	0.179	701535	keystroke	e	n/a
350.9175	0.209	701835	keystroke	n	n/a
351.0975	0.134	702195	keystroke	Key.space	n/a
351.442	0.165	702884	keystroke	b	n/a
351.592	0.15	703184	keystroke	l	n/a
351.727	0.18	703454	keystroke	a	n/a
351.892	0.12	703784	keystroke	n	n/a
352.162	0.135	704324	keystroke	k	n/a
352.312	0.135	704624	keystroke	Key.space	n/a
352.702	0.165	705404	keystroke	d	n/a
352.852	0.075	705704	keystroke	i	n/a
353.047	0.18	706094	keystroke	n	n/a
353.197	0.195	706394	keystroke	i	n/a
353.317	0.135	706634	keystroke	n	n/a
353.452	0.165	706904	keystroke	g	n/a
353.872	0.12	707744	keystroke	Key.space	n/a
354.352	0.12	708704	keystroke	Key.backspace	n/a
354.6675	0.105	709335	keystroke	Key.enter	n/a
354.787	10.9	709574	prompt	n/a	succeed homes catherine dedicated\n
355.432	0.165	710864	keystroke	s	n/a
355.582	0.09	711164	keystroke	u	n/a
355.912	0.12	711824	keystroke	c	n/a
356.122	0.12	712244	keystroke	c	n/a
356.422	0.09	712844	keystroke	e	n/a
356.632	0.09	713264	keystroke	e	n/a
356.872	0.15	713744	keystroke	d	n/a
357.457	0.12	714914	keystroke	Key.space	n/a
357.8775	0.134	715755	keystroke	h	n/a
357.9815	0.1505	715963	keystroke	a	n/a
358.1465	0.0905	716293	keystroke	o	n/a
358.2965	0.165	716593	keystroke	m	n/a
358.4625	0.0895	716925	keystroke	e	n/a
358.7315	0.075	717463	keystroke	Key.backspace	n/a
358.897	0.1055	717794	keystroke	Key.backspace	n/a
359.0475	0.119	718095	keystroke	Key.backspace	n/a
359.2725	0.075	718545	keystroke	Key.backspace	n/a
359.5275	0.15	719055	keystroke	o	n/a
359.7525	0.15	719505	keystroke	m	n/a
359.8875	0.105	719775	keystroke	e	n/a
360.5325	0.165	721065	keystroke	s	n/a
360.7265	0.12	721453	keystroke	Key.space	n/a
361.0415	0.165	722083	keystroke	c	n/a
361.2515	0.15	722503	keystroke	a	n/a
361.4775	0.134	722955	keystroke	t	n/a
361.5965	0.12	723193	keystroke	h	n/a
362.1065	0.135	724213	keystroke	e	n/a
362.3315	0.135	724663	keystroke	r	n/a
362.3765	0.091	724753	keystroke	i	n/a
362.6315	0.12	725263	keystroke	n	n/a
363.4415	0.1205	726883	keystroke	e	n/a
363.712	0.06	727424	keystroke	Key.space	n/a
363.862	0.09	727724	keystroke	d	n/a
364.072	0.09	728144	keystroke	e	n/a
364.282	0.135	728564	keystroke	d	n/a
364.387	0.12	728774	keystroke	i	n/a
364.552	0.15	729104	keystroke	c	n/a
364.762	0.135	729524	keystroke	a	n/a
364.867	0.15	729734	keystroke	t	n/a
365.092	0.12	730184	keystroke	e	n/a
365.332	0.15	730664	keystroke	d	n/a
365.572	0.105	731144	keystroke	Key.enter	n/a
365.692	10.0015	731384	prompt	n/a	tablet physicians mainland frequency\n
366.2615	0.135	732523	keystroke	t	n/a
366.4715	0.105	732943	keystroke	a	n/a
366.6815	0.09	733363	keystroke	b	n/a
366.8015	0.15	733603	keystroke	l	n/a
366.9365	0.12	733873	keystroke	e	n/a
367.2065	0.15	734413	keystroke	t	n/a
367.612	0.09	735224	keystroke	Key.space	n/a
368.137	0.165	736274	keystroke	p	n/a
368.257	0.15	736514	keystroke	h	n/a
368.572	0.09	737144	keystroke	y	n/a
368.767	0.135	737534	keystroke	s	n/a
368.977	0.09	737954	keystroke	i	n/a
369.652	0.12	739304	keystroke	c	n/a
369.787	0.135	739574	keystroke	i	n/a
369.967	0.12	739934	keystroke	a	n/a
370.312	0.09	740624	keystroke	n	n/a
370.552	0.165	741104	keystroke	s	n/a
370.702	0.075	741404	keystroke	Key.space	n/a
370.972	0.135	741944	keystroke	m	n/a
371.122	0.135	742244	keystroke	a	n/a
371.227	0.105	742454	keystroke	i	n/a
371.377	0.165	742754	keystroke	n	n/a
371.527	0.165	743054	keystroke	l	n/a
371.617	0.15	743234	keystroke	a	n/a
371.782	0.12	743564	keystroke	n	n/a
372.472	0.135	744944	keystroke	d	n/a
373.117	0.135	746234	keystroke	Key.space	n/a
373.507	0.015	747014	keystroke	f	n/a
373.672	0.18	747344	keystroke	r	n/a
373.792	0.135	747584	keystroke	e	n/a
374.107	0.1645	748214	keystroke	q	n/a
374.3015	0.135	748603	keystroke	u	n/a
374.4965	0.105	748993	keystroke	e	n/a
374.8265	0.09	749653	keystroke	n	n/a
375.0215	0.165	750043	keystroke	c	n/a
375.2315	0.12	750463	keystroke	y	n/a
375.5315	0.15	751063	keystroke	Key.enter	n/a
375.698	9.264	751396	prompt	n/a	atlantic angeles chapter valued\n
376.371	0.195	752742	keystroke	a	n/a
376.701	0.165	753402	keystroke	t	n/a
376.971	0.166	753942	keystroke	l	n/a
377.122	0.135	754244	keystroke	a	n/a
377.272	0.135	754544	keystroke	n	n/a
377.437	0.15	754874	keystroke	c	n/a
377.782	0.15	755564	keystroke	Key.backspace	n/a
377.887	0.135	755774	keystroke	t	n/a
378.157	0.135	756314	keystroke	i	n/a
378.397	0.15	756794	keystroke	c	n/a
378.637	0.12	757274	keystroke	Key.space	n/a
378.847	0.135	757694	keystroke	a	n/a
378.997	0.12	757994	keystroke	n	n/a
379.177	0.135	758354	keystroke	g	n/a
379.357	0.15	758714	keystroke	e	n/a
379.477	0.135	758954	keystroke	l	n/a
379.672	0.1195	759344	keystroke	e	n/a
379.942	0.165	759884	keystroke	s	n/a
380.092	0.135	760184	keystroke	Key.space	n/a
380.347	0.15	760694	keystroke	c	n/a
380.512	0.09	761024	keystroke	h	n/a
380.617	0.12	761234	keystroke	a	n/a
380.782	0.045	761564	keystroke	n	n/a
381.307	0.09	762614	keystroke	Key.backspace	n/a
381.562	0.165	763124	keystroke	p	n/a
381.697	0.12	763394	keystroke	t	n/a
381.907	0.18	763814	keystroke	e	n/a
382.042	0.12	764084	keystroke	r	n/a
382.207	0.105	764414	keystroke	Key.space	n/a
382.477	0.18	764954	keystroke	v	n/a
382.627	0.165	765254	keystroke	a	n/a
382.777	0.105	765554	keystroke	u	n/a
383.167	0.12	766334	keystroke	l	n/a
383.482	0.06	766964	keystroke	Key.backspace	n/a
383.647	0.09	767294	keystroke	Key.backspace	n/a
383.932	0.12	767864	keystroke	l	n/a
384.067	0.09	768134	keystroke	u	n/a
384.262	0.09	768524	keystroke	e	n/a
384.472	0.135	768944	keystroke	d	n/a
384.877	0.075	769754	keystroke	Key.enter	n/a
384.9665	7.48	769933	prompt	n/a	roles locks colon modular\n
386.0015	0.15	772003	keystroke	r	n/a
386.1365	0.09	772273	keystroke	o	n/a
386.3615	0.12	772723	keystroke	l	n/a
386.4365	0.105	772873	keystroke	e	n/a
386.6765	0.135	773353	keystroke	s	n/a
386.7965	0.09	773593	keystroke	Key.space	n/a
386.9915	0.075	773983	keystroke	l	n/a
387.1715	0.135	774343	keystroke	o	n/a
387.3215	0.165	774643	keystroke	c	n/a
387.4715	0.06	774943	keystroke	k	n/a
387.7715	0.135	775543	keystroke	s	n/a
388.1465	0.09	776293	keystroke	Key.space	n/a
388.4765	0.165	776953	keystroke	c	n/a
388.5515	0.105	777103	keystroke	o	n/a
388.7915	0.105	777583	keystroke	l	n/a
389.0615	0.105	778123	keystroke	o	n/a
389.422	0.0295	778844	keystroke	n	n/a
389.9915	0.12	779983	keystroke	Key.space	n/a
390.2315	0.165	780463	keystroke	m	n/a
390.3365	0.15	780673	keystroke	o	n/a
390.6815	0.135	781363	keystroke	f	n/a
390.9815	0.135	781963	keystroke	Key.backspace	n/a
391.1315	0.195	782263	keystroke	d	n/a
391.2815	0.09	782563	keystroke	u	n/a
391.4915	0.135	782983	keystroke	l	n/a
391.6865	0.195	783373	keystroke	a	n/a
391.8665	0.165	783733	keystroke	r	n/a
392.3465	0.09	784693	keystroke	Key.enter	n/a
392.451	7.502	784902	prompt	n/a	added acquire static banned\n
393.0515	0.105	786103	keystroke	a	n/a
393.2465	0.075	786493	keystroke	d	n/a
393.4115	0.135	786823	keystroke	d	n/a
393.6515	0.0895	787303	keystroke	e	n/a
393.846	0.166	787692	keystroke	d	n/a
393.996	0.105	787992	keystroke	Key.space	n/a
394.132	0.105	788264	keystroke	a	n/a
394.521	0.121	789042	keystroke	c	n/a
394.881	0.121	789762	keystroke	q	n/a
395.032	0.045	790064	keystroke	u	n/a
395.241	0.09	790482	keystroke	i	n/a
395.376	0.21	790752	keystroke	r	n/a
395.512	0.134	791024	keystroke	e	n/a
395.797	0.089	791594	keystroke	Key.space	n/a
396.006	0.195	792012	keystroke	s	n/a
396.172	0.179	792344	keystroke	t	n/a
396.352	0.119	792704	keystroke	a	n/a
396.456	0.135	792912	keystroke	t	n/a
396.712	0.059	793424	keystroke	i	n/a
396.892	0.134	793784	keystroke	c	n/a
397.341	0.12	794682	keystroke	Key.space	n/a
397.671	0.15	795342	keystroke	b	n/a
397.986	0.075	795972	keystroke	n	n/a
398.196	0.09	796392	keystroke	n	n/a
398.316	0.12	796632	keystroke	e	n/a
398.632	0.0895	797264	keystroke	Key.backspace	n/a
398.8115	0.0905	797623	keystroke	Key.backspace	n/a
398.9765	0.12	797953	keystroke	Key.backspace	n/a
399.0365	0.135	798073	keystroke	a	n/a
399.2315	0.0905	798463	keystroke	n	n/a
399.4115	0.09	798823	keystroke	n	n/a
399.4565	0.09	798913	keystroke	e	n/a
399.6815	0.135	799363	keystroke	d	n/a
399.832	0.1195	799664	keystroke	Key.enter	n/a
399.9565	8.585	799913	prompt	n/a	commented draws capacity rehabilitation\n
400.6265	0.15	801253	keystroke	c	n/a
400.7915	0.105	801583	keystroke	o	n/a
401.0015	0.075	802003	keystroke	m	n/a
401.1815	0.12	802363	keystroke	m	n/a
401.2115	0.135	802423	keystroke	e	n/a
401.4365	0.09	802873	keystroke	n	n/a
401.4515	0.105	802903	keystroke	t	n/a
401.6165	0.09	803233	keystroke	e	n/a
401.826	0.12	803652	keystroke	d	n/a
401.931	0.09	803862	keystroke	Key.space	n/a
402.696	0.12	805392	keystroke	d	n/a
402.906	0.18	805812	keystroke	r	n/a
403.101	0.075	806202	keystroke	a	n/a
403.3565	0.1645	806713	keystroke	w	n/a
403.9265	0.135	807853	keystroke	s	n/a
404.0765	0.1045	808153	keystroke	Key.space	n/a
404.256	0.135	808512	keystroke	c	n/a
404.436	0.12	808872	keystroke	a	n/a
404.586	0.165	809172	keystroke	p	n/a
404.736	0.12	809472	keystroke	a	n/a
405.051	0.06	810102	keystroke	c	n/a
405.156	0.105	810312	keystroke	i	n/a
405.351	0.165	810702	keystroke	t	n/a
405.517	0.164	811034	keystroke	y	n/a
405.636	0.15	811272	keystroke	Key.space	n/a
405.831	0.18	811662	keystroke	r	n/a
405.936	0.135	811872	keystroke	e	n/a
406.296	0.075	812592	keystroke	h	n/a
406.491	0.12	812982	keystroke	a	n/a
406.776	0.135	813552	keystroke	b	n/a
407.001	0.06	814002	keystroke	i	n/a
407.181	0.2105	814362	keystroke	l	n/a
407.301	0.12	814602	keystroke	i	n/a
407.451	0.15	814902	keystroke	t	n/a
407.661	0.12	815322	keystroke	a	n/a
407.751	0.18	815502	keystroke	t	n/a
407.856	0.3	815712	keystroke	i	n/a
407.946	0.195	815892	keystroke	o	n/a
408.066	0.15	816132	keystroke	n	n/a
408.441	0.09	816882	keystroke	Key.enter	n/a
408.5465	11.8895	817093	prompt	n/a	indices deferred english indirect\n
409.266	0.03	818532	keystroke	c	n/a
409.626	0.12	819252	keystroke	Key.backspace	n/a
409.941	0.105	819882	keystroke	i	n/a
410.166	0.135	820332	keystroke	n	n/a
410.406	0.135	820812	keystroke	c	n/a
410.496	0.09	820992	keystroke	i	n/a
411.246	0.075	822492	keystroke	Key.backspace	n/a
411.456	0.105	822912	keystroke	Key.backspace	n/a
411.606	0.18	823212	keystroke	d	n/a
411.756	0.09	823512	keystroke	i	n/a
411.966	0.105	823932	keystroke	c	n/a
412.221	0.12	824442	keystroke	e	n/a
412.776	0.165	825552	keystroke	s	n/a
412.911	0.12	825822	keystroke	Key.space	n/a
413.151	0.12	826302	keystroke	d	n/a
413.466	0.105	826932	keystroke	r	n/a
414.051	0.075	828102	keystroke	Key.backspace	n/a
414.156	0.18	828312	keystroke	e	n/a
414.531	0.165	829062	keystroke	f	n/a
414.711	0.15	829422	keystroke	e	n/a
415.0115	0.105	830023	keystroke	r	n/a
415.2365	0.18	830473	keystroke	r	n/a
415.356	0.1345	830712	keystroke	e	n/a
415.6555	0.1355	831311	keystroke	d	n/a
415.881	0.1045	831762	keystroke	Key.space	n/a
416.0905	0.105	832181	keystroke	e	n/a
416.421	0.1505	832842	keystroke	n	n/a
416.8415	0.135	833683	keystroke	g	n/a
417.2465	0.21	834493	keystroke	l	n/a
417.5915	0.12	835183	keystroke	i	n/a
417.9065	0.165	835813	keystroke	s	n/a
418.1455	0.21	836291	keystroke	h	n/a
418.2965	0.164	836593	keystroke	Key.space	n/a
418.4915	0.075	836983	keystroke	i	n/a
418.5965	0.164	837193	keystroke	n	n/a
418.7915	0.18	837583	keystroke	d	n/a
418.9255	0.105	837851	keystroke	i	n/a
419.4205	0.15	838841	keystroke	r	n/a
419.5105	0.135	839021	keystroke	e	n/a
419.8105	0.135	839621	keystroke	c	n/a
420.0805	0.165	840161	keystroke	t	n/a
420.2755	0.15	840551	keystroke	Key.enter	n/a
420.4405	8.8	840881	prompt	n/a	internship acids knock spots\n
421.0255	0.12	842051	keystroke	i	n/a
421.1905	0.135	842381	keystroke	n	n/a
421.2955	0.105	842591	keystroke	t	n/a
421.4755	0.15	842951	keystroke	e	n/a
421.5805	0.091	843161	keystroke	r	n/a
421.701	0.09	843402	keystroke	n	n/a
422.076	0.12	844152	keystroke	Key.backspace	n/a
422.226	0.165	844452	keystroke	s	n/a
422.376	0.06	844752	keystroke	j	n/a
422.826	0.075	845652	keystroke	Key.backspace	n/a
422.991	0.12	845982	keystroke	Key.backspace	n/a
423.246	0.09	846492	keystroke	n	n/a
423.546	0.195	847092	keystroke	s	n/a
423.681	0.18	847362	keystroke	h	n/a
423.801	0.12	847602	keystroke	i	n/a
424.056	0.12	848112	keystroke	p	n/a
424.296	0.09	848592	keystroke	Key.space	n/a
424.446	0.105	848892	keystroke	a	n/a
424.671	0.03	849342	keystroke	d	n/a
425.106	0.06	850212	keystroke	Key.backspace	n/a
425.151	0.12	850302	keystroke	c	n/a
425.346	0.075	850692	keystroke	i	n/a
425.526	0.09	851052	keystroke	d	n/a
425.751	0.135	851502	keystroke	s	n/a
425.871	0.135	851742	keystroke	Key.space	n/a
426.231	0.12	852462	keystroke	k	n/a
426.441	0.18	852882	keystroke	n	n/a
426.531	0.15	853062	keystroke	o	n/a
426.936	0.12	853872	keystroke	c	n/a
427.116	0.12	854232	keystroke	k	n/a
427.281	0.12	854562	keystroke	Key.space	n/a
427.506	0.06	855012	keystroke	o	n/a
427.8955	0.106	855791	keystroke	Key.backspace	n/a
428.0165	0.18	856033	keystroke	s	n/a
428.2415	0.12	856483	keystroke	p	n/a
428.4665	0.119	856933	keystroke	o	n/a
428.7355	0.106	857471	keystroke	t	n/a
428.9765	0.164	857953	keystroke	s	n/a
429.1415	0.089	858283	keystroke	Key.enter	n/a
429.2465	8.919	858493	prompt	n/a	coffee medium stroke disagree\n
429.9215	0.12	859843	keystroke	c	n/a
430.0265	0.075	860053	keystroke	o	n/a
430.3715	0.045	860743	keystroke	f	n/a
430.5965	0.12	861193	keystroke	f	n/a
430.8515	0.09	861703	keystroke	e	n/a
431.0465	0.135	862093	keystroke	e	n/a
431.1965	0.15	862393	keystroke	Key.space	n/a
431.5415	0.12	863083	keystroke	m	n/a
431.6165	0.105	863233	keystroke	e	n/a
431.8565	0.165	863713	keystroke	d	n/a
431.9765	0.09	863953	keystroke	u	n/a
432.3365	0.075	864673	keystroke	Key.backspace	n/a
432.6365	0.045	865273	keystroke	i	n/a
432.9965	0.06	865993	keystroke	u	n/a
433.3415	0.015	866683	keystroke	m	n/a
433.5365	0.075	867073	keystroke	Key.space	n/a
433.7615	0.12	867523	keystroke	s	n/a
433.9265	0.105	867853	keystroke	t	n/a
434.1215	0.135	868243	keystroke	r	n/a
434.2115	0.12	868423	keystroke	o	n/a
434.4815	0.075	868963	keystroke	k	n/a
434.6465	0.12	869293	keystroke	e	n/a
434.7515	0.105	869503	keystroke	Key.space	n/a
434.9915	0.105	869983	keystroke	d	n/a
435.2015	0.03	870403	keystroke	i	n/a
435.5015	0.135	871003	keystroke	Key.backspace	n/a
435.6365	0.119	871273	keystroke	s	n/a
436.2205	0.091	872441	keystroke	Key.backspace	n/a
436.5365	0.06	873073	keystroke	i	n/a
436.7155	0.136	873431	keystroke	s	n/a
437.0005	0.106	874001	keystroke	a	n/a
437.2265	0.12	874453	keystroke	g	n/a
437.4665	0.164	874933	keystroke	r	n/a
437.5715	0.1345	875143	keystroke	e	n/a
437.7955	0.151	875591	keystroke	e	n/a
438.0805	0.075	876161	keystroke	Key.enter	n/a
438.1705	11.275	876341	prompt	n/a	utils japanese further improvement\n
438.966	0.12	877932	keystroke	u	n/a
439.206	0.1355	878412	keystroke	t	n/a
439.911	0.075	879822	keystroke	i	n/a
440.136	0.135	880272	keystroke	l	n/a
440.316	0.195	880632	keystroke	s	n/a
440.496	0.09	880992	keystroke	Key.space	n/a
440.811	0.105	881622	keystroke	j	n/a
440.961	0.135	881922	keystroke	a	n/a
441.276	0.105	882552	keystroke	p	n/a
441.576	0.06	883152	keystroke	p	n/a
441.936	0.12	883872	keystroke	Key.backspace	n/a
442.176	0.15	884352	keystroke	a	n/a
442.341	0.075	884682	keystroke	n	n/a
442.626	0.09	885252	keystroke	e	n/a
442.866	0.195	885732	keystroke	s	n/a
443.062	0.134	886124	keystroke	e	n/a
443.256	0.12	886512	keystroke	Key.space	n/a
443.541	0.105	887082	keystroke	f	n/a
443.6605	0.105	887321	keystroke	u	n/a
443.7955	0.12	887591	keystroke	t	n/a
444.366	0.105	888732	keystroke	Key.backspace	n/a
444.486	0.09	888972	keystroke	r	n/a
444.681	0.135	889362	keystroke	t	n/a
444.771	0.06	889542	keystroke	h	n/a
444.921	0.18	889842	keystroke	e	n/a
445.041	0.135	890082	keystroke	r	n/a
445.266	0.0905	890532	keystroke	Key.space	n/a
446.0615	0.045	892123	keystroke	i	n/a
446.1665	0.165	892333	keystroke	m	n/a
446.3015	0.15	892603	keystroke	p	n/a
446.4815	0.24	892963	keystroke	r	n/a
446.6765	0.12	893353	keystroke	e	n/a
447.2165	0.119	894433	keystroke	Key.backspace	n/a
447.5015	0.12	895003	keystroke	o	n/a
447.7255	0.136	895451	keystroke	v	n/a
447.8305	0.181	895661	keystroke	e	n/a
448.1455	0.09	896291	keystroke	m	n/a
448.2205	0.15	896441	keystroke	e	n/a
448.3715	0.089	896743	keystroke	n	n/a
448.4455	0.151	896891	keystroke	t	n/a
449.3605	0.075	898721	keystroke	Key.enter	n/a
449.45	13.5105	898900	prompt	n/a	genetics analyst championship jaguar\n
450.246	0.135	900492	keystroke	g	n/a
450.411	0.15	900822	keystroke	e	n/a
450.516	0.12	901032	keystroke	n	n/a
450.651	0.165	901302	keystroke	e	n/a
451.281	0.135	902562	keystroke	t	n/a
451.431	0.105	902862	keystroke	i	n/a
451.641	0.135	903282	keystroke	c	n/a
452.016	0.15	904032	keystroke	s	n/a
452.211	0.12	904422	keystroke	Key.space	n/a
452.406	0.12	904812	keystroke	a	n/a
452.526	0.12	905052	keystroke	n	n/a
452.661	0.12	905322	keystroke	a	n/a
452.856	0.135	905712	keystroke	l	n/a
453.096	0.09	906192	keystroke	y	n/a
453.261	0.18	906522	keystroke	s	n/a
453.381	0.105	906762	keystroke	Key.space	n/a
453.681	0.15	907362	keystroke	c	n/a
453.801	0.105	907602	keystroke	h	n/a
454.7015	0.12	909403	keystroke	Key.backspace	n/a
454.926	0.105	909852	keystroke	Key.backspace	n/a
455.121	0.09	910242	keystroke	Key.backspace	n/a
455.496	0.165	910992	keystroke	t	n/a
455.646	0.09	911292	keystroke	Key.space	n/a
456.201	0.195	912402	keystroke	c	n/a
456.321	0.105	912642	keystroke	h	n/a
456.486	0.15	912972	keystroke	a	n/a
456.576	0.18	913152	keystroke	n	n/a
456.816	0.165	913632	keystroke	p	n/a
457.386	0.09	914772	keystroke	Key.backspace	n/a
457.581	0.105	915162	keystroke	Key.backspace	n/a
458.481	0.12	916962	keystroke	m	n/a
458.916	0.1505	917832	keystroke	p	n/a
459.2455	0.12	918491	keystroke	i	n/a
459.4855	0.151	918971	keystroke	o	n/a
459.7105	0.121	919421	keystroke	n	n/a
459.8905	0.195	919781	keystroke	s	n/a
460.0405	0.135	920081	keystroke	h	n/a
460.1305	0.15	920261	keystroke	i	n/a
460.4155	0.105	920831	keystroke	p	n/a
460.911	0.12	921822	keystroke	Key.space	n/a
461.3755	0.15	922751	keystroke	j	n/a
461.5405	0.1505	923081	keystroke	a	n/a
461.856	0.165	923712	keystroke	g	n/a
461.961	0.12	923922	keystroke	u	n/a
462.156	0.15	924312	keystroke	a	n/a
462.606	0.15	925212	keystroke	r	n/a
462.816	0.135	925632	keystroke	Key.enter	n/a
462.965	7.8555	925930	prompt	n/a	hear treasures shock gore\n
463.641	0.075	927282	keystroke	j	n/a
463.656	0.075	927312	keystroke	h	n/a
463.746	0.12	927492	keystroke	e	n/a
464.151	0.075	928302	keystroke	Key.backspace	n/a
464.331	0.09	928662	keystroke	Key.backspace	n/a
464.496	0.135	928992	keystroke	Key.backspace	n/a
465.081	0.165	930162	keystroke	h	n/a
465.231	0.135	930462	keystroke	e	n/a
465.411	0.165	930822	keystroke	a	n/a
465.546	0.1495	931092	keystroke	r	n/a
466.0705	0.12	932141	keystroke	Key.space	n/a
466.3405	0.105	932681	keystroke	t	n/a
466.5205	0.195	933041	keystroke	r	n/a
466.6255	0.15	933251	keystroke	e	n/a
466.8955	0.075	933791	keystroke	s	n/a
467.3305	0.105	934661	keystroke	Key.backspace	n/a
467.3755	0.165	934751	keystroke	a	n/a
467.5855	0.165	935171	keystroke	s	n/a
467.8855	0.12	935771	keystroke	u	n/a
468.0955	0.135	936191	keystroke	r	n/a
468.1555	0.15	936311	keystroke	e	n/a
468.4405	0.18	936881	keystroke	s	n/a
468.6355	0.135	937271	keystroke	Key.space	n/a
468.9355	0.18	937871	keystroke	s	n/a
469.0405	0.21	938081	keystroke	h	n/a
469.1905	0.165	938381	keystroke	o	n/a
469.3705	0.195	938741	keystroke	c	n/a
469.5805	0.135	939161	keystroke	k	n/a
469.7605	0.12	939521	keystroke	Key.space	n/a
470.0155	0.15	940031	keystroke	g	n/a
470.1055	0.15	940211	keystroke	o	n/a
470.3455	0.15	940691	keystroke	r	n/a
470.4055	0.15	940811	keystroke	e	n/a
470.6755	0.135	941351	keystroke	Key.enter	n/a
470.8245	5.688	941649	prompt	n/a	genome funk share sega\n
471.5605	0.12	943121	keystroke	g	n/a
471.771	0.135	943542	keystroke	e	n/a
471.921	0.165	943842	keystroke	n	n/a
472.491	0.12	944982	keystroke	o	n/a
472.746	0.135	945492	keystroke	m	n/a
472.866	0.15	945732	keystroke	e	n/a
473.046	0.105	946092	keystroke	Key.space	n/a
473.256	0.18	946512	keystroke	f	n/a
473.376	0.105	946752	keystroke	u	n/a
473.646	0.1655	947292	keystroke	n	n/a
473.9005	0.165	947801	keystroke	k	n/a
474.0515	0.089	948103	keystroke	Key.space	n/a
474.2305	0.151	948461	keystroke	s	n/a
474.3505	0.1355	948701	keystroke	h	n/a
474.546	0.12	949092	keystroke	a	n/a
474.636	0.195	949272	keystroke	r	n/a
474.711	0.1645	949422	keystroke	e	n/a
474.8905	0.1205	949781	keystroke	Key.space	n/a
475.1755	0.09	950351	keystroke	g	n/a
475.476	0.12	950952	keystroke	Key.backspace	n/a
475.551	0.2245	951102	keystroke	s	n/a
475.686	0.1645	951372	keystroke	e	n/a
475.9705	0.18	951941	keystroke	g	n/a
476.1965	0.119	952393	keystroke	a	n/a
476.4055	0.105	952811	keystroke	Key.enter	n/a
476.5155	8.015	953031	prompt	n/a	carlos vegas exchanges turned\n
477.1855	0.165	954371	keystroke	c	n/a
477.3655	0.18	954731	keystroke	a	n/a
477.5605	0.135	955121	keystroke	r	n/a
477.7105	0.12	955421	keystroke	l	n/a
477.9355	0.1955	955871	keystroke	o	n/a
478.041	0.15	956082	keystroke	s	n/a
478.146	0.135	956292	keystroke	Key.space	n/a
478.356	0.24	956712	keystroke	v	n/a
478.581	0.195	957162	keystroke	e	n/a
478.971	0.225	957942	keystroke	g	n/a
479.196	0.15	958392	keystroke	a	n/a
479.361	0.1495	958722	keystroke	s	n/a
479.7505	0.165	959501	keystroke	Key.space	n/a
480.021	0.105	960042	keystroke	e	n/a
480.276	0.135	960552	keystroke	x	n/a
480.561	0.12	961122	keystroke	h	n/a
480.711	0.1345	961422	keystroke	a	n/a
480.816	0.1345	961632	keystroke	n	n/a
480.9655	0.1055	961931	keystroke	g	n/a
481.1155	0.12	962231	keystroke	e	n/a
481.7305	0.15	963461	keystroke	s	n/a
481.9105	0.075	963821	keystroke	Key.space	n/a
482.1505	0.015	964301	keystroke	g	n/a
482.1665	0.074	964333	keystroke	t	n/a
482.4805	0.075	964961	keystroke	u	n/a
482.8255	0.09	965651	keystroke	Key.backspace	n/a
482.9905	0.105	965981	keystroke	Key.backspace	n/a
483.1555	0.135	966311	keystroke	Key.backspace	n/a
483.2455	0.105	966491	keystroke	t	n/a
483.425	0.0905	966850	keystroke	u	n/a
483.4855	0.105	966971	keystroke	r	n/a
483.7555	0.09	967511	keystroke	n	n/a
484.0255	0.09	968051	keystroke	e	n/a
484.2655	0.12	968531	keystroke	d	n/a
484.4155	0.1045	968831	keystroke	Key.enter	n/a
484.535	7.151	969070	prompt	n/a	scope toll religion newly\n
485.375	0.06	970750	keystroke	c	n/a
485.706	0.12	971412	keystroke	Key.backspace	n/a
485.781	0.15	971562	keystroke	s	n/a
486.066	0.12	972132	keystroke	c	n/a
486.186	0.149	972372	keystroke	o	n/a
486.455	0.135	972910	keystroke	p	n/a
486.605	0.15	973210	keystroke	e	n/a
486.7855	0.12	973571	keystroke	Key.space	n/a
487.07	0.1355	974140	keystroke	t	n/a
487.13	0.1055	974260	keystroke	o	n/a
487.4005	0.12	974801	keystroke	l	n/a
487.6405	0.1355	975281	keystroke	l	n/a
487.79	0.12	975580	keystroke	Key.space	n/a
488.045	0.196	976090	keystroke	r	n/a
488.151	0.1645	976302	keystroke	e	n/a
488.3455	0.225	976691	keystroke	l	n/a
488.5555	0.135	977111	keystroke	i	n/a
488.8255	0.135	977651	keystroke	g	n/a
488.9005	0.3	977801	keystroke	i	n/a
489.0205	0.21	978041	keystroke	o	n/a
489.1855	0.195	978371	keystroke	n	n/a
489.3655	0.1355	978731	keystroke	Key.space	n/a
489.651	0.12	979302	keystroke	n	n/a
489.801	0.2095	979602	keystroke	e	n/a
489.936	0.1645	979872	keystroke	w	n/a
491.0155	0.135	982031	keystroke	l	n/a
491.3155	0.075	982631	keystroke	y	n/a
491.646	0.03	983292	keystroke	Key.enter	n/a
491.691	7.396	983382	prompt	n/a	american dock live bhutan\n
492.275	0.105	984550	keystroke	a	n/a
492.3955	0.135	984791	keystroke	m	n/a
492.5155	0.225	985031	keystroke	e	n/a
492.6805	0.165	985361	keystroke	r	n/a
492.8305	0.105	985661	keystroke	i	n/a
493.026	0.15	986052	keystroke	c	n/a
493.2355	0.1505	986471	keystroke	a	n/a
493.9555	0.075	987911	keystroke	n	n/a
494.631	0.1345	989262	keystroke	Key.space	n/a
494.8855	0.1805	989771	keystroke	d	n/a
495.0205	0.1205	990041	keystroke	o	n/a
495.366	0.1345	990732	keystroke	c	n/a
495.6205	0.1955	991241	keystroke	k	n/a
495.785	0.105	991570	keystroke	Key.space	n/a
496.191	0.225	992382	keystroke	l	n/a
496.34	0.166	992680	keystroke	i	n/a
496.7905	0.255	993581	keystroke	v	n/a
496.9855	0.165	993971	keystroke	e	n/a
497.1655	0.135	994331	keystroke	Key.space	n/a
497.4955	0.165	994991	keystroke	b	n/a
497.7805	0.12	995561	keystroke	h	n/a
498.05	0.165	996100	keystroke	u	n/a
498.185	0.195	996370	keystroke	t	n/a
498.44	0.18	996880	keystroke	a	n/a
498.65	0.15	997300	keystroke	n	n/a
498.965	0.12	997930	keystroke	Key.enter	n/a
499.0905	10.491	998181	prompt	n/a	stuffed values computation bryant\n
499.821	0.1645	999642	keystroke	s	n/a
500.0005	0.15	1000001	keystroke	t	n/a
500.2405	0.135	1000481	keystroke	u	n/a
500.526	0.075	1001052	keystroke	f	n/a
500.691	0.194	1001382	keystroke	f	n/a
500.796	0.135	1001592	keystroke	e	n/a
501.0205	0.165	1002041	keystroke	d	n/a
501.1555	0.1345	1002311	keystroke	Key.space	n/a
501.38	0.27	1002760	keystroke	v	n/a
501.545	0.12	1003090	keystroke	a	n/a
501.8605	0.09	1003721	keystroke	u	n/a
501.9805	0.105	1003961	keystroke	e	n/a
502.2505	0.105	1004501	keystroke	d	n/a
502.5955	0.06	1005191	keystroke	Key.backspace	n/a
502.7905	0.045	1005581	keystroke	Key.backspace	n/a
502.9555	0.09	1005911	keystroke	Key.backspace	n/a
503.2255	0.15	1006451	keystroke	l	n/a
503.4055	0.135	1006811	keystroke	u	n/a
503.6155	0.1205	1007231	keystroke	e	n/a
503.871	0.149	1007742	keystroke	s	n/a
504.095	0.1055	1008190	keystroke	Key.space	n/a
504.4105	0.1345	1008821	keystroke	c	n/a
504.47	0.1505	1008940	keystroke	o	n/a
504.6655	0.12	1009331	keystroke	m	n/a
505.0855	0.09	1010171	keystroke	u	n/a
505.4905	0.09	1010981	keystroke	Key.backspace	n/a
505.7905	0.18	1011581	keystroke	p	n/a
505.9105	0.15	1011821	keystroke	u	n/a
506.0755	0.12	1012151	keystroke	t	n/a
506.3005	0.105	1012601	keystroke	a	n/a
506.3905	0.18	1012781	keystroke	t	n/a
506.5855	0.315	1013171	keystroke	i	n/a
506.6755	0.24	1013351	keystroke	o	n/a
506.8105	0.33	1013621	keystroke	n	n/a
507.0955	0.15	1014191	keystroke	Key.space	n/a
507.785	0.12	1015570	keystroke	b	n/a
508.04	0.18	1016080	keystroke	r	n/a
508.19	0.105	1016380	keystroke	y	n/a
508.85	0.135	1017700	keystroke	a	n/a
508.97	0.15	1017940	keystroke	n	n/a
509.255	0.166	1018510	keystroke	t	n/a
509.451	0.12	1018902	keystroke	Key.enter	n/a
509.587	9.4435	1019174	prompt	n/a	dimension abroad pipes answering\n
510.216	0.134	1020432	keystroke	d	n/a
510.515	0.105	1021030	keystroke	i	n/a
510.7405	0.135	1021481	keystroke	m	n/a
510.9355	0.135	1021871	keystroke	e	n/a
511.4155	0.12	1022831	keystroke	n	n/a
511.5955	0.18	1023191	keystroke	s	n/a
511.7155	0.18	1023431	keystroke	i	n/a
511.8805	0.195	1023761	keystroke	o	n/a
512.0455	0.195	1024091	keystroke	n	n/a
512.1955	0.15	1024391	keystroke	Key.space	n/a
512.3465	0.119	1024693	keystroke	a	n/a
512.5705	0.105	1025141	keystroke	b	n/a
512.8105	0.135	1025621	keystroke	r	n/a
512.9155	0.12	1025831	keystroke	o	n/a
513.0955	0.135	1026191	keystroke	w	n/a
513.471	0.135	1026942	keystroke	Key.backspace	n/a
513.591	0.1345	1027182	keystroke	a	n/a
513.8155	0.06	1027631	keystroke	n	n/a
514.2055	0.12	1028411	keystroke	Key.backspace	n/a
514.3405	0.135	1028681	keystroke	d	n/a
514.6255	0.09	1029251	keystroke	Key.space	n/a
515.0005	0.105	1030001	keystroke	p	n/a
515.45	0.06	1030900	keystroke	i	n/a
515.675	0.1355	1031350	keystroke	p	n/a
515.8555	0.12	1031711	keystroke	e	n/a
516.0955	0.15	1032191	keystroke	s	n/a
516.2005	0.105	1032401	keystroke	Key.space	n/a
516.3805	0.12	1032761	keystroke	a	n/a
516.4705	0.135	1032941	keystroke	n	n/a
516.6655	0.12	1033331	keystroke	s	n/a
516.8605	0.255	1033721	keystroke	e	n/a
517.0705	0.105	1034141	keystroke	r	n/a
517.4005	0.075	1034801	keystroke	Key.backspace	n/a
517.581	0.105	1035162	keystroke	Key.backspace	n/a
517.6405	0.18	1035281	keystroke	w	n/a
517.7305	0.21	1035461	keystroke	e	n/a
517.8655	0.135	1035731	keystroke	r	n/a
518.406	0.12	1036812	keystroke	i	n/a
518.541	0.15	1037082	keystroke	n	n/a
518.661	0.12	1037322	keystroke	g	n/a
518.901	0.12	1037802	keystroke	Key.enter	n/a
519.0365	9.7885	1038073	prompt	n/a	designer administration puppy fridge\n
519.7405	0.12	1039481	keystroke	d	n/a
519.9805	0.12	1039961	keystroke	e	n/a
520.1755	0.15	1040351	keystroke	s	n/a
520.4005	0.09	1040801	keystroke	i	n/a
520.6405	0.105	1041281	keystroke	g	n/a
520.8205	0.075	1041641	keystroke	n	n/a
521.3605	0.195	1042721	keystroke	e	n/a
521.5255	0.1205	1043051	keystroke	r	n/a
521.736	0.105	1043472	keystroke	Key.space	n/a
521.931	0.105	1043862	keystroke	a	n/a
522.126	0.135	1044252	keystroke	d	n/a
522.3505	0.165	1044701	keystroke	m	n/a
522.501	0.1195	1045002	keystroke	i	n/a
522.6655	0.195	1045331	keystroke	n	n/a
522.7855	0.105	1045571	keystroke	i	n/a
522.9505	0.1495	1045901	keystroke	s	n/a
523.13	0.136	1046260	keystroke	t	n/a
523.371	0.134	1046742	keystroke	r	n/a
523.626	0.1645	1047252	keystroke	t	n/a
524.1355	0.135	1048271	keystroke	Key.backspace	n/a
524.2555	0.1945	1048511	keystroke	a	n/a
524.39	0.195	1048780	keystroke	t	n/a
524.495	0.33	1048990	keystroke	i	n/a
524.6	0.24	1049200	keystroke	o	n/a
524.81	0.061	1049620	keystroke	n	n/a
525.35	0.165	1050700	keystroke	Key.space	n/a
525.53	0.2255	1051060	keystroke	p	n/a
525.68	0.1205	1051360	keystroke	u	n/a
525.9955	0.285	1051991	keystroke	p	n/a
526.4305	0.15	1052861	keystroke	p	n/a
526.7005	0.135	1053401	keystroke	y	n/a
526.9105	0.105	1053821	keystroke	Key.space	n/a
527.3755	0.15	1054751	keystroke	f	n/a
527.7055	0.1655	1055411	keystroke	r	n/a
527.871	0.1195	1055742	keystroke	i	n/a
528.0505	0.1205	1056101	keystroke	d	n/a
528.3055	0.18	1056611	keystroke	g	n/a
528.4705	0.165	1056941	keystroke	e	n/a
528.6805	0.1345	1057361	keystroke	Key.enter	n/a
528.8295	12.9705	1057659	prompt	n/a	olympics looksmart someone python\n
529.731	0.06	1059462	keystroke	o	n/a
530.0005	0.105	1060001	keystroke	l	n/a
530.3005	0.0605	1060601	keystroke	y	n/a
530.5405	0.1955	1061081	keystroke	m	n/a
530.6605	0.15	1061321	keystroke	p	n/a
530.9605	0.165	1061921	keystroke	c	n/a
531.1405	0.06	1062281	keystroke	i	n/a
531.4105	0.06	1062821	keystroke	Key.backspace	n/a
531.5605	0.09	1063121	keystroke	Key.backspace	n/a
531.7705	0.135	1063541	keystroke	c	n/a
531.8155	0.075	1063631	keystroke	i	n/a
532.5505	0.075	1065101	keystroke	Key.backspace	n/a
532.7305	0.105	1065461	keystroke	Key.backspace	n/a
532.9855	0.06	1065971	keystroke	i	n/a
533.2405	0.135	1066481	keystroke	c	n/a
533.4955	0.18	1066991	keystroke	s	n/a
533.7205	0.105	1067441	keystroke	Key.space	n/a
534.095	0.105	1068190	keystroke	l	n/a
534.305	0.09	1068610	keystroke	o	n/a
534.47	0.1505	1068940	keystroke	o	n/a
534.7405	0.135	1069481	keystroke	k	n/a
535.6105	0.18	1071221	keystroke	s	n/a
535.7755	0.15	1071551	keystroke	m	n/a
535.9405	0.135	1071881	keystroke	a	n/a
536.1205	0.15	1072241	keystroke	r	n/a
536.3455	0.165	1072691	keystroke	t	n/a
536.6755	0.105	1073351	keystroke	Key.space	n/a
538.2055	0.195	1076411	keystroke	s	n/a
538.4155	0.135	1076831	keystroke	o	n/a
538.6255	0.15	1077251	keystroke	m	n/a
538.7155	0.119	1077431	keystroke	e	n/a
538.8505	0.21	1077701	keystroke	o	n/a
538.9855	0.12	1077971	keystroke	n	n/a
539.0905	0.15	1078181	keystroke	e	n/a
539.2705	0.105	1078541	keystroke	Key.space	n/a
539.5855	0.165	1079171	keystroke	p	n/a
539.7505	0.135	1079501	keystroke	y	n/a
540.0955	0.1795	1080191	keystroke	t	n/a
540.1855	0.2245	1080371	keystroke	h	n/a
540.335	0.165	1080670	keystroke	o	n/a
540.74	0.15	1081480	keystroke	n	n/a
541.7605	0.03	1083521	keystroke	Key.enter	n/a
541.804	6.7975	1083608	prompt	n/a	galaxy conf volume sites\n
542.5555	0.225	1085111	keystroke	g	n/a
542.7955	0.105	1085591	keystroke	a	n/a
542.9155	0.15	1085831	keystroke	l	n/a
543.0505	0.09	1086101	keystroke	a	n/a
543.77	0.18	1087540	keystroke	x	n/a
543.965	0.1355	1087930	keystroke	y	n/a
544.0695	0.18	1088139	keystroke	Key.space	n/a
544.3995	0.165	1088799	keystroke	c	n/a
544.5355	0.119	1089071	keystroke	o	n/a
544.895	0.1055	1089790	keystroke	n	n/a
545.42	0.18	1090840	keystroke	f	n/a
545.645	0.1195	1091290	keystroke	Key.space	n/a
545.9455	0.195	1091891	keystroke	v	n/a
546.0805	0.135	1092161	keystroke	o	n/a
546.3805	0.119	1092761	keystroke	l	n/a
546.5145	0.12	1093029	keystroke	u	n/a
546.8755	0.119	1093751	keystroke	m	n/a
547.1305	0.134	1094261	keystroke	e	n/a
547.445	0.075	1094890	keystroke	Key.space	n/a
547.6855	0.1795	1095371	keystroke	s	n/a
547.775	0.12	1095550	keystroke	i	n/a
547.925	0.195	1095850	keystroke	t	n/a
548.03	0.15	1096060	keystroke	e	n/a
548.285	0.165	1096570	keystroke	s	n/a
548.465	0.135	1096930	keystroke	Key.enter	n/a
548.608	8.222	1097216	prompt	n/a	contract decor surgeon illinois\n
549.275	0.105	1098550	keystroke	c	n/a
549.425	0.12	1098850	keystroke	o	n/a
549.59	0.1355	1099180	keystroke	n	n/a
549.665	0.1055	1099330	keystroke	t	n/a
549.8755	0.15	1099751	keystroke	r	n/a
550.0105	0.12	1100021	keystroke	a	n/a
550.2805	0.135	1100561	keystroke	c	n/a
550.5505	0.165	1101101	keystroke	t	n/a
550.6705	0.12	1101341	keystroke	Key.space	n/a
550.94	0.105	1101880	keystroke	d	n/a
551.15	0.075	1102300	keystroke	e	n/a
551.39	0.15	1102780	keystroke	c	n/a
551.48	0.135	1102960	keystroke	o	n/a
552.3805	0.134	1104761	keystroke	r	n/a
552.59	0.135	1105180	keystroke	Key.space	n/a
552.86	0.135	1105720	keystroke	s	n/a
552.965	0.075	1105930	keystroke	u	n/a
553.295	0.135	1106590	keystroke	g	n/a
553.46	0.15	1106920	keystroke	e	n/a
553.67	0.15	1107340	keystroke	i	n/a
554.165	0.075	1108330	keystroke	Key.backspace	n/a
554.42	0.225	1108840	keystroke	o	n/a
554.6	0.105	1109200	keystroke	n	n/a
554.825	0.12	1109650	keystroke	Key.space	n/a
555.005	0.09	1110010	keystroke	i	n/a
555.23	0.0745	1110460	keystroke	l	n/a
555.4245	0.165	1110849	keystroke	l	n/a
555.5145	0.105	1111029	keystroke	i	n/a
555.8755	0.1945	1111751	keystroke	n	n/a
555.995	0.165	1111990	keystroke	o	n/a
556.205	0.105	1112410	keystroke	i	n/a
556.4895	0.195	1112979	keystroke	s	n/a
556.7145	0.105	1113429	keystroke	Key.enter	n/a
556.835	10.585	1113670	prompt	n/a	citations property photographer bangladesh\n
557.5695	0.136	1115139	keystroke	c	n/a
557.735	0.135	1115470	keystroke	i	n/a
557.9	0.15	1115800	keystroke	t	n/a
558.11	0.105	1116220	keystroke	a	n/a
558.29	0.165	1116580	keystroke	t	n/a
558.41	0.36	1116820	keystroke	i	n/a
558.545	0.21	1117090	keystroke	o	n/a
558.71	0.09	1117420	keystroke	n	n/a
559.67	0.165	1119340	keystroke	s	n/a
559.835	0.12	1119670	keystroke	Key.space	n/a
560.105	0.15	1120210	keystroke	p	n/a
560.27	0.165	1120540	keystroke	r	n/a
560.39	0.12	1120780	keystroke	o	n/a
560.63	0.135	1121260	keystroke	p	n/a
560.78	0.195	1121560	keystroke	e	n/a
560.885	0.135	1121770	keystroke	r	n/a
561.125	0.195	1122250	keystroke	t	n/a
561.29	0.12	1122580	keystroke	y	n/a
561.47	0.12	1122940	keystroke	Key.space	n/a
561.7695	0.1655	1123539	keystroke	p	n/a
561.995	0.15	1123990	keystroke	h	n/a
562.16	0.135	1124320	keystroke	o	n/a
562.37	0.1655	1124740	keystroke	t	n/a
562.5055	0.135	1125011	keystroke	o	n/a
562.7455	0.105	1125491	keystroke	g	n/a
562.9555	0.2095	1125911	keystroke	r	n/a
563.12	0.135	1126240	keystroke	a	n/a
563.645	0.0905	1127290	keystroke	p	n/a
563.915	0.09	1127830	keystroke	h	n/a
564.035	0.225	1128070	keystroke	e	n/a
564.185	0.165	1128370	keystroke	r	n/a
564.485	0.12	1128970	keystroke	Key.space	n/a
564.9345	0.12	1129869	keystroke	b	n/a
565.1745	0.1355	1130349	keystroke	a	n/a
565.355	0.12	1130710	keystroke	n	n/a
565.9395	0.135	1131879	keystroke	g	n/a
566.1345	0.12	1132269	keystroke	l	n/a
566.2995	0.1205	1132599	keystroke	a	n/a
566.555	0.105	1133110	keystroke	d	n/a
566.735	0.105	1133470	keystroke	e	n/a
566.93	0.18	1133860	keystroke	s	n/a
567.005	0.15	1134010	keystroke	h	n/a
567.29	0.12	1134580	keystroke	Key.enter	n/a
567.4245	11.2	1134849	prompt	n/a	slope dependence reviews wallace\n
568.04	0.18	1136080	keystroke	s	n/a
568.235	0.09	1136470	keystroke	l	n/a
568.445	0.105	1136890	keystroke	o	n/a
568.67	0.135	1137340	keystroke	p	n/a
568.775	0.15	1137550	keystroke	e	n/a
568.94	0.12	1137880	keystroke	Key.space	n/a
569.135	0.12	1138270	keystroke	d	n/a
569.33	0.15	1138660	keystroke	e	n/a
569.48	0.135	1138960	keystroke	p	n/a
570.2895	0.1205	1140579	keystroke	e	n/a
570.425	0.105	1140850	keystroke	n	n/a
570.68	0.03	1141360	keystroke	d	n/a
571.055	0.06	1142110	keystroke	e	n/a
571.5945	0.1055	1143189	keystroke	n	n/a
571.775	0.12	1143550	keystroke	c	n/a
572.06	0.12	1144120	keystroke	e	n/a
572.195	0.105	1144390	keystroke	Key.space	n/a
572.465	0.135	1144930	keystroke	r	n/a
572.705	0.09	1145410	keystroke	e	n/a
572.945	0.135	1145890	keystroke	v	n/a
573.035	0.135	1146070	keystroke	e	n/a
573.185	0.105	1146370	keystroke	i	n/a
573.32	0.1645	1146640	keystroke	w	n/a
573.6945	0.09	1147389	keystroke	Key.backspace	n/a
573.8895	0.105	1147779	keystroke	Key.backspace	n/a
574.6695	0.09	1149339	keystroke	Key.backspace	n/a
574.985	0.105	1149970	keystroke	i	n/a
575.18	0.1945	1150360	keystroke	e	n/a
575.3	0.135	1150600	keystroke	w	n/a
575.9745	0.166	1151949	keystroke	s	n/a
576.0945	0.105	1152189	keystroke	Key.space	n/a
576.4845	0.18	1152969	keystroke	w	n/a
576.7095	0.15	1153419	keystroke	a	n/a
577.0245	0.06	1154049	keystroke	l	n/a
577.2045	0.105	1154409	keystroke	l	n/a
577.2795	0.135	1154559	keystroke	a	n/a
577.7595	0.15	1155519	keystroke	c	n/a
578.0595	0.105	1156119	keystroke	e	n/a
578.51	0.105	1157020	keystroke	Key.enter	n/a
578.629	12.3255	1157258	prompt	n/a	reminder passport instructors novel\n
579.3805	0.075	1158761	keystroke	r	n/a
579.7095	0.135	1159419	keystroke	e	n/a
579.8895	0.18	1159779	keystroke	m	n/a
580.0395	0.165	1160079	keystroke	i	n/a
580.1895	0.12	1160379	keystroke	n	n/a
580.3695	0.12	1160739	keystroke	d	n/a
580.5945	0.15	1161189	keystroke	e	n/a
580.8945	0.09	1161789	keystroke	Key.space	n/a
581.1045	0.12	1162209	keystroke	p	n/a
581.5995	0.1055	1163199	keystroke	Key.backspace	n/a
581.81	0.09	1163620	keystroke	Key.backspace	n/a
582.08	0.105	1164160	keystroke	r	n/a
582.32	0.06	1164640	keystroke	Key.space	n/a
582.7695	0.136	1165539	keystroke	p	n/a
582.9205	0.134	1165841	keystroke	a	n/a
583.1145	0.0905	1166229	keystroke	s	n/a
583.3095	0.135	1166619	keystroke	s	n/a
583.4605	0.134	1166921	keystroke	p	n/a
583.61	0.135	1167220	keystroke	r	n/a
583.73	0.105	1167460	keystroke	o	n/a
583.88	0.135	1167760	keystroke	t	n/a
584.255	0.06	1168510	keystroke	Key.backspace	n/a
584.4345	0.09	1168869	keystroke	Key.backspace	n/a
584.6145	0.075	1169229	keystroke	Key.backspace	n/a
585.0945	0.09	1170189	keystroke	o	n/a
585.2595	0.105	1170519	keystroke	r	n/a
585.53	0.12	1171060	keystroke	t	n/a
585.725	0.09	1171450	keystroke	Key.space	n/a
586.1	0.075	1172200	keystroke	i	n/a
586.205	0.1055	1172410	keystroke	n	n/a
586.3255	0.194	1172651	keystroke	s	n/a
586.4745	0.121	1172949	keystroke	t	n/a
586.6855	0.119	1173371	keystroke	r	n/a
586.8195	0.09	1173639	keystroke	u	n/a
587.075	0.135	1174150	keystroke	c	n/a
587.36	0.105	1174720	keystroke	t	n/a
588.0795	0.121	1176159	keystroke	o	n/a
588.2455	0.119	1176491	keystroke	r	n/a
588.515	0.075	1177030	keystroke	Key.space	n/a
589.4305	0.1495	1178861	keystroke	n	n/a
589.5345	0.1205	1179069	keystroke	o	n/a
589.73	0.195	1179460	keystroke	v	n/a
589.88	0.135	1179760	keystroke	e	n/a
590.345	0.0905	1180690	keystroke	l	n/a
590.87	0.075	1181740	keystroke	Key.enter	n/a
590.959	9.37	1181918	prompt	n/a	muslim node subaru arrangements\n
591.8	0.12	1183600	keystroke	m	n/a
592.13	0.06	1184260	keystroke	u	n/a
592.46	0.1345	1184920	keystroke	s	n/a
592.6695	0.195	1185339	keystroke	l	n/a
592.8195	0.105	1185639	keystroke	i	n/a
593.0745	0.105	1186149	keystroke	m	n/a
593.5995	0.06	1187199	keystroke	Key.space	n/a
593.8695	0.1655	1187739	keystroke	n	n/a
593.99	0.12	1187980	keystroke	o	n/a
594.395	0.105	1188790	keystroke	d	n/a
594.62	0.12	1189240	keystroke	e	n/a
594.785	0.105	1189570	keystroke	Key.space	n/a
595.415	0.165	1190830	keystroke	s	n/a
595.565	0.09	1191130	keystroke	u	n/a
595.9095	0.136	1191819	keystroke	b	n/a
596.5545	0.165	1193109	keystroke	a	n/a
596.7345	0.12	1193469	keystroke	r	n/a
596.8995	0.09	1193799	keystroke	y	n/a
597.5145	0.09	1195029	keystroke	Key.backspace	n/a
597.7845	0.09	1195569	keystroke	u	n/a
598.0095	0.09	1196019	keystroke	Key.space	n/a
598.3545	0.135	1196709	keystroke	a	n/a
598.4745	0.105	1196949	keystroke	r	n/a
598.6695	0.12	1197339	keystroke	r	n/a
598.7145	0.15	1197429	keystroke	a	n/a
598.8495	0.12	1197699	keystroke	n	n/a
598.9545	0.18	1197909	keystroke	g	n/a
599.1195	0.165	1198239	keystroke	e	n/a
599.2995	0.12	1198599	keystroke	m	n/a
599.4205	0.194	1198841	keystroke	e	n/a
599.5245	0.12	1199049	keystroke	n	n/a
599.5995	0.1505	1199199	keystroke	t	n/a
599.93	0.18	1199860	keystroke	s	n/a
600.26	0.06	1200520	keystroke	Key.enter	n/a
600.3395	7.1965	1200679	prompt	n/a	void greater lists temperatures\n
601.355	0.15	1202710	keystroke	v	n/a
601.444	0.196	1202888	keystroke	o	n/a
601.595	0.1045	1203190	keystroke	i	n/a
601.775	0.135	1203550	keystroke	d	n/a
602.0145	0.1055	1204029	keystroke	Key.space	n/a
602.36	0.105	1204720	keystroke	g	n/a
602.585	0.15	1205170	keystroke	r	n/a
602.66	0.165	1205320	keystroke	e	n/a
602.945	0.135	1205890	keystroke	a	n/a
603.05	0.135	1206100	keystroke	t	n/a
603.23	0.195	1206460	keystroke	e	n/a
603.38	0.12	1206760	keystroke	r	n/a
603.605	0.1045	1207210	keystroke	Key.space	n/a
603.7995	0.24	1207599	keystroke	l	n/a
603.9195	0.15	1207839	keystroke	i	n/a
604.0845	0.165	1208169	keystroke	s	n/a
604.2345	0.15	1208469	keystroke	t	n/a
604.4445	0.18	1208889	keystroke	s	n/a
604.5645	0.135	1209129	keystroke	Key.space	n/a
604.8345	0.135	1209669	keystroke	t	n/a
605.0145	0.135	1210029	keystroke	e	n/a
605.1945	0.165	1210389	keystroke	m	n/a
605.3745	0.1195	1210749	keystroke	p	n/a
605.539	0.1805	1211078	keystroke	e	n/a
605.644	0.1355	1211288	keystroke	r	n/a
605.8845	0.105	1211769	keystroke	a	n/a
605.9745	0.15	1211949	keystroke	t	n/a
606.1395	0.0455	1212279	keystroke	i	n/a
606.5	0.105	1213000	keystroke	Key.backspace	n/a
606.7545	0.105	1213509	keystroke	u	n/a
606.9195	0.165	1213839	keystroke	r	n/a
606.9945	0.135	1213989	keystroke	e	n/a
607.2645	0.18	1214529	keystroke	s	n/a
607.4595	0.0755	1214919	keystroke	Key.enter	n/a
607.539	11.9305	1215078	prompt	n/a	definitions relay discussions shine\n
608.8245	0.1205	1217649	keystroke	d	n/a
609.079	0.105	1218158	keystroke	e	n/a
609.455	0.15	1218910	keystroke	f	n/a
609.62	0.1195	1219240	keystroke	i	n/a
610.774	0.271	1221548	keystroke	n	n/a
610.939	0.135	1221878	keystroke	i	n/a
611.09	0.134	1222180	keystroke	t	n/a
611.2395	0.225	1222479	keystroke	i	n/a
611.3895	0.195	1222779	keystroke	o	n/a
611.5395	0.135	1223079	keystroke	n	n/a
611.7195	0.15	1223439	keystroke	s	n/a
611.9745	0.045	1223949	keystroke	Key.space	n/a
612.245	0.135	1224490	keystroke	r	n/a
612.335	0.09	1224670	keystroke	e	n/a
612.47	0.135	1224940	keystroke	l	n/a
612.665	0.105	1225330	keystroke	a	n/a
612.845	0.105	1225690	keystroke	y	n/a
613.1145	0.105	1226229	keystroke	Key.space	n/a
613.414	0.12	1226828	keystroke	d	n/a
613.504	0.105	1227008	keystroke	i	n/a
613.639	0.121	1227278	keystroke	s	n/a
613.879	0.135	1227758	keystroke	c	n/a
613.999	0.075	1227998	keystroke	u	n/a
614.149	0.075	1228298	keystroke	s	n/a
614.3445	0.12	1228689	keystroke	s	n/a
614.5095	0.2245	1229019	keystroke	o	n/a
614.5245	0.03	1229049	keystroke	i	n/a
614.689	0.12	1229378	keystroke	n	n/a
614.929	0.105	1229858	keystroke	s	n/a
615.4845	0.09	1230969	keystroke	Key.backspace	n/a
615.6645	0.105	1231329	keystroke	Key.backspace	n/a
615.8595	0.105	1231719	keystroke	Key.backspace	n/a
616.0395	0.105	1232079	keystroke	Key.backspace	n/a
616.3095	0.12	1232619	keystroke	i	n/a
616.5645	0.12	1233129	keystroke	o	n/a
616.969	0.091	1233938	keystroke	n	n/a
617.69	0.1495	1235380	keystroke	s	n/a
617.9895	0.12	1235979	keystroke	Key.space	n/a
618.2295	0.165	1236459	keystroke	s	n/a
618.3195	0.195	1236639	keystroke	h	n/a
618.4395	0.105	1236879	keystroke	i	n/a
618.6795	0.135	1237359	keystroke	n	n/a
618.7695	0.165	1237539	keystroke	e	n/a
619.399	0.06	1238798	keystroke	Key.enter	n/a
619.4755	9.219	1238951	prompt	n/a	schemes administrators tiffany invoice\n
620.164	0.135	1240328	keystroke	s	n/a
620.404	0.1505	1240808	keystroke	c	n/a
620.5095	0.135	1241019	keystroke	h	n/a
620.6745	0.135	1241349	keystroke	e	n/a
620.8245	0.15	1241649	keystroke	m	n/a
620.9895	0.12	1241979	keystroke	e	n/a
621.214	0.165	1242428	keystroke	s	n/a
621.38	0.119	1242760	keystroke	Key.space	n/a
621.605	0.1195	1243210	keystroke	a	n/a
621.7995	0.12	1243599	keystroke	d	n/a
