onset	duration	sample	value	key	prompt_text
5.9125	11.4335	11825	prompt	n/a	the quick brown fox jumps over a lazy dog\n
9.0945	0	18189	keystroke_t	t	n/a
9.0955	0.073	18191	keystroke_h	h	n/a
9.153	0.0895	18306	keystroke_e	e	n/a
9.288	0.0445	18576	keystroke_Key.space	Key.space	n/a
9.3785	0.074	18757	keystroke_q	q	n/a
9.4975	0.09	18995	keystroke_u	u	n/a
9.5575	0.075	19115	keystroke_i	i	n/a
9.6475	0.075	19295	keystroke_c	c	n/a
9.7525	0.0895	19505	keystroke_k	k	n/a
9.857	0.0755	19714	keystroke_Key.space	Key.space	n/a
9.9935	0.075	19987	keystroke_b	b	n/a
10.2025	0.045	20405	keystroke_r	r	n/a
10.2775	0.1045	20555	keystroke_o	o	n/a
10.413	0.0595	20826	keystroke_w	w	n/a
10.5475	0.075	21095	keystroke_n	n	n/a
10.607	0.1055	21214	keystroke_Key.space	Key.space	n/a
10.8325	0.06	21665	keystroke_f	f	n/a
10.923	0.0595	21846	keystroke_o	o	n/a
11.118	0.1195	22236	keystroke_x	x	n/a
11.687	0.016	23374	keystroke_Key.space	Key.space	n/a
11.7925	0.06	23585	keystroke_f	f	n/a
12.0175	0.0755	24035	keystroke_j	j	n/a
12.272	0.0755	24544	keystroke_Key.backspace	Key.backspace	n/a
12.4075	0.075	24815	keystroke_Key.backspace	Key.backspace	n/a
12.618	0.0605	25236	keystroke_j	j	n/a
12.768	0.1045	25536	keystroke_u	u	n/a
12.9935	0.105	25987	keystroke_j	j	n/a
13.3675	0.06	26735	keystroke_p	p	n/a
13.6375	0.195	27275	keystroke_Key.backspace	Key.backspace	n/a
14.0125	0.06	28025	keystroke_Key.backspace	Key.backspace	n/a
14.9125	0.091	29825	keystroke_m	m	n/a
15.018	0.0455	30036	keystroke_p	p	n/a
15.122	0.075	30244	keystroke_s	s	n/a
15.227	0.075	30454	keystroke_Key.space	Key.space	n/a
15.303	0.105	30606	keystroke_o	o	n/a
15.423	0.0895	30846	keystroke_v	v	n/a
15.4675	0.09	30935	keystroke_e	e	n/a
15.542	0.0755	31084	keystroke_r	r	n/a
15.618	0.074	31236	keystroke_Key.space	Key.space	n/a
15.827	0.0915	31654	keystroke_a	a	n/a
15.947	0.06	31894	keystroke_Key.space	Key.space	n/a
16.038	0.06	32076	keystroke_l	l	n/a
16.173	0.06	32346	keystroke_a	a	n/a
16.367	0.061	32734	keystroke_z	z	n/a
16.458	0.0595	32916	keystroke_y	y	n/a
16.6375	0.075	33275	keystroke_Key.space	Key.space	n/a
16.7585	0.09	33517	keystroke_d	d	n/a
16.8925	0.075	33785	keystroke_o	o	n/a
17.0135	0.044	34027	keystroke_g	g	n/a
17.2825	0.06	34565	keystroke_Key.enter	Key.enter	n/a
17.3705	5.885	34741	prompt	n/a	allowance pocket boot awesome\n
17.9725	0.06	35945	keystroke_a	a	n/a
18.092	0.0455	36184	keystroke_l	l	n/a
18.2125	0.0905	36425	keystroke_l	l	n/a
18.3785	0.089	36757	keystroke_o	o	n/a
18.5125	0.15	37025	keystroke_w	w	n/a
18.6775	0.075	37355	keystroke_Key.caps_lock	Key.caps_lock	n/a
18.798	0.075	37596	keystroke_n	n	n/a
18.9325	0.075	37865	keystroke_c	c	n/a
19.277	0.0455	38554	keystroke_Key.backspace	Key.backspace	n/a
19.412	0.045	38824	keystroke_Key.backspace	Key.backspace	n/a
19.682	0.196	39364	keystroke_Key.caps_lock	Key.caps_lock	n/a
20.133	0.104	40266	keystroke_a	a	n/a
20.282	0.06	40564	keystroke_n	n	n/a
20.402	0.106	40804	keystroke_c	c	n/a
20.492	0.06	40984	keystroke_e	e	n/a
20.612	0.0305	41224	keystroke_Key.space	Key.space	n/a
20.703	0.104	41406	keystroke_p	p	n/a
20.8675	0.1055	41735	keystroke_o	o	n/a
21.002	0.106	42004	keystroke_c	c	n/a
21.1235	0.089	42247	keystroke_k	k	n/a
21.2575	0.0905	42515	keystroke_e	e	n/a
21.3625	0.0755	42725	keystroke_t	t	n/a
21.498	0.06	42996	keystroke_Key.space	Key.space	n/a
21.5885	0.059	43177	keystroke_b	b	n/a
21.7235	0.059	43447	keystroke_o	o	n/a
21.8575	0.105	43715	keystroke_o	o	n/a
22.0075	0.045	44015	keystroke_t	t	n/a
22.1275	0.075	44255	keystroke_Key.space	Key.space	n/a
22.3525	0.1205	44705	keystroke_a	a	n/a
22.413	0.1045	44826	keystroke_w	w	n/a
22.5925	0.0745	45185	keystroke_e	e	n/a
22.742	0.061	45484	keystroke_s	s	n/a
22.8485	0.0895	45697	keystroke_o	o	n/a
22.893	0.06	45786	keystroke_m	m	n/a
22.983	0.075	45966	keystroke_e	e	n/a
23.192	0.06	46384	keystroke_Key.enter	Key.enter	n/a
23.2645	7.58	46529	prompt	n/a	thinking layer ships charlotte\n
23.883	0.03	47766	keystroke_t	t	n/a
23.958	0.074	47916	keystroke_h	h	n/a
23.987	0.09	47974	keystroke_i	i	n/a
24.198	0.059	48396	keystroke_k	k	n/a
24.347	0.076	48694	keystroke_i	i	n/a
24.378	0.075	48756	keystroke_n	n	n/a
24.6925	0.03	49385	keystroke_Key.backspace	Key.backspace	n/a
24.7975	0.075	49595	keystroke_Key.backspace	Key.backspace	n/a
24.932	0.075	49864	keystroke_Key.backspace	Key.backspace	n/a
25.2025	0.09	50405	keystroke_n	n	n/a
25.338	0.0745	50676	keystroke_k	k	n/a
25.5325	0.0905	51065	keystroke_i	i	n/a
25.6075	0.0455	51215	keystroke_n	n	n/a
25.7125	0.045	51425	keystroke_g	g	n/a
25.7725	0.075	51545	keystroke_Key.space	Key.space	n/a
25.9225	0.075	51845	keystroke_p	p	n/a
26.013	0.09	52026	keystroke_a	a	n/a
26.3275	0.06	52655	keystroke_Key.backspace	Key.backspace	n/a
26.4475	0.0745	52895	keystroke_Key.backspace	Key.backspace	n/a
26.672	0.046	53344	keystroke_l	l	n/a
26.792	0.0755	53584	keystroke_a	a	n/a
26.912	0.06	53824	keystroke_y	y	n/a
27.017	0.106	54034	keystroke_e	e	n/a
27.093	0.075	54186	keystroke_r	r	n/a
27.1525	0.075	54305	keystroke_Key.space	Key.space	n/a
27.557	0.1355	55114	keystroke_s	s	n/a
27.7225	0.09	55445	keystroke_h	h	n/a
27.7825	0.1805	55565	keystroke_i	i	n/a
27.9175	0.1045	55835	keystroke_p	p	n/a
27.9325	0.015	55865	keystroke_o	o	n/a
28.0375	0.12	56075	keystroke_s	s	n/a
28.1875	0.075	56375	keystroke_Key.space	Key.space	n/a
28.2925	0.075	56585	keystroke_c	c	n/a
28.5475	0.045	57095	keystroke_Key.backspace	Key.backspace	n/a
28.6675	0.045	57335	keystroke_Key.backspace	Key.backspace	n/a
28.7875	0.045	57575	keystroke_Key.backspace	Key.backspace	n/a
29.0275	0.165	58055	keystroke_s	s	n/a
29.1775	0.03	58355	keystroke_Key.backspace	Key.backspace	n/a
29.2825	0.075	58565	keystroke_Key.backspace	Key.backspace	n/a
29.4025	0.075	58805	keystroke_s	s	n/a
29.5375	0.06	59075	keystroke_Key.space	Key.space	n/a
29.6425	0.09	59285	keystroke_c	c	n/a
29.7925	0.06	59585	keystroke_h	h	n/a
29.9425	0.0755	59885	keystroke_a	a	n/a
30.0185	0.044	60037	keystroke_r	r	n/a
30.137	0.06	60274	keystroke_l	l	n/a
30.288	0.089	60576	keystroke_o	o	n/a
30.407	0.06	60814	keystroke_t	t	n/a
30.558	0.104	61116	keystroke_t	t	n/a
30.6475	0.09	61295	keystroke_e	e	n/a
30.7975	0.045	61595	keystroke_Key.enter	Key.enter	n/a
30.848	6.5365	61696	prompt	n/a	route commissioners converted glasses\n
31.832	0.0465	63664	keystroke_r	r	n/a
31.893	0.075	63786	keystroke_o	o	n/a
31.922	0.06	63844	keystroke_u	u	n/a
31.998	0.0745	63996	keystroke_t	t	n/a
32.0875	0.09	64175	keystroke_e	e	n/a
32.2675	0.06	64535	keystroke_Key.space	Key.space	n/a
32.433	0.0745	64866	keystroke_c	c	n/a
32.5225	0.1045	65045	keystroke_o	o	n/a
32.5675	0.0745	65135	keystroke_m	m	n/a
32.7475	0.1655	65495	keystroke_m	m	n/a
32.8975	0.09	65795	keystroke_i	i	n/a
33.0185	0.0745	66037	keystroke_s	s	n/a
33.3175	0.0905	66635	keystroke_s	s	n/a
33.5725	0.105	67145	keystroke_i	i	n/a
33.6025	0.12	67205	keystroke_o	o	n/a
33.648	0.0755	67296	keystroke_n	n	n/a
33.7525	0.135	67505	keystroke_e	e	n/a
33.8275	0.15	67655	keystroke_r	r	n/a
34.068	0.15	68136	keystroke_s	s	n/a
34.517	0.076	69034	keystroke_Key.space	Key.space	n/a
34.8325	0.075	69665	keystroke_c	c	n/a
35.0125	0.09	70025	keystroke_o	o	n/a
35.0425	0.105	70085	keystroke_n	n	n/a
35.1925	0.12	70385	keystroke_v	v	n/a
35.2825	0.105	70565	keystroke_e	e	n/a
35.3725	0.075	70745	keystroke_r	r	n/a
35.463	0.0745	70926	keystroke_t	t	n/a
35.583	0.1645	71166	keystroke_e	e	n/a
35.7025	0.105	71405	keystroke_d	d	n/a
36.183	0.0445	72366	keystroke_Key.space	Key.space	n/a
36.468	0.059	72936	keystroke_g	g	n/a
36.5425	0.0605	73085	keystroke_l	l	n/a
36.632	0.1055	73264	keystroke_a	a	n/a
36.693	0.075	73386	keystroke_s	s	n/a
36.858	0.061	73716	keystroke_s	s	n/a
37.0075	0.105	74015	keystroke_e	e	n/a
37.2025	0.075	74405	keystroke_s	s	n/a
37.3075	0.075	74615	keystroke_Key.enter	Key.enter	n/a
37.3895	6.565	74779	prompt	n/a	delight sugar citizens followed\n
37.953	0.1345	75906	keystroke_d	d	n/a
38.0425	0.09	76085	keystroke_e	e	n/a
38.313	0.105	76626	keystroke_l	l	n/a
38.583	0.075	77166	keystroke_i	i	n/a
38.733	0.0895	77466	keystroke_g	g	n/a
38.8375	0.015	77675	keystroke_h	h	n/a
38.957	0.0165	77914	keystroke_t	t	n/a
39.227	0.0605	78454	keystroke_Key.space	Key.space	n/a
39.377	0.075	78754	keystroke_s	s	n/a
39.602	0.09	79204	keystroke_u	u	n/a
39.857	0.045	79714	keystroke_g	g	n/a
40.0075	0.105	80015	keystroke_a	a	n/a
40.0675	0.06	80135	keystroke_r	r	n/a
40.2325	0.0295	80465	keystroke_Key.space	Key.space	n/a
40.533	0.06	81066	keystroke_s	s	n/a
40.788	0.044	81576	keystroke_Key.backspace	Key.backspace	n/a
40.878	0.06	81756	keystroke_c	c	n/a
40.998	0.075	81996	keystroke_i	i	n/a
41.058	0.06	82116	keystroke_t	t	n/a
41.148	0.074	82296	keystroke_i	i	n/a
41.777	0.106	83554	keystroke_z	z	n/a
41.823	0.12	83646	keystroke_e	e	n/a
42.003	0.06	84006	keystroke_n	n	n/a
42.1975	0.1205	84395	keystroke_s	s	n/a
42.4375	0.0595	84875	keystroke_Key.space	Key.space	n/a
42.648	0.045	85296	keystroke_f	f	n/a
42.753	0.06	85506	keystroke_o	o	n/a
42.932	0.075	85864	keystroke_l	l	n/a
43.0675	0.06	86135	keystroke_l	l	n/a
43.263	0.0755	86526	keystroke_o	o	n/a
43.383	0.09	86766	keystroke_w	w	n/a
43.5925	0.09	87185	keystroke_e	e	n/a
43.6525	0.105	87305	keystroke_d	d	n/a
43.892	0.06	87784	keystroke_Key.enter	Key.enter	n/a
43.9595	6.0555	87919	prompt	n/a	federation holly pumps nowhere\n
44.507	0.09	89014	keystroke_d	d	n/a
44.882	0.045	89764	keystroke_Key.backspace	Key.backspace	n/a
44.958	0.059	89916	keystroke_f	f	n/a
45.047	0.106	90094	keystroke_e	e	n/a
45.302	0.106	90604	keystroke_d	d	n/a
45.3935	0.1495	90787	keystroke_e	e	n/a
45.513	0.0895	91026	keystroke_r	r	n/a
45.632	0.1655	91264	keystroke_a	a	n/a
45.7525	0.06	91505	keystroke_t	t	n/a
45.8875	0.105	91775	keystroke_i	i	n/a
45.9025	0.12	91805	keystroke_o	o	n/a
45.9475	0.09	91895	keystroke_n	n	n/a
46.0525	0.0905	92105	keystroke_Key.space	Key.space	n/a
46.413	0.045	92826	keystroke_h	h	n/a
46.517	0.091	93034	keystroke_o	o	n/a
46.712	0.076	93424	keystroke_l	l	n/a
46.893	0.12	93786	keystroke_l	l	n/a
47.1325	0.03	94265	keystroke_y	y	n/a
47.1775	0.075	94355	keystroke_Key.space	Key.space	n/a
47.567	0.06	95134	keystroke_p	p	n/a
47.6735	0.0895	95347	keystroke_u	u	n/a
47.957	0.0755	95914	keystroke_p	p	n/a
48.348	0.0145	96696	keystroke_Key.backspace	Key.backspace	n/a
48.5125	0.0895	97025	keystroke_m	m	n/a
48.572	0.09	97144	keystroke_p	p	n/a
48.723	0.105	97446	keystroke_s	s	n/a
48.857	0.0605	97714	keystroke_Key.space	Key.space	n/a
49.113	0.089	98226	keystroke_n	n	n/a
49.188	0.1045	98376	keystroke_o	o	n/a
49.3375	0.0745	98675	keystroke_w	w	n/a
49.5475	0.0445	99095	keystroke_h	h	n/a
49.593	0.104	99186	keystroke_e	e	n/a
49.653	0.135	99306	keystroke_r	r	n/a
49.772	0.106	99544	keystroke_e	e	n/a
49.953	0.059	99906	keystroke_Key.enter	Key.enter	n/a
50.0205	6.609	100041	prompt	n/a	newspapers harvard documented graph\n
50.703	0.0295	101406	keystroke_n	n	n/a
50.7775	0.075	101555	keystroke_e	e	n/a
50.928	0.1045	101856	keystroke_w	w	n/a
51.0925	0.09	102185	keystroke_s	s	n/a
51.258	0.045	102516	keystroke_p	p	n/a
51.483	0.045	102966	keystroke_p	p	n/a
51.843	0.015	103686	keystroke_Key.backspace	Key.backspace	n/a
51.8885	0.104	103777	keystroke_a	a	n/a
52.0235	0.059	104047	keystroke_p	p	n/a
52.143	0.105	104286	keystroke_e	e	n/a
52.218	0.165	104436	keystroke_r	r	n/a
52.323	0.164	104646	keystroke_s	s	n/a
52.488	0.06	104976	keystroke_Key.space	Key.space	n/a
52.803	0.045	105606	keystroke_h	h	n/a
52.863	0.0745	105726	keystroke_a	a	n/a
52.923	0.06	105846	keystroke_r	r	n/a
53.117	0.12	106234	keystroke_v	v	n/a
53.418	0.03	106836	keystroke_a	a	n/a
53.433	0.045	106866	keystroke_r	r	n/a
53.568	0.075	107136	keystroke_d	d	n/a
53.7025	0.0605	107405	keystroke_Key.space	Key.space	n/a
53.8675	0.0905	107735	keystroke_d	d	n/a
54.2575	0.0755	108515	keystroke_o	o	n/a
54.3625	0.075	108725	keystroke_c	c	n/a
54.5125	0.06	109025	keystroke_u	u	n/a
54.6935	0.075	109387	keystroke_m	m	n/a
54.8135	0.0595	109627	keystroke_e	e	n/a
54.917	0.061	109834	keystroke_n	n	n/a
55.0375	0.0755	110075	keystroke_t	t	n/a
55.2775	0.1205	110555	keystroke_e	e	n/a
55.368	0.075	110736	keystroke_d	d	n/a
55.488	0.06	110976	keystroke_Key.space	Key.space	n/a
55.8175	0.075	111635	keystroke_g	g	n/a
55.938	0.105	111876	keystroke_r	r	n/a
56.012	0.0755	112024	keystroke_a	a	n/a
56.147	0.045	112294	keystroke_p	p	n/a
56.207	0.06	112414	keystroke_h	h	n/a
56.5825	0.045	113165	keystroke_Key.enter	Key.enter	n/a
56.641	7.143	113282	prompt	n/a	knight indicated westminster correct\n
57.2435	0.105	114487	keystroke_k	k	n/a
57.4375	0.0605	114875	keystroke_n	n	n/a
57.528	0.1045	115056	keystroke_i	i	n/a
57.663	0.075	115326	keystroke_g	g	n/a
57.768	0.06	115536	keystroke_h	h	n/a
57.813	0.09	115626	keystroke_t	t	n/a
57.9785	0.059	115957	keystroke_Key.space	Key.space	n/a
58.1275	0.0905	116255	keystroke_i	i	n/a
58.1575	0.105	116315	keystroke_n	n	n/a
58.278	0.0595	116556	keystroke_d	d	n/a
58.4275	0.06	116855	keystroke_i	i	n/a
58.488	0.0895	116976	keystroke_c	c	n/a
58.6085	0.119	117217	keystroke_a	a	n/a
58.6975	0.075	117395	keystroke_t	t	n/a
58.8025	0.0905	117605	keystroke_e	e	n/a
59.0425	0.0605	118085	keystroke_d	d	n/a
59.208	0.0595	118416	keystroke_Key.space	Key.space	n/a
59.5225	0.061	119045	keystroke_w	w	n/a
59.8375	0.1495	119675	keystroke_s	s	n/a
59.928	0.06	119856	keystroke_t	t	n/a
60.423	0.045	120846	keystroke_Key.backspace	Key.backspace	n/a
60.527	0.061	121054	keystroke_Key.backspace	Key.backspace	n/a
60.5895	0.0735	121179	keystroke_e	e	n/a
60.7525	0.12	121505	keystroke_s	s	n/a
60.8125	0.075	121625	keystroke_t	t	n/a
60.978	0.0895	121956	keystroke_m	m	n/a
61.053	0.0745	122106	keystroke_i	i	n/a
61.1575	0.0905	122315	keystroke_n	n	n/a
61.488	0.135	122976	keystroke_s	s	n/a
61.577	0.061	123154	keystroke_t	t	n/a
61.683	0.135	123366	keystroke_e	e	n/a
61.7875	0.0905	123575	keystroke_r	r	n/a
61.968	0.0595	123936	keystroke_Key.space	Key.space	n/a
62.178	0.0145	124356	keystroke_c	c	n/a
62.2075	0.03	124415	keystroke_o	o	n/a
62.3275	0.045	124655	keystroke_r	r	n/a
62.4775	0.075	124955	keystroke_r	r	n/a
62.5375	0.075	125075	keystroke_e	e	n/a
62.838	0.059	125676	keystroke_t	t	n/a
63.092	0.03	126184	keystroke_Key.backspace	Key.backspace	n/a
63.198	0.06	126396	keystroke_c	c	n/a
63.363	0.0595	126726	keystroke_t	t	n/a
63.6925	0.09	127385	keystroke_Key.enter	Key.enter	n/a
63.789	8.5755	127578	prompt	n/a	causing recommend indirect instrumentation\n
64.788	0.0905	129576	keystroke_c	c	n/a
64.893	0.075	129786	keystroke_a	a	n/a
65.042	0.031	130084	keystroke_u	u	n/a
65.058	0.15	130116	keystroke_s	s	n/a
65.253	0.074	130506	keystroke_i	i	n/a
65.297	0.06	130594	keystroke_n	n	n/a
65.3875	0.06	130775	keystroke_g	g	n/a
65.492	0.075	130984	keystroke_Key.space	Key.space	n/a
65.763	0.06	131526	keystroke_r	r	n/a
65.808	0.06	131616	keystroke_e	e	n/a
65.943	0.09	131886	keystroke_c	c	n/a
66.078	0.045	132156	keystroke_o	o	n/a
66.093	0.105	132186	keystroke_m	m	n/a
66.242	0.075	132484	keystroke_m	m	n/a
66.363	0.045	132726	keystroke_e	e	n/a
66.4685	0.0745	132937	keystroke_n	n	n/a
66.558	0.075	133116	keystroke_d	d	n/a
67.0675	0.0145	134135	keystroke_Key.space	Key.space	n/a
67.248	0.105	134496	keystroke_i	i	n/a
67.293	0.045	134586	keystroke_n	n	n/a
67.413	0.104	134826	keystroke_d	d	n/a
67.548	0.075	135096	keystroke_i	i	n/a
68.0725	0.12	136145	keystroke_r	r	n/a
68.1625	0.076	136325	keystroke_e	e	n/a
68.3135	0.104	136627	keystroke_c	c	n/a
68.5075	0.06	137015	keystroke_t	t	n/a
68.6425	0.06	137285	keystroke_Key.space	Key.space	n/a
68.8985	0.075	137797	keystroke_i	i	n/a
68.9585	0.074	137917	keystroke_n	n	n/a
69.0935	0.089	138187	keystroke_s	s	n/a
69.123	0.0745	138246	keystroke_t	t	n/a
69.2415	0.0615	138483	keystroke_r	r	n/a
69.363	0.0455	138726	keystroke_u	u	n/a
69.4975	0.0905	138995	keystroke_m	m	n/a
69.6335	0.045	139267	keystroke_e	e	n/a
69.7235	0.12	139447	keystroke_t	t	n/a
69.8585	0.09	139717	keystroke_a	a	n/a
69.9185	0.1345	139837	keystroke_t	t	n/a
69.9495	0.163	139899	keystroke_i	i	n/a
70.0375	0.195	140075	keystroke_o	o	n/a
70.0675	0.15	140135	keystroke_n	n	n/a
70.4275	0.045	140855	keystroke_Key.backspace	Key.backspace	n/a
70.5475	0.075	141095	keystroke_Key.backspace	Key.backspace	n/a
70.6825	0.075	141365	keystroke_Key.backspace	Key.backspace	n/a
70.8175	0.059	141635	keystroke_Key.backspace	Key.backspace	n/a
70.9525	0.059	141905	keystroke_Key.backspace	Key.backspace	n/a
71.0875	0.06	142175	keystroke_Key.backspace	Key.backspace	n/a
71.433	0.0595	142866	keystroke_n	n	n/a
71.553	0.09	143106	keystroke_t	t	n/a
71.6725	0.12	143345	keystroke_a	a	n/a
71.7475	0.0755	143495	keystroke_t	t	n/a
71.8375	0.09	143675	keystroke_i	i	n/a
71.8515	0.1215	143703	keystroke_o	o	n/a
71.8825	0.0605	143765	keystroke_n	n	n/a
72.3475	0.015	144695	keystroke_Key.enter	Key.enter	n/a
72.3695	5.1695	144739	prompt	n/a	ministers vacancies combo light\n
72.978	0.0895	145956	keystroke_m	m	n/a
73.0825	0.075	146165	keystroke_i	i	n/a
73.1725	0.075	146345	keystroke_n	n	n/a
73.2475	0.075	146495	keystroke_i	i	n/a
73.3825	0.1055	146765	keystroke_s	s	n/a
73.4575	0.0455	146915	keystroke_t	t	n/a
73.563	0.135	147126	keystroke_e	e	n/a
73.6525	0.136	147305	keystroke_r	r	n/a
73.7725	0.1055	147545	keystroke_s	s	n/a
73.9225	0.0605	147845	keystroke_Key.space	Key.space	n/a
74.1185	0.104	148237	keystroke_v	v	n/a
74.2525	0.1355	148505	keystroke_a	a	n/a
74.373	0.12	148746	keystroke_c	c	n/a
74.582	0.0905	149164	keystroke_a	a	n/a
74.7925	0.0295	149585	keystroke_n	n	n/a
74.897	0.1065	149794	keystroke_c	c	n/a
75.212	0.0455	150424	keystroke_i	i	n/a
75.3025	0.105	150605	keystroke_e	e	n/a
75.4975	0.0605	150995	keystroke_s	s	n/a
75.6025	0.075	151205	keystroke_Key.space	Key.space	n/a
75.9025	0.045	151805	keystroke_c	c	n/a
75.9775	0.0895	151955	keystroke_o	o	n/a
76.023	0.1045	152046	keystroke_m	m	n/a
76.218	0.0305	152436	keystroke_b	b	n/a
76.323	0.0895	152646	keystroke_o	o	n/a
76.743	0.045	153486	keystroke_Key.space	Key.space	n/a
76.923	0.1205	153846	keystroke_l	l	n/a
76.998	0.089	153996	keystroke_i	i	n/a
77.103	0.03	154206	keystroke_g	g	n/a
77.208	0.06	154416	keystroke_h	h	n/a
77.238	0.075	154476	keystroke_t	t	n/a
77.478	0.0595	154956	keystroke_Key.enter	Key.enter	n/a
77.543	7.256	155086	prompt	n/a	manufactured euro calendar gently\n
78.153	0.06	156306	keystroke_m	m	n/a
78.303	0.1045	156606	keystroke_a	a	n/a
78.4225	0.046	156845	keystroke_n	n	n/a
78.5735	0.06	157147	keystroke_u	u	n/a
78.7675	0.061	157535	keystroke_f	f	n/a
79.008	0.0145	158016	keystroke_a	a	n/a
79.2175	0.03	158435	keystroke_t	t	n/a
79.4725	0.045	158945	keystroke_Key.backspace	Key.backspace	n/a
79.5475	0.076	159095	keystroke_c	c	n/a
79.7125	0.075	159425	keystroke_t	t	n/a
79.8635	0.0595	159727	keystroke_u	u	n/a
79.938	0.0895	159876	keystroke_r	r	n/a
79.9975	0.09	159995	keystroke_e	e	n/a
80.1475	0.0895	160295	keystroke_d	d	n/a
80.282	0.061	160564	keystroke_Key.space	Key.space	n/a
81.018	0.0745	162036	keystroke_e	e	n/a
81.183	0.03	162366	keystroke_u	u	n/a
81.303	0.045	162606	keystroke_r	r	n/a
81.392	0.0755	162784	keystroke_o	o	n/a
81.5575	0.06	163115	keystroke_Key.space	Key.space	n/a
81.828	0.1045	163656	keystroke_c	c	n/a
81.9175	0.0745	163835	keystroke_a	a	n/a
82.3375	0.061	164675	keystroke_l	l	n/a
82.7575	0.015	165515	keystroke_e	e	n/a
82.8625	0.015	165725	keystroke_n	n	n/a
82.938	0.0755	165876	keystroke_d	d	n/a
83.0435	0.089	166087	keystroke_a	a	n/a
83.1625	0.015	166325	keystroke_r	r	n/a
83.2975	0.03	166595	keystroke_Key.space	Key.space	n/a
83.8075	0.0605	167615	keystroke_g	g	n/a
83.8375	0.09	167675	keystroke_e	e	n/a
83.9725	0.06	167945	keystroke_n	n	n/a
84.0925	0.0755	168185	keystroke_t	t	n/a
84.228	0.0445	168456	keystroke_l	l	n/a
84.392	0.0305	168784	keystroke_y	y	n/a
84.7375	0.0595	169475	keystroke_Key.enter	Key.enter	n/a
84.8085	5.8705	169617	prompt	n/a	lined manufacturer money fought\n
85.4125	0.121	170825	keystroke_l	l	n/a
85.5175	0.1055	171035	keystroke_i	i	n/a
85.5925	0.06	171185	keystroke_n	n	n/a
85.698	0.0905	171396	keystroke_e	e	n/a
85.7585	0.0895	171517	keystroke_d	d	n/a
85.8775	0.06	171755	keystroke_Key.space	Key.space	n/a
86.1175	0.06	172235	keystroke_m	m	n/a
86.2525	0.1205	172505	keystroke_a	a	n/a
86.4025	0.045	172805	keystroke_n	n	n/a
86.5375	0.1055	173075	keystroke_u	u	n/a
86.778	0.075	173556	keystroke_f	f	n/a
87.153	0.105	174306	keystroke_a	a	n/a
87.212	0.075	174424	keystroke_c	c	n/a
87.408	0.059	174816	keystroke_t	t	n/a
87.573	0.045	175146	keystroke_u	u	n/a
87.678	0.0905	175356	keystroke_r	r	n/a
87.7375	0.09	175475	keystroke_e	e	n/a
87.858	0.075	175716	keystroke_r	r	n/a
88.1425	0.09	176285	keystroke_Key.space	Key.space	n/a
88.8335	0.06	177667	keystroke_m	m	n/a
88.9385	0.06	177877	keystroke_o	o	n/a
89.0135	0.06	178027	keystroke_n	n	n/a
89.1625	0.0305	178325	keystroke_e	e	n/a
89.2975	0.045	178595	keystroke_y	y	n/a
89.402	0.09	178804	keystroke_Key.space	Key.space	n/a
89.612	0.061	179224	keystroke_f	f	n/a
89.688	0.09	179376	keystroke_o	o	n/a
89.747	0.0605	179494	keystroke_u	u	n/a
89.838	0.0755	179676	keystroke_g	g	n/a
89.943	0.045	179886	keystroke_h	h	n/a
90.5135	0.029	181027	keystroke_t	t	n/a
90.6025	0.075	181205	keystroke_Key.enter	Key.enter	n/a
90.6835	4.991	181367	prompt	n/a	butler ladder riding professor\n
91.488	0.0595	182976	keystroke_b	b	n/a
91.608	0.045	183216	keystroke_u	u	n/a
91.757	0.076	183514	keystroke_t	t	n/a
91.968	0.0295	183936	keystroke_l	l	n/a
92.103	0.09	184206	keystroke_e	e	n/a
92.178	0.0895	184356	keystroke_r	r	n/a
92.403	0.0595	184806	keystroke_Key.space	Key.space	n/a
92.5975	0.06	185195	keystroke_l	l	n/a
92.7025	0.12	185405	keystroke_a	a	n/a
92.868	0.1345	185736	keystroke_d	d	n/a
93.0175	0.0755	186035	keystroke_d	d	n/a
93.1085	0.119	186217	keystroke_e	e	n/a
93.1975	0.075	186395	keystroke_r	r	n/a
93.3175	0.06	186635	keystroke_Key.space	Key.space	n/a
93.4835	0.0445	186967	keystroke_r	r	n/a
93.5425	0.075	187085	keystroke_i	i	n/a
93.6625	0.09	187325	keystroke_d	d	n/a
93.9925	0.0905	187985	keystroke_i	i	n/a
94.038	0.075	188076	keystroke_n	n	n/a
94.128	0.075	188256	keystroke_g	g	n/a
94.248	0.075	188496	keystroke_Key.space	Key.space	n/a
94.3535	0.1045	188707	keystroke_p	p	n/a
94.502	0.046	189004	keystroke_r	r	n/a
94.563	0.09	189126	keystroke_o	o	n/a
94.668	0.105	189336	keystroke_f	f	n/a
94.758	0.0745	189516	keystroke_e	e	n/a
94.9375	0.1205	189875	keystroke_s	s	n/a
95.1175	0.0905	190235	keystroke_s	s	n/a
95.2675	0.075	190535	keystroke_o	o	n/a
95.4025	0.0595	190805	keystroke_r	r	n/a
95.612	0.0605	191224	keystroke_Key.enter	Key.enter	n/a
95.6795	7.616	191359	prompt	n/a	gmbh status walter wheel\n
96.7075	0.0755	193415	keystroke_g	g	n/a
96.9625	0.06	193925	keystroke_m	m	n/a
97.1125	0.0755	194225	keystroke_b	b	n/a
97.4725	0.045	194945	keystroke_h	h	n/a
97.7425	0.0595	195485	keystroke_Key.space	Key.space	n/a
98.028	0.06	196056	keystroke_s	s	n/a
98.1175	0.0155	196235	keystroke_s	s	n/a
98.163	0.0755	196326	keystroke_t	t	n/a
98.2535	0.0895	196507	keystroke_a	a	n/a
98.358	0.045	196716	keystroke_t	t	n/a
98.388	0.06	196776	keystroke_u	u	n/a
98.837	0.03	197674	keystroke_Key.backspace	Key.backspace	n/a
98.942	0.045	197884	keystroke_Key.backspace	Key.backspace	n/a
99.047	0.06	198094	keystroke_Key.backspace	Key.backspace	n/a
99.182	0.0755	198364	keystroke_Key.backspace	Key.backspace	n/a
99.348	0.075	198696	keystroke_t	t	n/a
99.453	0.119	198906	keystroke_a	a	n/a
99.542	0.0605	199084	keystroke_t	t	n/a
99.722	0.06	199444	keystroke_Key.backspace	Key.backspace	n/a
99.842	0.06	199684	keystroke_Key.backspace	Key.backspace	n/a
99.962	0.06	199924	keystroke_Key.backspace	Key.backspace	n/a
100.082	0.0605	200164	keystroke_Key.backspace	Key.backspace	n/a
100.203	0.0895	200406	keystroke_t	t	n/a
100.3075	0.1215	200615	keystroke_a	a	n/a
100.4135	0.074	200827	keystroke_t	t	n/a
100.5025	0.03	201005	keystroke_u	u	n/a
100.6075	0.075	201215	keystroke_s	s	n/a
100.7425	0.06	201485	keystroke_Key.space	Key.space	n/a
101.3575	0.1505	202715	keystroke_w	w	n/a
101.4935	0.0595	202987	keystroke_a	a	n/a
101.582	0.09	203164	keystroke_l	l	n/a
101.702	0.1205	203404	keystroke_t	t	n/a
101.838	0.1645	203676	keystroke_e	e	n/a
101.957	0.09	203914	keystroke_r	r	n/a
102.048	0.059	204096	keystroke_Key.space	Key.space	n/a
102.392	0.0755	204784	keystroke_w	w	n/a
102.6035	0.0595	205207	keystroke_h	h	n/a
102.723	0.0595	205446	keystroke_e	e	n/a
102.8575	0.1205	205715	keystroke_e	e	n/a
102.993	0.06	205986	keystroke_l	l	n/a
103.2325	0.06	206465	keystroke_Key.enter	Key.enter	n/a
103.31	8.1445	206620	prompt	n/a	selecting bizarre accompanying villas\n
104.1325	0.0455	208265	keystroke_s	s	n/a
104.418	0.045	208836	keystroke_l	l	n/a
104.433	0.18	208866	keystroke_e	e	n/a
104.9725	0.0305	209945	keystroke_Key.backspace	Key.backspace	n/a
105.078	0.06	210156	keystroke_Key.backspace	Key.backspace	n/a
105.168	0.0605	210336	keystroke_e	e	n/a
105.272	0.046	210544	keystroke_l	l	n/a
105.332	0.151	210664	keystroke_e	e	n/a
105.453	0.075	210906	keystroke_c	c	n/a
105.6475	0.0755	211295	keystroke_t	t	n/a
105.8585	0.0895	211717	keystroke_i	i	n/a
105.888	0.075	211776	keystroke_n	n	n/a
105.993	0.0905	211986	keystroke_g	g	n/a
106.113	0.075	212226	keystroke_Key.space	Key.space	n/a
106.2925	0.0595	212585	keystroke_b	b	n/a
106.443	0.0305	212886	keystroke_i	i	n/a
106.6535	0.0895	213307	keystroke_z	z	n/a
106.8775	0.1055	213755	keystroke_a	a	n/a
107.057	0.0605	214114	keystroke_r	r	n/a
107.2225	0.12	214445	keystroke_r	r	n/a
107.328	0.1195	214656	keystroke_e	e	n/a
107.5825	0.045	215165	keystroke_Key.space	Key.space	n/a
108.332	0.121	216664	keystroke_a	a	n/a
108.468	0.09	216936	keystroke_c	c	n/a
108.573	0.12	217146	keystroke_c	c	n/a
108.813	0.06	217626	keystroke_c	c	n/a
109.143	0.06	218286	keystroke_Key.backspace	Key.backspace	n/a
109.338	0.12	218676	keystroke_o	o	n/a
109.473	0.0605	218946	keystroke_m	m	n/a
109.548	0.09	219096	keystroke_p	p	n/a
109.7875	0.105	219575	keystroke_a	a	n/a
109.9525	0.0455	219905	keystroke_n	n	n/a
110.103	0.074	220206	keystroke_y	y	n/a
110.298	0.075	220596	keystroke_i	i	n/a
110.328	0.09	220656	keystroke_n	n	n/a
110.462	0.061	220924	keystroke_g	g	n/a
110.553	0.06	221106	keystroke_Key.space	Key.space	n/a
110.6885	0.0585	221377	keystroke_v	v	n/a
110.8075	0.045	221615	keystroke_i	i	n/a
111.003	0.0455	222006	keystroke_l	l	n/a
111.123	0.0895	222246	keystroke_l	l	n/a
111.1975	0.076	222395	keystroke_a	a	n/a
111.2275	0.091	222455	keystroke_s	s	n/a
111.4075	0.045	222815	keystroke_Key.enter	Key.enter	n/a
111.4655	5.5985	222931	prompt	n/a	front helped reduced sensor\n
112.128	0.03	224256	keystroke_f	f	n/a
112.277	0.0455	224554	keystroke_r	r	n/a
112.367	0.0615	224734	keystroke_o	o	n/a
112.413	0.06	224826	keystroke_n	n	n/a
112.533	0.075	225066	keystroke_t	t	n/a
112.668	0.045	225336	keystroke_Key.space	Key.space	n/a
112.923	0.0455	225846	keystroke_h	h	n/a
113.0575	0.061	226115	keystroke_e	e	n/a
113.1625	0.09	226325	keystroke_l	l	n/a
113.2975	0.091	226595	keystroke_p	p	n/a
113.5375	0.12	227075	keystroke_e	e	n/a
113.6125	0.09	227225	keystroke_d	d	n/a
113.793	0.0445	227586	keystroke_Key.space	Key.space	n/a
113.9735	0.09	227947	keystroke_r	r	n/a
114.0645	0.0735	228129	keystroke_e	e	n/a
114.213	0.03	228426	keystroke_s	s	n/a
114.858	0.06	229716	keystroke_Key.backspace	Key.backspace	n/a
115.0085	0.0595	230017	keystroke_d	d	n/a
115.113	0.03	230226	keystroke_u	u	n/a
115.203	0.12	230406	keystroke_c	c	n/a
115.308	0.119	230616	keystroke_e	e	n/a
115.413	0.075	230826	keystroke_d	d	n/a
115.758	0.074	231516	keystroke_Key.space	Key.space	n/a
115.923	0.074	231846	keystroke_s	s	n/a
116.2525	0.0605	232505	keystroke_e	e	n/a
116.433	0.075	232866	keystroke_n	n	n/a
116.5225	0.1195	233045	keystroke_s	s	n/a
116.687	0.061	233374	keystroke_o	o	n/a
116.8225	0.06	233645	keystroke_r	r	n/a
117.0025	0.0605	234005	keystroke_Key.enter	Key.enter	n/a
117.0735	5.7955	234147	prompt	n/a	maintains analysis shapes society\n
117.723	0.0455	235446	keystroke_m	m	n/a
117.948	0.0745	235896	keystroke_a	a	n/a
118.113	0.075	236226	keystroke_i	i	n/a
118.158	0.045	236316	keystroke_n	n	n/a
118.293	0.061	236586	keystroke_t	t	n/a
118.413	0.075	236826	keystroke_a	a	n/a
118.593	0.06	237186	keystroke_i	i	n/a
118.668	0.045	237336	keystroke_n	n	n/a
118.908	0.045	237816	keystroke_s	s	n/a
119.223	0.045	238446	keystroke_Key.space	Key.space	n/a
119.3885	0.059	238777	keystroke_a	a	n/a
119.5085	0.06	239017	keystroke_n	n	n/a
119.627	0.0605	239254	keystroke_a	a	n/a
119.6885	0.119	239377	keystroke_l	l	n/a
119.793	0.029	239586	keystroke_y	y	n/a
120.1525	0.075	240305	keystroke_s	s	n/a
120.2875	0.045	240575	keystroke_i	i	n/a
120.3475	0.105	240695	keystroke_s	s	n/a
120.828	0.045	241656	keystroke_Key.space	Key.space	n/a
120.948	0.06	241896	keystroke_s	s	n/a
121.098	0.015	242196	keystroke_h	h	n/a
121.143	0.075	242286	keystroke_a	a	n/a
121.279	0.059	242558	keystroke_p	p	n/a
121.383	0.075	242766	keystroke_e	e	n/a
121.563	0.06	243126	keystroke_s	s	n/a
121.638	0.06	243276	keystroke_Key.space	Key.space	n/a
121.833	0.075	243666	keystroke_s	s	n/a
121.953	0.06	243906	keystroke_o	o	n/a
122.102	0.061	244204	keystroke_c	c	n/a
122.207	0.076	244414	keystroke_i	i	n/a
122.313	0.075	244626	keystroke_e	e	n/a
122.417	0.061	244834	keystroke_t	t	n/a
122.493	0.0745	244986	keystroke_y	y	n/a
122.822	0.0455	245644	keystroke_Key.enter	Key.enter	n/a
122.8735	6.7755	245747	prompt	n/a	strand furniture famous classes\n
123.423	0.089	246846	keystroke_s	s	n/a
123.6785	0.1795	247357	keystroke_t	t	n/a
123.978	0.03	247956	keystroke_r	r	n/a
123.993	0.03	247986	keystroke_a	a	n/a
124.0375	0.0155	248075	keystroke_n	n	n/a
124.3825	0.0605	248765	keystroke_d	d	n/a
124.6675	0.075	249335	keystroke_Key.space	Key.space	n/a
124.863	0.045	249726	keystroke_f	f	n/a
125.252	0.016	250504	keystroke_u	u	n/a
125.373	0.0445	250746	keystroke_r	r	n/a
125.5835	0.0745	251167	keystroke_n	n	n/a
125.628	0.0745	251256	keystroke_i	i	n/a
125.718	0.06	251436	keystroke_t	t	n/a
125.823	0.0745	251646	keystroke_e	e	n/a
125.9585	0.0595	251917	keystroke_u	u	n/a
126.528	0.014	253056	keystroke_Key.backspace	Key.backspace	n/a
126.558	0.0145	253116	keystroke_Key.backspace	Key.backspace	n/a
126.678	0.045	253356	keystroke_u	u	n/a
126.753	0.075	253506	keystroke_r	r	n/a
126.813	0.0755	253626	keystroke_e	e	n/a
127.293	0.059	254586	keystroke_Key.space	Key.space	n/a
127.473	0.06	254946	keystroke_f	f	n/a
127.5485	0.059	255097	keystroke_a	a	n/a
127.653	0.09	255306	keystroke_o	o	n/a
127.997	0.015	255994	keystroke_Key.backspace	Key.backspace	n/a
128.193	0.06	256386	keystroke_m	m	n/a
128.268	0.075	256536	keystroke_o	o	n/a
128.358	0.06	256716	keystroke_u	u	n/a
128.508	0.09	257016	keystroke_s	s	n/a
128.658	0.075	257316	keystroke_Key.space	Key.space	n/a
128.808	0.105	257616	keystroke_c	c	n/a
128.9285	0.0745	257857	keystroke_l	l	n/a
129.0185	0.09	258037	keystroke_a	a	n/a
129.078	0.0605	258156	keystroke_s	s	n/a
129.213	0.075	258426	keystroke_s	s	n/a
129.362	0.0755	258724	keystroke_e	e	n/a
129.513	0.0745	259026	keystroke_s	s	n/a
129.573	0.0745	259146	keystroke_Key.enter	Key.enter	n/a
129.656	7.748	259312	prompt	n/a	swap vulnerable brazilian contest\n
130.2185	0.0895	260437	keystroke_s	s	n/a
130.473	0.105	260946	keystroke_w	w	n/a
130.532	0.061	261064	keystroke_a	a	n/a
130.757	0.09	261514	keystroke_p	p	n/a
130.997	0.0755	261994	keystroke_Key.space	Key.space	n/a
131.3875	0.0595	262775	keystroke_v	v	n/a
131.507	0.061	263014	keystroke_u	u	n/a
131.612	0.0305	263224	keystroke_l	l	n/a
131.7175	0.0755	263435	keystroke_e	e	n/a
131.9275	0.0605	263855	keystroke_n	n	n/a
132.078	0.105	264156	keystroke_e	e	n/a
132.332	0.0455	264664	keystroke_Key.backspace	Key.backspace	n/a
132.453	0.0745	264906	keystroke_Key.backspace	Key.backspace	n/a
132.603	0.104	265206	keystroke_Key.backspace	Key.backspace	n/a
132.9035	0.029	265807	keystroke_n	n	n/a
132.9785	0.09	265957	keystroke_e	e	n/a
133.0235	0.09	266047	keystroke_r	r	n/a
133.1435	0.149	266287	keystroke_a	a	n/a
133.2785	0.059	266557	keystroke_b	b	n/a
133.308	0.0595	266616	keystroke_l	l	n/a
133.4575	0.105	266915	keystroke_e	e	n/a
133.8625	0.0455	267725	keystroke_Key.space	Key.space	n/a
134.4775	0.06	268955	keystroke_b	b	n/a
134.6575	0.046	269315	keystroke_r	r	n/a
134.7175	0.0905	269435	keystroke_a	a	n/a
135.0185	0.0745	270037	keystroke_z	z	n/a
135.1825	0.0605	270365	keystroke_i	i	n/a
135.287	0.166	270574	keystroke_l	l	n/a
135.3935	0.089	270787	keystroke_i	i	n/a
135.527	0.0615	271054	keystroke_a	a	n/a
135.693	0.045	271386	keystroke_n	n	n/a
135.7525	0.075	271505	keystroke_Key.space	Key.space	n/a
135.932	0.061	271864	keystroke_c	c	n/a
136.008	0.089	272016	keystroke_o	o	n/a
136.083	0.045	272166	keystroke_n	n	n/a
136.218	0.0745	272436	keystroke_t	t	n/a
136.3075	0.045	272615	keystroke_e	e	n/a
136.683	0.0445	273366	keystroke_s	s	n/a
136.7585	0.0595	273517	keystroke_t	t	n/a
137.328	0.074	274656	keystroke_Key.enter	Key.enter	n/a
137.407	10.1225	274814	prompt	n/a	marie constitutional experiences urgent\n
138.4075	0.0605	276815	keystroke_m	m	n/a
138.513	0.104	277026	keystroke_a	a	n/a
138.663	0.075	277326	keystroke_i	i	n/a
138.753	0.06	277506	keystroke_r	r	n/a
139.007	0.061	278014	keystroke_Key.backspace	Key.backspace	n/a
139.113	0.06	278226	keystroke_Key.backspace	Key.backspace	n/a
139.203	0.0755	278406	keystroke_r	r	n/a
139.293	0.06	278586	keystroke_i	i	n/a
139.398	0.075	278796	keystroke_e	e	n/a
139.517	0.076	279034	keystroke_Key.space	Key.space	n/a
139.683	0.06	279366	keystroke_c	c	n/a
139.758	0.1045	279516	keystroke_o	o	n/a
139.8485	0.059	279697	keystroke_n	n	n/a
139.9225	0.1355	279845	keystroke_s	s	n/a
140.013	0.06	280026	keystroke_t	t	n/a
140.103	0.045	280206	keystroke_i	i	n/a
140.3885	0.0595	280777	keystroke_t	t	n/a
140.508	0.045	281016	keystroke_u	u	n/a
141.288	0.0445	282576	keystroke_t	t	n/a
141.3925	0.075	282785	keystroke_i	i	n/a
141.4975	0.105	282995	keystroke_o	o	n/a
141.573	0.0595	283146	keystroke_n	n	n/a
141.6925	0.06	283385	keystroke_a	a	n/a
141.7985	0.0595	283597	keystroke_l	l	n/a
141.9925	0.075	283985	keystroke_Key.space	Key.space	n/a
142.3075	0.045	284615	keystroke_c	c	n/a
142.608	0.015	285216	keystroke_Key.backspace	Key.backspace	n/a
142.653	0.06	285306	keystroke_e	e	n/a
142.833	0.06	285666	keystroke_x	x	n/a
142.922	0.061	285844	keystroke_p	p	n/a
143.028	0.075	286056	keystroke_e	e	n/a
143.073	0.0905	286146	keystroke_r	r	n/a
143.1935	0.105	286387	keystroke_e	e	n/a
143.2075	0.016	286415	keystroke_i	i	n/a
143.4335	0.044	286867	keystroke_n	n	n/a
143.5075	0.076	287015	keystroke_c	c	n/a
143.5535	0.06	287107	keystroke_e	e	n/a
144.198	0.045	288396	keystroke_Key.backspace	Key.backspace	n/a
144.318	0.044	288636	keystroke_Key.backspace	Key.backspace	n/a
144.422	0.06	288844	keystroke_Key.backspace	Key.backspace	n/a
144.558	0.0595	289116	keystroke_Key.backspace	Key.backspace	n/a
144.753	0.03	289506	keystroke_Key.backspace	Key.backspace	n/a
145.0685	0.0595	290137	keystroke_i	i	n/a
145.308	0.045	290616	keystroke_n	n	n/a
145.608	0.045	291216	keystroke_Key.backspace	Key.backspace	n/a
145.698	0.075	291396	keystroke_e	e	n/a
145.8325	0.0455	291665	keystroke_n	n	n/a
145.923	0.09	291846	keystroke_c	c	n/a
145.983	0.089	291966	keystroke_e	e	n/a
146.133	0.09	292266	keystroke_s	s	n/a
146.2235	0.059	292447	keystroke_Key.space	Key.space	n/a
146.4625	0.045	292925	keystroke_u	u	n/a
146.5985	0.0595	293197	keystroke_r	r	n/a
146.733	0.09	293466	keystroke_g	g	n/a
146.808	0.074	293616	keystroke_e	e	n/a
147.123	0.06	294246	keystroke_n	n	n/a
147.243	0.075	294486	keystroke_t	t	n/a
147.467	0.061	294934	keystroke_Key.enter	Key.enter	n/a
147.5335	6.2055	295067	prompt	n/a	prospective his beans polo\n
148.2035	0.0585	296407	keystroke_p	p	n/a
148.308	0.03	296616	keystroke_r	r	n/a
148.412	0.0605	296824	keystroke_o	o	n/a
148.487	0.045	296974	keystroke_s	s	n/a
148.6375	0.1195	297275	keystroke_e	e	n/a
148.743	0.0745	297486	keystroke_c	c	n/a
148.7725	0.0595	297545	keystroke_p	p	n/a
149.3125	0.0445	298625	keystroke_Key.backspace	Key.backspace	n/a
149.4325	0.0595	298865	keystroke_Key.backspace	Key.backspace	n/a
149.657	0.015	299314	keystroke_Key.backspace	Key.backspace	n/a
149.7785	0.0595	299557	keystroke_p	p	n/a
149.8085	0.15	299617	keystroke_e	e	n/a
149.9285	0.104	299857	keystroke_c	c	n/a
150.138	0.0445	300276	keystroke_t	t	n/a
150.2425	0.105	300485	keystroke_i	i	n/a
150.3025	0.0605	300605	keystroke_v	v	n/a
150.408	0.0595	300816	keystroke_e	e	n/a
150.423	0.0295	300846	keystroke_v	v	n/a
151.1575	0.046	302315	keystroke_Key.backspace	Key.backspace	n/a
151.2175	0.015	302435	keystroke_Key.space	Key.space	n/a
151.4575	0.06	302915	keystroke_h	h	n/a
151.5325	0.06	303065	keystroke_i	i	n/a
151.6075	0.09	303215	keystroke_s	s	n/a
151.7285	0.074	303457	keystroke_Key.space	Key.space	n/a
151.8775	0.106	303755	keystroke_b	b	n/a
151.9375	0.166	303875	keystroke_e	e	n/a
152.0875	0.06	304175	keystroke_a	a	n/a
152.2525	0.0755	304505	keystroke_n	n	n/a
152.4175	0.0755	304835	keystroke_s	s	n/a
152.5825	0.015	305165	keystroke_Key.space	Key.space	n/a
152.8225	0.1055	305645	keystroke_p	p	n/a
152.973	0.1355	305946	keystroke_o	o	n/a
153.1975	0.0455	306395	keystroke_l	l	n/a
153.408	0.2845	306816	keystroke_o	o	n/a
153.707	0.03	307414	keystroke_Key.enter	Key.enter	n/a
153.742	6.087	307484	prompt	n/a	rocky funky phoenix enormous\n
154.3685	0.044	308737	keystroke_r	r	n/a
154.4275	0.09	308855	keystroke_o	o	n/a
154.5325	0.076	309065	keystroke_c	c	n/a
154.6085	0.089	309217	keystroke_k	k	n/a
154.803	0.059	309606	keystroke_y	y	n/a
154.892	0.0465	309784	keystroke_Key.space	Key.space	n/a
155.148	0.044	310296	keystroke_f	f	n/a
155.254	0.059	310508	keystroke_u	u	n/a
155.448	0.075	310896	keystroke_n	n	n/a
155.508	0.075	311016	keystroke_k	k	n/a
155.703	0.045	311406	keystroke_y	y	n/a
155.8825	0.0745	311765	keystroke_Key.space	Key.space	n/a
156.049	0.059	312098	keystroke_p	p	n/a
156.2125	0.076	312425	keystroke_h	h	n/a
156.3025	0.075	312605	keystroke_o	o	n/a
156.5425	0.06	313085	keystroke_e	e	n/a
156.7375	0.0755	313475	keystroke_n	n	n/a
156.7975	0.091	313595	keystroke_i	i	n/a
157.6975	0.0455	315395	keystroke_x	x	n/a
157.8625	0.075	315725	keystroke_Key.space	Key.space	n/a
158.223	0.0595	316446	keystroke_e	e	n/a
158.3735	0.059	316747	keystroke_n	n	n/a
158.448	0.09	316896	keystroke_o	o	n/a
158.6275	0.061	317255	keystroke_r	r	n/a
158.8835	0.0595	317767	keystroke_m	m	n/a
159.063	0.06	318126	keystroke_o	o	n/a
159.288	0.06	318576	keystroke_u	u	n/a
159.468	0.0605	318936	keystroke_s	s	n/a
159.782	0.045	319564	keystroke_Key.enter	Key.enter	n/a
159.855	6.889	319710	prompt	n/a	peninsula penalty tagged wireless\n
160.608	0.0745	321216	keystroke_p	p	n/a
160.698	0.0755	321396	keystroke_e	e	n/a
160.833	0.0595	321666	keystroke_n	n	n/a
160.9225	0.0905	321845	keystroke_i	i	n/a
161.1175	0.015	322235	keystroke_n	n	n/a
161.6875	0.015	323375	keystroke_s	s	n/a
161.868	0.045	323736	keystroke_u	u	n/a
162.168	0.091	324336	keystroke_l	l	n/a
162.589	0.074	325178	keystroke_a	a	n/a
162.723	0.0445	325446	keystroke_Key.space	Key.space	n/a
163.3975	0.0455	326795	keystroke_p	p	n/a
163.459	0.074	326918	keystroke_e	e	n/a
163.638	0.045	327276	keystroke_n	n	n/a
163.758	0.0745	327516	keystroke_a	a	n/a
164.0875	0.0605	328175	keystroke_l	l	n/a
164.2375	0.0445	328475	keystroke_t	t	n/a
164.3425	0.045	328685	keystroke_y	y	n/a
164.448	0.0745	328896	keystroke_Key.space	Key.space	n/a
164.7175	0.105	329435	keystroke_t	t	n/a
164.9125	0.09	329825	keystroke_a	a	n/a
165.0325	0.0605	330065	keystroke_g	g	n/a
165.138	0.1045	330276	keystroke_g	g	n/a
165.258	0.1495	330516	keystroke_e	e	n/a
165.3625	0.1055	330725	keystroke_d	d	n/a
165.5125	0.075	331025	keystroke_Key.space	Key.space	n/a
165.6935	0.0745	331387	keystroke_w	w	n/a
165.843	0.0745	331686	keystroke_i	i	n/a
165.9625	0.1045	331925	keystroke_r	r	n/a
166.037	0.091	332074	keystroke_e	e	n/a
166.172	0.045	332344	keystroke_l	l	n/a
166.263	0.09	332526	keystroke_e	e	n/a
166.427	0.09	332854	keystroke_s	s	n/a
166.578	0.074	333156	keystroke_s	s	n/a
166.6825	0.0595	333365	keystroke_Key.enter	Key.enter	n/a
166.7515	5.9325	333503	prompt	n/a	lately weak register stamps\n
167.343	0.045	334686	keystroke_l	l	n/a
167.4185	0.105	334837	keystroke_a	a	n/a
167.5075	0.046	335015	keystroke_t	t	n/a
167.6135	0.165	335227	keystroke_e	e	n/a
167.7925	0.046	335585	keystroke_l	l	n/a
168.617	0.046	337234	keystroke_y	y	n/a
168.812	0.061	337624	keystroke_Key.space	Key.space	n/a
169.039	0.059	338078	keystroke_w	w	n/a
169.188	0.119	338376	keystroke_e	e	n/a
169.293	0.074	338586	keystroke_a	a	n/a
169.488	0.045	338976	keystroke_k	k	n/a
169.682	0.06	339364	keystroke_Key.space	Key.space	n/a
169.8785	0.0745	339757	keystroke_r	r	n/a
169.9675	0.031	339935	keystroke_e	e	n/a
170.088	0.03	340176	keystroke_e	e	n/a
170.537	0.03	341074	keystroke_Key.backspace	Key.backspace	n/a
170.643	0.0595	341286	keystroke_g	g	n/a
170.7175	0.0605	341435	keystroke_i	i	n/a
170.792	0.121	341584	keystroke_s	s	n/a
170.8985	0.0295	341797	keystroke_t	t	n/a
170.988	0.119	341976	keystroke_e	e	n/a
171.0635	0.105	342127	keystroke_r	r	n/a
171.1825	0.06	342365	keystroke_Key.space	Key.space	n/a
171.303	0.18	342606	keystroke_s	s	n/a
171.4975	0.06	342995	keystroke_t	t	n/a
171.573	0.0745	343146	keystroke_a	a	n/a
171.6625	0.06	343325	keystroke_m	m	n/a
171.8125	0.06	343625	keystroke_s	s	n/a
172.2025	0.03	344405	keystroke_Key.backspace	Key.backspace	n/a
172.3685	0.06	344737	keystroke_p	p	n/a
172.4585	0.0745	344917	keystroke_s	s	n/a
172.668	0.015	345336	keystroke_Key.enter	Key.enter	n/a
172.6885	5.441	345377	prompt	n/a	upcoming structured rolled college\n
173.343	0.0595	346686	keystroke_u	u	n/a
173.4775	0.136	346955	keystroke_p	p	n/a
173.5685	0.1195	347137	keystroke_c	c	n/a
173.778	0.1195	347556	keystroke_o	o	n/a
173.8535	0.089	347707	keystroke_m	m	n/a
174.0325	0.0605	348065	keystroke_i	i	n/a
174.0475	0.0905	348095	keystroke_n	n	n/a
174.183	0.046	348366	keystroke_g	g	n/a
174.273	0.06	348546	keystroke_Key.space	Key.space	n/a
175.0075	0.0605	350015	keystroke_s	s	n/a
175.053	0.029	350106	keystroke_t	t	n/a
175.1425	0.06	350285	keystroke_r	r	n/a
175.248	0.045	350496	keystroke_u	u	n/a
175.338	0.06	350676	keystroke_c	c	n/a
175.473	0.0755	350946	keystroke_t	t	n/a
175.563	0.045	351126	keystroke_u	u	n/a
175.698	0.09	351396	keystroke_r	r	n/a
175.758	0.075	351516	keystroke_e	e	n/a
175.908	0.09	351816	keystroke_d	d	n/a
176.0275	0.06	352055	keystroke_Key.space	Key.space	n/a
176.4025	0.0455	352805	keystroke_r	r	n/a
176.478	0.045	352956	keystroke_o	o	n/a
176.643	0.0445	353286	keystroke_l	l	n/a
176.7775	0.075	353555	keystroke_l	l	n/a
176.8675	0.075	353735	keystroke_e	e	n/a
176.8975	0.09	353795	keystroke_d	d	n/a
177.0025	0.0605	354005	keystroke_Key.space	Key.space	n/a
177.1675	0.046	354335	keystroke_c	c	n/a
177.2575	0.06	354515	keystroke_o	o	n/a
177.453	0.0445	354906	keystroke_l	l	n/a
177.5575	0.091	355115	keystroke_l	l	n/a
177.6935	0.014	355387	keystroke_e	e	n/a
177.723	0.0595	355446	keystroke_g	g	n/a
177.7975	0.0905	355595	keystroke_e	e	n/a
178.0675	0.0605	356135	keystroke_Key.enter	Key.enter	n/a
178.134	7.3905	356268	prompt	n/a	application clouds associates exhaust\n
178.743	0.03	357486	keystroke_a	a	n/a
178.833	0.075	357666	keystroke_p	p	n/a
178.983	0.135	357966	keystroke_p	p	n/a
179.103	0.15	358206	keystroke_l	l	n/a
179.178	0.12	358356	keystroke_i	i	n/a
179.268	0.1045	358536	keystroke_c	c	n/a
179.3735	0.104	358747	keystroke_a	a	n/a
179.4625	0.075	358925	keystroke_t	t	n/a
179.523	0.105	359046	keystroke_i	i	n/a
179.5525	0.105	359105	keystroke_o	o	n/a
179.5975	0.06	359195	keystroke_n	n	n/a
180.1675	0.075	360335	keystroke_Key.space	Key.space	n/a
180.438	0.0595	360876	keystroke_c	c	n/a
180.528	0.0895	361056	keystroke_l	l	n/a
181.443	0.0905	362886	keystroke_o	o	n/a
181.5035	0.045	363007	keystroke_u	u	n/a
181.5625	0.136	363125	keystroke_d	d	n/a
181.653	0.0905	363306	keystroke_s	s	n/a
181.8025	0.0605	363605	keystroke_Key.space	Key.space	n/a
182.0425	0.106	364085	keystroke_a	a	n/a
182.133	0.0595	364266	keystroke_s	s	n/a
182.253	0.09	364506	keystroke_s	s	n/a
182.3735	0.089	364747	keystroke_o	o	n/a
182.6425	0.061	365285	keystroke_c	c	n/a
182.7485	0.074	365497	keystroke_i	i	n/a
182.883	0.1045	365766	keystroke_a	a	n/a
182.9575	0.075	365915	keystroke_t	t	n/a
183.0935	0.089	366187	keystroke_e	e	n/a
183.273	0.0445	366546	keystroke_s	s	n/a
183.363	0.045	366726	keystroke_Key.space	Key.space	n/a
183.5425	0.0755	367085	keystroke_e	e	n/a
183.7075	0.075	367415	keystroke_x	x	n/a
183.8425	0.0605	367685	keystroke_h	h	n/a
184.0075	0.045	368015	keystroke_u	u	n/a
184.1725	0.06	368345	keystroke_a	a	n/a
184.5925	0.03	369185	keystroke_Key.backspace	Key.backspace	n/a
184.698	0.06	369396	keystroke_Key.backspace	Key.backspace	n/a
184.818	0.105	369636	keystroke_a	a	n/a
184.893	0.06	369786	keystroke_u	u	n/a
185.088	0.1495	370176	keystroke_s	s	n/a
185.2075	0.0605	370415	keystroke_t	t	n/a
185.4625	0.06	370925	keystroke_Key.enter	Key.enter	n/a
185.5285	8.576	371057	prompt	n/a	plates postage opposite kijiji\n
186.183	0.09	372366	keystroke_p	p	n/a
186.3935	0.0745	372787	keystroke_l	l	n/a
186.483	0.06	372966	keystroke_a	a	n/a
186.498	0.12	372996	keystroke_t	t	n/a
186.6035	0.1195	373207	keystroke_e	e	n/a
186.8135	0.0595	373627	keystroke_s	s	n/a
186.903	0.075	373806	keystroke_Key.space	Key.space	n/a
187.218	0.105	374436	keystroke_p	p	n/a
187.413	0.0895	374826	keystroke_o	o	n/a
187.5175	0.135	375035	keystroke_s	s	n/a
187.6075	0.06	375215	keystroke_t	t	n/a
187.7275	0.135	375455	keystroke_a	a	n/a
187.8925	0.061	375785	keystroke_b	b	n/a
188.343	0.075	376686	keystroke_Key.backspace	Key.backspace	n/a
188.373	0.105	376746	keystroke_g	g	n/a
188.463	0.03	376926	keystroke_e	e	n/a
188.628	0.06	377256	keystroke_Key.space	Key.space	n/a
189.1985	0.045	378397	keystroke_o	o	n/a
189.3925	0.075	378785	keystroke_p	p	n/a
189.5585	0.104	379117	keystroke_p	p	n/a
189.6635	0.104	379327	keystroke_o	o	n/a
189.8885	0.045	379777	keystroke_s	s	n/a
190.0535	0.074	380107	keystroke_i	i	n/a
190.2025	0.0605	380405	keystroke_t	t	n/a
190.248	0.0895	380496	keystroke_e	e	n/a
190.428	0.045	380856	keystroke_Key.space	Key.space	n/a
190.668	0.0455	381336	keystroke_k	k	n/a
190.848	0.0605	381696	keystroke_i	i	n/a
193.072	0.027	386144	keystroke_j	j	n/a
193.073	0.07	386146	keystroke_i	i	n/a
193.608	0.06	387216	keystroke_j	j	n/a
193.653	0.06	387306	keystroke_i	i	n/a
194.028	0.075	388056	keystroke_Key.enter	Key.enter	n/a
194.109	7.2255	388218	prompt	n/a	porsche spies genetics mount\n
194.883	0.06	389766	keystroke_p	p	n/a
195.018	0.09	390036	keystroke_o	o	n/a
195.153	0.045	390306	keystroke_r	r	n/a
195.348	0.075	390696	keystroke_c	c	n/a
195.693	0.03	391386	keystroke_Key.backspace	Key.backspace	n/a
195.708	0.105	391416	keystroke_s	s	n/a
195.768	0.075	391536	keystroke_c	c	n/a
195.873	0.045	391746	keystroke_h	h	n/a
195.933	0.0595	391866	keystroke_e	e	n/a
196.1425	0.0605	392285	keystroke_Key.space	Key.space	n/a
196.548	0.0905	393096	keystroke_s	s	n/a
196.6525	0.076	393305	keystroke_p	p	n/a
196.8025	0.076	393605	keystroke_i	i	n/a
196.9375	0.0755	393875	keystroke_e	e	n/a
197.1485	0.105	394297	keystroke_s	s	n/a
197.5225	0.0305	395045	keystroke_Key.space	Key.space	n/a
197.718	0.0605	395436	keystroke_s	s	n/a
198.183	0.045	396366	keystroke_g	g	n/a
198.198	0.075	396396	keystroke_e	e	n/a
198.558	0.045	397116	keystroke_Key.backspace	Key.backspace	n/a
198.663	0.045	397326	keystroke_Key.backspace	Key.backspace	n/a
198.7985	0.0595	397597	keystroke_Key.backspace	Key.backspace	n/a
198.9185	0.0745	397837	keystroke_g	g	n/a
198.993	0.0605	397986	keystroke_e	e	n/a
199.068	0.045	398136	keystroke_n	n	n/a
199.218	0.075	398436	keystroke_e	e	n/a
199.414	0.059	398828	keystroke_i	i	n/a
199.563	0.06	399126	keystroke_t	t	n/a
199.758	0.06	399516	keystroke_Key.backspace	Key.backspace	n/a
199.8775	0.076	399755	keystroke_Key.backspace	Key.backspace	n/a
199.9685	0.06	399937	keystroke_t	t	n/a
200.0435	0.09	400087	keystroke_i	i	n/a
200.1485	0.105	400297	keystroke_c	c	n/a
200.2675	0.076	400535	keystroke_s	s	n/a
200.478	0.06	400956	keystroke_Key.space	Key.space	n/a
200.673	0.075	401346	keystroke_m	m	n/a
200.763	0.075	401526	keystroke_o	o	n/a
200.868	0.06	401736	keystroke_u	u	n/a
201.048	0.045	402096	keystroke_n	n	n/a
201.063	0.0455	402126	keystroke_t	t	n/a
201.258	0.0745	402516	keystroke_Key.enter	Key.enter	n/a
201.338	8.1715	402676	prompt	n/a	gaps ultimate aurora effectiveness\n
202.023	0.0745	404046	keystroke_g	g	n/a
202.1275	0.045	404255	keystroke_a	a	n/a
202.2325	0.0755	404465	keystroke_p	p	n/a
202.3525	0.0605	404705	keystroke_s	s	n/a
202.4735	0.059	404947	keystroke_Key.space	Key.space	n/a
202.6825	0.0605	405365	keystroke_u	u	n/a
202.8935	0.0895	405787	keystroke_l	l	n/a
203.0735	0.06	406147	keystroke_t	t	n/a
203.163	0.06	406326	keystroke_i	i	n/a
203.2835	0.1195	406567	keystroke_p	p	n/a
203.628	0.06	407256	keystroke_Key.backspace	Key.backspace	n/a
203.793	0.045	407586	keystroke_m	m	n/a
203.884	0.1345	407768	keystroke_a	a	n/a
203.9285	0.105	407857	keystroke_t	t	n/a
204.0035	0.105	408007	keystroke_e	e	n/a
204.1375	0.045	408275	keystroke_Key.space	Key.space	n/a
204.3775	0.015	408755	keystroke_u	u	n/a
204.4535	0.09	408907	keystroke_a	a	n/a
205.038	0.0595	410076	keystroke_Key.backspace	Key.backspace	n/a
205.1575	0.0755	410315	keystroke_Key.backspace	Key.backspace	n/a
205.264	0.0885	410528	keystroke_a	a	n/a
205.368	0.06	410736	keystroke_u	u	n/a
205.5325	0.046	411065	keystroke_r	r	n/a
205.593	0.075	411186	keystroke_o	o	n/a
205.788	0.045	411576	keystroke_r	r	n/a
205.983	0.06	411966	keystroke_a	a	n/a
206.208	0.075	412416	keystroke_Key.space	Key.space	n/a
206.613	0.045	413226	keystroke_e	e	n/a
206.749	0.06	413498	keystroke_f	f	n/a
206.883	0.136	413766	keystroke_f	f	n/a
207.004	0.1195	414008	keystroke_e	e	n/a
207.1245	0.073	414249	keystroke_c	c	n/a
207.288	0.06	414576	keystroke_t	t	n/a
207.4075	0.06	414815	keystroke_i	i	n/a
207.4685	0.0905	414937	keystroke_v	v	n/a
207.5425	0.06	415085	keystroke_e	e	n/a
207.618	0.06	415236	keystroke_i	i	n/a
208.038	0.045	416076	keystroke_Key.backspace	Key.backspace	n/a
208.248	0.03	416496	keystroke_n	n	n/a
208.3375	0.0755	416675	keystroke_e	e	n/a
208.518	0.256	417036	keystroke_s	s	n/a
209.268	0.06	418536	keystroke_s	s	n/a
209.4325	0.075	418865	keystroke_Key.enter	Key.enter	n/a
209.515	5.9045	419030	prompt	n/a	relatively it's alarm handling\n
210.168	0.075	420336	keystroke_r	r	n/a
210.213	0.12	420426	keystroke_e	e	n/a
210.408	0.06	420816	keystroke_l	l	n/a
210.498	0.12	420996	keystroke_a	a	n/a
210.588	0.045	421176	keystroke_t	t	n/a
210.693	0.075	421386	keystroke_i	i	n/a
210.783	0.09	421566	keystroke_v	v	n/a
210.843	0.075	421686	keystroke_e	e	n/a
211.038	0.03	422076	keystroke_l	l	n/a
211.338	0.03	422676	keystroke_y	y	n/a
211.5485	0.0595	423097	keystroke_Key.space	Key.space	n/a
212.0135	0.06	424027	keystroke_i	i	n/a
212.1925	0.0455	424385	keystroke_t	t	n/a
212.3425	0.076	424685	keystroke_'	'	n/a
212.4485	0.09	424897	keystroke_s	s	n/a
212.5675	0.0605	425135	keystroke_Key.space	Key.space	n/a
212.7935	0.09	425587	keystroke_a	a	n/a
212.9435	0.075	425887	keystroke_l	l	n/a
213.1385	0.12	426277	keystroke_a	a	n/a
213.2135	0.06	426427	keystroke_r	r	n/a
213.378	0.045	426756	keystroke_m	m	n/a
213.588	0.045	427176	keystroke_Key.space	Key.space	n/a
213.828	0.045	427656	keystroke_h	h	n/a
214.4735	0.105	428947	keystroke_a	a	n/a
214.623	0.061	429246	keystroke_n	n	n/a
214.699	0.105	429398	keystroke_d	d	n/a
214.848	0.121	429696	keystroke_l	l	n/a
214.923	0.121	429846	keystroke_i	i	n/a
215.013	0.06	430026	keystroke_n	n	n/a
215.133	0.06	430266	keystroke_g	g	n/a
215.358	0.06	430716	keystroke_Key.enter	Key.enter	n/a
215.424	6.6555	430848	prompt	n/a	critics wrote titled sticks\n
216.0935	0.089	432187	keystroke_c	c	n/a
216.3935	0.045	432787	keystroke_i	i	n/a
217.0375	0.09	434075	keystroke_Key.backspace	Key.backspace	n/a
217.1425	0.046	434285	keystroke_r	r	n/a
217.2325	0.075	434465	keystroke_i	i	n/a
217.3375	0.045	434675	keystroke_t	t	n/a
217.398	0.09	434796	keystroke_i	i	n/a
217.5785	0.1345	435157	keystroke_c	c	n/a
217.833	0.0895	435666	keystroke_s	s	n/a
217.9825	0.0605	435965	keystroke_Key.space	Key.space	n/a
218.118	0.12	436236	keystroke_w	w	n/a
218.193	0.075	436386	keystroke_r	r	n/a
218.253	0.076	436506	keystroke_o	o	n/a
218.403	0.06	436806	keystroke_t	t	n/a
218.478	0.1055	436956	keystroke_e	e	n/a
218.613	0.06	437226	keystroke_Key.space	Key.space	n/a
218.808	0.06	437616	keystroke_t	t	n/a
218.913	0.06	437826	keystroke_i	i	n/a
219.018	0.075	438036	keystroke_t	t	n/a
219.123	0.0455	438246	keystroke_e	e	n/a
219.154	0.044	438308	keystroke_l	l	n/a
219.288	0.06	438576	keystroke_e	e	n/a
219.888	0.03	439776	keystroke_Key.backspace	Key.backspace	n/a
220.458	0.06	440916	keystroke_Key.backspace	Key.backspace	n/a
220.623	0.0455	441246	keystroke_Key.backspace	Key.backspace	n/a
220.8485	0.0145	441697	keystroke_l	l	n/a
220.923	0.0755	441846	keystroke_e	e	n/a
220.9685	0.0895	441937	keystroke_d	d	n/a
221.118	0.03	442236	keystroke_Key.space	Key.space	n/a
221.2985	0.1195	442597	keystroke_s	s	n/a
221.388	0.06	442776	keystroke_t	t	n/a
221.4935	0.045	442987	keystroke_i	i	n/a
221.5985	0.105	443197	keystroke_c	c	n/a
221.6585	0.0895	443317	keystroke_k	k	n/a
221.8385	0.0895	443677	keystroke_s	s	n/a
222.018	0.06	444036	keystroke_Key.enter	Key.enter	n/a
222.0915	6.693	444183	prompt	n/a	restoration securities vector valley\n
222.858	0.105	445716	keystroke_r	r	n/a
222.9485	0.119	445897	keystroke_e	e	n/a
223.0375	0.18	446075	keystroke_s	s	n/a
223.1725	0.075	446345	keystroke_t	t	n/a
223.278	0.0745	446556	keystroke_o	o	n/a
223.3975	0.076	446795	keystroke_r	r	n/a
223.5035	0.149	447007	keystroke_a	a	n/a
223.6075	0.06	447215	keystroke_t	t	n/a
223.729	0.1195	447458	keystroke_i	i	n/a
223.7735	0.12	447547	keystroke_o	o	n/a
223.834	0.0895	447668	keystroke_n	n	n/a
223.908	0.0595	447816	keystroke_Key.space	Key.space	n/a
224.104	0.044	448208	keystroke_s	s	n/a
224.2535	0.12	448507	keystroke_e	e	n/a
224.4175	0.031	448835	keystroke_c	c	n/a
224.5385	0.03	449077	keystroke_u	u	n/a
224.6285	0.075	449257	keystroke_r	r	n/a
224.7175	0.106	449435	keystroke_i	i	n/a
224.8685	0.0595	449737	keystroke_t	t	n/a
224.9125	0.0905	449825	keystroke_i	i	n/a
225.0325	0.0605	450065	keystroke_e	e	n/a
225.198	0.0595	450396	keystroke_s	s	n/a
225.303	0.0595	450606	keystroke_Key.space	Key.space	n/a
225.798	0.075	451596	keystroke_v	v	n/a
225.843	0.09	451686	keystroke_e	e	n/a
226.0685	0.044	452137	keystroke_n	n	n/a
226.083	0.045	452166	keystroke_c	c	n/a
226.4275	0.0605	452855	keystroke_Key.backspace	Key.backspace	n/a
226.5475	0.075	453095	keystroke_Key.backspace	Key.backspace	n/a
226.6825	0.06	453365	keystroke_c	c	n/a
227.0885	0.044	454177	keystroke_t	t	n/a
227.2835	0.06	454567	keystroke_o	o	n/a
227.4335	0.075	454867	keystroke_r	r	n/a
227.8985	0.015	455797	keystroke_Key.space	Key.space	n/a
227.9585	0.075	455917	keystroke_v	v	n/a
228.0485	0.059	456097	keystroke_a	a	n/a
228.139	0.0745	456278	keystroke_l	l	n/a
228.2885	0.09	456577	keystroke_l	l	n/a
228.394	0.075	456788	keystroke_e	e	n/a
228.498	0.045	456996	keystroke_y	y	n/a
228.693	0.09	457386	keystroke_Key.enter	Key.enter	n/a
228.8005	9.119	457601	prompt	n/a	alliance reservoir samsung suspected\n
229.384	0.075	458768	keystroke_a	a	n/a
229.518	0.06	459036	keystroke_l	l	n/a
229.6385	0.12	459277	keystroke_l	l	n/a
229.7135	0.075	459427	keystroke_i	i	n/a
229.8035	0.09	459607	keystroke_a	a	n/a
229.9535	0.0745	459907	keystroke_n	n	n/a
230.013	0.09	460026	keystroke_c	c	n/a
230.058	0.06	460116	keystroke_e	e	n/a
230.178	0.06	460356	keystroke_Key.space	Key.space	n/a
230.508	0.09	461016	keystroke_r	r	n/a
230.5685	0.0595	461137	keystroke_e	e	n/a
230.6735	0.1205	461347	keystroke_s	s	n/a
230.883	0.12	461766	keystroke_e	e	n/a
230.958	0.09	461916	keystroke_r	r	n/a
231.1535	0.0895	462307	keystroke_v	v	n/a
231.273	0.135	462546	keystroke_o	o	n/a
231.3635	0.0895	462727	keystroke_i	i	n/a
231.468	0.0755	462936	keystroke_c	c	n/a
231.513	0.0605	463026	keystroke_e	e	n/a
231.843	0.0455	463686	keystroke_Key.backspace	Key.backspace	n/a
232.098	0.06	464196	keystroke_Key.backspace	Key.backspace	n/a
232.218	0.061	464436	keystroke_r	r	n/a
232.384	0.044	464768	keystroke_Key.space	Key.space	n/a
232.953	0.03	465906	keystroke_a	a	n/a
233.134	0.059	466268	keystroke_s	s	n/a
233.373	0.0295	466746	keystroke_Key.backspace	Key.backspace	n/a
233.4925	0.076	466985	keystroke_Key.backspace	Key.backspace	n/a
233.6285	0.1345	467257	keystroke_s	s	n/a
233.733	0.105	467466	keystroke_a	a	n/a
233.823	0.0755	467646	keystroke_m	m	n/a
233.9885	0.1955	467977	keystroke_s	s	n/a
234.2135	0.059	468427	keystroke_u	u	n/a
234.318	0.0905	468636	keystroke_g	g	n/a
234.4225	0.0605	468845	keystroke_n	n	n/a
234.6175	0.06	469235	keystroke_Key.space	Key.space	n/a
235.023	0.06	470046	keystroke_Key.backspace	Key.backspace	n/a
235.173	0.045	470346	keystroke_Key.backspace	Key.backspace	n/a
235.278	0.09	470556	keystroke_Key.backspace	Key.backspace	n/a
235.5035	0.0445	471007	keystroke_n	n	n/a
235.593	0.045	471186	keystroke_g	g	n/a
235.6685	0.0595	471337	keystroke_Key.space	Key.space	n/a
235.833	0.03	471666	keystroke_s	s	n/a
236.103	0.045	472206	keystroke_u	u	n/a
236.298	0.06	472596	keystroke_s	s	n/a
237.0925	0.076	474185	keystroke_p	p	n/a
237.2285	0.15	474457	keystroke_e	e	n/a
237.3185	0.09	474637	keystroke_c	c	n/a
237.5135	0.06	475027	keystroke_t	t	n/a
237.6035	0.135	475207	keystroke_e	e	n/a
237.7085	0.104	475417	keystroke_d	d	n/a
237.8425	0.0755	475685	keystroke_Key.enter	Key.enter	n/a
237.9315	3.753	475863	prompt	n/a	devil pride being hour\n
238.488	0.106	476976	keystroke_d	d	n/a
238.578	0.106	477156	keystroke_e	e	n/a
238.713	0.105	477426	keystroke_v	v	n/a
238.879	0.074	477758	keystroke_i	i	n/a
239.0585	0.12	478117	keystroke_l	l	n/a
239.2685	0.0595	478537	keystroke_Key.space	Key.space	n/a
239.4485	0.0595	478897	keystroke_p	p	n/a
239.598	0.046	479196	keystroke_r	r	n/a
240.1685	0.06	480337	keystroke_i	i	n/a
240.2435	0.15	480487	keystroke_d	d	n/a
240.3485	0.06	480697	keystroke_e	e	n/a
240.4525	0.045	480905	keystroke_Key.space	Key.space	n/a
240.6325	0.061	481265	keystroke_b	b	n/a
240.7385	0.1345	481477	keystroke_e	e	n/a
240.903	0.075	481806	keystroke_i	i	n/a
240.963	0.03	481926	keystroke_n	n	n/a
241.053	0.06	482106	keystroke_g	g	n/a
241.1275	0.046	482255	keystroke_Key.space	Key.space	n/a
241.2035	0.12	482407	keystroke_h	h	n/a
241.3085	0.075	482617	keystroke_o	o	n/a
241.399	0.0295	482798	keystroke_u	u	n/a
241.4735	0.045	482947	keystroke_r	r	n/a
241.6225	0.06	483245	keystroke_Key.enter	Key.enter	n/a
241.689	8.5155	483378	prompt	n/a	sudden disciplinary develop operational\n
242.4485	0.045	484897	keystroke_s	s	n/a
242.6735	0.045	485347	keystroke_u	u	n/a
242.8385	0.045	485677	keystroke_d	d	n/a
242.9285	0.06	485857	keystroke_d	d	n/a
243.0185	0.0445	486037	keystroke_d	d	n/a
243.483	0.0455	486966	keystroke_Key.backspace	Key.backspace	n/a
243.5585	0.0595	487117	keystroke_e	e	n/a
243.6935	0.06	487387	keystroke_n	n	n/a
243.7975	0.0755	487595	keystroke_t	t	n/a
243.903	0.06	487806	keystroke_Key.space	Key.space	n/a
244.114	0.119	488228	keystroke_d	d	n/a
244.188	0.1045	488376	keystroke_e	e	n/a
244.4135	0.06	488827	keystroke_i	i	n/a
244.4885	0.1495	488977	keystroke_s	s	n/a
244.5925	0.076	489185	keystroke_c	c	n/a
244.863	0.045	489726	keystroke_Key.backspace	Key.backspace	n/a
244.9685	0.0895	489937	keystroke_Key.backspace	Key.backspace	n/a
245.102	0.061	490204	keystroke_Key.backspace	Key.backspace	n/a
245.2375	0.105	490475	keystroke_Key.backspace	Key.backspace	n/a
245.4925	0.046	490985	keystroke_i	i	n/a
245.5535	0.135	491107	keystroke_s	s	n/a
245.6735	0.06	491347	keystroke_c	c	n/a
245.7185	0.075	491437	keystroke_i	i	n/a
246.0785	0.1195	492157	keystroke_p	p	n/a
246.513	0.166	493026	keystroke_l	l	n/a
246.648	0.105	493296	keystroke_i	i	n/a
246.694	0.09	493388	keystroke_n	n	n/a
246.963	0.09	493926	keystroke_a	a	n/a
247.008	0.061	494016	keystroke_r	r	n/a
247.143	0.045	494286	keystroke_y	y	n/a
247.203	0.075	494406	keystroke_Key.space	Key.space	n/a
247.4735	0.1195	494947	keystroke_d	d	n/a
247.5775	0.0765	495155	keystroke_e	e	n/a
247.6835	0.104	495367	keystroke_v	v	n/a
247.7735	0.059	495547	keystroke_e	e	n/a
247.8475	0.046	495695	keystroke_l	l	n/a
247.9975	0.091	495995	keystroke_o	o	n/a
248.1185	0.075	496237	keystroke_p	p	n/a
248.3575	0.045	496715	keystroke_Key.space	Key.space	n/a
248.5685	0.089	497137	keystroke_o	o	n/a
248.8985	0.075	497797	keystroke_p	p	n/a
249.048	0.1205	498096	keystroke_e	e	n/a
249.123	0.105	498246	keystroke_r	r	n/a
249.2735	0.1185	498547	keystroke_a	a	n/a
249.3485	0.0745	498697	keystroke_t	t	n/a
249.438	0.1055	498876	keystroke_i	i	n/a
249.4535	0.1195	498907	keystroke_o	o	n/a
249.4985	0.0595	498997	keystroke_n	n	n/a
249.708	0.06	499416	keystroke_a	a	n/a
249.8435	0.0595	499687	keystroke_l	l	n/a
250.113	0.0895	500226	keystroke_Key.enter	Key.enter	n/a
250.2085	5.711	500417	prompt	n/a	guard garlic certain crisis\n
250.878	0.075	501756	keystroke_g	g	n/a
251.029	0.074	502058	keystroke_u	u	n/a
251.179	0.104	502358	keystroke_a	a	n/a
251.239	0.059	502478	keystroke_r	r	n/a
251.3885	0.0595	502777	keystroke_d	d	n/a
251.5835	0.045	503167	keystroke_Key.space	Key.space	n/a
251.959	0.0745	503918	keystroke_g	g	n/a
252.0935	0.1045	504187	keystroke_a	a	n/a
252.1685	0.075	504337	keystroke_r	r	n/a
252.363	0.105	504726	keystroke_l	l	n/a
252.438	0.075	504876	keystroke_i	i	n/a
252.573	0.075	505146	keystroke_c	c	n/a
252.738	0.045	505476	keystroke_Key.space	Key.space	n/a
253.1135	0.0895	506227	keystroke_c	c	n/a
253.203	0.105	506406	keystroke_e	e	n/a
253.308	0.105	506616	keystroke_r	r	n/a
253.398	0.0305	506796	keystroke_t	t	n/a
253.638	0.045	507276	keystroke_a	a	n/a
253.6685	0.1505	507337	keystroke_i	i	n/a
253.7585	0.075	507517	keystroke_n	n	n/a
254.358	0.045	508716	keystroke_Key.space	Key.space	n/a
254.4785	0.0445	508957	keystroke_c	c	n/a
254.628	0.061	509256	keystroke_r	r	n/a
254.734	0.06	509468	keystroke_i	i	n/a
254.838	0.06	509676	keystroke_s	s	n/a
255.094	0.0595	510188	keystroke_s	s	n/a
255.4375	0.045	510875	keystroke_Key.backspace	Key.backspace	n/a
255.6025	0.075	511205	keystroke_i	i	n/a
255.6785	0.059	511357	keystroke_s	s	n/a
255.858	0.0595	511716	keystroke_Key.enter	Key.enter	n/a
255.924	4.001	511848	prompt	n/a	perry causes zone oliver\n
256.548	0.06	513096	keystroke_p	p	n/a
256.6235	0.0745	513247	keystroke_e	e	n/a
256.668	0.105	513336	keystroke_r	r	n/a
257.0285	0.075	514057	keystroke_r	r	n/a
257.1925	0.076	514385	keystroke_y	y	n/a
257.3275	0.0905	514655	keystroke_Key.space	Key.space	n/a
257.5685	0.075	515137	keystroke_c	c	n/a
257.6285	0.0595	515257	keystroke_a	a	n/a
257.748	0.0455	515496	keystroke_u	u	n/a
257.8085	0.0895	515617	keystroke_s	s	n/a
257.9435	0.0745	515887	keystroke_e	e	n/a
258.138	0.06	516276	keystroke_s	s	n/a
258.393	0.075	516786	keystroke_Key.space	Key.space	n/a
258.619	0.074	517238	keystroke_z	z	n/a
258.753	0.0755	517506	keystroke_o	o	n/a
258.813	0.06	517626	keystroke_n	n	n/a
258.918	0.075	517836	keystroke_e	e	n/a
259.008	0.06	518016	keystroke_Key.space	Key.space	n/a
259.158	0.0905	518316	keystroke_o	o	n/a
259.3685	0.1045	518737	keystroke_l	l	n/a
259.443	0.0905	518886	keystroke_i	i	n/a
259.548	0.15	519096	keystroke_v	v	n/a
259.608	0.12	519216	keystroke_e	e	n/a
259.698	0.09	519396	keystroke_r	r	n/a
259.863	0.06	519726	keystroke_Key.enter	Key.enter	n/a
259.9355	4.969	519871	prompt	n/a	providing passes yang referred\n
260.6585	0.089	521317	keystroke_p	p	n/a
260.7925	0.046	521585	keystroke_r	r	n/a
260.8525	0.0905	521705	keystroke_o	o	n/a
260.9585	0.074	521917	keystroke_v	v	n/a
261.0485	0.06	522097	keystroke_i	i	n/a
261.1085	0.0895	522217	keystroke_d	d	n/a
261.243	0.076	522486	keystroke_i	i	n/a
261.274	0.089	522548	keystroke_n	n	n/a
261.378	0.03	522756	keystroke_g	g	n/a
261.468	0.06	522936	keystroke_Key.space	Key.space	n/a
261.648	0.0605	523296	keystroke_p	p	n/a
261.753	0.06	523506	keystroke_a	a	n/a
261.768	0.09	523536	keystroke_s	s	n/a
261.9335	0.0595	523867	keystroke_s	s	n/a
262.263	0.06	524526	keystroke_e	e	n/a
262.413	0.0605	524826	keystroke_s	s	n/a
262.5325	0.045	525065	keystroke_Key.space	Key.space	n/a
262.7735	0.045	525547	keystroke_y	y	n/a
262.8775	0.1055	525755	keystroke_a	a	n/a
263.0285	0.06	526057	keystroke_n	n	n/a
263.1485	0.06	526297	keystroke_g	g	n/a
263.2525	0.046	526505	keystroke_Key.space	Key.space	n/a
263.3885	0.105	526777	keystroke_r	r	n/a
263.449	0.0735	526898	keystroke_e	e	n/a
263.5685	0.105	527137	keystroke_f	f	n/a
263.6435	0.09	527287	keystroke_e	e	n/a
263.7185	0.149	527437	keystroke_r	r	n/a
263.8385	0.075	527677	keystroke_e	e	n/a
264.273	0.0595	528546	keystroke_Key.backspace	Key.backspace	n/a
264.3485	0.09	528697	keystroke_r	r	n/a
264.408	0.0905	528816	keystroke_e	e	n/a
264.543	0.1205	529086	keystroke_d	d	n/a
264.843	0.059	529686	keystroke_Key.enter	Key.enter	n/a
264.9105	5.259	529821	prompt	n/a	factor draws largest chamber\n
265.5635	0.075	531127	keystroke_f	f	n/a
265.6535	0.044	531307	keystroke_a	a	n/a
265.7575	0.076	531515	keystroke_c	c	n/a
265.9235	0.09	531847	keystroke_t	t	n/a
266.029	0.06	532058	keystroke_o	o	n/a
266.1185	0.075	532237	keystroke_r	r	n/a
266.2075	0.0755	532415	keystroke_Key.space	Key.space	n/a
266.3135	0.0905	532627	keystroke_d	d	n/a
266.4325	0.0605	532865	keystroke_a	a	n/a
266.508	0.075	533016	keystroke_r	r	n/a
266.643	0.06	533286	keystroke_w	w	n/a
266.913	0.06	533826	keystroke_Key.backspace	Key.backspace	n/a
267.033	0.06	534066	keystroke_Key.backspace	Key.backspace	n/a
267.153	0.075	534306	keystroke_Key.backspace	Key.backspace	n/a
267.259	0.09	534518	keystroke_r	r	n/a
267.334	0.119	534668	keystroke_a	a	n/a
267.409	0.149	534818	keystroke_w	w	n/a
267.663	0.09	535326	keystroke_s	s	n/a
267.783	0.075	535566	keystroke_Key.space	Key.space	n/a
267.963	0.06	535926	keystroke_l	l	n/a
268.0985	0.1055	536197	keystroke_a	a	n/a
268.1585	0.0605	536317	keystroke_r	r	n/a
268.294	0.0735	536588	keystroke_g	g	n/a
268.3235	0.104	536647	keystroke_e	e	n/a
268.503	0.1205	537006	keystroke_s	s	n/a
268.6825	0.0755	537365	keystroke_Key.space	Key.space	n/a
268.9975	0.03	537995	keystroke_Key.backspace	Key.backspace	n/a
269.0885	0.044	538177	keystroke_t	t	n/a
269.2375	0.015	538475	keystroke_Key.space	Key.space	n/a
269.2835	0.09	538567	keystroke_c	c	n/a
269.403	0.045	538806	keystroke_h	h	n/a
269.508	0.09	539016	keystroke_a	a	n/a
269.643	0.075	539286	keystroke_m	m	n/a
269.763	0.09	539526	keystroke_b	b	n/a
269.8385	0.1195	539677	keystroke_e	e	n/a
269.943	0.0605	539886	keystroke_r	r	n/a
270.108	0.06	540216	keystroke_Key.enter	Key.enter	n/a
270.1875	6.462	540375	prompt	n/a	demonstrates conviction dryer stretch\n
270.7225	0.09	541445	keystroke_d	d	n/a
270.873	0.15	541746	keystroke_e	e	n/a
271.144	0.0745	542288	keystroke_m	m	n/a
271.233	0.0755	542466	keystroke_o	o	n/a
271.3235	0.075	542647	keystroke_n	n	n/a
271.414	0.1335	542828	keystroke_s	s	n/a
271.5025	0.061	543005	keystroke_t	t	n/a
271.6375	0.106	543275	keystroke_r	r	n/a
271.7135	0.135	543427	keystroke_a	a	n/a
271.8035	0.105	543607	keystroke_t	t	n/a
271.9235	0.15	543847	keystroke_e	e	n/a
272.2225	0.076	544445	keystroke_s	s	n/a
272.4625	0.046	544925	keystroke_Key.space	Key.space	n/a
272.6575	0.0605	545315	keystroke_c	c	n/a
272.7325	0.091	545465	keystroke_o	o	n/a
272.8085	0.074	545617	keystroke_n	n	n/a
272.9735	0.075	545947	keystroke_v	v	n/a
273.1235	0.075	546247	keystroke_i	i	n/a
273.3785	0.06	546757	keystroke_c	c	n/a
273.5585	0.06	547117	keystroke_t	t	n/a
273.6335	0.105	547267	keystroke_i	i	n/a
273.6635	0.09	547327	keystroke_o	o	n/a
273.6935	0.075	547387	keystroke_n	n	n/a
273.7685	0.075	547537	keystroke_Key.space	Key.space	n/a
273.9335	0.134	547867	keystroke_d	d	n/a
274.0385	0.074	548077	keystroke_r	r	n/a
274.1725	0.061	548345	keystroke_y	y	n/a
274.3235	0.1055	548647	keystroke_e	e	n/a
274.383	0.09	548766	keystroke_r	r	n/a
274.563	0.0455	549126	keystroke_Key.space	Key.space	n/a
274.7725	0.0155	549545	keystroke_d	d	n/a
274.7885	0.074	549577	keystroke_s	s	n/a
275.2825	0.045	550565	keystroke_Key.backspace	Key.backspace	n/a
275.4175	0.06	550835	keystroke_Key.backspace	Key.backspace	n/a
275.5085	0.119	551017	keystroke_s	s	n/a
275.5835	0.059	551167	keystroke_t	t	n/a
275.7325	0.106	551465	keystroke_r	r	n/a
275.7935	0.194	551587	keystroke_e	e	n/a
275.9735	0.075	551947	keystroke_t	t	n/a
276.2125	0.106	552425	keystroke_c	c	n/a
276.3925	0.015	552785	keystroke_h	h	n/a
276.573	0.075	553146	keystroke_Key.enter	Key.enter	n/a
276.6635	6.451	553327	prompt	n/a	kilometers derived commands one\n
277.293	0.045	554586	keystroke_k	k	n/a
277.548	0.1055	555096	keystroke_i	i	n/a
277.638	0.1045	555276	keystroke_l	l	n/a
277.9975	0.0755	555995	keystroke_o	o	n/a
278.0585	0.074	556117	keystroke_m	m	n/a
279.153	0.1055	558306	keystroke_e	e	n/a
279.303	0.075	558606	keystroke_t	t	n/a
279.393	0.195	558786	keystroke_e	e	n/a
279.573	0.225	559146	keystroke_r	r	n/a
279.693	0.195	559386	keystroke_s	s	n/a
279.889	0.059	559778	keystroke_Key.space	Key.space	n/a
280.338	0.15	560676	keystroke_d	d	n/a
280.443	0.106	560886	keystroke_e	e	n/a
280.6525	0.121	561305	keystroke_r	r	n/a
280.924	0.059	561848	keystroke_i	i	n/a
281.103	0.0905	562206	keystroke_v	v	n/a
281.2085	0.105	562417	keystroke_e	e	n/a
281.2825	0.091	562565	keystroke_d	d	n/a
281.4325	0.075	562865	keystroke_Key.space	Key.space	n/a
281.6735	0.074	563347	keystroke_c	c	n/a
281.7635	0.09	563527	keystroke_o	o	n/a
281.8385	0.06	563677	keystroke_m	m	n/a
281.988	0.015	563976	keystroke_m	m	n/a
282.183	0.0455	564366	keystroke_a	a	n/a
282.2425	0.061	564485	keystroke_n	n	n/a
282.3475	0.121	564695	keystroke_d	d	n/a
282.4385	0.09	564877	keystroke_s	s	n/a
282.5725	0.046	565145	keystroke_Key.space	Key.space	n/a
282.7085	0.105	565417	keystroke_o	o	n/a
282.7835	0.06	565567	keystroke_n	n	n/a
282.8585	0.03	565717	keystroke_e	e	n/a
283.098	0.015	566196	keystroke_Key.enter	Key.enter	n/a
283.117	9.8825	566234	prompt	n/a	defined landscape atlanta attorney\n
283.653	0.15	567306	keystroke_d	d	n/a
283.7435	0.12	567487	keystroke_e	e	n/a
283.893	0.0755	567786	keystroke_f	f	n/a
284.1185	0.0595	568237	keystroke_i	i	n/a
284.163	0.0755	568326	keystroke_n	n	n/a
284.3135	0.0755	568627	keystroke_e	e	n/a
284.358	0.09	568716	keystroke_d	d	n/a
284.913	0.03	569826	keystroke_Key.space	Key.space	n/a
285.1525	0.061	570305	keystroke_l	l	n/a
285.4075	0.031	570815	keystroke_n	n	n/a
285.4235	0.059	570847	keystroke_d	d	n/a
285.663	0.06	571326	keystroke_Key.backspace	Key.backspace	n/a
285.843	0.06	571686	keystroke_Key.backspace	Key.backspace	n/a
286.038	0.075	572076	keystroke_a	a	n/a
286.1435	0.0445	572287	keystroke_n	n	n/a
286.278	0.09	572556	keystroke_d	d	n/a
286.369	0.134	572738	keystroke_s	s	n/a
286.488	0.06	572976	keystroke_c	c	n/a
286.623	0.06	573246	keystroke_a	a	n/a
286.803	0.06	573606	keystroke_p	p	n/a
286.998	0.0455	573996	keystroke_e	e	n/a
287.658	0.045	575316	keystroke_Key.space	Key.space	n/a
287.853	0.075	575706	keystroke_a	a	n/a
288.1975	0.076	576395	keystroke_t	t	n/a
288.3335	0.044	576667	keystroke_l	l	n/a
288.453	0.105	576906	keystroke_a	a	n/a
288.9935	0.0445	577987	keystroke_n	n	n/a
289.0985	0.0745	578197	keystroke_t	t	n/a
289.219	0.029	578438	keystroke_a	a	n/a
289.443	0.03	578886	keystroke_Key.space	Key.space	n/a
289.653	0.0905	579306	keystroke_a	a	n/a
289.788	0.0905	579576	keystroke_t	t	n/a
289.983	0.09	579966	keystroke_t	t	n/a
290.0885	0.0895	580177	keystroke_o	o	n/a
290.223	0.0755	580446	keystroke_r	r	n/a
290.388	0.015	580776	keystroke_n	n	n/a
290.4485	0.0595	580897	keystroke_e	e	n/a
290.598	0.045	581196	keystroke_y	y	n/a
292.9855	0.012	585971	keystroke_Key.enter	Key.enter	n/a
293.006	6.9835	586012	prompt	n/a	delay transformation internationally indicates\n
293.5835	0.1045	587167	keystroke_d	d	n/a
293.8385	0.0745	587677	keystroke_e	e	n/a
293.973	0.0895	587946	keystroke_l	l	n/a
294.108	0.0445	588216	keystroke_a	a	n/a
294.2575	0.045	588515	keystroke_y	y	n/a
294.318	0.06	588636	keystroke_Key.space	Key.space	n/a
294.5275	0.09	589055	keystroke_t	t	n/a
294.6325	0.18	589265	keystroke_r	r	n/a
294.768	0.0595	589536	keystroke_a	a	n/a
294.8425	0.03	589685	keystroke_n	n	n/a
294.8875	0.121	589775	keystroke_s	s	n/a
295.038	0.03	590076	keystroke_f	f	n/a
295.1575	0.075	590315	keystroke_o	o	n/a
295.3835	0.015	590767	keystroke_r	r	n/a
295.4125	0.076	590825	keystroke_m	m	n/a
295.5345	0.104	591069	keystroke_a	a	n/a
295.6085	0.06	591217	keystroke_t	t	n/a
295.6835	0.105	591367	keystroke_i	i	n/a
295.6985	0.105	591397	keystroke_o	o	n/a
295.7585	0.059	591517	keystroke_n	n	n/a
295.833	0.0445	591666	keystroke_Key.space	Key.space	n/a
296.508	0.0895	593016	keystroke_i	i	n/a
296.583	0.03	593166	keystroke_n	n	n/a
296.6885	0.089	593377	keystroke_t	t	n/a
296.7035	0.089	593407	keystroke_e	e	n/a
296.7475	0.106	593495	keystroke_r	r	n/a
297.3035	0.0455	594607	keystroke_n	n	n/a
297.408	0.1055	594816	keystroke_a	a	n/a
297.4825	0.046	594965	keystroke_t	t	n/a
297.813	0.0755	595626	keystroke_i	i	n/a
297.8285	0.1045	595657	keystroke_o	o	n/a
297.8725	0.0755	595745	keystroke_n	n	n/a
298.143	0.015	596286	keystroke_a	a	n/a
298.173	0.06	596346	keystroke_l	l	n/a
298.293	0.09	596586	keystroke_l	l	n/a
298.398	0.075	596796	keystroke_y	y	n/a
298.758	0.06	597516	keystroke_Key.space	Key.space	n/a
299.013	0.06	598026	keystroke_i	i	n/a
299.058	0.0305	598116	keystroke_n	n	n/a
299.103	0.075	598206	keystroke_d	d	n/a
299.193	0.0905	598386	keystroke_i	i	n/a
299.3135	0.09	598627	keystroke_c	c	n/a
299.4475	0.09	598895	keystroke_a	a	n/a
299.5535	0.06	599107	keystroke_t	t	n/a
299.628	0.105	599256	keystroke_e	e	n/a
299.792	0.076	599584	keystroke_s	s	n/a
299.928	0.06	599856	keystroke_Key.enter	Key.enter	n/a
299.9975	9.2315	599995	prompt	n/a	gather matter room ringtone\n
300.6185	0.0595	601237	keystroke_g	g	n/a
300.708	0.12	601416	keystroke_a	a	n/a
300.813	0.075	601626	keystroke_t	t	n/a
300.963	0.045	601926	keystroke_h	h	n/a
301.0835	0.089	602167	keystroke_e	e	n/a
301.128	0.0745	602256	keystroke_r	r	n/a
301.3075	0.06	602615	keystroke_Key.space	Key.space	n/a
301.5025	0.045	603005	keystroke_m	m	n/a
301.5935	0.06	603187	keystroke_a	a	n/a
301.6385	0.045	603277	keystroke_t	t	n/a
301.7585	0.104	603517	keystroke_t	t	n/a
301.8935	0.059	603787	keystroke_e	e	n/a
301.9985	0.0895	603997	keystroke_r	r	n/a
302.0125	0.045	604025	keystroke_e	e	n/a
302.268	0.015	604536	keystroke_Key.space	Key.space	n/a
302.464	0.044	604928	keystroke_r	r	n/a
302.568	0.12	605136	keystroke_o	o	n/a
302.7185	0.1045	605437	keystroke_o	o	n/a
302.793	0.075	605586	keystroke_m	m	n/a
302.883	0.045	605766	keystroke_Key.space	Key.space	n/a
303.4685	0.06	606937	keystroke_r	r	n/a
303.5725	0.0905	607145	keystroke_i	i	n/a
303.6035	0.075	607207	keystroke_n	n	n/a
303.9025	0.045	607805	keystroke_Key.backspace	Key.backspace	n/a
304.023	0.06	608046	keystroke_Key.backspace	Key.backspace	n/a
304.143	0.06	608286	keystroke_Key.backspace	Key.backspace	n/a
304.278	0.0605	608556	keystroke_Key.backspace	Key.backspace	n/a
304.398	0.074	608796	keystroke_Key.backspace	Key.backspace	n/a
304.5325	0.0755	609065	keystroke_Key.backspace	Key.backspace	n/a
304.683	0.0745	609366	keystroke_Key.backspace	Key.backspace	n/a
304.968	0.0445	609936	keystroke_Key.backspace	Key.backspace	n/a
305.1175	0.045	610235	keystroke_Key.backspace	Key.backspace	n/a
305.2525	0.06	610505	keystroke_Key.backspace	Key.backspace	n/a
305.5375	0.045	611075	keystroke_Key.space	Key.space	n/a
305.6885	0.045	611377	keystroke_r	r	n/a
305.7935	0.09	611587	keystroke_i	i	n/a
305.8385	0.059	611677	keystroke_n	n	n/a
306.5125	0.06	613025	keystroke_Key.backspace	Key.backspace	n/a
307.263	0.0445	614526	keystroke_Key.backspace	Key.backspace	n/a
307.6375	0.061	615275	keystroke_o	o	n/a
307.7585	0.105	615517	keystroke_o	o	n/a
307.8485	0.075	615697	keystroke_m	m	n/a
307.9525	0.06	615905	keystroke_Key.space	Key.space	n/a
308.1625	0.0305	616325	keystroke_r	r	n/a
308.2085	0.0595	616417	keystroke_i	i	n/a
308.298	0.045	616596	keystroke_n	n	n/a
308.373	0.06	616746	keystroke_g	g	n/a
308.553	0.045	617106	keystroke_t	t	n/a
308.673	0.075	617346	keystroke_o	o	n/a
308.718	0.06	617436	keystroke_n	n	n/a
309.003	0.06	618006	keystroke_e	e	n/a
309.152	0.075	618304	keystroke_Key.enter	Key.enter	n/a
309.232	7.723	618464	prompt	n/a	wake residents briefing gotten\n
310.9085	0.089	621817	keystroke_w	w	n/a
310.923	0.1195	621846	keystroke_a	a	n/a
311.1185	0.0895	622237	keystroke_k	k	n/a
311.3285	0.0745	622657	keystroke_e	e	n/a
311.4635	0.059	622927	keystroke_Key.space	Key.space	n/a
311.6735	0.1195	623347	keystroke_r	r	n/a
311.748	0.09	623496	keystroke_e	e	n/a
311.868	0.09	623736	keystroke_s	s	n/a
311.988	0.06	623976	keystroke_i	i	n/a
312.078	0.1205	624156	keystroke_d	d	n/a
312.1535	0.059	624307	keystroke_e	e	n/a
312.288	0.0445	624576	keystroke_n	n	n/a
312.3925	0.061	624785	keystroke_t	t	n/a
312.6635	0.105	625327	keystroke_s	s	n/a
312.888	0.0445	625776	keystroke_Key.space	Key.space	n/a
313.203	0.06	626406	keystroke_b	b	n/a
313.382	0.061	626764	keystroke_r	r	n/a
313.5025	0.06	627005	keystroke_i	i	n/a
313.5775	0.1505	627155	keystroke_d	d	n/a
314.0875	0.0305	628175	keystroke_Key.backspace	Key.backspace	n/a
314.239	0.074	628478	keystroke_e	e	n/a
314.388	0.075	628776	keystroke_f	f	n/a
314.523	0.076	629046	keystroke_i	i	n/a
314.583	0.075	629166	keystroke_n	n	n/a
314.7485	0.0445	629497	keystroke_g	g	n/a
314.928	0.0605	629856	keystroke_Key.space	Key.space	n/a
315.1085	0.06	630217	keystroke_g	g	n/a
315.1995	0.059	630399	keystroke_o	o	n/a
315.3335	0.03	630667	keystroke_g	g	n/a
315.4985	0.105	630997	keystroke_t	t	n/a
315.6185	0.075	631237	keystroke_e	e	n/a
315.933	0.0295	631866	keystroke_Key.backspace	Key.backspace	n/a
316.0375	0.076	632075	keystroke_Key.backspace	Key.backspace	n/a
316.1725	0.076	632345	keystroke_Key.backspace	Key.backspace	n/a
316.3385	0.029	632677	keystroke_t	t	n/a
316.4425	0.121	632885	keystroke_t	t	n/a
316.5325	0.091	633065	keystroke_e	e	n/a
316.669	0.06	633338	keystroke_n	n	n/a
316.908	0.0445	633816	keystroke_Key.enter	Key.enter	n/a
316.9625	7.4775	633925	prompt	n/a	charitable submitted rankings modular\n
317.7175	0.0755	635435	keystroke_c	c	n/a
317.898	0.045	635796	keystroke_h	h	n/a
317.973	0.075	635946	keystroke_r	r	n/a
318.093	0.075	636186	keystroke_a	a	n/a
318.693	0.061	637386	keystroke_Key.backspace	Key.backspace	n/a
318.798	0.06	637596	keystroke_Key.backspace	Key.backspace	n/a
318.9185	0.0895	637837	keystroke_a	a	n/a
318.963	0.075	637926	keystroke_r	r	n/a
319.113	0.06	638226	keystroke_i	i	n/a
319.263	0.046	638526	keystroke_t	t	n/a
319.383	0.136	638766	keystroke_a	a	n/a
319.503	0.075	639006	keystroke_b	b	n/a
319.608	0.061	639216	keystroke_l	l	n/a
319.743	0.045	639486	keystroke_e	e	n/a
319.848	0.06	639696	keystroke_Key.space	Key.space	n/a
320.1785	0.044	640357	keystroke_s	s	n/a
320.2825	0.0455	640565	keystroke_u	u	n/a
320.4335	0.045	640867	keystroke_b	b	n/a
320.6135	0.075	641227	keystroke_i	i	n/a
321.168	0.0445	642336	keystroke_Key.backspace	Key.backspace	n/a
321.3925	0.09	642785	keystroke_m	m	n/a
321.438	0.0755	642876	keystroke_i	i	n/a
321.574	0.0585	643148	keystroke_t	t	n/a
321.708	0.12	643416	keystroke_t	t	n/a
321.813	0.1495	643626	keystroke_e	e	n/a
321.948	0.0905	643896	keystroke_d	d	n/a
322.053	0.045	644106	keystroke_Key.space	Key.space	n/a
322.2785	0.0745	644557	keystroke_r	r	n/a
322.429	0.119	644858	keystroke_a	a	n/a
322.608	0.09	645216	keystroke_n	n	n/a
322.683	0.075	645366	keystroke_k	k	n/a
322.878	0.105	645756	keystroke_i	i	n/a
322.953	0.045	645906	keystroke_n	n	n/a
323.0725	0.0905	646145	keystroke_g	g	n/a
323.178	0.075	646356	keystroke_s	s	n/a
323.282	0.061	646564	keystroke_Key.space	Key.space	n/a
323.538	0.105	647076	keystroke_m	m	n/a
323.627	0.076	647254	keystroke_o	o	n/a
323.7635	0.0745	647527	keystroke_d	d	n/a
323.943	0.03	647886	keystroke_u	u	n/a
324.018	0.06	648036	keystroke_l	l	n/a
324.168	0.09	648336	keystroke_a	a	n/a
324.243	0.045	648486	keystroke_r	r	n/a
324.377	0.061	648754	keystroke_Key.enter	Key.enter	n/a
324.444	7.21	648888	prompt	n/a	population chassis humanity gross\n
325.1425	0.016	650285	keystroke_p	p	n/a
325.548	0.015	651096	keystroke_p	p	n/a
325.998	0.06	651996	keystroke_Key.backspace	Key.backspace	n/a
326.209	0.1195	652418	keystroke_o	o	n/a
326.568	0.135	653136	keystroke_p	p	n/a
326.823	0.06	653646	keystroke_u	u	n/a
326.9435	0.075	653887	keystroke_l	l	n/a
327.078	0.1205	654156	keystroke_a	a	n/a
327.138	0.045	654276	keystroke_t	t	n/a
327.2135	0.1195	654427	keystroke_i	i	n/a
327.243	0.105	654486	keystroke_o	o	n/a
327.288	0.075	654576	keystroke_n	n	n/a
328.053	0.0895	656106	keystroke_Key.space	Key.space	n/a
328.3225	0.091	656645	keystroke_c	c	n/a
328.4435	0.029	656887	keystroke_h	h	n/a
328.533	0.0745	657066	keystroke_a	a	n/a
328.6985	0.074	657397	keystroke_s	s	n/a
328.863	0.0595	657726	keystroke_s	s	n/a
329.0275	0.0455	658055	keystroke_i	i	n/a
329.193	0.15	658386	keystroke_s	s	n/a
329.4025	0.075	658805	keystroke_Key.space	Key.space	n/a
329.7635	0.0445	659527	keystroke_h	h	n/a
329.898	0.0745	659796	keystroke_u	u	n/a
330.0925	0.0755	660185	keystroke_m	m	n/a
330.243	0.0755	660486	keystroke_a	a	n/a
330.378	0.105	660756	keystroke_n	n	n/a
330.453	0.105	660906	keystroke_i	i	n/a
330.588	0.0605	661176	keystroke_t	t	n/a
330.6935	0.0445	661387	keystroke_y	y	n/a
330.7835	0.044	661567	keystroke_Key.space	Key.space	n/a
330.948	0.0605	661896	keystroke_g	g	n/a
331.0675	0.1055	662135	keystroke_r	r	n/a
331.1875	0.0605	662375	keystroke_o	o	n/a
331.3085	0.074	662617	keystroke_s	s	n/a
331.4425	0.075	662885	keystroke_s	s	n/a
331.5925	0.06	663185	keystroke_Key.enter	Key.enter	n/a
331.661	7.8835	663322	prompt	n/a	blind stock stanford maldives\n
332.2385	0.12	664477	keystroke_b	b	n/a
332.3725	0.091	664745	keystroke_l	l	n/a
332.4175	0.135	664835	keystroke_i	i	n/a
332.5075	0.061	665015	keystroke_n	n	n/a
332.6275	0.076	665255	keystroke_d	d	n/a
332.7925	0.0605	665585	keystroke_Key.space	Key.space	n/a
333.0025	0.09	666005	keystroke_s	s	n/a
333.1385	0.06	666277	keystroke_t	t	n/a
333.228	0.0905	666456	keystroke_o	o	n/a
333.3635	0.0595	666727	keystroke_c	c	n/a
333.4375	0.076	666875	keystroke_k	k	n/a
333.5885	0.029	667177	keystroke_Key.space	Key.space	n/a
333.8885	0.105	667777	keystroke_s	s	n/a
333.948	0.0755	667896	keystroke_t	t	n/a
334.1285	0.1045	668257	keystroke_a	a	n/a
334.398	0.046	668796	keystroke_n	n	n/a
334.549	0.03	669098	keystroke_f	f	n/a
334.6985	0.074	669397	keystroke_r	r	n/a
334.7875	0.045	669575	keystroke_o	o	n/a
335.298	0.09	670596	keystroke_d	d	n/a
335.673	0.03	671346	keystroke_Key.backspace	Key.backspace	n/a
335.793	0.0295	671586	keystroke_Key.backspace	Key.backspace	n/a
335.8975	0.0595	671795	keystroke_Key.backspace	Key.backspace	n/a
336.048	0.015	672096	keystroke_r	r	n/a
336.1085	0.029	672217	keystroke_o	o	n/a
336.3485	0.0595	672697	keystroke_d	d	n/a
336.5735	0.03	673147	keystroke_Key.backspace	Key.backspace	n/a
336.7075	0.03	673415	keystroke_Key.backspace	Key.backspace	n/a
336.798	0.075	673596	keystroke_Key.backspace	Key.backspace	n/a
336.979	0.089	673958	keystroke_o	o	n/a
337.173	0.045	674346	keystroke_r	r	n/a
337.2935	0.0295	674587	keystroke_d	d	n/a
337.383	0.0595	674766	keystroke_Key.space	Key.space	n/a
337.7135	0.06	675427	keystroke_m	m	n/a
338.2085	0.1045	676417	keystroke_a	a	n/a
338.3275	0.091	676655	keystroke_l	l	n/a
338.4785	0.075	676957	keystroke_d	d	n/a
338.6875	0.045	677375	keystroke_i	i	n/a
338.958	0.1505	677916	keystroke_v	v	n/a
339.153	0.12	678306	keystroke_e	e	n/a
339.3635	0.059	678727	keystroke_s	s	n/a
339.4825	0.06	678965	keystroke_Key.enter	Key.enter	n/a
339.548	5.9665	679096	prompt	n/a	inquiries essentially defend wilson\n
340.4435	0.075	680887	keystroke_i	i	n/a
340.503	0.0605	681006	keystroke_n	n	n/a
340.5935	0.0895	681187	keystroke_q	q	n/a
340.7275	0.0755	681455	keystroke_u	u	n/a
340.7585	0.059	681517	keystroke_i	i	n/a
340.848	0.105	681696	keystroke_r	r	n/a
340.9225	0.091	681845	keystroke_e	e	n/a
341.1935	0.089	682387	keystroke_s	s	n/a
341.3885	0.0595	682777	keystroke_Key.space	Key.space	n/a
341.643	0.045	683286	keystroke_e	e	n/a
341.808	0.105	683616	keystroke_s	s	n/a
341.973	0.15	683946	keystroke_s	s	n/a
342.199	0.074	684398	keystroke_e	e	n/a
342.3485	0.06	684697	keystroke_n	n	n/a
342.5135	0.0455	685027	keystroke_t	t	n/a
342.6935	0.075	685387	keystroke_i	i	n/a
342.783	0.1055	685566	keystroke_a	a	n/a
342.9485	0.075	685897	keystroke_l	l	n/a
343.0985	0.119	686197	keystroke_l	l	n/a
343.1725	0.06	686345	keystroke_y	y	n/a
343.263	0.075	686526	keystroke_Key.space	Key.space	n/a
343.443	0.165	686886	keystroke_d	d	n/a
343.548	0.09	687096	keystroke_e	e	n/a
343.668	0.06	687336	keystroke_f	f	n/a
344.0425	0.0605	688085	keystroke_e	e	n/a
344.223	0.045	688446	keystroke_n	n	n/a
344.358	0.0755	688716	keystroke_d	d	n/a
344.493	0.06	688986	keystroke_Key.space	Key.space	n/a
344.733	0.06	689466	keystroke_w	w	n/a
344.853	0.06	689706	keystroke_i	i	n/a
344.958	0.075	689916	keystroke_l	l	n/a
345.108	0.045	690216	keystroke_s	s	n/a
345.168	0.106	690336	keystroke_o	o	n/a
345.243	0.0455	690486	keystroke_n	n	n/a
345.4375	0.0755	690875	keystroke_Key.enter	Key.enter	n/a
345.5225	6.3975	691045	prompt	n/a	awesome follows bedding sugar\n
346.0835	0.045	692167	keystroke_w	w	n/a
346.3985	0.045	692797	keystroke_Key.backspace	Key.backspace	n/a
346.459	0.1345	692918	keystroke_a	a	n/a
346.533	0.0455	693066	keystroke_w	w	n/a
346.6385	0.09	693277	keystroke_e	e	n/a
346.8035	0.0445	693607	keystroke_s	s	n/a
346.8635	0.0745	693727	keystroke_o	o	n/a
346.908	0.0455	693816	keystroke_m	m	n/a
346.968	0.075	693936	keystroke_e	e	n/a
347.5985	0.0745	695197	keystroke_Key.space	Key.space	n/a
347.7325	0.061	695465	keystroke_f	f	n/a
347.8375	0.061	695675	keystroke_o	o	n/a
348.018	0.0455	696036	keystroke_l	l	n/a
348.138	0.075	696276	keystroke_l	l	n/a
348.288	0.0595	696576	keystroke_o	o	n/a
348.378	0.0755	696756	keystroke_w	w	n/a
348.5285	0.105	697057	keystroke_s	s	n/a
348.6625	0.0755	697325	keystroke_Key.space	Key.space	n/a
348.9335	0.12	697867	keystroke_b	b	n/a
348.9935	0.075	697987	keystroke_e	e	n/a
349.158	0.0895	698316	keystroke_d	d	n/a
349.3225	0.09	698645	keystroke_d	d	n/a
349.4585	0.1045	698917	keystroke_i	i	n/a
349.5185	0.09	699037	keystroke_n	n	n/a
349.6385	0.045	699277	keystroke_g	g	n/a
349.6975	0.076	699395	keystroke_Key.space	Key.space	n/a
349.893	0.075	699786	keystroke_s	s	n/a
349.9985	0.0595	699997	keystroke_h	h	n/a
350.3125	0.06	700625	keystroke_Key.backspace	Key.backspace	n/a
350.508	0.0455	701016	keystroke_u	u	n/a
351.0335	0.075	702067	keystroke_g	g	n/a
351.2585	0.0745	702517	keystroke_a	a	n/a
351.3485	0.0435	702697	keystroke_r	r	n/a
351.842	0.0755	703684	keystroke_Key.enter	Key.enter	n/a
351.924	9.1005	703848	prompt	n/a	offerings productive permanent cottage\n
352.5335	0.09	705067	keystroke_o	o	n/a
352.6525	0.061	705305	keystroke_f	f	n/a
352.8035	0.12	705607	keystroke_f	f	n/a
352.8785	0.12	705757	keystroke_e	e	n/a
352.9685	0.075	705937	keystroke_r	r	n/a
353.0885	0.105	706177	keystroke_i	i	n/a
353.133	0.0755	706266	keystroke_n	n	n/a
353.2235	0.074	706447	keystroke_g	g	n/a
353.283	0.1045	706566	keystroke_s	s	n/a
353.4175	0.06	706835	keystroke_Key.space	Key.space	n/a
353.8535	0.09	707707	keystroke_p	p	n/a
354.063	0.06	708126	keystroke_o	o	n/a
354.768	0.029	709536	keystroke_Key.backspace	Key.backspace	n/a
355.008	0.09	710016	keystroke_r	r	n/a
355.0685	0.045	710137	keystroke_o	o	n/a
355.2935	0.0745	710587	keystroke_d	d	n/a
355.443	0.0305	710886	keystroke_u	u	n/a
355.518	0.06	711036	keystroke_c	c	n/a
355.998	0.045	711996	keystroke_t	t	n/a
356.088	0.0455	712176	keystroke_i	i	n/a
356.179	0.075	712358	keystroke_v	v	n/a
356.223	0.075	712446	keystroke_e	e	n/a
356.643	0.045	713286	keystroke_Key.space	Key.space	n/a
356.869	0.059	713738	keystroke_p	p	n/a
356.988	0.075	713976	keystroke_a	a	n/a
357.528	0.03	715056	keystroke_Key.backspace	Key.backspace	n/a
357.559	0.104	715118	keystroke_e	e	n/a
357.6185	0.1495	715237	keystroke_r	r	n/a
357.7985	0.0595	715597	keystroke_m	m	n/a
357.9185	0.1045	715837	keystroke_a	a	n/a
358.2785	0.06	716557	keystroke_e	e	n/a
358.2935	0.06	716587	keystroke_n	n	n/a
358.698	0.0595	717396	keystroke_Key.backspace	Key.backspace	n/a
358.8175	0.0755	717635	keystroke_Key.backspace	Key.backspace	n/a
358.9985	0.059	717997	keystroke_n	n	n/a
359.0875	0.061	718175	keystroke_e	e	n/a
359.1935	0.0745	718387	keystroke_n	n	n/a
359.3285	0.06	718657	keystroke_t	t	n/a
359.403	0.0455	718806	keystroke_Key.space	Key.space	n/a
359.5385	0.06	719077	keystroke_c	c	n/a
359.6135	0.074	719227	keystroke_o	o	n/a
359.763	0.0595	719526	keystroke_t	t	n/a
359.8685	0.074	719737	keystroke_a	a	n/a
360.259	0.044	720518	keystroke_Key.backspace	Key.backspace	n/a
360.364	0.074	720728	keystroke_t	t	n/a
360.4835	0.0755	720967	keystroke_a	a	n/a
360.5885	0.09	721177	keystroke_g	g	n/a
360.6935	0.059	721387	keystroke_e	e	n/a
360.9635	0.0595	721927	keystroke_Key.enter	Key.enter	n/a
361.031	7.5385	722062	prompt	n/a	annex improvements voip developing\n
361.7135	0.105	723427	keystroke_a	a	n/a
361.8475	0.0605	723695	keystroke_n	n	n/a
361.968	0.06	723936	keystroke_n	n	n/a
362.1035	0.06	724207	keystroke_e	e	n/a
362.283	0.075	724566	keystroke_x	x	n/a
362.418	0.061	724836	keystroke_Key.space	Key.space	n/a
362.6735	0.1345	725347	keystroke_i	i	n/a
362.809	0.104	725618	keystroke_m	m	n/a
362.898	0.09	725796	keystroke_p	p	n/a
363.123	0.045	726246	keystroke_r	r	n/a
363.169	0.089	726338	keystroke_o	o	n/a
363.303	0.1195	726606	keystroke_v	v	n/a
363.4235	0.179	726847	keystroke_e	e	n/a
363.618	0.119	727236	keystroke_m	m	n/a
363.7535	0.0585	727507	keystroke_n	n	n/a
363.858	0.06	727716	keystroke_t	t	n/a
364.1875	0.03	728375	keystroke_Key.backspace	Key.backspace	n/a
364.2775	0.0755	728555	keystroke_Key.backspace	Key.backspace	n/a
364.3535	0.074	728707	keystroke_e	e	n/a
364.4725	0.076	728945	keystroke_n	n	n/a
364.5635	0.0745	729127	keystroke_t	t	n/a
364.6085	0.09	729217	keystroke_s	s	n/a
364.758	0.0445	729516	keystroke_Key.space	Key.space	n/a
365.568	0.1045	731136	keystroke_v	v	n/a
365.703	0.1355	731406	keystroke_o	o	n/a
365.793	0.105	731586	keystroke_i	i	n/a
365.9425	0.046	731885	keystroke_l	l	n/a
366.677	0.06	733354	keystroke_Key.backspace	Key.backspace	n/a
366.873	0.075	733746	keystroke_p	p	n/a
367.143	0.06	734286	keystroke_Key.space	Key.space	n/a
367.278	0.136	734556	keystroke_d	d	n/a
367.3825	0.0905	734765	keystroke_e	e	n/a
367.4885	0.0895	734977	keystroke_v	v	n/a
367.593	0.06	735186	keystroke_e	e	n/a
367.638	0.046	735276	keystroke_l	l	n/a
367.8035	0.0895	735607	keystroke_o	o	n/a
367.893	0.106	735786	keystroke_p	p	n/a
368.1335	0.09	736267	keystroke_i	i	n/a
368.1785	0.075	736357	keystroke_n	n	n/a
368.2825	0.075	736565	keystroke_g	g	n/a
368.508	0.06	737016	keystroke_Key.enter	Key.enter	n/a
368.581	6.0335	737162	prompt	n/a	loaded radar office speech\n
369.3025	0.091	738605	keystroke_o	o	n/a
369.5885	0.029	739177	keystroke_Key.backspace	Key.backspace	n/a
369.783	0.0295	739566	keystroke_l	l	n/a
369.8885	0.09	739777	keystroke_o	o	n/a
369.9935	0.0895	739987	keystroke_a	a	n/a
370.0385	0.105	740077	keystroke_d	d	n/a
370.3235	0.134	740647	keystroke_e	e	n/a
370.4125	0.091	740825	keystroke_d	d	n/a
370.5475	0.075	741095	keystroke_Key.space	Key.space	n/a
370.8475	0.061	741695	keystroke_r	r	n/a
370.923	0.09	741846	keystroke_a	a	n/a
371.058	0.105	742116	keystroke_d	d	n/a
371.343	0.135	742686	keystroke_a	a	n/a
371.418	0.075	742836	keystroke_r	r	n/a
371.582	0.0615	743164	keystroke_Key.space	Key.space	n/a
372.063	0.06	744126	keystroke_o	o	n/a
372.198	0.059	744396	keystroke_f	f	n/a
372.334	0.074	744668	keystroke_f	f	n/a
372.438	0.06	744876	keystroke_i	i	n/a
372.513	0.075	745026	keystroke_c	c	n/a
372.573	0.0605	745146	keystroke_e	e	n/a
372.648	0.059	745296	keystroke_Key.space	Key.space	n/a
372.7835	0.104	745567	keystroke_s	s	n/a
372.9025	0.0605	745805	keystroke_p	p	n/a
372.993	0.1345	745986	keystroke_e	e	n/a
373.218	0.1055	746436	keystroke_e	e	n/a
373.3085	0.1195	746617	keystroke_c	c	n/a
373.5485	0.0445	747097	keystroke_Key.backspace	Key.backspace	n/a
373.6525	0.06	747305	keystroke_Key.backspace	Key.backspace	n/a
374.103	0.09	748206	keystroke_e	e	n/a
374.1485	0.0745	748297	keystroke_c	c	n/a
374.268	0.06	748536	keystroke_h	h	n/a
374.568	0.045	749136	keystroke_Key.enter	Key.enter	n/a
374.629	6.6605	749258	prompt	n/a	distinction films iran wrong\n
375.184	0.0595	750368	keystroke_d	d	n/a
375.258	0.09	750516	keystroke_i	i	n/a
375.393	0.105	750786	keystroke_s	s	n/a
375.513	0.0455	751026	keystroke_t	t	n/a
375.6635	0.075	751327	keystroke_i	i	n/a
375.694	0.074	751388	keystroke_n	n	n/a
376.008	0.075	752016	keystroke_c	c	n/a
376.1875	0.09	752375	keystroke_t	t	n/a
376.2625	0.106	752525	keystroke_i	i	n/a
376.2935	0.105	752587	keystroke_o	o	n/a
376.3235	0.0595	752647	keystroke_n	n	n/a
377.088	0.015	754176	keystroke_Key.space	Key.space	n/a
377.148	0.075	754296	keystroke_f	f	n/a
377.268	0.09	754536	keystroke_i	i	n/a
377.373	0.09	754746	keystroke_l	l	n/a
377.478	0.015	754956	keystroke_n	n	n/a
377.568	0.09	755136	keystroke_s	s	n/a
377.688	0.06	755376	keystroke_Key.space	Key.space	n/a
378.168	0.03	756336	keystroke_Key.backspace	Key.backspace	n/a
378.273	0.075	756546	keystroke_Key.backspace	Key.backspace	n/a
378.423	0.075	756846	keystroke_Key.backspace	Key.backspace	n/a
378.633	0.06	757266	keystroke_m	m	n/a
378.708	0.06	757416	keystroke_Key.space	Key.space	n/a
378.858	0.0455	757716	keystroke_s	s	n/a
379.0675	0.0605	758135	keystroke_Key.backspace	Key.backspace	n/a
379.218	0.0295	758436	keystroke_Key.backspace	Key.backspace	n/a
379.2335	0.105	758467	keystroke_s	s	n/a
379.383	0.0745	758766	keystroke_Key.space	Key.space	n/a
379.653	0.06	759306	keystroke_i	i	n/a
379.758	0.0755	759516	keystroke_r	r	n/a
379.848	0.0905	759696	keystroke_a	a	n/a
380.0275	0.045	760055	keystroke_n	n	n/a
380.177	0.046	760354	keystroke_Key.space	Key.space	n/a
380.268	0.1205	760536	keystroke_w	w	n/a
380.403	0.0445	760806	keystroke_r	r	n/a
380.463	0.105	760926	keystroke_o	o	n/a
380.5225	0.076	761045	keystroke_n	n	n/a
380.658	0.0905	761316	keystroke_g	g	n/a
381.228	0.0595	762456	keystroke_Key.enter	Key.enter	n/a
381.3025	6.152	762605	prompt	n/a	ethics relating regulations luxury\n
381.9175	0.0905	763835	keystroke_e	e	n/a
382.1135	0.0595	764227	keystroke_t	t	n/a
382.1735	0.0445	764347	keystroke_h	h	n/a
382.3535	0.1045	764707	keystroke_i	i	n/a
382.4735	0.0895	764947	keystroke_c	c	n/a
382.5335	0.0895	765067	keystroke_s	s	n/a
382.6675	0.0605	765335	keystroke_Key.space	Key.space	n/a
383.0725	0.09	766145	keystroke_r	r	n/a
383.1335	0.074	766267	keystroke_e	e	n/a
383.2225	0.045	766445	keystroke_l	l	n/a
383.3575	0.076	766715	keystroke_a	a	n/a
383.4035	0.075	766807	keystroke_t	t	n/a
383.6425	0.061	767285	keystroke_i	i	n/a
383.6575	0.06	767315	keystroke_n	n	n/a
383.748	0.06	767496	keystroke_g	g	n/a
383.853	0.075	767706	keystroke_Key.space	Key.space	n/a
384.1535	0.0895	768307	keystroke_r	r	n/a
384.1985	0.089	768397	keystroke_e	e	n/a
384.633	0.0755	769266	keystroke_g	g	n/a
384.7525	0.061	769505	keystroke_u	u	n/a
384.8285	0.06	769657	keystroke_l	l	n/a
384.9485	0.104	769897	keystroke_a	a	n/a
385.0085	0.0595	770017	keystroke_t	t	n/a
385.0825	0.1205	770165	keystroke_i	i	n/a
385.113	0.1345	770226	keystroke_o	o	n/a
385.1725	0.06	770345	keystroke_n	n	n/a
385.2175	0.091	770435	keystroke_s	s	n/a
385.368	0.0595	770736	keystroke_Key.space	Key.space	n/a
385.8935	0.089	771787	keystroke_l	l	n/a
386.028	0.075	772056	keystroke_u	u	n/a
386.6575	0.136	773315	keystroke_x	x	n/a
386.8235	0.06	773647	keystroke_u	u	n/a
387.0175	0.0605	774035	keystroke_r	r	n/a
387.1535	0.044	774307	keystroke_y	y	n/a
387.3925	0.0605	774785	keystroke_Key.enter	Key.enter	n/a
387.4595	9.4145	774919	prompt	n/a	violence whom'st yellow which's\n
388.1735	0.0745	776347	keystroke_v	v	n/a
388.263	0.09	776526	keystroke_i	i	n/a
388.3375	0.105	776675	keystroke_o	o	n/a
388.5025	0.106	777005	keystroke_l	l	n/a
388.653	0.0595	777306	keystroke_e	e	n/a
388.7735	0.0595	777547	keystroke_n	n	n/a
388.878	0.091	777756	keystroke_c	c	n/a
388.9535	0.105	777907	keystroke_e	e	n/a
389.1175	0.03	778235	keystroke_Key.space	Key.space	n/a
389.4925	0.09	778985	keystroke_w	w	n/a
389.6875	0.09	779375	keystroke_o	o	n/a
389.7625	0.06	779525	keystroke_n	n	n/a
390.1225	0.03	780245	keystroke_Key.backspace	Key.backspace	n/a
390.2735	0.075	780547	keystroke_m	m	n/a
390.6025	0.015	781205	keystroke_Key.backspace	Key.backspace	n/a
390.6925	0.0755	781385	keystroke_Key.backspace	Key.backspace	n/a
390.8885	0.075	781777	keystroke_h	h	n/a
390.9485	0.06	781897	keystroke_o	o	n/a
391.0535	0.09	782107	keystroke_m	m	n/a
391.2935	0.059	782587	keystroke_'	'	n/a
391.5635	0.1795	783127	keystroke_s	s	n/a
391.6835	0.06	783367	keystroke_t	t	n/a
391.7575	0.06	783515	keystroke_Key.space	Key.space	n/a
392.598	0.045	785196	keystroke_y	y	n/a
392.688	0.06	785376	keystroke_e	e	n/a
392.868	0.06	785736	keystroke_l	l	n/a
393.003	0.089	786006	keystroke_l	l	n/a
393.183	0.075	786366	keystroke_o	o	n/a
393.3025	0.0905	786605	keystroke_w	w	n/a
393.4075	0.06	786815	keystroke_Key.space	Key.space	n/a
394.0235	0.179	788047	keystroke_w	w	n/a
394.2635	0.374	788527	keystroke_i	i	n/a
394.6525	0.016	789305	keystroke_c	c	n/a
394.6685	0.014	789337	keystroke_h	h	n/a
394.938	0.0445	789876	keystroke_Key.backspace	Key.backspace	n/a
395.088	0.06	790176	keystroke_Key.backspace	Key.backspace	n/a
395.7025	0.045	791405	keystroke_Key.backspace	Key.backspace	n/a
395.9135	0.075	791827	keystroke_h	h	n/a
395.9735	0.06	791947	keystroke_i	i	n/a
396.0785	0.045	792157	keystroke_c	c	n/a
396.1525	0.0905	792305	keystroke_h	h	n/a
396.3785	0.045	792757	keystroke_'	'	n/a
396.4835	0.074	792967	keystroke_s	s	n/a
396.8125	0.0605	793625	keystroke_Key.enter	Key.enter	n/a
396.879	7.0905	793758	prompt	n/a	bizarre kelkoo main harrison\n
397.4885	0.074	794977	keystroke_b	b	n/a
397.5785	0.0595	795157	keystroke_i	i	n/a
398.103	0.09	796206	keystroke_z	z	n/a
398.298	0.12	796596	keystroke_a	a	n/a
398.6435	0.179	797287	keystroke_r	r	n/a
398.763	0.0295	797526	keystroke_e	e	n/a
399.153	0.045	798306	keystroke_Key.backspace	Key.backspace	n/a
399.213	0.12	798426	keystroke_r	r	n/a
399.288	0.091	798576	keystroke_e	e	n/a
399.423	0.06	798846	keystroke_Key.space	Key.space	n/a
399.843	0.075	799686	keystroke_k	k	n/a
400.053	0.0605	800106	keystroke_e	e	n/a
400.2035	0.059	800407	keystroke_l	l	n/a
400.5035	0.059	801007	keystroke_k	k	n/a
400.6825	0.0605	801365	keystroke_o	o	n/a
400.8335	0.09	801667	keystroke_o	o	n/a
400.953	0.0905	801906	keystroke_Key.space	Key.space	n/a
401.117	0.1055	802234	keystroke_m	m	n/a
401.268	0.1195	802536	keystroke_a	a	n/a
401.5385	0.12	803077	keystroke_i	i	n/a
401.5985	0.075	803197	keystroke_n	n	n/a
401.718	0.075	803436	keystroke_Key.space	Key.space	n/a
402.1375	0.061	804275	keystroke_h	h	n/a
402.3325	0.12	804665	keystroke_a	a	n/a
402.5125	0.061	805025	keystroke_r	r	n/a
402.648	0.0295	805296	keystroke_r	r	n/a
403.3075	0.075	806615	keystroke_i	i	n/a
403.4125	0.1205	806825	keystroke_s	s	n/a
403.5485	0.1045	807097	keystroke_o	o	n/a
403.608	0.075	807216	keystroke_n	n	n/a
403.9225	0.045	807845	keystroke_Key.enter	Key.enter	n/a
403.975	7.6745	807950	prompt	n/a	rabbit licensing located how'll\n
404.6285	0.0605	809257	keystroke_r	r	n/a
404.718	0.1055	809436	keystroke_a	a	n/a
404.913	0.09	809826	keystroke_b	b	n/a
405.108	0.105	810216	keystroke_b	b	n/a
405.273	0.06	810546	keystroke_i	i	n/a
405.348	0.09	810696	keystroke_t	t	n/a
405.4975	0.0605	810995	keystroke_Key.space	Key.space	n/a
405.693	0.0895	811386	keystroke_l	l	n/a
405.903	0.06	811806	keystroke_i	i	n/a
405.993	0.12	811986	keystroke_c	c	n/a
406.173	0.105	812346	keystroke_e	e	n/a
406.428	0.045	812856	keystroke_n	n	n/a
406.608	0.09	813216	keystroke_s	s	n/a
406.773	0.045	813546	keystroke_e	e	n/a
406.893	0.06	813786	keystroke_i	i	n/a
406.923	0.0455	813846	keystroke_n	n	n/a
407.2375	0.045	814475	keystroke_Key.backspace	Key.backspace	n/a
407.357	0.061	814714	keystroke_Key.backspace	Key.backspace	n/a
407.477	0.076	814954	keystroke_Key.backspace	Key.backspace	n/a
407.6725	0.091	815345	keystroke_i	i	n/a
407.7175	0.061	815435	keystroke_n	n	n/a
407.7935	0.074	815587	keystroke_g	g	n/a
407.883	0.075	815766	keystroke_Key.space	Key.space	n/a
408.2585	0.075	816517	keystroke_l	l	n/a
408.4535	0.0745	816907	keystroke_o	o	n/a
408.5875	0.09	817175	keystroke_c	c	n/a
408.6625	0.106	817325	keystroke_a	a	n/a
408.8135	0.03	817627	keystroke_t	t	n/a
408.8585	0.1795	817717	keystroke_e	e	n/a
409.008	0.06	818016	keystroke_d	d	n/a
409.083	0.06	818166	keystroke_Key.space	Key.space	n/a
409.3525	0.046	818705	keystroke_h	h	n/a
409.3835	0.09	818767	keystroke_o	o	n/a
410.028	0.06	820056	keystroke_'	'	n/a
410.298	0.045	820596	keystroke_Key.backspace	Key.backspace	n/a
410.373	0.075	820746	keystroke_w	w	n/a
410.538	0.03	821076	keystroke_'	'	n/a
410.823	0.0145	821646	keystroke_l	l	n/a
410.9135	0.105	821827	keystroke_l	l	n/a
411.573	0.075	823146	keystroke_Key.enter	Key.enter	n/a
411.656	8.889	823312	prompt	n/a	discovered admissions separation trio\n
412.4725	0.061	824945	keystroke_d	d	n/a
412.6075	0.076	825215	keystroke_i	i	n/a
412.6685	0.134	825337	keystroke_s	s	n/a
412.7575	0.09	825515	keystroke_c	c	n/a
412.863	0.0905	825726	keystroke_o	o	n/a
413.0435	0.045	826087	keystroke_r	r	n/a
413.2385	0.135	826477	keystroke_v	v	n/a
413.3585	0.059	826717	keystroke_e	e	n/a
413.5825	0.0455	827165	keystroke_Key.backspace	Key.backspace	n/a
413.6875	0.0755	827375	keystroke_Key.backspace	Key.backspace	n/a
413.8075	0.075	827615	keystroke_Key.backspace	Key.backspace	n/a
413.9275	0.121	827855	keystroke_v	v	n/a
414.003	0.135	828006	keystroke_e	e	n/a
414.108	0.15	828216	keystroke_r	r	n/a
414.228	0.135	828456	keystroke_e	e	n/a
