onset	duration	sample	value	key	prompt_text
94.97	0.119	189940	keystroke_m	m	n/a
95.0885	0.1415	190177	keystroke_i	i	n/a
95.198	0.1105	190396	keystroke_n	n	n/a
95.3315	0.079	190663	keystroke_a	a	n/a
95.4275	0.1655	190855	keystroke_f	f	n/a
95.5055	0.1095	191011	keystroke_a	a	n/a
95.785	0.165	191570	keystroke_m	m	n/a
95.872	0.078	191744	keystroke_i	i	n/a
96.16	0.0715	192320	keystroke_Key.backspace	Key.backspace	n/a
96.311	0.079	192622	keystroke_Key.backspace	Key.backspace	n/a
96.4905	0.078	192981	keystroke_h	h	n/a
96.7515	0.1035	193503	keystroke_i	i	n/a
97.173	0.0865	194346	keystroke_Key.backspace	Key.backspace	n/a
97.3515	0.1665	194703	keystroke_m	m	n/a
97.4395	0.11	194879	keystroke_i	i	n/a
97.631	0.1185	195262	keystroke_Key.tab	Key.tab	n/a
98.4145	0.087	196829	keystroke_Key.down	Key.down	n/a
98.9315	0.0865	197863	keystroke_Key.down	Key.down	n/a
100.259	0.1095	200518	keystroke_Key.up	Key.up	n/a
100.658	0.1345	201316	keystroke_Key.down	Key.down	n/a
101.3095	0.0785	202619	keystroke_Key.tab	Key.tab	n/a
103.361	0.109	206722	keystroke_o	o	n/a
103.4385	0.102	206877	keystroke_n	n	n/a
103.71	0.3645	207420	keystroke_Key.shift_r	Key.shift_r	n/a
103.865	0.1275	207730	keystroke__	_	n/a
104.276	0.127	208552	keystroke_k	k	n/a
104.51	0.127	209020	keystroke_e	e	n/a
104.6955	0.055	209391	keystroke_y	y	n/a
104.878	0.1045	209756	keystroke_b	b	n/a
104.9815	0.095	209963	keystroke_o	o	n/a
105.099	0.135	210198	keystroke_a	a	n/a
105.233	0.064	210466	keystroke_r	r	n/a
105.3835	0.126	210767	keystroke_d	d	n/a
105.4575	0.094	210915	keystroke_Key.space	Key.space	n/a
105.6295	0.1265	211259	keystroke_p	p	n/a
105.8045	0.103	211609	keystroke_r	r	n/a
106.004	0.1185	212008	keystroke_o	o	n/a
106.1225	0.085	212245	keystroke_t	t	n/a
106.4005	0.0865	212801	keystroke_c	c	n/a
106.923	0.079	213846	keystroke_Key.backspace	Key.backspace	n/a
107.17	0.1015	214340	keystroke_o	o	n/a
107.2465	0.133	214493	keystroke_c	c	n/a
107.3595	0.077	214719	keystroke_o	o	n/a
107.5225	0.1425	215045	keystroke_l	l	n/a
107.6645	0.088	215329	keystroke_Key.space	Key.space	n/a
108.4015	0.047	216803	keystroke_6	6	n/a
108.5515	0.1265	217103	keystroke_.	.	n/a
108.8395	0.103	217679	keystroke_3	3	n/a
113.761	8.64	227522	prompt	n/a	the quick brown fox jumps over a lazy dog\n
116.219	0.059	232438	keystroke_t	t	n/a
116.2625	0.09	232525	keystroke_h	h	n/a
116.3525	0.1045	232705	keystroke_e	e	n/a
116.487	0.076	232974	keystroke_Key.space	Key.space	n/a
116.608	0.059	233216	keystroke_q	q	n/a
116.698	0.0895	233396	keystroke_u	u	n/a
116.9225	0.105	233845	keystroke_i	i	n/a
117.0125	0.1205	234025	keystroke_c	c	n/a
117.148	0.15	234296	keystroke_k	k	n/a
117.312	0.0905	234624	keystroke_Key.space	Key.space	n/a
117.4775	0.075	234955	keystroke_b	b	n/a
117.6575	0.09	235315	keystroke_r	r	n/a
117.7625	0.12	235525	keystroke_o	o	n/a
117.8675	0.075	235735	keystroke_w	w	n/a
118.0175	0.1045	236035	keystroke_n	n	n/a
118.2125	0.1045	236425	keystroke_Key.space	Key.space	n/a
118.287	0.12	236574	keystroke_f	f	n/a
118.4675	0.0895	236935	keystroke_o	o	n/a
118.602	0.135	237204	keystroke_x	x	n/a
118.722	0.105	237444	keystroke_Key.space	Key.space	n/a
118.917	0.105	237834	keystroke_j	j	n/a
119.127	0.075	238254	keystroke_u	u	n/a
119.352	0.105	238704	keystroke_m	m	n/a
119.5325	0.105	239065	keystroke_p	p	n/a
119.742	0.046	239484	keystroke_s	s	n/a
119.832	0.0605	239664	keystroke_Key.space	Key.space	n/a
120.0575	0.12	240115	keystroke_o	o	n/a
120.1625	0.09	240325	keystroke_v	v	n/a
120.387	0.06	240774	keystroke_e	e	n/a
120.582	0.1055	241164	keystroke_r	r	n/a
120.7475	0.09	241495	keystroke_Key.space	Key.space	n/a
120.8675	0.105	241735	keystroke_a	a	n/a
121.0025	0.075	242005	keystroke_Key.space	Key.space	n/a
121.1975	0.12	242395	keystroke_l	l	n/a
121.273	0.1045	242546	keystroke_a	a	n/a
121.4975	0.09	242995	keystroke_z	z	n/a
121.6025	0.075	243205	keystroke_y	y	n/a
121.7675	0.09	243535	keystroke_Key.space	Key.space	n/a
121.8725	0.15	243745	keystroke_d	d	n/a
122.0075	0.075	244015	keystroke_o	o	n/a
122.1425	0.09	244285	keystroke_g	g	n/a
122.3225	0.075	244645	keystroke_Key.enter	Key.enter	n/a
122.408	8.077	244816	prompt	n/a	cancellation characterization science sofa\n
123.1485	0.119	246297	keystroke_c	c	n/a
123.3125	0.105	246625	keystroke_a	a	n/a
123.522	0.1055	247044	keystroke_n	n	n/a
123.6425	0.105	247285	keystroke_c	c	n/a
123.867	0.0755	247734	keystroke_e	e	n/a
123.987	0.09	247974	keystroke_l	l	n/a
124.182	0.12	248364	keystroke_l	l	n/a
124.317	0.105	248634	keystroke_a	a	n/a
124.4975	0.0895	248995	keystroke_t	t	n/a
124.647	0.1205	249294	keystroke_i	i	n/a
124.873	0.0745	249746	keystroke_o	o	n/a
125.0525	0.075	250105	keystroke_n	n	n/a
125.2325	0.06	250465	keystroke_Key.space	Key.space	n/a
125.3825	0.135	250765	keystroke_c	c	n/a
125.5625	0.105	251125	keystroke_h	h	n/a
125.6825	0.105	251365	keystroke_a	a	n/a
125.9825	0.015	251965	keystroke_r	r	n/a
126.013	0.089	252026	keystroke_a	a	n/a
126.193	0.1195	252386	keystroke_c	c	n/a
126.448	0.0895	252896	keystroke_t	t	n/a
126.6425	0.09	253285	keystroke_e	e	n/a
126.7925	0.12	253585	keystroke_r	r	n/a
126.928	0.1195	253856	keystroke_i	i	n/a
127.0475	0.1055	254095	keystroke_z	z	n/a
127.272	0.12	254544	keystroke_a	a	n/a
127.452	0.09	254904	keystroke_t	t	n/a
127.602	0.105	255204	keystroke_i	i	n/a
127.827	0.075	255654	keystroke_o	o	n/a
128.0225	0.0745	256045	keystroke_n	n	n/a
128.2025	0.06	256405	keystroke_Key.space	Key.space	n/a
128.3225	0.105	256645	keystroke_s	s	n/a
128.5025	0.1345	257005	keystroke_c	c	n/a
128.652	0.09	257304	keystroke_i	i	n/a
128.7725	0.0895	257545	keystroke_e	e	n/a
128.907	0.105	257814	keystroke_n	n	n/a
129.1325	0.105	258265	keystroke_c	c	n/a
129.3725	0.0895	258745	keystroke_e	e	n/a
129.522	0.105	259044	keystroke_Key.space	Key.space	n/a
129.7475	0.12	259495	keystroke_s	s	n/a
129.9275	0.105	259855	keystroke_o	o	n/a
130.0475	0.0895	260095	keystroke_f	f	n/a
130.242	0.09	260484	keystroke_a	a	n/a
130.407	0.076	260814	keystroke_Key.enter	Key.enter	n/a
130.4915	5.9175	260983	prompt	n/a	colin bulletin cars refine\n
131.157	0.121	262314	keystroke_c	c	n/a
131.307	0.105	262614	keystroke_o	o	n/a
131.562	0.09	263124	keystroke_l	l	n/a
131.7725	0.0755	263545	keystroke_i	i	n/a
131.983	0.119	263966	keystroke_n	n	n/a
132.207	0.09	264414	keystroke_Key.space	Key.space	n/a
132.447	0.1055	264894	keystroke_b	b	n/a
132.5675	0.1055	265135	keystroke_u	u	n/a
132.807	0.091	265614	keystroke_l	l	n/a
133.003	0.1195	266006	keystroke_l	l	n/a
133.1675	0.09	266335	keystroke_e	e	n/a
133.3925	0.09	266785	keystroke_t	t	n/a
133.5125	0.105	267025	keystroke_i	i	n/a
133.7225	0.09	267445	keystroke_n	n	n/a
133.872	0.135	267744	keystroke_Key.space	Key.space	n/a
134.037	0.15	268074	keystroke_c	c	n/a
134.277	0.105	268554	keystroke_a	a	n/a
134.487	0.0755	268974	keystroke_r	r	n/a
134.652	0.0755	269304	keystroke_s	s	n/a
134.7875	0.105	269575	keystroke_Key.space	Key.space	n/a
135.117	0.06	270234	keystroke_r	r	n/a
135.312	0.0755	270624	keystroke_e	e	n/a
135.5225	0.075	271045	keystroke_f	f	n/a
135.6725	0.09	271345	keystroke_i	i	n/a
135.8675	0.1205	271735	keystroke_n	n	n/a
136.092	0.075	272184	keystroke_e	e	n/a
136.3165	0.091	272633	keystroke_Key.enter	Key.enter	n/a
136.4135	7.9305	272827	prompt	n/a	cumulative went constitutes rebecca\n
137.097	0.1355	274194	keystroke_c	c	n/a
137.2925	0.09	274585	keystroke_u	u	n/a
137.5475	0.09	275095	keystroke_m	m	n/a
137.7875	0.075	275575	keystroke_u	u	n/a
137.9975	0.12	275995	keystroke_l	l	n/a
138.1325	0.105	276265	keystroke_a	a	n/a
138.358	0.059	276716	keystroke_t	t	n/a
138.492	0.1205	276984	keystroke_i	i	n/a
138.6275	0.0895	277255	keystroke_v	v	n/a
138.8375	0.0745	277675	keystroke_e	e	n/a
138.9875	0.09	277975	keystroke_Key.space	Key.space	n/a
139.092	0.1205	278184	keystroke_w	w	n/a
139.317	0.105	278634	keystroke_e	e	n/a
139.527	0.105	279054	keystroke_n	n	n/a
139.797	0.075	279594	keystroke_t	t	n/a
139.9325	0.105	279865	keystroke_Key.space	Key.space	n/a
140.1425	0.12	280285	keystroke_c	c	n/a
140.3375	0.135	280675	keystroke_o	o	n/a
140.5915	0.106	281183	keystroke_n	n	n/a
140.7575	0.12	281515	keystroke_s	s	n/a
141.027	0.0905	282054	keystroke_t	t	n/a
141.2075	0.135	282415	keystroke_i	i	n/a
141.4925	0.09	282985	keystroke_t	t	n/a
141.6125	0.135	283225	keystroke_u	u	n/a
141.8515	0.0905	283703	keystroke_t	t	n/a
142.032	0.075	284064	keystroke_e	e	n/a
142.2275	0.09	284455	keystroke_s	s	n/a
142.4365	0.061	284873	keystroke_Key.space	Key.space	n/a
142.5415	0.121	285083	keystroke_r	r	n/a
142.7225	0.105	285445	keystroke_e	e	n/a
143.0075	0.09	286015	keystroke_b	b	n/a
143.397	0.0905	286794	keystroke_e	e	n/a
143.5775	0.105	287155	keystroke_c	c	n/a
143.7875	0.09	287575	keystroke_c	c	n/a
144.0125	0.0895	288025	keystroke_a	a	n/a
144.252	0.09	288504	keystroke_Key.enter	Key.enter	n/a
144.35	8.019	288700	prompt	n/a	friendly binding gradually snapshot\n
145.017	0.1045	290034	keystroke_f	f	n/a
145.2275	0.0895	290455	keystroke_r	r	n/a
145.392	0.105	290784	keystroke_i	i	n/a
145.512	0.0755	291024	keystroke_e	e	n/a
145.662	0.12	291324	keystroke_n	n	n/a
145.872	0.12	291744	keystroke_d	d	n/a
146.0975	0.12	292195	keystroke_l	l	n/a
146.3675	0.1045	292735	keystroke_y	y	n/a
146.562	0.105	293124	keystroke_Key.space	Key.space	n/a
146.8915	0.09	293783	keystroke_b	b	n/a
147.0715	0.12	294143	keystroke_i	i	n/a
147.3115	0.105	294623	keystroke_n	n	n/a
147.4915	0.1355	294983	keystroke_d	d	n/a
147.6715	0.1065	295343	keystroke_i	i	n/a
147.8815	0.105	295763	keystroke_n	n	n/a
148.0475	0.105	296095	keystroke_g	g	n/a
148.2415	0.06	296483	keystroke_Key.space	Key.space	n/a
148.4215	0.075	296843	keystroke_g	g	n/a
148.6625	0.044	297325	keystroke_r	r	n/a
148.7665	0.12	297533	keystroke_a	a	n/a
149.1125	0.134	298225	keystroke_d	d	n/a
149.3375	0.1045	298675	keystroke_u	u	n/a
149.5625	0.09	299125	keystroke_a	a	n/a
149.7875	0.045	299575	keystroke_l	l	n/a
149.9815	0.09	299963	keystroke_l	l	n/a
150.207	0.105	300414	keystroke_y	y	n/a
150.4315	0.06	300863	keystroke_Key.space	Key.space	n/a
150.717	0.12	301434	keystroke_s	s	n/a
150.912	0.075	301824	keystroke_n	n	n/a
151.017	0.09	302034	keystroke_a	a	n/a
151.227	0.105	302454	keystroke_p	p	n/a
151.437	0.105	302874	keystroke_s	s	n/a
151.632	0.105	303264	keystroke_h	h	n/a
151.872	0.12	303744	keystroke_o	o	n/a
152.0975	0.075	304195	keystroke_t	t	n/a
152.307	0.06	304614	keystroke_Key.enter	Key.enter	n/a
152.3755	5.8735	304751	prompt	n/a	cork most babies family\n
153.072	0.135	306144	keystroke_c	c	n/a
153.222	0.12	306444	keystroke_o	o	n/a
153.477	0.0745	306954	keystroke_r	r	n/a
153.6565	0.105	307313	keystroke_k	k	n/a
153.8665	0.09	307733	keystroke_Key.space	Key.space	n/a
154.1375	0.075	308275	keystroke_m	m	n/a
154.362	0.105	308724	keystroke_o	o	n/a
154.5125	0.135	309025	keystroke_s	s	n/a
154.7975	0.075	309595	keystroke_t	t	n/a
154.9925	0.0895	309985	keystroke_Key.space	Key.space	n/a
155.247	0.105	310494	keystroke_b	b	n/a
155.487	0.105	310974	keystroke_a	a	n/a
155.712	0.075	311424	keystroke_b	b	n/a
155.952	0.12	311904	keystroke_i	i	n/a
156.117	0.045	312234	keystroke_e	e	n/a
156.2965	0.09	312593	keystroke_s	s	n/a
156.4765	0.105	312953	keystroke_Key.space	Key.space	n/a
156.8215	0.0755	313643	keystroke_f	f	n/a
157.017	0.075	314034	keystroke_a	a	n/a
157.227	0.09	314454	keystroke_m	m	n/a
157.452	0.09	314904	keystroke_i	i	n/a
157.677	0.09	315354	keystroke_l	l	n/a
157.947	0.0905	315894	keystroke_y	y	n/a
158.1725	0.075	316345	keystroke_Key.enter	Key.enter	n/a
158.2565	6.173	316513	prompt	n/a	ruling bunch i'll forever\n
158.922	0.0905	317844	keystroke_r	r	n/a
159.102	0.105	318204	keystroke_u	u	n/a
159.3575	0.075	318715	keystroke_l	l	n/a
159.582	0.075	319164	keystroke_i	i	n/a
159.777	0.09	319554	keystroke_n	n	n/a
159.972	0.12	319944	keystroke_g	g	n/a
160.122	0.075	320244	keystroke_Key.space	Key.space	n/a
160.4675	0.09	320935	keystroke_b	b	n/a
160.6475	0.089	321295	keystroke_u	u	n/a
160.8715	0.105	321743	keystroke_n	n	n/a
161.037	0.12	322074	keystroke_c	c	n/a
161.202	0.105	322404	keystroke_h	h	n/a
161.412	0.0755	322824	keystroke_Key.space	Key.space	n/a
161.682	0.1045	323364	keystroke_i	i	n/a
161.9975	0.1045	323995	keystroke_'	'	n/a
162.282	0.0895	324564	keystroke_l	l	n/a
162.522	0.1045	325044	keystroke_l	l	n/a
162.7015	0.09	325403	keystroke_Key.space	Key.space	n/a
162.957	0.1195	325914	keystroke_f	f	n/a
163.0915	0.09	326183	keystroke_o	o	n/a
163.2565	0.09	326513	keystroke_r	r	n/a
163.4365	0.105	326873	keystroke_e	e	n/a
163.662	0.1345	327324	keystroke_v	v	n/a
163.9165	0.091	327833	keystroke_e	e	n/a
164.1265	0.0755	328253	keystroke_r	r	n/a
164.352	0.0745	328704	keystroke_Key.enter	Key.enter	n/a
164.4335	8.4555	328867	prompt	n/a	observe determine jamaica machinery\n
165.282	0.105	330564	keystroke_o	o	n/a
165.477	0.1045	330954	keystroke_b	b	n/a
165.732	0.105	331464	keystroke_s	s	n/a
166.002	0.105	332004	keystroke_e	e	n/a
166.212	0.1055	332424	keystroke_r	r	n/a
166.4975	0.089	332995	keystroke_v	v	n/a
166.7215	0.075	333443	keystroke_e	e	n/a
166.857	0.1045	333714	keystroke_Key.space	Key.space	n/a
167.0065	0.0905	334013	keystroke_d	d	n/a
167.2175	0.1195	334435	keystroke_e	e	n/a
167.472	0.0905	334944	keystroke_t	t	n/a
167.6965	0.1355	335393	keystroke_e	e	n/a
167.907	0.105	335814	keystroke_r	r	n/a
168.1625	0.06	336325	keystroke_m	m	n/a
168.537	0.075	337074	keystroke_i	i	n/a
168.747	0.12	337494	keystroke_n	n	n/a
168.972	0.12	337944	keystroke_e	e	n/a
169.152	0.0745	338304	keystroke_Key.space	Key.space	n/a
169.4225	0.1195	338845	keystroke_j	j	n/a
169.617	0.09	339234	keystroke_a	a	n/a
169.827	0.105	339654	keystroke_m	m	n/a
169.977	0.09	339954	keystroke_a	a	n/a
170.2015	0.136	340403	keystroke_i	i	n/a
170.3975	0.119	340795	keystroke_c	c	n/a
170.607	0.12	341214	keystroke_a	a	n/a
170.832	0.09	341664	keystroke_Key.space	Key.space	n/a
171.057	0.135	342114	keystroke_m	m	n/a
171.177	0.15	342354	keystroke_a	a	n/a
171.432	0.135	342864	keystroke_c	c	n/a
171.612	0.135	343224	keystroke_h	h	n/a
171.852	0.09	343704	keystroke_i	i	n/a
172.047	0.09	344094	keystroke_n	n	n/a
172.1975	0.1045	344395	keystroke_e	e	n/a
172.407	0.105	344814	keystroke_r	r	n/a
172.557	0.12	345114	keystroke_y	y	n/a
172.8115	0.0755	345623	keystroke_Key.enter	Key.enter	n/a
172.8935	9.4445	345787	prompt	n/a	advertise keyword metallic clouds\n
173.6515	0.12	347303	keystroke_a	a	n/a
173.8915	0.121	347783	keystroke_d	d	n/a
174.1625	0.12	348325	keystroke_v	v	n/a
174.4015	0.105	348803	keystroke_e	e	n/a
174.5815	0.1055	349163	keystroke_r	r	n/a
174.792	0.0895	349584	keystroke_t	t	n/a
175.002	0.12	350004	keystroke_i	i	n/a
175.137	0.105	350274	keystroke_s	s	n/a
175.377	0.0895	350754	keystroke_e	e	n/a
175.527	0.09	351054	keystroke_Key.space	Key.space	n/a
175.737	0.12	351474	keystroke_k	k	n/a
175.932	0.105	351864	keystroke_e	e	n/a
176.067	0.1055	352134	keystroke_y	y	n/a
176.322	0.1345	352644	keystroke_d	d	n/a
176.4715	0.106	352943	keystroke_o	o	n/a
176.8315	0.09	353663	keystroke_Key.backspace	Key.backspace	n/a
177.0425	0.075	354085	keystroke_Key.backspace	Key.backspace	n/a
177.2075	0.12	354415	keystroke_w	w	n/a
177.3725	0.105	354745	keystroke_o	o	n/a
177.5825	0.075	355165	keystroke_r	r	n/a
177.927	0.119	355854	keystroke_d	d	n/a
178.1215	0.0905	356243	keystroke_Key.space	Key.space	n/a
178.377	0.12	356754	keystroke_m	m	n/a
178.572	0.12	357144	keystroke_e	e	n/a
178.7815	0.135	357563	keystroke_t	t	n/a
178.9615	0.09	357923	keystroke_a	a	n/a
179.172	0.0745	358344	keystroke_l	l	n/a
179.382	0.1195	358764	keystroke_l	l	n/a
179.6215	0.105	359243	keystroke_i	i	n/a
179.8465	0.15	359693	keystroke_c	c	n/a
179.9975	0.1195	359995	keystroke_Key.space	Key.space	n/a
180.3865	0.1055	360773	keystroke_l	l	n/a
180.717	0.075	361434	keystroke_Key.backspace	Key.backspace	n/a
180.897	0.1345	361794	keystroke_c	c	n/a
181.122	0.1195	362244	keystroke_l	l	n/a
181.377	0.1045	362754	keystroke_o	o	n/a
181.632	0.1195	363264	keystroke_u	u	n/a
181.842	0.0895	363684	keystroke_d	d	n/a
182.0365	0.0905	364073	keystroke_s	s	n/a
182.276	0.061	364552	keystroke_Key.enter	Key.enter	n/a
182.343	7.406	364686	prompt	n/a	institution roman continuing like\n
183.012	0.075	366024	keystroke_i	i	n/a
183.2065	0.091	366413	keystroke_n	n	n/a
183.2975	0.1495	366595	keystroke_s	s	n/a
183.6415	0.105	367283	keystroke_t	t	n/a
183.807	0.119	367614	keystroke_i	i	n/a
184.137	0.105	368274	keystroke_t	t	n/a
184.3615	0.0905	368723	keystroke_u	u	n/a
184.557	0.09	369114	keystroke_t	t	n/a
184.7515	0.12	369503	keystroke_i	i	n/a
184.9765	0.105	369953	keystroke_o	o	n/a
185.2165	0.0755	370433	keystroke_n	n	n/a
185.427	0.075	370854	keystroke_Key.space	Key.space	n/a
185.592	0.105	371184	keystroke_r	r	n/a
185.712	0.09	371424	keystroke_o	o	n/a
185.922	0.1195	371844	keystroke_m	m	n/a
186.1165	0.09	372233	keystroke_a	a	n/a
186.327	0.09	372654	keystroke_n	n	n/a
186.537	0.1045	373074	keystroke_Key.space	Key.space	n/a
186.747	0.119	373494	keystroke_c	c	n/a
186.9265	0.105	373853	keystroke_o	o	n/a
187.1365	0.105	374273	keystroke_n	n	n/a
187.3615	0.09	374723	keystroke_t	t	n/a
187.4965	0.105	374993	keystroke_i	i	n/a
187.677	0.105	375354	keystroke_n	n	n/a
187.932	0.105	375864	keystroke_u	u	n/a
188.156	0.1065	376312	keystroke_i	i	n/a
188.366	0.1055	376732	keystroke_n	n	n/a
188.5615	0.1205	377123	keystroke_g	g	n/a
188.682	0.1045	377364	keystroke_Key.space	Key.space	n/a
188.907	0.12	377814	keystroke_l	l	n/a
189.1315	0.0905	378263	keystroke_i	i	n/a
189.3265	0.1505	378653	keystroke_k	k	n/a
189.462	0.075	378924	keystroke_e	e	n/a
189.672	0.075	379344	keystroke_Key.enter	Key.enter	n/a
189.753	10.5555	379506	prompt	n/a	defendant descending mongolia advertisers\n
190.436	0.106	380872	keystroke_d	d	n/a
190.6765	0.1345	381353	keystroke_e	e	n/a
190.9765	0.106	381953	keystroke_f	f	n/a
191.2015	0.105	382403	keystroke_e	e	n/a
191.4725	0.119	382945	keystroke_n	n	n/a
192.612	0.075	385224	keystroke_d	d	n/a
192.7765	0.105	385553	keystroke_a	a	n/a
192.912	0.09	385824	keystroke_n	n	n/a
193.076	0.076	386152	keystroke_t	t	n/a
193.226	0.091	386452	keystroke_Key.space	Key.space	n/a
193.437	0.09	386874	keystroke_d	d	n/a
193.617	0.075	387234	keystroke_e	e	n/a
193.827	0.12	387654	keystroke_s	s	n/a
194.022	0.105	388044	keystroke_c	c	n/a
194.2315	0.09	388463	keystroke_e	e	n/a
194.411	0.1055	388822	keystroke_n	n	n/a
194.5315	0.15	389063	keystroke_d	d	n/a
194.6965	0.12	389393	keystroke_i	i	n/a
194.9215	0.105	389843	keystroke_n	n	n/a
195.0865	0.1055	390173	keystroke_g	g	n/a
195.222	0.075	390444	keystroke_Key.space	Key.space	n/a
195.462	0.12	390924	keystroke_m	m	n/a
195.716	0.0755	391432	keystroke_o	o	n/a
195.9265	0.1055	391853	keystroke_n	n	n/a
196.1665	0.1055	392333	keystroke_g	g	n/a
196.332	0.105	392664	keystroke_o	o	n/a
196.572	0.119	393144	keystroke_l	l	n/a
196.812	0.105	393624	keystroke_i	i	n/a
196.9315	0.1205	393863	keystroke_a	a	n/a
197.097	0.0895	394194	keystroke_Key.space	Key.space	n/a
197.291	0.1055	394582	keystroke_d	d	n/a
197.727	0.09	395454	keystroke_Key.backspace	Key.backspace	n/a
197.877	0.105	395754	keystroke_a	a	n/a
198.117	0.135	396234	keystroke_d	d	n/a
198.402	0.105	396804	keystroke_v	v	n/a
198.642	0.09	397284	keystroke_e	e	n/a
198.867	0.06	397734	keystroke_r	r	n/a
199.047	0.075	398094	keystroke_t	t	n/a
199.227	0.12	398454	keystroke_i	i	n/a
199.362	0.105	398724	keystroke_s	s	n/a
199.602	0.0895	399204	keystroke_e	e	n/a
199.812	0.09	399624	keystroke_r	r	n/a
200.037	0.0605	400074	keystroke_s	s	n/a
200.2315	0.0755	400463	keystroke_Key.enter	Key.enter	n/a
200.3135	5.71	400627	prompt	n/a	ease david ottawa config\n
200.9365	0.09	401873	keystroke_e	e	n/a
201.1615	0.1055	402323	keystroke_a	a	n/a
201.402	0.1045	402804	keystroke_s	s	n/a
201.627	0.1045	403254	keystroke_e	e	n/a
201.896	0.106	403792	keystroke_Key.space	Key.space	n/a
202.062	0.09	404124	keystroke_d	d	n/a
202.242	0.1195	404484	keystroke_a	a	n/a
202.4665	0.105	404933	keystroke_v	v	n/a
202.6765	0.1055	405353	keystroke_i	i	n/a
202.8565	0.1355	405713	keystroke_d	d	n/a
203.081	0.075	406162	keystroke_Key.space	Key.space	n/a
203.352	0.105	406704	keystroke_o	o	n/a
203.502	0.075	407004	keystroke_t	t	n/a
203.697	0.105	407394	keystroke_t	t	n/a
203.892	0.1045	407784	keystroke_a	a	n/a
204.1175	0.074	408235	keystroke_w	w	n/a
204.3115	0.105	408623	keystroke_a	a	n/a
204.5215	0.09	409043	keystroke_Key.space	Key.space	n/a
204.7315	0.15	409463	keystroke_c	c	n/a
204.9115	0.106	409823	keystroke_o	o	n/a
205.1515	0.075	410303	keystroke_n	n	n/a
205.3615	0.091	410723	keystroke_f	f	n/a
205.5275	0.12	411055	keystroke_i	i	n/a
205.7225	0.075	411445	keystroke_g	g	n/a
205.9615	0.06	411923	keystroke_Key.enter	Key.enter	n/a
206.0285	7.8255	412057	prompt	n/a	intensive plug perception builders\n
206.6515	0.09	413303	keystroke_i	i	n/a
206.8765	0.105	413753	keystroke_n	n	n/a
207.0415	0.0755	414083	keystroke_t	t	n/a
207.2375	0.0745	414475	keystroke_e	e	n/a
207.477	0.0895	414954	keystroke_n	n	n/a
207.6115	0.121	415223	keystroke_s	s	n/a
207.8375	0.1045	415675	keystroke_i	i	n/a
207.972	0.09	415944	keystroke_v	v	n/a
208.197	0.075	416394	keystroke_e	e	n/a
208.392	0.09	416784	keystroke_Key.space	Key.space	n/a
208.632	0.09	417264	keystroke_p	p	n/a
208.842	0.1045	417684	keystroke_l	l	n/a
209.127	0.105	418254	keystroke_u	u	n/a
209.337	0.09	418674	keystroke_g	g	n/a
209.457	0.09	418914	keystroke_Key.space	Key.space	n/a
209.712	0.105	419424	keystroke_p	p	n/a
209.892	0.12	419784	keystroke_e	e	n/a
210.117	0.09	420234	keystroke_r	r	n/a
210.3415	0.1355	420683	keystroke_c	c	n/a
210.582	0.12	421164	keystroke_e	e	n/a
210.777	0.105	421554	keystroke_p	p	n/a
211.017	0.12	422034	keystroke_t	t	n/a
211.272	0.12	422544	keystroke_i	i	n/a
211.467	0.12	422934	keystroke_o	o	n/a
211.707	0.09	423414	keystroke_n	n	n/a
211.9165	0.1205	423833	keystroke_Key.space	Key.space	n/a
212.1865	0.12	424373	keystroke_b	b	n/a
212.2915	0.105	424583	keystroke_u	u	n/a
212.547	0.1045	425094	keystroke_i	i	n/a
212.787	0.09	425574	keystroke_l	l	n/a
212.937	0.1045	425874	keystroke_d	d	n/a
213.162	0.1205	426324	keystroke_e	e	n/a
213.4015	0.075	426803	keystroke_r	r	n/a
213.582	0.075	427164	keystroke_s	s	n/a
213.792	0.0605	427584	keystroke_Key.enter	Key.enter	n/a
213.858	7.4955	427716	prompt	n/a	setting fitting investors carlo\n
214.467	0.09	428934	keystroke_s	s	n/a
214.6915	0.105	429383	keystroke_e	e	n/a
214.917	0.075	429834	keystroke_t	t	n/a
215.172	0.0895	430344	keystroke_t	t	n/a
215.3515	0.0905	430703	keystroke_i	i	n/a
215.5765	0.09	431153	keystroke_n	n	n/a
215.7415	0.09	431483	keystroke_g	g	n/a
215.9515	0.0605	431903	keystroke_Key.space	Key.space	n/a
216.117	0.1045	432234	keystroke_f	f	n/a
216.312	0.135	432624	keystroke_i	i	n/a
216.522	0.09	433044	keystroke_t	t	n/a
216.762	0.09	433524	keystroke_t	t	n/a
216.897	0.09	433794	keystroke_i	i	n/a
217.1365	0.105	434273	keystroke_n	n	n/a
217.3615	0.105	434723	keystroke_g	g	n/a
217.5715	0.075	435143	keystroke_Key.space	Key.space	n/a
217.8115	0.105	435623	keystroke_i	i	n/a
218.037	0.12	436074	keystroke_n	n	n/a
218.262	0.105	436524	keystroke_v	v	n/a
218.517	0.0745	437034	keystroke_e	e	n/a
218.727	0.1045	437454	keystroke_s	s	n/a
218.997	0.1045	437994	keystroke_t	t	n/a
219.252	0.105	438504	keystroke_o	o	n/a
219.432	0.075	438864	keystroke_r	r	n/a
219.642	0.119	439284	keystroke_s	s	n/a
219.866	0.09	439732	keystroke_Key.space	Key.space	n/a
220.091	0.106	440182	keystroke_c	c	n/a
220.287	0.134	440574	keystroke_a	a	n/a
220.5115	0.075	441023	keystroke_r	r	n/a
220.6915	0.12	441383	keystroke_l	l	n/a
220.9465	0.12	441893	keystroke_o	o	n/a
221.2765	0.075	442553	keystroke_Key.enter	Key.enter	n/a
221.3645	7.414	442729	prompt	n/a	rope senator transcript partner\n
222.147	0.105	444294	keystroke_r	r	n/a
222.357	0.12	444714	keystroke_o	o	n/a
222.597	0.105	445194	keystroke_p	p	n/a
222.8515	0.0755	445703	keystroke_e	e	n/a
223.0615	0.075	446123	keystroke_Key.space	Key.space	n/a
223.272	0.12	446544	keystroke_s	s	n/a
223.542	0.09	447084	keystroke_e	e	n/a
223.752	0.105	447504	keystroke_n	n	n/a
223.887	0.1195	447774	keystroke_a	a	n/a
224.1415	0.0755	448283	keystroke_t	t	n/a
224.367	0.12	448734	keystroke_o	o	n/a
224.532	0.105	449064	keystroke_r	r	n/a
224.757	0.09	449514	keystroke_Key.space	Key.space	n/a
224.997	0.09	449994	keystroke_t	t	n/a
225.176	0.12	450352	keystroke_r	r	n/a
225.416	0.1205	450832	keystroke_a	a	n/a
225.671	0.0905	451342	keystroke_n	n	n/a
225.867	0.075	451734	keystroke_s	s	n/a
226.077	0.12	452154	keystroke_c	c	n/a
226.317	0.104	452634	keystroke_r	r	n/a
226.482	0.1345	452964	keystroke_i	i	n/a
226.7065	0.1055	453413	keystroke_p	p	n/a
226.932	0.105	453864	keystroke_t	t	n/a
227.067	0.075	454134	keystroke_Key.space	Key.space	n/a
227.2915	0.12	454583	keystroke_p	p	n/a
227.4265	0.135	454853	keystroke_a	a	n/a
227.6215	0.105	455243	keystroke_r	r	n/a
227.8465	0.09	455693	keystroke_t	t	n/a
228.0415	0.135	456083	keystroke_n	n	n/a
228.2515	0.1045	456503	keystroke_e	e	n/a
228.4465	0.1055	456893	keystroke_r	r	n/a
228.7165	0.0605	457433	keystroke_Key.enter	Key.enter	n/a
228.7825	7.3165	457565	prompt	n/a	recipes momentum annex punch\n
229.377	0.105	458754	keystroke_r	r	n/a
229.587	0.075	459174	keystroke_e	e	n/a
229.782	0.12	459564	keystroke_c	c	n/a
230.0515	0.12	460103	keystroke_i	i	n/a
230.2465	0.12	460493	keystroke_p	p	n/a
230.4415	0.09	460883	keystroke_e	e	n/a
230.651	0.105	461302	keystroke_s	s	n/a
230.8465	0.135	461693	keystroke_Key.space	Key.space	n/a
231.1915	0.1055	462383	keystroke_m	m	n/a
231.447	0.0745	462894	keystroke_o	o	n/a
231.671	0.1205	463342	keystroke_m	m	n/a
231.8365	0.1505	463673	keystroke_e	e	n/a
232.002	0.1345	464004	keystroke_n	n	n/a
232.3465	0.0895	464693	keystroke_t	t	n/a
232.542	0.09	465084	keystroke_u	u	n/a
232.782	0.09	465564	keystroke_m	m	n/a
233.021	0.075	466042	keystroke_Key.space	Key.space	n/a
233.127	0.1195	466254	keystroke_a	a	n/a
233.3665	0.105	466733	keystroke_n	n	n/a
233.6215	0.1195	467243	keystroke_n	n	n/a
233.816	0.09	467632	keystroke_e	e	n/a
234.116	0.1355	468232	keystroke_x	x	n/a
234.3715	0.075	468743	keystroke_Key.space	Key.space	n/a
234.5965	0.1205	469193	keystroke_p	p	n/a
234.9115	0.09	469823	keystroke_u	u	n/a
235.152	0.1045	470304	keystroke_n	n	n/a
235.4365	0.1205	470873	keystroke_c	c	n/a
235.7065	0.0905	471413	keystroke_h	h	n/a
236.007	0.09	472014	keystroke_Key.enter	Key.enter	n/a
236.1035	7.4955	472207	prompt	n/a	sexuality advert scuba funds\n
236.786	0.016	473572	keystroke_s	s	n/a
236.9365	0.061	473873	keystroke_e	e	n/a
237.1465	0.1205	474293	keystroke_x	x	n/a
237.297	0.121	474594	keystroke_u	u	n/a
237.4915	0.105	474983	keystroke_a	a	n/a
237.6865	0.09	475373	keystroke_l	l	n/a
237.9275	0.1335	475855	keystroke_i	i	n/a
238.242	0.0895	476484	keystroke_t	t	n/a
238.3475	0.089	476695	keystroke_y	y	n/a
238.5865	0.075	477173	keystroke_Key.space	Key.space	n/a
238.782	0.09	477564	keystroke_a	a	n/a
239.052	0.1345	478104	keystroke_d	d	n/a
239.3665	0.1055	478733	keystroke_v	v	n/a
239.6215	0.0605	479243	keystroke_e	e	n/a
239.8015	0.1055	479603	keystroke_r	r	n/a
240.027	0.075	480054	keystroke_t	t	n/a
240.192	0.09	480384	keystroke_Key.space	Key.space	n/a
240.357	0.1195	480714	keystroke_s	s	n/a
240.7775	0.1495	481555	keystroke_c	c	n/a
241.482	0.1045	482964	keystroke_u	u	n/a
241.707	0.105	483414	keystroke_b	b	n/a
241.932	0.15	483864	keystroke_a	a	n/a
242.1415	0.1055	484283	keystroke_Key.space	Key.space	n/a
242.337	0.1045	484674	keystroke_f	f	n/a
242.5915	0.09	485183	keystroke_u	u	n/a
242.832	0.09	485664	keystroke_n	n	n/a
243.0275	0.0895	486055	keystroke_d	d	n/a
243.2365	0.1055	486473	keystroke_s	s	n/a
243.507	0.09	487014	keystroke_Key.enter	Key.enter	n/a
243.6045	8.9945	487209	prompt	n/a	detailed personally whilst partner\n
244.2575	0.0895	488515	keystroke_d	d	n/a
244.467	0.119	488934	keystroke_e	e	n/a
244.7215	0.0905	489443	keystroke_t	t	n/a
244.9015	0.1055	489803	keystroke_a	a	n/a
245.1725	0.104	490345	keystroke_i	i	n/a
245.412	0.105	490824	keystroke_l	l	n/a
245.622	0.09	491244	keystroke_e	e	n/a
245.8475	0.119	491695	keystroke_d	d	n/a
245.997	0.0905	491994	keystroke_Key.space	Key.space	n/a
246.2815	0.09	492563	keystroke_p	p	n/a
246.5365	0.12	493073	keystroke_e	e	n/a
246.7615	0.105	493523	keystroke_r	r	n/a
246.9865	0.045	493973	keystroke_a	a	n/a
247.3315	0.09	494663	keystroke_Key.backspace	Key.backspace	n/a
247.647	0.105	495294	keystroke_s	s	n/a
247.887	0.1045	495774	keystroke_o	o	n/a
248.112	0.105	496224	keystroke_n	n	n/a
248.322	0.075	496644	keystroke_a	a	n/a
248.4715	0.076	496943	keystroke_l	l	n/a
248.6815	0.0755	497363	keystroke_l	l	n/a
248.9825	0.089	497965	keystroke_y	y	n/a
249.1915	0.06	498383	keystroke_Key.space	Key.space	n/a
249.4015	0.106	498803	keystroke_w	w	n/a
249.6715	0.09	499343	keystroke_h	h	n/a
249.9115	0.09	499823	keystroke_i	i	n/a
250.137	0.12	500274	keystroke_l	l	n/a
250.317	0.105	500634	keystroke_s	s	n/a
250.587	0.075	501174	keystroke_t	t	n/a
250.782	0.0895	501564	keystroke_Key.space	Key.space	n/a
251.0215	0.09	502043	keystroke_p	p	n/a
251.2015	0.105	502403	keystroke_a	a	n/a
251.4275	0.074	502855	keystroke_r	r	n/a
251.652	0.0745	503304	keystroke_t	t	n/a
251.877	0.09	503754	keystroke_n	n	n/a
252.132	0.075	504264	keystroke_e	e	n/a
252.3415	0.075	504683	keystroke_r	r	n/a
252.522	0.0745	505044	keystroke_Key.enter	Key.enter	n/a
252.606	8.137	505212	prompt	n/a	refer properties screw romance\n
253.3015	0.105	506603	keystroke_f	f	n/a
253.6465	0.09	507293	keystroke_Key.backspace	Key.backspace	n/a
253.9315	0.105	507863	keystroke_r	r	n/a
254.1565	0.12	508313	keystroke_e	e	n/a
254.3965	0.09	508793	keystroke_f	f	n/a
254.6215	0.09	509243	keystroke_e	e	n/a
254.8315	0.09	509663	keystroke_r	r	n/a
255.0415	0.075	510083	keystroke_Key.space	Key.space	n/a
255.2515	0.135	510503	keystroke_p	p	n/a
255.462	0.119	510924	keystroke_r	r	n/a
255.671	0.12	511342	keystroke_o	o	n/a
255.9415	0.105	511883	keystroke_p	p	n/a
256.1515	0.12	512303	keystroke_e	e	n/a
256.3615	0.12	512723	keystroke_r	r	n/a
256.6465	0.09	513293	keystroke_t	t	n/a
256.8715	0.12	513743	keystroke_i	i	n/a
257.0665	0.0605	514133	keystroke_e	e	n/a
257.277	0.075	514554	keystroke_s	s	n/a
257.471	0.0605	514942	keystroke_Key.space	Key.space	n/a
257.636	0.12	515272	keystroke_s	s	n/a
257.907	0.0895	515814	keystroke_c	c	n/a
258.161	0.0905	516322	keystroke_r	r	n/a
258.3715	0.105	516743	keystroke_e	e	n/a
258.5815	0.09	517163	keystroke_w	w	n/a
258.7915	0.09	517583	keystroke_Key.space	Key.space	n/a
259.0165	0.06	518033	keystroke_r	r	n/a
259.257	0.09	518514	keystroke_o	o	n/a
259.557	0.104	519114	keystroke_m	m	n/a
259.7215	0.12	519443	keystroke_a	a	n/a
259.9315	0.09	519863	keystroke_n	n	n/a
260.1565	0.0755	520313	keystroke_c	c	n/a
260.411	0.075	520822	keystroke_e	e	n/a
260.666	0.075	521332	keystroke_Key.enter	Key.enter	n/a
260.749	6.4445	521498	prompt	n/a	began murray briefing index\n
261.446	0.1055	522892	keystroke_b	b	n/a
261.6715	0.075	523343	keystroke_e	e	n/a
261.8965	0.105	523793	keystroke_g	g	n/a
262.1065	0.1205	524213	keystroke_a	a	n/a
262.3765	0.0755	524753	keystroke_n	n	n/a
262.6315	0.06	525263	keystroke_Key.space	Key.space	n/a
262.8265	0.105	525653	keystroke_m	m	n/a
263.066	0.0755	526132	keystroke_u	u	n/a
263.1715	0.075	526343	keystroke_r	r	n/a
263.3515	0.09	526703	keystroke_r	r	n/a
263.5465	0.1045	527093	keystroke_a	a	n/a
263.712	0.074	527424	keystroke_y	y	n/a
263.9065	0.0745	527813	keystroke_Key.space	Key.space	n/a
264.236	0.0905	528472	keystroke_b	b	n/a
264.4465	0.105	528893	keystroke_r	r	n/a
264.6865	0.105	529373	keystroke_i	i	n/a
264.8365	0.1055	529673	keystroke_e	e	n/a
265.061	0.121	530122	keystroke_f	f	n/a
265.227	0.119	530454	keystroke_i	i	n/a
265.451	0.09	530902	keystroke_n	n	n/a
265.616	0.105	531232	keystroke_g	g	n/a
265.7665	0.0595	531533	keystroke_Key.space	Key.space	n/a
266.021	0.09	532042	keystroke_i	i	n/a
266.276	0.0755	532552	keystroke_n	n	n/a
266.456	0.105	532912	keystroke_d	d	n/a
266.682	0.074	533364	keystroke_e	e	n/a
266.921	0.105	533842	keystroke_x	x	n/a
267.116	0.0755	534232	keystroke_Key.enter	Key.enter	n/a
267.1975	8.0955	534395	prompt	n/a	strong soviet approaches challenging\n
267.8815	0.1055	535763	keystroke_s	s	n/a
268.1215	0.06	536243	keystroke_t	t	n/a
268.3015	0.0895	536603	keystroke_r	r	n/a
268.526	0.061	537052	keystroke_o	o	n/a
268.7365	0.105	537473	keystroke_n	n	n/a
268.8565	0.09	537713	keystroke_g	g	n/a
269.0365	0.075	538073	keystroke_Key.space	Key.space	n/a
269.2605	0.106	538521	keystroke_s	s	n/a
269.457	0.1195	538914	keystroke_o	o	n/a
269.7415	0.1045	539483	keystroke_v	v	n/a
269.936	0.121	539872	keystroke_i	i	n/a
270.086	0.105	540172	keystroke_e	e	n/a
270.3715	0.09	540743	keystroke_t	t	n/a
270.5365	0.105	541073	keystroke_Key.space	Key.space	n/a
270.7315	0.12	541463	keystroke_a	a	n/a
270.926	0.1205	541852	keystroke_p	p	n/a
271.1965	0.1045	542393	keystroke_p	p	n/a
271.436	0.0755	542872	keystroke_r	r	n/a
271.541	0.1205	543082	keystroke_o	o	n/a
271.7065	0.12	543413	keystroke_a	a	n/a
271.961	0.1055	543922	keystroke_c	c	n/a
272.1565	0.1045	544313	keystroke_h	h	n/a
272.2925	0.074	544585	keystroke_e	e	n/a
272.5015	0.09	545003	keystroke_s	s	n/a
272.651	0.09	545302	keystroke_Key.space	Key.space	n/a
272.876	0.105	545752	keystroke_c	c	n/a
273.1315	0.09	546263	keystroke_h	h	n/a
273.327	0.134	546654	keystroke_a	a	n/a
273.4915	0.09	546983	keystroke_l	l	n/a
273.7465	0.105	547493	keystroke_l	l	n/a
273.9865	0.105	547973	keystroke_e	e	n/a
274.1515	0.105	548303	keystroke_n	n	n/a
274.4215	0.075	548843	keystroke_g	g	n/a
274.6165	0.09	549233	keystroke_i	i	n/a
274.811	0.09	549622	keystroke_n	n	n/a
274.961	0.0905	549922	keystroke_g	g	n/a
275.2165	0.0745	550433	keystroke_Key.enter	Key.enter	n/a
275.298	7.54	550596	prompt	n/a	blah face considerable president\n
276.0415	0.104	552083	keystroke_b	b	n/a
276.281	0.09	552562	keystroke_l	l	n/a
276.386	0.105	552772	keystroke_a	a	n/a
276.686	0.06	553372	keystroke_h	h	n/a
276.911	0.06	553822	keystroke_Key.space	Key.space	n/a
277.181	0.09	554362	keystroke_f	f	n/a
277.376	0.135	554752	keystroke_a	a	n/a
277.646	0.105	555292	keystroke_c	c	n/a
277.901	0.075	555802	keystroke_e	e	n/a
278.096	0.09	556192	keystroke_Key.space	Key.space	n/a
278.231	0.135	556462	keystroke_c	c	n/a
278.4265	0.1045	556853	keystroke_o	o	n/a
278.681	0.09	557362	keystroke_n	n	n/a
278.831	0.105	557662	keystroke_s	s	n/a
278.996	0.12	557992	keystroke_i	i	n/a
279.146	0.12	558292	keystroke_d	d	n/a
279.461	0.075	558922	keystroke_e	e	n/a
279.656	0.09	559312	keystroke_r	r	n/a
279.881	0.09	559762	keystroke_a	a	n/a
280.1365	0.075	560273	keystroke_b	b	n/a
280.2865	0.105	560573	keystroke_l	l	n/a
280.4215	0.1195	560843	keystroke_e	e	n/a
280.6315	0.059	561263	keystroke_Key.space	Key.space	n/a
280.8565	0.12	561713	keystroke_p	p	n/a
281.0515	0.105	562103	keystroke_r	r	n/a
281.2615	0.09	562523	keystroke_e	e	n/a
281.5315	0.09	563063	keystroke_s	s	n/a
281.7565	0.119	563513	keystroke_i	i	n/a
281.8765	0.089	563753	keystroke_d	d	n/a
282.0865	0.105	564173	keystroke_e	e	n/a
282.3705	0.106	564741	keystroke_n	n	n/a
282.5215	0.06	565043	keystroke_t	t	n/a
282.7605	0.075	565521	keystroke_Key.enter	Key.enter	n/a
282.843	9.5505	565686	prompt	n/a	shipped certificates processing interior\n
283.571	0.12	567142	keystroke_s	s	n/a
283.9155	0.09	567831	keystroke_h	h	n/a
284.1415	0.1195	568283	keystroke_i	i	n/a
284.396	0.09	568792	keystroke_p	p	n/a
284.6665	0.09	569333	keystroke_p	p	n/a
284.8615	0.06	569723	keystroke_e	e	n/a
285.0565	0.135	570113	keystroke_d	d	n/a
285.2365	0.09	570473	keystroke_Key.space	Key.space	n/a
285.3715	0.1345	570743	keystroke_c	c	n/a
285.6265	0.1345	571253	keystroke_e	e	n/a
285.836	0.105	571672	keystroke_r	r	n/a
286.046	0.075	572092	keystroke_t	t	n/a
286.3005	0.12	572601	keystroke_i	i	n/a
286.5105	0.076	573021	keystroke_f	f	n/a
286.7515	0.1045	573503	keystroke_i	i	n/a
286.871	0.0905	573742	keystroke_c	c	n/a
287.052	0.134	574104	keystroke_a	a	n/a
287.291	0.0755	574582	keystroke_t	t	n/a
287.516	0.045	575032	keystroke_e	e	n/a
287.6965	0.075	575393	keystroke_s	s	n/a
287.8615	0.0745	575723	keystroke_Key.space	Key.space	n/a
288.041	0.12	576082	keystroke_p	p	n/a
288.222	0.0745	576444	keystroke_r	r	n/a
288.386	0.075	576772	keystroke_o	o	n/a
288.596	0.091	577192	keystroke_c	c	n/a
288.852	0.074	577704	keystroke_e	e	n/a
289.062	0.075	578124	keystroke_s	s	n/a
289.271	0.09	578542	keystroke_s	s	n/a
289.512	0.0745	579024	keystroke_i	i	n/a
289.736	0.09	579472	keystroke_n	n	n/a
289.961	0.075	579922	keystroke_g	g	n/a
290.156	0.075	580312	keystroke_Key.space	Key.space	n/a
290.396	0.105	580792	keystroke_i	i	n/a
290.636	0.0905	581272	keystroke_n	n	n/a
290.891	0.09	581782	keystroke_t	t	n/a
291.146	0.0605	582292	keystroke_e	e	n/a
291.3415	0.0905	582683	keystroke_r	r	n/a
291.641	0.105	583282	keystroke_i	i	n/a
291.867	0.1045	583734	keystroke_o	o	n/a
292.0615	0.09	584123	keystroke_r	r	n/a
292.3005	0.091	584601	keystroke_Key.enter	Key.enter	n/a
292.397	6.866	584794	prompt	n/a	agency posters plain cloth\n
293.0965	0.12	586193	keystroke_a	a	n/a
293.3515	0.0905	586703	keystroke_g	g	n/a
293.5915	0.105	587183	keystroke_e	e	n/a
293.8015	0.105	587603	keystroke_n	n	n/a
293.951	0.106	587902	keystroke_c	c	n/a
294.101	0.0905	588202	keystroke_y	y	n/a
294.326	0.0755	588652	keystroke_Key.space	Key.space	n/a
294.5365	0.105	589073	keystroke_p	p	n/a
294.8215	0.1045	589643	keystroke_o	o	n/a
294.9715	0.1345	589943	keystroke_s	s	n/a
295.331	0.105	590662	keystroke_t	t	n/a
295.6015	0.105	591203	keystroke_e	e	n/a
295.842	0.074	591684	keystroke_r	r	n/a
296.0965	0.09	592193	keystroke_s	s	n/a
296.3665	0.0595	592733	keystroke_Key.space	Key.space	n/a
296.6065	0.12	593213	keystroke_p	p	n/a
296.891	0.105	593782	keystroke_l	l	n/a
297.146	0.0605	594292	keystroke_a	a	n/a
297.386	0.12	594772	keystroke_i	i	n/a
297.686	0.045	595372	keystroke_n	n	n/a
297.8965	0.089	595793	keystroke_Key.space	Key.space	n/a
298.1215	0.1345	596243	keystroke_c	c	n/a
298.3015	0.09	596603	keystroke_l	l	n/a
298.5565	0.09	597113	keystroke_o	o	n/a
298.737	0.1045	597474	keystroke_t	t	n/a
298.9015	0.105	597803	keystroke_h	h	n/a
299.186	0.075	598372	keystroke_Key.enter	Key.enter	n/a
299.2675	7.9755	598535	prompt	n/a	hosted police legally andrea\n
299.9815	0.0895	599963	keystroke_h	h	n/a
300.2205	0.1055	600441	keystroke_o	o	n/a
300.356	0.12	600712	keystroke_s	s	n/a
300.716	0.09	601432	keystroke_t	t	n/a
300.941	0.075	601882	keystroke_e	e	n/a
301.166	0.105	602332	keystroke_d	d	n/a
301.406	0.075	602812	keystroke_Key.space	Key.space	n/a
301.601	0.1205	603202	keystroke_p	p	n/a
301.8715	0.105	603743	keystroke_o	o	n/a
302.2155	0.091	604431	keystroke_i	i	n/a
302.5765	0.075	605153	keystroke_Key.backspace	Key.backspace	n/a
302.8165	0.135	605633	keystroke_l	l	n/a
303.0415	0.15	606083	keystroke_i	i	n/a
303.266	0.075	606532	keystroke_c	c	n/a
303.491	0.076	606982	keystroke_e	e	n/a
303.791	0.105	607582	keystroke_Key.space	Key.space	n/a
304.0315	0.09	608063	keystroke_l	l	n/a
304.1515	0.104	608303	keystroke_e	e	n/a
304.4365	0.09	608873	keystroke_g	g	n/a
304.6165	0.06	609233	keystroke_a	a	n/a
304.826	0.075	609652	keystroke_l	l	n/a
305.0215	0.105	610043	keystroke_l	l	n/a
305.3065	0.0895	610613	keystroke_y	y	n/a
305.5315	0.075	611063	keystroke_Key.space	Key.space	n/a
305.7565	0.1195	611513	keystroke_a	a	n/a
305.996	0.091	611992	keystroke_n	n	n/a
306.146	0.121	612292	keystroke_d	d	n/a
306.4605	0.106	612921	keystroke_r	r	n/a
306.6865	0.0745	613373	keystroke_e	e	n/a
306.9115	0.09	613823	keystroke_a	a	n/a
307.1805	0.061	614361	keystroke_Key.enter	Key.enter	n/a
307.2475	10.1505	614495	prompt	n/a	cemetery salaries economic they're\n
307.991	0.12	615982	keystroke_c	c	n/a
308.231	0.105	616462	keystroke_e	e	n/a
308.5005	0.1055	617001	keystroke_m	m	n/a
308.6965	0.135	617393	keystroke_e	e	n/a
308.9365	0.105	617873	keystroke_n	n	n/a
309.341	0.09	618682	keystroke_Key.backspace	Key.backspace	n/a
309.566	0.0755	619132	keystroke_t	t	n/a
309.9715	0.0895	619943	keystroke_e	e	n/a
310.1665	0.105	620333	keystroke_r	r	n/a
310.346	0.09	620692	keystroke_y	y	n/a
310.5565	0.045	621113	keystroke_Key.space	Key.space	n/a
310.6915	0.075	621383	keystroke_s	s	n/a
310.9015	0.105	621803	keystroke_a	a	n/a
311.0665	0.12	622133	keystroke_l	l	n/a
311.2465	0.1195	622493	keystroke_a	a	n/a
311.5015	0.0895	623003	keystroke_r	r	n/a
311.711	0.135	623422	keystroke_i	i	n/a
311.861	0.0905	623722	keystroke_e	e	n/a
312.0865	0.0895	624173	keystroke_s	s	n/a
312.236	0.0905	624472	keystroke_Key.space	Key.space	n/a
312.4315	0.09	624863	keystroke_s	s	n/a
312.8515	0.1045	625703	keystroke_Key.backspace	Key.backspace	n/a
313.0615	0.09	626123	keystroke_e	e	n/a
313.2865	0.12	626573	keystroke_c	c	n/a
313.4215	0.135	626843	keystroke_o	o	n/a
313.6915	0.09	627383	keystroke_n	n	n/a
313.9315	0.075	627863	keystroke_o	o	n/a
314.1415	0.09	628283	keystroke_m	m	n/a
314.3815	0.12	628763	keystroke_i	i	n/a
314.5465	0.12	629093	keystroke_c	c	n/a
314.7565	0.06	629513	keystroke_Key.space	Key.space	n/a
315.0115	0.075	630023	keystroke_t	t	n/a
315.1915	0.105	630383	keystroke_h	h	n/a
315.3415	0.105	630683	keystroke_e	e	n/a
315.4765	0.105	630953	keystroke_y	y	n/a
315.7465	0.06	631493	keystroke_'	'	n/a
315.7615	0.03	631523	keystroke_;	;	n/a
316.0465	0.075	632093	keystroke_r	r	n/a
316.376	0.0605	632752	keystroke_Key.backspace	Key.backspace	n/a
316.5865	0.0895	633173	keystroke_Key.backspace	Key.backspace	n/a
316.856	0.0755	633712	keystroke_r	r	n/a
317.051	0.0755	634102	keystroke_e	e	n/a
317.321	0.075	634642	keystroke_Key.enter	Key.enter	n/a
317.408	7.37	634816	prompt	n/a	excerpt wifi taiwan counters\n
318.146	0.09	636292	keystroke_e	e	n/a
318.3715	0.135	636743	keystroke_x	x	n/a
318.8665	0.09	637733	keystroke_c	c	n/a
319.106	0.075	638212	keystroke_e	e	n/a
319.331	0.09	638662	keystroke_r	r	n/a
319.556	0.1205	639112	keystroke_p	p	n/a
319.7665	0.0595	639533	keystroke_t	t	n/a
320.066	0.075	640132	keystroke_Key.space	Key.space	n/a
320.216	0.105	640432	keystroke_w	w	n/a
320.5315	0.0895	641063	keystroke_i	i	n/a
320.801	0.105	641602	keystroke_f	f	n/a
321.0405	0.105	642081	keystroke_i	i	n/a
321.2365	0.074	642473	keystroke_Key.space	Key.space	n/a
321.4755	0.061	642951	keystroke_t	t	n/a
321.6865	0.074	643373	keystroke_a	a	n/a
321.8955	0.12	643791	keystroke_i	i	n/a
322.0755	0.061	644151	keystroke_w	w	n/a
322.2555	0.1055	644511	keystroke_a	a	n/a
322.526	0.0755	645052	keystroke_n	n	n/a
322.751	0.0905	645502	keystroke_Key.space	Key.space	n/a
322.9615	0.135	645923	keystroke_c	c	n/a
323.156	0.105	646312	keystroke_o	o	n/a
323.3815	0.105	646763	keystroke_u	u	n/a
323.6215	0.119	647243	keystroke_n	n	n/a
323.8005	0.075	647601	keystroke_t	t	n/a
324.071	0.075	648142	keystroke_e	e	n/a
324.281	0.06	648562	keystroke_r	r	n/a
324.4915	0.06	648983	keystroke_s	s	n/a
324.7165	0.06	649433	keystroke_Key.enter	Key.enter	n/a
324.7825	8.1255	649565	prompt	n/a	limited bottom carrier newspapers\n
325.4515	0.1055	650903	keystroke_l	l	n/a
325.706	0.06	651412	keystroke_i	i	n/a
325.9315	0.075	651863	keystroke_m	m	n/a
326.1565	0.089	652313	keystroke_i	i	n/a
326.5615	0.105	653123	keystroke_t	t	n/a
326.7865	0.074	653573	keystroke_e	e	n/a
327.0105	0.1205	654021	keystroke_d	d	n/a
327.206	0.06	654412	keystroke_Key.space	Key.space	n/a
327.4315	0.075	654863	keystroke_b	b	n/a
327.641	0.075	655282	keystroke_o	o	n/a
327.821	0.06	655642	keystroke_t	t	n/a
328.031	0.0905	656062	keystroke_t	t	n/a
328.226	0.075	656452	keystroke_o	o	n/a
328.466	0.075	656932	keystroke_m	m	n/a
328.6465	0.0895	657293	keystroke_Key.space	Key.space	n/a
328.796	0.09	657592	keystroke_c	c	n/a
329.051	0.0605	658102	keystroke_a	a	n/a
329.2765	0.06	658553	keystroke_r	r	n/a
329.516	0.075	659032	keystroke_r	r	n/a
329.726	0.1055	659452	keystroke_i	i	n/a
329.8765	0.09	659753	keystroke_e	e	n/a
330.086	0.12	660172	keystroke_r	r	n/a
330.251	0.0905	660502	keystroke_Key.space	Key.space	n/a
330.5215	0.104	661043	keystroke_n	n	n/a
330.7465	0.09	661493	keystroke_e	e	n/a
330.9555	0.091	661911	keystroke_w	w	n/a
331.1965	0.0895	662393	keystroke_s	s	n/a
331.5265	0.105	663053	keystroke_p	p	n/a
331.7065	0.09	663413	keystroke_a	a	n/a
331.9615	0.1205	663923	keystroke_p	p	n/a
332.171	0.1055	664342	keystroke_e	e	n/a
332.4265	0.075	664853	keystroke_r	r	n/a
332.6215	0.075	665243	keystroke_s	s	n/a
332.8465	0.0595	665693	keystroke_Key.enter	Key.enter	n/a
332.9125	8.6655	665825	prompt	n/a	directions reasonable boulder motor\n
333.627	0.119	667254	keystroke_d	d	n/a
333.806	0.09	667612	keystroke_i	i	n/a
334.1365	0.045	668273	keystroke_r	r	n/a
334.331	0.0605	668662	keystroke_e	e	n/a
334.5115	0.135	669023	keystroke_c	c	n/a
334.8415	0.09	669683	keystroke_t	t	n/a
335.1405	0.1065	670281	keystroke_i	i	n/a
335.3665	0.074	670733	keystroke_o	o	n/a
335.561	0.1055	671122	keystroke_n	n	n/a
335.7265	0.135	671453	keystroke_s	s	n/a
335.9205	0.0455	671841	keystroke_Key.space	Key.space	n/a
336.101	0.1055	672202	keystroke_r	r	n/a
336.311	0.09	672622	keystroke_e	e	n/a
336.5665	0.12	673133	keystroke_a	a	n/a
336.7765	0.0895	673553	keystroke_s	s	n/a
337.001	0.105	674002	keystroke_o	o	n/a
337.2415	0.09	674483	keystroke_n	n	n/a
337.3615	0.105	674723	keystroke_a	a	n/a
337.616	0.09	675232	keystroke_b	b	n/a
337.752	0.1195	675504	keystroke_l	l	n/a
337.9315	0.12	675863	keystroke_e	e	n/a
338.1115	0.12	676223	keystroke_Key.space	Key.space	n/a
338.3515	0.105	676703	keystroke_b	b	n/a
338.591	0.09	677182	keystroke_o	o	n/a
338.816	0.0905	677632	keystroke_u	u	n/a
339.071	0.12	678142	keystroke_l	l	n/a
339.2965	0.09	678593	keystroke_d	d	n/a
339.536	0.105	679072	keystroke_e	e	n/a
339.7765	0.0905	679553	keystroke_r	r	n/a
340.001	0.075	680002	keystroke_Key.space	Key.space	n/a
340.3615	0.105	680723	keystroke_m	m	n/a
340.7065	0.09	681413	keystroke_o	o	n/a
340.8865	0.09	681773	keystroke_t	t	n/a
341.0965	0.12	682193	keystroke_o	o	n/a
341.306	0.075	682612	keystroke_r	r	n/a
341.501	0.0755	683002	keystroke_Key.enter	Key.enter	n/a
341.582	10.591	683164	prompt	n/a	creative statutory accessory identification\n
342.266	0.12	684532	keystroke_c	c	n/a
342.566	0.06	685132	keystroke_r	r	n/a
342.746	0.0755	685492	keystroke_e	e	n/a
342.9265	0.1195	685853	keystroke_a	a	n/a
343.151	0.075	686302	keystroke_t	t	n/a
343.3465	0.1045	686693	keystroke_i	i	n/a
343.436	0.105	686872	keystroke_v	v	n/a
343.676	0.06	687352	keystroke_e	e	n/a
343.841	0.09	687682	keystroke_Key.space	Key.space	n/a
343.991	0.12	687982	keystroke_s	s	n/a
344.231	0.09	688462	keystroke_t	t	n/a
344.516	0.1205	689032	keystroke_a	a	n/a
345.3865	0.0745	690773	keystroke_t	t	n/a
345.5815	0.105	691163	keystroke_u	u	n/a
345.9865	0.0895	691973	keystroke_t	t	n/a
346.1515	0.119	692303	keystroke_o	o	n/a
346.2855	0.106	692571	keystroke_r	r	n/a
346.4965	0.09	692993	keystroke_y	y	n/a
346.7065	0.075	693413	keystroke_Key.space	Key.space	n/a
346.9765	0.105	693953	keystroke_a	a	n/a
347.201	0.06	694402	keystroke_c	c	n/a
347.427	0.105	694854	keystroke_c	c	n/a
347.697	0.045	695394	keystroke_e	e	n/a
347.906	0.061	695812	keystroke_s	s	n/a
348.131	0.1055	696262	keystroke_s	s	n/a
348.386	0.1055	696772	keystroke_o	o	n/a
348.5365	0.09	697073	keystroke_r	r	n/a
348.7915	0.045	697583	keystroke_y	y	n/a
348.9565	0.075	697913	keystroke_Key.space	Key.space	n/a
349.1965	0.12	698393	keystroke_i	i	n/a
349.4215	0.09	698843	keystroke_d	d	n/a
349.631	0.12	699262	keystroke_e	e	n/a
349.7665	0.135	699533	keystroke_n	n	n/a
349.9165	0.105	699833	keystroke_t	t	n/a
350.1865	0.12	700373	keystroke_i	i	n/a
350.411	0.105	700822	keystroke_f	f	n/a
350.6065	0.1495	701213	keystroke_i	i	n/a
350.742	0.1045	701484	keystroke_c	c	n/a
350.9365	0.135	701873	keystroke_a	a	n/a
351.192	0.075	702384	keystroke_t	t	n/a
351.446	0.105	702892	keystroke_i	i	n/a
351.6715	0.0745	703343	keystroke_o	o	n/a
351.896	0.075	703792	keystroke_n	n	n/a
352.106	0.06	704212	keystroke_Key.enter	Key.enter	n/a
352.1735	8.2295	704347	prompt	n/a	planner levy calendars integrate\n
352.767	0.089	705534	keystroke_p	p	n/a
353.006	0.105	706012	keystroke_l	l	n/a
353.2315	0.0895	706463	keystroke_a	a	n/a
353.382	0.074	706764	keystroke_n	n	n/a
353.606	0.1055	707212	keystroke_n	n	n/a
353.8465	0.06	707693	keystroke_e	e	n/a
354.1015	0.105	708203	keystroke_r	r	n/a
354.3565	0.0595	708713	keystroke_Key.space	Key.space	n/a
354.581	0.0755	709162	keystroke_l	l	n/a
354.6865	0.09	709373	keystroke_e	e	n/a
354.911	0.09	709822	keystroke_v	v	n/a
355.3315	0.105	710663	keystroke_y	y	n/a
355.5405	0.075	711081	keystroke_Key.space	Key.space	n/a
355.8265	0.1345	711653	keystroke_c	c	n/a
356.246	0.12	712492	keystroke_a	a	n/a
356.412	0.1345	712824	keystroke_l	l	n/a
356.816	0.06	713632	keystroke_e	e	n/a
357.041	0.075	714082	keystroke_n	n	n/a
357.191	0.12	714382	keystroke_d	d	n/a
357.416	0.1355	714832	keystroke_a	a	n/a
357.6555	0.0755	715311	keystroke_r	r	n/a
357.881	0.0905	715762	keystroke_s	s	n/a
358.0905	0.0905	716181	keystroke_Key.space	Key.space	n/a
358.3315	0.1045	716663	keystroke_i	i	n/a
358.586	0.1045	717172	keystroke_n	n	n/a
358.7805	0.106	717561	keystroke_t	t	n/a
358.9915	0.1345	717983	keystroke_e	e	n/a
359.246	0.075	718492	keystroke_g	g	n/a
359.456	0.075	718912	keystroke_r	r	n/a
359.6515	0.1195	719303	keystroke_a	a	n/a
359.921	0.06	719842	keystroke_t	t	n/a
360.131	0.06	720262	keystroke_e	e	n/a
360.311	0.09	720622	keystroke_Key.enter	Key.enter	n/a
360.4095	7.328	720819	prompt	n/a	begins moving explicit prix\n
361.061	0.075	722122	keystroke_b	b	n/a
361.2705	0.105	722541	keystroke_e	e	n/a
361.4955	0.0905	722991	keystroke_g	g	n/a
361.706	0.105	723412	keystroke_i	i	n/a
361.931	0.0895	723862	keystroke_n	n	n/a
362.1255	0.076	724251	keystroke_s	s	n/a
362.2465	0.06	724493	keystroke_Key.space	Key.space	n/a
362.5015	0.074	725003	keystroke_m	m	n/a
362.7715	0.089	725543	keystroke_o	o	n/a
362.9655	0.1205	725931	keystroke_v	v	n/a
363.266	0.09	726532	keystroke_i	i	n/a
363.491	0.075	726982	keystroke_n	n	n/a
363.746	0.105	727492	keystroke_g	g	n/a
363.896	0.105	727792	keystroke_Key.space	Key.space	n/a
364.106	0.075	728212	keystroke_e	e	n/a
364.316	0.15	728632	keystroke_x	x	n/a
364.541	0.0595	729082	keystroke_p	p	n/a
364.7955	0.1205	729591	keystroke_l	l	n/a
365.0665	0.104	730133	keystroke_i	i	n/a
365.276	0.1345	730552	keystroke_c	c	n/a
365.501	0.1205	731002	keystroke_i	i	n/a
365.6955	0.1055	731391	keystroke_t	t	n/a
365.906	0.075	731812	keystroke_Key.space	Key.space	n/a
366.206	0.09	732412	keystroke_r	r	n/a
366.5505	0.0905	733101	keystroke_Key.backspace	Key.backspace	n/a
366.8065	0.1045	733613	keystroke_p	p	n/a
367.0465	0.0745	734093	keystroke_r	r	n/a
367.241	0.0905	734482	keystroke_i	i	n/a
367.436	0.1045	734872	keystroke_x	x	n/a
367.6455	0.0905	735291	keystroke_Key.enter	Key.enter	n/a
367.742	9.2805	735484	prompt	n/a	performed evaluations install customer\n
368.3505	0.031	736701	keystroke_e	e	n/a
368.7555	0.09	737511	keystroke_Key.backspace	Key.backspace	n/a
369.0555	0.1055	738111	keystroke_p	p	n/a
369.386	0.12	738772	keystroke_e	e	n/a
369.581	0.1045	739162	keystroke_r	r	n/a
369.7755	0.106	739551	keystroke_f	f	n/a
369.9405	0.121	739881	keystroke_o	o	n/a
370.0465	0.089	740093	keystroke_r	r	n/a
370.2265	0.1045	740453	keystroke_m	m	n/a
370.346	0.06	740692	keystroke_e	e	n/a
370.5405	0.12	741081	keystroke_d	d	n/a
370.6915	0.089	741383	keystroke_Key.space	Key.space	n/a
370.9915	0.075	741983	keystroke_e	e	n/a
371.2305	0.1355	742461	keystroke_v	v	n/a
371.4565	0.105	742913	keystroke_a	a	n/a
371.6365	0.1045	743273	keystroke_l	l	n/a
371.891	0.1205	743782	keystroke_u	u	n/a
372.0265	0.12	744053	keystroke_a	a	n/a
372.2515	0.075	744503	keystroke_t	t	n/a
372.521	0.09	745042	keystroke_i	i	n/a
372.701	0.1045	745402	keystroke_o	o	n/a
372.9115	0.1195	745823	keystroke_n	n	n/a
373.136	0.09	746272	keystroke_s	s	n/a
373.3155	0.06	746631	keystroke_Key.space	Key.space	n/a
373.4965	0.105	746993	keystroke_i	i	n/a
373.7365	0.12	747473	keystroke_n	n	n/a
373.9765	0.119	747953	keystroke_s	s	n/a
374.276	0.045	748552	keystroke_t	t	n/a
374.4555	0.075	748911	keystroke_a	a	n/a
374.6815	0.074	749363	keystroke_l	l	n/a
374.8905	0.135	749781	keystroke_l	l	n/a
375.1305	0.0605	750261	keystroke_Key.space	Key.space	n/a
375.371	0.075	750742	keystroke_c	c	n/a
375.491	0.1045	750982	keystroke_u	u	n/a
375.6705	0.105	751341	keystroke_s	s	n/a
375.926	0.06	751852	keystroke_t	t	n/a
376.0455	0.1055	752091	keystroke_o	o	n/a
376.301	0.1055	752602	keystroke_m	m	n/a
376.4965	0.105	752993	keystroke_e	e	n/a
376.7355	0.076	753471	keystroke_r	r	n/a
376.961	0.06	753922	keystroke_Key.enter	Key.enter	n/a
377.027	9.0865	754054	prompt	n/a	observations conceptual aqua shadow\n
377.771	0.12	755542	keystroke_o	o	n/a
377.981	0.06	755962	keystroke_b	b	n/a
378.2355	0.06	756471	keystroke_e	e	n/a
378.5665	0.1045	757133	keystroke_Key.backspace	Key.backspace	n/a
378.8515	0.1045	757703	keystroke_s	s	n/a
379.391	0.1205	758782	keystroke_e	e	n/a
379.661	0.09	759322	keystroke_r	r	n/a
379.9305	0.0905	759861	keystroke_v	v	n/a
380.141	0.12	760282	keystroke_a	a	n/a
380.381	0.06	760762	keystroke_t	t	n/a
380.6205	0.12	761241	keystroke_i	i	n/a
380.831	0.0755	761662	keystroke_o	o	n/a
381.0715	0.1045	762143	keystroke_n	n	n/a
381.236	0.09	762472	keystroke_s	s	n/a
381.401	0.0605	762802	keystroke_Key.space	Key.space	n/a
381.6105	0.121	763221	keystroke_c	c	n/a
381.7915	0.09	763583	keystroke_o	o	n/a
382.0165	0.075	764033	keystroke_n	n	n/a
382.1655	0.1205	764331	keystroke_c	c	n/a
382.406	0.1355	764812	keystroke_e	e	n/a
382.6015	0.105	765203	keystroke_p	p	n/a
382.7815	0.0895	765563	keystroke_t	t	n/a
382.946	0.091	765892	keystroke_u	u	n/a
383.1565	0.075	766313	keystroke_a	a	n/a
383.291	0.12	766582	keystroke_l	l	n/a
383.5165	0.09	767033	keystroke_Key.space	Key.space	n/a
383.9205	0.106	767841	keystroke_a	a	n/a
384.177	0.074	768354	keystroke_q	q	n/a
384.356	0.1205	768712	keystroke_u	u	n/a
384.5365	0.1045	769073	keystroke_a	a	n/a
384.731	0.075	769462	keystroke_Key.space	Key.space	n/a
384.896	0.105	769792	keystroke_s	s	n/a
385.1065	0.105	770213	keystroke_h	h	n/a
385.2865	0.075	770573	keystroke_a	a	n/a
385.5265	0.09	771053	keystroke_d	d	n/a
385.6465	0.1195	771293	keystroke_o	o	n/a
385.811	0.1055	771622	keystroke_w	w	n/a
386.0665	0.045	772133	keystroke_Key.enter	Key.enter	n/a
386.118	8.845	772236	prompt	n/a	accomplished wages director developer\n
386.8615	0.1045	773723	keystroke_a	a	n/a
387.146	0.0605	774292	keystroke_c	c	n/a
387.3565	0.045	774713	keystroke_c	c	n/a
387.5665	0.1045	775133	keystroke_o	o	n/a
387.866	0.1355	775732	keystroke_m	m	n/a
388.1065	0.075	776213	keystroke_p	p	n/a
388.2865	0.119	776573	keystroke_l	l	n/a
388.5115	0.1195	777023	keystroke_i	i	n/a
388.8255	0.076	777651	keystroke_s	s	n/a
388.931	0.12	777862	keystroke_h	h	n/a
389.1415	0.06	778283	keystroke_e	e	n/a
389.366	0.0895	778732	keystroke_d	d	n/a
389.5015	0.075	779003	keystroke_Key.space	Key.space	n/a
389.6965	0.089	779393	keystroke_w	w	n/a
389.9215	0.09	779843	keystroke_a	a	n/a
390.1905	0.046	780381	keystroke_g	g	n/a
390.401	0.06	780802	keystroke_e	e	n/a
390.6115	0.09	781223	keystroke_s	s	n/a
390.6855	0.12	781371	keystroke_Key.space	Key.space	n/a
390.9865	0.12	781973	keystroke_d	d	n/a
391.1665	0.135	782333	keystroke_i	i	n/a
391.4215	0.074	782843	keystroke_r	r	n/a
391.6155	0.091	783231	keystroke_e	e	n/a
391.8255	0.105	783651	keystroke_c	c	n/a
392.0805	0.06	784161	keystroke_t	t	n/a
392.3055	0.105	784611	keystroke_o	o	n/a
392.4555	0.09	784911	keystroke_r	r	n/a
392.7255	0.046	785451	keystroke_Key.space	Key.space	n/a
392.8615	0.105	785723	keystroke_d	d	n/a
393.0715	0.105	786143	keystroke_e	e	n/a
393.3265	0.075	786653	keystroke_v	v	n/a
393.5365	0.075	787073	keystroke_e	e	n/a
393.7765	0.105	787553	keystroke_l	l	n/a
394.016	0.105	788032	keystroke_o	o	n/a
394.241	0.1205	788482	keystroke_p	p	n/a
394.4665	0.0745	788933	keystroke_e	e	n/a
394.706	0.06	789412	keystroke_r	r	n/a
394.886	0.075	789772	keystroke_Key.enter	Key.enter	n/a
394.967	7.6605	789934	prompt	n/a	mere saver february provision\n
395.6655	0.0905	791331	keystroke_m	m	n/a
395.8765	0.1345	791753	keystroke_e	e	n/a
396.131	0.0595	792262	keystroke_r	r	n/a
396.3405	0.105	792681	keystroke_e	e	n/a
396.6105	0.045	793221	keystroke_Key.space	Key.space	n/a
396.9105	0.105	793821	keystroke_s	s	n/a
397.1505	0.12	794301	keystroke_a	a	n/a
397.376	0.0895	794752	keystroke_v	v	n/a
397.631	0.12	795262	keystroke_e	e	n/a
397.886	0.105	795772	keystroke_r	r	n/a
398.096	0.06	796192	keystroke_Key.space	Key.space	n/a
398.291	0.09	796582	keystroke_f	f	n/a
398.531	0.105	797062	keystroke_e	e	n/a
398.846	0.075	797692	keystroke_b	b	n/a
399.3115	0.015	798623	keystroke_r	r	n/a
399.4305	0.091	798861	keystroke_u	u	n/a
399.8815	0.12	799763	keystroke_a	a	n/a
400.1215	0.105	800243	keystroke_r	r	n/a
400.3465	0.12	800693	keystroke_y	y	n/a
400.511	0.0605	801022	keystroke_Key.space	Key.space	n/a
400.7065	0.105	801413	keystroke_p	p	n/a
400.9015	0.0745	801803	keystroke_r	r	n/a
401.051	0.075	802102	keystroke_o	o	n/a
401.216	0.0745	802432	keystroke_v	v	n/a
401.441	0.105	802882	keystroke_i	i	n/a
401.591	0.09	803182	keystroke_s	s	n/a
401.816	0.105	803632	keystroke_i	i	n/a
402.056	0.09	804112	keystroke_o	o	n/a
402.281	0.105	804562	keystroke_n	n	n/a
402.551	0.075	805102	keystroke_Key.enter	Key.enter	n/a
402.6345	7.3885	805269	prompt	n/a	guess estimates veteran what've\n
403.286	0.09	806572	keystroke_g	g	n/a
403.5865	0.015	807173	keystroke_u	u	n/a
403.6015	0.03	807203	keystroke_e	e	n/a
403.7815	0.074	807563	keystroke_s	s	n/a
403.9755	0.106	807951	keystroke_s	s	n/a
404.1855	0.045	808371	keystroke_Key.space	Key.space	n/a
404.3505	0.076	808701	keystroke_e	e	n/a
404.5455	0.1055	809091	keystroke_s	s	n/a
404.801	0.1055	809602	keystroke_t	t	n/a
404.9515	0.12	809903	keystroke_i	i	n/a
405.1915	0.12	810383	keystroke_m	m	n/a
405.2965	0.09	810593	keystroke_a	a	n/a
405.5365	0.09	811073	keystroke_t	t	n/a
405.7765	0.06	811553	keystroke_e	e	n/a
405.9865	0.0895	811973	keystroke_s	s	n/a
406.196	0.075	812392	keystroke_Key.space	Key.space	n/a
406.466	0.09	812932	keystroke_v	v	n/a
406.676	0.105	813352	keystroke_e	e	n/a
406.9165	0.089	813833	keystroke_t	t	n/a
407.216	0.105	814432	keystroke_e	e	n/a
407.426	0.09	814852	keystroke_r	r	n/a
407.636	0.105	815272	keystroke_a	a	n/a
407.891	0.075	815782	keystroke_n	n	n/a
408.086	0.105	816172	keystroke_Key.space	Key.space	n/a
408.236	0.12	816472	keystroke_w	w	n/a
408.551	0.075	817102	keystroke_h	h	n/a
408.731	0.09	817462	keystroke_a	a	n/a
408.956	0.06	817912	keystroke_t	t	n/a
409.0605	0.105	818121	keystroke_'	'	n/a
409.3905	0.06	818781	keystroke_v	v	n/a
409.6165	0.075	819233	keystroke_e	e	n/a
409.9315	0.09	819863	keystroke_Key.enter	Key.enter	n/a
410.028	9.6545	820056	prompt	n/a	examination ignored brighton clubs\n
410.7115	0.06	821423	keystroke_e	e	n/a
410.921	0.12	821842	keystroke_x	x	n/a
411.176	0.105	822352	keystroke_a	a	n/a
411.296	0.105	822592	keystroke_m	m	n/a
411.566	0.0905	823132	keystroke_i	i	n/a
411.7765	0.12	823553	keystroke_n	n	n/a
412.346	0.135	824692	keystroke_a	a	n/a
412.586	0.105	825172	keystroke_t	t	n/a
412.8115	0.105	825623	keystroke_i	i	n/a
413.0365	0.12	826073	keystroke_o	o	n/a
413.276	0.09	826552	keystroke_n	n	n/a
413.531	0.09	827062	keystroke_Key.space	Key.space	n/a
413.756	0.12	827512	keystroke_i	i	n/a
413.9215	0.105	827843	keystroke_g	g	n/a
414.1455	0.0755	828291	keystroke_n	n	n/a
414.341	0.105	828682	keystroke_o	o	n/a
414.491	0.1055	828982	keystroke_r	r	n/a
414.686	0.09	829372	keystroke_e	e	n/a
414.941	0.105	829882	keystroke_d	d	n/a
416.7265	0.104	833453	keystroke_Key.space	Key.space	n/a
416.996	0.075	833992	keystroke_b	b	n/a
417.2055	0.0905	834411	keystroke_r	r	n/a
417.3265	0.15	834653	keystroke_i	i	n/a
417.5065	0.135	835013	keystroke_g	g	n/a
417.6865	0.1195	835373	keystroke_h	h	n/a
417.881	0.0905	835762	keystroke_t	t	n/a
418.046	0.0905	836092	keystroke_o	o	n/a
418.2565	0.1045	836513	keystroke_n	n	n/a
418.4515	0.075	836903	keystroke_Key.space	Key.space	n/a
418.631	0.1355	837262	keystroke_c	c	n/a
418.781	0.09	837562	keystroke_l	l	n/a
419.021	0.1055	838042	keystroke_u	u	n/a
419.1865	0.105	838373	keystroke_b	b	n/a
419.3965	0.0745	838793	keystroke_s	s	n/a
419.606	0.075	839212	keystroke_Key.enter	Key.enter	n/a
419.6865	5.7115	839373	prompt	n/a	mating formed anthony no\n
420.356	0.12	840712	keystroke_m	m	n/a
420.5065	0.075	841013	keystroke_a	a	n/a
420.731	0.075	841462	keystroke_t	t	n/a
420.986	0.09	841972	keystroke_i	i	n/a
421.181	0.1205	842362	keystroke_n	n	n/a
421.361	0.09	842722	keystroke_g	g	n/a
421.511	0.09	843022	keystroke_Key.space	Key.space	n/a
421.706	0.12	843412	keystroke_f	f	n/a
421.871	0.075	843742	keystroke_o	o	n/a
422.1565	0.105	844313	keystroke_r	r	n/a
422.2765	0.105	844553	keystroke_m	m	n/a
422.4865	0.045	844973	keystroke_e	e	n/a
422.6665	0.105	845333	keystroke_d	d	n/a
422.9215	0.075	845843	keystroke_Key.space	Key.space	n/a
423.0715	0.105	846143	keystroke_a	a	n/a
423.2665	0.09	846533	keystroke_n	n	n/a
423.581	0.09	847162	keystroke_t	t	n/a
423.747	0.104	847494	keystroke_h	h	n/a
423.926	0.09	847852	keystroke_o	o	n/a
424.136	0.0905	848272	keystroke_n	n	n/a
424.376	0.0905	848752	keystroke_y	y	n/a
424.5865	0.105	849173	keystroke_Key.space	Key.space	n/a
424.826	0.105	849652	keystroke_n	n	n/a
425.0965	0.0745	850193	keystroke_o	o	n/a
425.321	0.075	850642	keystroke_Key.enter	Key.enter	n/a
425.4035	7.7945	850807	prompt	n/a	accommodation loose tiger reports\n
426.0415	0.104	852083	keystroke_a	a	n/a
426.2655	0.0905	852531	keystroke_c	c	n/a
426.461	0.09	852922	keystroke_c	c	n/a
426.6855	0.0905	853371	keystroke_o	o	n/a
426.9265	0.105	853853	keystroke_m	m	n/a
427.181	0.105	854362	keystroke_m	m	n/a
427.436	0.09	854872	keystroke_o	o	n/a
427.602	0.104	855204	keystroke_d	d	n/a
427.811	0.105	855622	keystroke_a	a	n/a
428.036	0.0755	856072	keystroke_t	t	n/a
428.276	0.105	856552	keystroke_i	i	n/a
428.486	0.075	856972	keystroke_o	o	n/a
428.6965	0.0745	857393	keystroke_n	n	n/a
428.891	0.06	857782	keystroke_Key.space	Key.space	n/a
429.0715	0.0745	858143	keystroke_l	l	n/a
429.2815	0.06	858563	keystroke_o	o	n/a
429.4915	0.12	858983	keystroke_o	o	n/a
429.6265	0.105	859253	keystroke_s	s	n/a
429.866	0.1055	859732	keystroke_e	e	n/a
430.061	0.06	860122	keystroke_Key.space	Key.space	n/a
430.2265	0.075	860453	keystroke_t	t	n/a
430.4365	0.1045	860873	keystroke_i	i	n/a
430.526	0.09	861052	keystroke_g	g	n/a
430.736	0.105	861472	keystroke_e	e	n/a
430.946	0.105	861892	keystroke_r	r	n/a
431.3515	0.075	862703	keystroke_Key.space	Key.space	n/a
431.636	0.105	863272	keystroke_r	r	n/a
431.831	0.105	863662	keystroke_e	e	n/a
432.071	0.09	864142	keystroke_p	p	n/a
432.296	0.105	864592	keystroke_o	o	n/a
432.446	0.105	864892	keystroke_r	r	n/a
432.686	0.09	865372	keystroke_t	t	n/a
432.896	0.06	865792	keystroke_s	s	n/a
433.136	0.06	866272	keystroke_Key.enter	Key.enter	n/a
433.2015	6.6115	866403	prompt	n/a	poster knows contrast guest\n
433.916	0.075	867832	keystroke_p	p	n/a
434.141	0.105	868282	keystroke_o	o	n/a
434.231	0.105	868462	keystroke_s	s	n/a
434.486	0.091	868972	keystroke_t	t	n/a
434.711	0.106	869422	keystroke_e	e	n/a
434.921	0.106	869842	keystroke_r	r	n/a
435.086	0.105	870172	keystroke_Key.space	Key.space	n/a
435.327	0.089	870654	keystroke_k	k	n/a
435.5515	0.105	871103	keystroke_n	n	n/a
435.7915	0.105	871583	keystroke_o	o	n/a
435.9265	0.06	871853	keystroke_w	w	n/a
436.151	0.12	872302	keystroke_s	s	n/a
436.316	0.09	872632	keystroke_Key.space	Key.space	n/a
436.571	0.135	873142	keystroke_c	c	n/a
436.7365	0.12	873473	keystroke_o	o	n/a
436.961	0.1355	873922	keystroke_n	n	n/a
437.201	0.105	874402	keystroke_t	t	n/a
437.441	0.0605	874882	keystroke_r	r	n/a
437.681	0.0905	875362	keystroke_a	a	n/a
437.891	0.1055	875782	keystroke_s	s	n/a
438.2365	0.045	876473	keystroke_t	t	n/a
438.431	0.0755	876862	keystroke_Key.space	Key.space	n/a
438.6415	0.09	877283	keystroke_g	g	n/a
438.9565	0.045	877913	keystroke_u	u	n/a
439.091	0.0905	878182	keystroke_e	e	n/a
439.2865	0.12	878573	keystroke_s	s	n/a
439.541	0.09	879082	keystroke_t	t	n/a
439.751	0.0605	879502	keystroke_Key.enter	Key.enter	n/a
439.8175	7.9905	879635	prompt	n/a	personally collectible buddy brand\n
440.516	0.1205	881032	keystroke_p	p	n/a
440.726	0.12	881452	keystroke_e	e	n/a
440.921	0.09	881842	keystroke_r	r	n/a
441.116	0.075	882232	keystroke_s	s	n/a
441.296	0.105	882592	keystroke_o	o	n/a
441.536	0.0905	883072	keystroke_n	n	n/a
441.7465	0.09	883493	keystroke_a	a	n/a
441.8965	0.075	883793	keystroke_l	l	n/a
442.1065	0.105	884213	keystroke_l	l	n/a
442.392	0.105	884784	keystroke_y	y	n/a
442.616	0.0605	885232	keystroke_Key.space	Key.space	n/a
442.856	0.12	885712	keystroke_c	c	n/a
443.036	0.075	886072	keystroke_o	o	n/a
443.2915	0.09	886583	keystroke_l	l	n/a
443.516	0.15	887032	keystroke_l	l	n/a
443.6515	0.1045	887303	keystroke_e	e	n/a
443.861	0.1195	887722	keystroke_c	c	n/a
444.1765	0.06	888353	keystroke_t	t	n/a
444.3715	0.105	888743	keystroke_i	i	n/a
444.5065	0.0895	889013	keystroke_b	b	n/a
444.731	0.12	889462	keystroke_l	l	n/a
444.912	0.104	889824	keystroke_e	e	n/a
445.076	0.075	890152	keystroke_Key.space	Key.space	n/a
445.3165	0.0755	890633	keystroke_b	b	n/a
445.496	0.105	890992	keystroke_u	u	n/a
445.7815	0.0595	891563	keystroke_d	d	n/a
446.0215	0.1195	892043	keystroke_d	d	n/a
446.306	0.105	892612	keystroke_y	y	n/a
446.5165	0.075	893033	keystroke_Key.space	Key.space	n/a
446.741	0.075	893482	keystroke_b	b	n/a
446.951	0.105	893902	keystroke_r	r	n/a
447.146	0.105	894292	keystroke_a	a	n/a
447.341	0.09	894682	keystroke_n	n	n/a
447.506	0.105	895012	keystroke_d	d	n/a
447.746	0.06	895492	keystroke_Key.enter	Key.enter	n/a
447.813	7.0005	895626	prompt	n/a	server nested proposal nissan\n
448.5115	0.105	897023	keystroke_s	s	n/a
448.7665	0.105	897533	keystroke_e	e	n/a
448.9915	0.09	897983	keystroke_r	r	n/a
449.231	0.075	898462	keystroke_v	v	n/a
449.441	0.09	898882	keystroke_e	e	n/a
449.6665	0.09	899333	keystroke_r	r	n/a
449.906	0.075	899812	keystroke_Key.space	Key.space	n/a
450.146	0.09	900292	keystroke_n	n	n/a
450.221	0.075	900442	keystroke_e	e	n/a
450.4165	0.105	900833	keystroke_s	s	n/a
450.7015	0.09	901403	keystroke_t	t	n/a
450.8965	0.09	901793	keystroke_e	e	n/a
451.0915	0.12	902183	keystroke_d	d	n/a
451.2865	0.074	902573	keystroke_Key.space	Key.space	n/a
451.466	0.1505	902932	keystroke_p	p	n/a
451.6315	0.105	903263	keystroke_r	r	n/a
451.8265	0.119	903653	keystroke_o	o	n/a
452.306	0.1205	904612	keystroke_p	p	n/a
452.5165	0.135	905033	keystroke_o	o	n/a
452.6815	0.075	905363	keystroke_s	s	n/a
452.8615	0.12	905723	keystroke_a	a	n/a
453.0115	0.12	906023	keystroke_l	l	n/a
453.2065	0.09	906413	keystroke_Key.space	Key.space	n/a
453.461	0.135	906922	keystroke_n	n	n/a
453.6715	0.12	907343	keystroke_i	i	n/a
453.8965	0.09	907793	keystroke_s	s	n/a
454.0915	0.105	908183	keystroke_s	s	n/a
454.3165	0.09	908633	keystroke_a	a	n/a
454.4965	0.0745	908993	keystroke_n	n	n/a
454.736	0.0755	909472	keystroke_Key.enter	Key.enter	n/a
454.8175	9.3555	909635	prompt	n/a	african blocking montgomery something's\n
455.606	0.105	911212	keystroke_a	a	n/a
455.9065	0.015	911813	keystroke_f	f	n/a
455.9815	0.105	911963	keystroke_r	r	n/a
456.1455	0.106	912291	keystroke_i	i	n/a
456.2665	0.165	912533	keystroke_c	c	n/a
456.3865	0.089	912773	keystroke_a	a	n/a
456.536	0.12	913072	keystroke_n	n	n/a
456.821	0.075	913642	keystroke_Key.space	Key.space	n/a
457.1515	0.0895	914303	keystroke_b	b	n/a
457.361	0.105	914722	keystroke_l	l	n/a
457.6465	0.09	915293	keystroke_o	o	n/a
457.8555	0.09	915711	keystroke_c	c	n/a
457.991	0.1055	915982	keystroke_k	k	n/a
458.2165	0.089	916433	keystroke_i	i	n/a
458.4265	0.1045	916853	keystroke_n	n	n/a
458.711	0.045	917422	keystroke_g	g	n/a
458.816	0.06	917632	keystroke_Key.space	Key.space	n/a
459.086	0.105	918172	keystroke_m	m	n/a
459.3415	0.0895	918683	keystroke_o	o	n/a
459.566	0.105	919132	keystroke_n	n	n/a
459.851	0.075	919702	keystroke_t	t	n/a
460.106	0.105	920212	keystroke_g	g	n/a
460.2865	0.0895	920573	keystroke_o	o	n/a
460.5715	0.104	921143	keystroke_m	m	n/a
460.8105	0.136	921621	keystroke_e	e	n/a
461.0365	0.105	922073	keystroke_r	r	n/a
461.3205	0.0905	922641	keystroke_y	y	n/a
461.5315	0.0445	923063	keystroke_Key.space	Key.space	n/a
461.7265	0.1045	923453	keystroke_s	s	n/a
461.951	0.0905	923902	keystroke_o	o	n/a
462.1615	0.12	924323	keystroke_m	m	n/a
462.311	0.1205	924622	keystroke_e	e	n/a
462.5515	0.075	925103	keystroke_t	t	n/a
462.776	0.09	925552	keystroke_h	h	n/a
462.971	0.0905	925942	keystroke_i	i	n/a
463.1965	0.1045	926393	keystroke_n	n	n/a
463.4065	0.075	926813	keystroke_g	g	n/a
463.6015	0.105	927203	keystroke_'	'	n/a
463.8415	0.075	927683	keystroke_s	s	n/a
464.0815	0.0895	928163	keystroke_Key.enter	Key.enter	n/a
464.178	10.12	928356	prompt	n/a	conducting designing internship reasoning\n
464.9215	0.12	929843	keystroke_c	c	n/a
465.1015	0.09	930203	keystroke_o	o	n/a
465.3115	0.09	930623	keystroke_n	n	n/a
465.4765	0.105	930953	keystroke_d	d	n/a
465.6555	0.1055	931311	keystroke_u	u	n/a
465.776	0.12	931552	keystroke_c	c	n/a
466.076	0.06	932152	keystroke_t	t	n/a
466.301	0.06	932602	keystroke_i	i	n/a
466.511	0.075	933022	keystroke_n	n	n/a
466.617	0.074	933234	keystroke_g	g	n/a
466.751	0.0755	933502	keystroke_Key.space	Key.space	n/a
467.0515	0.09	934103	keystroke_d	d	n/a
467.2465	0.0895	934493	keystroke_e	e	n/a
467.471	0.09	934942	keystroke_s	s	n/a
467.6965	0.105	935393	keystroke_i	i	n/a
467.9215	0.0745	935843	keystroke_g	g	n/a
468.101	0.12	936202	keystroke_n	n	n/a
468.8665	0.12	937733	keystroke_i	i	n/a
469.106	0.1205	938212	keystroke_n	n	n/a
469.436	0.06	938872	keystroke_g	g	n/a
469.5715	0.074	939143	keystroke_Key.space	Key.space	n/a
469.8115	0.105	939623	keystroke_i	i	n/a
470.0365	0.1195	940073	keystroke_n	n	n/a
470.216	0.09	940432	keystroke_t	t	n/a
470.426	0.15	940852	keystroke_e	e	n/a
470.726	0.09	941452	keystroke_r	r	n/a
470.846	0.09	941692	keystroke_n	n	n/a
471.056	0.06	942112	keystroke_s	s	n/a
471.281	0.105	942562	keystroke_h	h	n/a
471.506	0.12	943012	keystroke_i	i	n/a
471.761	0.09	943522	keystroke_p	p	n/a
471.971	0.075	943942	keystroke_Key.space	Key.space	n/a
472.226	0.1055	944452	keystroke_r	r	n/a
472.4365	0.0895	944873	keystroke_e	e	n/a
472.676	0.0905	945352	keystroke_a	a	n/a
472.8865	0.09	945773	keystroke_s	s	n/a
473.126	0.105	946252	keystroke_o	o	n/a
473.351	0.12	946702	keystroke_n	n	n/a
473.5915	0.1045	947183	keystroke_i	i	n/a
473.801	0.09	947602	keystroke_n	n	n/a
473.996	0.0755	947992	keystroke_g	g	n/a
474.206	0.09	948412	keystroke_Key.enter	Key.enter	n/a
474.304	8.139	948608	prompt	n/a	token factors mounting pollution\n
474.9715	0.0745	949943	keystroke_t	t	n/a
475.2865	0.06	950573	keystroke_o	o	n/a
475.511	0.12	951022	keystroke_k	k	n/a
475.7355	0.106	951471	keystroke_e	e	n/a
475.8115	0.105	951623	keystroke_n	n	n/a
476.0515	0.075	952103	keystroke_Key.space	Key.space	n/a
476.246	0.09	952492	keystroke_f	f	n/a
476.426	0.135	952852	keystroke_a	a	n/a
476.666	0.12	953332	keystroke_c	c	n/a
476.9355	0.06	953871	keystroke_t	t	n/a
477.116	0.105	954232	keystroke_o	o	n/a
477.3705	0.075	954741	keystroke_r	r	n/a
477.5665	0.075	955133	keystroke_s	s	n/a
477.7165	0.075	955433	keystroke_Key.space	Key.space	n/a
477.9865	0.12	955973	keystroke_m	m	n/a
478.2265	0.0755	956453	keystroke_o	o	n/a
478.4515	0.075	956903	keystroke_u	u	n/a
478.691	0.1055	957382	keystroke_n	n	n/a
478.976	0.1045	957952	keystroke_t	t	n/a
479.1555	0.075	958311	keystroke_i	i	n/a
479.3655	0.105	958731	keystroke_n	n	n/a
479.5305	0.076	959061	keystroke_g	g	n/a
479.7715	0.06	959543	keystroke_Key.space	Key.space	n/a
480.0265	0.105	960053	keystroke_p	p	n/a
480.2665	0.089	960533	keystroke_o	o	n/a
480.5055	0.076	961011	keystroke_l	l	n/a
480.9265	0.0895	961853	keystroke_l	l	n/a
481.1965	0.104	962393	keystroke_u	u	n/a
481.3905	0.09	962781	keystroke_t	t	n/a
481.6315	0.1045	963263	keystroke_i	i	n/a
481.8715	0.075	963743	keystroke_o	o	n/a
482.081	0.0905	964162	keystroke_n	n	n/a
482.351	0.09	964702	keystroke_Key.enter	Key.enter	n/a
482.4485	8.379	964897	prompt	n/a	html connecticut appliance badly\n
483.1315	0.06	966263	keystroke_h	h	n/a
483.296	0.0745	966592	keystroke_t	t	n/a
483.551	0.105	967102	keystroke_m	m	n/a
483.836	0.0605	967672	keystroke_l	l	n/a
484.0165	0.09	968033	keystroke_Key.space	Key.space	n/a
484.361	0.0755	968722	keystroke_c	c	n/a
484.511	0.0915	969022	keystroke_o	o	n/a
484.7365	0.09	969473	keystroke_n	n	n/a
484.9455	0.12	969891	keystroke_n	n	n/a
485.081	0.1055	970162	keystroke_e	e	n/a
485.2915	0.1195	970583	keystroke_c	c	n/a
485.5615	0.075	971123	keystroke_t	t	n/a
485.7565	0.105	971513	keystroke_i	i	n/a
485.9065	0.135	971813	keystroke_c	c	n/a
486.1015	0.1205	972203	keystroke_u	u	n/a
486.297	0.089	972594	keystroke_t	t	n/a
486.476	0.12	972952	keystroke_Key.space	Key.space	n/a
486.626	0.106	973252	keystroke_a	a	n/a
486.8675	0.074	973735	keystroke_p	p	n/a
487.1065	0.075	974213	keystroke_p	p	n/a
487.331	0.1205	974662	keystroke_l	l	n/a
487.5865	0.105	975173	keystroke_i	i	n/a
487.7665	0.15	975533	keystroke_c	c	n/a
487.9915	0.075	975983	keystroke_a	a	n/a
488.2305	0.091	976461	keystroke_Key.backspace	Key.backspace	n/a
488.441	0.0905	976882	keystroke_Key.backspace	Key.backspace	n/a
488.561	0.1055	977122	keystroke_a	a	n/a
488.8765	0.09	977753	keystroke_n	n	n/a
489.071	0.12	978142	keystroke_c	c	n/a
489.296	0.1045	978592	keystroke_e	e	n/a
489.4755	0.0605	978951	keystroke_Key.space	Key.space	n/a
489.656	0.12	979312	keystroke_b	b	n/a
489.8805	0.09	979761	keystroke_a	a	n/a
490.0905	0.105	980181	keystroke_d	d	n/a
490.2105	0.0905	980421	keystroke_l	l	n/a
490.466	0.075	980932	keystroke_y	y	n/a
490.7515	0.0745	981503	keystroke_Key.enter	Key.enter	n/a
490.832	7.121	981664	prompt	n/a	cams william rarely breeding\n
491.591	0.09	983182	keystroke_c	c	n/a
491.846	0.075	983692	keystroke_a	a	n/a
492.0265	0.119	984053	keystroke_m	m	n/a
492.2805	0.091	984561	keystroke_s	s	n/a
492.4755	0.0755	984951	keystroke_Key.space	Key.space	n/a
492.731	0.09	985462	keystroke_w	w	n/a
492.926	0.09	985852	keystroke_i	i	n/a
493.211	0.03	986422	keystroke_l	l	n/a
493.541	0.1195	987082	keystroke_l	l	n/a
493.8255	0.09	987651	keystroke_i	i	n/a
494.036	0.1205	988072	keystroke_a	a	n/a
494.2315	0.105	988463	keystroke_m	m	n/a
494.4105	0.09	988821	keystroke_Key.space	Key.space	n/a
494.6205	0.0905	989241	keystroke_r	r	n/a
494.831	0.105	989662	keystroke_a	a	n/a
495.0565	0.09	990113	keystroke_r	r	n/a
495.2665	0.075	990533	keystroke_e	e	n/a
495.4755	0.12	990951	keystroke_l	l	n/a
495.7455	0.12	991491	keystroke_y	y	n/a
495.8505	0.105	991701	keystroke_Key.space	Key.space	n/a
496.1065	0.075	992213	keystroke_b	b	n/a
496.3615	0.075	992723	keystroke_r	r	n/a
496.5715	0.09	993143	keystroke_e	e	n/a
496.7815	0.089	993563	keystroke_e	e	n/a
496.9905	0.151	993981	keystroke_d	d	n/a
497.3065	0.06	994613	keystroke_i	i	n/a
497.501	0.0905	995002	keystroke_n	n	n/a
497.6665	0.06	995333	keystroke_g	g	n/a
497.8765	0.074	995753	keystroke_Key.enter	Key.enter	n/a
497.959	9.219	995918	prompt	n/a	cameras springfield silicon higher\n
498.551	0.12	997102	keystroke_c	c	n/a
498.731	0.105	997462	keystroke_a	a	n/a
498.926	0.075	997852	keystroke_m	m	n/a
499.1055	0.105	998211	keystroke_e	e	n/a
499.3305	0.09	998661	keystroke_r	r	n/a
499.5255	0.1055	999051	keystroke_a	a	n/a
499.7965	0.089	999593	keystroke_s	s	n/a
500.0505	0.075	1000101	keystroke_Key.space	Key.space	n/a
500.2015	0.089	1000403	keystroke_s	s	n/a
500.4565	0.09	1000913	keystroke_p	p	n/a
500.7115	0.105	1001423	keystroke_r	r	n/a
500.8465	0.105	1001693	keystroke_i	i	n/a
501.0865	0.12	1002173	keystroke_n	n	n/a
501.3265	0.0895	1002653	keystroke_g	g	n/a
501.626	0.0755	1003252	keystroke_i	i	n/a
501.9565	0.075	1003913	keystroke_Key.backspace	Key.backspace	n/a
502.241	0.0895	1004482	keystroke_f	f	n/a
502.406	0.105	1004812	keystroke_i	i	n/a
502.8565	0.075	1005713	keystroke_e	e	n/a
503.0815	0.0745	1006163	keystroke_l	l	n/a
503.3055	0.09	1006611	keystroke_d	d	n/a
503.5155	0.075	1007031	keystroke_Key.space	Key.space	n/a
503.7255	0.09	1007451	keystroke_s	s	n/a
503.9515	0.104	1007903	keystroke_i	i	n/a
504.1755	0.1055	1008351	keystroke_l	l	n/a
504.401	0.0895	1008802	keystroke_i	i	n/a
504.6555	0.105	1009311	keystroke_c	c	n/a
504.8505	0.0905	1009701	keystroke_o	o	n/a
505.0755	0.09	1010151	keystroke_n	n	n/a
505.361	0.06	1010722	keystroke_Key.space	Key.space	n/a
505.6605	0.09	1011321	keystroke_h	h	n/a
505.9015	0.12	1011803	keystroke_i	i	n/a
506.186	0.09	1012372	keystroke_g	g	n/a
506.381	0.105	1012762	keystroke_h	h	n/a
506.6055	0.075	1013211	keystroke_e	e	n/a
506.8455	0.105	1013691	keystroke_r	r	n/a
507.1165	0.06	1014233	keystroke_Key.enter	Key.enter	n/a
507.1835	8.0945	1014367	prompt	n/a	hydrogen shan't ma'am lucky\n
507.821	0.105	1015642	keystroke_h	h	n/a
508.0755	0.09	1016151	keystroke_y	y	n/a
508.481	0.105	1016962	keystroke_d	d	n/a
508.691	0.105	1017382	keystroke_r	r	n/a
508.886	0.09	1017772	keystroke_o	o	n/a
509.051	0.0905	1018102	keystroke_g	g	n/a
509.2765	0.0895	1018553	keystroke_e	e	n/a
509.4105	0.06	1018821	keystroke_n	n	n/a
509.6205	0.075	1019241	keystroke_Key.space	Key.space	n/a
509.8155	0.1205	1019631	keystroke_s	s	n/a
510.146	0.0905	1020292	keystroke_a	a	n/a
511.1365	0.09	1022273	keystroke_Key.backspace	Key.backspace	n/a
511.3915	0.09	1022783	keystroke_h	h	n/a
511.4965	0.09	1022993	keystroke_a	a	n/a
511.6615	0.09	1023323	keystroke_n	n	n/a
511.8715	0.105	1023743	keystroke_'	'	n/a
512.096	0.0605	1024192	keystroke_t	t	n/a
512.2465	0.075	1024493	keystroke_Key.space	Key.space	n/a
512.4855	0.075	1024971	keystroke_m	m	n/a
512.6355	0.09	1025271	keystroke_a	a	n/a
512.8605	0.12	1025721	keystroke_'	'	n/a
513.281	0.09	1026562	keystroke_a	a	n/a
513.506	0.12	1027012	keystroke_m	m	n/a
513.701	0.09	1027402	keystroke_Key.space	Key.space	n/a
514.076	0.12	1028152	keystroke_l	l	n/a
514.316	0.0905	1028632	keystroke_u	u	n/a
514.556	0.12	1029112	keystroke_c	c	n/a
514.766	0.075	1029532	keystroke_k	k	n/a
514.9915	0.1045	1029983	keystroke_y	y	n/a
515.201	0.0755	1030402	keystroke_Key.enter	Key.enter	n/a
515.282	6.1455	1030564	prompt	n/a	wave config supplier sales\n
515.936	0.075	1031872	keystroke_w	w	n/a
516.131	0.12	1032262	keystroke_a	a	n/a
516.356	0.105	1032712	keystroke_v	v	n/a
516.5965	0.09	1033193	keystroke_e	e	n/a
516.8665	0.075	1033733	keystroke_Key.space	Key.space	n/a
517.016	0.135	1034032	keystroke_c	c	n/a
517.2115	0.1045	1034423	keystroke_o	o	n/a
517.451	0.1205	1034902	keystroke_n	n	n/a
517.7665	0.105	1035533	keystroke_f	f	n/a
517.9165	0.12	1035833	keystroke_i	i	n/a
518.1115	0.06	1036223	keystroke_g	g	n/a
518.3205	0.061	1036641	keystroke_Key.space	Key.space	n/a
518.4565	0.09	1036913	keystroke_s	s	n/a
518.756	0.09	1037512	keystroke_u	u	n/a
518.9665	0.105	1037933	keystroke_p	p	n/a
519.1765	0.1045	1038353	keystroke_p	p	n/a
519.476	0.09	1038952	keystroke_l	l	n/a
519.701	0.1205	1039402	keystroke_i	i	n/a
519.9265	0.1195	1039853	keystroke_e	e	n/a
520.136	0.0905	1040272	keystroke_r	r	n/a
520.2705	0.076	1040541	keystroke_Key.space	Key.space	n/a
520.4065	0.09	1040813	keystroke_s	s	n/a
520.6015	0.1045	1041203	keystroke_a	a	n/a
520.781	0.09	1041562	keystroke_l	l	n/a
520.991	0.06	1041982	keystroke_e	e	n/a
521.186	0.075	1042372	keystroke_s	s	n/a
521.336	0.09	1042672	keystroke_Key.enter	Key.enter	n/a
521.434	6.309	1042868	prompt	n/a	prior promotion sink shots\n
522.071	0.0905	1044142	keystroke_p	p	n/a
522.281	0.09	1044562	keystroke_r	r	n/a
522.521	0.075	1045042	keystroke_i	i	n/a
522.746	0.09	1045492	keystroke_o	o	n/a
522.9855	0.105	1045971	keystroke_r	r	n/a
523.1355	0.0755	1046271	keystroke_Key.space	Key.space	n/a
523.3915	0.105	1046783	keystroke_p	p	n/a
523.6015	0.0745	1047203	keystroke_r	r	n/a
523.796	0.09	1047592	keystroke_o	o	n/a
524.0665	0.09	1048133	keystroke_m	m	n/a
524.306	0.09	1048612	keystroke_o	o	n/a
524.516	0.075	1049032	keystroke_t	t	n/a
524.756	0.09	1049512	keystroke_i	i	n/a
524.981	0.0905	1049962	keystroke_o	o	n/a
525.2055	0.0905	1050411	keystroke_n	n	n/a
525.401	0.09	1050802	keystroke_Key.space	Key.space	n/a
525.626	0.1205	1051252	keystroke_s	s	n/a
525.7605	0.106	1051521	keystroke_i	i	n/a
526.061	0.12	1052122	keystroke_n	n	n/a
526.3015	0.1045	1052603	keystroke_k	k	n/a
526.5115	0.0895	1053023	keystroke_Key.space	Key.space	n/a
526.6615	0.1195	1053323	keystroke_s	s	n/a
526.811	0.105	1053622	keystroke_h	h	n/a
527.0365	0.105	1054073	keystroke_o	o	n/a
527.2465	0.089	1054493	keystroke_t	t	n/a
527.4265	0.0745	1054853	keystroke_s	s	n/a
527.651	0.0895	1055302	keystroke_Key.enter	Key.enter	n/a
527.7495	7.7635	1055499	prompt	n/a	uniprotkb motorola char bulletin\n
528.581	0.0755	1057162	keystroke_u	u	n/a
528.8215	0.075	1057643	keystroke_n	n	n/a
529.0005	0.1205	1058001	keystroke_i	i	n/a
529.2415	0.149	1058483	keystroke_p	p	n/a
529.4515	0.134	1058903	keystroke_r	r	n/a
529.7205	0.135	1059441	keystroke_o	o	n/a
529.931	0.075	1059862	keystroke_t	t	n/a
530.126	0.121	1060252	keystroke_k	k	n/a
530.4105	0.076	1060821	keystroke_b	b	n/a
530.6055	0.075	1061211	keystroke_Key.space	Key.space	n/a
530.8455	0.1065	1061691	keystroke_m	m	n/a
531.086	0.075	1062172	keystroke_o	o	n/a
531.221	0.1055	1062442	keystroke_t	t	n/a
531.4765	0.1195	1062953	keystroke_o	o	n/a
531.6115	0.1045	1063223	keystroke_r	r	n/a
531.776	0.105	1063552	keystroke_o	o	n/a
532.031	0.09	1064062	keystroke_l	l	n/a
532.181	0.15	1064362	keystroke_a	a	n/a
532.451	0.075	1064902	keystroke_Key.space	Key.space	n/a
532.7215	0.1345	1065443	keystroke_c	c	n/a
532.916	0.1055	1065832	keystroke_h	h	n/a
533.0515	0.09	1066103	keystroke_a	a	n/a
533.2905	0.0605	1066581	keystroke_r	r	n/a
533.576	0.075	1067152	keystroke_Key.space	Key.space	n/a
533.786	0.09	1067572	keystroke_b	b	n/a
533.9515	0.1195	1067903	keystroke_u	u	n/a
534.206	0.075	1068412	keystroke_l	l	n/a
534.4165	0.105	1068833	keystroke_l	l	n/a
534.5365	0.12	1069073	keystroke_e	e	n/a
534.7615	0.105	1069523	keystroke_t	t	n/a
535.016	0.0905	1070032	keystroke_i	i	n/a
535.2115	0.0895	1070423	keystroke_n	n	n/a
535.436	0.075	1070872	keystroke_Key.enter	Key.enter	n/a
535.5175	8.5605	1071035	prompt	n/a	tags official intervals alternatively\n
536.262	0.089	1072524	keystroke_t	t	n/a
536.4265	0.135	1072853	keystroke_a	a	n/a
536.636	0.1055	1073272	keystroke_g	g	n/a
536.8305	0.09	1073661	keystroke_s	s	n/a
537.057	0.074	1074114	keystroke_Key.space	Key.space	n/a
537.281	0.105	1074562	keystroke_o	o	n/a
537.476	0.1055	1074952	keystroke_f	f	n/a
537.731	0.12	1075462	keystroke_f	f	n/a
537.911	0.12	1075822	keystroke_i	i	n/a
538.046	0.135	1076092	keystroke_c	c	n/a
538.256	0.09	1076512	keystroke_i	i	n/a
538.4505	0.12	1076901	keystroke_a	a	n/a
538.6005	0.105	1077201	keystroke_l	l	n/a
538.7655	0.135	1077531	keystroke_Key.space	Key.space	n/a
539.0805	0.091	1078161	keystroke_i	i	n/a
539.3355	0.1205	1078671	keystroke_n	n	n/a
539.5005	0.105	1079001	keystroke_t	t	n/a
539.726	0.105	1079452	keystroke_e	e	n/a
539.936	0.09	1079872	keystroke_r	r	n/a
540.191	0.105	1080382	keystroke_v	v	n/a
540.416	0.09	1080832	keystroke_a	a	n/a
540.611	0.12	1081222	keystroke_l	l	n/a
540.9405	0.1055	1081881	keystroke_s	s	n/a
541.0905	0.06	1082181	keystroke_Key.space	Key.space	n/a
541.346	0.1355	1082692	keystroke_a	a	n/a
541.5115	0.15	1083023	keystroke_l	l	n/a
541.7215	0.104	1083443	keystroke_t	t	n/a
541.9455	0.0905	1083891	keystroke_e	e	n/a
542.1565	0.089	1084313	keystroke_r	r	n/a
542.3955	0.121	1084791	keystroke_n	n	n/a
542.4705	0.1355	1084941	keystroke_a	a	n/a
542.757	0.059	1085514	keystroke_t	t	n/a
543.0105	0.09	1086021	keystroke_i	i	n/a
543.1455	0.0905	1086291	keystroke_v	v	n/a
543.3555	0.105	1086711	keystroke_e	e	n/a
543.5355	0.0755	1087071	keystroke_l	l	n/a
543.7755	0.0755	1087551	keystroke_y	y	n/a
544.0005	0.075	1088001	keystroke_Key.enter	Key.enter	n/a
544.082	6.3105	1088164	prompt	n/a	thrown fiber fashion brown\n
544.7665	0.1045	1089533	keystroke_t	t	n/a
544.931	0.1045	1089862	keystroke_h	h	n/a
545.081	0.12	1090162	keystroke_r	r	n/a
545.246	0.105	1090492	keystroke_o	o	n/a
545.396	0.105	1090792	keystroke_w	w	n/a
545.6215	0.0745	1091243	keystroke_n	n	n/a
545.861	0.06	1091722	keystroke_Key.space	Key.space	n/a
546.116	0.1045	1092232	keystroke_f	f	n/a
546.2655	0.1205	1092531	keystroke_i	i	n/a
546.581	0.045	1093162	keystroke_b	b	n/a
546.821	0.105	1093642	keystroke_e	e	n/a
547.0455	0.0905	1094091	keystroke_r	r	n/a
547.271	0.0445	1094542	keystroke_Key.space	Key.space	n/a
547.466	0.105	1094932	keystroke_f	f	n/a
547.691	0.135	1095382	keystroke_a	a	n/a
547.931	0.0905	1095862	keystroke_s	s	n/a
548.186	0.09	1096372	keystroke_h	h	n/a
548.3965	0.0895	1096793	keystroke_i	i	n/a
548.636	0.06	1097272	keystroke_o	o	n/a
548.846	0.06	1097692	keystroke_n	n	n/a
549.0705	0.075	1098141	keystroke_Key.space	Key.space	n/a
549.371	0.09	1098742	keystroke_b	b	n/a
549.611	0.075	1099222	keystroke_r	r	n/a
549.746	0.075	1099492	keystroke_o	o	n/a
549.941	0.0595	1099882	keystroke_w	w	n/a
550.0755	0.045	1100151	keystroke_n	n	n/a
550.301	0.09	1100602	keystroke_Key.enter	Key.enter	n/a
550.398	8.6345	1100796	prompt	n/a	passed drew hughes requires\n
551.066	0.075	1102132	keystroke_o	o	n/a
551.186	0.09	1102372	keystroke_a	a	n/a
551.4715	0.1045	1102943	keystroke_s	s	n/a
551.831	0.075	1103662	keystroke_Key.backspace	Key.backspace	n/a
552.056	0.075	1104112	keystroke_Key.backspace	Key.backspace	n/a
552.281	0.075	1104562	keystroke_Key.backspace	Key.backspace	n/a
552.806	0.105	1105612	keystroke_p	p	n/a
553.061	0.0905	1106122	keystroke_a	a	n/a
553.271	0.09	1106542	keystroke_s	s	n/a
553.4965	0.0895	1106993	keystroke_s	s	n/a
553.751	0.06	1107502	keystroke_e	e	n/a
553.946	0.1045	1107892	keystroke_d	d	n/a
554.096	0.0745	1108192	keystroke_Key.space	Key.space	n/a
554.3955	0.12	1108791	keystroke_d	d	n/a
554.666	0.1055	1109332	keystroke_r	r	n/a
554.8905	0.105	1109781	keystroke_e	e	n/a
555.1455	0.09	1110291	keystroke_w	w	n/a
555.4605	0.0455	1110921	keystroke_Key.space	Key.space	n/a
555.686	0.09	1111372	keystroke_h	h	n/a
555.896	0.105	1111792	keystroke_u	u	n/a
556.121	0.12	1112242	keystroke_g	g	n/a
556.286	0.105	1112572	keystroke_h	h	n/a
556.511	0.06	1113022	keystroke_e	e	n/a
556.706	0.105	1113412	keystroke_s	s	n/a
556.886	0.045	1113772	keystroke_Key.space	Key.space	n/a
557.171	0.105	1114342	keystroke_r	r	n/a
557.396	0.075	1114792	keystroke_e	e	n/a
557.591	0.1055	1115182	keystroke_q	q	n/a
557.801	0.09	1115602	keystroke_u	u	n/a
558.0265	0.1345	1116053	keystroke_i	i	n/a
558.281	0.09	1116562	keystroke_r	r	n/a
558.506	0.0755	1117012	keystroke_e	e	n/a
558.7315	0.075	1117463	keystroke_s	s	n/a
558.9415	0.09	1117883	keystroke_Key.enter	Key.enter	n/a
559.04	6.9075	1118080	prompt	n/a	pump confirmation full tomorrow\n
559.616	0.09	1119232	keystroke_p	p	n/a
559.841	0.075	1119682	keystroke_u	u	n/a
560.066	0.105	1120132	keystroke_m	m	n/a
560.2755	0.09	1120551	keystroke_p	p	n/a
560.4405	0.0905	1120881	keystroke_Key.space	Key.space	n/a
560.726	0.1355	1121452	keystroke_c	c	n/a
560.8615	0.119	1121723	keystroke_o	o	n/a
561.1005	0.1055	1122201	keystroke_n	n	n/a
561.266	0.12	1122532	keystroke_f	f	n/a
561.431	0.105	1122862	keystroke_i	i	n/a
561.596	0.1355	1123192	keystroke_r	r	n/a
561.7165	0.135	1123433	keystroke_m	m	n/a
561.8965	0.0895	1123793	keystroke_a	a	n/a
562.0915	0.105	1124183	keystroke_t	t	n/a
562.346	0.1045	1124692	keystroke_i	i	n/a
562.5705	0.09	1125141	keystroke_o	o	n/a
562.781	0.075	1125562	keystroke_n	n	n/a
562.9905	0.06	1125981	keystroke_Key.space	Key.space	n/a
563.1255	0.136	1126251	keystroke_f	f	n/a
563.2915	0.09	1126583	keystroke_u	u	n/a
563.5765	0.074	1127153	keystroke_l	l	n/a
563.8015	0.075	1127603	keystroke_l	l	n/a
563.996	0.09	1127992	keystroke_Key.space	Key.space	n/a
564.161	0.105	1128322	keystroke_t	t	n/a
564.3705	0.0905	1128741	keystroke_o	o	n/a
564.626	0.105	1129252	keystroke_m	m	n/a
564.8355	0.091	1129671	keystroke_o	o	n/a
565.046	0.105	1130092	keystroke_r	r	n/a
565.271	0.12	1130542	keystroke_r	r	n/a
565.511	0.105	1131022	keystroke_o	o	n/a
565.646	0.0895	1131292	keystroke_w	w	n/a
565.886	0.0595	1131772	keystroke_Key.enter	Key.enter	n/a
565.9515	8.111	1131903	prompt	n/a	cathedral jobs somewhat produce\n
566.6055	0.136	1133211	keystroke_c	c	n/a
566.846	0.135	1133692	keystroke_a	a	n/a
567.1465	0.06	1134293	keystroke_t	t	n/a
567.251	0.0905	1134502	keystroke_h	h	n/a
567.4615	0.0895	1134923	keystroke_e	e	n/a
567.686	0.105	1135372	keystroke_d	d	n/a
567.9105	0.1355	1135821	keystroke_e	e	n/a
568.3305	0.0905	1136661	keystroke_Key.backspace	Key.backspace	n/a
568.467	0.074	1136934	keystroke_r	r	n/a
568.631	0.1055	1137262	keystroke_a	a	n/a
568.8865	0.105	1137773	keystroke_l	l	n/a
569.126	0.06	1138252	keystroke_Key.space	Key.space	n/a
569.8455	0.046	1139691	keystroke_j	j	n/a
569.9665	0.089	1139933	keystroke_o	o	n/a
570.1015	0.09	1140203	keystroke_b	b	n/a
570.356	0.06	1140712	keystroke_s	s	n/a
570.521	0.075	1141042	keystroke_Key.space	Key.space	n/a
570.971	0.0905	1141942	keystroke_s	s	n/a
571.166	0.09	1142332	keystroke_o	o	n/a
571.3905	0.105	1142781	keystroke_m	m	n/a
571.526	0.105	1143052	keystroke_e	e	n/a
571.7965	0.0745	1143593	keystroke_w	w	n/a
571.946	0.105	1143892	keystroke_h	h	n/a
572.051	0.165	1144102	keystroke_a	a	n/a
572.2915	0.089	1144583	keystroke_t	t	n/a
572.4255	0.075	1144851	keystroke_Key.space	Key.space	n/a
572.6505	0.1055	1145301	keystroke_p	p	n/a
572.726	0.12	1145452	keystroke_r	r	n/a
572.966	0.12	1145932	keystroke_o	o	n/a
573.101	0.12	1146202	keystroke_d	d	n/a
573.311	0.09	1146622	keystroke_u	u	n/a
573.4465	0.12	1146893	keystroke_c	c	n/a
573.716	0.06	1147432	keystroke_e	e	n/a
573.986	0.075	1147972	keystroke_Key.enter	Key.enter	n/a
574.067	5.351	1148134	prompt	n/a	fifty quiet jacob hire\n
574.8865	0.0445	1149773	keystroke_f	f	n/a
574.991	0.0905	1149982	keystroke_i	i	n/a
575.1405	0.136	1150281	keystroke_f	f	n/a
575.4415	0.06	1150883	keystroke_t	t	n/a
575.6665	0.074	1151333	keystroke_y	y	n/a
575.891	0.075	1151782	keystroke_Key.space	Key.space	n/a
576.0255	0.121	1152051	keystroke_q	q	n/a
576.1765	0.1195	1152353	keystroke_u	u	n/a
576.446	0.105	1152892	keystroke_i	i	n/a
576.596	0.12	1153192	keystroke_e	e	n/a
576.851	0.105	1153702	keystroke_t	t	n/a
577.0605	0.045	1154121	keystroke_Key.space	Key.space	n/a
577.301	0.075	1154602	keystroke_j	j	n/a
577.4355	0.1055	1154871	keystroke_a	a	n/a
577.646	0.1195	1155292	keystroke_c	c	n/a
577.7965	0.12	1155593	keystroke_o	o	n/a
578.1105	0.076	1156221	keystroke_b	b	n/a
578.3805	0.0755	1156761	keystroke_Key.space	Key.space	n/a
578.607	0.0885	1157214	keystroke_h	h	n/a
578.816	0.135	1157632	keystroke_i	i	n/a
578.966	0.075	1157932	keystroke_r	r	n/a
579.146	0.1055	1158292	keystroke_e	e	n/a
579.356	0.0595	1158712	keystroke_Key.enter	Key.enter	n/a
579.422	7.631	1158844	prompt	n/a	coordinator reduced exotic membrane\n
580.121	0.1345	1160242	keystroke_c	c	n/a
580.3015	0.09	1160603	keystroke_o	o	n/a
580.556	0.09	1161112	keystroke_o	o	n/a
580.676	0.09	1161352	keystroke_r	r	n/a
580.901	0.135	1161802	keystroke_d	d	n/a
581.021	0.1195	1162042	keystroke_i	i	n/a
581.2455	0.1355	1162491	keystroke_n	n	n/a
581.336	0.09	1162672	keystroke_a	a	n/a
581.546	0.075	1163092	keystroke_t	t	n/a
581.6815	0.1195	1163363	keystroke_o	o	n/a
581.816	0.0905	1163632	keystroke_r	r	n/a
581.9655	0.061	1163931	keystroke_Key.space	Key.space	n/a
582.3115	0.06	1164623	keystroke_r	r	n/a
582.5215	0.105	1165043	keystroke_e	e	n/a
582.747	0.119	1165494	keystroke_d	d	n/a
583.001	0.105	1166002	keystroke_u	u	n/a
583.151	0.0905	1166302	keystroke_c	c	n/a
583.3765	0.0445	1166753	keystroke_e	e	n/a
583.556	0.12	1167112	keystroke_d	d	n/a
583.706	0.075	1167412	keystroke_Key.space	Key.space	n/a
583.901	0.075	1167802	keystroke_e	e	n/a
584.1255	0.135	1168251	keystroke_x	x	n/a
584.291	0.12	1168582	keystroke_o	o	n/a
584.5165	0.089	1169033	keystroke_t	t	n/a
584.6965	0.135	1169393	keystroke_i	i	n/a
584.8465	0.0895	1169693	keystroke_c	c	n/a
585.0105	0.0905	1170021	keystroke_Key.space	Key.space	n/a
585.2815	0.12	1170563	keystroke_m	m	n/a
585.4315	0.1495	1170863	keystroke_e	e	n/a
585.656	0.09	1171312	keystroke_m	m	n/a
585.881	0.06	1171762	keystroke_b	b	n/a
586.106	0.075	1172212	keystroke_r	r	n/a
586.2405	0.1055	1172481	keystroke_a	a	n/a
586.541	0.06	1173082	keystroke_n	n	n/a
586.7665	0.06	1173533	keystroke_e	e	n/a
586.9615	0.089	1173923	keystroke_Key.enter	Key.enter	n/a
587.057	7.391	1174114	prompt	n/a	ottawa regions intervals induced\n
587.7265	0.12	1175453	keystroke_o	o	n/a
587.9665	0.06	1175933	keystroke_t	t	n/a
588.206	0.09	1176412	keystroke_t	t	n/a
588.3865	0.105	1176773	keystroke_a	a	n/a
588.5965	0.075	1177193	keystroke_w	w	n/a
588.791	0.1495	1177582	keystroke_a	a	n/a
589.0455	0.075	1178091	keystroke_Key.space	Key.space	n/a
589.1805	0.1205	1178361	keystroke_r	r	n/a
589.3915	0.1495	1178783	keystroke_e	e	n/a
589.6455	0.121	1179291	keystroke_g	g	n/a
589.826	0.135	1179652	keystroke_i	i	n/a
590.066	0.09	1180132	keystroke_o	o	n/a
590.261	0.0905	1180522	keystroke_n	n	n/a
590.3815	0.12	1180763	keystroke_s	s	n/a
590.5615	0.075	1181123	keystroke_Key.space	Key.space	n/a
590.786	0.1055	1181572	keystroke_i	i	n/a
591.0115	0.12	1182023	keystroke_n	n	n/a
591.3415	0.075	1182683	keystroke_t	t	n/a
591.5815	0.104	1183163	keystroke_e	e	n/a
591.7905	0.0755	1183581	keystroke_r	r	n/a
592.0605	0.091	1184121	keystroke_v	v	n/a
592.2405	0.106	1184481	keystroke_a	a	n/a
592.406	0.105	1184812	keystroke_l	l	n/a
592.6315	0.105	1185263	keystroke_s	s	n/a
592.796	0.0605	1185592	keystroke_Key.space	Key.space	n/a
593.021	0.075	1186042	keystroke_i	i	n/a
593.2005	0.1055	1186401	keystroke_n	n	n/a
593.366	0.12	1186732	keystroke_d	d	n/a
593.531	0.0895	1187062	keystroke_u	u	n/a
593.6965	0.1195	1187393	keystroke_c	c	n/a
593.966	0.06	1187932	keystroke_e	e	n/a
594.161	0.105	1188322	keystroke_d	d	n/a
594.371	0.0745	1188742	keystroke_Key.enter	Key.enter	n/a
594.4525	9.2055	1188905	prompt	n/a	hewlett somebody's largest associations\n
595.2715	0.089	1190543	keystroke_h	h	n/a
595.4205	0.091	1190841	keystroke_e	e	n/a
595.6755	0.075	1191351	keystroke_w	w	n/a
595.916	0.105	1191832	keystroke_l	l	n/a
596.036	0.105	1192072	keystroke_e	e	n/a
596.3205	0.09	1192641	keystroke_t	t	n/a
596.5605	0.09	1193121	keystroke_t	t	n/a
596.771	0.0445	1193542	keystroke_Key.space	Key.space	n/a
596.9355	0.091	1193871	keystroke_s	s	n/a
597.101	0.105	1194202	keystroke_o	o	n/a
597.341	0.075	1194682	keystroke_m	m	n/a
597.506	0.105	1195012	keystroke_e	e	n/a
597.776	0.06	1195552	keystroke_b	b	n/a
597.911	0.1055	1195822	keystroke_o	o	n/a
598.1365	0.0895	1196273	keystroke_d	d	n/a
598.241	0.075	1196482	keystroke_y	y	n/a
598.4955	0.105	1196991	keystroke_'	'	n/a
598.7355	0.09	1197471	keystroke_s	s	n/a
598.9755	0.06	1197951	keystroke_Key.space	Key.space	n/a
599.2015	0.149	1198403	keystroke_l	l	n/a
599.3515	0.075	1198703	keystroke_a	a	n/a
599.5765	0.075	1199153	keystroke_r	r	n/a
599.8465	0.075	1199693	keystroke_g	g	n/a
600.0415	0.09	1200083	keystroke_e	e	n/a
600.3105	0.105	1200621	keystroke_s	s	n/a
600.5965	0.0595	1201193	keystroke_t	t	n/a
600.806	0.075	1201612	keystroke_Key.space	Key.space	n/a
601.091	0.105	1202182	keystroke_a	a	n/a
601.331	0.09	1202662	keystroke_s	s	n/a
601.571	0.12	1203142	keystroke_s	s	n/a
601.8405	0.09	1203681	keystroke_o	o	n/a
602.0805	0.12	1204161	keystroke_c	c	n/a
602.2305	0.12	1204461	keystroke_i	i	n/a
602.3805	0.105	1204761	keystroke_a	a	n/a
602.5755	0.075	1205151	keystroke_t	t	n/a
602.8005	0.1055	1205601	keystroke_i	i	n/a
603.0255	0.075	1206051	keystroke_o	o	n/a
603.206	0.105	1206412	keystroke_n	n	n/a
603.386	0.09	1206772	keystroke_s	s	n/a
603.596	0.0605	1207192	keystroke_Key.enter	Key.enter	n/a
603.6655	8.7525	1207331	prompt	n/a	interventions vsnet gentleman motion\n
604.241	0.075	1208482	keystroke_i	i	n/a
604.481	0.12	1208962	keystroke_n	n	n/a
604.706	0.1055	1209412	keystroke_t	t	n/a
604.9615	0.1195	1209923	keystroke_e	e	n/a
605.171	0.075	1210342	keystroke_r	r	n/a
605.396	0.09	1210792	keystroke_v	v	n/a
605.606	0.12	1211212	keystroke_e	e	n/a
605.786	0.0755	1211572	keystroke_n	n	n/a
605.9215	0.075	1211843	keystroke_t	t	n/a
606.1765	0.089	1212353	keystroke_i	i	n/a
606.3855	0.121	1212771	keystroke_o	o	n/a
606.6705	0.076	1213341	keystroke_n	n	n/a
606.8515	0.105	1213703	keystroke_s	s	n/a
607.0765	0.0595	1214153	keystroke_Key.space	Key.space	n/a
607.3765	0.045	1214753	keystroke_v	v	n/a
607.6765	0.104	1215353	keystroke_s	s	n/a
607.8265	0.1045	1215653	keystroke_n	n	n/a
608.0655	0.076	1216131	keystroke_e	e	n/a
608.291	0.09	1216582	keystroke_t	t	n/a
608.456	0.075	1216912	keystroke_Key.space	Key.space	n/a
608.6215	0.105	1217243	keystroke_g	g	n/a
608.876	0.12	1217752	keystroke_e	e	n/a
609.1015	0.0895	1218203	keystroke_n	n	n/a
609.2815	0.074	1218563	keystroke_t	t	n/a
609.446	0.12	1218892	keystroke_l	l	n/a
609.641	0.105	1219282	keystroke_e	e	n/a
609.941	0.09	1219882	keystroke_m	m	n/a
610.1515	0.1045	1220303	keystroke_a	a	n/a
610.376	0.075	1220752	keystroke_n	n	n/a
610.571	0.1055	1221142	keystroke_Key.space	Key.space	n/a
610.8715	0.105	1221743	keystroke_m	m	n/a
611.141	0.09	1222282	keystroke_o	o	n/a
611.396	0.075	1222792	keystroke_t	t	n/a
611.606	0.105	1223212	keystroke_i	i	n/a
611.8615	0.0595	1223723	keystroke_o	o	n/a
612.1165	0.075	1224233	keystroke_n	n	n/a
612.3415	0.075	1224683	keystroke_Key.enter	Key.enter	n/a
612.4235	8.004	1224847	prompt	n/a	deck carrier sudan absolutely\n
613.091	0.105	1226182	keystroke_d	d	n/a
613.3005	0.105	1226601	keystroke_e	e	n/a
613.6015	0.09	1227203	keystroke_c	c	n/a
613.7815	0.105	1227563	keystroke_k	k	n/a
614.0065	0.105	1228013	keystroke_Key.space	Key.space	n/a
614.2015	0.1195	1228403	keystroke_c	c	n/a
614.4565	0.12	1228913	keystroke_a	a	n/a
614.711	0.06	1229422	keystroke_r	r	n/a
614.936	0.1045	1229872	keystroke_r	r	n/a
615.176	0.09	1230352	keystroke_i	i	n/a
615.3115	0.09	1230623	keystroke_e	e	n/a
615.5215	0.105	1231043	keystroke_r	r	n/a
615.7165	0.06	1231433	keystroke_Key.space	Key.space	n/a
615.956	0.105	1231912	keystroke_s	s	n/a
616.196	0.12	1232392	keystroke_u	u	n/a
616.5865	0.135	1233173	keystroke_a	a	n/a
617.0055	0.09	1234011	keystroke_Key.backspace	Key.backspace	n/a
617.2465	0.09	1234493	keystroke_d	d	n/a
617.4265	0.12	1234853	keystroke_a	a	n/a
617.7115	0.0145	1235423	keystroke_n	n	n/a
617.861	0.0745	1235722	keystroke_Key.space	Key.space	n/a
618.0865	0.1195	1236173	keystroke_a	a	n/a
618.356	0.075	1236712	keystroke_b	b	n/a
618.5515	0.135	1237103	keystroke_s	s	n/a
618.746	0.09	1237492	keystroke_o	o	n/a
618.956	0.12	1237912	keystroke_l	l	n/a
619.196	0.106	1238392	keystroke_u	u	n/a
619.391	0.0905	1238782	keystroke_t	t	n/a
619.6015	0.09	1239203	keystroke_e	e	n/a
619.8255	0.1055	1239651	keystroke_l	l	n/a
620.096	0.0905	1240192	keystroke_y	y	n/a
620.381	0.045	1240762	keystroke_Key.enter	Key.enter	n/a
620.4345	6.503	1240869	prompt	n/a	poet hearts taste remember\n
621.176	0.0905	1242352	keystroke_p	p	n/a
621.386	0.105	1242772	keystroke_o	o	n/a
621.596	0.12	1243192	keystroke_e	e	n/a
621.851	0.075	1243702	keystroke_t	t	n/a
622.046	0.06	1244092	keystroke_Key.space	Key.space	n/a
622.286	0.105	1244572	keystroke_h	h	n/a
622.436	0.1195	1244872	keystroke_e	e	n/a
622.6915	0.1345	1245383	keystroke_a	a	n/a
622.931	0.075	1245862	keystroke_r	r	n/a
623.1415	0.075	1246283	keystroke_t	t	n/a
623.3655	0.075	1246731	keystroke_s	s	n/a
623.606	0.06	1247212	keystroke_Key.space	Key.space	n/a
623.8915	0.09	1247783	keystroke_t	t	n/a
624.1165	0.119	1248233	keystroke_a	a	n/a
624.356	0.0895	1248712	keystroke_s	s	n/a
624.611	0.0745	1249222	keystroke_t	t	n/a
624.806	0.0895	1249612	keystroke_e	e	n/a
624.9705	0.075	1249941	keystroke_Key.space	Key.space	n/a
625.1955	0.1215	1250391	keystroke_r	r	n/a
625.391	0.135	1250782	keystroke_e	e	n/a
625.646	0.105	1251292	keystroke_m	m	n/a
625.841	0.12	1251682	keystroke_e	e	n/a
625.991	0.12	1251982	keystroke_m	m	n/a
626.156	0.0895	1252312	keystroke_b	b	n/a
626.3805	0.105	1252761	keystroke_e	e	n/a
626.591	0.105	1253182	keystroke_r	r	n/a
626.8605	0.075	1253721	keystroke_Key.enter	Key.enter	n/a
626.942	5.5755	1253884	prompt	n/a	fist ready guinea daisy\n
627.656	0.1205	1255312	keystroke_f	f	n/a
627.7915	0.089	1255583	keystroke_i	i	n/a
627.9265	0.12	1255853	keystroke_s	s	n/a
628.1515	0.0905	1256303	keystroke_t	t	n/a
628.3615	0.044	1256723	keystroke_Key.space	Key.space	n/a
628.526	0.12	1257052	keystroke_r	r	n/a
628.751	0.09	1257502	keystroke_e	e	n/a
628.961	0.12	1257922	keystroke_a	a	n/a
629.186	0.1045	1258372	keystroke_d	d	n/a
629.4255	0.091	1258851	keystroke_y	y	n/a
629.6205	0.076	1259241	keystroke_Key.space	Key.space	n/a
629.8605	0.0755	1259721	keystroke_g	g	n/a
630.026	0.105	1260052	keystroke_u	u	n/a
630.251	0.1205	1260502	keystroke_i	i	n/a
630.611	0.1205	1261222	keystroke_n	n	n/a
630.8655	0.06	1261731	keystroke_e	e	n/a
631.0615	0.1195	1262123	keystroke_a	a	n/a
631.241	0.09	1262482	keystroke_Key.space	Key.space	n/a
631.4365	0.0895	1262873	keystroke_d	d	n/a
631.6465	0.1045	1263293	keystroke_a	a	n/a
631.8105	0.135	1263621	keystroke_i	i	n/a
631.9305	0.106	1263861	keystroke_s	s	n/a
632.1415	0.0895	1264283	keystroke_y	y	n/a
632.4105	0.105	1264821	keystroke_Key.enter	Key.enter	n/a
632.5215	7.6765	1265043	prompt	n/a	guaranteed teaches inter personals\n
633.2365	0.1195	1266473	keystroke_g	g	n/a
633.491	0.09	1266982	keystroke_u	u	n/a
633.6865	0.135	1267373	keystroke_a	a	n/a
633.8665	0.1195	1267733	keystroke_r	r	n/a
634.181	0.135	1268362	keystroke_a	a	n/a
634.3765	0.1205	1268753	keystroke_n	n	n/a
634.5415	0.105	1269083	keystroke_t	t	n/a
634.8565	0.06	1269713	keystroke_e	e	n/a
635.0515	0.09	1270103	keystroke_e	e	n/a
635.261	0.1045	1270522	keystroke_d	d	n/a
635.396	0.075	1270792	keystroke_Key.space	Key.space	n/a
635.561	0.0895	1271122	keystroke_t	t	n/a
635.786	0.0895	1271572	keystroke_e	e	n/a
635.9365	0.135	1271873	keystroke_a	a	n/a
636.1765	0.105	1272353	keystroke_c	c	n/a
636.3105	0.121	1272621	keystroke_h	h	n/a
636.461	0.09	1272922	keystroke_e	e	n/a
636.701	0.105	1273402	keystroke_s	s	n/a
636.896	0.09	1273792	keystroke_Key.space	Key.space	n/a
