onset	duration	sample	value	key	prompt_text
13.505	0.0895	27010	keystroke_a	a	n/a
13.5945	0.0755	27189	keystroke_l	l	n/a
13.6545	0.09	27309	keystroke_a	a	n/a
13.73	0.0745	27460	keystroke_n	n	n/a
13.8195	0.075	27639	keystroke_d	d	n/a
13.9095	0.075	27819	keystroke_u	u	n/a
14.0295	0.09	28059	keystroke_Key.tab	Key.tab	n/a
15.515	0.1195	31030	keystroke_o	o	n/a
15.6645	0.105	31329	keystroke_n	n	n/a
16.3245	0.09	32649	keystroke_Key.tab	Key.tab	n/a
18.395	0.1195	36790	keystroke_o	o	n/a
18.455	0.1045	36910	keystroke_n	n	n/a
18.5895	0.165	37179	keystroke_Key.shift	Key.shift	n/a
18.65	0.0745	37300	keystroke__	_	n/a
18.8155	0.089	37631	keystroke_k	k	n/a
18.89	0.0895	37780	keystroke_e	e	n/a
19.0095	0.0905	38019	keystroke_y	y	n/a
19.086	0.1035	38172	keystroke_b	b	n/a
19.175	0.0745	38350	keystroke_o	o	n/a
19.2795	0.12	38559	keystroke_a	a	n/a
19.355	0.1195	38710	keystroke_r	r	n/a
19.4295	0.1355	38859	keystroke_d	d	n/a
19.5795	0.045	39159	keystroke_Key.space	Key.space	n/a
19.5945	0.105	39189	keystroke_p	p	n/a
19.6845	0.105	39369	keystroke_r	r	n/a
19.7745	0.0905	39549	keystroke_o	o	n/a
19.8655	0.074	39731	keystroke_t	t	n/a
19.955	0.0745	39910	keystroke_o	o	n/a
20.0165	0.133	40033	keystroke_c	c	n/a
20.1345	0.06	40269	keystroke_o	o	n/a
20.2995	0.0905	40599	keystroke_l	l	n/a
20.4655	0.074	40931	keystroke_Key.space	Key.space	n/a
20.5845	0.105	41169	keystroke_6	6	n/a
20.75	0.0905	41500	keystroke_.	.	n/a
20.8245	0.09	41649	keystroke_3	3	n/a
25.008	5.03	50016	prompt	n/a	the quick brown fox jumps over a lazy dog\n
25.8805	0.104	51761	keystroke_t	t	n/a
25.955	0.0745	51910	keystroke_h	h	n/a
26.03	0.1195	52060	keystroke_e	e	n/a
26.12	0.0745	52240	keystroke_Key.space	Key.space	n/a
26.18	0.105	52360	keystroke_q	q	n/a
26.255	0.1345	52510	keystroke_u	u	n/a
26.33	0.1045	52660	keystroke_i	i	n/a
26.42	0.15	52840	keystroke_c	c	n/a
26.525	0.0895	53050	keystroke_k	k	n/a
26.6	0.0895	53200	keystroke_Key.space	Key.space	n/a
26.705	0.105	53410	keystroke_b	b	n/a
26.8995	0.15	53799	keystroke_r	r	n/a
26.975	0.0895	53950	keystroke_o	o	n/a
27.035	0.1495	54070	keystroke_w	w	n/a
27.125	0.1195	54250	keystroke_n	n	n/a
27.2	0.0895	54400	keystroke_Key.space	Key.space	n/a
27.306	0.0735	54612	keystroke_f	f	n/a
27.35	0.0895	54700	keystroke_o	o	n/a
27.455	0.0895	54910	keystroke_x	x	n/a
27.515	0.1045	55030	keystroke_Key.space	Key.space	n/a
27.575	0.0745	55150	keystroke_j	j	n/a
27.74	0.0595	55480	keystroke_u	u	n/a
27.905	0.1045	55810	keystroke_m	m	n/a
27.995	0.1045	55990	keystroke_p	p	n/a
28.085	0.1195	56170	keystroke_s	s	n/a
28.175	0.1195	56350	keystroke_Key.space	Key.space	n/a
28.2495	0.09	56499	keystroke_o	o	n/a
28.385	0.0745	56770	keystroke_v	v	n/a
28.535	0.1195	57070	keystroke_e	e	n/a
28.5945	0.12	57189	keystroke_r	r	n/a
28.685	0.09	57370	keystroke_Key.space	Key.space	n/a
28.745	0.1495	57490	keystroke_a	a	n/a
28.865	0.0895	57730	keystroke_Key.space	Key.space	n/a
28.985	0.1045	57970	keystroke_l	l	n/a
29.075	0.1045	58150	keystroke_a	a	n/a
29.255	0.1645	58510	keystroke_z	z	n/a
29.3155	0.089	58631	keystroke_y	y	n/a
29.4355	0.044	58871	keystroke_Key.space	Key.space	n/a
29.465	0.1195	58930	keystroke_d	d	n/a
29.54	0.1045	59080	keystroke_o	o	n/a
29.66	0.06	59320	keystroke_g	g	n/a
29.96	0.0745	59920	keystroke_Key.enter	Key.enter	n/a
30.046	3.8155	60092	prompt	n/a	determines easter copy thumbnails\n
30.6195	0.0755	61239	keystroke_d	d	n/a
30.785	0.0745	61570	keystroke_e	e	n/a
30.8445	0.105	61689	keystroke_t	t	n/a
30.98	0.1045	61960	keystroke_e	e	n/a
31.0245	0.12	62049	keystroke_r	r	n/a
31.1	0.0745	62200	keystroke_m	m	n/a
31.19	0.1195	62380	keystroke_i	i	n/a
31.265	0.1045	62530	keystroke_n	n	n/a
31.325	0.1195	62650	keystroke_e	e	n/a
31.385	0.1045	62770	keystroke_s	s	n/a
31.43	0.0895	62860	keystroke_Key.space	Key.space	n/a
31.565	0.1495	63130	keystroke_e	e	n/a
31.685	0.1195	63370	keystroke_a	a	n/a
31.7595	0.15	63519	keystroke_s	s	n/a
31.88	0.1045	63760	keystroke_t	t	n/a
32.015	0.1045	64030	keystroke_e	e	n/a
32.075	0.1195	64150	keystroke_r	r	n/a
32.1645	0.09	64329	keystroke_Key.space	Key.space	n/a
32.315	0.1045	64630	keystroke_c	c	n/a
32.39	0.1495	64780	keystroke_o	o	n/a
32.48	0.1045	64960	keystroke_p	p	n/a
32.5095	0.12	65019	keystroke_y	y	n/a
32.615	0.0745	65230	keystroke_Key.space	Key.space	n/a
32.705	0.1045	65410	keystroke_t	t	n/a
32.78	0.0745	65560	keystroke_h	h	n/a
32.945	0.0745	65890	keystroke_u	u	n/a
33.11	0.0895	66220	keystroke_m	m	n/a
33.215	0.0895	66430	keystroke_b	b	n/a
33.305	0.0745	66610	keystroke_n	n	n/a
33.395	0.1345	66790	keystroke_a	a	n/a
33.5	0.1045	67000	keystroke_i	i	n/a
33.56	0.1045	67120	keystroke_l	l	n/a
33.635	0.0895	67270	keystroke_s	s	n/a
33.785	0.0745	67570	keystroke_Key.enter	Key.enter	n/a
33.8685	4.013	67737	prompt	n/a	possible startup victorian testing\n
34.55	0.1795	69100	keystroke_p	p	n/a
34.775	0.0745	69550	keystroke_o	o	n/a
34.8805	0.074	69761	keystroke_s	s	n/a
35.015	0.09	70030	keystroke_s	s	n/a
35.075	0.0745	70150	keystroke_i	i	n/a
35.18	0.1195	70360	keystroke_b	b	n/a
35.2545	0.075	70509	keystroke_l	l	n/a
35.345	0.0895	70690	keystroke_e	e	n/a
35.435	0.0745	70870	keystroke_Key.space	Key.space	n/a
35.525	0.1045	71050	keystroke_s	s	n/a
35.6	0.0895	71200	keystroke_t	t	n/a
35.705	0.1495	71410	keystroke_a	a	n/a
35.78	0.0895	71560	keystroke_r	r	n/a
35.915	0.1045	71830	keystroke_t	t	n/a
36.005	0.1045	72010	keystroke_u	u	n/a
36.065	0.1195	72130	keystroke_p	p	n/a
36.125	0.0745	72250	keystroke_Key.space	Key.space	n/a
36.23	0.1495	72460	keystroke_v	v	n/a
36.335	0.0745	72670	keystroke_i	i	n/a
36.44	0.0745	72880	keystroke_c	c	n/a
36.59	0.0895	73180	keystroke_t	t	n/a
36.68	0.09	73360	keystroke_o	o	n/a
36.785	0.0895	73570	keystroke_r	r	n/a
36.86	0.0745	73720	keystroke_i	i	n/a
36.92	0.1795	73840	keystroke_a	a	n/a
37.025	0.0895	74050	keystroke_n	n	n/a
37.13	0.0595	74260	keystroke_Key.space	Key.space	n/a
37.175	0.1195	74350	keystroke_t	t	n/a
37.265	0.1645	74530	keystroke_e	e	n/a
37.34	0.1045	74680	keystroke_s	s	n/a
37.4	0.1195	74800	keystroke_t	t	n/a
37.49	0.1045	74980	keystroke_i	i	n/a
37.55	0.0895	75100	keystroke_n	n	n/a
37.61	0.1045	75220	keystroke_g	g	n/a
37.82	0.0595	75640	keystroke_Key.enter	Key.enter	n/a
37.889	3.3525	75778	prompt	n/a	drunk fears penalty triple\n
38.45	0.0745	76900	keystroke_d	d	n/a
38.585	0.09	77170	keystroke_r	r	n/a
38.69	0.0745	77380	keystroke_u	u	n/a
38.855	0.1195	77710	keystroke_n	n	n/a
38.9455	0.089	77891	keystroke_k	k	n/a
39.08	0.0295	78160	keystroke_Key.space	Key.space	n/a
39.095	0.1195	78190	keystroke_f	f	n/a
39.215	0.1495	78430	keystroke_e	e	n/a
39.3045	0.165	78609	keystroke_a	a	n/a
39.3955	0.119	78791	keystroke_r	r	n/a
39.5	0.1495	79000	keystroke_s	s	n/a
39.605	0.09	79210	keystroke_Key.space	Key.space	n/a
39.74	0.1045	79480	keystroke_p	p	n/a
39.86	0.1045	79720	keystroke_e	e	n/a
39.98	0.0895	79960	keystroke_n	n	n/a
40.055	0.1495	80110	keystroke_a	a	n/a
40.16	0.0745	80320	keystroke_l	l	n/a
40.28	0.1195	80560	keystroke_t	t	n/a
40.34	0.0895	80680	keystroke_y	y	n/a
40.445	0.0895	80890	keystroke_Key.space	Key.space	n/a
40.52	0.09	81040	keystroke_t	t	n/a
40.7	0.1195	81400	keystroke_r	r	n/a
40.7745	0.105	81549	keystroke_i	i	n/a
40.865	0.0595	81730	keystroke_p	p	n/a
40.97	0.0895	81940	keystroke_l	l	n/a
41.045	0.1045	82090	keystroke_e	e	n/a
41.1645	0.0755	82329	keystroke_Key.enter	Key.enter	n/a
41.248	3.6685	82496	prompt	n/a	poet thread lauren exclusively\n
41.855	0.1195	83710	keystroke_p	p	n/a
41.945	0.1195	83890	keystroke_o	o	n/a
42.02	0.1195	84040	keystroke_e	e	n/a
42.095	0.12	84190	keystroke_t	t	n/a
42.185	0.0745	84370	keystroke_Key.space	Key.space	n/a
42.275	0.1045	84550	keystroke_t	t	n/a
42.365	0.0895	84730	keystroke_h	h	n/a
42.47	0.1345	84940	keystroke_r	r	n/a
42.5005	0.119	85001	keystroke_e	e	n/a
42.59	0.1345	85180	keystroke_a	a	n/a
42.695	0.1345	85390	keystroke_d	d	n/a
42.8	0.1045	85600	keystroke_Key.space	Key.space	n/a
42.92	0.0895	85840	keystroke_l	l	n/a
43.04	0.1195	86080	keystroke_a	a	n/a
43.19	0.1045	86380	keystroke_u	u	n/a
43.28	0.1045	86560	keystroke_r	r	n/a
43.34	0.12	86680	keystroke_e	e	n/a
43.4755	0.074	86951	keystroke_n	n	n/a
43.5955	0.059	87191	keystroke_Key.space	Key.space	n/a
43.6545	0.09	87309	keystroke_e	e	n/a
43.805	0.1195	87610	keystroke_x	x	n/a
43.97	0.09	87940	keystroke_c	c	n/a
44.0745	0.075	88149	keystroke_l	l	n/a
44.12	0.0895	88240	keystroke_u	u	n/a
44.195	0.1345	88390	keystroke_s	s	n/a
44.285	0.0895	88570	keystroke_i	i	n/a
44.39	0.075	88780	keystroke_v	v	n/a
44.48	0.0895	88960	keystroke_e	e	n/a
44.57	0.1195	89140	keystroke_l	l	n/a
44.645	0.09	89290	keystroke_y	y	n/a
44.825	0.09	89650	keystroke_Key.enter	Key.enter	n/a
44.9235	5.648	89847	prompt	n/a	connect sculpture laugh plastics\n
45.53	0.0745	91060	keystroke_c	c	n/a
45.62	0.09	91240	keystroke_o	o	n/a
45.665	0.0745	91330	keystroke_n	n	n/a
45.8	0.0895	91600	keystroke_n	n	n/a
45.8745	0.06	91749	keystroke_e	e	n/a
46.0395	0.06	92079	keystroke_c	c	n/a
46.19	0.09	92380	keystroke_t	t	n/a
46.25	0.09	92500	keystroke_Key.space	Key.space	n/a
46.325	0.075	92650	keystroke_s	s	n/a
46.49	0.0745	92980	keystroke_c	c	n/a
46.55	0.135	93100	keystroke_u	u	n/a
46.6395	0.18	93279	keystroke_l	l	n/a
46.7895	0.09	93579	keystroke_p	p	n/a
46.94	0.1045	93880	keystroke_t	t	n/a
47.09	0.1045	94180	keystroke_u	u	n/a
47.21	0.105	94420	keystroke_r	r	n/a
47.27	0.1345	94540	keystroke_e	e	n/a
47.39	0.0895	94780	keystroke_Key.space	Key.space	n/a
47.555	0.0895	95110	keystroke_l	l	n/a
47.615	0.1045	95230	keystroke_u	u	n/a
47.705	0.1345	95410	keystroke_a	a	n/a
48.1245	0.075	96249	keystroke_Key.backspace	Key.backspace	n/a
48.2745	0.0755	96549	keystroke_Key.backspace	Key.backspace	n/a
48.395	0.1045	96790	keystroke_a	a	n/a
48.485	0.1045	96970	keystroke_u	u	n/a
48.575	0.1195	97150	keystroke_g	g	n/a
48.68	0.075	97360	keystroke_h	h	n/a
48.845	0.0895	97690	keystroke_p	p	n/a
49.01	0.0745	98020	keystroke_l	l	n/a
49.25	0.0745	98500	keystroke_Key.backspace	Key.backspace	n/a
49.445	0.0745	98890	keystroke_Key.backspace	Key.backspace	n/a
49.625	0.0745	99250	keystroke_Key.space	Key.space	n/a
49.7145	0.075	99429	keystroke_p	p	n/a
49.85	0.09	99700	keystroke_l	l	n/a
49.9245	0.135	99849	keystroke_a	a	n/a
50.015	0.1195	100030	keystroke_s	s	n/a
50.09	0.105	100180	keystroke_t	t	n/a
50.18	0.06	100360	keystroke_i	i	n/a
50.3	0.0745	100600	keystroke_c	c	n/a
50.42	0.105	100840	keystroke_s	s	n/a
50.51	0.0595	101020	keystroke_Key.enter	Key.enter	n/a
50.585	3.9765	101170	prompt	n/a	tags edges grenada receives\n
51.215	0.1045	102430	keystroke_t	t	n/a
51.305	0.135	102610	keystroke_a	a	n/a
51.41	0.1045	102820	keystroke_g	g	n/a
51.5	0.1345	103000	keystroke_s	s	n/a
51.5895	0.09	103179	keystroke_Key.space	Key.space	n/a
51.665	0.0595	103330	keystroke_e	e	n/a
51.8	0.1345	103600	keystroke_d	d	n/a
51.92	0.1195	103840	keystroke_g	g	n/a
51.995	0.135	103990	keystroke_e	e	n/a
52.01	0.135	104020	keystroke_s	s	n/a
52.1	0.0895	104200	keystroke_Key.space	Key.space	n/a
52.205	0.0595	104410	keystroke_g	g	n/a
52.355	0.0745	104710	keystroke_r	r	n/a
52.385	0.1195	104770	keystroke_e	e	n/a
52.55	0.1045	105100	keystroke_n	n	n/a
52.64	0.12	105280	keystroke_a	a	n/a
52.73	0.1645	105460	keystroke_d	d	n/a
52.88	0.1345	105760	keystroke_a	a	n/a
52.985	0.0895	105970	keystroke_Key.space	Key.space	n/a
53.105	0.0745	106210	keystroke_r	r	n/a
53.165	0.0595	106330	keystroke_e	e	n/a
53.345	0.0595	106690	keystroke_c	c	n/a
53.51	0.1195	107020	keystroke_e	e	n/a
53.615	0.1045	107230	keystroke_i	i	n/a
53.75	0.0595	107500	keystroke_e	e	n/a
53.825	0.1045	107650	keystroke_v	v	n/a
53.9895	0.075	107979	keystroke_e	e	n/a
54.0805	0.074	108161	keystroke_s	s	n/a
54.47	0.0895	108940	keystroke_Key.enter	Key.enter	n/a
54.568	3.9685	109136	prompt	n/a	hampton porter convention parameter\n
55.25	0.09	110500	keystroke_h	h	n/a
55.355	0.1045	110710	keystroke_a	a	n/a
55.46	0.1195	110920	keystroke_m	m	n/a
55.535	0.1045	111070	keystroke_p	p	n/a
55.61	0.0895	111220	keystroke_t	t	n/a
55.73	0.1195	111460	keystroke_o	o	n/a
55.79	0.0895	111580	keystroke_n	n	n/a
55.865	0.0895	111730	keystroke_Key.space	Key.space	n/a
55.97	0.1045	111940	keystroke_p	p	n/a
56.045	0.105	112090	keystroke_o	o	n/a
56.105	0.0895	112210	keystroke_r	r	n/a
56.255	0.1045	112510	keystroke_t	t	n/a
56.375	0.1045	112750	keystroke_e	e	n/a
56.42	0.1195	112840	keystroke_r	r	n/a
56.495	0.105	112990	keystroke_Key.space	Key.space	n/a
56.6605	0.089	113321	keystroke_c	c	n/a
56.765	0.0745	113530	keystroke_o	o	n/a
56.795	0.1195	113590	keystroke_n	n	n/a
56.87	0.0895	113740	keystroke_v	v	n/a
56.975	0.0895	113950	keystroke_e	e	n/a
57.05	0.0895	114100	keystroke_n	n	n/a
57.155	0.075	114310	keystroke_t	t	n/a
57.245	0.1495	114490	keystroke_i	i	n/a
57.305	0.1195	114610	keystroke_o	o	n/a
57.35	0.1045	114700	keystroke_n	n	n/a
57.44	0.075	114880	keystroke_Key.space	Key.space	n/a
57.53	0.12	115060	keystroke_p	p	n/a
57.62	0.1045	115240	keystroke_a	a	n/a
57.68	0.135	115360	keystroke_r	r	n/a
57.8	0.1345	115600	keystroke_a	a	n/a
57.89	0.0895	115780	keystroke_m	m	n/a
58.025	0.045	116050	keystroke_e	e	n/a
58.055	0.09	116110	keystroke_t	t	n/a
58.176	0.104	116352	keystroke_e	e	n/a
58.2655	0.0585	116531	keystroke_r	r	n/a
58.46	0.0745	116920	keystroke_Key.enter	Key.enter	n/a
58.5435	4.343	117087	prompt	n/a	wildlife mechanisms cook canon\n
59.124	0.1155	118248	keystroke_w	w	n/a
59.195	0.15	118390	keystroke_i	i	n/a
59.285	0.1195	118570	keystroke_l	l	n/a
59.42	0.105	118840	keystroke_d	d	n/a
59.57	0.1045	119140	keystroke_l	l	n/a
59.6295	0.135	119259	keystroke_i	i	n/a
59.72	0.1345	119440	keystroke_f	f	n/a
59.81	0.1045	119620	keystroke_e	e	n/a
59.885	0.09	119770	keystroke_Key.space	Key.space	n/a
60.0355	0.1345	120071	keystroke_m	m	n/a
60.125	0.0745	120250	keystroke_e	e	n/a
60.35	0.0745	120700	keystroke_c	c	n/a
60.4255	0.089	120851	keystroke_h	h	n/a
60.53	0.1345	121060	keystroke_a	a	n/a
60.605	0.12	121210	keystroke_n	n	n/a
60.71	0.09	121420	keystroke_i	i	n/a
60.785	0.1045	121570	keystroke_s	s	n/a
60.905	0.09	121810	keystroke_m	m	n/a
60.9955	0.1045	121991	keystroke_s	s	n/a
61.07	0.09	122140	keystroke_Key.space	Key.space	n/a
61.37	0.0895	122740	keystroke_c	c	n/a
61.4755	0.044	122951	keystroke_o	o	n/a
61.6255	0.089	123251	keystroke_o	o	n/a
61.67	0.105	123340	keystroke_k	k	n/a
61.79	0.0595	123580	keystroke_Key.space	Key.space	n/a
61.895	0.1195	123790	keystroke_c	c	n/a
61.985	0.12	123970	keystroke_a	a	n/a
62.06	0.105	124120	keystroke_n	n	n/a
62.45	0.0895	124900	keystroke_o	o	n/a
62.585	0.09	125170	keystroke_n	n	n/a
62.795	0.0895	125590	keystroke_Key.enter	Key.enter	n/a
62.8935	12.414	125787	prompt	n/a	entrepreneurs tournament polo height\n
63.5	0.1195	127000	keystroke_e	e	n/a
63.605	0.09	127210	keystroke_n	n	n/a
63.71	0.0745	127420	keystroke_t	t	n/a
63.875	0.0745	127750	keystroke_r	r	n/a
63.89	0.0895	127780	keystroke_e	e	n/a
64.2505	0.0895	128501	keystroke_Key.backspace	Key.backspace	n/a
64.745	0.0745	129490	keystroke_e	e	n/a
64.88	0.1045	129760	keystroke_p	p	n/a
65.03	0.0895	130060	keystroke_e	e	n/a
65.1205	0.119	130241	keystroke_n	n	n/a
65.255	0.1045	130510	keystroke_e	e	n/a
65.375	0.1045	130750	keystroke_u	u	n/a
65.51	0.09	131020	keystroke_r	r	n/a
65.645	0.1045	131290	keystroke_s	s	n/a
65.7495	0.09	131499	keystroke_Key.space	Key.space	n/a
65.975	0.1045	131950	keystroke_t	t	n/a
66.215	0.0895	132430	keystroke_o	o	n/a
66.545	0.045	133090	keystroke_Key.backspace	Key.backspace	n/a
66.74	0.0445	133480	keystroke_Key.backspace	Key.backspace	n/a
68.465	0.0445	136930	keystroke_Key.backspace	Key.backspace	n/a
68.615	0.0745	137230	keystroke_Key.backspace	Key.backspace	n/a
68.78	0.0595	137560	keystroke_Key.backspace	Key.backspace	n/a
68.93	0.0745	137860	keystroke_Key.backspace	Key.backspace	n/a
69.095	0.045	138190	keystroke_Key.backspace	Key.backspace	n/a
69.23	0.06	138460	keystroke_Key.backspace	Key.backspace	n/a
69.38	0.06	138760	keystroke_Key.backspace	Key.backspace	n/a
69.53	0.0595	139060	keystroke_Key.backspace	Key.backspace	n/a
69.68	0.0595	139360	keystroke_Key.backspace	Key.backspace	n/a
69.83	0.0595	139660	keystroke_Key.backspace	Key.backspace	n/a
69.965	0.075	139930	keystroke_Key.backspace	Key.backspace	n/a
70.13	0.06	140260	keystroke_Key.backspace	Key.backspace	n/a
70.295	0.0445	140590	keystroke_Key.backspace	Key.backspace	n/a
70.43	0.06	140860	keystroke_Key.backspace	Key.backspace	n/a
70.7905	0.119	141581	keystroke_e	e	n/a
70.895	0.0745	141790	keystroke_n	n	n/a
71	0.0745	142000	keystroke_t	t	n/a
71.15	0.1345	142300	keystroke_r	r	n/a
71.24	0.1045	142480	keystroke_e	e	n/a
71.36	0.1045	142720	keystroke_p	p	n/a
71.54	0.135	143080	keystroke_r	r	n/a
71.66	0.1195	143320	keystroke_e	e	n/a
71.825	0.0895	143650	keystroke_n	n	n/a
71.975	0.0895	143950	keystroke_e	e	n/a
72.08	0.0895	144160	keystroke_u	u	n/a
72.185	0.105	144370	keystroke_r	r	n/a
72.275	0.1045	144550	keystroke_s	s	n/a
72.3505	0.104	144701	keystroke_Key.space	Key.space	n/a
72.53	0.0895	145060	keystroke_t	t	n/a
72.635	0.0745	145270	keystroke_o	o	n/a
73.13	0.09	146260	keystroke_u	u	n/a
73.265	0.1195	146530	keystroke_r	r	n/a
73.4	0.105	146800	keystroke_n	n	n/a
73.55	0.1195	147100	keystroke_a	a	n/a
73.655	0.0895	147310	keystroke_m	m	n/a
73.76	0.09	147520	keystroke_e	e	n/a
73.895	0.0605	147790	keystroke_n	n	n/a
73.91	0.1045	147820	keystroke_t	t	n/a
74	0.1045	148000	keystroke_Key.space	Key.space	n/a
74.075	0.1045	148150	keystroke_p	p	n/a
74.135	0.1045	148270	keystroke_o	o	n/a
74.315	0.0745	148630	keystroke_l	l	n/a
74.495	0.0895	148990	keystroke_o	o	n/a
74.63	0.0895	149260	keystroke_Key.space	Key.space	n/a
74.705	0.0745	149410	keystroke_h	h	n/a
74.78	0.105	149560	keystroke_e	e	n/a
74.9	0.0595	149800	keystroke_i	i	n/a
74.945	0.0895	149890	keystroke_g	g	n/a
75.05	0.075	150100	keystroke_h	h	n/a
75.095	0.09	150190	keystroke_t	t	n/a
75.215	0.09	150430	keystroke_Key.enter	Key.enter	n/a
75.3155	4.866	150631	prompt	n/a	protect promising ensemble trademarks\n
75.95	0.135	151900	keystroke_p	p	n/a
76.1	0.1045	152200	keystroke_r	r	n/a
76.25	0.1055	152500	keystroke_o	o	n/a
76.31	0.1345	152620	keystroke_t	t	n/a
76.4	0.0745	152800	keystroke_e	e	n/a
76.61	0.0895	153220	keystroke_c	c	n/a
76.79	0.1045	153580	keystroke_t	t	n/a
76.865	0.0895	153730	keystroke_Key.space	Key.space	n/a
76.985	0.1045	153970	keystroke_p	p	n/a
77.0905	0.074	154181	keystroke_r	r	n/a
77.15	0.1195	154300	keystroke_o	o	n/a
77.315	0.075	154630	keystroke_m	m	n/a
77.765	0.0745	155530	keystroke_i	i	n/a
77.8555	0.1345	155711	keystroke_s	s	n/a
77.975	0.0895	155950	keystroke_i	i	n/a
78.02	0.1045	156040	keystroke_n	n	n/a
78.08	0.1195	156160	keystroke_g	g	n/a
78.17	0.0745	156340	keystroke_Key.space	Key.space	n/a
78.275	0.0895	156550	keystroke_e	e	n/a
78.38	0.0745	156760	keystroke_n	n	n/a
78.47	0.1045	156940	keystroke_s	s	n/a
78.56	0.1345	157120	keystroke_e	e	n/a
78.65	0.0895	157300	keystroke_m	m	n/a
78.755	0.09	157510	keystroke_b	b	n/a
78.86	0.0895	157720	keystroke_l	l	n/a
78.935	0.0895	157870	keystroke_e	e	n/a
79.04	0.0595	158080	keystroke_Key.space	Key.space	n/a
79.07	0.0895	158140	keystroke_t	t	n/a
79.235	0.1345	158470	keystroke_r	r	n/a
79.325	0.0895	158650	keystroke_a	a	n/a
79.43	0.0745	158860	keystroke_d	d	n/a
79.58	0.1045	159160	keystroke_e	e	n/a
79.67	0.1045	159340	keystroke_m	m	n/a
79.76	0.1345	159520	keystroke_a	a	n/a
79.82	0.12	159640	keystroke_r	r	n/a
79.91	0.075	159820	keystroke_k	k	n/a
80	0.1045	160000	keystroke_s	s	n/a
80.12	0.0595	160240	keystroke_Key.enter	Key.enter	n/a
80.187	4.089	160374	prompt	n/a	scuba organization pray example\n
80.78	0.0745	161560	keystroke_s	s	n/a
80.96	0.1045	161920	keystroke_c	c	n/a
81.08	0.0895	162160	keystroke_u	u	n/a
81.335	0.1045	162670	keystroke_b	b	n/a
81.485	0.12	162970	keystroke_a	a	n/a
81.575	0.1045	163150	keystroke_Key.space	Key.space	n/a
81.74	0.1045	163480	keystroke_o	o	n/a
81.785	0.0745	163570	keystroke_r	r	n/a
81.965	0.0745	163930	keystroke_g	g	n/a
82.01	0.1045	164020	keystroke_a	a	n/a
82.085	0.1045	164170	keystroke_n	n	n/a
82.16	0.105	164320	keystroke_i	i	n/a
82.22	0.0745	164440	keystroke_z	z	n/a
82.37	0.1495	164740	keystroke_a	a	n/a
82.445	0.1045	164890	keystroke_t	t	n/a
82.55	0.1795	165100	keystroke_i	i	n/a
82.625	0.1495	165250	keystroke_o	o	n/a
82.685	0.1195	165370	keystroke_n	n	n/a
82.82	0.09	165640	keystroke_Key.space	Key.space	n/a
82.925	0.1045	165850	keystroke_p	p	n/a
83	0.1495	166000	keystroke_r	r	n/a
83.105	0.1345	166210	keystroke_a	a	n/a
83.21	0.105	166420	keystroke_y	y	n/a
83.285	0.0895	166570	keystroke_Key.space	Key.space	n/a
83.345	0.0895	166690	keystroke_e	e	n/a
83.51	0.1345	167020	keystroke_x	x	n/a
83.645	0.12	167290	keystroke_a	a	n/a
83.7055	0.164	167411	keystroke_m	m	n/a
83.795	0.09	167590	keystroke_p	p	n/a
83.945	0.0895	167890	keystroke_l	l	n/a
84.05	0.075	168100	keystroke_e	e	n/a
84.17	0.1045	168340	keystroke_Key.enter	Key.enter	n/a
84.2825	3.654	168565	prompt	n/a	generations operation will october\n
84.8	0.0895	169600	keystroke_g	g	n/a
84.92	0.1045	169840	keystroke_e	e	n/a
85.025	0.1045	170050	keystroke_n	n	n/a
85.115	0.0895	170230	keystroke_e	e	n/a
85.16	0.0895	170320	keystroke_r	r	n/a
85.22	0.15	170440	keystroke_a	a	n/a
85.325	0.105	170650	keystroke_t	t	n/a
85.415	0.1645	170830	keystroke_i	i	n/a
85.475	0.1195	170950	keystroke_o	o	n/a
85.535	0.105	171070	keystroke_n	n	n/a
85.565	0.1195	171130	keystroke_s	s	n/a
85.655	0.0895	171310	keystroke_Key.space	Key.space	n/a
85.7755	0.134	171551	keystroke_o	o	n/a
85.85	0.1345	171700	keystroke_p	p	n/a
85.925	0.0895	171850	keystroke_e	e	n/a
86	0.1045	172000	keystroke_r	r	n/a
86.09	0.1645	172180	keystroke_a	a	n/a
86.18	0.1045	172360	keystroke_t	t	n/a
86.27	0.15	172540	keystroke_i	i	n/a
86.315	0.1345	172630	keystroke_o	o	n/a
86.39	0.1045	172780	keystroke_n	n	n/a
86.48	0.1045	172960	keystroke_Key.space	Key.space	n/a
86.57	0.0595	173140	keystroke_w	w	n/a
86.615	0.0595	173230	keystroke_i	i	n/a
86.765	0.0595	173530	keystroke_l	l	n/a
86.885	0.09	173770	keystroke_l	l	n/a
86.99	0.1045	173980	keystroke_Key.space	Key.space	n/a
87.11	0.0595	174220	keystroke_o	o	n/a
87.185	0.0595	174370	keystroke_c	c	n/a
87.35	0.09	174700	keystroke_t	t	n/a
87.425	0.0595	174850	keystroke_o	o	n/a
87.515	0.0895	175030	keystroke_b	b	n/a
87.695	0.0895	175390	keystroke_e	e	n/a
87.755	0.0895	175510	keystroke_r	r	n/a
87.86	0.0745	175720	keystroke_Key.enter	Key.enter	n/a
87.9435	3.578	175887	prompt	n/a	lips songs biol software\n
88.55	0.1345	177100	keystroke_l	l	n/a
88.6405	0.134	177281	keystroke_i	i	n/a
88.76	0.1195	177520	keystroke_p	p	n/a
88.865	0.105	177730	keystroke_s	s	n/a
88.94	0.0895	177880	keystroke_Key.space	Key.space	n/a
89.045	0.1195	178090	keystroke_s	s	n/a
89.12	0.135	178240	keystroke_o	o	n/a
89.195	0.1195	178390	keystroke_n	n	n/a
89.465	0.1045	178930	keystroke_g	g	n/a
89.6	0.1195	179200	keystroke_s	s	n/a
89.69	0.1045	179380	keystroke_Key.space	Key.space	n/a
89.855	0.0895	179710	keystroke_b	b	n/a
89.96	0.1495	179920	keystroke_i	i	n/a
90.05	0.12	180100	keystroke_o	o	n/a
90.26	0.0895	180520	keystroke_l	l	n/a
90.41	0.0895	180820	keystroke_Key.space	Key.space	n/a
90.605	0.1045	181210	keystroke_s	s	n/a
90.68	0.09	181360	keystroke_o	o	n/a
90.7705	0.0595	181541	keystroke_f	f	n/a
90.935	0.12	181870	keystroke_t	t	n/a
91.04	0.1345	182080	keystroke_w	w	n/a
91.145	0.1345	182290	keystroke_a	a	n/a
91.2205	0.119	182441	keystroke_r	r	n/a
91.295	0.1195	182590	keystroke_e	e	n/a
91.4455	0.0745	182891	keystroke_Key.enter	Key.enter	n/a
91.5285	4.388	183057	prompt	n/a	daily deviant fluid subsection\n
92.09	0.1345	184180	keystroke_d	d	n/a
92.21	0.1045	184420	keystroke_a	a	n/a
92.285	0.165	184570	keystroke_i	i	n/a
92.39	0.1195	184780	keystroke_l	l	n/a
92.54	0.1045	185080	keystroke_y	y	n/a
92.66	0.0745	185320	keystroke_Key.space	Key.space	n/a
92.75	0.0595	185500	keystroke_d	d	n/a
92.9	0.0895	185800	keystroke_e	e	n/a
93.02	0.1195	186040	keystroke_v	v	n/a
93.125	0.0895	186250	keystroke_i	i	n/a
93.245	0.1345	186490	keystroke_a	a	n/a
93.365	0.105	186730	keystroke_n	n	n/a
93.4555	0.119	186911	keystroke_t	t	n/a
93.545	0.0745	187090	keystroke_Key.space	Key.space	n/a
93.65	0.1345	187300	keystroke_f	f	n/a
93.725	0.1195	187450	keystroke_l	l	n/a
93.8	0.0895	187600	keystroke_u	u	n/a
93.935	0.09	187870	keystroke_i	i	n/a
93.995	0.1195	187990	keystroke_d	d	n/a
94.085	0.0745	188170	keystroke_Key.space	Key.space	n/a
94.205	0.0745	188410	keystroke_s	s	n/a
94.475	0.0745	188950	keystroke_u	u	n/a
94.7	0.075	189400	keystroke_b	b	n/a
94.82	0.105	189640	keystroke_s	s	n/a
95.09	0.0595	190180	keystroke_e	e	n/a
95.27	0.0445	190540	keystroke_c	c	n/a
95.42	0.09	190840	keystroke_t	t	n/a
95.5105	0.149	191021	keystroke_i	i	n/a
95.57	0.12	191140	keystroke_o	o	n/a
95.645	0.0895	191290	keystroke_n	n	n/a
95.84	0.075	191680	keystroke_Key.enter	Key.enter	n/a
95.9225	3.759	191845	prompt	n/a	critical heater ventures sitemap\n
96.56	0.0745	193120	keystroke_c	c	n/a
96.71	0.0895	193420	keystroke_r	r	n/a
96.815	0.0895	193630	keystroke_i	i	n/a
96.875	0.0895	193750	keystroke_t	t	n/a
96.995	0.09	193990	keystroke_i	i	n/a
97.07	0.0895	194140	keystroke_c	c	n/a
97.145	0.1795	194290	keystroke_a	a	n/a
97.2355	0.119	194471	keystroke_l	l	n/a
97.37	0.06	194740	keystroke_Key.space	Key.space	n/a
97.46	0.1045	194920	keystroke_h	h	n/a
97.49	0.1645	194980	keystroke_e	e	n/a
97.61	0.1045	195220	keystroke_a	a	n/a
97.67	0.105	195340	keystroke_t	t	n/a
97.79	0.1195	195580	keystroke_e	e	n/a
97.865	0.105	195730	keystroke_r	r	n/a
97.955	0.09	195910	keystroke_Key.space	Key.space	n/a
98.09	0.075	196180	keystroke_v	v	n/a
98.18	0.12	196360	keystroke_e	e	n/a
98.2705	0.104	196541	keystroke_n	n	n/a
98.39	0.0895	196780	keystroke_t	t	n/a
98.495	0.0895	196990	keystroke_u	u	n/a
98.5705	0.119	197141	keystroke_r	r	n/a
98.6	0.1645	197200	keystroke_e	e	n/a
98.675	0.1045	197350	keystroke_s	s	n/a
98.75	0.09	197500	keystroke_Key.space	Key.space	n/a
98.885	0.105	197770	keystroke_s	s	n/a
98.9755	0.074	197951	keystroke_i	i	n/a
99.035	0.1195	198070	keystroke_t	t	n/a
99.11	0.12	198220	keystroke_e	e	n/a
99.215	0.0745	198430	keystroke_m	m	n/a
99.305	0.1195	198610	keystroke_a	a	n/a
99.395	0.075	198790	keystroke_p	p	n/a
99.605	0.0745	199210	keystroke_Key.enter	Key.enter	n/a
99.689	3.848	199378	prompt	n/a	decades advisory buses today\n
100.265	0.0895	200530	keystroke_d	d	n/a
100.475	0.09	200950	keystroke_e	e	n/a
100.745	0.105	201490	keystroke_c	c	n/a
100.985	0.1195	201970	keystroke_a	a	n/a
101.09	0.075	202180	keystroke_d	d	n/a
101.24	0.135	202480	keystroke_e	e	n/a
101.33	0.1345	202660	keystroke_s	s	n/a
101.4205	0.1195	202841	keystroke_Key.space	Key.space	n/a
101.555	0.09	203110	keystroke_a	a	n/a
101.6	0.135	203200	keystroke_d	d	n/a
101.75	0.1195	203500	keystroke_v	v	n/a
101.87	0.1045	203740	keystroke_i	i	n/a
101.945	0.105	203890	keystroke_s	s	n/a
102.065	0.0745	204130	keystroke_o	o	n/a
102.125	0.1645	204250	keystroke_r	r	n/a
102.23	0.105	204460	keystroke_y	y	n/a
102.305	0.09	204610	keystroke_Key.space	Key.space	n/a
102.41	0.0895	204820	keystroke_b	b	n/a
102.515	0.0895	205030	keystroke_u	u	n/a
102.59	0.1195	205180	keystroke_s	s	n/a
102.68	0.075	205360	keystroke_e	e	n/a
102.815	0.12	205630	keystroke_s	s	n/a
102.92	0.0745	205840	keystroke_Key.space	Key.space	n/a
103.01	0.0895	206020	keystroke_t	t	n/a
103.1	0.075	206200	keystroke_o	o	n/a
103.19	0.0895	206380	keystroke_d	d	n/a
103.25	0.1345	206500	keystroke_a	a	n/a
103.325	0.0745	206650	keystroke_y	y	n/a
103.46	0.075	206920	keystroke_Key.enter	Key.enter	n/a
103.5445	4.477	207089	prompt	n/a	telecharger begin twins apparent\n
104.195	0.1195	208390	keystroke_t	t	n/a
104.315	0.1045	208630	keystroke_e	e	n/a
104.435	0.075	208870	keystroke_l	l	n/a
104.495	0.09	208990	keystroke_e	e	n/a
104.72	0.0745	209440	keystroke_c	c	n/a
104.825	0.075	209650	keystroke_h	h	n/a
104.9	0.105	209800	keystroke_a	a	n/a
104.96	0.1045	209920	keystroke_r	r	n/a
105.14	0.0895	210280	keystroke_g	g	n/a
105.275	0.105	210550	keystroke_e	e	n/a
105.35	0.1045	210700	keystroke_r	r	n/a
105.425	0.0895	210850	keystroke_Key.space	Key.space	n/a
105.59	0.0895	211180	keystroke_b	b	n/a
105.755	0.105	211510	keystroke_e	e	n/a
105.845	0.105	211690	keystroke_g	g	n/a
105.965	0.1045	211930	keystroke_i	i	n/a
106.025	0.1045	212050	keystroke_n	n	n/a
106.16	0.0895	212320	keystroke_Key.space	Key.space	n/a
106.265	0.0745	212530	keystroke_t	t	n/a
106.325	0.09	212650	keystroke_w	w	n/a
106.43	0.105	212860	keystroke_i	i	n/a
106.49	0.1045	212980	keystroke_n	n	n/a
106.565	0.1195	213130	keystroke_s	s	n/a
106.67	0.105	213340	keystroke_Key.space	Key.space	n/a
106.79	0.1195	213580	keystroke_a	a	n/a
106.895	0.0745	213790	keystroke_p	p	n/a
107.03	0.105	214060	keystroke_p	p	n/a
107.09	0.12	214180	keystroke_a	a	n/a
107.165	0.1195	214330	keystroke_r	r	n/a
107.225	0.1195	214450	keystroke_e	e	n/a
107.33	0.0745	214660	keystroke_n	n	n/a
107.42	0.09	214840	keystroke_t	t	n/a
107.945	0.0745	215890	keystroke_Key.enter	Key.enter	n/a
108.0315	3.83	216063	prompt	n/a	clicking regression request entry\n
108.6355	0.0895	217271	keystroke_c	c	n/a
108.74	0.09	217480	keystroke_l	l	n/a
108.8	0.1045	217600	keystroke_i	i	n/a
108.89	0.0895	217780	keystroke_c	c	n/a
108.98	0.075	217960	keystroke_k	k	n/a
109.1605	0.104	218321	keystroke_i	i	n/a
109.205	0.12	218410	keystroke_n	n	n/a
109.235	0.1195	218470	keystroke_g	g	n/a
109.34	0.0595	218680	keystroke_Key.space	Key.space	n/a
109.43	0.1195	218860	keystroke_r	r	n/a
109.505	0.1045	219010	keystroke_e	e	n/a
109.625	0.0745	219250	keystroke_g	g	n/a
109.7905	0.104	219581	keystroke_r	r	n/a
109.85	0.1195	219700	keystroke_e	e	n/a
109.925	0.0895	219850	keystroke_s	s	n/a
110.0755	0.104	220151	keystroke_s	s	n/a
110.18	0.1645	220360	keystroke_i	i	n/a
110.24	0.12	220480	keystroke_o	o	n/a
110.285	0.12	220570	keystroke_n	n	n/a
110.3755	0.089	220751	keystroke_Key.space	Key.space	n/a
110.4805	0.164	220961	keystroke_r	r	n/a
110.54	0.12	221080	keystroke_e	e	n/a
110.63	0.1195	221260	keystroke_q	q	n/a
110.735	0.075	221470	keystroke_u	u	n/a
110.795	0.1795	221590	keystroke_e	e	n/a
110.87	0.15	221740	keystroke_s	s	n/a
110.96	0.135	221920	keystroke_t	t	n/a
111.0505	0.089	222101	keystroke_Key.space	Key.space	n/a
111.155	0.1195	222310	keystroke_e	e	n/a
111.29	0.0595	222580	keystroke_n	n	n/a
111.32	0.0895	222640	keystroke_t	t	n/a
111.47	0.1195	222940	keystroke_r	r	n/a
111.575	0.075	223150	keystroke_y	y	n/a
111.77	0.09	223540	keystroke_Key.enter	Key.enter	n/a
111.8665	3.6555	223733	prompt	n/a	nominated davidson rise features\n
112.52	0.105	225040	keystroke_n	n	n/a
112.625	0.09	225250	keystroke_o	o	n/a
112.73	0.12	225460	keystroke_m	m	n/a
112.835	0.1345	225670	keystroke_i	i	n/a
112.91	0.1045	225820	keystroke_n	n	n/a
112.955	0.1345	225910	keystroke_a	a	n/a
113.045	0.105	226090	keystroke_t	t	n/a
113.12	0.075	226240	keystroke_e	e	n/a
113.27	0.1195	226540	keystroke_d	d	n/a
113.375	0.075	226750	keystroke_Key.space	Key.space	n/a
113.465	0.12	226930	keystroke_d	d	n/a
113.555	0.135	227110	keystroke_a	a	n/a
113.63	0.12	227260	keystroke_v	v	n/a
113.735	0.09	227470	keystroke_i	i	n/a
113.825	0.105	227650	keystroke_d	d	n/a
113.99	0.12	227980	keystroke_s	s	n/a
114.095	0.1195	228190	keystroke_o	o	n/a
114.155	0.1195	228310	keystroke_n	n	n/a
114.29	0.0745	228580	keystroke_Key.space	Key.space	n/a
114.35	0.135	228700	keystroke_r	r	n/a
114.47	0.1195	228940	keystroke_i	i	n/a
114.5455	0.119	229091	keystroke_s	s	n/a
114.6055	0.1195	229211	keystroke_e	e	n/a
114.695	0.0745	229390	keystroke_Key.space	Key.space	n/a
114.785	0.12	229570	keystroke_f	f	n/a
114.875	0.1345	229750	keystroke_e	e	n/a
114.95	0.1195	229900	keystroke_a	a	n/a
115.025	0.1195	230050	keystroke_t	t	n/a
115.13	0.0895	230260	keystroke_u	u	n/a
115.205	0.1045	230410	keystroke_r	r	n/a
115.235	0.12	230470	keystroke_e	e	n/a
115.295	0.1195	230590	keystroke_s	s	n/a
115.43	0.09	230860	keystroke_Key.enter	Key.enter	n/a
115.529	8.8125	231058	prompt	n/a	methodology gratuit judges implemented\n
116.18	0.12	232360	keystroke_m	m	n/a
116.315	0.1045	232630	keystroke_e	e	n/a
116.39	0.1345	232780	keystroke_t	t	n/a
116.48	0.0745	232960	keystroke_h	h	n/a
116.585	0.0745	233170	keystroke_o	o	n/a
116.615	0.165	233230	keystroke_d	d	n/a
116.75	0.0745	233500	keystroke_o	o	n/a
116.915	0.06	233830	keystroke_l	l	n/a
117.08	0.0745	234160	keystroke_o	o	n/a
117.17	0.1345	234340	keystroke_g	g	n/a
117.26	0.0745	234520	keystroke_y	y	n/a
117.41	0.06	234820	keystroke_Key.space	Key.space	n/a
117.5155	0.074	235031	keystroke_g	g	n/a
117.695	0.0895	235390	keystroke_r	r	n/a
117.77	0.12	235540	keystroke_a	a	n/a
117.845	0.12	235690	keystroke_t	t	n/a
117.98	0.0845	235960	keystroke_u	u	n/a
118.0405	0.0745	236081	keystroke_i	i	n/a
118.34	0.0595	236680	keystroke_Key.backspace	Key.backspace	n/a
118.49	0.075	236980	keystroke_Key.backspace	Key.backspace	n/a
119.1355	0.1195	238271	keystroke_u	u	n/a
119.195	0.1045	238390	keystroke_i	i	n/a
119.285	0.075	238570	keystroke_t	t	n/a
119.421	0.074	238842	keystroke_Key.space	Key.space	n/a
119.931	0.0435	239862	keystroke_j	j	n/a
120.17	0.0595	240340	keystroke_Key.backspace	Key.backspace	n/a
120.38	0.0145	240760	keystroke_Key.backspace	Key.backspace	n/a
120.47	0.0595	240940	keystroke_Key.backspace	Key.backspace	n/a
120.6205	0.0595	241241	keystroke_Key.backspace	Key.backspace	n/a
120.77	0.0595	241540	keystroke_Key.backspace	Key.backspace	n/a
120.89	0.0895	241780	keystroke_Key.backspace	Key.backspace	n/a
121.07	0.0445	242140	keystroke_Key.backspace	Key.backspace	n/a
121.22	0.0445	242440	keystroke_Key.backspace	Key.backspace	n/a
121.355	0.075	242710	keystroke_Key.backspace	Key.backspace	n/a
121.535	0.0745	243070	keystroke_g	g	n/a
121.715	0.1045	243430	keystroke_r	r	n/a
121.79	0.1345	243580	keystroke_a	a	n/a
121.88	0.12	243760	keystroke_t	t	n/a
121.985	0.1045	243970	keystroke_u	u	n/a
122.045	0.0895	244090	keystroke_i	i	n/a
122.12	0.1195	244240	keystroke_t	t	n/a
122.195	0.1045	244390	keystroke_Key.space	Key.space	n/a
122.48	0.09	244960	keystroke_j	j	n/a
122.645	0.105	245290	keystroke_u	u	n/a
122.735	0.12	245470	keystroke_d	d	n/a
122.84	0.135	245680	keystroke_g	g	n/a
122.93	0.135	245860	keystroke_e	e	n/a
122.99	0.1045	245980	keystroke_s	s	n/a
123.035	0.1045	246070	keystroke_Key.space	Key.space	n/a
123.125	0.12	246250	keystroke_i	i	n/a
123.17	0.165	246340	keystroke_m	m	n/a
123.26	0.09	246520	keystroke_p	p	n/a
123.425	0.075	246850	keystroke_l	l	n/a
123.4855	0.089	246971	keystroke_e	e	n/a
123.59	0.0895	247180	keystroke_m	m	n/a
123.665	0.1195	247330	keystroke_e	e	n/a
123.77	0.1045	247540	keystroke_n	n	n/a
123.86	0.09	247720	keystroke_t	t	n/a
123.92	0.09	247840	keystroke_e	e	n/a
124.085	0.0745	248170	keystroke_d	d	n/a
124.265	0.0745	248530	keystroke_Key.enter	Key.enter	n/a
124.35	4.747	248700	prompt	n/a	solved informative manually screenshot\n
124.955	0.1195	249910	keystroke_s	s	n/a
125.03	0.0745	250060	keystroke_o	o	n/a
125.18	0.09	250360	keystroke_l	l	n/a
125.24	0.0745	250480	keystroke_v	v	n/a
125.3	0.0745	250600	keystroke_e	e	n/a
125.435	0.1195	250870	keystroke_d	d	n/a
125.51	0.1045	251020	keystroke_Key.space	Key.space	n/a
125.645	0.12	251290	keystroke_i	i	n/a
125.705	0.1195	251410	keystroke_n	n	n/a
125.81	0.0745	251620	keystroke_f	f	n/a
125.9	0.1045	251800	keystroke_o	o	n/a
125.99	0.1045	251980	keystroke_r	r	n/a
126.0655	0.104	252131	keystroke_m	m	n/a
126.155	0.1195	252310	keystroke_a	a	n/a
126.2	0.105	252400	keystroke_t	t	n/a
126.29	0.0895	252580	keystroke_i	i	n/a
126.395	0.12	252790	keystroke_v	v	n/a
126.5	0.1045	253000	keystroke_e	e	n/a
126.56	0.1195	253120	keystroke_Key.space	Key.space	n/a
126.635	0.1045	253270	keystroke_m	m	n/a
126.77	0.1495	253540	keystroke_a	a	n/a
126.83	0.1045	253660	keystroke_n	n	n/a
127.0255	0.0745	254051	keystroke_u	u	n/a
127.085	0.1345	254170	keystroke_a	a	n/a
127.22	0.06	254440	keystroke_l	l	n/a
127.355	0.105	254710	keystroke_l	l	n/a
127.43	0.0895	254860	keystroke_y	y	n/a
127.61	0.06	255220	keystroke_Key.space	Key.space	n/a
127.79	0.075	255580	keystroke_s	s	n/a
127.9555	0.074	255911	keystroke_c	c	n/a
128.105	0.0895	256210	keystroke_r	r	n/a
128.195	0.1195	256390	keystroke_e	e	n/a
128.375	0.09	256750	keystroke_e	e	n/a
128.4805	0.059	256961	keystroke_n	n	n/a
128.585	0.12	257170	keystroke_s	s	n/a
128.69	0.075	257380	keystroke_h	h	n/a
128.825	0.0745	257650	keystroke_o	o	n/a
128.87	0.0895	257740	keystroke_t	t	n/a
129.02	0.075	258040	keystroke_Key.enter	Key.enter	n/a
129.1035	3.893	258207	prompt	n/a	sagem tales immigration endless\n
129.65	0.09	259300	keystroke_s	s	n/a
129.785	0.1345	259570	keystroke_a	a	n/a
129.875	0.1045	259750	keystroke_g	g	n/a
129.9655	0.1195	259931	keystroke_e	e	n/a
130.055	0.0895	260110	keystroke_m	m	n/a
130.16	0.09	260320	keystroke_Key.space	Key.space	n/a
130.235	0.1195	260470	keystroke_t	t	n/a
130.325	0.1345	260650	keystroke_a	a	n/a
130.4155	0.089	260831	keystroke_l	l	n/a
130.49	0.1195	260980	keystroke_e	e	n/a
130.5355	0.134	261071	keystroke_s	s	n/a
130.61	0.105	261220	keystroke_Key.space	Key.space	n/a
130.76	0.1205	261520	keystroke_i	i	n/a
130.85	0.105	261700	keystroke_m	m	n/a
131.15	0.0895	262300	keystroke_m	m	n/a
131.36	0.0895	262720	keystroke_i	i	n/a
131.42	0.0595	262840	keystroke_g	g	n/a
131.57	0.1045	263140	keystroke_r	r	n/a
131.66	0.135	263320	keystroke_a	a	n/a
131.72	0.15	263440	keystroke_t	t	n/a
131.825	0.1495	263650	keystroke_i	i	n/a
131.9	0.1045	263800	keystroke_o	o	n/a
131.945	0.12	263890	keystroke_n	n	n/a
132.05	0.09	264100	keystroke_Key.space	Key.space	n/a
132.125	0.1045	264250	keystroke_e	e	n/a
132.215	0.0895	264430	keystroke_n	n	n/a
132.32	0.0745	264640	keystroke_d	d	n/a
132.44	0.0745	264880	keystroke_l	l	n/a
132.5155	0.0895	265031	keystroke_e	e	n/a
132.59	0.075	265180	keystroke_s	s	n/a
132.755	0.0895	265510	keystroke_s	s	n/a
132.92	0.0745	265840	keystroke_Key.enter	Key.enter	n/a
133.0035	3.683	266007	prompt	n/a	pray atlantic flooring trio\n
133.595	0.1045	267190	keystroke_p	p	n/a
133.775	0.1195	267550	keystroke_r	r	n/a
133.8805	0.1495	267761	keystroke_a	a	n/a
133.985	0.0895	267970	keystroke_y	y	n/a
134.09	0.06	268180	keystroke_Key.space	Key.space	n/a
134.165	0.1345	268330	keystroke_a	a	n/a
134.24	0.1495	268480	keystroke_t	t	n/a
134.36	0.09	268720	keystroke_l	l	n/a
134.51	0.1345	269020	keystroke_a	a	n/a
134.63	0.0745	269260	keystroke_n	n	n/a
134.735	0.1045	269470	keystroke_t	t	n/a
134.855	0.0895	269710	keystroke_i	i	n/a
134.96	0.105	269920	keystroke_c	c	n/a
135.05	0.09	270100	keystroke_Key.space	Key.space	n/a
135.155	0.1045	270310	keystroke_f	f	n/a
135.29	0.06	270580	keystroke_l	l	n/a
135.455	0.075	270910	keystroke_o	o	n/a
135.5905	0.089	271181	keystroke_o	o	n/a
135.6655	0.119	271331	keystroke_r	r	n/a
135.8	0.135	271600	keystroke_i	i	n/a
135.86	0.12	271720	keystroke_n	n	n/a
135.95	0.09	271900	keystroke_g	g	n/a
136.01	0.09	272020	keystroke_Key.space	Key.space	n/a
136.13	0.0745	272260	keystroke_t	t	n/a
136.265	0.1045	272530	keystroke_r	r	n/a
136.355	0.1045	272710	keystroke_i	i	n/a
136.4	0.0895	272800	keystroke_o	o	n/a
136.595	0.0895	273190	keystroke_Key.enter	Key.enter	n/a
136.693	5.469	273386	prompt	n/a	measure transexual supplement selection\n
137.285	0.1045	274570	keystroke_m	m	n/a
137.36	0.135	274720	keystroke_e	e	n/a
137.465	0.12	274930	keystroke_a	a	n/a
137.57	0.1045	275140	keystroke_s	s	n/a
137.69	0.1045	275380	keystroke_u	u	n/a
137.7805	0.1045	275561	keystroke_r	r	n/a
137.825	0.1195	275650	keystroke_e	e	n/a
137.9305	0.089	275861	keystroke_Key.space	Key.space	n/a
138.005	0.0745	276010	keystroke_t	t	n/a
138.185	0.1195	276370	keystroke_r	r	n/a
138.275	0.1645	276550	keystroke_a	a	n/a
138.3205	0.089	276641	keystroke_n	n	n/a
138.575	0.1045	277150	keystroke_s	s	n/a
138.935	0.09	277870	keystroke_e	e	n/a
139.13	0.1045	278260	keystroke_x	x	n/a
139.19	0.09	278380	keystroke_u	u	n/a
139.34	0.1645	278680	keystroke_a	a	n/a
139.445	0.1195	278890	keystroke_l	l	n/a
139.55	0.0745	279100	keystroke_Key.space	Key.space	n/a
139.655	0.1195	279310	keystroke_s	s	n/a
139.805	0.06	279610	keystroke_u	u	n/a
139.8805	0.074	279761	keystroke_p	p	n/a
140.0305	0.074	280061	keystroke_p	p	n/a
140.1805	0.119	280361	keystroke_l	l	n/a
140.285	0.0895	280570	keystroke_e	e	n/a
140.375	0.1045	280750	keystroke_m	m	n/a
140.465	0.1045	280930	keystroke_e	e	n/a
140.555	0.105	281110	keystroke_n	n	n/a
140.645	0.105	281290	keystroke_t	t	n/a
140.735	0.0895	281470	keystroke_Key.space	Key.space	n/a
140.99	0.1195	281980	keystroke_s	s	n/a
141.0805	0.104	282161	keystroke_e	e	n/a
141.2	0.075	282400	keystroke_l	l	n/a
141.26	0.0745	282520	keystroke_e	e	n/a
141.44	0.0595	282880	keystroke_c	c	n/a
141.605	0.0895	283210	keystroke_t	t	n/a
141.71	0.18	283420	keystroke_i	i	n/a
141.785	0.1195	283570	keystroke_o	o	n/a
141.875	0.0745	283750	keystroke_n	n	n/a
142.085	0.0745	284170	keystroke_Key.enter	Key.enter	n/a
142.168	4.585	284336	prompt	n/a	apply heather effectiveness otherwise\n
142.685	0.1045	285370	keystroke_a	a	n/a
142.76	0.0745	285520	keystroke_p	p	n/a
142.91	0.0895	285820	keystroke_p	p	n/a
143.075	0.0745	286150	keystroke_l	l	n/a
143.225	0.09	286450	keystroke_y	y	n/a
143.3305	0.1045	286661	keystroke_Key.space	Key.space	n/a
143.45	0.09	286900	keystroke_h	h	n/a
143.51	0.1345	287020	keystroke_e	e	n/a
143.63	0.1345	287260	keystroke_a	a	n/a
143.69	0.1345	287380	keystroke_t	t	n/a
143.81	0.0895	287620	keystroke_h	h	n/a
143.885	0.12	287770	keystroke_e	e	n/a
143.96	0.1345	287920	keystroke_r	r	n/a
144.05	0.1045	288100	keystroke_Key.space	Key.space	n/a
144.185	0.1195	288370	keystroke_e	e	n/a
144.29	0.06	288580	keystroke_f	f	n/a
144.425	0.1045	288850	keystroke_f	f	n/a
144.5	0.09	289000	keystroke_e	e	n/a
144.6955	0.074	289391	keystroke_c	c	n/a
144.845	0.075	289690	keystroke_t	t	n/a
144.95	0.1045	289900	keystroke_i	i	n/a
145.04	0.0745	290080	keystroke_v	v	n/a
145.145	0.0895	290290	keystroke_e	e	n/a
145.25	0.105	290500	keystroke_n	n	n/a
145.34	0.0745	290680	keystroke_e	e	n/a
145.445	0.1045	290890	keystroke_s	s	n/a
145.625	0.12	291250	keystroke_s	s	n/a
145.715	0.0895	291430	keystroke_Key.space	Key.space	n/a
145.835	0.105	291670	keystroke_o	o	n/a
146.03	0.0895	292060	keystroke_t	t	n/a
146.105	0.075	292210	keystroke_h	h	n/a
146.165	0.0895	292330	keystroke_e	e	n/a
146.225	0.105	292450	keystroke_r	r	n/a
146.3	0.0895	292600	keystroke_w	w	n/a
146.405	0.0745	292810	keystroke_i	i	n/a
146.495	0.1045	292990	keystroke_s	s	n/a
146.555	0.09	293110	keystroke_e	e	n/a
146.66	0.0895	293320	keystroke_Key.enter	Key.enter	n/a
146.7585	3.383	293517	prompt	n/a	menus buzz mighty honey\n
147.41	0.0895	294820	keystroke_m	m	n/a
147.515	0.105	295030	keystroke_e	e	n/a
147.62	0.0895	295240	keystroke_n	n	n/a
147.815	0.0745	295630	keystroke_u	u	n/a
147.875	0.1045	295750	keystroke_s	s	n/a
147.965	0.0595	295930	keystroke_Key.space	Key.space	n/a
148.055	0.1045	296110	keystroke_b	b	n/a
148.13	0.075	296260	keystroke_u	u	n/a
148.25	0.0745	296500	keystroke_z	z	n/a
148.4	0.1045	296800	keystroke_z	z	n/a
148.52	0.06	297040	keystroke_Key.space	Key.space	n/a
148.61	0.1195	297220	keystroke_m	m	n/a
148.715	0.0895	297430	keystroke_i	i	n/a
148.805	0.0745	297610	keystroke_g	g	n/a
148.895	0.0895	297790	keystroke_h	h	n/a
148.97	0.1045	297940	keystroke_t	t	n/a
149.09	0.075	298180	keystroke_y	y	n/a
149.18	0.09	298360	keystroke_Key.space	Key.space	n/a
149.405	0.09	298810	keystroke_h	h	n/a
149.6	0.105	299200	keystroke_o	o	n/a
149.675	0.12	299350	keystroke_n	n	n/a
149.78	0.0895	299560	keystroke_e	e	n/a
149.9	0.0745	299800	keystroke_y	y	n/a
150.065	0.075	300130	keystroke_Key.enter	Key.enter	n/a
150.1475	3.639	300295	prompt	n/a	alcohol false necessarily usda\n
150.7105	0.104	301421	keystroke_a	a	n/a
150.8	0.0745	301600	keystroke_l	l	n/a
150.89	0.0895	301780	keystroke_c	c	n/a
150.995	0.105	301990	keystroke_o	o	n/a
151.085	0.1345	302170	keystroke_h	h	n/a
151.205	0.0745	302410	keystroke_o	o	n/a
151.37	0.09	302740	keystroke_l	l	n/a
151.46	0.0895	302920	keystroke_Key.space	Key.space	n/a
151.535	0.1195	303070	keystroke_f	f	n/a
151.61	0.1495	303220	keystroke_a	a	n/a
151.715	0.0745	303430	keystroke_l	l	n/a
151.7455	0.119	303491	keystroke_s	s	n/a
151.82	0.1195	303640	keystroke_e	e	n/a
151.88	0.105	303760	keystroke_Key.space	Key.space	n/a
151.97	0.0895	303940	keystroke_n	n	n/a
152.045	0.0745	304090	keystroke_e	e	n/a
152.21	0.0745	304420	keystroke_c	c	n/a
152.405	0.09	304810	keystroke_e	e	n/a
152.48	0.1045	304960	keystroke_s	s	n/a
152.675	0.0895	305350	keystroke_s	s	n/a
152.7955	0.119	305591	keystroke_a	a	n/a
152.87	0.1195	305740	keystroke_r	r	n/a
152.96	0.1795	305920	keystroke_i	i	n/a
153.035	0.1195	306070	keystroke_l	l	n/a
153.11	0.09	306220	keystroke_y	y	n/a
153.185	0.105	306370	keystroke_Key.space	Key.space	n/a
153.305	0.0895	306610	keystroke_u	u	n/a
153.38	0.105	306760	keystroke_s	s	n/a
153.455	0.1495	306910	keystroke_d	d	n/a
153.5605	0.119	307121	keystroke_a	a	n/a
153.6955	0.089	307391	keystroke_Key.enter	Key.enter	n/a
153.792	4.3895	307584	prompt	n/a	confidentiality roster pakistan others\n
154.46	0.1045	308920	keystroke_c	c	n/a
154.55	0.1045	309100	keystroke_o	o	n/a
154.595	0.1045	309190	keystroke_n	n	n/a
154.685	0.0895	309370	keystroke_f	f	n/a
154.79	0.0895	309580	keystroke_i	i	n/a
154.85	0.0895	309700	keystroke_d	d	n/a
155.015	0.1045	310030	keystroke_e	e	n/a
155.105	0.075	310210	keystroke_n	n	n/a
155.18	0.1195	310360	keystroke_t	t	n/a
155.285	0.09	310570	keystroke_i	i	n/a
155.3605	0.119	310721	keystroke_a	a	n/a
155.495	0.1345	310990	keystroke_l	l	n/a
155.5855	0.119	311171	keystroke_i	i	n/a
155.69	0.09	311380	keystroke_t	t	n/a
155.825	0.0895	311650	keystroke_y	y	n/a
155.99	0.0895	311980	keystroke_Key.space	Key.space	n/a
156.17	0.1195	312340	keystroke_r	r	n/a
156.275	0.0895	312550	keystroke_o	o	n/a
156.32	0.1195	312640	keystroke_s	s	n/a
156.425	0.1045	312850	keystroke_t	t	n/a
156.545	0.1345	313090	keystroke_e	e	n/a
156.6205	0.1195	313241	keystroke_r	r	n/a
156.695	0.1045	313390	keystroke_Key.space	Key.space	n/a
156.7855	0.104	313571	keystroke_p	p	n/a
156.875	0.1045	313750	keystroke_a	a	n/a
156.965	0.0895	313930	keystroke_k	k	n/a
157.1315	0.103	314263	keystroke_i	i	n/a
157.22	0.1195	314440	keystroke_s	s	n/a
157.3105	0.089	314621	keystroke_t	t	n/a
157.3855	0.1345	314771	keystroke_a	a	n/a
157.49	0.0895	314980	keystroke_n	n	n/a
157.595	0.0895	315190	keystroke_Key.space	Key.space	n/a
157.67	0.09	315340	keystroke_o	o	n/a
157.745	0.1195	315490	keystroke_t	t	n/a
157.85	0.0745	315700	keystroke_h	h	n/a
157.91	0.1045	315820	keystroke_e	e	n/a
157.97	0.1045	315940	keystroke_r	r	n/a
158.03	0.1045	316060	keystroke_s	s	n/a
158.12	0.0595	316240	keystroke_Key.enter	Key.enter	n/a
158.188	5.5285	316376	prompt	n/a	queen warner city pharmaceuticals\n
159.0205	0.104	318041	keystroke_q	q	n/a
159.11	0.1045	318220	keystroke_u	u	n/a
159.185	0.0595	318370	keystroke_e	e	n/a
159.335	0.1045	318670	keystroke_e	e	n/a
159.41	0.0895	318820	keystroke_n	n	n/a
159.515	0.0895	319030	keystroke_Key.space	Key.space	n/a
159.665	0.1045	319330	keystroke_w	w	n/a
159.83	0.1345	319660	keystroke_a	a	n/a
159.935	0.135	319870	keystroke_r	r	n/a
160.0555	0.0745	320111	keystroke_e	e	n/a
160.145	0.0595	320290	keystroke_n	n	n/a
160.445	0.0595	320890	keystroke_Key.backspace	Key.backspace	n/a
160.595	0.075	321190	keystroke_Key.backspace	Key.backspace	n/a
160.82	0.0895	321640	keystroke_n	n	n/a
160.88	0.0745	321760	keystroke_e	e	n/a
160.925	0.135	321850	keystroke_r	r	n/a
161.03	0.09	322060	keystroke_Key.space	Key.space	n/a
161.15	0.0895	322300	keystroke_c	c	n/a
161.255	0.0895	322510	keystroke_i	i	n/a
161.33	0.1195	322660	keystroke_t	t	n/a
161.435	0.075	322870	keystroke_y	y	n/a
161.495	0.105	322990	keystroke_Key.space	Key.space	n/a
161.615	0.1195	323230	keystroke_p	p	n/a
161.69	0.1045	323380	keystroke_h	h	n/a
161.84	0.105	323680	keystroke_a	a	n/a
161.885	0.1345	323770	keystroke_r	r	n/a
162.035	0.1045	324070	keystroke_m	m	n/a
162.44	0.1045	324880	keystroke_a	a	n/a
162.665	0.0595	325330	keystroke_c	c	n/a
162.83	0.0745	325660	keystroke_e	e	n/a
162.92	0.1045	325840	keystroke_u	u	n/a
163.01	0.0895	326020	keystroke_t	t	n/a
163.115	0.1045	326230	keystroke_i	i	n/a
163.19	0.0895	326380	keystroke_c	c	n/a
163.31	0.1195	326620	keystroke_a	a	n/a
163.37	0.0745	326740	keystroke_l	l	n/a
163.49	0.0895	326980	keystroke_s	s	n/a
163.64	0.0745	327280	keystroke_Key.enter	Key.enter	n/a
163.724	4.8075	327448	prompt	n/a	olympics relating hood there'd\n
164.4655	0.0745	328931	keystroke_o	o	n/a
164.63	0.0745	329260	keystroke_l	l	n/a
164.78	0.09	329560	keystroke_y	y	n/a
164.96	0.1045	329920	keystroke_m	m	n/a
165.08	0.1195	330160	keystroke_p	p	n/a
165.17	0.105	330340	keystroke_i	i	n/a
165.305	0.1195	330610	keystroke_c	c	n/a
165.38	0.1345	330760	keystroke_s	s	n/a
165.485	0.09	330970	keystroke_Key.space	Key.space	n/a
165.62	0.12	331240	keystroke_r	r	n/a
165.695	0.1045	331390	keystroke_e	e	n/a
165.815	0.0595	331630	keystroke_l	l	n/a
165.8755	0.1045	331751	keystroke_a	a	n/a
165.92	0.1195	331840	keystroke_t	t	n/a
166.205	0.0295	332410	keystroke_e	e	n/a
166.46	0.075	332920	keystroke_Key.backspace	Key.backspace	n/a
166.7	0.1195	333400	keystroke_i	i	n/a
166.775	0.12	333550	keystroke_n	n	n/a
166.865	0.105	333730	keystroke_g	g	n/a
166.9255	0.1045	333851	keystroke_Key.space	Key.space	n/a
167.015	0.1045	334030	keystroke_h	h	n/a
167.1355	0.044	334271	keystroke_o	o	n/a
167.27	0.0745	334540	keystroke_o	o	n/a
167.315	0.1045	334630	keystroke_d	d	n/a
167.3755	0.119	334751	keystroke_Key.space	Key.space	n/a
167.48	0.1045	334960	keystroke_t	t	n/a
167.54	0.09	335080	keystroke_h	h	n/a
167.615	0.0745	335230	keystroke_e	e	n/a
167.6755	0.119	335351	keystroke_r	r	n/a
167.78	0.0595	335560	keystroke_e	e	n/a
167.81	0.105	335620	keystroke_'	'	n/a
168.02	0.06	336040	keystroke_d	d	n/a
168.44	0.0895	336880	keystroke_Key.enter	Key.enter	n/a
168.541	3.2605	337082	prompt	n/a	weblog emma loving sleeping\n
169.085	0.135	338170	keystroke_w	w	n/a
169.175	0.105	338350	keystroke_e	e	n/a
169.3405	0.1195	338681	keystroke_b	b	n/a
169.43	0.0745	338860	keystroke_l	l	n/a
169.58	0.0895	339160	keystroke_o	o	n/a
169.655	0.1045	339310	keystroke_g	g	n/a
169.73	0.0895	339460	keystroke_Key.space	Key.space	n/a
169.82	0.12	339640	keystroke_e	e	n/a
169.925	0.0895	339850	keystroke_m	m	n/a
170.06	0.0895	340120	keystroke_m	m	n/a
170.135	0.12	340270	keystroke_a	a	n/a
170.21	0.1195	340420	keystroke_Key.space	Key.space	n/a
170.285	0.0595	340570	keystroke_l	l	n/a
170.45	0.0595	340900	keystroke_o	o	n/a
170.51	0.1045	341020	keystroke_v	v	n/a
170.63	0.12	341260	keystroke_i	i	n/a
170.6905	0.104	341381	keystroke_n	n	n/a
170.735	0.12	341470	keystroke_g	g	n/a
170.81	0.0895	341620	keystroke_Key.space	Key.space	n/a
170.915	0.09	341830	keystroke_s	s	n/a
171.005	0.0745	342010	keystroke_l	l	n/a
171.095	0.0595	342190	keystroke_e	e	n/a
171.2305	0.089	342461	keystroke_e	e	n/a
171.305	0.0895	342610	keystroke_p	p	n/a
171.455	0.12	342910	keystroke_i	i	n/a
171.5155	0.1045	343031	keystroke_n	n	n/a
171.605	0.075	343210	keystroke_g	g	n/a
171.71	0.0895	343420	keystroke_Key.enter	Key.enter	n/a
171.808	5.409	343616	prompt	n/a	aged matches guatemala poultry\n
172.34	0.1195	344680	keystroke_a	a	n/a
172.415	0.1045	344830	keystroke_g	g	n/a
172.52	0.0745	345040	keystroke_e	e	n/a
172.67	0.1345	345340	keystroke_d	d	n/a
172.79	0.1045	345580	keystroke_Key.space	Key.space	n/a
172.925	0.1195	345850	keystroke_m	m	n/a
173.03	0.1045	346060	keystroke_a	a	n/a
173.105	0.1045	346210	keystroke_t	t	n/a
173.33	0.0745	346660	keystroke_c	c	n/a
173.42	0.0745	346840	keystroke_h	h	n/a
173.51	0.135	347020	keystroke_e	e	n/a
173.555	0.1345	347110	keystroke_s	s	n/a
173.6455	0.0895	347291	keystroke_Key.space	Key.space	n/a
173.7505	0.104	347501	keystroke_g	g	n/a
173.9	0.1495	347800	keystroke_a	a	n/a
173.99	0.105	347980	keystroke_u	u	n/a
174.335	0.0455	348670	keystroke_Key.backspace	Key.backspace	n/a
174.47	0.075	348940	keystroke_Key.backspace	Key.backspace	n/a
174.65	0.105	349300	keystroke_u	u	n/a
174.7255	0.1195	349451	keystroke_a	a	n/a
174.8	0.1495	349600	keystroke_t	t	n/a
174.92	0.12	349840	keystroke_e	e	n/a
175.055	0.1045	350110	keystroke_m	m	n/a
175.19	0.12	350380	keystroke_a	a	n/a
175.355	0.0745	350710	keystroke_l	l	n/a
175.445	0.105	350890	keystroke_a	a	n/a
175.535	0.0745	351070	keystroke_Key.space	Key.space	n/a
175.685	0.165	351370	keystroke_p	p	n/a
175.82	0.1345	351640	keystroke_o	o	n/a
176.03	0.1195	352060	keystroke_u	u	n/a
176.255	0.0895	352510	keystroke_l	l	n/a
176.375	0.105	352750	keystroke_t	t	n/a
176.81	0.075	353620	keystroke_r	r	n/a
176.93	0.0745	353860	keystroke_y	y	n/a
177.1405	0.074	354281	keystroke_Key.enter	Key.enter	n/a
177.226	4.0105	354452	prompt	n/a	why's perth disability granted\n
177.8905	0.032	355781	keystroke_w	w	n/a
177.922	0.013	355844	keystroke_h	h	n/a
178.0405	0.059	356081	keystroke_y	y	n/a
178.13	0.106	356260	keystroke_'	'	n/a
178.2505	0.104	356501	keystroke_s	s	n/a
178.31	0.112	356620	keystroke_Key.space	Key.space	n/a
178.43	0.1045	356860	keystroke_p	p	n/a
178.4905	0.1045	356981	keystroke_e	e	n/a
178.5655	0.089	357131	keystroke_r	r	n/a
178.715	0.1195	357430	keystroke_t	t	n/a
178.82	0.09	357640	keystroke_h	h	n/a
178.9255	0.0745	357851	keystroke_Key.space	Key.space	n/a
179.03	0.0895	358060	keystroke_d	d	n/a
179.135	0.09	358270	keystroke_i	i	n/a
179.21	0.1045	358420	keystroke_s	s	n/a
179.33	0.105	358660	keystroke_a	a	n/a
179.3905	0.1045	358781	keystroke_b	b	n/a
179.472	0.083	358944	keystroke_i	i	n/a
179.6	0.105	359200	keystroke_l	l	n/a
179.66	0.105	359320	keystroke_i	i	n/a
179.7505	0.1345	359501	keystroke_t	t	n/a
179.855	0.0745	359710	keystroke_y	y	n/a
179.975	0.075	359950	keystroke_Key.space	Key.space	n/a
180.395	0.0745	360790	keystroke_g	g	n/a
180.575	0.12	361150	keystroke_r	r	n/a
180.65	0.15	361300	keystroke_a	a	n/a
180.77	0.075	361540	keystroke_n	n	n/a
180.8305	0.104	361661	keystroke_t	t	n/a
180.905	0.075	361810	keystroke_e	e	n/a
181.04	0.09	362080	keystroke_d	d	n/a
181.145	0.09	362290	keystroke_Key.enter	Key.enter	n/a
181.243	4.2385	362486	prompt	n/a	forced principal doctors complement\n
181.82	0.075	363640	keystroke_f	f	n/a
181.925	0.0895	363850	keystroke_o	o	n/a
181.985	0.075	363970	keystroke_r	r	n/a
182.15	0.0745	364300	keystroke_c	c	n/a
182.315	0.06	364630	keystroke_e	e	n/a
182.435	0.105	364870	keystroke_d	d	n/a
182.51	0.09	365020	keystroke_Key.space	Key.space	n/a
182.63	0.1045	365260	keystroke_p	p	n/a
182.72	0.09	365440	keystroke_r	r	n/a
182.825	0.0895	365650	keystroke_i	i	n/a
182.885	0.09	365770	keystroke_n	n	n/a
182.93	0.1195	365860	keystroke_c	c	n/a
183.065	0.105	366130	keystroke_i	i	n/a
183.1405	0.0895	366281	keystroke_p	p	n/a
183.32	0.1495	366640	keystroke_a	a	n/a
183.426	0.104	366852	keystroke_l	l	n/a
183.515	0.075	367030	keystroke_Key.space	Key.space	n/a
183.6055	0.089	367211	keystroke_d	d	n/a
183.71	0.09	367420	keystroke_o	o	n/a
183.785	0.0745	367570	keystroke_c	c	n/a
183.935	0.0895	367870	keystroke_t	t	n/a
184.055	0.075	368110	keystroke_o	o	n/a
184.1	0.12	368200	keystroke_r	r	n/a
184.175	0.0895	368350	keystroke_s	s	n/a
184.235	0.075	368470	keystroke_Key.space	Key.space	n/a
184.356	0.089	368712	keystroke_c	c	n/a
184.43	0.0895	368860	keystroke_o	o	n/a
184.475	0.1495	368950	keystroke_m	m	n/a
184.565	0.0895	369130	keystroke_p	p	n/a
184.7	0.12	369400	keystroke_l	l	n/a
184.805	0.0745	369610	keystroke_e	e	n/a
184.9555	0.0895	369911	keystroke_m	m	n/a
185.09	0.0595	370180	keystroke_e	e	n/a
185.165	0.075	370330	keystroke_n	n	n/a
185.27	0.0895	370540	keystroke_t	t	n/a
185.405	0.0745	370810	keystroke_Key.enter	Key.enter	n/a
185.492	5.2095	370984	prompt	n/a	properties amateur physician liechtenstein\n
186.11	0.12	372220	keystroke_p	p	n/a
186.215	0.1195	372430	keystroke_r	r	n/a
186.305	0.1045	372610	keystroke_o	o	n/a
186.365	0.1045	372730	keystroke_p	p	n/a
186.425	0.09	372850	keystroke_e	e	n/a
186.4855	0.0895	372971	keystroke_r	r	n/a
186.635	0.135	373270	keystroke_t	t	n/a
186.725	0.0745	373450	keystroke_i	i	n/a
186.785	0.15	373570	keystroke_e	e	n/a
186.845	0.15	373690	keystroke_s	s	n/a
186.95	0.0745	373900	keystroke_Key.space	Key.space	n/a
187.04	0.15	374080	keystroke_a	a	n/a
187.175	0.105	374350	keystroke_m	m	n/a
187.295	0.1195	374590	keystroke_a	a	n/a
187.52	0.075	375040	keystroke_t	t	n/a
187.6555	0.0895	375311	keystroke_e	e	n/a
187.745	0.105	375490	keystroke_u	u	n/a
187.865	0.09	375730	keystroke_r	r	n/a
187.94	0.1045	375880	keystroke_Key.space	Key.space	n/a
188.15	0.1345	376300	keystroke_p	p	n/a
188.27	0.075	376540	keystroke_h	h	n/a
188.45	0.09	376900	keystroke_y	y	n/a
188.525	0.135	377050	keystroke_s	s	n/a
188.675	0.0745	377350	keystroke_i	i	n/a
188.765	0.1045	377530	keystroke_c	c	n/a
188.855	0.09	377710	keystroke_i	i	n/a
188.96	0.18	377920	keystroke_a	a	n/a
189.065	0.09	378130	keystroke_n	n	n/a
189.17	0.09	378340	keystroke_Key.space	Key.space	n/a
189.29	0.105	378580	keystroke_l	l	n/a
189.35	0.105	378700	keystroke_i	i	n/a
189.47	0.075	378940	keystroke_e	e	n/a
189.68	0.0895	379360	keystroke_c	c	n/a
189.755	0.09	379510	keystroke_h	h	n/a
189.875	0.09	379750	keystroke_t	t	n/a
189.935	0.1045	379870	keystroke_e	e	n/a
190.0555	0.104	380111	keystroke_n	n	n/a
190.145	0.12	380290	keystroke_s	s	n/a
190.2505	0.0895	380501	keystroke_t	t	n/a
190.295	0.1195	380590	keystroke_e	e	n/a
190.4	0.105	380800	keystroke_i	i	n/a
190.475	0.075	380950	keystroke_n	n	n/a
190.61	0.09	381220	keystroke_Key.enter	Key.enter	n/a
190.709	4.2825	381418	prompt	n/a	vegetable credit account keyword\n
191.4655	0.1045	382931	keystroke_v	v	n/a
191.6	0.12	383200	keystroke_e	e	n/a
191.705	0.1195	383410	keystroke_g	g	n/a
191.84	0.1345	383680	keystroke_e	e	n/a
191.945	0.105	383890	keystroke_t	t	n/a
192.05	0.1495	384100	keystroke_a	a	n/a
192.1705	0.089	384341	keystroke_b	b	n/a
192.29	0.09	384580	keystroke_l	l	n/a
192.365	0.09	384730	keystroke_e	e	n/a
192.44	0.09	384880	keystroke_Key.space	Key.space	n/a
192.575	0.075	385150	keystroke_c	c	n/a
192.785	0.09	385570	keystroke_r	r	n/a
192.845	0.075	385690	keystroke_e	e	n/a
192.995	0.1045	385990	keystroke_d	d	n/a
193.116	0.104	386232	keystroke_i	i	n/a
193.19	0.105	386380	keystroke_t	t	n/a
193.265	0.09	386530	keystroke_Key.space	Key.space	n/a
193.325	0.09	386650	keystroke_a	a	n/a
193.46	0.075	386920	keystroke_c	c	n/a
193.61	0.09	387220	keystroke_c	c	n/a
193.73	0.105	387460	keystroke_o	o	n/a
193.76	0.1045	387520	keystroke_u	u	n/a
193.94	0.12	387880	keystroke_n	n	n/a
194.015	0.1195	388030	keystroke_t	t	n/a
194.075	0.105	388150	keystroke_Key.space	Key.space	n/a
194.195	0.09	388390	keystroke_k	k	n/a
194.3	0.1345	388600	keystroke_e	e	n/a
194.3905	0.0895	388781	keystroke_y	y	n/a
194.495	0.12	388990	keystroke_w	w	n/a
194.6	0.105	389200	keystroke_o	o	n/a
194.69	0.075	389380	keystroke_r	r	n/a
194.825	0.09	389650	keystroke_d	d	n/a
194.9005	0.089	389801	keystroke_Key.enter	Key.enter	n/a
194.999	7.1025	389998	prompt	n/a	finally jacksonville trip manufacturing\n
195.77	0.105	391540	keystroke_f	f	n/a
195.95	0.105	391900	keystroke_i	i	n/a
196.01	0.09	392020	keystroke_n	n	n/a
196.115	0.09	392230	keystroke_a	a	n/a
196.2205	0.0595	392441	keystroke_l	l	n/a
196.3555	0.1045	392711	keystroke_l	l	n/a
196.415	0.105	392830	keystroke_y	y	n/a
196.5655	0.1495	393131	keystroke_Key.space	Key.space	n/a
196.67	0.105	393340	keystroke_j	j	n/a
196.76	0.105	393520	keystroke_a	a	n/a
196.88	0.105	393760	keystroke_c	c	n/a
196.9705	0.0895	393941	keystroke_k	k	n/a
197.09	0.12	394180	keystroke_s	s	n/a
197.18	0.12	394360	keystroke_o	o	n/a
197.24	0.12	394480	keystroke_n	n	n/a
197.42	0.1195	394840	keystroke_v	v	n/a
197.525	0.06	395050	keystroke_i	i	n/a
197.69	0.045	395380	keystroke_l	l	n/a
197.795	0.1055	395590	keystroke_l	l	n/a
197.8555	0.1045	395711	keystroke_e	e	n/a
197.93	0.09	395860	keystroke_Key.space	Key.space	n/a
198.0205	0.0895	396041	keystroke_t	t	n/a
198.1705	0.119	396341	keystroke_r	r	n/a
198.2305	0.1195	396461	keystroke_i	i	n/a
198.3055	0.1195	396611	keystroke_p	p	n/a
198.455	0.09	396910	keystroke_Key.space	Key.space	n/a
198.56	0.105	397120	keystroke_m	m	n/a
198.65	0.12	397300	keystroke_a	a	n/a
198.725	0.09	397450	keystroke_n	n	n/a
198.905	0.09	397810	keystroke_u	u	n/a
198.965	0.12	397930	keystroke_f	f	n/a
199.175	0.105	398350	keystroke_c	c	n/a
199.31	0.12	398620	keystroke_a	a	n/a
199.415	0.12	398830	keystroke_t	t	n/a
199.55	0.09	399100	keystroke_u	u	n/a
199.61	0.12	399220	keystroke_r	r	n/a
200	0.06	400000	keystroke_Key.backspace	Key.backspace	n/a
200.135	0.075	400270	keystroke_Key.backspace	Key.backspace	n/a
200.285	0.0895	400570	keystroke_Key.backspace	Key.backspace	n/a
200.435	0.06	400870	keystroke_Key.backspace	Key.backspace	n/a
200.615	0.03	401230	keystroke_Key.backspace	Key.backspace	n/a
201.0205	0.0895	402041	keystroke_a	a	n/a
201.23	0.045	402460	keystroke_c	c	n/a
201.365	0.09	402730	keystroke_t	t	n/a
201.44	0.105	402880	keystroke_u	u	n/a
201.5455	0.1045	403091	keystroke_r	r	n/a
201.636	0.134	403272	keystroke_i	i	n/a
201.71	0.105	403420	keystroke_n	n	n/a
201.801	0.074	403602	keystroke_g	g	n/a
202.01	0.09	404020	keystroke_Key.enter	Key.enter	n/a
202.1085	4.748	404217	prompt	n/a	mauritius bronze pension noon\n
202.7155	0.089	405431	keystroke_m	m	n/a
202.88	0.135	405760	keystroke_a	a	n/a
203.0155	0.074	406031	keystroke_u	u	n/a
203.24	0.075	406480	keystroke_i	i	n/a
203.54	0.075	407080	keystroke_Key.backspace	Key.backspace	n/a
203.69	0.12	407380	keystroke_r	r	n/a
203.795	0.0745	407590	keystroke_i	i	n/a
204.11	0.135	408220	keystroke_t	t	n/a
204.215	0.06	408430	keystroke_i	i	n/a
204.29	0.105	408580	keystroke_u	u	n/a
204.4105	0.0895	408821	keystroke_s	s	n/a
204.455	0.105	408910	keystroke_Key.space	Key.space	n/a
204.575	0.105	409150	keystroke_b	b	n/a
204.7855	0.0895	409571	keystroke_r	r	n/a
204.83	0.135	409660	keystroke_o	o	n/a
204.89	0.105	409780	keystroke_n	n	n/a
204.98	0.15	409960	keystroke_z	z	n/a
205.04	0.15	410080	keystroke_e	e	n/a
205.13	0.105	410260	keystroke_Key.space	Key.space	n/a
205.25	0.09	410500	keystroke_p	p	n/a
205.31	0.105	410620	keystroke_e	e	n/a
205.4	0.105	410800	keystroke_n	n	n/a
205.49	0.12	410980	keystroke_s	s	n/a
205.6255	0.1345	411251	keystroke_i	i	n/a
205.6705	0.1045	411341	keystroke_o	o	n/a
205.715	0.105	411430	keystroke_n	n	n/a
205.8355	0.1045	411671	keystroke_Key.space	Key.space	n/a
205.9705	0.089	411941	keystroke_n	n	n/a
206.06	0.105	412120	keystroke_o	o	n/a
206.39	0.0465	412780	keystroke_o	o	n/a
206.6005	0.0595	413201	keystroke_n	n	n/a
206.78	0.075	413560	keystroke_Key.enter	Key.enter	n/a
206.865	4.282	413730	prompt	n/a	principles existed seller handhelds\n
207.515	0.0895	415030	keystroke_p	p	n/a
207.8	0.09	415600	keystroke_r	r	n/a
207.905	0.105	415810	keystroke_i	i	n/a
207.965	0.0895	415930	keystroke_n	n	n/a
208.0255	0.1195	416051	keystroke_c	c	n/a
208.13	0.105	416260	keystroke_i	i	n/a
208.205	0.075	416410	keystroke_p	p	n/a
208.355	0.105	416710	keystroke_l	l	n/a
208.4	0.165	416800	keystroke_e	e	n/a
208.46	0.15	416920	keystroke_s	s	n/a
208.595	0.09	417190	keystroke_Key.space	Key.space	n/a
208.7	0.075	417400	keystroke_e	e	n/a
208.85	0.105	417700	keystroke_x	x	n/a
208.97	0.075	417940	keystroke_i	i	n/a
209.0605	0.1195	418121	keystroke_s	s	n/a
209.165	0.1355	418330	keystroke_t	t	n/a
209.2855	0.0745	418571	keystroke_e	e	n/a
209.4355	0.1045	418871	keystroke_d	d	n/a
209.525	0.0895	419050	keystroke_Key.space	Key.space	n/a
209.645	0.09	419290	keystroke_s	s	n/a
209.72	0.105	419440	keystroke_e	e	n/a
209.855	0.06	419710	keystroke_l	l	n/a
209.99	0.09	419980	keystroke_l	l	n/a
210.05	0.12	420100	keystroke_e	e	n/a
210.11	0.12	420220	keystroke_r	r	n/a
210.185	0.105	420370	keystroke_Key.space	Key.space	n/a
210.275	0.09	420550	keystroke_h	h	n/a
210.395	0.105	420790	keystroke_a	a	n/a
210.455	0.105	420910	keystroke_n	n	n/a
210.545	0.09	421090	keystroke_d	d	n/a
210.665	0.075	421330	keystroke_h	h	n/a
210.756	0.074	421512	keystroke_e	e	n/a
210.845	0.075	421690	keystroke_l	l	n/a
210.935	0.105	421870	keystroke_d	d	n/a
210.98	0.12	421960	keystroke_s	s	n/a
211.07	0.075	422140	keystroke_Key.enter	Key.enter	n/a
211.153	3.8035	422306	prompt	n/a	secret ncaa incorrect walls\n
211.73	0.09	423460	keystroke_s	s	n/a
211.805	0.075	423610	keystroke_e	e	n/a
212	0.06	424000	keystroke_c	c	n/a
212.1355	0.1195	424271	keystroke_r	r	n/a
212.2105	0.1045	424421	keystroke_e	e	n/a
212.33	0.135	424660	keystroke_t	t	n/a
212.4355	0.1045	424871	keystroke_Key.space	Key.space	n/a
212.6	0.09	425200	keystroke_n	n	n/a
212.765	0.0895	425530	keystroke_c	c	n/a
212.99	0.105	425980	keystroke_a	a	n/a
213.155	0.1345	426310	keystroke_a	a	n/a
213.26	0.12	426520	keystroke_Key.space	Key.space	n/a
213.365	0.135	426730	keystroke_i	i	n/a
213.4265	0.0885	426853	keystroke_n	n	n/a
213.4855	0.0895	426971	keystroke_c	c	n/a
213.605	0.12	427210	keystroke_o	o	n/a
213.68	0.06	427360	keystroke_r	r	n/a
213.8155	0.0895	427631	keystroke_r	r	n/a
213.875	0.075	427750	keystroke_e	e	n/a
214.07	0.06	428140	keystroke_c	c	n/a
214.22	0.1045	428440	keystroke_t	t	n/a
214.295	0.09	428590	keystroke_Key.space	Key.space	n/a
214.4005	0.0745	428801	keystroke_w	w	n/a
214.4905	0.119	428981	keystroke_a	a	n/a
214.5655	0.0595	429131	keystroke_l	l	n/a
214.685	0.06	429370	keystroke_l	l	n/a
214.7605	0.104	429521	keystroke_s	s	n/a
214.895	0.06	429790	keystroke_Key.enter	Key.enter	n/a
214.9625	3.759	429925	prompt	n/a	administrator same realty assure\n
215.495	0.12	430990	keystroke_a	a	n/a
215.615	0.09	431230	keystroke_d	d	n/a
215.72	0.105	431440	keystroke_m	m	n/a
215.84	0.105	431680	keystroke_i	i	n/a
215.93	0.12	431860	keystroke_n	n	n/a
216.005	0.12	432010	keystroke_i	i	n/a
216.095	0.09	432190	keystroke_s	s	n/a
216.155	0.075	432310	keystroke_t	t	n/a
216.305	0.105	432610	keystroke_r	r	n/a
216.3955	0.1195	432791	keystroke_a	a	n/a
216.47	0.105	432940	keystroke_t	t	n/a
216.59	0.0745	433180	keystroke_o	o	n/a
216.695	0.12	433390	keystroke_r	r	n/a
216.785	0.09	433570	keystroke_Key.space	Key.space	n/a
216.92	0.075	433840	keystroke_s	s	n/a
217.04	0.18	434080	keystroke_a	a	n/a
217.145	0.105	434290	keystroke_m	m	n/a
217.265	0.12	434530	keystroke_e	e	n/a
217.385	0.075	434770	keystroke_Key.space	Key.space	n/a
217.4905	0.119	434981	keystroke_r	r	n/a
217.5505	0.119	435101	keystroke_e	e	n/a
217.64	0.135	435280	keystroke_a	a	n/a
217.745	0.09	435490	keystroke_l	l	n/a
217.8505	0.1045	435701	keystroke_t	t	n/a
217.9405	0.1045	435881	keystroke_y	y	n/a
218.015	0.09	436030	keystroke_Key.space	Key.space	n/a
218.09	0.1045	436180	keystroke_a	a	n/a
218.18	0.06	436360	keystroke_s	s	n/a
218.33	0.0895	436660	keystroke_s	s	n/a
218.4055	0.0895	436811	keystroke_u	u	n/a
218.51	0.075	437020	keystroke_r	r	n/a
218.54	0.105	437080	keystroke_e	e	n/a
218.63	0.0895	437260	keystroke_Key.enter	Key.enter	n/a
218.728	3.6535	437456	prompt	n/a	books grew charlie camcorder\n
219.305	0.12	438610	keystroke_b	b	n/a
219.41	0.06	438820	keystroke_o	o	n/a
219.5455	0.1495	439091	keystroke_o	o	n/a
219.635	0.12	439270	keystroke_k	k	n/a
219.71	0.1195	439420	keystroke_s	s	n/a
219.815	0.09	439630	keystroke_Key.space	Key.space	n/a
219.875	0.075	439750	keystroke_g	g	n/a
220.025	0.135	440050	keystroke_r	r	n/a
220.13	0.165	440260	keystroke_e	e	n/a
220.265	0.135	440530	keystroke_w	w	n/a
220.3855	0.1045	440771	keystroke_Key.space	Key.space	n/a
220.5505	0.1045	441101	keystroke_c	c	n/a
220.67	0.06	441340	keystroke_h	h	n/a
220.745	0.12	441490	keystroke_a	a	n/a
220.7905	0.1345	441581	keystroke_r	r	n/a
220.91	0.1195	441820	keystroke_l	l	n/a
220.97	0.12	441940	keystroke_i	i	n/a
221.045	0.09	442090	keystroke_e	e	n/a
221.1205	0.0895	442241	keystroke_Key.space	Key.space	n/a
221.27	0.09	442540	keystroke_c	c	n/a
221.375	0.135	442750	keystroke_a	a	n/a
221.465	0.0895	442930	keystroke_m	m	n/a
221.615	0.105	443230	keystroke_c	c	n/a
221.7505	0.1045	443501	keystroke_o	o	n/a
221.87	0.09	443740	keystroke_r	r	n/a
221.975	0.0895	443950	keystroke_d	d	n/a
222.11	0.105	444220	keystroke_e	e	n/a
222.1855	0.1045	444371	keystroke_r	r	n/a
222.305	0.075	444610	keystroke_Key.enter	Key.enter	n/a
222.3895	6.1275	444779	prompt	n/a	schedule solomon pattern examination\n
222.9655	0.104	445931	keystroke_s	s	n/a
223.1455	0.089	446291	keystroke_c	c	n/a
223.2505	0.0895	446501	keystroke_h	h	n/a
223.325	0.075	446650	keystroke_e	e	n/a
223.46	0.09	446920	keystroke_d	d	n/a
223.5505	0.119	447101	keystroke_u	u	n/a
223.685	0.105	447370	keystroke_l	l	n/a
223.745	0.09	447490	keystroke_e	e	n/a
223.82	0.075	447640	keystroke_Key.space	Key.space	n/a
223.925	0.09	447850	keystroke_s	s	n/a
223.985	0.06	447970	keystroke_o	o	n/a
224.1505	0.059	448301	keystroke_l	l	n/a
224.315	0.12	448630	keystroke_o	o	n/a
224.4205	0.1195	448841	keystroke_m	m	n/a
224.6005	0.1045	449201	keystroke_o	o	n/a
224.6605	0.1195	449321	keystroke_n	n	n/a
224.8405	0.0895	449681	keystroke_Key.space	Key.space	n/a
224.9905	0.0895	449981	keystroke_p	p	n/a
225.095	0.12	450190	keystroke_a	a	n/a
225.185	0.075	450370	keystroke_t	t	n/a
225.32	0.09	450640	keystroke_t	t	n/a
225.455	0.135	450910	keystroke_e	e	n/a
225.5155	0.1795	451031	keystroke_r	r	n/a
225.6205	0.1045	451241	keystroke_n	n	n/a
225.71	0.105	451420	keystroke_Key.space	Key.space	n/a
225.8005	0.0745	451601	keystroke_e	e	n/a
225.98	0.15	451960	keystroke_x	x	n/a
226.115	0.135	452230	keystroke_a	a	n/a
226.2055	0.0895	452411	keystroke_m	m	n/a
226.325	0.12	452650	keystroke_i	i	n/a
226.4005	0.1195	452801	keystroke_n	n	n/a
227.9155	0.1345	455831	keystroke_a	a	n/a
228.02	0.12	456040	keystroke_t	t	n/a
228.11	0.1645	456220	keystroke_i	i	n/a
228.171	0.119	456342	keystroke_o	o	n/a
228.245	0.09	456490	keystroke_n	n	n/a
228.44	0.075	456880	keystroke_Key.enter	Key.enter	n/a
228.5235	5.213	457047	prompt	n/a	statutory mailman pollution leather\n
229.325	0.105	458650	keystroke_s	s	n/a
229.49	0.12	458980	keystroke_t	t	n/a
229.655	0.135	459310	keystroke_a	a	n/a
229.76	0.09	459520	keystroke_t	t	n/a
230.24	0.09	460480	keystroke_u	u	n/a
230.5255	0.1195	461051	keystroke_t	t	n/a
230.66	0.06	461320	keystroke_o	o	n/a
230.735	0.135	461470	keystroke_r	r	n/a
230.84	0.09	461680	keystroke_y	y	n/a
230.9155	0.0895	461831	keystroke_Key.space	Key.space	n/a
231.11	0.09	462220	keystroke_m	m	n/a
231.2155	0.119	462431	keystroke_a	a	n/a
231.335	0.1495	462670	keystroke_i	i	n/a
231.41	0.15	462820	keystroke_l	l	n/a
231.545	0.105	463090	keystroke_m	m	n/a
231.6805	0.1495	463361	keystroke_a	a	n/a
231.7555	0.0895	463511	keystroke_n	n	n/a
231.86	0.09	463720	keystroke_Key.space	Key.space	n/a
231.935	0.12	463870	keystroke_p	p	n/a
232.01	0.09	464020	keystroke_o	o	n/a
232.1905	0.0745	464381	keystroke_l	l	n/a
232.34	0.09	464680	keystroke_l	l	n/a
232.58	0.09	465160	keystroke_u	u	n/a
232.655	0.135	465310	keystroke_t	t	n/a
232.775	0.12	465550	keystroke_i	i	n/a
232.805	0.105	465610	keystroke_o	o	n/a
232.8655	0.0895	465731	keystroke_n	n	n/a
233	0.075	466000	keystroke_Key.space	Key.space	n/a
233.045	0.105	466090	keystroke_l	l	n/a
233.1655	0.1345	466331	keystroke_e	e	n/a
233.2705	0.1195	466541	keystroke_a	a	n/a
233.33	0.135	466660	keystroke_t	t	n/a
233.435	0.09	466870	keystroke_h	h	n/a
233.51	0.09	467020	keystroke_e	e	n/a
233.5555	0.1045	467111	keystroke_r	r	n/a
233.675	0.06	467350	keystroke_Key.enter	Key.enter	n/a
233.744	6.713	467488	prompt	n/a	elections beijing latex expedia\n
236.495	0.105	472990	keystroke_e	e	n/a
236.585	0.075	473170	keystroke_l	l	n/a
236.675	0.075	473350	keystroke_e	e	n/a
236.8555	0.06	473711	keystroke_c	c	n/a
237.0205	0.0745	474041	keystroke_t	t	n/a
237.1105	0.1345	474221	keystroke_i	i	n/a
237.155	0.12	474310	keystroke_o	o	n/a
237.2155	0.0895	474431	keystroke_n	n	n/a
237.26	0.105	474520	keystroke_s	s	n/a
237.3205	0.0895	474641	keystroke_Key.space	Key.space	n/a
237.44	0.09	474880	keystroke_b	b	n/a
237.605	0.06	475210	keystroke_e	e	n/a
237.62	0.06	475240	keystroke_i	i	n/a
237.9625	0.0325	475925	keystroke_Key.backspace	Key.backspace	n/a
238.085	0.075	476170	keystroke_Key.backspace	Key.backspace	n/a
238.4005	0.1195	476801	keystroke_e	e	n/a
238.55	0.079	477100	keystroke_i	i	n/a
238.67	0.105	477340	keystroke_j	j	n/a
238.76	0.135	477520	keystroke_i	i	n/a
238.8355	0.1045	477671	keystroke_n	n	n/a
238.91	0.105	477820	keystroke_g	g	n/a
238.9555	0.1045	477911	keystroke_Key.space	Key.space	n/a
239.0455	0.0835	478091	keystroke_l	l	n/a
239.0905	0.1195	478181	keystroke_a	a	n/a
239.166	0.1045	478332	keystroke_t	t	n/a
239.225	0.075	478450	keystroke_e	e	n/a
239.3905	0.0895	478781	keystroke_x	x	n/a
239.4655	0.0895	478931	keystroke_Key.space	Key.space	n/a
239.6	0.09	479200	keystroke_e	e	n/a
239.81	0.09	479620	keystroke_x	x	n/a
239.87	0.105	479740	keystroke_p	p	n/a
239.99	0.075	479980	keystroke_e	e	n/a
240.155	0.075	480310	keystroke_d	d	n/a
240.2	0.075	480400	keystroke_i	i	n/a
240.305	0.105	480610	keystroke_a	a	n/a
240.3805	0.0745	480761	keystroke_Key.enter	Key.enter	n/a
240.4655	4.732	480931	prompt	n/a	contest specialized sally doom\n
241.1	0.09	482200	keystroke_c	c	n/a
241.175	0.105	482350	keystroke_o	o	n/a
241.235	0.105	482470	keystroke_n	n	n/a
241.31	0.105	482620	keystroke_t	t	n/a
241.3855	0.1645	482771	keystroke_e	e	n/a
241.46	0.105	482920	keystroke_s	s	n/a
241.535	0.105	483070	keystroke_t	t	n/a
241.655	0.06	483310	keystroke_Key.space	Key.space	n/a
242.165	0.105	484330	keystroke_s	s	n/a
242.255	0.12	484510	keystroke_p	p	n/a
242.3305	0.0895	484661	keystroke_e	e	n/a
242.51	0.09	485020	keystroke_c	c	n/a
242.6155	0.0745	485231	keystroke_i	i	n/a
242.675	0.105	485350	keystroke_a	a	n/a
242.795	0.09	485590	keystroke_l	l	n/a
242.84	0.1195	485680	keystroke_i	i	n/a
242.9	0.075	485800	keystroke_z	z	n/a
242.945	0.075	485890	keystroke_e	e	n/a
243.095	0.105	486190	keystroke_d	d	n/a
243.185	0.075	486370	keystroke_Key.space	Key.space	n/a
243.245	0.09	486490	keystroke_s	s	n/a
243.395	0.12	486790	keystroke_a	a	n/a
243.5	0.06	487000	keystroke_l	l	n/a
243.635	0.12	487270	keystroke_l	l	n/a
243.7405	0.0745	487481	keystroke_y	y	n/a
243.8755	0.1045	487751	keystroke_d	d	n/a
244.025	0.075	488050	keystroke_o	o	n/a
244.31	0.045	488620	keystroke_Key.backspace	Key.backspace	n/a
244.445	0.0605	488890	keystroke_Key.backspace	Key.backspace	n/a
244.5655	0.0895	489131	keystroke_Key.space	Key.space	n/a
244.64	0.09	489280	keystroke_d	d	n/a
244.7455	0.0595	489491	keystroke_o	o	n/a
244.8805	0.1045	489761	keystroke_o	o	n/a
244.955	0.105	489910	keystroke_m	m	n/a
245.12	0.075	490240	keystroke_Key.enter	Key.enter	n/a
245.204	4.0725	490408	prompt	n/a	reflections breathing burke says\n
245.75	0.075	491500	keystroke_f	f	n/a
246.005	0.0595	492010	keystroke_Key.backspace	Key.backspace	n/a
246.0955	0.1195	492191	keystroke_r	r	n/a
246.2005	0.1195	492401	keystroke_e	e	n/a
246.305	0.105	492610	keystroke_f	f	n/a
246.425	0.06	492850	keystroke_l	l	n/a
246.5	0.0745	493000	keystroke_e	e	n/a
246.65	0.075	493300	keystroke_c	c	n/a
246.8305	0.0895	493661	keystroke_t	t	n/a
246.905	0.165	493810	keystroke_i	i	n/a
246.965	0.12	493930	keystroke_o	o	n/a
247.0105	0.1195	494021	keystroke_n	n	n/a
247.0555	0.104	494111	keystroke_s	s	n/a
247.145	0.06	494290	keystroke_Key.space	Key.space	n/a
247.25	0.045	494500	keystroke_b	b	n/a
247.4305	0.1495	494861	keystroke_r	r	n/a
247.505	0.135	495010	keystroke_e	e	n/a
247.5955	0.1195	495191	keystroke_a	a	n/a
247.6555	0.1345	495311	keystroke_t	t	n/a
247.775	0.105	495550	keystroke_h	h	n/a
247.865	0.1345	495730	keystroke_i	i	n/a
247.94	0.12	495880	keystroke_n	n	n/a
248.015	0.1055	496030	keystroke_g	g	n/a
248.0905	0.0895	496181	keystroke_Key.space	Key.space	n/a
248.21	0.075	496420	keystroke_b	b	n/a
248.36	0.105	496720	keystroke_u	u	n/a
248.45	0.12	496900	keystroke_r	r	n/a
248.5555	0.0895	497111	keystroke_k	k	n/a
248.615	0.105	497230	keystroke_e	e	n/a
248.705	0.075	497410	keystroke_Key.space	Key.space	n/a
248.765	0.105	497530	keystroke_s	s	n/a
248.9	0.12	497800	keystroke_a	a	n/a
249.0055	0.0745	498011	keystroke_y	y	n/a
249.0955	0.0895	498191	keystroke_s	s	n/a
249.2005	0.0745	498401	keystroke_Key.enter	Key.enter	n/a
249.2835	3.923	498567	prompt	n/a	interpreted bureau cold links\n
249.9805	0.1045	499961	keystroke_i	i	n/a
250.0405	0.1195	500081	keystroke_n	n	n/a
250.115	0.135	500230	keystroke_t	t	n/a
250.2955	0.119	500591	keystroke_e	e	n/a
250.4	0.105	500800	keystroke_r	r	n/a
250.5355	0.1045	501071	keystroke_p	p	n/a
250.64	0.12	501280	keystroke_r	r	n/a
250.7305	0.1345	501461	keystroke_e	e	n/a
250.85	0.135	501700	keystroke_t	t	n/a
250.955	0.075	501910	keystroke_e	e	n/a
251.105	0.105	502210	keystroke_d	d	n/a
251.1955	0.0895	502391	keystroke_Key.space	Key.space	n/a
251.345	0.09	502690	keystroke_b	b	n/a
251.54	0.0895	503080	keystroke_u	u	n/a
251.675	0.105	503350	keystroke_r	r	n/a
251.75	0.135	503500	keystroke_e	e	n/a
251.855	0.15	503710	keystroke_a	a	n/a
251.96	0.09	503920	keystroke_u	u	n/a
252.08	0.075	504160	keystroke_Key.space	Key.space	n/a
252.2	0.075	504400	keystroke_c	c	n/a
252.26	0.075	504520	keystroke_o	o	n/a
252.41	0.09	504820	keystroke_l	l	n/a
252.485	0.105	504970	keystroke_d	d	n/a
252.5455	0.1195	505091	keystroke_Key.space	Key.space	n/a
252.635	0.09	505270	keystroke_l	l	n/a
252.71	0.12	505420	keystroke_i	i	n/a
252.785	0.105	505570	keystroke_n	n	n/a
252.92	0.0895	505840	keystroke_k	k	n/a
252.995	0.12	505990	keystroke_s	s	n/a
253.13	0.075	506260	keystroke_Key.enter	Key.enter	n/a
253.2145	4.1025	506429	prompt	n/a	aware filing workforce please\n
253.775	0.12	507550	keystroke_a	a	n/a
253.925	0.135	507850	keystroke_w	w	n/a
254.1055	0.0895	508211	keystroke_a	a	n/a
254.5705	0.1195	509141	keystroke_r	r	n/a
254.6455	0.1495	509291	keystroke_e	e	n/a
254.78	0.09	509560	keystroke_Key.space	Key.space	n/a
254.8555	0.1345	509711	keystroke_f	f	n/a
254.9605	0.1345	509921	keystroke_i	i	n/a
255.065	0.15	510130	keystroke_l	l	n/a
255.17	0.135	510340	keystroke_i	i	n/a
255.23	0.12	510460	keystroke_n	n	n/a
255.29	0.1205	510580	keystroke_g	g	n/a
255.38	0.09	510760	keystroke_Key.space	Key.space	n/a
255.4855	0.1045	510971	keystroke_w	w	n/a
255.56	0.105	511120	keystroke_o	o	n/a
255.665	0.09	511330	keystroke_r	r	n/a
255.74	0.105	511480	keystroke_k	k	n/a
255.83	0.12	511660	keystroke_f	f	n/a
256.085	0.12	512170	keystroke_o	o	n/a
256.1905	0.0745	512381	keystroke_r	r	n/a
256.37	0.0745	512740	keystroke_c	c	n/a
256.535	0.105	513070	keystroke_e	e	n/a
256.6105	0.1045	513221	keystroke_Key.space	Key.space	n/a
256.685	0.0745	513370	keystroke_p	p	n/a
256.805	0.105	513610	keystroke_l	l	n/a
256.85	0.12	513700	keystroke_e	e	n/a
256.94	0.105	513880	keystroke_a	a	n/a
257.015	0.135	514030	keystroke_s	s	n/a
257.12	0.09	514240	keystroke_e	e	n/a
257.225	0.09	514450	keystroke_Key.enter	Key.enter	n/a
257.3235	3.053	514647	prompt	n/a	supported reload ment leaf\n
257.9005	0.0745	515801	keystroke_s	s	n/a
257.99	0.09	515980	keystroke_u	u	n/a
258.0955	0.0895	516191	keystroke_p	p	n/a
258.275	0.075	516550	keystroke_p	p	n/a
258.32	0.1345	516640	keystroke_o	o	n/a
258.425	0.075	516850	keystroke_r	r	n/a
258.545	0.09	517090	keystroke_t	t	n/a
258.6355	0.0445	517271	keystroke_e	e	n/a
258.785	0.105	517570	keystroke_d	d	n/a
258.905	0.0755	517810	keystroke_Key.space	Key.space	n/a
258.965	0.12	517930	keystroke_r	r	n/a
259.041	0.119	518082	keystroke_e	e	n/a
259.13	0.06	518260	keystroke_l	l	n/a
259.28	0.0895	518560	keystroke_o	o	n/a
259.385	0.12	518770	keystroke_a	a	n/a
259.4	0.15	518800	keystroke_d	d	n/a
259.52	0.09	519040	keystroke_Key.space	Key.space	n/a
259.595	0.09	519190	keystroke_m	m	n/a
259.6705	0.1195	519341	keystroke_e	e	n/a
259.7755	0.0895	519551	keystroke_n	n	n/a
259.8355	0.1195	519671	keystroke_t	t	n/a
259.925	0.105	519850	keystroke_Key.space	Key.space	n/a
260	0.075	520000	keystroke_l	l	n/a
260.0605	0.1495	520121	keystroke_e	e	n/a
260.15	0.105	520300	keystroke_a	a	n/a
260.211	0.119	520422	keystroke_f	f	n/a
260.3155	0.0595	520631	keystroke_Key.enter	Key.enter	n/a
260.384	5.9025	520768	prompt	n/a	editors greensboro karaoke pierre\n
261.08	0.075	522160	keystroke_e	e	n/a
261.2455	0.0895	522491	keystroke_d	d	n/a
261.32	0.09	522640	keystroke_i	i	n/a
261.425	0.075	522850	keystroke_t	t	n/a
261.515	0.09	523030	keystroke_o	o	n/a
261.5755	0.1495	523151	keystroke_r	r	n/a
261.65	0.135	523300	keystroke_s	s	n/a
261.755	0.075	523510	keystroke_Key.space	Key.space	n/a
261.875	0.075	523750	keystroke_g	g	n/a
262.04	0.09	524080	keystroke_r	r	n/a
262.085	0.075	524170	keystroke_e	e	n/a
262.265	0.09	524530	keystroke_e	e	n/a
262.34	0.075	524680	keystroke_n	n	n/a
262.43	0.105	524860	keystroke_s	s	n/a
262.625	0.09	525250	keystroke_b	b	n/a
262.655	0.045	525310	keystroke_o	o	n/a
262.97	0.06	525940	keystroke_Key.backspace	Key.backspace	n/a
263.12	0.075	526240	keystroke_Key.backspace	Key.backspace	n/a
263.345	0.075	526690	keystroke_b	b	n/a
263.435	0.075	526870	keystroke_o	o	n/a
263.57	0.09	527140	keystroke_r	r	n/a
263.6605	0.0895	527321	keystroke_o	o	n/a
263.78	0.105	527560	keystroke_Key.space	Key.space	n/a
263.93	0.09	527860	keystroke_k	k	n/a
264.14	0.135	528280	keystroke_a	a	n/a
264.23	0.12	528460	keystroke_r	r	n/a
264.3655	0.1345	528731	keystroke_a	a	n/a
264.545	0.105	529090	keystroke_o	o	n/a
264.68	0.12	529360	keystroke_k	k	n/a
264.815	0.135	529630	keystroke_e	e	n/a
264.9205	0.1045	529841	keystroke_Key.space	Key.space	n/a
265.1305	0.0895	530261	keystroke_p	p	n/a
265.19	0.12	530380	keystroke_i	i	n/a
265.2955	0.0895	530591	keystroke_e	e	n/a
265.3705	0.0595	530741	keystroke_r	r	n/a
265.505	0.1205	531010	keystroke_r	r	n/a
265.6105	0.1045	531221	keystroke_e	e	n/a
266.195	0.09	532390	keystroke_Key.enter	Key.enter	n/a
266.2935	3.6235	532587	prompt	n/a	markers crisis top murray\n
266.87	0.09	533740	keystroke_m	m	n/a
266.9755	0.1195	533951	keystroke_a	a	n/a
267.035	0.135	534070	keystroke_r	r	n/a
267.14	0.075	534280	keystroke_k	k	n/a
267.2	0.135	534400	keystroke_e	e	n/a
267.2905	0.1345	534581	keystroke_r	r	n/a
267.365	0.135	534730	keystroke_s	s	n/a
267.455	0.105	534910	keystroke_Key.space	Key.space	n/a
267.62	0.09	535240	keystroke_c	c	n/a
267.815	0.12	535630	keystroke_r	r	n/a
267.9205	0.0595	535841	keystroke_i	i	n/a
268.025	0.135	536050	keystroke_s	s	n/a
268.1755	0.0895	536351	keystroke_i	i	n/a
268.3855	0.0745	536771	keystroke_s	s	n/a
268.5505	0.0895	537101	keystroke_Key.space	Key.space	n/a
268.6705	0.1195	537341	keystroke_t	t	n/a
268.7755	0.1045	537551	keystroke_o	o	n/a
268.8205	0.1045	537641	keystroke_p	p	n/a
268.9255	0.1045	537851	keystroke_Key.space	Key.space	n/a
269.0155	0.0895	538031	keystroke_m	m	n/a
269.2105	0.0745	538421	keystroke_u	u	n/a
269.3005	0.06	538601	keystroke_r	r	n/a
269.4355	0.1195	538871	keystroke_r	r	n/a
269.54	0.1355	539080	keystroke_a	a	n/a
269.631	0.0595	539262	keystroke_y	y	n/a
269.84	0.075	539680	keystroke_Key.enter	Key.enter	n/a
269.923	3.9085	539846	prompt	n/a	grant grenada emerald depends\n
270.5755	0.0595	541151	keystroke_g	g	n/a
270.7405	0.1195	541481	keystroke_r	r	n/a
270.8155	0.1495	541631	keystroke_a	a	n/a
270.92	0.09	541840	keystroke_n	n	n/a
270.995	0.12	541990	keystroke_t	t	n/a
271.085	0.09	542170	keystroke_Key.space	Key.space	n/a
271.19	0.06	542380	keystroke_g	g	n/a
271.34	0.09	542680	keystroke_r	r	n/a
271.3855	0.1045	542771	keystroke_e	e	n/a
271.52	0.075	543040	keystroke_n	n	n/a
271.5955	0.1195	543191	keystroke_a	a	n/a
271.7	0.135	543400	keystroke_d	d	n/a
271.8205	0.1345	543641	keystroke_a	a	n/a
271.9405	0.0895	543881	keystroke_Key.space	Key.space	n/a
272.12	0.09	544240	keystroke_e	e	n/a
272.2255	0.0895	544451	keystroke_m	m	n/a
272.315	0.12	544630	keystroke_e	e	n/a
272.3905	0.1195	544781	keystroke_r	r	n/a
272.48	0.15	544960	keystroke_a	a	n/a
272.6	0.105	545200	keystroke_l	l	n/a
272.69	0.12	545380	keystroke_d	d	n/a
272.78	0.09	545560	keystroke_Key.space	Key.space	n/a
272.885	0.105	545770	keystroke_d	d	n/a
273.05	0.09	546100	keystroke_e	e	n/a
273.17	0.105	546340	keystroke_p	p	n/a
273.215	0.105	546430	keystroke_e	e	n/a
273.3655	0.1045	546731	keystroke_n	n	n/a
273.41	0.165	546820	keystroke_d	d	n/a
273.515	0.15	547030	keystroke_s	s	n/a
273.755	0.075	547510	keystroke_Key.enter	Key.enter	n/a
273.839	3.6675	547678	prompt	n/a	twice invoice providers saved\n
274.4605	0.1045	548921	keystroke_t	t	n/a
274.535	0.12	549070	keystroke_w	w	n/a
274.6105	0.1045	549221	keystroke_i	i	n/a
274.76	0.09	549520	keystroke_c	c	n/a
274.955	0.075	549910	keystroke_e	e	n/a
275	0.12	550000	keystroke_Key.space	Key.space	n/a
275.105	0.1345	550210	keystroke_i	i	n/a
275.18	0.105	550360	keystroke_n	n	n/a
275.3	0.12	550600	keystroke_v	v	n/a
275.39	0.09	550780	keystroke_o	o	n/a
275.4355	0.1195	550871	keystroke_i	i	n/a
275.4955	0.0895	550991	keystroke_c	c	n/a
275.6605	0.0895	551321	keystroke_e	e	n/a
275.7505	0.1045	551501	keystroke_Key.space	Key.space	n/a
275.8705	0.0895	551741	keystroke_p	p	n/a
275.93	0.105	551860	keystroke_r	r	n/a
276.05	0.09	552100	keystroke_o	o	n/a
276.155	0.075	552310	keystroke_v	v	n/a
276.2305	0.0895	552461	keystroke_i	i	n/a
276.2905	0.0595	552581	keystroke_d	d	n/a
276.4105	0.1195	552821	keystroke_e	e	n/a
276.5	0.12	553000	keystroke_r	r	n/a
276.5755	0.1345	553151	keystroke_s	s	n/a
276.6955	0.0745	553391	keystroke_Key.space	Key.space	n/a
276.815	0.135	553630	keystroke_s	s	n/a
276.9205	0.1345	553841	keystroke_a	a	n/a
277.0105	0.1195	554021	keystroke_v	v	n/a
277.1455	0.0595	554291	keystroke_e	e	n/a
277.2655	0.0895	554531	keystroke_d	d	n/a
277.445	0.06	554890	keystroke_Key.enter	Key.enter	n/a
277.516	5.5105	555032	prompt	n/a	repository applicants thong projected\n
278.21	0.135	556420	keystroke_r	r	n/a
278.3005	0.1195	556601	keystroke_e	e	n/a
278.45	0.075	556900	keystroke_p	p	n/a
278.4805	0.135	556961	keystroke_o	o	n/a
278.6	0.105	557200	keystroke_i	i	n/a
278.6165	0.0735	557233	keystroke_s	s	n/a
278.93	0.06	557860	keystroke_Key.backspace	Key.backspace	n/a
279.0955	0.0595	558191	keystroke_Key.backspace	Key.backspace	n/a
279.515	0.135	559030	keystroke_s	s	n/a
279.622	0.088	559244	keystroke_i	i	n/a
279.7255	0.0895	559451	keystroke_t	t	n/a
279.8305	0.0895	559661	keystroke_o	o	n/a
279.905	0.15	559810	keystroke_r	r	n/a
280.0405	0.0595	560081	keystroke_y	y	n/a
280.115	0.12	560230	keystroke_Key.space	Key.space	n/a
280.28	0.105	560560	keystroke_a	a	n/a
280.4	0.0595	560800	keystroke_p	p	n/a
280.535	0.105	561070	keystroke_p	p	n/a
280.715	0.105	561430	keystroke_l	l	n/a
280.7755	0.1345	561551	keystroke_i	i	n/a
280.85	0.09	561700	keystroke_c	c	n/a
280.955	0.135	561910	keystroke_a	a	n/a
281.135	0.09	562270	keystroke_n	n	n/a
281.21	0.15	562420	keystroke_t	t	n/a
281.3305	0.1195	562661	keystroke_s	s	n/a
281.405	0.12	562810	keystroke_Key.space	Key.space	n/a
281.495	0.135	562990	keystroke_t	t	n/a
281.57	0.09	563140	keystroke_h	h	n/a
281.645	0.15	563290	keystroke_o	o	n/a
281.7505	0.0895	563501	keystroke_n	n	n/a
281.81	0.105	563620	keystroke_g	g	n/a
281.855	0.12	563710	keystroke_Key.space	Key.space	n/a
281.9605	0.1195	563921	keystroke_p	p	n/a
282.065	0.12	564130	keystroke_r	r	n/a
282.1405	0.1345	564281	keystroke_o	o	n/a
282.2	0.105	564400	keystroke_j	j	n/a
282.26	0.06	564520	keystroke_e	e	n/a
282.455	0.06	564910	keystroke_c	c	n/a
282.5905	0.1045	565181	keystroke_t	t	n/a
282.665	0.075	565330	keystroke_e	e	n/a
282.8	0.09	565600	keystroke_d	d	n/a
282.95	0.075	565900	keystroke_Key.enter	Key.enter	n/a
283.033	4.674	566066	prompt	n/a	marble must entrepreneurs telecharger\n
283.6255	0.1045	567251	keystroke_m	m	n/a
283.7	0.135	567400	keystroke_a	a	n/a
283.7605	0.0895	567521	keystroke_r	r	n/a
283.9405	0.0895	567881	keystroke_b	b	n/a
284.06	0.09	568120	keystroke_l	l	n/a
284.12	0.15	568240	keystroke_e	e	n/a
284.2405	0.1195	568481	keystroke_Key.space	Key.space	n/a
284.2855	0.0895	568571	keystroke_m	m	n/a
284.4805	0.0895	568961	keystroke_u	u	n/a
284.5555	0.1045	569111	keystroke_s	s	n/a
284.6005	0.1345	569201	keystroke_t	t	n/a
284.6755	0.1045	569351	keystroke_Key.space	Key.space	n/a
284.87	0.12	569740	keystroke_e	e	n/a
285.0055	0.0895	570011	keystroke_n	n	n/a
285.1405	0.0745	570281	keystroke_t	t	n/a
285.305	0.09	570610	keystroke_r	r	n/a
285.3505	0.1195	570701	keystroke_e	e	n/a
285.4855	0.0895	570971	keystroke_p	p	n/a
285.6205	0.12	571241	keystroke_r	r	n/a
285.7105	0.1195	571421	keystroke_e	e	n/a
285.8155	0.1045	571631	keystroke_n	n	n/a
285.9505	0.1045	571901	keystroke_e	e	n/a
286.07	0.105	572140	keystroke_u	u	n/a
286.1905	0.1195	572381	keystroke_r	r	n/a
286.28	0.12	572560	keystroke_s	s	n/a
286.37	0.09	572740	keystroke_Key.space	Key.space	n/a
286.4755	0.1045	572951	keystroke_t	t	n/a
286.5655	0.09	573131	keystroke_e	e	n/a
286.67	0.09	573340	keystroke_l	l	n/a
286.7455	0.0895	573491	keystroke_e	e	n/a
286.9405	0.1045	573881	keystroke_c	c	n/a
287.0305	0.0895	574061	keystroke_h	h	n/a
287.135	0.06	574270	keystroke_a	a	n/a
287.1655	0.0895	574331	keystroke_r	r	n/a
287.3305	0.0895	574661	keystroke_g	g	n/a
287.45	0.09	574900	keystroke_e	e	n/a
287.51	0.105	575020	keystroke_r	r	n/a
287.6455	0.0595	575291	keystroke_Key.enter	Key.enter	n/a
287.7135	3.8485	575427	prompt	n/a	alter exposed alaska brandon\n
288.26	0.135	576520	keystroke_a	a	n/a
288.41	0.105	576820	keystroke_l	l	n/a
288.5315	0.0585	577063	keystroke_t	t	n/a
288.635	0.09	577270	keystroke_e	e	n/a
288.6805	0.1345	577361	keystroke_r	r	n/a
288.7705	0.0745	577541	keystroke_Key.space	Key.space	n/a
288.875	0.06	577750	keystroke_e	e	n/a
289.025	0.105	578050	keystroke_x	x	n/a
289.145	0.075	578290	keystroke_p	p	n/a
289.175	0.12	578350	keystroke_o	o	n/a
289.28	0.1055	578560	keystroke_s	s	n/a
289.3555	0.0895	578711	keystroke_e	e	n/a
289.52	0.12	579040	keystroke_d	d	n/a
289.61	0.105	579220	keystroke_Key.space	Key.space	n/a
289.76	0.105	579520	keystroke_a	a	n/a
289.835	0.105	579670	keystroke_l	l	n/a
289.941	0.119	579882	keystroke_a	a	n/a
290.0755	0.09	580151	keystroke_s	s	n/a
290.1805	0.0745	580361	keystroke_k	k	n/a
290.2855	0.1345	580571	keystroke_a	a	n/a
290.42	0.09	580840	keystroke_Key.space	Key.space	n/a
290.6155	0.0745	581231	keystroke_b	b	n/a
290.825	0.105	581650	keystroke_r	r	n/a
290.885	0.1205	581770	keystroke_a	a	n/a
290.9755	0.0895	581951	keystroke_n	n	n/a
291.0505	0.0895	582101	keystroke_d	d	n/a
291.156	0.0895	582312	keystroke_o	o	n/a
291.215	0.09	582430	keystroke_n	n	n/a
291.5	0.06	583000	keystroke_Key.enter	Key.enter	n/a
291.5685	3.668	583137	prompt	n/a	enrolled lycos champion href\n
292.2655	0.0895	584531	keystroke_e	e	n/a
292.34	0.075	584680	keystroke_n	n	n/a
292.46	0.09	584920	keystroke_r	r	n/a
292.5355	0.0745	585071	keystroke_o	o	n/a
292.7	0.06	585400	keystroke_l	l	n/a
292.82	0.09	585640	keystroke_l	l	n/a
292.895	0.075	585790	keystroke_e	e	n/a
293.0455	0.1045	586091	keystroke_d	d	n/a
293.1055	0.1195	586211	keystroke_Key.space	Key.space	n/a
293.1955	0.0895	586391	keystroke_l	l	n/a
293.3155	0.0745	586631	keystroke_y	y	n/a
293.4205	0.0895	586841	keystroke_c	c	n/a
293.5105	0.1195	587021	keystroke_o	o	n/a
293.6	0.105	587200	keystroke_s	s	n/a
293.675	0.075	587350	keystroke_Key.space	Key.space	n/a
293.7955	0.09	587591	keystroke_c	c	n/a
293.8555	0.1195	587711	keystroke_h	h	n/a
293.96	0.135	587920	keystroke_a	a	n/a
294.08	0.12	588160	keystroke_m	m	n/a
294.215	0.09	588430	keystroke_p	p	n/a
294.32	0.165	588640	keystroke_i	i	n/a
294.4105	0.1345	588821	keystroke_o	o	n/a
294.5	0.105	589000	keystroke_n	n	n/a
294.62	0.09	589240	keystroke_Key.space	Key.space	n/a
294.725	0.09	589450	keystroke_h	h	n/a
294.8305	0.1045	589661	keystroke_r	r	n/a
294.95	0.105	589900	keystroke_e	e	n/a
295.025	0.105	590050	keystroke_f	f	n/a
295.16	0.075	590320	keystroke_Key.enter	Key.enter	n/a
295.243	3.6235	590486	prompt	n/a	closure believes cultures dense\n
295.88	0.105	591760	keystroke_c	c	n/a
295.9405	0.0745	591881	keystroke_l	l	n/a
296.075	0.105	592150	keystroke_o	o	n/a
296.165	0.12	592330	keystroke_s	s	n/a
296.3	0.075	592600	keystroke_u	u	n/a
296.36	0.105	592720	keystroke_r	r	n/a
296.4205	0.1045	592841	keystroke_e	e	n/a
296.5105	0.0745	593021	keystroke_Key.space	Key.space	n/a
296.63	0.09	593260	keystroke_b	b	n/a
296.7805	0.1045	593561	keystroke_e	e	n/a
296.9	0.09	593800	keystroke_l	l	n/a
296.9605	0.0895	593921	keystroke_i	i	n/a
297.0055	0.0895	594011	keystroke_e	e	n/a
297.125	0.105	594250	keystroke_v	v	n/a
297.2	0.135	594400	keystroke_e	e	n/a
297.2755	0.1045	594551	keystroke_s	s	n/a
297.35	0.075	594700	keystroke_Key.space	Key.space	n/a
297.515	0.09	595030	keystroke_c	c	n/a
297.575	0.09	595150	keystroke_u	u	n/a
297.695	0.09	595390	keystroke_l	l	n/a
297.8	0.09	595600	keystroke_t	t	n/a
297.89	0.0905	595780	keystroke_u	u	n/a
297.996	0.104	595992	keystroke_r	r	n/a
298.011	0.149	596022	keystroke_e	e	n/a
298.085	0.12	596170	keystroke_s	s	n/a
298.1755	0.0945	596351	keystroke_Key.space	Key.space	n/a
298.2805	0.0595	596561	keystroke_d	d	n/a
298.415	0.105	596830	keystroke_e	e	n/a
298.52	0.06	597040	keystroke_n	n	n/a
298.5955	0.1045	597191	keystroke_s	s	n/a
298.641	0.104	597282	keystroke_e	e	n/a
298.7905	0.0745	597581	keystroke_Key.enter	Key.enter	n/a
298.874	3.758	597748	prompt	n/a	administrator keep warrior papua\n
299.4055	0.0895	598811	keystroke_a	a	n/a
299.48	0.135	598960	keystroke_d	d	n/a
299.5705	0.0895	599141	keystroke_m	m	n/a
299.675	0.105	599350	keystroke_i	i	n/a
299.765	0.12	599530	keystroke_n	n	n/a
299.8555	0.105	599711	keystroke_i	i	n/a
299.92	0.0855	599840	keystroke_s	s	n/a
299.9755	0.0745	599951	keystroke_t	t	n/a
300.125	0.105	600250	keystroke_r	r	n/a
300.215	0.105	600430	keystroke_a	a	n/a
300.29	0.105	600580	keystroke_t	t	n/a
300.38	0.09	600760	keystroke_o	o	n/a
300.4555	0.1195	600911	keystroke_r	r	n/a
300.5305	0.1045	601061	keystroke_Key.space	Key.space	n/a
300.6055	0.0895	601211	keystroke_k	k	n/a
300.71	0.06	601420	keystroke_e	e	n/a
300.83	0.135	601660	keystroke_e	e	n/a
300.9205	0.0895	601841	keystroke_p	p	n/a
301.025	0.075	602050	keystroke_Key.space	Key.space	n/a
301.085	0.135	602170	keystroke_w	w	n/a
301.19	0.09	602380	keystroke_a	a	n/a
301.235	0.09	602470	keystroke_r	r	n/a
301.4	0.09	602800	keystroke_r	r	n/a
301.5205	0.1195	603041	keystroke_i	i	n/a
301.595	0.105	603190	keystroke_o	o	n/a
301.6555	0.1045	603311	keystroke_r	r	n/a
301.73	0.105	603460	keystroke_Key.space	Key.space	n/a
301.8655	0.1045	603731	keystroke_p	p	n/a
301.985	0.12	603970	keystroke_a	a	n/a
302.09	0.12	604180	keystroke_p	p	n/a
302.165	0.09	604330	keystroke_u	u	n/a
302.2705	0.0895	604541	keystroke_a	a	n/a
302.5555	0.0745	605111	keystroke_Key.enter	Key.enter	n/a
302.6395	4.1175	605279	prompt	n/a	hudson publicity henderson victim\n
303.1705	0.0745	606341	keystroke_h	h	n/a
303.35	0.09	606700	keystroke_u	u	n/a
303.425	0.135	606850	keystroke_d	d	n/a
303.5	0.15	607000	keystroke_s	s	n/a
303.6205	0.0895	607241	keystroke_o	o	n/a
303.635	0.12	607270	keystroke_n	n	n/a
303.7405	0.1045	607481	keystroke_Key.space	Key.space	n/a
303.86	0.105	607720	keystroke_p	p	n/a
303.9205	0.1195	607841	keystroke_u	u	n/a
304.0855	0.0595	608171	keystroke_b	b	n/a
304.1	0.105	608200	keystroke_l	l	n/a
304.1605	0.0895	608321	keystroke_i	i	n/a
304.265	0.105	608530	keystroke_c	c	n/a
304.355	0.09	608710	keystroke_i	i	n/a
304.46	0.09	608920	keystroke_t	t	n/a
304.5205	0.0895	609041	keystroke_y	y	n/a
304.625	0.075	609250	keystroke_Key.space	Key.space	n/a
304.7155	0.0745	609431	keystroke_h	h	n/a
305.135	0.075	610270	keystroke_e	e	n/a
305.18	0.09	610360	keystroke_n	n	n/a
305.3	0.06	610600	keystroke_d	d	n/a
305.435	0.105	610870	keystroke_e	e	n/a
305.51	0.105	611020	keystroke_r	r	n/a
305.5555	0.1345	611111	keystroke_s	s	n/a
305.675	0.105	611350	keystroke_o	o	n/a
305.705	0.105	611410	keystroke_n	n	n/a
305.8105	0.0895	611621	keystroke_Key.space	Key.space	n/a
305.9305	0.1195	611861	keystroke_v	v	n/a
306.0355	0.0745	612071	keystroke_i	i	n/a
306.125	0.09	612250	keystroke_c	c	n/a
306.2755	0.0895	612551	keystroke_t	t	n/a
306.35	0.105	612700	keystroke_i	i	n/a
306.425	0.075	612850	keystroke_m	m	n/a
306.68	0.075	613360	keystroke_Key.enter	Key.enter	n/a
306.7635	3.2485	613527	prompt	n/a	dicke disposal mixing speaks\n
307.2955	0.0745	614591	keystroke_d	d	n/a
307.3555	0.1045	614711	keystroke_i	i	n/a
307.4605	0.0745	614921	keystroke_c	c	n/a
307.55	0.09	615100	keystroke_k	k	n/a
307.625	0.09	615250	keystroke_e	e	n/a
307.6865	0.0885	615373	keystroke_Key.space	Key.space	n/a
307.805	0.105	615610	keystroke_d	d	n/a
307.865	0.09	615730	keystroke_i	i	n/a
307.9855	0.1045	615971	keystroke_s	s	n/a
308.06	0.105	616120	keystroke_p	p	n/a
308.1205	0.1045	616241	keystroke_o	o	n/a
308.24	0.09	616480	keystroke_s	s	n/a
308.315	0.18	616630	keystroke_a	a	n/a
308.4355	0.0745	616871	keystroke_l	l	n/a
308.525	0.075	617050	keystroke_Key.space	Key.space	n/a
308.675	0.105	617350	keystroke_m	m	n/a
308.795	0.06	617590	keystroke_i	i	n/a
308.8705	0.1195	617741	keystroke_x	x	n/a
308.96	0.105	617920	keystroke_i	i	n/a
309.005	0.12	618010	keystroke_n	n	n/a
309.08	0.105	618160	keystroke_g	g	n/a
309.1705	0.0895	618341	keystroke_Key.space	Key.space	n/a
309.425	0.105	618850	keystroke_s	s	n/a
309.515	0.09	619030	keystroke_p	p	n/a
309.6205	0.1045	619241	keystroke_e	e	n/a
309.68	0.12	619360	keystroke_a	a	n/a
309.7705	0.0595	619541	keystroke_k	k	n/a
309.845	0.075	619690	keystroke_s	s	n/a
309.935	0.075	619870	keystroke_Key.enter	Key.enter	n/a
310.019	2.9625	620038	prompt	n/a	payable hung guitars wish\n
310.5655	0.12	621131	keystroke_p	p	n/a
310.6705	0.1045	621341	keystroke_a	a	n/a
310.76	0.0905	621520	keystroke_y	y	n/a
310.835	0.15	621670	keystroke_a	a	n/a
310.9705	0.0895	621941	keystroke_b	b	n/a
311.075	0.09	622150	keystroke_l	l	n/a
311.15	0.105	622300	keystroke_e	e	n/a
311.2255	0.0895	622451	keystroke_Key.space	Key.space	n/a
311.2855	0.0745	622571	keystroke_h	h	n/a
311.4355	0.0745	622871	keystroke_u	u	n/a
311.5855	0.1045	623171	keystroke_n	n	n/a
311.675	0.09	623350	keystroke_g	g	n/a
311.75	0.075	623500	keystroke_Key.space	Key.space	n/a
311.8405	0.0895	623681	keystroke_g	g	n/a
311.9	0.1205	623800	keystroke_u	u	n/a
311.975	0.09	623950	keystroke_i	i	n/a
312.0505	0.0745	624101	keystroke_t	t	n/a
312.1705	0.1345	624341	keystroke_a	a	n/a
312.26	0.135	624520	keystroke_r	r	n/a
312.38	0.09	624760	keystroke_s	s	n/a
312.4555	0.0595	624911	keystroke_Key.space	Key.space	n/a
312.545	0.075	625090	keystroke_w	w	n/a
312.636	0.059	625272	keystroke_i	i	n/a
312.7255	0.0895	625451	keystroke_s	s	n/a
312.785	0.075	625570	keystroke_h	h	n/a
312.905	0.075	625810	keystroke_Key.enter	Key.enter	n/a
312.9875	4.884	625975	prompt	n/a	fellowship signatures madonna acer\n
313.58	0.075	627160	keystroke_f	f	n/a
313.6855	0.0895	627371	keystroke_e	e	n/a
313.82	0.075	627640	keystroke_w	w	n/a
313.85	0.06	627700	keystroke_l	l	n/a
314.1205	0.0445	628241	keystroke_Key.backspace	Key.backspace	n/a
314.255	0.075	628510	keystroke_Key.backspace	Key.backspace	n/a
314.48	0.075	628960	keystroke_l	l	n/a
314.615	0.06	629230	keystroke_l	l	n/a
314.7655	0.0745	629531	keystroke_o	o	n/a
314.855	0.045	629710	keystroke_w	w	n/a
314.9755	0.1195	629951	keystroke_s	s	n/a
315.05	0.105	630100	keystroke_h	h	n/a
315.0955	0.1345	630191	keystroke_i	i	n/a
315.1705	0.1195	630341	keystroke_p	p	n/a
315.275	0.09	630550	keystroke_Key.space	Key.space	n/a
315.35	0.105	630700	keystroke_s	s	n/a
315.47	0.075	630940	keystroke_i	i	n/a
315.56	0.105	631120	keystroke_g	g	n/a
315.6355	0.0895	631271	keystroke_n	n	n/a
315.74	0.12	631480	keystroke_a	a	n/a
315.815	0.09	631630	keystroke_t	t	n/a
315.92	0.09	631840	keystroke_u	u	n/a
315.995	0.15	631990	keystroke_r	r	n/a
316.04	0.15	632080	keystroke_e	e	n/a
316.1	0.1205	632200	keystroke_s	s	n/a
316.175	0.105	632350	keystroke_Key.space	Key.space	n/a
316.2955	0.0895	632591	keystroke_m	m	n/a
316.4	0.09	632800	keystroke_a	a	n/a
316.52	0.09	633040	keystroke_d	d	n/a
316.685	0.075	633370	keystroke_o	o	n/a
316.8355	0.0745	633671	keystroke_n	n	n/a
316.9705	0.0895	633941	keystroke_n	n	n/a
317.075	0.105	634150	keystroke_a	a	n/a
317.15	0.12	634300	keystroke_Key.space	Key.space	n/a
317.2855	0.0745	634571	keystroke_a	a	n/a
317.39	0.075	634780	keystroke_c	c	n/a
317.5705	0.1045	635141	keystroke_e	e	n/a
317.645	0.09	635290	keystroke_r	r	n/a
317.7955	0.0745	635591	keystroke_Key.enter	Key.enter	n/a
317.878	3.774	635756	prompt	n/a	protein internet topic institutional\n
318.4105	0.1045	636821	keystroke_p	p	n/a
318.5305	0.0895	637061	keystroke_r	r	n/a
318.635	0.075	637270	keystroke_o	o	n/a
318.7255	0.1045	637451	keystroke_t	t	n/a
318.845	0.105	637690	keystroke_e	e	n/a
318.92	0.12	637840	keystroke_i	i	n/a
318.98	0.09	637960	keystroke_n	n	n/a
319.0855	0.1045	638171	keystroke_Key.space	Key.space	n/a
319.205	0.09	638410	keystroke_i	i	n/a
319.265	0.09	638530	keystroke_n	n	n/a
319.34	0.075	638680	keystroke_t	t	n/a
319.43	0.09	638860	keystroke_e	e	n/a
319.4905	0.1345	638981	keystroke_r	r	n/a
319.58	0.09	639160	keystroke_n	n	n/a
319.655	0.105	639310	keystroke_e	e	n/a
319.73	0.12	639460	keystroke_t	t	n/a
319.82	0.12	639640	keystroke_Key.space	Key.space	n/a
319.925	0.105	639850	keystroke_t	t	n/a
320	0.105	640000	keystroke_o	o	n/a
320.045	0.105	640090	keystroke_p	p	n/a
320.1505	0.0895	640301	keystroke_i	i	n/a
320.24	0.12	640480	keystroke_c	c	n/a
320.315	0.105	640630	keystroke_Key.space	Key.space	n/a
320.435	0.12	640870	keystroke_i	i	n/a
320.495	0.09	640990	keystroke_n	n	n/a
320.57	0.075	641140	keystroke_s	s	n/a
320.63	0.09	641260	keystroke_t	t	n/a
320.7355	0.1045	641471	keystroke_i	i	n/a
320.8255	0.0745	641651	keystroke_t	t	n/a
320.915	0.0895	641830	keystroke_u	u	n/a
320.975	0.1045	641950	keystroke_t	t	n/a
321.095	0.15	642190	keystroke_i	i	n/a
321.155	0.12	642310	keystroke_o	o	n/a
321.2305	0.1045	642461	keystroke_n	n	n/a
321.3205	0.1195	642641	keystroke_a	a	n/a
321.41	0.06	642820	keystroke_l	l	n/a
321.5755	0.0745	643151	keystroke_Key.enter	Key.enter	n/a
321.6595	3.2325	643319	prompt	n/a	belong weather animal nickel\n
322.295	0.09	644590	keystroke_b	b	n/a
322.43	0.12	644860	keystroke_e	e	n/a
322.565	0.03	645130	keystroke_l	l	n/a
322.7005	0.1045	645401	keystroke_o	o	n/a
322.7455	0.1045	645491	keystroke_n	n	n/a
322.8355	0.0895	645671	keystroke_g	g	n/a
322.88	0.09	645760	keystroke_Key.space	Key.space	n/a
322.9855	0.1045	645971	keystroke_w	w	n/a
323.045	0.12	646090	keystroke_e	e	n/a
323.1505	0.1345	646301	keystroke_a	a	n/a
