onset	duration	sample	value	key	prompt_text
2.127	11.4725	4254	prompt	n/a	the quick brown fox jumps over a lazy dog\n
3.985	0.013	7970	keystroke_t	t	n/a
4.028	0.059	8056	keystroke_h	h	n/a
4.207	0.091	8414	keystroke_Key.space	Key.space	n/a
4.822	0.045	9644	keystroke_Key.backspace	Key.backspace	n/a
4.913	0.06	9826	keystroke_e	e	n/a
5.032	0.105	10064	keystroke_Key.space	Key.space	n/a
5.197	0.121	10394	keystroke_q	q	n/a
5.377	0.121	10754	keystroke_u	u	n/a
5.543	0.119	11086	keystroke_i	i	n/a
5.826	0.117	11652	keystroke_c	c	n/a
5.928	0.105	11856	keystroke_k	k	n/a
6.063	0.105	12126	keystroke_Key.space	Key.space	n/a
6.289	0.1055	12578	keystroke_b	b	n/a
6.5445	0.135	13089	keystroke_r	r	n/a
6.6645	0.091	13329	keystroke_o	o	n/a
6.8445	0.106	13689	keystroke_w	w	n/a
6.9795	0.105	13959	keystroke_n	n	n/a
7.4145	0.06	14829	keystroke_Key.backspace	Key.backspace	n/a
7.955	0.105	15910	keystroke_n	n	n/a
8.12	0.105	16240	keystroke_Key.space	Key.space	n/a
8.375	0.12	16750	keystroke_f	f	n/a
8.48	0.075	16960	keystroke_o	o	n/a
8.6	0.12	17200	keystroke_x	x	n/a
8.735	0.135	17470	keystroke_Key.space	Key.space	n/a
9.1105	0.09	18221	keystroke_j	j	n/a
9.2905	0.075	18581	keystroke_u	u	n/a
9.5005	0.24	19001	keystroke_m	m	n/a
9.6805	0.105	19361	keystroke_p	p	n/a
10.0105	0.135	20021	keystroke_Key.space	Key.space	n/a
10.2805	0.075	20561	keystroke_o	o	n/a
10.3855	0.105	20771	keystroke_v	v	n/a
10.5055	0.12	21011	keystroke_e	e	n/a
10.6105	0.12	21221	keystroke_r	r	n/a
10.7155	0.12	21431	keystroke_Key.space	Key.space	n/a
10.8955	0.134	21791	keystroke_a	a	n/a
11.4945	0.105	22989	keystroke_Key.space	Key.space	n/a
11.9005	0.104	23801	keystroke_l	l	n/a
12.1105	0.104	24221	keystroke_a	a	n/a
12.3655	0.119	24731	keystroke_z	z	n/a
12.5905	0.06	25181	keystroke_y	y	n/a
12.7995	0.151	25599	keystroke_Key.space	Key.space	n/a
12.9795	0.151	25959	keystroke_d	d	n/a
13.1595	0.12	26319	keystroke_o	o	n/a
13.3545	0.09	26709	keystroke_g	g	n/a
13.5195	0.075	27039	keystroke_Key.enter	Key.enter	n/a
13.609	10.6535	27218	prompt	n/a	showers pdas inquiry eleven\n
14.495	0.12	28990	keystroke_s	s	n/a
14.6	0.135	29200	keystroke_h	h	n/a
14.705	0.105	29410	keystroke_o	o	n/a
14.825	0.15	29650	keystroke_w	w	n/a
14.96	0.135	29920	keystroke_e	e	n/a
15.05	0.12	30100	keystroke_r	r	n/a
15.275	0.105	30550	keystroke_s	s	n/a
15.365	0.135	30730	keystroke_Key.space	Key.space	n/a
15.83	0.105	31660	keystroke_p	p	n/a
16.19	0.09	32380	keystroke_d	d	n/a
16.46	0.12	32920	keystroke_a	a	n/a
16.7	0.09	33400	keystroke_s	s	n/a
17.255	0.135	34510	keystroke_Key.space	Key.space	n/a
18.275	0.09	36550	keystroke_i	i	n/a
18.38	0.105	36760	keystroke_n	n	n/a
19.1755	0.045	38351	keystroke_q	q	n/a
19.4905	0.12	38981	keystroke_u	u	n/a
19.6255	0.105	39251	keystroke_i	i	n/a
19.8955	0.119	39791	keystroke_r	r	n/a
20.1955	0.104	40391	keystroke_y	y	n/a
20.3145	0.15	40629	keystroke_Key.space	Key.space	n/a
20.5695	0.091	41139	keystroke_l	l	n/a
21.1545	0.06	42309	keystroke_Key.backspace	Key.backspace	n/a
21.2295	0.12	42459	keystroke_e	e	n/a
21.365	0.1195	42730	keystroke_l	l	n/a
21.4695	0.121	42939	keystroke_v	v	n/a
21.5595	0.12	43119	keystroke_e	e	n/a
21.7545	0.075	43509	keystroke_n	n	n/a
22.5645	0.045	45129	keystroke_Key.backspace	Key.backspace	n/a
22.7145	0.0305	45429	keystroke_Key.backspace	Key.backspace	n/a
22.85	0.045	45700	keystroke_Key.backspace	Key.backspace	n/a
22.955	0.12	45910	keystroke_e	e	n/a
23.3295	0.12	46659	keystroke_v	v	n/a
23.5545	0.1205	47109	keystroke_e	e	n/a
23.93	0.12	47860	keystroke_n	n	n/a
24.2	0.06	48400	keystroke_Key.enter	Key.enter	n/a
24.2695	12.787	48539	prompt	n/a	he's investigations souls photograph\n
25.445	0.045	50890	keystroke_h	h	n/a
25.52	0.09	51040	keystroke_e	e	n/a
25.625	0.075	51250	keystroke_Key.space	Key.space	n/a
26.255	0.09	52510	keystroke_i	i	n/a
26.39	0.09	52780	keystroke_n	n	n/a
26.72	0.06	53440	keystroke_Key.backspace	Key.backspace	n/a
26.8695	0.06	53739	keystroke_Key.backspace	Key.backspace	n/a
27.0945	0.015	54189	keystroke_Key.backspace	Key.backspace	n/a
27.4395	0.135	54879	keystroke_'	'	n/a
28.01	0.09	56020	keystroke_s	s	n/a
28.295	0.12	56590	keystroke_Key.space	Key.space	n/a
28.565	0.105	57130	keystroke_i	i	n/a
28.685	0.12	57370	keystroke_n	n	n/a
28.79	0.15	57580	keystroke_v	v	n/a
28.925	0.105	57850	keystroke_e	e	n/a
29.135	0.21	58270	keystroke_s	s	n/a
29.885	0.105	59770	keystroke_t	t	n/a
30.005	0.075	60010	keystroke_i	i	n/a
30.11	0.135	60220	keystroke_g	g	n/a
30.23	0.135	60460	keystroke_a	a	n/a
30.335	0.15	60670	keystroke_t	t	n/a
30.5	0.21	61000	keystroke_i	i	n/a
31.745	0.135	63490	keystroke_o	o	n/a
31.88	0.12	63760	keystroke_n	n	n/a
32.21	0.1045	64420	keystroke_s	s	n/a
32.3295	0.15	64659	keystroke_Key.space	Key.space	n/a
32.6745	0.135	65349	keystroke_s	s	n/a
32.8545	0.18	65709	keystroke_o	o	n/a
33.0195	0.075	66039	keystroke_u	u	n/a
33.1855	0.074	66371	keystroke_l	l	n/a
33.3045	0.12	66609	keystroke_s	s	n/a
33.4095	0.105	66819	keystroke_Key.space	Key.space	n/a
33.8295	0.105	67659	keystroke_p	p	n/a
33.9945	0.15	67989	keystroke_h	h	n/a
34.0995	0.105	68199	keystroke_o	o	n/a
34.3245	0.106	68649	keystroke_t	t	n/a
34.4145	0.076	68829	keystroke_o	o	n/a
34.8645	0.091	69729	keystroke_g	g	n/a
35.0745	0.165	70149	keystroke_r	r	n/a
35.2245	0.105	70449	keystroke_a	a	n/a
36.2595	0.06	72519	keystroke_p	p	n/a
36.41	0.06	72820	keystroke_h	h	n/a
36.965	0.09	73930	keystroke_Key.enter	Key.enter	n/a
37.0615	14.576	74123	prompt	n/a	perspectives romania heavily arbitration\n
37.955	0.09	75910	keystroke_p	p	n/a
38.135	0.135	76270	keystroke_e	e	n/a
38.24	0.12	76480	keystroke_r	r	n/a
38.57	0.015	77140	keystroke_s	s	n/a
38.93	0.09	77860	keystroke_p	p	n/a
39.905	0.09	79810	keystroke_e	e	n/a
40.13	0.18	80260	keystroke_c	c	n/a
40.4	0.105	80800	keystroke_t	t	n/a
40.55	0.09	81100	keystroke_i	i	n/a
40.6555	0.1345	81311	keystroke_v	v	n/a
41.9155	0.09	83831	keystroke_e	e	n/a
42.1555	0.075	84311	keystroke_s	s	n/a
42.3355	0.09	84671	keystroke_Key.space	Key.space	n/a
42.9355	0.135	85871	keystroke_r	r	n/a
43.0555	0.12	86111	keystroke_o	o	n/a
43.2205	0.15	86441	keystroke_m	m	n/a
43.4905	0.09	86981	keystroke_a	a	n/a
43.5955	0.18	87191	keystroke_n	n	n/a
43.7905	0.075	87581	keystroke_i	i	n/a
44.0905	0.105	88181	keystroke_a	a	n/a
44.2395	0.151	88479	keystroke_Key.space	Key.space	n/a
44.5705	0.09	89141	keystroke_h	h	n/a
44.6755	0.135	89351	keystroke_e	e	n/a
44.7955	0.135	89591	keystroke_a	a	n/a
45.9945	0.135	91989	keystroke_v	v	n/a
47.1955	0.014	94391	keystroke_i	i	n/a
47.2255	0.074	94451	keystroke_l	l	n/a
47.4055	0.119	94811	keystroke_y	y	n/a
47.5255	0.149	95051	keystroke_Key.space	Key.space	n/a
47.8105	0.104	95621	keystroke_a	a	n/a
48.1095	0.135	96219	keystroke_r	r	n/a
48.695	0.12	97390	keystroke_b	b	n/a
48.86	0.075	97720	keystroke_i	i	n/a
49.4	0.09	98800	keystroke_t	t	n/a
50.1355	0.135	100271	keystroke_r	r	n/a
50.2555	0.135	100511	keystroke_a	a	n/a
50.3755	0.105	100751	keystroke_t	t	n/a
50.4505	0.24	100901	keystroke_i	i	n/a
50.5855	0.12	101171	keystroke_o	o	n/a
50.6755	0.1495	101351	keystroke_n	n	n/a
51.53	0.105	103060	keystroke_Key.enter	Key.enter	n/a
51.6435	9.7745	103287	prompt	n/a	knights appear warehouse victim\n
52.5205	0.12	105041	keystroke_k	k	n/a
52.7155	0.15	105431	keystroke_n	n	n/a
52.8505	0.105	105701	keystroke_i	i	n/a
53.0155	0.09	106031	keystroke_g	g	n/a
53.1055	0.075	106211	keystroke_h	h	n/a
53.2255	0.09	106451	keystroke_t	t	n/a
53.4355	0.105	106871	keystroke_s	s	n/a
53.6455	0.105	107291	keystroke_Key.space	Key.space	n/a
54.1705	0.105	108341	keystroke_a	a	n/a
54.3655	0.06	108731	keystroke_p	p	n/a
54.5155	0.06	109031	keystroke_p	p	n/a
54.6805	0.195	109361	keystroke_e	e	n/a
54.8005	0.15	109601	keystroke_a	a	n/a
54.9355	0.12	109871	keystroke_r	r	n/a
55.2205	0.105	110441	keystroke_Key.space	Key.space	n/a
55.535	0.09	111070	keystroke_a	a	n/a
55.97	0.075	111940	keystroke_Key.backspace	Key.backspace	n/a
56.03	0.18	112060	keystroke_w	w	n/a
56.195	0.18	112390	keystroke_a	a	n/a
56.36	0.105	112720	keystroke_r	r	n/a
56.45	0.105	112900	keystroke_e	e	n/a
57.0055	0.105	114011	keystroke_h	h	n/a
57.0955	0.15	114191	keystroke_o	o	n/a
57.2005	0.105	114401	keystroke_u	u	n/a
57.3205	0.135	114641	keystroke_s	s	n/a
57.4105	0.12	114821	keystroke_e	e	n/a
57.6805	0.15	115361	keystroke_Key.space	Key.space	n/a
58.0705	0.104	116141	keystroke_v	v	n/a
58.1455	0.0745	116291	keystroke_i	i	n/a
58.445	0.105	116890	keystroke_c	c	n/a
58.8505	0.105	117701	keystroke_e	e	n/a
59.285	0.0755	118570	keystroke_Key.backspace	Key.backspace	n/a
59.3905	0.1345	118781	keystroke_t	t	n/a
60.3655	0.165	120731	keystroke_i	i	n/a
60.7405	0.1505	121481	keystroke_m	m	n/a
61.3255	0.09	122651	keystroke_Key.enter	Key.enter	n/a
61.424	9.5785	122848	prompt	n/a	auction egypt complex xbox\n
62.1955	0.105	124391	keystroke_a	a	n/a
62.4205	0.105	124841	keystroke_u	u	n/a
62.4955	0.15	124991	keystroke_c	c	n/a
62.7505	0.105	125501	keystroke_t	t	n/a
62.8105	0.21	125621	keystroke_i	i	n/a
62.9305	0.105	125861	keystroke_o	o	n/a
63.0055	0.12	126011	keystroke_n	n	n/a
63.4405	0.149	126881	keystroke_Key.space	Key.space	n/a
63.7855	0.105	127571	keystroke_e	e	n/a
64.2505	0.105	128501	keystroke_g	g	n/a
64.4595	0.151	128919	keystroke_y	y	n/a
64.5955	0.105	129191	keystroke_p	p	n/a
65.1205	0.12	130241	keystroke_t	t	n/a
65.2555	0.119	130511	keystroke_Key.space	Key.space	n/a
65.6305	0.149	131261	keystroke_c	c	n/a
65.7505	0.209	131501	keystroke_o	o	n/a
65.8555	0.27	131711	keystroke_m	m	n/a
66.0055	0.18	132011	keystroke_p	p	n/a
66.2005	0.12	132401	keystroke_l	l	n/a
68.6025	0.057	137205	keystroke_e	e	n/a
68.796	0.135	137592	keystroke_x	x	n/a
69.005	0.135	138010	keystroke_Key.space	Key.space	n/a
69.53	0.12	139060	keystroke_x	x	n/a
69.785	0.135	139570	keystroke_b	b	n/a
69.935	0.12	139870	keystroke_o	o	n/a
70.145	0.091	140290	keystroke_s	s	n/a
70.535	0.09	141070	keystroke_Key.backspace	Key.backspace	n/a
70.64	0.135	141280	keystroke_x	x	n/a
70.91	0.09	141820	keystroke_Key.enter	Key.enter	n/a
71.0105	9.7415	142021	prompt	n/a	portland chaos removal firefox\n
71.96	0.105	143920	keystroke_p	p	n/a
72.095	0.12	144190	keystroke_o	o	n/a
72.23	0.09	144460	keystroke_r	r	n/a
72.395	0.12	144790	keystroke_t	t	n/a
72.62	0.076	145240	keystroke_l	l	n/a
72.725	0.105	145450	keystroke_a	a	n/a
72.845	0.09	145690	keystroke_n	n	n/a
72.936	0.089	145872	keystroke_d	d	n/a
73.04	0.1205	146080	keystroke_Key.space	Key.space	n/a
73.4305	0.105	146861	keystroke_c	c	n/a
73.6555	0.075	147311	keystroke_h	h	n/a
75.395	0.105	150790	keystroke_a	a	n/a
75.905	0.12	151810	keystroke_o	o	n/a
76.025	0.105	152050	keystroke_s	s	n/a
76.445	0.135	152890	keystroke_Key.space	Key.space	n/a
76.76	0.105	153520	keystroke_r	r	n/a
76.835	0.12	153670	keystroke_e	e	n/a
76.925	0.15	153850	keystroke_m	m	n/a
77.525	0.1805	155050	keystroke_v	v	n/a
77.9455	0.075	155891	keystroke_Key.backspace	Key.backspace	n/a
78.1855	0.135	156371	keystroke_o	o	n/a
78.4105	0.18	156821	keystroke_v	v	n/a
78.6055	0.12	157211	keystroke_a	a	n/a
78.8005	0.135	157601	keystroke_l	l	n/a
78.9805	0.135	157961	keystroke_Key.space	Key.space	n/a
79.5655	0.12	159131	keystroke_f	f	n/a
79.7005	0.075	159401	keystroke_i	i	n/a
79.8505	0.12	159701	keystroke_r	r	n/a
79.9405	0.075	159881	keystroke_e	e	n/a
80.1805	0.135	160361	keystroke_f	f	n/a
80.3305	0.105	160661	keystroke_o	o	n/a
80.4955	0.135	160991	keystroke_x	x	n/a
80.6755	0.075	161351	keystroke_Key.enter	Key.enter	n/a
80.7605	8.287	161521	prompt	n/a	stating municipal no dial\n
81.5155	0.21	163031	keystroke_s	s	n/a
81.7255	0.15	163451	keystroke_t	t	n/a
82.1	0.1645	164200	keystroke_t	t	n/a
82.8355	0.075	165671	keystroke_Key.backspace	Key.backspace	n/a
82.9405	0.12	165881	keystroke_a	a	n/a
83.0455	0.105	166091	keystroke_t	t	n/a
83.2855	0.12	166571	keystroke_i	i	n/a
83.4205	0.105	166841	keystroke_n	n	n/a
83.5555	0.105	167111	keystroke_g	g	n/a
83.6755	0.12	167351	keystroke_Key.space	Key.space	n/a
84.0205	0.12	168041	keystroke_m	m	n/a
84.2605	0.075	168521	keystroke_u	u	n/a
84.5005	0.12	169001	keystroke_n	n	n/a
84.8155	0.075	169631	keystroke_i	i	n/a
85.025	0.1055	170050	keystroke_c	c	n/a
85.1905	0.12	170381	keystroke_i	i	n/a
85.46	0.105	170920	keystroke_p	p	n/a
85.685	0.06	171370	keystroke_l	l	n/a
85.79	0.1205	171580	keystroke_a	a	n/a
86.1795	0.06	172359	keystroke_Key.backspace	Key.backspace	n/a
86.3295	0.075	172659	keystroke_Key.backspace	Key.backspace	n/a
86.5245	0.076	173049	keystroke_a	a	n/a
86.6155	0.09	173231	keystroke_l	l	n/a
86.7955	0.1045	173591	keystroke_Key.space	Key.space	n/a
87.365	0.165	174730	keystroke_n	n	n/a
87.485	0.1055	174970	keystroke_o	o	n/a
87.5745	0.12	175149	keystroke_Key.space	Key.space	n/a
87.8295	0.121	175659	keystroke_d	d	n/a
87.9655	0.06	175931	keystroke_i	i	n/a
88.1305	0.1195	176261	keystroke_a	a	n/a
88.325	0.12	176650	keystroke_l	l	n/a
88.97	0.075	177940	keystroke_Key.enter	Key.enter	n/a
89.0545	9.6375	178109	prompt	n/a	reference beyond hopefully bachelor\n
90.02	0.12	180040	keystroke_r	r	n/a
90.125	0.09	180250	keystroke_e	e	n/a
90.245	0.135	180490	keystroke_f	f	n/a
90.38	0.135	180760	keystroke_e	e	n/a
90.5	0.09	181000	keystroke_r	r	n/a
90.9955	0.104	181991	keystroke_e	e	n/a
91.1155	0.075	182231	keystroke_n	n	n/a
91.3845	0.105	182769	keystroke_c	c	n/a
91.5955	0.075	183191	keystroke_e	e	n/a
91.7895	0.1055	183579	keystroke_Key.space	Key.space	n/a
92.4955	0.09	184991	keystroke_b	b	n/a
92.6905	0.105	185381	keystroke_e	e	n/a
92.9455	0.135	185891	keystroke_y	y	n/a
93.0805	0.165	186161	keystroke_o	o	n/a
93.2305	0.105	186461	keystroke_n	n	n/a
93.4105	0.1195	186821	keystroke_Key.space	Key.space	n/a
94.115	0.06	188230	keystroke_Key.backspace	Key.backspace	n/a
94.235	0.09	188470	keystroke_d	d	n/a
94.34	0.12	188680	keystroke_Key.space	Key.space	n/a
94.595	0.135	189190	keystroke_h	h	n/a
94.67	0.165	189340	keystroke_o	o	n/a
95.2405	0.03	190481	keystroke_p	p	n/a
95.3155	0.12	190631	keystroke_e	e	n/a
95.8105	0.12	191621	keystroke_f	f	n/a
95.9605	0.09	191921	keystroke_u	u	n/a
96.2005	0.059	192401	keystroke_l	l	n/a
96.3195	0.106	192639	keystroke_l	l	n/a
96.5295	0.12	193059	keystroke_y	y	n/a
96.6345	0.15	193269	keystroke_Key.space	Key.space	n/a
96.9355	0.09	193871	keystroke_b	b	n/a
97.2945	0.135	194589	keystroke_a	a	n/a
97.5195	0.1215	195039	keystroke_c	c	n/a
97.641	0.105	195282	keystroke_h	h	n/a
97.865	0.105	195730	keystroke_e	e	n/a
98.076	0.089	196152	keystroke_l	l	n/a
98.285	0.075	196570	keystroke_o	o	n/a
98.481	0.119	196962	keystroke_r	r	n/a
98.6155	0.0745	197231	keystroke_Key.enter	Key.enter	n/a
98.699	13.7325	197398	prompt	n/a	someone's samuel affiliate democrat\n
99.3655	0.12	198731	keystroke_s	s	n/a
99.4555	0.135	198911	keystroke_o	o	n/a
99.5455	0.15	199091	keystroke_m	m	n/a
99.6655	0.12	199331	keystroke_e	e	n/a
99.8305	0.12	199661	keystroke_o	o	n/a
99.9205	0.119	199841	keystroke_n	n	n/a
100.0405	0.09	200081	keystroke_e	e	n/a
100.5495	0.046	201099	keystroke_'	'	n/a
100.6555	0.09	201311	keystroke_s	s	n/a
100.8795	0.091	201759	keystroke_Key.space	Key.space	n/a
101.6155	0.089	203231	keystroke_s	s	n/a
101.8545	0.105	203709	keystroke_a	a	n/a
102.0045	0.15	204009	keystroke_m	m	n/a
102.2745	0.135	204549	keystroke_u	u	n/a
102.8455	0.104	205691	keystroke_e	e	n/a
102.9645	0.12	205929	keystroke_l	l	n/a
103.0855	0.1345	206171	keystroke_Key.space	Key.space	n/a
103.281	0.104	206562	keystroke_a	a	n/a
103.49	0.09	206980	keystroke_f	f	n/a
103.67	0.09	207340	keystroke_f	f	n/a
103.925	0.09	207850	keystroke_i	i	n/a
104.15	0.105	208300	keystroke_l	l	n/a
107.092	0.013	214184	keystroke_i	i	n/a
107.21	0.105	214420	keystroke_a	a	n/a
107.345	0.135	214690	keystroke_t	t	n/a
107.45	0.105	214900	keystroke_e	e	n/a
107.57	0.105	215140	keystroke_Key.space	Key.space	n/a
107.96	0.09	215920	keystroke_d	d	n/a
108.14	0.075	216280	keystroke_e	e	n/a
108.305	0.21	216610	keystroke_m	m	n/a
108.53	0.105	217060	keystroke_o	o	n/a
108.92	0.135	217840	keystroke_r	r	n/a
109.9095	0.045	219819	keystroke_Key.backspace	Key.backspace	n/a
109.9845	0.165	219969	keystroke_c	c	n/a
110.2845	0.12	220569	keystroke_r	r	n/a
110.3595	0.12	220719	keystroke_a	a	n/a
110.6005	0.089	221201	keystroke_e	e	n/a
111.2595	0.0905	222519	keystroke_Key.backspace	Key.backspace	n/a
111.395	0.135	222790	keystroke_t	t	n/a
111.5	0.105	223000	keystroke_e	e	n/a
112.1905	0.06	224381	keystroke_Key.backspace	Key.backspace	n/a
112.3555	0.075	224711	keystroke_Key.enter	Key.enter	n/a
112.438	11.199	224876	prompt	n/a	question dump economies merchant\n
113.5255	0.06	227051	keystroke_q	q	n/a
113.7205	0.06	227441	keystroke_u	u	n/a
114.1105	0.09	228221	keystroke_e	e	n/a
114.3205	0.1495	228641	keystroke_s	s	n/a
114.4995	0.106	228999	keystroke_t	t	n/a
114.5155	0.179	229031	keystroke_i	i	n/a
114.6355	0.09	229271	keystroke_o	o	n/a
114.7105	0.104	229421	keystroke_n	n	n/a
114.8155	0.164	229631	keystroke_Key.space	Key.space	n/a
115.0255	0.15	230051	keystroke_d	d	n/a
115.1905	0.075	230381	keystroke_u	u	n/a
115.4005	0.209	230801	keystroke_m	m	n/a
115.5805	0.105	231161	keystroke_p	p	n/a
115.7895	0.09	231579	keystroke_s	s	n/a
115.8945	0.12	231789	keystroke_Key.space	Key.space	n/a
116.1645	0.121	232329	keystroke_e	e	n/a
116.4795	0.105	232959	keystroke_c	c	n/a
116.9595	0.12	233919	keystroke_o	o	n/a
117.0645	0.105	234129	keystroke_n	n	n/a
117.4845	0.076	234969	keystroke_o	o	n/a
117.8145	0.1355	235629	keystroke_m	m	n/a
117.965	0.12	235930	keystroke_i	i	n/a
118.145	0.105	236290	keystroke_c	c	n/a
118.745	0.06	237490	keystroke_Key.backspace	Key.backspace	n/a
118.85	0.105	237700	keystroke_e	e	n/a
119.09	0.09	238180	keystroke_s	s	n/a
119.255	0.105	238510	keystroke_Key.space	Key.space	n/a
119.7955	0.09	239591	keystroke_c	c	n/a
119.9155	0.075	239831	keystroke_m	m	n/a
120.2305	0.059	240461	keystroke_Key.backspace	Key.backspace	n/a
120.3795	0.046	240759	keystroke_Key.backspace	Key.backspace	n/a
120.62	0.075	241240	keystroke_m	m	n/a
120.74	0.12	241480	keystroke_e	e	n/a
121.28	0.15	242560	keystroke_c	c	n/a
121.505	0.09	243010	keystroke_h	h	n/a
121.895	0.045	243790	keystroke_Key.backspace	Key.backspace	n/a
122.015	0.075	244030	keystroke_Key.backspace	Key.backspace	n/a
122.105	0.12	244210	keystroke_r	r	n/a
122.375	0.135	244750	keystroke_c	c	n/a
122.525	0.06	245050	keystroke_h	h	n/a
122.93	0.12	245860	keystroke_a	a	n/a
123.11	0.09	246220	keystroke_n	n	n/a
123.35	0.09	246700	keystroke_t	t	n/a
123.575	0.0605	247150	keystroke_Key.enter	Key.enter	n/a
123.642	5.5755	247284	prompt	n/a	medicines relay thick knock\n
124.4305	0.1645	248861	keystroke_m	m	n/a
124.58	0.105	249160	keystroke_e	e	n/a
124.775	0.105	249550	keystroke_d	d	n/a
124.895	0.075	249790	keystroke_i	i	n/a
125.135	0.105	250270	keystroke_c	c	n/a
125.255	0.075	250510	keystroke_i	i	n/a
125.42	0.105	250840	keystroke_n	n	n/a
125.555	0.105	251110	keystroke_e	e	n/a
125.78	0.09	251560	keystroke_s	s	n/a
125.885	0.12	251770	keystroke_Key.space	Key.space	n/a
126.11	0.12	252220	keystroke_r	r	n/a
126.215	0.09	252430	keystroke_e	e	n/a
126.32	0.135	252640	keystroke_l	l	n/a
126.575	0.105	253150	keystroke_a	a	n/a
126.71	0.09	253420	keystroke_y	y	n/a
126.86	0.12	253720	keystroke_Key.space	Key.space	n/a
127.145	0.135	254290	keystroke_t	t	n/a
127.235	0.12	254470	keystroke_h	h	n/a
127.325	0.09	254650	keystroke_i	i	n/a
127.505	0.135	255010	keystroke_c	c	n/a
127.64	0.105	255280	keystroke_k	k	n/a
127.76	0.12	255520	keystroke_Key.space	Key.space	n/a
128.15	0.165	256300	keystroke_k	k	n/a
128.3	0.21	256600	keystroke_n	n	n/a
128.465	0.135	256930	keystroke_o	o	n/a
128.78	0.165	257560	keystroke_c	c	n/a
128.93	0.12	257860	keystroke_k	k	n/a
129.14	0.075	258280	keystroke_Key.enter	Key.enter	n/a
129.2245	9.9825	258449	prompt	n/a	promise musicians compared cricket\n
129.995	0.12	259990	keystroke_p	p	n/a
130.22	0.12	260440	keystroke_r	r	n/a
130.28	0.1655	260560	keystroke_o	o	n/a
130.415	0.135	260830	keystroke_m	m	n/a
130.5955	0.105	261191	keystroke_i	i	n/a
130.745	0.1355	261490	keystroke_s	s	n/a
130.925	0.135	261850	keystroke_e	e	n/a
131.165	0.105	262330	keystroke_Key.space	Key.space	n/a
131.6155	0.1495	263231	keystroke_m	m	n/a
132.0045	0.075	264009	keystroke_u	u	n/a
132.1545	0.105	264309	keystroke_s	s	n/a
132.5295	0.09	265059	keystroke_i	i	n/a
132.755	0.105	265510	keystroke_c	c	n/a
133.13	0.105	266260	keystroke_i	i	n/a
133.295	0.12	266590	keystroke_a	a	n/a
133.43	0.135	266860	keystroke_n	n	n/a
133.67	0.12	267340	keystroke_s	s	n/a
134.06	0.12	268120	keystroke_Key.space	Key.space	n/a
134.36	0.15	268720	keystroke_c	c	n/a
134.45	0.195	268900	keystroke_o	o	n/a
134.54	0.165	269080	keystroke_m	m	n/a
134.69	0.12	269380	keystroke_p	p	n/a
134.99	0.105	269980	keystroke_r	r	n/a
135.41	0.075	270820	keystroke_Key.backspace	Key.backspace	n/a
135.44	0.135	270880	keystroke_a	a	n/a
135.545	0.135	271090	keystroke_r	r	n/a
135.665	0.075	271330	keystroke_e	e	n/a
135.755	0.1045	271510	keystroke_Key.space	Key.space	n/a
136.28	0.06	272560	keystroke_Key.backspace	Key.backspace	n/a
136.55	0.09	273100	keystroke_d	d	n/a
136.655	0.075	273310	keystroke_Key.space	Key.space	n/a
137.06	0.1495	274120	keystroke_c	c	n/a
137.3145	0.105	274629	keystroke_r	r	n/a
137.4045	0.075	274809	keystroke_i	i	n/a
137.5995	0.12	275199	keystroke_c	c	n/a
137.7045	0.106	275409	keystroke_k	k	n/a
138.5595	0.18	277119	keystroke_e	e	n/a
138.7405	0.105	277481	keystroke_t	t	n/a
139.0995	0.105	278199	keystroke_Key.enter	Key.enter	n/a
139.212	9.19	278424	prompt	n/a	found succeed enabling translated\n
140.06	0.165	280120	keystroke_f	f	n/a
140.24	0.135	280480	keystroke_o	o	n/a
140.33	0.105	280660	keystroke_u	u	n/a
140.57	0.075	281140	keystroke_n	n	n/a
140.69	0.12	281380	keystroke_d	d	n/a
141.155	0.12	282310	keystroke_Key.space	Key.space	n/a
141.455	0.105	282910	keystroke_s	s	n/a
141.695	0.075	283390	keystroke_u	u	n/a
141.875	0.06	283750	keystroke_c	c	n/a
142.01	0.09	284020	keystroke_c	c	n/a
142.205	0.09	284410	keystroke_e	e	n/a
142.445	0.09	284890	keystroke_s	s	n/a
142.8955	0.06	285791	keystroke_Key.backspace	Key.backspace	n/a
143.0155	0.09	286031	keystroke_e	e	n/a
143.2255	0.105	286451	keystroke_d	d	n/a
143.6745	0.136	287349	keystroke_Key.space	Key.space	n/a
143.9305	0.12	287861	keystroke_e	e	n/a
144.0655	0.105	288131	keystroke_n	n	n/a
144.2605	0.105	288521	keystroke_a	a	n/a
144.5005	0.089	289001	keystroke_b	b	n/a
144.6505	0.09	289301	keystroke_l	l	n/a
144.9955	0.135	289991	keystroke_i	i	n/a
145.1145	0.1355	290229	keystroke_n	n	n/a
145.235	0.105	290470	keystroke_g	g	n/a
145.325	0.09	290650	keystroke_Key.space	Key.space	n/a
146.405	0.075	292810	keystroke_t	t	n/a
146.585	0.18	293170	keystroke_r	r	n/a
146.705	0.135	293410	keystroke_a	a	n/a
146.855	0.09	293710	keystroke_n	n	n/a
146.975	0.09	293950	keystroke_s	s	n/a
147.08	0.12	294160	keystroke_l	l	n/a
147.185	0.09	294370	keystroke_a	a	n/a
147.365	0.105	294730	keystroke_t	t	n/a
147.665	0.12	295330	keystroke_e	e	n/a
147.92	0.12	295840	keystroke_d	d	n/a
148.325	0.075	296650	keystroke_Key.enter	Key.enter	n/a
148.4085	12.4585	296817	prompt	n/a	theater borders conventional guinea\n
149.27	0.15	298540	keystroke_t	t	n/a
149.465	0.075	298930	keystroke_h	h	n/a
149.78	0.12	299560	keystroke_e	e	n/a
150.065	0.15	300130	keystroke_a	a	n/a
150.185	0.105	300370	keystroke_r	r	n/a
150.395	0.105	300790	keystroke_t	t	n/a
150.65	0.15	301300	keystroke_e	e	n/a
151.01	0.075	302020	keystroke_Key.backspace	Key.backspace	n/a
151.16	0.06	302320	keystroke_Key.backspace	Key.backspace	n/a
151.295	0.09	302590	keystroke_Key.backspace	Key.backspace	n/a
151.415	0.135	302830	keystroke_t	t	n/a
151.535	0.12	303070	keystroke_e	e	n/a
151.64	0.105	303280	keystroke_r	r	n/a
152.2995	0.135	304599	keystroke_Key.space	Key.space	n/a
152.5545	0.105	305109	keystroke_b	b	n/a
152.7495	0.09	305499	keystroke_o	o	n/a
153.3345	0.09	306669	keystroke_r	r	n/a
153.605	0.09	307210	keystroke_d	d	n/a
153.815	0.12	307630	keystroke_e	e	n/a
153.905	0.12	307810	keystroke_r	r	n/a
154.13	0.105	308260	keystroke_s	s	n/a
154.22	0.15	308440	keystroke_Key.space	Key.space	n/a
154.445	0.15	308890	keystroke_c	c	n/a
154.565	0.105	309130	keystroke_o	o	n/a
154.64	0.12	309280	keystroke_n	n	n/a
154.85	0.135	309700	keystroke_v	v	n/a
155.075	0.1195	310150	keystroke_e	e	n/a
155.2255	0.135	310451	keystroke_n	n	n/a
155.3895	0.105	310779	keystroke_t	t	n/a
155.5245	0.09	311049	keystroke_i	i	n/a
155.7495	0.09	311499	keystroke_a	a	n/a
156.335	0.075	312670	keystroke_Key.backspace	Key.backspace	n/a
156.56	0.135	313120	keystroke_o	o	n/a
156.665	0.135	313330	keystroke_n	n	n/a
156.995	0.03	313990	keystroke_e	e	n/a
157.31	0.105	314620	keystroke_a	a	n/a
157.52	0.075	315040	keystroke_l	l	n/a
157.8505	0.06	315701	keystroke_Key.backspace	Key.backspace	n/a
158.0005	0.075	316001	keystroke_Key.backspace	Key.backspace	n/a
158.1505	0.06	316301	keystroke_Key.backspace	Key.backspace	n/a
158.2705	0.105	316541	keystroke_a	a	n/a
158.4205	0.12	316841	keystroke_l	l	n/a
158.5705	0.135	317141	keystroke_Key.space	Key.space	n/a
158.9455	0.12	317891	keystroke_g	g	n/a
159.455	0.105	318910	keystroke_u	u	n/a
159.935	0.12	319870	keystroke_i	i	n/a
160.13	0.12	320260	keystroke_n	n	n/a
160.4	0.195	320800	keystroke_e	e	n/a
160.535	0.135	321070	keystroke_a	a	n/a
160.79	0.075	321580	keystroke_Key.enter	Key.enter	n/a
160.8725	6.8045	321745	prompt	n/a	handled html inns appearance\n
161.735	0.0905	323470	keystroke_h	h	n/a
161.8405	0.12	323681	keystroke_a	a	n/a
162.0205	0.105	324041	keystroke_n	n	n/a
162.1855	0.12	324371	keystroke_d	d	n/a
162.3505	0.09	324701	keystroke_l	l	n/a
162.5755	0.09	325151	keystroke_e	e	n/a
162.8005	0.135	325601	keystroke_d	d	n/a
162.9505	0.135	325901	keystroke_Key.space	Key.space	n/a
163.3405	0.105	326681	keystroke_h	h	n/a
163.5805	0.105	327161	keystroke_t	t	n/a
163.7155	0.225	327431	keystroke_m	m	n/a
163.8955	0.134	327791	keystroke_l	l	n/a
164.0155	0.149	328031	keystroke_Key.space	Key.space	n/a
164.2255	0.105	328451	keystroke_i	i	n/a
164.4805	0.075	328961	keystroke_n	n	n/a
164.6305	0.074	329261	keystroke_n	n	n/a
164.8545	0.105	329709	keystroke_s	s	n/a
165.0045	0.12	330009	keystroke_Key.space	Key.space	n/a
165.2595	0.09	330519	keystroke_a	a	n/a
165.4855	0.105	330971	keystroke_p	p	n/a
165.6655	0.074	331331	keystroke_p	p	n/a
166.0105	0.165	332021	keystroke_e	e	n/a
166.3105	0.134	332621	keystroke_a	a	n/a
166.4895	0.105	332979	keystroke_r	r	n/a
166.9855	0.105	333971	keystroke_a	a	n/a
167.0605	0.074	334121	keystroke_n	n	n/a
167.2395	0.105	334479	keystroke_c	c	n/a
167.4505	0.089	334901	keystroke_e	e	n/a
167.6145	0.06	335229	keystroke_Key.enter	Key.enter	n/a
167.682	7.9295	335364	prompt	n/a	discussed pole safely housewives\n
168.395	0.12	336790	keystroke_d	d	n/a
168.53	0.045	337060	keystroke_i	i	n/a
168.65	0.06	337300	keystroke_s	s	n/a
168.83	0.15	337660	keystroke_c	c	n/a
169.04	0.075	338080	keystroke_u	u	n/a
169.46	0.06	338920	keystroke_s	s	n/a
169.61	0.0755	339220	keystroke_s	s	n/a
169.8055	0.09	339611	keystroke_e	e	n/a
170.0155	0.09	340031	keystroke_d	d	n/a
170.1205	0.15	340241	keystroke_Key.space	Key.space	n/a
170.4355	0.09	340871	keystroke_p	p	n/a
170.5855	0.09	341171	keystroke_o	o	n/a
170.7655	0.0895	341531	keystroke_l	l	n/a
170.9	0.075	341800	keystroke_e	e	n/a
170.96	0.12	341920	keystroke_Key.space	Key.space	n/a
171.155	0.21	342310	keystroke_s	s	n/a
171.32	0.09	342640	keystroke_a	a	n/a
171.44	0.15	342880	keystroke_f	f	n/a
171.605	0.105	343210	keystroke_e	e	n/a
172.2195	0.12	344439	keystroke_l	l	n/a
172.4445	0.09	344889	keystroke_y	y	n/a
172.5795	0.15	345159	keystroke_Key.space	Key.space	n/a
172.8045	0.105	345609	keystroke_h	h	n/a
172.925	0.1195	345850	keystroke_o	o	n/a
173.0145	0.09	346029	keystroke_u	u	n/a
173.12	0.121	346240	keystroke_s	s	n/a
173.1945	0.15	346389	keystroke_e	e	n/a
174.005	0.09	348010	keystroke_w	w	n/a
174.08	0.09	348160	keystroke_i	i	n/a
174.62	0.15	349240	keystroke_v	v	n/a
174.995	0.09	349990	keystroke_e	e	n/a
175.31	0.12	350620	keystroke_s	s	n/a
175.535	0.075	351070	keystroke_Key.enter	Key.enter	n/a
175.619	26.7975	351238	prompt	n/a	raid humanitarian documentation mere\n
176.69	0.165	353380	keystroke_r	r	n/a
176.825	0.12	353650	keystroke_a	a	n/a
177.005	0.06	354010	keystroke_i	i	n/a
177.14	0.105	354280	keystroke_d	d	n/a
177.41	0.12	354820	keystroke_Key.space	Key.space	n/a
178.085	0.0745	356170	keystroke_h	h	n/a
178.2645	0.06	356529	keystroke_u	u	n/a
178.4895	0.09	356979	keystroke_m	m	n/a
178.6695	0.105	357339	keystroke_a	a	n/a
178.8045	0.09	357609	keystroke_n	n	n/a
179.0595	0.06	358119	keystroke_i	i	n/a
179.2845	0.091	358569	keystroke_t	t	n/a
179.6745	0.12	359349	keystroke_a	a	n/a
179.9895	0.09	359979	keystroke_r	r	n/a
180.2145	0.06	360429	keystroke_i	i	n/a
180.3645	0.121	360729	keystroke_a	a	n/a
180.4995	0.075	360999	keystroke_n	n	n/a
180.7545	0.1055	361509	keystroke_Key.space	Key.space	n/a
181.0395	0.135	362079	keystroke_d	d	n/a
181.1895	0.09	362379	keystroke_o	o	n/a
181.3995	0.165	362799	keystroke_c	c	n/a
181.5495	0.075	363099	keystroke_u	u	n/a
181.7745	0.105	363549	keystroke_n	n	n/a
181.9095	0.1205	363819	keystroke_e	e	n/a
182.045	0.06	364090	keystroke_n	n	n/a
182.21	0.09	364420	keystroke_t	t	n/a
182.78	0.06	365560	keystroke_Key.backspace	Key.backspace	n/a
182.945	0.03	365890	keystroke_Key.backspace	Key.backspace	n/a
183.065	0.045	366130	keystroke_Key.backspace	Key.backspace	n/a
183.2	0.075	366400	keystroke_Key.backspace	Key.backspace	n/a
183.6045	0.105	367209	keystroke_m	m	n/a
183.7695	0.105	367539	keystroke_e	e	n/a
183.9355	0.014	367871	keystroke_b	b	n/a
184.0545	0.075	368109	keystroke_t	t	n/a
184.5955	0.119	369191	keystroke_a	a	n/a
184.9845	0.06	369969	keystroke_Key.backspace	Key.backspace	n/a
185.1345	0.045	370269	keystroke_Key.backspace	Key.backspace	n/a
185.2695	0.075	370539	keystroke_Key.backspace	Key.backspace	n/a
185.8555	0.015	371711	keystroke_b	b	n/a
187.04	0.06	374080	keystroke_Key.backspace	Key.backspace	n/a
187.34	0.075	374680	keystroke_n	n	n/a
187.505	0.135	375010	keystroke_a	a	n/a
187.61	0.135	375220	keystroke_t	t	n/a
187.73	0.195	375460	keystroke_i	i	n/a
187.805	0.135	375610	keystroke_o	o	n/a
187.91	0.12	375820	keystroke_n	n	n/a
189.035	0.12	378070	keystroke_Key.space	Key.space	n/a
189.305	0.165	378610	keystroke_m	m	n/a
191.902	0.013	383804	keystroke_Key.backspace	Key.backspace	n/a
192.02	0.06	384040	keystroke_Key.backspace	Key.backspace	n/a
192.185	0.045	384370	keystroke_Key.backspace	Key.backspace	n/a
192.335	0.06	384670	keystroke_Key.backspace	Key.backspace	n/a
192.47	0.06	384940	keystroke_Key.backspace	Key.backspace	n/a
192.62	0.075	385240	keystroke_Key.backspace	Key.backspace	n/a
192.77	0.06	385540	keystroke_Key.backspace	Key.backspace	n/a
192.92	0.06	385840	keystroke_Key.backspace	Key.backspace	n/a
193.07	0.06	386140	keystroke_Key.backspace	Key.backspace	n/a
193.25	0.06	386500	keystroke_Key.backspace	Key.backspace	n/a
194.9595	0.135	389919	keystroke_n	n	n/a
195.1395	0.121	390279	keystroke_e	e	n/a
195.2605	0.09	390521	keystroke_b	b	n/a
195.4405	0.12	390881	keystroke_t	t	n/a
196.2945	0.075	392589	keystroke_Key.backspace	Key.backspace	n/a
196.4745	0.045	392949	keystroke_Key.backspace	Key.backspace	n/a
196.5955	0.074	393191	keystroke_Key.backspace	Key.backspace	n/a
197.8845	0.06	395769	keystroke_Key.backspace	Key.backspace	n/a
198.965	0.105	397930	keystroke_m	m	n/a
199.16	0.165	398320	keystroke_e	e	n/a
199.22	0.09	398440	keystroke_n	n	n/a
200.285	0.12	400570	keystroke_t	t	n/a
200.45	0.15	400900	keystroke_a	a	n/a
200.57	0.105	401140	keystroke_t	t	n/a
200.705	0.24	401410	keystroke_i	i	n/a
200.795	0.135	401590	keystroke_o	o	n/a
200.915	0.15	401830	keystroke_n	n	n/a
201.095	0.12	402190	keystroke_Key.space	Key.space	n/a
201.68	0.15	403360	keystroke_m	m	n/a
201.845	0.15	403690	keystroke_e	e	n/a
201.98	0.15	403960	keystroke_r	r	n/a
202.1	0.12	404200	keystroke_e	e	n/a
202.355	0.06	404710	keystroke_Key.enter	Key.enter	n/a
202.428	13.2335	404856	prompt	n/a	relative excerpt springfield lawrence\n
203.135	0.12	406270	keystroke_r	r	n/a
203.21	0.105	406420	keystroke_e	e	n/a
203.33	0.09	406660	keystroke_l	l	n/a
203.435	0.135	406870	keystroke_a	a	n/a
203.555	0.105	407110	keystroke_t	t	n/a
203.72	0.06	407440	keystroke_i	i	n/a
203.825	0.12	407650	keystroke_v	v	n/a
203.93	0.09	407860	keystroke_e	e	n/a
204.035	0.105	408070	keystroke_Key.space	Key.space	n/a
204.275	0.105	408550	keystroke_e	e	n/a
204.515	0.12	409030	keystroke_x	x	n/a
204.785	0.135	409570	keystroke_c	c	n/a
205.055	0.1495	410110	keystroke_e	e	n/a
205.19	0.1195	410380	keystroke_r	r	n/a
205.7145	0.09	411429	keystroke_p	p	n/a
205.8345	0.105	411669	keystroke_t	t	n/a
206.1795	0.135	412359	keystroke_Key.space	Key.space	n/a
206.4645	0.12	412929	keystroke_s	s	n/a
206.5695	0.12	413139	keystroke_p	p	n/a
206.7195	0.15	413439	keystroke_i	i	n/a
206.8845	0.135	413769	keystroke_r	r	n/a
206.9145	0.15	413829	keystroke_n	n	n/a
207.9045	0.045	415809	keystroke_Key.backspace	Key.backspace	n/a
208.0395	0.03	416079	keystroke_Key.backspace	Key.backspace	n/a
208.16	0.06	416320	keystroke_Key.backspace	Key.backspace	n/a
208.355	0.105	416710	keystroke_r	r	n/a
208.445	0.12	416890	keystroke_i	i	n/a
208.55	0.075	417100	keystroke_n	n	n/a
208.685	0.09	417370	keystroke_g	g	n/a
209.3	0.15	418600	keystroke_f	f	n/a
209.435	0.075	418870	keystroke_i	i	n/a
209.9145	0.105	419829	keystroke_e	e	n/a
210.0645	0.075	420129	keystroke_l	l	n/a
210.1545	0.12	420309	keystroke_d	d	n/a
210.9795	0.15	421959	keystroke_Key.space	Key.space	n/a
211.2495	0.09	422499	keystroke_l	l	n/a
211.3695	0.12	422739	keystroke_a	a	n/a
211.5945	0.135	423189	keystroke_w	w	n/a
213.4845	0.105	426969	keystroke_w	w	n/a
214.0845	0.06	428169	keystroke_Key.backspace	Key.backspace	n/a
214.5645	0.045	429129	keystroke_r	r	n/a
214.8795	0.105	429759	keystroke_e	e	n/a
215.0445	0.105	430089	keystroke_n	n	n/a
215.2095	0.12	430419	keystroke_c	c	n/a
215.4045	0.075	430809	keystroke_e	e	n/a
215.5695	0.09	431139	keystroke_Key.enter	Key.enter	n/a
215.666	16.931	431332	prompt	n/a	flyer recipe possess maximize\n
216.4995	0.135	432999	keystroke_f	f	n/a
216.6495	0.135	433299	keystroke_l	l	n/a
216.9795	0.075	433959	keystroke_y	y	n/a
217.1895	0.12	434379	keystroke_e	e	n/a
217.2795	0.09	434559	keystroke_r	r	n/a
217.3705	0.164	434741	keystroke_Key.space	Key.space	n/a
217.6695	0.105	435339	keystroke_r	r	n/a
217.7595	0.075	435519	keystroke_e	e	n/a
217.9545	0.12	435909	keystroke_c	c	n/a
218.1045	0.06	436209	keystroke_i	i	n/a
218.2395	0.105	436479	keystroke_e	e	n/a
218.4495	0.075	436899	keystroke_p	p	n/a
218.6745	0.09	437349	keystroke_Key.space	Key.space	n/a
219.2895	0.06	438579	keystroke_Key.backspace	Key.backspace	n/a
219.3795	0.09	438759	keystroke_e	e	n/a
219.4995	0.09	438999	keystroke_Key.space	Key.space	n/a
219.9045	0.075	439809	keystroke_p	p	n/a
220.0245	0.105	440049	keystroke_o	o	n/a
220.2345	0.06	440469	keystroke_s	s	n/a
220.4155	0.059	440831	keystroke_s	s	n/a
222.0495	0.075	444099	keystroke_Key.backspace	Key.backspace	n/a
222.2145	0.045	444429	keystroke_Key.backspace	Key.backspace	n/a
222.3645	0.03	444729	keystroke_Key.backspace	Key.backspace	n/a
222.4845	0.06	444969	keystroke_Key.backspace	Key.backspace	n/a
222.6345	0.06	445269	keystroke_Key.backspace	Key.backspace	n/a
222.7845	0.075	445569	keystroke_Key.backspace	Key.backspace	n/a
222.9645	0.09	445929	keystroke_Key.backspace	Key.backspace	n/a
223.1745	0.075	446349	keystroke_Key.backspace	Key.backspace	n/a
223.6695	0.03	447339	keystroke_k	k	n/a
224	0.09	448000	keystroke_p	p	n/a
224.165	0.09	448330	keystroke_e	e	n/a
224.3	0.105	448600	keystroke_Key.space	Key.space	n/a
225.14	0.06	450280	keystroke_Key.backspace	Key.backspace	n/a
225.2895	0.045	450579	keystroke_Key.backspace	Key.backspace	n/a
225.4395	0.045	450879	keystroke_Key.backspace	Key.backspace	n/a
225.5595	0.09	451119	keystroke_Key.backspace	Key.backspace	n/a
226.4305	0.119	452861	keystroke_p	p	n/a
227.2995	0.09	454599	keystroke_e	e	n/a
228.1545	0.135	456309	keystroke_Key.space	Key.space	n/a
228.9045	0.09	457809	keystroke_p	p	n/a
229.0545	0.09	458109	keystroke_o	o	n/a
229.2495	0.06	458499	keystroke_s	s	n/a
229.4145	0.09	458829	keystroke_s	s	n/a
229.6095	0.105	459219	keystroke_e	e	n/a
229.8195	0.075	459639	keystroke_s	s	n/a
229.9845	0.075	459969	keystroke_s	s	n/a
230.1645	0.105	460329	keystroke_Key.space	Key.space	n/a
230.4645	0.135	460929	keystroke_m	m	n/a
230.5395	0.105	461079	keystroke_a	a	n/a
230.8395	0.135	461679	keystroke_x	x	n/a
231.0945	0.09	462189	keystroke_i	i	n/a
231.3645	0.15	462729	keystroke_m	m	n/a
231.7245	0.075	463449	keystroke_i	i	n/a
232.0545	0.09	464109	keystroke_z	z	n/a
232.2945	0.12	464589	keystroke_e	e	n/a
232.52	0.075	465040	keystroke_Key.enter	Key.enter	n/a
232.6035	14.8315	465207	prompt	n/a	similar value anaheim steal\n
233.315	0.09	466630	keystroke_i	i	n/a
233.735	0.075	467470	keystroke_Key.backspace	Key.backspace	n/a
233.795	0.09	467590	keystroke_s	s	n/a
234.005	0.09	468010	keystroke_i	i	n/a
234.29	0.12	468580	keystroke_m	m	n/a
234.515	0.1345	469030	keystroke_i	i	n/a
234.7095	0.105	469419	keystroke_l	l	n/a
234.8745	0.12	469749	keystroke_a	a	n/a
235.0695	0.09	470139	keystroke_r	r	n/a
235.1745	0.12	470349	keystroke_Key.space	Key.space	n/a
235.415	0.165	470830	keystroke_v	v	n/a
235.55	0.0905	471100	keystroke_a	a	n/a
235.6845	0.105	471369	keystroke_l	l	n/a
235.8645	0.06	471729	keystroke_u	u	n/a
235.9995	0.09	471999	keystroke_e	e	n/a
236.1345	0.105	472269	keystroke_Key.space	Key.space	n/a
236.5395	0.09	473079	keystroke_a	a	n/a
236.9895	0.105	473979	keystroke_n	n	n/a
237.1095	0.091	474219	keystroke_a	a	n/a
237.3495	0.09	474699	keystroke_h	h	n/a
237.7095	0.075	475419	keystroke_e	e	n/a
237.9795	0.12	475959	keystroke_i	i	n/a
238.1445	0.15	476289	keystroke_m	m	n/a
238.2945	0.12	476589	keystroke_Key.space	Key.space	n/a
238.5495	0.09	477099	keystroke_s	s	n/a
238.8795	0.135	477759	keystroke_t	t	n/a
238.9845	0.165	477969	keystroke_e	e	n/a
239.1195	0.165	478239	keystroke_a	a	n/a
239.3295	0.015	478659	keystroke_a	a	n/a
241.8965	0.0285	483793	keystroke_l	l	n/a
242.314	0.061	484628	keystroke_Key.backspace	Key.backspace	n/a
242.465	0.09	484930	keystroke_Key.backspace	Key.backspace	n/a
242.795	0.09	485590	keystroke_l	l	n/a
247.4315	0.001	494863	keystroke_Key.enter	Key.enter	n/a
247.4415	9.74	494883	prompt	n/a	roman harvard saying terror\n
248.7055	0.12	497411	keystroke_r	r	n/a
248.8855	0.12	497771	keystroke_o	o	n/a
249.0655	0.135	498131	keystroke_m	m	n/a
249.2295	0.106	498459	keystroke_a	a	n/a
249.3495	0.151	498699	keystroke_n	n	n/a
249.5145	0.105	499029	keystroke_Key.space	Key.space	n/a
250.2195	0.09	500439	keystroke_h	h	n/a
250.5045	0.12	501009	keystroke_a	a	n/a
250.8045	0.09	501609	keystroke_r	r	n/a
251.1045	0.15	502209	keystroke_v	v	n/a
251.2695	0.105	502539	keystroke_a	a	n/a
251.5695	0.06	503139	keystroke_r	r	n/a
251.7795	0.09	503559	keystroke_d	d	n/a
251.9145	0.12	503829	keystroke_Key.space	Key.space	n/a
252.0945	0.21	504189	keystroke_s	s	n/a
252.2445	0.09	504489	keystroke_a	a	n/a
252.4095	0.15	504819	keystroke_y	y	n/a
252.5445	0.1805	505089	keystroke_i	i	n/a
252.695	0.135	505390	keystroke_n	n	n/a
252.845	0.075	505690	keystroke_g	g	n/a
252.875	0.12	505750	keystroke_Key.space	Key.space	n/a
253.5795	0.15	507159	keystroke_t	t	n/a
253.8345	0.1205	507669	keystroke_e	e	n/a
254.06	0.09	508120	keystroke_r	r	n/a
254.225	0.075	508450	keystroke_r	r	n/a
254.375	0.0895	508750	keystroke_o	o	n/a
254.4505	0.105	508901	keystroke_r	r	n/a
257.152	0.028	514304	keystroke_Key.enter	Key.enter	n/a
257.1915	6.56	514383	prompt	n/a	large toolbar hormone baths\n
258.2445	0.105	516489	keystroke_l	l	n/a
258.4695	0.136	516939	keystroke_a	a	n/a
258.6195	0.09	517239	keystroke_r	r	n/a
258.8295	0.12	517659	keystroke_g	g	n/a
258.9195	0.105	517839	keystroke_e	e	n/a
259.0545	0.135	518109	keystroke_Key.space	Key.space	n/a
259.5645	0.105	519129	keystroke_t	t	n/a
259.8495	0.06	519699	keystroke_o	o	n/a
260.2995	0.075	520599	keystroke_o	o	n/a
260.4945	0.09	520989	keystroke_l	l	n/a
260.6595	0.12	521319	keystroke_b	b	n/a
260.7645	0.135	521529	keystroke_a	a	n/a
260.9445	0.09	521889	keystroke_r	r	n/a
261.0495	0.105	522099	keystroke_Key.space	Key.space	n/a
261.3195	0.165	522639	keystroke_h	h	n/a
261.4695	0.09	522939	keystroke_o	o	n/a
261.6645	0.1205	523329	keystroke_r	r	n/a
261.965	0.135	523930	keystroke_m	m	n/a
262.145	0.15	524290	keystroke_o	o	n/a
262.25	0.12	524500	keystroke_n	n	n/a
262.43	0.075	524860	keystroke_e	e	n/a
262.55	0.12	525100	keystroke_Key.space	Key.space	n/a
262.775	0.105	525550	keystroke_b	b	n/a
262.925	0.12	525850	keystroke_a	a	n/a
263.195	0.105	526390	keystroke_t	t	n/a
263.345	0.09	526690	keystroke_h	h	n/a
263.525	0.09	527050	keystroke_s	s	n/a
263.66	0.09	527320	keystroke_Key.enter	Key.enter	n/a
263.7575	6.7595	527515	prompt	n/a	wheel remarkable pass hack\n
264.47	0.135	528940	keystroke_w	w	n/a
264.965	0.06	529930	keystroke_h	h	n/a
265.085	0.0895	530170	keystroke_e	e	n/a
265.34	0.105	530680	keystroke_e	e	n/a
265.49	0.12	530980	keystroke_l	l	n/a
265.73	0.105	531460	keystroke_Key.space	Key.space	n/a
266.1045	0.15	532209	keystroke_r	r	n/a
266.2095	0.135	532419	keystroke_e	e	n/a
266.5995	0.135	533199	keystroke_m	m	n/a
266.7945	0.105	533589	keystroke_a	a	n/a
266.9445	0.09	533889	keystroke_r	r	n/a
267.0495	0.105	534099	keystroke_k	k	n/a
267.4845	0.12	534969	keystroke_a	a	n/a
267.8595	0.09	535719	keystroke_b	b	n/a
268.1895	0.09	536379	keystroke_l	l	n/a
268.3095	0.075	536619	keystroke_e	e	n/a
268.4295	0.12	536859	keystroke_Key.space	Key.space	n/a
268.8795	0.105	537759	keystroke_p	p	n/a
268.9995	0.12	537999	keystroke_a	a	n/a
269.2545	0.06	538509	keystroke_s	s	n/a
269.4195	0.075	538839	keystroke_s	s	n/a
269.5695	0.12	539139	keystroke_Key.space	Key.space	n/a
269.7495	0.09	539499	keystroke_h	h	n/a
269.8545	0.1205	539709	keystroke_a	a	n/a
270.095	0.15	540190	keystroke_c	c	n/a
270.23	0.105	540460	keystroke_k	k	n/a
270.44	0.075	540880	keystroke_Key.enter	Key.enter	n/a
270.523	16.224	541046	prompt	n/a	consumers meditation monroe anne\n
271.25	0.165	542500	keystroke_c	c	n/a
271.4	0.105	542800	keystroke_o	o	n/a
271.52	0.12	543040	keystroke_n	n	n/a
272.03	0.105	544060	keystroke_s	s	n/a
272.21	0.075	544420	keystroke_u	u	n/a
272.42	0.09	544840	keystroke_m	m	n/a
272.555	0.15	545110	keystroke_e	e	n/a
272.675	0.09	545350	keystroke_r	r	n/a
272.87	0.075	545740	keystroke_s	s	n/a
272.915	0.12	545830	keystroke_Key.space	Key.space	n/a
273.215	0.105	546430	keystroke_m	m	n/a
273.335	0.075	546670	keystroke_e	e	n/a
273.53	0.12	547060	keystroke_d	d	n/a
273.635	0.075	547270	keystroke_i	i	n/a
273.83	0.105	547660	keystroke_t	t	n/a
273.95	0.06	547900	keystroke_i	i	n/a
274.07	0.135	548140	keystroke_a	a	n/a
274.19	0.105	548380	keystroke_t	t	n/a
274.265	0.24	548530	keystroke_i	i	n/a
274.355	0.105	548710	keystroke_o	o	n/a
274.49	0.12	548980	keystroke_n	n	n/a
274.685	0.12	549370	keystroke_Key.space	Key.space	n/a
279.1725	0.027	558345	keystroke_Key.backspace	Key.backspace	n/a
279.3045	0.06	558609	keystroke_Key.backspace	Key.backspace	n/a
279.4845	0.045	558969	keystroke_Key.backspace	Key.backspace	n/a
279.6645	0.03	559329	keystroke_Key.backspace	Key.backspace	n/a
279.7995	0.045	559599	keystroke_Key.backspace	Key.backspace	n/a
279.9645	0.045	559929	keystroke_Key.backspace	Key.backspace	n/a
280.0845	0.075	560169	keystroke_Key.backspace	Key.backspace	n/a
280.8345	0.12	561669	keystroke_a	a	n/a
281.0145	0.105	562029	keystroke_t	t	n/a
281.8395	0.27	563679	keystroke_i	i	n/a
281.9445	0.135	563889	keystroke_o	o	n/a
282.0945	0.135	564189	keystroke_n	n	n/a
282.3045	0.1205	564609	keystroke_Key.space	Key.space	n/a
283.22	0.165	566440	keystroke_m	m	n/a
283.4	0.105	566800	keystroke_o	o	n/a
283.52	0.12	567040	keystroke_n	n	n/a
284.225	0.135	568450	keystroke_r	r	n/a
284.345	0.075	568690	keystroke_o	o	n/a
284.5105	0.09	569021	keystroke_e	e	n/a
284.8855	0.104	569771	keystroke_Key.space	Key.space	n/a
285.3045	0.106	570609	keystroke_a	a	n/a
285.4705	0.06	570941	keystroke_n	n	n/a
285.6055	0.09	571211	keystroke_n	n	n/a
285.9355	0.104	571871	keystroke_e	e	n/a
286.6695	0.076	573339	keystroke_Key.enter	Key.enter	n/a
286.752	12.0545	573504	prompt	n/a	guess champagne recording thumbnails\n
287.7345	0.121	575469	keystroke_g	g	n/a
287.9145	0.076	575829	keystroke_u	u	n/a
288.0195	0.105	576039	keystroke_e	e	n/a
288.2605	0.06	576521	keystroke_s	s	n/a
288.4095	0.06	576819	keystroke_s	s	n/a
288.5145	0.105	577029	keystroke_Key.space	Key.space	n/a
288.8895	0.12	577779	keystroke_c	c	n/a
289.0855	0.075	578171	keystroke_h	h	n/a
289.3105	0.09	578621	keystroke_a	a	n/a
289.4745	0.196	578949	keystroke_m	m	n/a
290.1505	0.059	580301	keystroke_p	p	n/a
290.4045	0.12	580809	keystroke_a	a	n/a
291.3645	0.12	582729	keystroke_g	g	n/a
291.8445	0.09	583689	keystroke_n	n	n/a
291.98	0.1045	583960	keystroke_e	e	n/a
292.0995	0.12	584199	keystroke_Key.space	Key.space	n/a
292.565	0.135	585130	keystroke_r	r	n/a
292.67	0.12	585340	keystroke_e	e	n/a
292.955	0.195	585910	keystroke_c	c	n/a
293.48	0.075	586960	keystroke_o	o	n/a
293.6	0.105	587200	keystroke_r	r	n/a
293.81	0.135	587620	keystroke_d	d	n/a
293.915	0.12	587830	keystroke_i	i	n/a
294.005	0.135	588010	keystroke_n	n	n/a
294.155	0.075	588310	keystroke_g	g	n/a
294.2	0.12	588400	keystroke_Key.space	Key.space	n/a
294.59	0.12	589180	keystroke_t	t	n/a
294.8	0.075	589600	keystroke_h	h	n/a
294.995	0.03	589990	keystroke_y	y	n/a
295.385	0.135	590770	keystroke_m	m	n/a
295.82	0.045	591640	keystroke_Key.backspace	Key.backspace	n/a
295.955	0.06	591910	keystroke_Key.backspace	Key.backspace	n/a
296.195	0.075	592390	keystroke_u	u	n/a
296.45	0.06	592900	keystroke_m	m	n/a
296.72	0.06	593440	keystroke_b	b	n/a
297.875	0.105	595750	keystroke_n	n	n/a
298.07	0.09	596140	keystroke_a	a	n/a
298.19	0.165	596380	keystroke_i	i	n/a
298.34	0.105	596680	keystroke_l	l	n/a
298.505	0.105	597010	keystroke_s	s	n/a
298.745	0.06	597490	keystroke_Key.enter	Key.enter	n/a
298.811	9.4465	597622	prompt	n/a	calculator trust governance fuzzy\n
299.54	0.195	599080	keystroke_c	c	n/a
299.705	0.12	599410	keystroke_a	a	n/a
299.84	0.09	599680	keystroke_l	l	n/a
300.185	0.105	600370	keystroke_c	c	n/a
300.74	0.0745	601480	keystroke_u	u	n/a
300.95	0.075	601900	keystroke_l	l	n/a
301.145	0.09	602290	keystroke_a	a	n/a
301.8955	0.135	603791	keystroke_t	t	n/a
302.0605	0.075	604121	keystroke_o	o	n/a
302.2105	0.09	604421	keystroke_r	r	n/a
302.3295	0.09	604659	keystroke_Key.space	Key.space	n/a
302.825	0.09	605650	keystroke_t	t	n/a
303.02	0.105	606040	keystroke_r	r	n/a
303.14	0.075	606280	keystroke_u	u	n/a
303.245	0.18	606490	keystroke_s	s	n/a
303.41	0.09	606820	keystroke_t	t	n/a
303.515	0.12	607030	keystroke_Key.space	Key.space	n/a
303.92	0.12	607840	keystroke_g	g	n/a
304.22	0.015	608440	keystroke_o	o	n/a
304.31	0.165	608620	keystroke_v	v	n/a
304.835	0.18	609670	keystroke_e	e	n/a
305.09	0.135	610180	keystroke_r	r	n/a
305.375	0.09	610750	keystroke_n	n	n/a
305.795	0.06	611590	keystroke_a	a	n/a
306.14	0.09	612280	keystroke_n	n	n/a
306.395	0.105	612790	keystroke_c	c	n/a
306.6195	0.105	613239	keystroke_e	e	n/a
306.7845	0.105	613569	keystroke_Key.space	Key.space	n/a
307.0405	0.15	614081	keystroke_f	f	n/a
307.2955	0.089	614591	keystroke_u	u	n/a
307.5195	0.106	615039	keystroke_z	z	n/a
307.6995	0.09	615399	keystroke_z	z	n/a
307.8495	0.09	615699	keystroke_y	y	n/a
308.1655	0.089	616331	keystroke_Key.enter	Key.enter	n/a
308.262	13.015	616524	prompt	n/a	stock telescope receives expectations\n
308.99	0.1945	617980	keystroke_s	s	n/a
309.1695	0.12	618339	keystroke_t	t	n/a
309.3045	0.105	618609	keystroke_o	o	n/a
309.4995	0.12	618999	keystroke_c	c	n/a
309.5895	0.105	619179	keystroke_k	k	n/a
309.9645	0.135	619929	keystroke_Key.space	Key.space	n/a
310.2345	0.1205	620469	keystroke_t	t	n/a
310.3245	0.1055	620649	keystroke_e	e	n/a
310.445	0.105	620890	keystroke_l	l	n/a
310.715	0.105	621430	keystroke_e	e	n/a
310.985	0.135	621970	keystroke_c	c	n/a
312.29	0.06	624580	keystroke_Key.backspace	Key.backspace	n/a
312.38	0.0895	624760	keystroke_s	s	n/a
312.6045	0.12	625209	keystroke_c	c	n/a
313.0095	0.12	626019	keystroke_o	o	n/a
313.0995	0.12	626199	keystroke_p	p	n/a
313.4745	0.12	626949	keystroke_e	e	n/a
313.7295	0.105	627459	keystroke_Key.space	Key.space	n/a
314.1205	0.104	628241	keystroke_r	r	n/a
314.2095	0.105	628419	keystroke_e	e	n/a
314.4195	0.121	628839	keystroke_c	c	n/a
314.8395	0.075	629679	keystroke_i	i	n/a
315.3045	0.075	630609	keystroke_Key.backspace	Key.backspace	n/a
315.3955	0.104	630791	keystroke_e	e	n/a
315.5595	0.06	631119	keystroke_i	i	n/a
315.6345	0.135	631269	keystroke_v	v	n/a
315.7245	0.135	631449	keystroke_e	e	n/a
315.9955	0.089	631991	keystroke_d	d	n/a
316.6545	0.09	633309	keystroke_Key.backspace	Key.backspace	n/a
316.7745	0.075	633549	keystroke_s	s	n/a
316.8945	0.075	633789	keystroke_Key.space	Key.space	n/a
317.51	0.06	635020	keystroke_e	e	n/a
317.675	0.15	635350	keystroke_x	x	n/a
317.96	0.09	635920	keystroke_p	p	n/a
318.185	0.12	636370	keystroke_e	e	n/a
318.815	0.165	637630	keystroke_c	c	n/a
319.13	0.12	638260	keystroke_t	t	n/a
319.28	0.075	638560	keystroke_e	e	n/a
319.925	0.06	639850	keystroke_Key.backspace	Key.backspace	n/a
320.03	0.135	640060	keystroke_a	a	n/a
320.21	0.105	640420	keystroke_t	t	n/a
320.375	0.285	640750	keystroke_i	i	n/a
320.51	0.135	641020	keystroke_o	o	n/a
320.63	0.12	641260	keystroke_n	n	n/a
320.84	0.105	641680	keystroke_s	s	n/a
321.185	0.09	642370	keystroke_Key.enter	Key.enter	n/a
321.2845	9.1575	642569	prompt	n/a	pipes andreas clinic replied\n
322.07	0.12	644140	keystroke_p	p	n/a
322.235	0.21	644470	keystroke_i	i	n/a
322.94	0.075	645880	keystroke_p	p	n/a
323.27	0.105	646540	keystroke_e	e	n/a
323.48	0.09	646960	keystroke_s	s	n/a
323.615	0.09	647230	keystroke_Key.space	Key.space	n/a
323.87	0.075	647740	keystroke_a	a	n/a
324.02	0.09	648040	keystroke_n	n	n/a
324.155	0.12	648310	keystroke_d	d	n/a
324.485	0.105	648970	keystroke_r	r	n/a
324.53	0.18	649060	keystroke_e	e	n/a
324.695	0.135	649390	keystroke_a	a	n/a
324.935	0.06	649870	keystroke_s	s	n/a
325.085	0.1055	650170	keystroke_Key.space	Key.space	n/a
325.385	0.135	650770	keystroke_c	c	n/a
325.535	0.12	651070	keystroke_l	l	n/a
325.655	0.09	651310	keystroke_i	i	n/a
325.88	0.06	651760	keystroke_n	n	n/a
328.0265	0.001	656053	keystroke_i	i	n/a
328.0395	0.105	656079	keystroke_c	c	n/a
328.8045	0.15	657609	keystroke_Key.space	Key.space	n/a
329.285	0.135	658570	keystroke_r	r	n/a
329.39	0.0905	658780	keystroke_e	e	n/a
329.5105	0.074	659021	keystroke_p	p	n/a
329.6145	0.12	659229	keystroke_l	l	n/a
329.8255	0.075	659651	keystroke_i	i	n/a
329.9755	0.09	659951	keystroke_e	e	n/a
330.2005	0.104	660401	keystroke_d	d	n/a
330.3645	0.075	660729	keystroke_Key.enter	Key.enter	n/a
330.4465	10.7945	660893	prompt	n/a	delivering malta release notified\n
331.2495	0.015	662499	keystroke_d	d	n/a
331.2795	0.06	662559	keystroke_i	i	n/a
331.9095	0.09	663819	keystroke_l	l	n/a
332.4195	0.045	664839	keystroke_Key.backspace	Key.backspace	n/a
332.5395	0.075	665079	keystroke_Key.backspace	Key.backspace	n/a
332.6905	0.074	665381	keystroke_e	e	n/a
332.8245	0.075	665649	keystroke_l	l	n/a
333.2895	0.06	666579	keystroke_i	i	n/a
333.56	0.135	667120	keystroke_v	v	n/a
333.755	0.1795	667510	keystroke_e	e	n/a
333.9195	0.105	667839	keystroke_r	r	n/a
334.235	0.1045	668470	keystroke_i	i	n/a
334.3405	0.134	668681	keystroke_n	n	n/a
334.5195	0.0755	669039	keystroke_g	g	n/a
334.5955	0.089	669191	keystroke_Key.space	Key.space	n/a
335.375	0.15	670750	keystroke_m	m	n/a
335.54	0.105	671080	keystroke_a	a	n/a
335.705	0.09	671410	keystroke_l	l	n/a
335.9	0.105	671800	keystroke_t	t	n/a
336.095	0.105	672190	keystroke_a	a	n/a
336.245	0.12	672490	keystroke_Key.space	Key.space	n/a
336.575	0.105	673150	keystroke_r	r	n/a
336.65	0.09	673300	keystroke_e	e	n/a
336.83	0.075	673660	keystroke_l	l	n/a
336.92	0.12	673840	keystroke_e	e	n/a
337.01	0.165	674020	keystroke_a	a	n/a
337.115	0.15	674230	keystroke_s	s	n/a
337.205	0.12	674410	keystroke_e	e	n/a
338.075	0.15	676150	keystroke_Key.space	Key.space	n/a
338.375	0.12	676750	keystroke_n	n	n/a
338.465	0.075	676930	keystroke_o	o	n/a
338.7945	0.09	677589	keystroke_t	t	n/a
338.9295	0.075	677859	keystroke_i	i	n/a
339.0495	0.12	678099	keystroke_f	f	n/a
340.3405	0.074	680681	keystroke_i	i	n/a
340.4595	0.12	680919	keystroke_e	e	n/a
340.7145	0.105	681429	keystroke_d	d	n/a
341.1645	0.075	682329	keystroke_Key.enter	Key.enter	n/a
341.246	7.316	682492	prompt	n/a	handy respect judges capture\n
342.0045	0.09	684009	keystroke_h	h	n/a
342.1095	0.105	684219	keystroke_a	a	n/a
342.2295	0.09	684459	keystroke_n	n	n/a
342.3345	0.12	684669	keystroke_d	d	n/a
342.4845	0.075	684969	keystroke_y	y	n/a
342.5895	0.135	685179	keystroke_Key.space	Key.space	n/a
343.0395	0.03	686079	keystroke_r	r	n/a
343.0545	0.03	686109	keystroke_e	e	n/a
343.1895	0.12	686379	keystroke_s	s	n/a
343.3245	0.105	686649	keystroke_p	p	n/a
343.5345	0.15	687069	keystroke_e	e	n/a
343.8045	0.075	687609	keystroke_n	n	n/a
343.9845	0.105	687969	keystroke_d	d	n/a
344.2995	0.045	688599	keystroke_Key.backspace	Key.backspace	n/a
344.4345	0.06	688869	keystroke_Key.backspace	Key.backspace	n/a
344.5095	0.135	689019	keystroke_c	c	n/a
344.7495	0.075	689499	keystroke_t	t	n/a
344.8545	0.075	689709	keystroke_Key.space	Key.space	n/a
345.5595	0.075	691119	keystroke_j	j	n/a
345.8295	0.045	691659	keystroke_u	u	n/a
346.3995	0.12	692799	keystroke_d	d	n/a
346.5345	0.12	693069	keystroke_g	g	n/a
346.6095	0.105	693219	keystroke_e	e	n/a
346.9095	0.09	693819	keystroke_s	s	n/a
347.0595	0.105	694119	keystroke_Key.space	Key.space	n/a
347.315	0.1345	694630	keystroke_c	c	n/a
347.435	0.09	694870	keystroke_a	a	n/a
347.66	0.1045	695320	keystroke_p	p	n/a
347.885	0.12	695770	keystroke_t	t	n/a
348.05	0.075	696100	keystroke_u	u	n/a
348.11	0.12	696220	keystroke_r	r	n/a
348.2	0.12	696400	keystroke_e	e	n/a
348.47	0.0895	696940	keystroke_Key.enter	Key.enter	n/a
348.5665	8.2145	697133	prompt	n/a	oldest golden repository heaven\n
349.46	0.075	698920	keystroke_o	o	n/a
349.64	0.075	699280	keystroke_l	l	n/a
349.82	0.105	699640	keystroke_d	d	n/a
350.18	0.105	700360	keystroke_e	e	n/a
350.42	0.135	700840	keystroke_s	s	n/a
350.69	0.09	701380	keystroke_t	t	n/a
350.795	0.135	701590	keystroke_Key.space	Key.space	n/a
351.125	0.105	702250	keystroke_g	g	n/a
351.185	0.075	702370	keystroke_o	o	n/a
351.38	0.075	702760	keystroke_l	l	n/a
351.47	0.09	702940	keystroke_d	d	n/a
351.65	0.075	703300	keystroke_e	e	n/a
351.755	0.09	703510	keystroke_n	n	n/a
351.875	0.1045	703750	keystroke_Key.space	Key.space	n/a
352.2345	0.12	704469	keystroke_r	r	n/a
352.3245	0.105	704649	keystroke_e	e	n/a
353.2245	0.075	706449	keystroke_s	s	n/a
353.809	0.075	707618	keystroke_Key.backspace	Key.backspace	n/a
354.08	0.074	708160	keystroke_p	p	n/a
354.229	0.09	708458	keystroke_o	o	n/a
354.38	0.1045	708760	keystroke_s	s	n/a
354.5755	0.074	709151	keystroke_i	i	n/a
354.7995	0.09	709599	keystroke_t	t	n/a
355.0695	0.105	710139	keystroke_o	o	n/a
355.2345	0.12	710469	keystroke_r	r	n/a
355.3845	0.075	710769	keystroke_y	y	n/a
355.5045	0.12	711009	keystroke_Key.space	Key.space	n/a
355.7145	0.075	711429	keystroke_h	h	n/a
355.8195	0.135	711639	keystroke_e	e	n/a
355.9245	0.135	711849	keystroke_a	a	n/a
356.0605	0.134	712121	keystroke_v	v	n/a
356.1645	0.12	712329	keystroke_e	e	n/a
356.4795	0.075	712959	keystroke_n	n	n/a
356.7045	0.075	713409	keystroke_Key.enter	Key.enter	n/a
356.787	8.051	713574	prompt	n/a	forestry cincinnati am panels\n
357.5145	0.135	715029	keystroke_f	f	n/a
357.6345	0.09	715269	keystroke_o	o	n/a
357.8145	0.135	715629	keystroke_r	r	n/a
357.9195	0.15	715839	keystroke_e	e	n/a
358.1745	0.21	716349	keystroke_s	s	n/a
358.3695	0.105	716739	keystroke_t	t	n/a
358.5795	0.09	717159	keystroke_r	r	n/a
358.6845	0.12	717369	keystroke_y	y	n/a
358.8195	0.135	717639	keystroke_Key.space	Key.space	n/a
359.1045	0.15	718209	keystroke_c	c	n/a
359.3745	0.09	718749	keystroke_i	i	n/a
359.5995	0.105	719199	keystroke_n	n	n/a
360.2595	0.135	720519	keystroke_c	c	n/a
360.4245	0.075	720849	keystroke_i	i	n/a
360.6795	0.075	721359	keystroke_n	n	n/a
360.8295	0.075	721659	keystroke_n	n	n/a
360.9645	0.165	721929	keystroke_a	a	n/a
361.3095	0.105	722619	keystroke_t	t	n/a
361.5045	0.075	723009	keystroke_i	i	n/a
361.6995	0.105	723399	keystroke_Key.space	Key.space	n/a
362.0745	0.09	724149	keystroke_a	a	n/a
362.1945	0.1655	724389	keystroke_m	m	n/a
362.315	0.105	724630	keystroke_Key.space	Key.space	n/a
363.6645	0.105	727329	keystroke_p	p	n/a
363.89	0.12	727780	keystroke_a	a	n/a
364.025	0.12	728050	keystroke_n	n	n/a
364.19	0.12	728380	keystroke_e	e	n/a
364.385	0.105	728770	keystroke_l	l	n/a
364.594	0.106	729188	keystroke_s	s	n/a
364.744	0.091	729488	keystroke_Key.enter	Key.enter	n/a
364.844	14.887	729688	prompt	n/a	together accredited hunter bears\n
365.63	0.135	731260	keystroke_t	t	n/a
365.75	0.09	731500	keystroke_o	o	n/a
365.885	0.119	731770	keystroke_g	g	n/a
366.049	0.076	732098	keystroke_h	h	n/a
366.199	0.12	732398	keystroke_t	t	n/a
366.6045	0.0445	733209	keystroke_Key.backspace	Key.backspace	n/a
366.739	0.075	733478	keystroke_Key.backspace	Key.backspace	n/a
366.964	0.045	733928	keystroke_t	t	n/a
367.459	0.06	734918	keystroke_Key.backspace	Key.backspace	n/a
367.52	0.1345	735040	keystroke_e	e	n/a
367.7895	0.045	735579	keystroke_h	h	n/a
367.8795	0.12	735759	keystroke_t	t	n/a
367.9845	0.15	735969	keystroke_e	e	n/a
368.1045	0.105	736209	keystroke_r	r	n/a
368.2245	0.06	736449	keystroke_Key.space	Key.space	n/a
370.0395	0.105	740079	keystroke_Key.backspace	Key.backspace	n/a
370.294	0.061	740588	keystroke_Key.backspace	Key.backspace	n/a
370.46	0.075	740920	keystroke_Key.backspace	Key.backspace	n/a
370.669	0.076	741338	keystroke_Key.backspace	Key.backspace	n/a
371.225	0.045	742450	keystroke_Key.backspace	Key.backspace	n/a
372.17	0.105	744340	keystroke_t	t	n/a
372.32	0.075	744640	keystroke_h	h	n/a
372.425	0.15	744850	keystroke_e	e	n/a
372.53	0.12	745060	keystroke_r	r	n/a
373.129	0.09	746258	keystroke_Key.space	Key.space	n/a
373.52	0.105	747040	keystroke_a	a	n/a
373.79	0.075	747580	keystroke_c	c	n/a
373.9395	0.105	747879	keystroke_c	c	n/a
374.375	0.165	748750	keystroke_r	r	n/a
374.495	0.12	748990	keystroke_e	e	n/a
375.08	0.12	750160	keystroke_d	d	n/a
375.26	0.075	750520	keystroke_i	i	n/a
375.44	0.105	750880	keystroke_t	t	n/a
375.755	0.105	751510	keystroke_e	e	n/a
375.995	0.075	751990	keystroke_d	d	n/a
376.115	0.06	752230	keystroke_Key.space	Key.space	n/a
377.12	0.06	754240	keystroke_h	h	n/a
377.27	0.045	754540	keystroke_u	u	n/a
377.435	0.09	754870	keystroke_n	n	n/a
377.555	0.1195	755110	keystroke_t	t	n/a
377.6895	0.105	755379	keystroke_e	e	n/a
377.7645	0.12	755529	keystroke_r	r	n/a
377.8695	0.105	755739	keystroke_Key.space	Key.space	n/a
378.0645	0.12	756129	keystroke_b	b	n/a
378.2295	0.15	756459	keystroke_e	e	n/a
378.3645	0.135	756729	keystroke_a	a	n/a
379.265	0.105	758530	keystroke_r	r	n/a
379.489	0.105	758978	keystroke_s	s	n/a
379.654	0.075	759308	keystroke_Key.enter	Key.enter	n/a
379.7355	9.1605	759471	prompt	n/a	removable catering recent centuries\n
380.525	0.119	761050	keystroke_r	r	n/a
380.599	0.121	761198	keystroke_e	e	n/a
380.764	0.165	761528	keystroke_m	m	n/a
380.914	0.091	761828	keystroke_o	o	n/a
380.96	0.12	761920	keystroke_v	v	n/a
381.049	0.135	762098	keystroke_e	e	n/a
381.575	0.089	763150	keystroke_a	a	n/a
382.325	0.06	764650	keystroke_Key.backspace	Key.backspace	n/a
382.475	0.06	764950	keystroke_Key.backspace	Key.backspace	n/a
382.61	0.12	765220	keystroke_a	a	n/a
382.76	0.09	765520	keystroke_b	b	n/a
382.88	0.075	765760	keystroke_l	l	n/a
383.03	0.09	766060	keystroke_e	e	n/a
383.135	0.09	766270	keystroke_Key.space	Key.space	n/a
383.51	0.165	767020	keystroke_c	c	n/a
383.675	0.105	767350	keystroke_a	a	n/a
383.87	0.12	767740	keystroke_t	t	n/a
384.185	0.149	768370	keystroke_r	r	n/a
384.634	0.06	769268	keystroke_Key.backspace	Key.backspace	n/a
384.709	0.12	769418	keystroke_e	e	n/a
384.784	0.135	769568	keystroke_r	r	n/a
384.935	0.149	769870	keystroke_i	i	n/a
385.069	0.105	770138	keystroke_n	n	n/a
385.205	0.104	770410	keystroke_g	g	n/a
385.294	0.105	770588	keystroke_Key.space	Key.space	n/a
385.654	0.136	771308	keystroke_r	r	n/a
385.79	0.044	771580	keystroke_e	e	n/a
385.9545	0.075	771909	keystroke_c	c	n/a
386.1345	0.1045	772269	keystroke_e	e	n/a
386.269	0.075	772538	keystroke_n	n	n/a
386.389	0.075	772778	keystroke_t	t	n/a
386.494	0.09	772988	keystroke_Key.space	Key.space	n/a
387.0495	0.075	774099	keystroke_c	c	n/a
387.2005	0.119	774401	keystroke_e	e	n/a
387.3345	0.09	774669	keystroke_n	n	n/a
387.4395	0.075	774879	keystroke_t	t	n/a
387.9195	0.09	775839	keystroke_u	u	n/a
388.0245	0.12	776049	keystroke_r	r	n/a
388.1895	0.09	776379	keystroke_i	i	n/a
388.3245	0.105	776649	keystroke_e	e	n/a
388.5495	0.09	777099	keystroke_s	s	n/a
388.8345	0.06	777669	keystroke_Key.enter	Key.enter	n/a
388.9005	20.696	777801	prompt	n/a	vocabulary prot grow dial\n
389.7045	0.135	779409	keystroke_v	v	n/a
389.8545	0.075	779709	keystroke_o	o	n/a
389.9595	0.15	779919	keystroke_c	c	n/a
390.1395	0.045	780279	keystroke_c	c	n/a
390.1695	0.12	780339	keystroke_a	a	n/a
390.4245	0.105	780849	keystroke_b	b	n/a
390.6645	0.0755	781329	keystroke_u	u	n/a
390.845	0.09	781690	keystroke_l	l	n/a
390.964	0.136	781928	keystroke_a	a	n/a
391.145	0.104	782290	keystroke_r	r	n/a
391.28	0.105	782560	keystroke_y	y	n/a
391.399	0.12	782798	keystroke_Key.space	Key.space	n/a
391.699	0.135	783398	keystroke_p	p	n/a
391.895	0.149	783790	keystroke_r	r	n/a
392.435	0.075	784870	keystroke_o	o	n/a
392.615	0.105	785230	keystroke_t	t	n/a
392.735	0.1195	785470	keystroke_Key.space	Key.space	n/a
393.1395	0.1055	786279	keystroke_g	g	n/a
393.455	0.09	786910	keystroke_r	r	n/a
393.575	0.09	787150	keystroke_o	o	n/a
393.695	0.075	787390	keystroke_w	w	n/a
393.815	0.105	787630	keystroke_Key.space	Key.space	n/a
394.055	0.105	788110	keystroke_d	d	n/a
394.175	0.06	788350	keystroke_i	i	n/a
394.25	0.12	788500	keystroke_a	a	n/a
394.73	0.06	789460	keystroke_l	l	n/a
396.7545	0.045	793509	keystroke_Key.backspace	Key.backspace	n/a
396.9045	0.06	793809	keystroke_Key.backspace	Key.backspace	n/a
397.0395	0.09	794079	keystroke_Key.backspace	Key.backspace	n/a
397.2045	0.075	794409	keystroke_Key.backspace	Key.backspace	n/a
397.3695	0.06	794739	keystroke_Key.backspace	Key.backspace	n/a
397.5195	0.0755	795039	keystroke_Key.backspace	Key.backspace	n/a
397.6845	0.06	795369	keystroke_Key.backspace	Key.backspace	n/a
397.8795	0.09	795759	keystroke_Key.backspace	Key.backspace	n/a
398.0595	0.075	796119	keystroke_Key.backspace	Key.backspace	n/a
398.2545	0.075	796509	keystroke_Key.backspace	Key.backspace	n/a
398.4345	0.075	796869	keystroke_Key.backspace	Key.backspace	n/a
398.6295	0.045	797259	keystroke_Key.backspace	Key.backspace	n/a
398.7795	0.06	797559	keystroke_Key.backspace	Key.backspace	n/a
398.9295	0.06	797859	keystroke_Key.backspace	Key.backspace	n/a
399.0645	0.075	798129	keystroke_Key.backspace	Key.backspace	n/a
399.2445	0.06	798489	keystroke_Key.backspace	Key.backspace	n/a
399.4095	0.06	798819	keystroke_Key.backspace	Key.backspace	n/a
399.5595	0.06	799119	keystroke_Key.backspace	Key.backspace	n/a
399.7245	0.045	799449	keystroke_Key.backspace	Key.backspace	n/a
399.8745	0.045	799749	keystroke_Key.backspace	Key.backspace	n/a
400.0245	0.075	800049	keystroke_Key.backspace	Key.backspace	n/a
400.2045	0.06	800409	keystroke_Key.backspace	Key.backspace	n/a
400.37	0.09	800740	keystroke_Key.backspace	Key.backspace	n/a
401.015	0.105	802030	keystroke_a	a	n/a
401.345	0.12	802690	keystroke_b	b	n/a
401.54	0.105	803080	keystroke_y	y	n/a
401.75	0.105	803500	keystroke_k	k	n/a
401.84	0.15	803680	keystroke_a	a	n/a
402.005	0.074	804010	keystroke_r	r	n/a
402.364	0.076	804728	keystroke_Key.backspace	Key.backspace	n/a
402.53	0.045	805060	keystroke_Key.backspace	Key.backspace	n/a
402.68	0.06	805360	keystroke_Key.backspace	Key.backspace	n/a
402.829	0.075	805658	keystroke_Key.backspace	Key.backspace	n/a
405.0665	0.028	810133	keystroke_u	u	n/a
405.1995	0.135	810399	keystroke_l	l	n/a
405.3495	0.12	810699	keystroke_a	a	n/a
405.4845	0.105	810969	keystroke_r	r	n/a
405.6045	0.09	811209	keystroke_y	y	n/a
405.7545	0.1045	811509	keystroke_Key.space	Key.space	n/a
406.535	0.12	813070	keystroke_p	p	n/a
406.7	0.105	813400	keystroke_r	r	n/a
406.79	0.074	813580	keystroke_o	o	n/a
406.925	0.105	813850	keystroke_t	t	n/a
407.074	0.075	814148	keystroke_Key.space	Key.space	n/a
407.54	0.09	815080	keystroke_g	g	n/a
407.749	0.121	815498	keystroke_r	r	n/a
407.885	0.06	815770	keystroke_o	o	n/a
407.975	0.075	815950	keystroke_w	w	n/a
408.125	0.09	816250	keystroke_Key.space	Key.space	n/a
408.785	0.09	817570	keystroke_d	d	n/a
409.025	0.075	818050	keystroke_i	i	n/a
409.16	0.105	818320	keystroke_a	a	n/a
409.295	0.105	818590	keystroke_l	l	n/a
409.535	0.06	819070	keystroke_Key.enter	Key.enter	n/a
409.6025	8.0035	819205	prompt	n/a	sagem ferrari nike trip\n
410.525	0.105	821050	keystroke_s	s	n/a
410.72	0.12	821440	keystroke_a	a	n/a
410.93	0.075	821860	keystroke_g	g	n/a
411.155	0.09	822310	keystroke_e	e	n/a
411.35	0.135	822700	keystroke_m	m	n/a
411.5	0.09	823000	keystroke_Key.space	Key.space	n/a
411.755	0.15	823510	keystroke_f	f	n/a
412.025	0.105	824050	keystroke_e	e	n/a
412.235	0.075	824470	keystroke_r	r	n/a
412.4	0.09	824800	keystroke_r	r	n/a
412.6845	0.15	825369	keystroke_a	a	n/a
412.8945	0.075	825789	keystroke_r	r	n/a
413.1195	0.075	826239	keystroke_i	i	n/a
413.2695	0.105	826539	keystroke_Key.space	Key.space	n/a
413.5845	0.135	827169	keystroke_n	n	n/a
413.7345	0.075	827469	keystroke_i	i	n/a
413.8995	0.09	827799	keystroke_k	k	n/a
414.0795	0.06	828159	keystroke_e	e	n/a
414.1995	0.09	828399	keystroke_Key.space	Key.space	n/a
416.8125	0.001	833625	keystroke_t	t	n/a
416.9305	0.1195	833861	keystroke_r	r	n/a
417.065	0.195	834130	keystroke_i	i	n/a
417.23	0.12	834460	keystroke_p	p	n/a
417.545	0.06	835090	keystroke_Key.enter	Key.enter	n/a
417.6115	6.355	835223	prompt	n/a	minds established returns mother\n
418.3845	0.165	836769	keystroke_m	m	n/a
418.5345	0.075	837069	keystroke_i	i	n/a
418.6105	0.089	837221	keystroke_n	n	n/a
418.7005	0.119	837401	keystroke_d	d	n/a
418.8495	0.12	837699	keystroke_s	s	n/a
418.9705	0.104	837941	keystroke_Key.space	Key.space	n/a
419.3145	0.1055	838629	keystroke_e	e	n/a
419.54	0.12	839080	keystroke_s	s	n/a
419.72	0.12	839440	keystroke_t	t	n/a
419.915	0.135	839830	keystroke_a	a	n/a
420.155	0.09	840310	keystroke_b	b	n/a
420.4695	0.12	840939	keystroke_l	l	n/a
420.5755	0.089	841151	keystroke_i	i	n/a
420.6945	0.1205	841389	keystroke_s	s	n/a
420.83	0.075	841660	keystroke_h	h	n/a
421.01	0.075	842020	keystroke_e	e	n/a
421.205	0.105	842410	keystroke_d	d	n/a
421.28	0.135	842560	keystroke_Key.space	Key.space	n/a
421.58	0.12	843160	keystroke_r	r	n/a
421.67	0.135	843340	keystroke_e	e	n/a
421.91	0.105	843820	keystroke_t	t	n/a
422.03	0.075	844060	keystroke_u	u	n/a
422.135	0.12	844270	keystroke_r	r	n/a
422.27	0.12	844540	keystroke_n	n	n/a
422.39	0.12	844780	keystroke_Key.space	Key.space	n/a
422.9295	0.15	845859	keystroke_m	m	n/a
423.05	0.1045	846100	keystroke_o	o	n/a
423.1995	0.105	846399	keystroke_t	t	n/a
423.3195	0.06	846639	keystroke_h	h	n/a
423.3945	0.1505	846789	keystroke_e	e	n/a
423.5	0.135	847000	keystroke_r	r	n/a
423.89	0.075	847780	keystroke_Key.enter	Key.enter	n/a
423.972	13.2395	847944	prompt	n/a	valued wonder continuity signatures\n
424.835	0.195	849670	keystroke_v	v	n/a
424.97	0.105	849940	keystroke_a	a	n/a
425.179	0.091	850358	keystroke_l	l	n/a
425.36	0.06	850720	keystroke_u	u	n/a
425.48	0.09	850960	keystroke_e	e	n/a
425.614	0.15	851228	keystroke_Key.space	Key.space	n/a
426.155	0.0595	852310	keystroke_Key.backspace	Key.backspace	n/a
426.2605	0.075	852521	keystroke_d	d	n/a
426.3645	0.075	852729	keystroke_Key.space	Key.space	n/a
426.86	0.075	853720	keystroke_w	w	n/a
426.98	0.09	853960	keystroke_o	o	n/a
427.13	0.105	854260	keystroke_n	n	n/a
427.25	0.09	854500	keystroke_d	d	n/a
427.445	0.12	854890	keystroke_e	e	n/a
427.52	0.1045	855040	keystroke_r	r	n/a
428.165	0.15	856330	keystroke_Key.space	Key.space	n/a
428.63	0.15	857260	keystroke_c	c	n/a
428.735	0.12	857470	keystroke_o	o	n/a
428.825	0.12	857650	keystroke_n	n	n/a
429.155	0.12	858310	keystroke_t	t	n/a
429.26	0.12	858520	keystroke_i	i	n/a
429.35	0.15	858700	keystroke_n	n	n/a
429.635	0.075	859270	keystroke_u	u	n/a
430.0545	0.03	860109	keystroke_t	t	n/a
430.0995	0.09	860199	keystroke_i	i	n/a
430.9395	0.06	861879	keystroke_Key.backspace	Key.backspace	n/a
431.0745	0.06	862149	keystroke_Key.backspace	Key.backspace	n/a
431.2995	0.075	862599	keystroke_i	i	n/a
431.3895	0.075	862779	keystroke_t	t	n/a
431.5545	0.075	863109	keystroke_y	y	n/a
431.7045	0.12	863409	keystroke_Key.space	Key.space	n/a
432.095	0.12	864190	keystroke_s	s	n/a
432.2	0.075	864400	keystroke_i	i	n/a
432.35	0.09	864700	keystroke_g	g	n/a
433.1	0.09	866200	keystroke_n	n	n/a
433.22	0.21	866440	keystroke_a	a	n/a
433.415	0.045	866830	keystroke_t	t	n/a
433.43	0.015	866860	keystroke_g	g	n/a
433.475	0.06	866950	keystroke_u	u	n/a
433.6695	0.12	867339	keystroke_r	r	n/a
434.2245	0.045	868449	keystroke_Key.backspace	Key.backspace	n/a
434.3595	0.06	868719	keystroke_Key.backspace	Key.backspace	n/a
434.5095	0.06	869019	keystroke_Key.backspace	Key.backspace	n/a
434.6445	0.075	869289	keystroke_Key.backspace	Key.backspace	n/a
434.8695	0.0905	869739	keystroke_g	g	n/a
436.025	0.12	872050	keystroke_Key.backspace	Key.backspace	n/a
436.235	0.12	872470	keystroke_t	t	n/a
436.505	0.045	873010	keystroke_u	u	n/a
436.595	0.1195	873190	keystroke_r	r	n/a
436.6995	0.09	873399	keystroke_e	e	n/a
436.9095	0.105	873819	keystroke_s	s	n/a
437.1345	0.075	874269	keystroke_Key.enter	Key.enter	n/a
437.219	16.178	874438	prompt	n/a	ribbon launched behavioral penguin\n
438.559	0.135	877118	keystroke_r	r	n/a
438.724	0.06	877448	keystroke_i	i	n/a
438.875	0.105	877750	keystroke_b	b	n/a
439.0845	0.105	878169	keystroke_b	b	n/a
439.5945	0.12	879189	keystroke_o	o	n/a
439.6845	0.135	879369	keystroke_n	n	n/a
439.8345	0.075	879669	keystroke_Key.space	Key.space	n/a
440.1195	0.09	880239	keystroke_l	l	n/a
440.2845	0.06	880569	keystroke_u	u	n/a
441.0645	0.045	882129	keystroke_Key.backspace	Key.backspace	n/a
441.1245	0.12	882249	keystroke_a	a	n/a
441.2745	0.12	882549	keystroke_n	n	n/a
441.7695	0.1205	883539	keystroke_c	c	n/a
441.9045	0.06	883809	keystroke_h	h	n/a
442.0395	0.075	884079	keystroke_e	e	n/a
442.2495	0.06	884499	keystroke_d	d	n/a
442.3395	0.15	884679	keystroke_Key.space	Key.space	n/a
442.6095	0.09	885219	keystroke_b	b	n/a
442.7295	0.15	885459	keystroke_e	e	n/a
443.8245	0.06	887649	keystroke_Key.backspace	Key.backspace	n/a
443.9895	0.045	887979	keystroke_Key.backspace	Key.backspace	n/a
444.1095	0.075	888219	keystroke_Key.backspace	Key.backspace	n/a
444.2895	0.06	888579	keystroke_Key.backspace	Key.backspace	n/a
444.4545	0.045	888909	keystroke_Key.backspace	Key.backspace	n/a
444.6045	0.045	889209	keystroke_Key.backspace	Key.backspace	n/a
444.7395	0.06	889479	keystroke_Key.backspace	Key.backspace	n/a
445.2495	0.045	890499	keystroke_Key.backspace	Key.backspace	n/a
445.5645	0.075	891129	keystroke_u	u	n/a
445.7745	0.09	891549	keystroke_n	n	n/a
445.9245	0.135	891849	keystroke_c	c	n/a
446.0745	0.045	892149	keystroke_h	h	n/a
446.5695	0.105	893139	keystroke_e	e	n/a
446.7945	0.105	893589	keystroke_d	d	n/a
446.9445	0.105	893889	keystroke_Key.space	Key.space	n/a
447.4095	0.075	894819	keystroke_b	b	n/a
447.5145	0.1205	895029	keystroke_e	e	n/a
448.3395	0.09	896679	keystroke_h	h	n/a
448.4745	0.09	896949	keystroke_a	a	n/a
448.5045	0.18	897009	keystroke_v	v	n/a
449.8095	0.135	899619	keystroke_i	i	n/a
450.1845	0.09	900369	keystroke_o	o	n/a
450.4245	0.135	900849	keystroke_r	r	n/a
450.6195	0.12	901239	keystroke_a	a	n/a
450.7245	0.105	901449	keystroke_l	l	n/a
450.8595	0.105	901719	keystroke_Key.space	Key.space	n/a
451.1595	0.105	902319	keystroke_g	g	n/a
451.6995	0.075	903399	keystroke_Key.backspace	Key.backspace	n/a
451.9395	0.12	903879	keystroke_p	p	n/a
452.1345	0.09	904269	keystroke_e	e	n/a
452.2695	0.105	904539	keystroke_n	n	n/a
452.5245	0.1055	905049	keystroke_g	g	n/a
452.7645	0.105	905529	keystroke_u	u	n/a
452.8245	0.3	905649	keystroke_i	i	n/a
453.0795	0.12	906159	keystroke_n	n	n/a
453.335	0.0595	906670	keystroke_Key.enter	Key.enter	n/a
453.4025	10.4785	906805	prompt	n/a	reaction dramatic translate symbols\n
454.1605	0.149	908321	keystroke_r	r	n/a
454.3245	0.165	908649	keystroke_e	e	n/a
454.8345	0.12	909669	keystroke_a	a	n/a
455.0895	0.165	910179	keystroke_c	c	n/a
455.4195	0.105	910839	keystroke_t	t	n/a
455.5095	0.285	911019	keystroke_i	i	n/a
456.23	0.09	912460	keystroke_o	o	n/a
456.38	0.135	912760	keystroke_n	n	n/a
456.53	0.1045	913060	keystroke_Key.space	Key.space	n/a
457.2795	0.15	914559	keystroke_d	d	n/a
457.4895	0.15	914979	keystroke_r	r	n/a
457.6095	0.12	915219	keystroke_a	a	n/a
457.7745	0.15	915549	keystroke_m	m	n/a
457.9395	0.105	915879	keystroke_a	a	n/a
458.1645	0.105	916329	keystroke_t	t	n/a
458.1795	0.015	916359	keystroke_Key.ctrl_l	Key.ctrl_l	n/a
458.3445	0.075	916689	keystroke_i	i	n/a
458.4645	0.135	916929	keystroke_c	c	n/a
458.6145	0.09	917229	keystroke_Key.space	Key.space	n/a
458.9745	0.105	917949	keystroke_t	t	n/a
459.1695	0.21	918339	keystroke_r	r	n/a
459.3495	0.12	918699	keystroke_a	a	n/a
459.4845	0.09	918969	keystroke_n	n	n/a
459.8745	0.075	919749	keystroke_s	s	n/a
460.0245	0.075	920049	keystroke_l	l	n/a
460.1445	0.15	920289	keystroke_a	a	n/a
460.2795	0.15	920559	keystroke_t	t	n/a
460.4145	0.105	920829	keystroke_e	e	n/a
460.6695	0.105	921339	keystroke_d	d	n/a
461.2245	0.075	922449	keystroke_Key.backspace	Key.backspace	n/a
461.4045	0.09	922809	keystroke_Key.space	Key.space	n/a
461.6145	0.105	923229	keystroke_s	s	n/a
461.9295	0.015	923859	keystroke_y	y	n/a
462.1395	0.195	924279	keystroke_m	m	n/a
463.1	0.12	926200	keystroke_b	b	n/a
463.205	0.09	926410	keystroke_o	o	n/a
463.4	0.075	926800	keystroke_l	l	n/a
463.625	0.105	927250	keystroke_s	s	n/a
463.805	0.075	927610	keystroke_Key.enter	Key.enter	n/a
463.8865	9.31	927773	prompt	n/a	assistance banana width device\n
464.6	0.075	929200	keystroke_a	a	n/a
464.825	0.06	929650	keystroke_s	s	n/a
465.035	0.105	930070	keystroke_s	s	n/a
465.44	0.075	930880	keystroke_i	i	n/a
465.56	0.135	931120	keystroke_s	s	n/a
465.8	0.09	931600	keystroke_t	t	n/a
466.01	0.105	932020	keystroke_a	a	n/a
466.13	0.075	932260	keystroke_n	n	n/a
467.119	0.106	934238	keystroke_c	c	n/a
467.315	0.075	934630	keystroke_e	e	n/a
467.435	0.119	934870	keystroke_Key.space	Key.space	n/a
467.63	0.135	935260	keystroke_b	b	n/a
467.75	0.09	935500	keystroke_a	a	n/a
467.945	0.074	935890	keystroke_n	n	n/a
468.08	0.059	936160	keystroke_n	n	n/a
468.199	0.12	936398	keystroke_a	a	n/a
469.069	0.0455	938138	keystroke_Key.backspace	Key.backspace	n/a
469.204	0.075	938408	keystroke_Key.backspace	Key.backspace	n/a
469.31	0.104	938620	keystroke_a	a	n/a
469.564	0.045	939128	keystroke_n	n	n/a
469.669	0.091	939338	keystroke_a	a	n/a
469.819	0.105	939638	keystroke_Key.space	Key.space	n/a
470.36	0.12	940720	keystroke_w	w	n/a
470.464	0.09	940928	keystroke_i	i	n/a
470.899	0.105	941798	keystroke_d	d	n/a
471.2295	0.12	942459	keystroke_t	t	n/a
471.3645	0.075	942729	keystroke_h	h	n/a
471.5295	0.105	943059	keystroke_Key.space	Key.space	n/a
471.7995	0.091	943599	keystroke_d	d	n/a
471.9945	0.06	943989	keystroke_e	e	n/a
472.1745	0.105	944349	keystroke_v	v	n/a
472.3545	0.075	944709	keystroke_i	i	n/a
472.4595	0.12	944919	keystroke_c	c	n/a
472.8495	0.105	945699	keystroke_e	e	n/a
473.1195	0.075	946239	keystroke_Key.enter	Key.enter	n/a
473.202	8.9045	946404	prompt	n/a	connecting church contact hire\n
473.9295	0.135	947859	keystroke_c	c	n/a
474.0795	0.045	948159	keystroke_o	o	n/a
474.2455	0.074	948491	keystroke_n	n	n/a
474.3945	0.075	948789	keystroke_n	n	n/a
474.5295	0.105	949059	keystroke_e	e	n/a
474.7545	0.135	949509	keystroke_c	c	n/a
474.9795	0.075	949959	keystroke_t	t	n/a
475.0245	0.2855	950049	keystroke_i	i	n/a
475.1445	0.105	950289	keystroke_o	o	n/a
475.2795	0.0905	950559	keystroke_n	n	n/a
475.7	0.06	951400	keystroke_Key.backspace	Key.backspace	n/a
475.85	0.06	951700	keystroke_Key.backspace	Key.backspace	n/a
476.315	0.06	952630	keystroke_n	n	n/a
476.435	0.075	952870	keystroke_g	g	n/a
476.51	0.089	953020	keystroke_Key.space	Key.space	n/a
476.8095	0.165	953619	keystroke_c	c	n/a
477.4245	0.06	954849	keystroke_h	h	n/a
477.5895	0.06	955179	keystroke_u	u	n/a
477.7395	0.09	955479	keystroke_r	r	n/a
477.9795	0.15	955959	keystroke_c	c	n/a
478.1145	0.09	956229	keystroke_h	h	n/a
478.2495	0.12	956499	keystroke_Key.space	Key.space	n/a
478.5795	0.075	957159	keystroke_a	a	n/a
479.015	0.074	958030	keystroke_Key.backspace	Key.backspace	n/a
479.105	0.149	958210	keystroke_c	c	n/a
479.269	0.1205	958538	keystroke_o	o	n/a
479.359	0.1055	958718	keystroke_n	n	n/a
479.5845	0.135	959169	keystroke_t	t	n/a
480.1245	0.105	960249	keystroke_r	r	n/a
480.5595	0.075	961119	keystroke_Key.backspace	Key.backspace	n/a
480.6045	0.135	961209	keystroke_a	a	n/a
480.8	0.15	961600	keystroke_c	c	n/a
481.01	0.105	962020	keystroke_t	t	n/a
481.145	0.09	962290	keystroke_Key.space	Key.space	n/a
481.535	0.1345	963070	keystroke_h	h	n/a
481.6245	0.12	963249	keystroke_i	i	n/a
481.7595	0.135	963519	keystroke_r	r	n/a
481.8495	0.1205	963699	keystroke_e	e	n/a
482.015	0.09	964030	keystroke_Key.enter	Key.enter	n/a
482.111	11.9355	964222	prompt	n/a	terrain teddy haven everyday\n
482.885	0.12	965770	keystroke_t	t	n/a
483.065	0.15	966130	keystroke_e	e	n/a
483.335	0.075	966670	keystroke_r	r	n/a
483.5	0.09	967000	keystroke_r	r	n/a
483.74	0.075	967480	keystroke_i	i	n/a
483.875	0.1195	967750	keystroke_a	a	n/a
484.0545	0.12	968109	keystroke_n	n	n/a
484.1895	0.09	968379	keystroke_Key.space	Key.space	n/a
486.9815	0.001	973963	keystroke_Key.backspace	Key.backspace	n/a
487.0695	0.075	974139	keystroke_Key.backspace	Key.backspace	n/a
487.2345	0.06	974469	keystroke_Key.backspace	Key.backspace	n/a
487.3695	0.075	974739	keystroke_Key.backspace	Key.backspace	n/a
487.6395	0.105	975279	keystroke_a	a	n/a
487.7595	0.105	975519	keystroke_i	i	n/a
487.9095	0.135	975819	keystroke_n	n	n/a
488.0745	0.09	976149	keystroke_Key.space	Key.space	n/a
488.4345	0.09	976869	keystroke_t	t	n/a
488.6595	0.105	977319	keystroke_e	e	n/a
488.974	0.06	977948	keystroke_d	d	n/a
489.139	0.0905	978278	keystroke_d	d	n/a
489.3195	0.075	978639	keystroke_y	y	n/a
489.4245	0.135	978849	keystroke_Key.space	Key.space	n/a
489.7095	0.09	979419	keystroke_h	h	n/a
489.8145	0.105	979629	keystroke_a	a	n/a
489.9345	0.165	979869	keystroke_v	v	n/a
490.0695	0.105	980139	keystroke_e	e	n/a
490.2195	0.12	980439	keystroke_n	n	n/a
490.3545	0.105	980709	keystroke_Key.space	Key.space	n/a
490.82	0.075	981640	keystroke_e	e	n/a
491.51	0.135	983020	keystroke_v	v	n/a
491.675	0.18	983350	keystroke_e	e	n/a
491.84	0.075	983680	keystroke_r	r	n/a
492.47	0.075	984940	keystroke_y	y	n/a
492.74	0.135	985480	keystroke_d	d	n/a
492.845	0.075	985690	keystroke_o	o	n/a
493.025	0.105	986050	keystroke_a	a	n/a
493.37	0.06	986740	keystroke_Key.backspace	Key.backspace	n/a
493.489	0.075	986978	keystroke_Key.backspace	Key.backspace	n/a
493.58	0.12	987160	keystroke_a	a	n/a
493.775	0.06	987550	keystroke_y	y	n/a
493.954	0.09	987908	keystroke_Key.enter	Key.enter	n/a
494.052	8.485	988104	prompt	n/a	dealing playback rather creativity\n
494.765	0.089	989530	keystroke_d	d	n/a
494.945	0.134	989890	keystroke_e	e	n/a
495.034	0.135	990068	keystroke_a	a	n/a
495.124	0.12	990248	keystroke_l	l	n/a
495.289	0.135	990578	keystroke_i	i	n/a
495.409	0.135	990818	keystroke_n	n	n/a
495.514	0.091	991028	keystroke_g	g	n/a
495.574	0.09	991148	keystroke_Key.space	Key.space	n/a
495.695	0.015	991390	keystroke_k	k	n/a
495.845	0.044	991690	keystroke_p	p	n/a
495.935	0.134	991870	keystroke_l	l	n/a
496.024	0.12	992048	keystroke_a	a	n/a
496.16	0.074	992320	keystroke_y	y	n/a
496.534	0.06	993068	keystroke_Key.backspace	Key.backspace	n/a
496.669	0.06	993338	keystroke_Key.backspace	Key.backspace	n/a
496.819	0.045	993638	keystroke_Key.backspace	Key.backspace	n/a
496.969	0.045	993938	keystroke_Key.backspace	Key.backspace	n/a
497.074	0.0905	994148	keystroke_Key.backspace	Key.backspace	n/a
497.4645	0.075	994929	keystroke_p	p	n/a
497.6145	0.15	995229	keystroke_l	l	n/a
497.765	0.119	995530	keystroke_a	a	n/a
497.9295	0.06	995859	keystroke_y	y	n/a
498.2	0.119	996400	keystroke_b	b	n/a
498.304	0.121	996608	keystroke_a	a	n/a
498.469	0.151	996938	keystroke_c	c	n/a
498.604	0.105	997208	keystroke_k	k	n/a
498.724	0.105	997448	keystroke_Key.space	Key.space	n/a
498.964	0.165	997928	keystroke_r	r	n/a
499.429	0.2255	998858	keystroke_a	a	n/a
499.6245	0.12	999249	keystroke_t	t	n/a
499.7595	0.075	999519	keystroke_h	h	n/a
499.8495	0.12	999699	keystroke_e	e	n/a
499.9395	0.105	999879	keystroke_r	r	n/a
500.0145	0.12	1000029	keystroke_Key.space	Key.space	n/a
500.5245	0.135	1001049	keystroke_r	r	n/a
500.6295	0.195	1001259	keystroke_e	e	n/a
500.7645	0.12	1001529	keystroke_a	a	n/a
501.0495	0.105	1002099	keystroke_t	t	n/a
501.6045	0.075	1003209	keystroke_i	i	n/a
501.7395	0.135	1003479	keystroke_v	v	n/a
501.8745	0.09	1003749	keystroke_i	i	n/a
502.0095	0.09	1004019	keystroke_t	t	n/a
502.1745	0.075	1004349	keystroke_y	y	n/a
502.4445	0.09	1004889	keystroke_Key.enter	Key.enter	n/a
502.542	5.814	1005084	prompt	n/a	roads particular pink hart\n
503.3895	0.105	1006779	keystroke_r	r	n/a
503.6145	0.06	1007229	keystroke_o	o	n/a
503.7645	0.135	1007529	keystroke_a	a	n/a
503.9445	0.105	1007889	keystroke_d	d	n/a
504.3495	0.09	1008699	keystroke_s	s	n/a
504.4845	0.12	1008969	keystroke_Key.space	Key.space	n/a
504.9045	0.075	1009809	keystroke_p	p	n/a
505.0095	0.135	1010019	keystroke_a	a	n/a
505.1145	0.105	1010229	keystroke_r	r	n/a
505.325	0.075	1010650	keystroke_t	t	n/a
505.43	0.075	1010860	keystroke_i	i	n/a
505.58	0.135	1011160	keystroke_c	c	n/a
505.895	0.075	1011790	keystroke_u	u	n/a
506.06	0.105	1012120	keystroke_l	l	n/a
506.21	0.15	1012420	keystroke_a	a	n/a
506.39	0.105	1012780	keystroke_r	r	n/a
506.555	0.075	1013110	keystroke_Key.space	Key.space	n/a
507.05	0.09	1014100	keystroke_p	p	n/a
507.17	0.135	1014340	keystroke_i	i	n/a
507.29	0.195	1014580	keystroke_n	n	n/a
507.44	0.12	1014880	keystroke_k	k	n/a
507.53	0.119	1015060	keystroke_Key.space	Key.space	n/a
507.725	0.06	1015450	keystroke_h	h	n/a
507.8	0.1195	1015600	keystroke_a	a	n/a
507.9345	0.12	1015869	keystroke_r	r	n/a
508.1145	0.12	1016229	keystroke_t	t	n/a
508.2645	0.09	1016529	keystroke_Key.enter	Key.enter	n/a
508.361	9.7755	1016722	prompt	n/a	renew borders competent pencil\n
509.2545	0.12	1018509	keystroke_r	r	n/a
509.3295	0.12	1018659	keystroke_e	e	n/a
509.4945	0.09	1018989	keystroke_n	n	n/a
509.5995	0.135	1019199	keystroke_e	e	n/a
509.6895	0.135	1019379	keystroke_w	w	n/a
510.3495	0.09	1020699	keystroke_Key.space	Key.space	n/a
510.7995	0.075	1021599	keystroke_b	b	n/a
510.9495	0.075	1021899	keystroke_o	o	n/a
511.4895	0.06	1022979	keystroke_r	r	n/a
511.6545	0.09	1023309	keystroke_d	d	n/a
511.8195	0.12	1023639	keystroke_e	e	n/a
511.9095	0.105	1023819	keystroke_r	r	n/a
512.1045	0.09	1024209	keystroke_s	s	n/a
512.2095	0.105	1024419	keystroke_Key.space	Key.space	n/a
512.5095	0.15	1025019	keystroke_c	c	n/a
512.6145	0.1805	1025229	keystroke_o	o	n/a
512.7645	0.18	1025529	keystroke_m	m	n/a
512.9145	0.1055	1025829	keystroke_p	p	n/a
514.01	0.105	1028020	keystroke_e	e	n/a
514.22	0.089	1028440	keystroke_t	t	n/a
514.534	0.12	1029068	keystroke_e	e	n/a
514.7	0.09	1029400	keystroke_n	n	n/a
514.819	0.061	1029638	keystroke_t	t	n/a
515.84	0.119	1031680	keystroke_Key.space	Key.space	n/a
516.47	0.014	1032940	keystroke_p	p	n/a
516.53	0.21	1033060	keystroke_e	e	n/a
517.129	0.105	1034258	keystroke_n	n	n/a
517.355	0.135	1034710	keystroke_c	c	n/a
517.52	0.09	1035040	keystroke_i	i	n/a
517.76	0.089	1035520	keystroke_l	l	n/a
518.0595	0.075	1036119	keystroke_Key.enter	Key.enter	n/a
518.1415	8.7845	1036283	prompt	n/a	broker josh convergence discuss\n
518.975	0.12	1037950	keystroke_b	b	n/a
519.3495	0.06	1038699	keystroke_o	o	n/a
519.7395	0.045	1039479	keystroke_Key.backspace	Key.backspace	n/a
519.8145	0.1195	1039629	keystroke_r	r	n/a
519.965	0.12	1039930	keystroke_o	o	n/a
520.159	0.091	1040318	keystroke_k	k	n/a
520.25	0.1345	1040500	keystroke_e	e	n/a
520.3395	0.12	1040679	keystroke_r	r	n/a
520.5045	0.105	1041009	keystroke_Key.space	Key.space	n/a
521.1645	0.135	1042329	keystroke_j	j	n/a
521.2845	0.06	1042569	keystroke_o	o	n/a
521.36	0.1345	1042720	keystroke_s	s	n/a
521.7045	0.09	1043409	keystroke_h	h	n/a
521.8695	0.09	1043739	keystroke_Key.space	Key.space	n/a
522.5895	0.135	1045179	keystroke_c	c	n/a
522.7095	0.105	1045419	keystroke_o	o	n/a
523.0845	0.09	1046169	keystroke_n	n	n/a
523.4	0.135	1046800	keystroke_v	v	n/a
523.58	0.1495	1047160	keystroke_e	e	n/a
523.6995	0.105	1047399	keystroke_r	r	n/a
523.9695	0.09	1047939	keystroke_g	g	n/a
524.1045	0.105	1048209	keystroke_e	e	n/a
524.2695	0.06	1048539	keystroke_n	n	n/a
524.5245	0.105	1049049	keystroke_c	c	n/a
525.1545	0.15	1050309	keystroke_e	e	n/a
525.4095	0.105	1050819	keystroke_Key.space	Key.space	n/a
525.6495	0.12	1051299	keystroke_d	d	n/a
525.7845	0.075	1051569	keystroke_i	i	n/a
525.8895	0.09	1051779	keystroke_s	s	n/a
526.1445	0.135	1052289	keystroke_c	c	n/a
526.3095	0.075	1052619	keystroke_u	u	n/a
526.4595	0.075	1052919	keystroke_s	s	n/a
526.6245	0.09	1053249	keystroke_s	s	n/a
526.8645	0.06	1053729	keystroke_Key.enter	Key.enter	n/a
526.932	8.23	1053864	prompt	n/a	alot joined educational jacksonville\n
527.6295	0.09	1055259	keystroke_a	a	n/a
527.7345	0.09	1055469	keystroke_l	l	n/a
527.8995	0.06	1055799	keystroke_o	o	n/a
528.0195	0.075	1056039	keystroke_t	t	n/a
528.1245	0.225	1056249	keystroke_Key.space	Key.space	n/a
528.845	0.165	1057690	keystroke_j	j	n/a
528.98	0.09	1057960	keystroke_o	o	n/a
529.04	0.164	1058080	keystroke_i	i	n/a
529.16	0.1195	1058320	keystroke_n	n	n/a
529.324	0.09	1058648	keystroke_e	e	n/a
529.534	0.106	1059068	keystroke_d	d	n/a
529.654	0.09	1059308	keystroke_Key.space	Key.space	n/a
530.21	0.09	1060420	keystroke_e	e	n/a
530.42	0.12	1060840	keystroke_d	d	n/a
530.63	0.09	1061260	keystroke_u	u	n/a
530.72	0.15	1061440	keystroke_c	c	n/a
530.855	0.119	1061710	keystroke_a	a	n/a
530.99	0.075	1061980	keystroke_t	t	n/a
531.035	0.21	1062070	keystroke_i	i	n/a
531.14	0.089	1062280	keystroke_o	o	n/a
531.215	0.12	1062430	keystroke_n	n	n/a
531.364	0.106	1062728	keystroke_a	a	n/a
531.484	0.106	1062968	keystroke_l	l	n/a
531.604	0.105	1063208	keystroke_Key.space	Key.space	n/a
531.9045	0.1045	1063809	keystroke_j	j	n/a
531.994	0.1205	1063988	keystroke_a	a	n/a
532.2345	0.1205	1064469	keystroke_c	c	n/a
532.355	0.0895	1064710	keystroke_k	k	n/a
532.5195	0.135	1065039	keystroke_s	s	n/a
532.6695	0.075	1065339	keystroke_o	o	n/a
533.2995	0.09	1066599	keystroke_n	n	n/a
533.6595	0.135	1067319	keystroke_v	v	n/a
533.8395	0.0905	1067679	keystroke_i	i	n/a
534.08	0.075	1068160	keystroke_l	l	n/a
534.215	0.075	1068430	keystroke_l	l	n/a
534.395	0.09	1068790	keystroke_e	e	n/a
535.085	0.075	1070170	keystroke_Key.enter	Key.enter	n/a
535.171	7.145	1070342	prompt	n/a	slip accessories parcel avenue\n
536.045	0.12	1072090	keystroke_s	s	n/a
536.18	0.195	1072360	keystroke_l	l	n/a
536.33	0.15	1072660	keystroke_i	i	n/a
536.465	0.09	1072930	keystroke_p	p	n/a
536.57	0.12	1073140	keystroke_Key.space	Key.space	n/a
536.765	0.12	1073530	keystroke_a	a	n/a
537.05	0.06	1074100	keystroke_c	c	n/a
537.215	0.09	1074430	keystroke_c	c	n/a
537.455	0.075	1074910	keystroke_e	e	n/a
537.665	0.06	1075330	keystroke_s	s	n/a
537.83	0.0745	1075660	keystroke_s	s	n/a
537.9945	0.075	1075989	keystroke_o	o	n/a
538.1745	0.09	1076349	keystroke_r	r	n/a
538.7145	0.075	1077429	keystroke_i	i	n/a
538.8045	0.075	1077609	keystroke_e	e	n/a
538.9995	0.075	1077999	keystroke_s	s	n/a
539.1045	0.105	1078209	keystroke_Key.space	Key.space	n/a
539.5095	0.06	1079019	keystroke_p	p	n/a
539.6295	0.12	1079259	keystroke_a	a	n/a
539.7945	0.09	1079589	keystroke_r	r	n/a
540.0495	0.105	1080099	keystroke_c	c	n/a
540.2745	0.075	1080549	keystroke_e	e	n/a
540.3645	0.105	1080729	keystroke_l	l	n/a
540.4845	0.09	1080969	keystroke_Key.space	Key.space	n/a
540.7245	0.135	1081449	keystroke_a	a	n/a
541.2195	0.1045	1082439	keystroke_v	v	n/a
541.399	0.105	1082798	keystroke_e	e	n/a
541.55	0.119	1083100	keystroke_n	n	n/a
541.805	0.059	1083610	keystroke_u	u	n/a
541.9545	0.09	1083909	keystroke_e	e	n/a
542.2395	0.075	1084479	keystroke_Key.enter	Key.enter	n/a
542.3205	11.471	1084641	prompt	n/a	complex indirect sports posters\n
543.0495	0.15	1086099	keystroke_c	c	n/a
543.1545	0.165	1086309	keystroke_o	o	n/a
543.2445	0.27	1086489	keystroke_m	m	n/a
543.4995	0.12	1086999	keystroke_l	l	n/a
543.6045	0.18	1087209	keystroke_e	e	n/a
544.3395	0.0905	1088679	keystroke_Key.backspace	Key.backspace	n/a
544.61	0.105	1089220	keystroke_p	p	n/a
545.0595	0.06	1090119	keystroke_Key.backspace	Key.backspace	n/a
545.1795	0.075	1090359	keystroke_Key.backspace	Key.backspace	n/a
545.4495	0.09	1090899	keystroke_p	p	n/a
545.5995	0.12	1091199	keystroke_l	l	n/a
545.7495	0.12	1091499	keystroke_e	e	n/a
546.0045	0.135	1092009	keystroke_x	x	n/a
546.1695	0.075	1092339	keystroke_Key.space	Key.space	n/a
546.7395	0.045	1093479	keystroke_i	i	n/a
546.8295	0.105	1093659	keystroke_n	n	n/a
546.9195	0.165	1093839	keystroke_d	d	n/a
547.2045	0.135	1094409	keystroke_r	r	n/a
547.3095	0.09	1094619	keystroke_e	e	n/a
547.9545	0.15	1095909	keystroke_c	c	n/a
548.5245	0.075	1097049	keystroke_Key.backspace	Key.backspace	n/a
548.6895	0.09	1097379	keystroke_Key.backspace	Key.backspace	n/a
548.8245	0.09	1097649	keystroke_Key.backspace	Key.backspace	n/a
549.5445	0.06	1099089	keystroke_i	i	n/a
549.9045	0.12	1099809	keystroke_r	r	n/a
550.0095	0.105	1100019	keystroke_e	e	n/a
550.2345	0.165	1100469	keystroke_c	c	n/a
550.4445	0.09	1100889	keystroke_t	t	n/a
550.6395	0.075	1101279	keystroke_Key.space	Key.space	n/a
551.4795	0.135	1102959	keystroke_s	s	n/a
551.6295	0.105	1103259	keystroke_p	p	n/a
551.7495	0.09	1103499	keystroke_o	o	n/a
551.8695	0.12	1103739	keystroke_r	r	n/a
552.0495	0.09	1104099	keystroke_t	t	n/a
552.1695	0.12	1104339	keystroke_Key.space	Key.space	n/a
552.5745	0.09	1105149	keystroke_p	p	n/a
552.7245	0.075	1105449	keystroke_o	o	n/a
552.9045	0.21	1105809	keystroke_s	s	n/a
553.0995	0.12	1106199	keystroke_t	t	n/a
553.2645	0.135	1106529	keystroke_e	e	n/a
553.3695	0.12	1106739	keystroke_r	r	n/a
553.5645	0.1045	1107129	keystroke_s	s	n/a
553.729	0.06	1107458	keystroke_Key.enter	Key.enter	n/a
553.7965	9.3695	1107593	prompt	n/a	adware opposite bleeding radio\n
554.5245	0.105	1109049	keystroke_a	a	n/a
554.6745	0.195	1109349	keystroke_d	d	n/a
554.884	0.1655	1109768	keystroke_w	w	n/a
555.0345	0.151	1110069	keystroke_a	a	n/a
555.1855	0.12	1110371	keystroke_r	r	n/a
555.2595	0.105	1110519	keystroke_e	e	n/a
555.3945	0.12	1110789	keystroke_Key.space	Key.space	n/a
555.6645	0.105	1111329	keystroke_o	o	n/a
555.8745	0.075	1111749	keystroke_p	p	n/a
556.0245	0.075	1112049	keystroke_s	s	n/a
556.1895	0.09	1112379	keystroke_s	s	n/a
556.3695	0.1055	1112739	keystroke_o	o	n/a
557.194	0.075	1114388	keystroke_Key.backspace	Key.backspace	n/a
557.344	0.09	1114688	keystroke_Key.backspace	Key.backspace	n/a
557.704	0.105	1115408	keystroke_Key.backspace	Key.backspace	n/a
558.0955	0.089	1116191	keystroke_p	p	n/a
558.3645	0.075	1116729	keystroke_o	o	n/a
558.635	0.105	1117270	keystroke_s	s	n/a
558.935	0.09	1117870	keystroke_i	i	n/a
559.235	0.135	1118470	keystroke_t	t	n/a
559.43	0.15	1118860	keystroke_e	e	n/a
559.955	0.135	1119910	keystroke_Key.space	Key.space	n/a
560.165	0.09	1120330	keystroke_b	b	n/a
560.465	0.075	1120930	keystroke_l	l	n/a
560.57	0.075	1121140	keystroke_e	e	n/a
560.72	0.105	1121440	keystroke_e	e	n/a
560.93	0.135	1121860	keystroke_d	d	n/a
561.005	0.12	1122010	keystroke_i	i	n/a
561.11	0.12	1122220	keystroke_n	n	n/a
561.245	0.09	1122490	keystroke_g	g	n/a
561.305	0.12	1122610	keystroke_Key.space	Key.space	n/a
561.59	0.1345	1123180	keystroke_r	r	n/a
561.7095	0.15	1123419	keystroke_a	a	n/a
562.5055	0.134	1125011	keystroke_d	d	n/a
562.6545	0.195	1125309	keystroke_i	i	n/a
562.7895	0.15	1125579	keystroke_o	o	n/a
563.0895	0.075	1126179	keystroke_Key.enter	Key.enter	n/a
563.1705	12.7155	1126341	prompt	n/a	anyone districts propose halloween\n
563.885	0.0895	1127770	keystroke_a	a	n/a
563.9895	0.105	1127979	keystroke_n	n	n/a
564.2145	0.105	1128429	keystroke_y	y	n/a
564.3945	0.09	1128789	keystroke_o	o	n/a
564.5745	0.06	1129149	keystroke_e	e	n/a
565.1745	0.075	1130349	keystroke_Key.backspace	Key.backspace	n/a
565.3995	0.09	1130799	keystroke_n	n	n/a
565.5045	0.06	1131009	keystroke_e	e	n/a
565.5195	0.105	1131039	keystroke_Key.space	Key.space	n/a
565.7595	0.105	1131519	keystroke_d	d	n/a
565.8345	0.06	1131669	keystroke_i	i	n/a
565.9995	0.135	1131999	keystroke_s	s	n/a
566.1795	0.045	1132359	keystroke_s	s	n/a
566.2095	0.12	1132419	keystroke_t	t	n/a
566.4345	0.105	1132869	keystroke_r	r	n/a
566.675	0.075	1133350	keystroke_i	i	n/a
566.795	0.075	1133590	keystroke_c	c	n/a
567.08	0.06	1134160	keystroke_Key.backspace	Key.backspace	n/a
567.245	0.045	1134490	keystroke_Key.backspace	Key.backspace	n/a
567.38	0.045	1134760	keystroke_Key.backspace	Key.backspace	n/a
567.5	0.075	1135000	keystroke_Key.backspace	Key.backspace	n/a
568.7145	0.045	1137429	keystroke_Key.backspace	Key.backspace	n/a
569.1495	0.105	1138299	keystroke_t	t	n/a
569.3445	0.105	1138689	keystroke_r	r	n/a
569.4645	0.075	1138929	keystroke_i	i	n/a
569.6595	0.105	1139319	keystroke_c	c	n/a
570.319	0.091	1140638	keystroke_t	t	n/a
570.529	0.09	1141058	keystroke_s	s	n/a
570.649	0.135	1141298	keystroke_Key.space	Key.space	n/a
571.009	0.09	1142018	keystroke_p	p	n/a
571.16	0.119	1142320	keystroke_r	r	n/a
571.264	0.135	1142528	keystroke_o	o	n/a
571.369	0.18	1142738	keystroke_p	p	n/a
572.1345	0.075	1144269	keystroke_o	o	n/a
572.2695	0.165	1144539	keystroke_s	s	n/a
572.4045	0.105	1144809	keystroke_e	e	n/a
572.5395	0.1355	1145079	keystroke_Key.space	Key.space	n/a
572.8995	0.09	1145799	keystroke_b	b	n/a
573.3495	0.075	1146699	keystroke_Key.backspace	Key.backspace	n/a
573.59	0.075	1147180	keystroke_h	h	n/a
573.68	0.12	1147360	keystroke_a	a	n/a
573.935	0.06	1147870	keystroke_l	l	n/a
574.07	0.09	1148140	keystroke_l	l	n/a
574.265	0.06	1148530	keystroke_o	o	n/a
574.985	0.105	1149970	keystroke_w	w	n/a
575.24	0.075	1150480	keystroke_e	e	n/a
575.39	0.12	1150780	keystroke_e	e	n/a
575.585	0.105	1151170	keystroke_n	n	n/a
575.795	0.09	1151590	keystroke_Key.enter	Key.enter	n/a
575.892	8.1845	1151784	prompt	n/a	thursday live graduates excel\n
576.7245	0.105	1153449	keystroke_t	t	n/a
576.8445	0.075	1153689	keystroke_h	h	n/a
577.0245	0.06	1154049	keystroke_u	u	n/a
577.1145	0.105	1154229	keystroke_r	r	n/a
577.4595	0.1055	1154919	keystroke_s	s	n/a
577.64	0.195	1155280	keystroke_d	d	n/a
577.775	0.12	1155550	keystroke_a	a	n/a
577.91	0.09	1155820	keystroke_y	y	n/a
578.03	0.135	1156060	keystroke_Key.space	Key.space	n/a
578.18	0.135	1156360	keystroke_l	l	n/a
578.3	0.075	1156600	keystroke_i	i	n/a
578.39	0.12	1156780	keystroke_v	v	n/a
578.48	0.12	1156960	keystroke_e	e	n/a
578.585	0.105	1157170	keystroke_Key.space	Key.space	n/a
580.07	0.105	1160140	keystroke_g	g	n/a
580.6395	0.15	1161279	keystroke_r	r	n/a
580.7745	0.18	1161549	keystroke_a	a	n/a
580.9395	0.12	1161879	keystroke_d	d	n/a
581.1345	0.06	1162269	keystroke_u	u	n/a
581.3895	0.195	1162779	keystroke_a	a	n/a
581.5395	0.1355	1163079	keystroke_t	t	n/a
582.2895	0.12	1164579	keystroke_e	e	n/a
582.5145	0.09	1165029	keystroke_s	s	n/a
582.6495	0.105	1165299	keystroke_Key.space	Key.space	n/a
582.9045	0.1205	1165809	keystroke_e	e	n/a
583.145	0.134	1166290	keystroke_x	x	n/a
583.325	0.135	1166650	keystroke_c	c	n/a
583.565	0.105	1167130	keystroke_e	e	n/a
583.79	0.104	1167580	keystroke_l	l	n/a
583.999	0.076	1167998	keystroke_Key.enter	Key.enter	n/a
584.087	8.765	1168174	prompt	n/a	locally chess conditional sentences\n
585.019	0.076	1170038	keystroke_l	l	n/a
585.185	0.074	1170370	keystroke_o	o	n/a
585.305	0.224	1170610	keystroke_c	c	n/a
585.485	0.12	1170970	keystroke_a	a	n/a
585.665	0.09	1171330	keystroke_l	l	n/a
586.175	0.12	1172350	keystroke_l	l	n/a
586.43	0.074	1172860	keystroke_y	y	n/a
586.564	0.136	1173128	keystroke_Key.space	Key.space	n/a
586.939	0.091	1173878	keystroke_c	c	n/a
587.03	0.075	1174060	keystroke_h	h	n/a
587.134	0.105	1174268	keystroke_e	e	n/a
587.389	0.12	1174778	keystroke_c	c	n/a
588.079	0.06	1176158	keystroke_Key.backspace	Key.backspace	n/a
588.17	0.074	1176340	keystroke_s	s	n/a
588.424	0.015	1176848	keystroke_s	s	n/a
588.499	0.12	1176998	keystroke_Key.space	Key.space	n/a
588.769	0.12	1177538	keystroke_c	c	n/a
588.875	0.074	1177750	keystroke_o	o	n/a
588.965	0.09	1177930	keystroke_n	n	n/a
589.339	0.12	1178678	keystroke_d	d	n/a
589.534	0.09	1179068	keystroke_i	i	n/a
589.804	0.09	1179608	keystroke_t	t	n/a
589.834	0.24	1179668	keystroke_i	i	n/a
589.954	0.105	1179908	keystroke_o	o	n/a
590.044	0.135	1180088	keystroke_n	n	n/a
590.194	0.09	1180388	keystroke_a	a	n/a
590.299	0.12	1180598	keystroke_l	l	n/a
590.434	0.09	1180868	keystroke_Key.space	Key.space	n/a
591.1695	0.15	1182339	keystroke_s	s	n/a
591.3045	0.135	1182609	keystroke_e	e	n/a
591.4095	0.105	1182819	keystroke_n	n	n/a
591.6045	0.135	1183209	keystroke_t	t	n/a
591.7695	0.135	1183539	keystroke_e	e	n/a
591.9345	0.105	1183869	keystroke_n	n	n/a
592.2195	0.09	1184439	keystroke_c	c	n/a
592.4145	0.09	1184829	keystroke_e	e	n/a
592.6095	0.105	1185219	keystroke_s	s	n/a
592.7595	0.0905	1185519	keystroke_Key.enter	Key.enter	n/a
592.857	8.0495	1185714	prompt	n/a	disk atlantic curious departmental\n
593.6145	0.12	1187229	keystroke_d	d	n/a
593.7495	0.075	1187499	keystroke_i	i	n/a
593.8845	0.105	1187769	keystroke_s	s	n/a
594.0345	0.105	1188069	keystroke_k	k	n/a
594.1845	0.105	1188369	keystroke_Key.space	Key.space	n/a
594.5595	0.105	1189119	keystroke_a	a	n/a
594.7845	0.105	1189569	keystroke_l	l	n/a
595.2645	0.06	1190529	keystroke_Key.backspace	Key.backspace	n/a
595.3695	0.09	1190739	keystroke_t	t	n/a
595.5045	0.105	1191009	keystroke_l	l	n/a
595.6695	0.12	1191339	keystroke_a	a	n/a
595.8195	0.075	1191639	keystroke_n	n	n/a
596.1195	0.12	1192239	keystroke_t	t	n/a
596.2245	0.09	1192449	keystroke_i	i	n/a
596.4195	0.105	1192839	keystroke_c	c	n/a
596.5395	0.1205	1193079	keystroke_Key.space	Key.space	n/a
596.825	0.135	1193650	keystroke_c	c	n/a
596.99	0.075	1193980	keystroke_u	u	n/a
597.215	0.105	1194430	keystroke_r	r	n/a
598.0395	0.165	1196079	keystroke_i	i	n/a
598.1745	0.1355	1196349	keystroke_o	o	n/a
598.2945	0.0905	1196589	keystroke_u	u	n/a
598.43	0.09	1196860	keystroke_s	s	n/a
598.55	0.105	1197100	keystroke_Key.space	Key.space	n/a
598.745	0.09	1197490	keystroke_d	d	n/a
598.94	0.075	1197880	keystroke_e	e	n/a
599.09	0.09	1198180	keystroke_p	p	n/a
599.21	0.12	1198420	keystroke_a	a	n/a
599.315	0.09	1198630	keystroke_r	r	n/a
599.495	0.105	1198990	keystroke_t	t	n/a
599.914	0.12	1199828	keystroke_m	m	n/a
600.065	0.12	1200130	keystroke_e	e	n/a
600.14	0.089	1200280	keystroke_n	n	n/a
600.304	0.105	1200608	keystroke_t	t	n/a
600.485	0.135	1200970	keystroke_a	a	n/a
600.605	0.1195	1201210	keystroke_l	l	n/a
600.8445	0.0605	1201689	keystroke_Key.enter	Key.enter	n/a
600.913	14.1385	1201826	prompt	n/a	sound exchange compliant proposal\n
601.7145	0.09	1203429	keystroke_s	s	n/a
601.8195	0.1355	1203639	keystroke_o	o	n/a
601.94	0.09	1203880	keystroke_u	u	n/a
602.15	0.105	1204300	keystroke_n	n	n/a
602.269	0.136	1204538	keystroke_Key.space	Key.space	n/a
602.48	0.105	1204960	keystroke_e	e	n/a
603.14	0.15	1206280	keystroke_x	x	n/a
603.8	0.075	1207600	keystroke_Key.backspace	Key.backspace	n/a
603.949	0.06	1207898	keystroke_Key.backspace	Key.backspace	n/a
604.115	0.029	1208230	keystroke_Key.backspace	Key.backspace	n/a
604.249	0.045	1208498	keystroke_Key.backspace	Key.backspace	n/a
604.82	0.089	1209640	keystroke_n	n	n/a
604.94	0.09	1209880	keystroke_d	d	n/a
605.014	0.105	1210028	keystroke_Key.space	Key.space	n/a
605.479	0.12	1210958	keystroke_e	e	n/a
605.719	0.15	1211438	keystroke_x	x	n/a
605.945	0.134	1211890	keystroke_c	c	n/a
606.5745	0.105	1213149	keystroke_h	h	n/a
606.6945	0.1055	1213389	keystroke_a	a	n/a
606.7395	0.0905	1213479	keystroke_n	n	n/a
606.8745	0.1355	1213749	keystroke_g	g	n/a
606.995	0.105	1213990	keystroke_e	e	n/a
607.699	0.1205	1215398	keystroke_Key.space	Key.space	n/a
608.1495	0.135	1216299	keystroke_c	c	n/a
608.2095	0.21	1216419	keystroke_o	o	n/a
608.3145	0.285	1216629	keystroke_m	m	n/a
608.5245	0.09	1217049	keystroke_p	p	n/a
608.6295	0.06	1217259	keystroke_l	l	n/a
609.454	0.09	1218908	keystroke_a	a	n/a
610.174	0.1055	1220348	keystroke_i	i	n/a
610.3245	0.12	1220649	keystroke_n	n	n/a
610.5345	0.09	1221069	keystroke_t	t	n/a
610.6395	0.105	1221279	keystroke_Key.space	Key.space	n/a
610.9995	0.09	1221999	keystroke_p	p	n/a
611.1645	0.075	1222329	keystroke_o	o	n/a
611.6595	0.09	1223319	keystroke_Key.backspace	Key.backspace	n/a
611.8245	0.12	1223649	keystroke_r	r	n/a
612.0195	0.15	1224039	keystroke_o	o	n/a
612.1545	0.135	1224309	keystroke_p	p	n/a
613.2045	0.09	1226409	keystroke_p	p	n/a
613.939	0.091	1227878	keystroke_Key.backspace	Key.backspace	n/a
614.21	0.09	1228420	keystroke_o	o	n/a
614.36	0.12	1228720	keystroke_s	s	n/a
614.57	0.105	1229140	keystroke_a	a	n/a
614.689	0.105	1229378	keystroke_l	l	n/a
614.974	0.076	1229948	keystroke_Key.enter	Key.enter	n/a
615.057	9.834	1230114	prompt	n/a	wagner click launch stuffed\n
616.0395	0.21	1232079	keystroke_w	w	n/a
616.2045	0.135	1232409	keystroke_a	a	n/a
616.6095	0.105	1233219	keystroke_g	g	n/a
617.0595	0.045	1234119	keystroke_n	n	n/a
617.1645	0.18	1234329	keystroke_e	e	n/a
617.3145	0.12	1234629	keystroke_r	r	n/a
