onset	duration	sample	value	key	prompt_text
7.7115	8.127	15423	prompt	n/a	the quick brown fox jumps over a lazy dog\n
8.7875	0.029	17575	keystroke_t	t	n/a
8.8755	0.195	17751	keystroke_h	h	n/a
9.0255	0.09	18051	keystroke_e	e	n/a
9.1455	0.135	18291	keystroke_Key.space	Key.space	n/a
9.3415	0.134	18683	keystroke_q	q	n/a
9.4455	0.166	18891	keystroke_u	u	n/a
9.5805	0.1205	19161	keystroke_i	i	n/a
9.716	0.165	19432	keystroke_c	c	n/a
9.866	0.15	19732	keystroke_k	k	n/a
10.001	0.12	20002	keystroke_Key.space	Key.space	n/a
10.106	0.135	20212	keystroke_b	b	n/a
10.226	0.1045	20452	keystroke_r	r	n/a
10.3605	0.1205	20721	keystroke_o	o	n/a
10.511	0.1355	21022	keystroke_w	w	n/a
10.616	0.1655	21232	keystroke_n	n	n/a
10.7655	0.166	21531	keystroke_Key.space	Key.space	n/a
10.8715	0.12	21743	keystroke_f	f	n/a
10.9765	0.15	21953	keystroke_o	o	n/a
11.2015	0.12	22403	keystroke_x	x	n/a
11.2765	0.12	22553	keystroke_Key.space	Key.space	n/a
11.4265	0.105	22853	keystroke_j	j	n/a
11.6065	0.1045	23213	keystroke_u	u	n/a
11.8605	0.075	23721	keystroke_m	m	n/a
12.071	0.12	24142	keystroke_p	p	n/a
12.161	0.09	24322	keystroke_s	s	n/a
12.266	0.165	24532	keystroke_Key.space	Key.space	n/a
12.416	0.18	24832	keystroke_o	o	n/a
12.491	0.105	24982	keystroke_v	v	n/a
12.7905	0.12	25581	keystroke_r	r	n/a
12.9555	0.135	25911	keystroke_Key.space	Key.space	n/a
13.421	0.06	26842	keystroke_Key.backspace	Key.backspace	n/a
13.556	0.09	27112	keystroke_Key.backspace	Key.backspace	n/a
13.676	0.15	27352	keystroke_e	e	n/a
13.751	0.135	27502	keystroke_r	r	n/a
13.871	0.12	27742	keystroke_Key.space	Key.space	n/a
14.036	0.105	28072	keystroke_a	a	n/a
14.111	0.135	28222	keystroke_Key.space	Key.space	n/a
14.261	0.18	28522	keystroke_l	l	n/a
14.396	0.06	28792	keystroke_a	a	n/a
14.651	0.09	29302	keystroke_z	z	n/a
14.906	0.09	29812	keystroke_y	y	n/a
15.041	0.1655	30082	keystroke_Key.space	Key.space	n/a
15.2365	0.104	30473	keystroke_d	d	n/a
15.3565	0.12	30713	keystroke_o	o	n/a
15.5055	0.1055	31011	keystroke_g	g	n/a
15.761	0.075	31522	keystroke_Key.enter	Key.enter	n/a
15.842	5.0505	31684	prompt	n/a	problem hosted flux gauge\n
16.526	0.12	33052	keystroke_p	p	n/a
16.676	0.105	33352	keystroke_r	r	n/a
16.706	0.12	33412	keystroke_o	o	n/a
16.976	0.105	33952	keystroke_b	b	n/a
17.186	0.105	34372	keystroke_l	l	n/a
17.306	0.12	34612	keystroke_e	e	n/a
17.396	0.1805	34792	keystroke_m	m	n/a
17.5605	0.15	35121	keystroke_Key.space	Key.space	n/a
17.756	0.135	35512	keystroke_h	h	n/a
17.936	0.12	35872	keystroke_o	o	n/a
18.086	0.03	36172	keystroke_s	s	n/a
18.2805	0.09	36561	keystroke_t	t	n/a
18.5355	0.09	37071	keystroke_e	e	n/a
18.7605	0.09	37521	keystroke_d	d	n/a
18.8655	0.105	37731	keystroke_Key.space	Key.space	n/a
18.9855	0.105	37971	keystroke_f	f	n/a
19.1055	0.105	38211	keystroke_l	l	n/a
19.3005	0.165	38601	keystroke_u	u	n/a
19.3905	0.12	38781	keystroke_x	x	n/a
19.6755	0.105	39351	keystroke_Key.space	Key.space	n/a
19.9005	0.105	39801	keystroke_g	g	n/a
20.1555	0.1205	40311	keystroke_a	a	n/a
20.261	0.12	40522	keystroke_u	u	n/a
20.396	0.12	40792	keystroke_g	g	n/a
20.606	0.12	41212	keystroke_e	e	n/a
20.831	0.06	41662	keystroke_Key.enter	Key.enter	n/a
20.896	7.7215	41792	prompt	n/a	wiki celebs desirable outreach\n
21.536	0.105	43072	keystroke_w	w	n/a
21.611	0.0895	43222	keystroke_i	i	n/a
21.836	0.0745	43672	keystroke_k	k	n/a
22.0305	0.15	44061	keystroke_i	i	n/a
22.1655	0.12	44331	keystroke_Key.space	Key.space	n/a
22.2865	0.104	44573	keystroke_c	c	n/a
22.4515	0.089	44903	keystroke_e	e	n/a
22.5555	0.075	45111	keystroke_l	l	n/a
22.8105	0.1055	45621	keystroke_l	l	n/a
23.381	0.075	46762	keystroke_Key.backspace	Key.backspace	n/a
23.681	0.06	47362	keystroke_b	b	n/a
24.071	0.075	48142	keystroke_Key.backspace	Key.backspace	n/a
24.206	0.105	48412	keystroke_e	e	n/a
24.356	0.135	48712	keystroke_b	b	n/a
24.611	0.12	49222	keystroke_s	s	n/a
24.836	0.135	49672	keystroke_Key.space	Key.space	n/a
25.346	0.075	50692	keystroke_d	d	n/a
25.541	0.09	51082	keystroke_e	e	n/a
25.721	0.1345	51442	keystroke_s	s	n/a
25.8265	0.119	51653	keystroke_i	i	n/a
25.9905	0.106	51981	keystroke_r	r	n/a
26.246	0.12	52492	keystroke_a	a	n/a
26.291	0.105	52582	keystroke_b	b	n/a
26.531	0.15	53062	keystroke_l	l	n/a
26.666	0.105	53332	keystroke_e	e	n/a
26.801	0.135	53602	keystroke_Key.space	Key.space	n/a
27.086	0.165	54172	keystroke_o	o	n/a
27.221	0.12	54442	keystroke_u	u	n/a
27.326	0.09	54652	keystroke_t	t	n/a
27.5365	0.164	55073	keystroke_r	r	n/a
27.7155	0.09	55431	keystroke_e	e	n/a
27.9115	0.104	55823	keystroke_a	a	n/a
28.151	0.12	56302	keystroke_c	c	n/a
28.241	0.105	56482	keystroke_h	h	n/a
28.526	0.09	57052	keystroke_Key.enter	Key.enter	n/a
28.6205	6.117	57241	prompt	n/a	himself outputs documentation somehow\n
29.2905	0.12	58581	keystroke_h	h	n/a
29.4405	0.075	58881	keystroke_i	i	n/a
29.681	0.0895	59362	keystroke_m	m	n/a
29.8005	0.135	59601	keystroke_s	s	n/a
29.8755	0.12	59751	keystroke_e	e	n/a
30.0105	0.1505	60021	keystroke_l	l	n/a
30.1455	0.12	60291	keystroke_f	f	n/a
30.2505	0.15	60501	keystroke_Key.space	Key.space	n/a
30.4305	0.18	60861	keystroke_o	o	n/a
30.5655	0.121	61131	keystroke_u	u	n/a
30.6715	0.12	61343	keystroke_t	t	n/a
30.8515	0.15	61703	keystroke_p	p	n/a
30.9715	0.135	61943	keystroke_u	u	n/a
31.0915	0.09	62183	keystroke_t	t	n/a
31.3465	0.12	62693	keystroke_s	s	n/a
31.4815	0.12	62963	keystroke_Key.space	Key.space	n/a
31.5865	0.135	63173	keystroke_d	d	n/a
31.7365	0.105	63473	keystroke_o	o	n/a
31.9465	0.135	63893	keystroke_c	c	n/a
32.0215	0.09	64043	keystroke_u	u	n/a
32.2765	0.105	64553	keystroke_m	m	n/a
32.3965	0.104	64793	keystroke_e	e	n/a
32.4855	0.121	64971	keystroke_n	n	n/a
32.6215	0.0895	65243	keystroke_t	t	n/a
32.786	0.195	65572	keystroke_a	a	n/a
32.921	0.105	65842	keystroke_t	t	n/a
33.071	0.12	66142	keystroke_i	i	n/a
33.176	0.18	66352	keystroke_o	o	n/a
33.266	0.195	66532	keystroke_n	n	n/a
33.431	0.165	66862	keystroke_Key.space	Key.space	n/a
33.566	0.1195	67132	keystroke_s	s	n/a
33.7765	0.059	67553	keystroke_o	o	n/a
34.0005	0.12	68001	keystroke_m	m	n/a
34.1055	0.09	68211	keystroke_e	e	n/a
34.2105	0.12	68421	keystroke_h	h	n/a
34.3455	0.12	68691	keystroke_o	o	n/a
34.4205	0.105	68841	keystroke_w	w	n/a
34.6605	0.075	69321	keystroke_Key.enter	Key.enter	n/a
34.742	5.2905	69484	prompt	n/a	instantly study armor colored\n
35.4115	0.12	70823	keystroke_i	i	n/a
35.5165	0.135	71033	keystroke_n	n	n/a
35.6665	0.135	71333	keystroke_s	s	n/a
35.7715	0.12	71543	keystroke_t	t	n/a
35.9665	0.105	71933	keystroke_a	a	n/a
36.0565	0.12	72113	keystroke_n	n	n/a
36.2065	0.105	72413	keystroke_t	t	n/a
36.3265	0.18	72653	keystroke_l	l	n/a
36.4915	0.1045	72983	keystroke_y	y	n/a
36.671	0.12	73342	keystroke_Key.space	Key.space	n/a
36.836	0.075	73672	keystroke_s	s	n/a
36.971	0.105	73942	keystroke_t	t	n/a
37.106	0.12	74212	keystroke_u	u	n/a
37.196	0.135	74392	keystroke_d	d	n/a
37.436	0.09	74872	keystroke_y	y	n/a
37.586	0.1205	75172	keystroke_Key.space	Key.space	n/a
37.7215	0.15	75443	keystroke_a	a	n/a
37.8265	0.135	75653	keystroke_r	r	n/a
38.0065	0.15	76013	keystroke_m	m	n/a
38.2165	0.135	76433	keystroke_o	o	n/a
38.3665	0.12	76733	keystroke_r	r	n/a
38.5315	0.12	77063	keystroke_Key.space	Key.space	n/a
38.771	0.135	77542	keystroke_c	c	n/a
38.861	0.0905	77722	keystroke_o	o	n/a
39.0865	0.15	78173	keystroke_l	l	n/a
39.2065	0.1795	78413	keystroke_o	o	n/a
39.311	0.105	78622	keystroke_r	r	n/a
39.536	0.06	79072	keystroke_e	e	n/a
39.731	0.12	79462	keystroke_d	d	n/a
39.926	0.105	79852	keystroke_Key.enter	Key.enter	n/a
40.036	6.5215	80072	prompt	n/a	potentially neighbors royalty coin\n
40.5865	0.1495	81173	keystroke_p	p	n/a
40.706	0.15	81412	keystroke_o	o	n/a
40.841	0.105	81682	keystroke_t	t	n/a
41.036	0.09	82072	keystroke_e	e	n/a
41.111	0.12	82222	keystroke_n	n	n/a
41.246	0.105	82492	keystroke_t	t	n/a
41.366	0.09	82732	keystroke_i	i	n/a
41.471	0.18	82942	keystroke_a	a	n/a
41.591	0.09	83182	keystroke_l	l	n/a
41.756	0.165	83512	keystroke_l	l	n/a
41.891	0.135	83782	keystroke_y	y	n/a
42.071	0.105	84142	keystroke_Key.space	Key.space	n/a
42.266	0.135	84532	keystroke_n	n	n/a
42.386	0.09	84772	keystroke_e	e	n/a
42.611	0.015	85222	keystroke_i	i	n/a
42.9265	0.12	85853	keystroke_g	g	n/a
43.1515	0.135	86303	keystroke_h	h	n/a
43.4665	0.09	86933	keystroke_b	b	n/a
43.6615	0.12	87323	keystroke_o	o	n/a
43.8415	0.09	87683	keystroke_r	r	n/a
44.0815	0.12	88163	keystroke_s	s	n/a
44.2015	0.12	88403	keystroke_Key.space	Key.space	n/a
44.3815	0.09	88763	keystroke_r	r	n/a
44.4865	0.15	88973	keystroke_o	o	n/a
44.6215	0.1045	89243	keystroke_y	y	n/a
44.966	0.12	89932	keystroke_a	a	n/a
45.1315	0.135	90263	keystroke_l	l	n/a
45.2365	0.075	90473	keystroke_t	t	n/a
45.4465	0.105	90893	keystroke_y	y	n/a
45.5665	0.15	91133	keystroke_Key.space	Key.space	n/a
45.8515	0.15	91703	keystroke_c	c	n/a
45.8965	0.15	91793	keystroke_o	o	n/a
46.0165	0.1645	92033	keystroke_i	i	n/a
46.136	0.12	92272	keystroke_n	n	n/a
46.481	0.075	92962	keystroke_Key.enter	Key.enter	n/a
46.5625	5.2755	93125	prompt	n/a	minimal religion usgs issues\n
47.291	0.135	94582	keystroke_m	m	n/a
47.4415	0.12	94883	keystroke_i	i	n/a
47.5615	0.12	95123	keystroke_n	n	n/a
47.6515	0.12	95303	keystroke_i	i	n/a
47.9365	0.135	95873	keystroke_m	m	n/a
48.0865	0.12	96173	keystroke_a	a	n/a
48.2665	0.165	96533	keystroke_l	l	n/a
48.4615	0.135	96923	keystroke_Key.space	Key.space	n/a
48.6565	0.105	97313	keystroke_r	r	n/a
48.7465	0.12	97493	keystroke_e	e	n/a
48.9715	0.165	97943	keystroke_l	l	n/a
49.1065	0.12	98213	keystroke_i	i	n/a
49.1965	0.12	98393	keystroke_g	g	n/a
49.331	0.15	98662	keystroke_i	i	n/a
49.466	0.15	98932	keystroke_o	o	n/a
49.541	0.195	99082	keystroke_n	n	n/a
49.736	0.165	99472	keystroke_Key.space	Key.space	n/a
49.871	0.165	99742	keystroke_u	u	n/a
50.021	0.105	100042	keystroke_s	s	n/a
50.2155	0.106	100431	keystroke_g	g	n/a
50.3805	0.15	100761	keystroke_s	s	n/a
50.6065	0.1345	101213	keystroke_Key.space	Key.space	n/a
50.756	0.135	101512	keystroke_i	i	n/a
50.951	0.075	101902	keystroke_s	s	n/a
51.116	0.075	102232	keystroke_s	s	n/a
51.206	0.135	102412	keystroke_u	u	n/a
51.311	0.195	102622	keystroke_e	e	n/a
51.431	0.12	102862	keystroke_s	s	n/a
51.746	0.09	103492	keystroke_Key.enter	Key.enter	n/a
51.843	5.2145	103686	prompt	n/a	slovenia wool pump shaw\n
52.4065	0.135	104813	keystroke_s	s	n/a
52.4965	0.105	104993	keystroke_o	o	n/a
52.7365	0.105	105473	keystroke_l	l	n/a
52.8265	0.12	105653	keystroke_v	v	n/a
53.0955	0.061	106191	keystroke_e	e	n/a
53.1265	0.12	106253	keystroke_n	n	n/a
53.3955	0.121	106791	keystroke_i	i	n/a
53.6065	0.089	107213	keystroke_a	a	n/a
53.8005	0.0905	107601	keystroke_Key.space	Key.space	n/a
53.981	0.105	107962	keystroke_w	w	n/a
54.056	0.09	108112	keystroke_o	o	n/a
54.266	0.045	108532	keystroke_o	o	n/a
54.491	0.165	108982	keystroke_l	l	n/a
54.641	0.15	109282	keystroke_Key.space	Key.space	n/a
54.956	0.12	109912	keystroke_p	p	n/a
55.196	0.09	110392	keystroke_u	u	n/a
55.466	0.0905	110932	keystroke_m	m	n/a
55.7065	0.15	111413	keystroke_p	p	n/a
55.8715	0.1345	111743	keystroke_Key.space	Key.space	n/a
56.141	0.105	112282	keystroke_s	s	n/a
56.231	0.135	112462	keystroke_h	h	n/a
56.591	0.165	113182	keystroke_a	a	n/a
56.711	0.105	113422	keystroke_w	w	n/a
57.0105	0.045	114021	keystroke_Key.enter	Key.enter	n/a
57.066	7.867	114132	prompt	n/a	defeat breakfast fabulous dispatched\n
57.7765	0.105	115553	keystroke_d	d	n/a
58.001	0.0905	116002	keystroke_e	e	n/a
58.1965	0.12	116393	keystroke_f	f	n/a
58.436	0.045	116872	keystroke_e	e	n/a
58.601	0.09	117202	keystroke_a	a	n/a
58.841	0.12	117682	keystroke_t	t	n/a
59.036	0.105	118072	keystroke_Key.space	Key.space	n/a
59.261	0.075	118522	keystroke_b	b	n/a
59.321	0.105	118642	keystroke_r	r	n/a
59.471	0.105	118942	keystroke_e	e	n/a
59.651	0.1355	119302	keystroke_a	a	n/a
59.8015	0.135	119603	keystroke_k	k	n/a
60.0565	0.105	120113	keystroke_f	f	n/a
60.2815	0.09	120563	keystroke_a	a	n/a
60.5065	0.105	121013	keystroke_s	s	n/a
60.6565	0.12	121313	keystroke_t	t	n/a
60.7765	0.1345	121553	keystroke_Key.space	Key.space	n/a
60.956	0.09	121912	keystroke_f	f	n/a
61.121	0.15	122242	keystroke_a	a	n/a
61.256	0.105	122512	keystroke_b	b	n/a
61.526	0.105	123052	keystroke_u	u	n/a
61.8265	0.165	123653	keystroke_l	l	n/a
61.9465	0.18	123893	keystroke_o	o	n/a
62.0965	0.18	124193	keystroke_u	u	n/a
62.2615	0.165	124523	keystroke_s	s	n/a
62.4715	0.15	124943	keystroke_Key.space	Key.space	n/a
62.756	0.12	125512	keystroke_d	d	n/a
62.861	0.135	125722	keystroke_i	i	n/a
63.041	0.09	126082	keystroke_s	s	n/a
63.146	0.135	126292	keystroke_p	p	n/a
63.6865	0.09	127373	keystroke_a	a	n/a
63.8965	0.09	127793	keystroke_t	t	n/a
64.181	0.105	128362	keystroke_c	c	n/a
64.256	0.135	128512	keystroke_h	h	n/a
64.406	0.09	128812	keystroke_e	e	n/a
64.601	0.1205	129202	keystroke_d	d	n/a
64.8865	0.045	129773	keystroke_Key.enter	Key.enter	n/a
64.9435	6.5895	129887	prompt	n/a	differential fate treasure insider\n
65.441	0.1195	130882	keystroke_d	d	n/a
65.636	0.15	131272	keystroke_i	i	n/a
65.756	0.105	131512	keystroke_f	f	n/a
65.936	0.12	131872	keystroke_f	f	n/a
66.176	0.135	132352	keystroke_e	e	n/a
66.296	0.135	132592	keystroke_r	r	n/a
66.446	0.1205	132892	keystroke_e	e	n/a
66.5515	0.12	133103	keystroke_n	n	n/a
66.6415	0.12	133283	keystroke_t	t	n/a
66.7915	0.105	133583	keystroke_i	i	n/a
66.9555	0.15	133911	keystroke_a	a	n/a
67.0605	0.165	134121	keystroke_l	l	n/a
67.2105	0.21	134421	keystroke_Key.space	Key.space	n/a
67.4055	0.12	134811	keystroke_f	f	n/a
67.5855	0.106	135171	keystroke_a	a	n/a
67.7965	0.1345	135593	keystroke_t	t	n/a
67.916	0.15	135832	keystroke_e	e	n/a
68.006	0.15	136012	keystroke_Key.space	Key.space	n/a
68.246	0.09	136492	keystroke_t	t	n/a
68.5005	0.105	137001	keystroke_r	r	n/a
68.5905	0.1805	137181	keystroke_e	e	n/a
69.4455	0.075	138891	keystroke_a	a	n/a
69.6555	0.106	139311	keystroke_s	s	n/a
69.7765	0.15	139553	keystroke_u	u	n/a
69.9415	0.165	139883	keystroke_r	r	n/a
70.0615	0.165	140123	keystroke_e	e	n/a
70.1665	0.165	140333	keystroke_Key.space	Key.space	n/a
70.3165	0.18	140633	keystroke_i	i	n/a
70.4815	0.149	140963	keystroke_n	n	n/a
70.6455	0.105	141291	keystroke_s	s	n/a
70.7665	0.134	141533	keystroke_i	i	n/a
70.8415	0.135	141683	keystroke_d	d	n/a
71.0965	0.165	142193	keystroke_e	e	n/a
71.2015	0.164	142403	keystroke_r	r	n/a
71.4105	0.12	142821	keystroke_Key.enter	Key.enter	n/a
71.5365	8.0365	143073	prompt	n/a	nextel andorra pregnancy diary\n
72.0555	0.061	144111	keystroke_d	d	n/a
72.4155	0.09	144831	keystroke_Key.backspace	Key.backspace	n/a
72.7005	0.15	145401	keystroke_n	n	n/a
72.7755	0.076	145551	keystroke_e	e	n/a
73.0005	0.135	146001	keystroke_x	x	n/a
73.2705	0.121	146541	keystroke_t	t	n/a
73.6165	0.12	147233	keystroke_e	e	n/a
73.7965	0.225	147593	keystroke_l	l	n/a
74.0365	0.179	148073	keystroke_Key.space	Key.space	n/a
74.3055	0.1505	148611	keystroke_a	a	n/a
74.486	0.135	148972	keystroke_n	n	n/a
74.591	0.12	149182	keystroke_d	d	n/a
74.981	0.12	149962	keystroke_o	o	n/a
75.041	0.105	150082	keystroke_r	r	n/a
75.266	0.09	150532	keystroke_r	r	n/a
75.506	0.135	151012	keystroke_a	a	n/a
75.671	0.165	151342	keystroke_Key.space	Key.space	n/a
76.076	0.12	152152	keystroke_p	p	n/a
76.316	0.165	152632	keystroke_r	r	n/a
76.451	0.105	152902	keystroke_e	e	n/a
76.676	0.09	153352	keystroke_g	g	n/a
76.856	0.135	153712	keystroke_a	a	n/a
77.261	0.075	154522	keystroke_Key.backspace	Key.backspace	n/a
77.5605	0.106	155121	keystroke_n	n	n/a
77.6355	0.105	155271	keystroke_a	a	n/a
77.8015	0.149	155603	keystroke_n	n	n/a
77.9355	0.105	155871	keystroke_c	c	n/a
78.2055	0.105	156411	keystroke_y	y	n/a
78.3405	0.15	156681	keystroke_Key.space	Key.space	n/a
78.5215	0.134	157043	keystroke_d	d	n/a
78.6405	0.165	157281	keystroke_i	i	n/a
78.8205	0.121	157641	keystroke_a	a	n/a
79.0005	0.09	158001	keystroke_r	r	n/a
79.2555	0.09	158511	keystroke_y	y	n/a
79.481	0.0895	158962	keystroke_Key.enter	Key.enter	n/a
79.5835	6.9345	159167	prompt	n/a	activities attorney dropped trends\n
80.126	0.105	160252	keystroke_a	a	n/a
80.366	0.135	160732	keystroke_c	c	n/a
80.621	0.09	161242	keystroke_t	t	n/a
80.726	0.09	161452	keystroke_i	i	n/a
80.951	0.105	161902	keystroke_v	v	n/a
80.996	0.135	161992	keystroke_i	i	n/a
81.341	0.105	162682	keystroke_t	t	n/a
81.716	0.12	163432	keystroke_i	i	n/a
81.851	0.255	163702	keystroke_e	e	n/a
82.061	0.135	164122	keystroke_s	s	n/a
82.241	0.12	164482	keystroke_Key.space	Key.space	n/a
82.376	0.105	164752	keystroke_a	a	n/a
82.586	0.075	165172	keystroke_t	t	n/a
82.751	0.12	165502	keystroke_t	t	n/a
82.886	0.165	165772	keystroke_o	o	n/a
83.036	0.12	166072	keystroke_r	r	n/a
83.261	0.105	166522	keystroke_n	n	n/a
83.351	0.12	166702	keystroke_e	e	n/a
83.591	0.09	167182	keystroke_y	y	n/a
83.741	0.12	167482	keystroke_Key.space	Key.space	n/a
83.981	0.105	167962	keystroke_d	d	n/a
84.221	0.12	168442	keystroke_r	r	n/a
84.356	0.135	168712	keystroke_o	o	n/a
84.476	0.105	168952	keystroke_p	p	n/a
84.671	0.135	169342	keystroke_p	p	n/a
84.761	0.06	169522	keystroke_e	e	n/a
84.971	0.135	169942	keystroke_d	d	n/a
85.076	0.15	170152	keystroke_Key.space	Key.space	n/a
85.256	0.09	170512	keystroke_t	t	n/a
85.466	0.12	170932	keystroke_r	r	n/a
85.616	0.12	171232	keystroke_e	e	n/a
85.811	0.135	171622	keystroke_n	n	n/a
85.916	0.105	171832	keystroke_d	d	n/a
86.171	0.135	172342	keystroke_s	s	n/a
86.426	0.09	172852	keystroke_Key.enter	Key.enter	n/a
86.528	6.2895	173056	prompt	n/a	cayman pattern threat seen\n
87.311	0.12	174622	keystroke_c	c	n/a
87.461	0.135	174922	keystroke_a	a	n/a
87.746	0.105	175492	keystroke_y	y	n/a
88.0015	0.135	176003	keystroke_m	m	n/a
88.2115	0.105	176423	keystroke_a	a	n/a
88.2415	0.18	176483	keystroke_n	n	n/a
88.5115	0.12	177023	keystroke_Key.space	Key.space	n/a
88.9315	0.135	177863	keystroke_p	p	n/a
89.1115	0.105	178223	keystroke_a	a	n/a
89.3215	0.075	178643	keystroke_t	t	n/a
89.801	0.105	179602	keystroke_t	t	n/a
90.041	0.165	180082	keystroke_e	e	n/a
90.146	0.165	180292	keystroke_r	r	n/a
90.281	0.165	180562	keystroke_n	n	n/a
90.461	0.105	180922	keystroke_Key.space	Key.space	n/a
90.6865	0.09	181373	keystroke_t	t	n/a
90.8065	0.1345	181613	keystroke_h	h	n/a
91.121	0.135	182242	keystroke_r	r	n/a
91.257	0.104	182514	keystroke_e	e	n/a
91.481	0.105	182962	keystroke_a	a	n/a
91.6765	0.105	183353	keystroke_t	t	n/a
91.8105	0.12	183621	keystroke_Key.space	Key.space	n/a
92.0065	0.21	184013	keystroke_s	s	n/a
92.1865	0.09	184373	keystroke_e	e	n/a
92.3815	0.135	184763	keystroke_e	e	n/a
92.4555	0.106	184911	keystroke_n	n	n/a
92.7255	0.0905	185451	keystroke_Key.enter	Key.enter	n/a
92.821	5.7565	185642	prompt	n/a	sight hash structure crossword\n
93.386	0.165	186772	keystroke_s	s	n/a
93.566	0.105	187132	keystroke_i	i	n/a
93.686	0.135	187372	keystroke_g	g	n/a
93.822	0.164	187644	keystroke_h	h	n/a
94.001	0.09	188002	keystroke_t	t	n/a
94.092	0.119	188184	keystroke_Key.space	Key.space	n/a
94.241	0.1505	188482	keystroke_h	h	n/a
94.3765	0.105	188753	keystroke_a	a	n/a
94.6015	0.12	189203	keystroke_s	s	n/a
94.7065	0.165	189413	keystroke_h	h	n/a
94.8865	0.135	189773	keystroke_Key.space	Key.space	n/a
95.0065	0.12	190013	keystroke_s	s	n/a
95.2165	0.09	190433	keystroke_t	t	n/a
95.4115	0.105	190823	keystroke_r	r	n/a
95.5615	0.135	191123	keystroke_u	u	n/a
95.7265	0.105	191453	keystroke_c	c	n/a
95.9815	0.09	191963	keystroke_t	t	n/a
96.0565	0.165	192113	keystroke_u	u	n/a
96.2365	0.135	192473	keystroke_r	r	n/a
96.3415	0.135	192683	keystroke_e	e	n/a
96.5065	0.135	193013	keystroke_Key.space	Key.space	n/a
96.7305	0.151	193461	keystroke_c	c	n/a
97.0165	0.09	194033	keystroke_r	r	n/a
97.0915	0.135	194183	keystroke_o	o	n/a
97.3015	0.06	194603	keystroke_s	s	n/a
97.4665	0.075	194933	keystroke_s	s	n/a
97.6915	0.09	195383	keystroke_w	w	n/a
97.811	0.12	195622	keystroke_o	o	n/a
97.901	0.105	195802	keystroke_r	r	n/a
98.156	0.165	196312	keystroke_d	d	n/a
98.471	0.105	196942	keystroke_Key.enter	Key.enter	n/a
98.581	7.3765	197162	prompt	n/a	alaska grip stations developers\n
99.956	0.12	199912	keystroke_a	a	n/a
100.077	0.119	200154	keystroke_l	l	n/a
100.286	0.03	200572	keystroke_s	s	n/a
100.7665	0.09	201533	keystroke_Key.backspace	Key.backspace	n/a
100.8415	0.075	201683	keystroke_a	a	n/a
101.0665	0.09	202133	keystroke_s	s	n/a
101.1715	0.165	202343	keystroke_k	k	n/a
101.3665	0.12	202733	keystroke_a	a	n/a
101.5015	0.12	203003	keystroke_Key.space	Key.space	n/a
101.6815	0.105	203363	keystroke_g	g	n/a
101.9365	0.105	203873	keystroke_r	r	n/a
102.1315	0.12	204263	keystroke_i	i	n/a
102.3865	0.165	204773	keystroke_p	p	n/a
102.5665	0.165	205133	keystroke_Key.space	Key.space	n/a
102.8665	0.105	205733	keystroke_s	s	n/a
103.0465	0.105	206093	keystroke_t	t	n/a
103.1965	0.165	206393	keystroke_a	a	n/a
103.3015	0.12	206603	keystroke_t	t	n/a
103.3915	0.135	206783	keystroke_i	i	n/a
103.4815	0.15	206963	keystroke_o	o	n/a
103.5715	0.225	207143	keystroke_n	n	n/a
103.7815	0.135	207563	keystroke_s	s	n/a
103.9315	0.135	207863	keystroke_Key.space	Key.space	n/a
104.0815	0.105	208163	keystroke_d	d	n/a
104.3065	0.075	208613	keystroke_e	e	n/a
104.5465	0.15	209093	keystroke_v	v	n/a
104.7415	0.12	209483	keystroke_e	e	n/a
104.8915	0.15	209783	keystroke_l	l	n/a
105.0265	0.15	210053	keystroke_o	o	n/a
105.2365	0.15	210473	keystroke_p	p	n/a
105.3415	0.1495	210683	keystroke_e	e	n/a
105.461	0.15	210922	keystroke_r	r	n/a
105.641	0.18	211282	keystroke_s	s	n/a
105.851	0.105	211702	keystroke_Key.enter	Key.enter	n/a
105.961	7.722	211922	prompt	n/a	nursing ghana specifically ciao\n
106.6165	0.1195	213233	keystroke_n	n	n/a
106.751	0.105	213502	keystroke_u	u	n/a
106.841	0.09	213682	keystroke_r	r	n/a
107.201	0.12	214402	keystroke_s	s	n/a
107.381	0.12	214762	keystroke_i	i	n/a
107.471	0.1955	214942	keystroke_n	n	n/a
107.6365	0.12	215273	keystroke_g	g	n/a
107.741	0.1505	215482	keystroke_Key.space	Key.space	n/a
108.0105	0.1205	216021	keystroke_g	g	n/a
108.1915	0.1495	216383	keystroke_h	h	n/a
108.372	0.12	216744	keystroke_a	a	n/a
108.537	0.1195	217074	keystroke_h	h	n/a
108.9565	0.09	217913	keystroke_Key.backspace	Key.backspace	n/a
109.2865	0.105	218573	keystroke_n	n	n/a
109.3765	0.165	218753	keystroke_a	a	n/a
110.4415	0.135	220883	keystroke_Key.space	Key.space	n/a
110.771	0.121	221542	keystroke_s	s	n/a
110.906	0.106	221812	keystroke_p	p	n/a
111.086	0.091	222172	keystroke_e	e	n/a
111.356	0.135	222712	keystroke_c	c	n/a
111.506	0.12	223012	keystroke_i	i	n/a
111.671	0.12	223342	keystroke_f	f	n/a
111.761	0.15	223522	keystroke_i	i	n/a
111.956	0.12	223912	keystroke_c	c	n/a
112.091	0.135	224182	keystroke_a	a	n/a
112.256	0.09	224512	keystroke_l	l	n/a
112.421	0.165	224842	keystroke_l	l	n/a
112.541	0.105	225082	keystroke_y	y	n/a
112.6915	0.12	225383	keystroke_Key.space	Key.space	n/a
112.871	0.105	225742	keystroke_c	c	n/a
112.991	0.12	225982	keystroke_i	i	n/a
113.171	0.12	226342	keystroke_a	a	n/a
113.306	0.135	226612	keystroke_o	o	n/a
113.606	0.075	227212	keystroke_Key.enter	Key.enter	n/a
113.6945	5.133	227389	prompt	n/a	annually version century worm\n
114.251	0.12	228502	keystroke_a	a	n/a
114.341	0.075	228682	keystroke_n	n	n/a
114.521	0.105	229042	keystroke_n	n	n/a
114.656	0.105	229312	keystroke_u	u	n/a
114.762	0.149	229524	keystroke_a	a	n/a
114.926	0.105	229852	keystroke_l	l	n/a
115.121	0.12	230242	keystroke_l	l	n/a
115.256	0.135	230512	keystroke_y	y	n/a
115.421	0.135	230842	keystroke_Key.space	Key.space	n/a
115.6165	0.105	231233	keystroke_v	v	n/a
115.8265	0.15	231653	keystroke_e	e	n/a
115.9165	0.165	231833	keystroke_r	r	n/a
116.1265	0.18	232253	keystroke_s	s	n/a
116.2465	0.135	232493	keystroke_i	i	n/a
116.3665	0.165	232733	keystroke_o	o	n/a
116.4565	0.165	232913	keystroke_n	n	n/a
116.6365	0.1495	233273	keystroke_Key.space	Key.space	n/a
116.801	0.105	233602	keystroke_c	c	n/a
116.951	0.1055	233902	keystroke_e	e	n/a
117.1015	0.135	234203	keystroke_n	n	n/a
117.1615	0.105	234323	keystroke_t	t	n/a
117.387	0.1045	234774	keystroke_r	r	n/a
117.4915	0.1205	234983	keystroke_u	u	n/a
117.702	0.1345	235404	keystroke_y	y	n/a
117.9265	0.15	235853	keystroke_Key.space	Key.space	n/a
118.0915	0.105	236183	keystroke_w	w	n/a
118.1815	0.2095	236363	keystroke_o	o	n/a
118.316	0.15	236632	keystroke_r	r	n/a
118.421	0.12	236842	keystroke_m	m	n/a
118.736	0.09	237472	keystroke_Key.enter	Key.enter	n/a
118.8305	6.3125	237661	prompt	n/a	against athens piece lingerie\n
119.396	0.12	238792	keystroke_a	a	n/a
119.6515	0.075	239303	keystroke_g	g	n/a
119.8465	0.1355	239693	keystroke_a	a	n/a
119.9215	0.15	239843	keystroke_i	i	n/a
120.0565	0.1505	240113	keystroke_n	n	n/a
120.1615	0.135	240323	keystroke_s	s	n/a
120.386	0.136	240772	keystroke_t	t	n/a
120.5515	0.1195	241103	keystroke_Key.space	Key.space	n/a
120.717	0.105	241434	keystroke_a	a	n/a
120.971	0.105	241942	keystroke_t	t	n/a
121.047	0.135	242094	keystroke_h	h	n/a
121.256	0.091	242512	keystroke_e	e	n/a
121.406	0.12	242812	keystroke_n	n	n/a
121.571	0.105	243142	keystroke_s	s	n/a
121.706	0.15	243412	keystroke_Key.space	Key.space	n/a
121.886	0.105	243772	keystroke_p	p	n/a
122.051	0.15	244102	keystroke_i	i	n/a
122.231	0.09	244462	keystroke_c	c	n/a
122.636	0.105	245272	keystroke_Key.backspace	Key.backspace	n/a
122.711	0.075	245422	keystroke_e	e	n/a
122.936	0.15	245872	keystroke_c	c	n/a
123.101	0.135	246202	keystroke_e	e	n/a
123.266	0.1355	246532	keystroke_Key.space	Key.space	n/a
123.5965	0.2245	247193	keystroke_l	l	n/a
123.7465	0.1645	247493	keystroke_i	i	n/a
123.851	0.195	247702	keystroke_n	n	n/a
123.986	0.12	247972	keystroke_g	g	n/a
124.3165	0.1655	248633	keystroke_e	e	n/a
124.3765	0.18	248753	keystroke_r	r	n/a
124.706	0.105	249412	keystroke_i	i	n/a
124.827	0.119	249654	keystroke_e	e	n/a
125.066	0.075	250132	keystroke_Key.enter	Key.enter	n/a
125.1475	6.2355	250295	prompt	n/a	slim rule variable discrete\n
125.681	0.09	251362	keystroke_a	a	n/a
126.086	0.075	252172	keystroke_Key.backspace	Key.backspace	n/a
126.206	0.135	252412	keystroke_s	s	n/a
126.401	0.2105	252802	keystroke_l	l	n/a
126.5515	0.105	253103	keystroke_i	i	n/a
126.8065	0.165	253613	keystroke_m	m	n/a
126.9865	0.12	253973	keystroke_Key.space	Key.space	n/a
127.1365	0.12	254273	keystroke_r	r	n/a
127.2715	0.09	254543	keystroke_u	u	n/a
127.4965	0.18	254993	keystroke_l	l	n/a
127.6315	0.135	255263	keystroke_e	e	n/a
127.7515	0.15	255503	keystroke_Key.space	Key.space	n/a
127.9615	0.105	255923	keystroke_v	v	n/a
128.2465	0.0905	256493	keystroke_a	a	n/a
128.442	0.105	256884	keystroke_r	r	n/a
128.562	0.104	257124	keystroke_i	i	n/a
128.7865	0.1355	257573	keystroke_a	a	n/a
128.907	0.105	257814	keystroke_b	b	n/a
129.132	0.135	258264	keystroke_l	l	n/a
129.312	0.12	258624	keystroke_e	e	n/a
129.477	0.12	258954	keystroke_Key.space	Key.space	n/a
129.597	0.1345	259194	keystroke_d	d	n/a
129.7465	0.135	259493	keystroke_i	i	n/a
129.8665	0.12	259733	keystroke_s	s	n/a
130.1215	0.09	260243	keystroke_c	c	n/a
130.406	0.12	260812	keystroke_r	r	n/a
130.481	0.135	260962	keystroke_e	e	n/a
130.781	0.09	261562	keystroke_t	t	n/a
131.036	0.09	262072	keystroke_e	e	n/a
131.291	0.09	262582	keystroke_Key.enter	Key.enter	n/a
131.3855	8.128	262771	prompt	n/a	directory banners radios organic\n
132.0865	0.105	264173	keystroke_d	d	n/a
132.4165	0.12	264833	keystroke_i	i	n/a
132.5665	0.105	265133	keystroke_r	r	n/a
132.8065	0.09	265613	keystroke_e	e	n/a
133.0615	0.12	266123	keystroke_c	c	n/a
133.346	0.105	266692	keystroke_t	t	n/a
133.4965	0.1495	266993	keystroke_o	o	n/a
133.601	0.075	267202	keystroke_r	r	n/a
133.856	0.105	267712	keystroke_y	y	n/a
134.036	0.135	268072	keystroke_Key.space	Key.space	n/a
134.216	0.18	268432	keystroke_a	a	n/a
134.681	0.09	269362	keystroke_Key.backspace	Key.backspace	n/a
134.966	0.12	269932	keystroke_b	b	n/a
135.056	0.135	270112	keystroke_a	a	n/a
135.251	0.06	270502	keystroke_n	n	n/a
135.476	0.03	270952	keystroke_n	n	n/a
135.491	0.165	270982	keystroke_e	e	n/a
135.611	0.12	271222	keystroke_r	r	n/a
135.836	0.15	271672	keystroke_s	s	n/a
136.016	0.135	272032	keystroke_Key.space	Key.space	n/a
136.196	0.105	272392	keystroke_r	r	n/a
136.391	0.135	272782	keystroke_a	a	n/a
136.6915	0.1045	273383	keystroke_d	d	n/a
136.856	0.1505	273712	keystroke_i	i	n/a
136.9765	0.165	273953	keystroke_o	o	n/a
137.1115	0.15	274223	keystroke_s	s	n/a
137.3065	0.135	274613	keystroke_Key.space	Key.space	n/a
137.4865	0.075	274973	keystroke_g	g	n/a
137.8765	0.09	275753	keystroke_Key.backspace	Key.backspace	n/a
138.1615	0.1345	276323	keystroke_o	o	n/a
138.266	0.0905	276532	keystroke_r	r	n/a
138.5215	0.09	277043	keystroke_g	g	n/a
138.7465	0.1495	277493	keystroke_a	a	n/a
138.881	0.076	277762	keystroke_n	n	n/a
139.032	0.105	278064	keystroke_i	i	n/a
139.166	0.18	278332	keystroke_c	c	n/a
139.406	0.105	278812	keystroke_Key.enter	Key.enter	n/a
139.5235	5.374	279047	prompt	n/a	design promotion onto faced\n
140.037	0.089	280074	keystroke_d	d	n/a
140.2765	0.075	280553	keystroke_e	e	n/a
140.5015	0.135	281003	keystroke_s	s	n/a
140.6215	0.12	281243	keystroke_i	i	n/a
140.8615	0.12	281723	keystroke_g	g	n/a
140.9825	0.164	281965	keystroke_n	n	n/a
141.1765	0.135	282353	keystroke_Key.space	Key.space	n/a
141.3565	0.1495	282713	keystroke_p	p	n/a
141.4915	0.1195	282983	keystroke_r	r	n/a
141.596	0.12	283192	keystroke_o	o	n/a
141.791	0.21	283582	keystroke_m	m	n/a
142.016	0.105	284032	keystroke_o	o	n/a
142.151	0.12	284302	keystroke_t	t	n/a
142.286	0.18	284572	keystroke_i	i	n/a
142.451	0.12	284902	keystroke_o	o	n/a
142.526	0.1955	285052	keystroke_n	n	n/a
142.6915	0.195	285383	keystroke_Key.space	Key.space	n/a
142.9015	0.15	285803	keystroke_o	o	n/a
143.0365	0.105	286073	keystroke_n	n	n/a
143.2015	0.12	286403	keystroke_t	t	n/a
143.3965	0.1795	286793	keystroke_o	o	n/a
143.561	0.15	287122	keystroke_Key.space	Key.space	n/a
143.727	0.089	287454	keystroke_f	f	n/a
143.876	0.121	287752	keystroke_a	a	n/a
144.131	0.1055	288262	keystroke_c	c	n/a
144.3415	0.09	288683	keystroke_e	e	n/a
144.5515	0.12	289103	keystroke_d	d	n/a
144.7915	0.105	289583	keystroke_Key.enter	Key.enter	n/a
144.901	9.373	289802	prompt	n/a	tony carol exhibits adoption\n
145.5565	0.105	291113	keystroke_t	t	n/a
145.6765	0.15	291353	keystroke_o	o	n/a
145.7665	0.18	291533	keystroke_n	n	n/a
145.9165	0.105	291833	keystroke_y	y	n/a
146.0665	0.12	292133	keystroke_Key.space	Key.space	n/a
146.2615	0.105	292523	keystroke_c	c	n/a
146.4415	0.195	292883	keystroke_a	a	n/a
146.5765	0.135	293153	keystroke_r	r	n/a
146.7115	0.06	293423	keystroke_o	o	n/a
146.906	0.135	293812	keystroke_l	l	n/a
147.0115	0.18	294023	keystroke_Key.space	Key.space	n/a
147.1615	0.0745	294323	keystroke_e	e	n/a
147.3865	0.135	294773	keystroke_x	x	n/a
147.551	0.1205	295102	keystroke_i	i	n/a
148.121	0.09	296242	keystroke_Key.backspace	Key.backspace	n/a
148.406	0.135	296812	keystroke_h	h	n/a
148.526	0.166	297052	keystroke_i	i	n/a
148.737	0.119	297474	keystroke_n	n	n/a
148.872	0.134	297744	keystroke_i	i	n/a
149.321	0.09	298642	keystroke_t	t	n/a
149.846	0.09	299692	keystroke_Key.backspace	Key.backspace	n/a
150.011	0.0905	300022	keystroke_Key.backspace	Key.backspace	n/a
150.3115	0.105	300623	keystroke_b	b	n/a
150.671	0.075	301342	keystroke_Key.backspace	Key.backspace	n/a
150.821	0.09	301642	keystroke_Key.backspace	Key.backspace	n/a
151.106	0.105	302212	keystroke_b	b	n/a
151.346	0.105	302692	keystroke_i	i	n/a
151.511	0.09	303022	keystroke_t	t	n/a
151.766	0.165	303532	keystroke_s	s	n/a
152.0065	0.105	304013	keystroke_Key.space	Key.space	n/a
152.171	0.135	304342	keystroke_a	a	n/a
152.4415	0.105	304883	keystroke_d	d	n/a
152.5615	0.18	305123	keystroke_o	o	n/a
152.7115	0.15	305423	keystroke_p	p	n/a
152.8465	0.09	305693	keystroke_e	e	n/a
153.2815	0.06	306563	keystroke_Key.backspace	Key.backspace	n/a
153.4315	0.105	306863	keystroke_t	t	n/a
153.5965	0.1655	307193	keystroke_i	i	n/a
153.747	0.18	307494	keystroke_o	o	n/a
153.867	0.105	307734	keystroke_n	n	n/a
154.212	0.06	308424	keystroke_Key.enter	Key.enter	n/a
154.2855	7.2625	308571	prompt	n/a	burlington bacteria irish ethernet\n
154.947	0.105	309894	keystroke_b	b	n/a
155.1715	0.09	310343	keystroke_u	u	n/a
155.3215	0.105	310643	keystroke_r	r	n/a
155.5015	0.18	311003	keystroke_l	l	n/a
155.6965	0.105	311393	keystroke_i	i	n/a
155.9365	0.105	311873	keystroke_n	n	n/a
156.0565	0.105	312113	keystroke_g	g	n/a
156.4465	0.105	312893	keystroke_t	t	n/a
156.5815	0.165	313163	keystroke_o	o	n/a
156.6865	0.165	313373	keystroke_n	n	n/a
156.8965	0.105	313793	keystroke_Key.space	Key.space	n/a
157.1065	0.12	314213	keystroke_b	b	n/a
157.2415	0.135	314483	keystroke_a	a	n/a
157.5115	0.12	315023	keystroke_c	c	n/a
157.826	0.1055	315652	keystroke_t	t	n/a
158.1415	0.105	316283	keystroke_e	e	n/a
158.3515	0.09	316703	keystroke_r	r	n/a
158.5165	0.135	317033	keystroke_i	i	n/a
158.6665	0.12	317333	keystroke_a	a	n/a
158.7865	0.15	317573	keystroke_Key.space	Key.space	n/a
158.9965	0.15	317993	keystroke_i	i	n/a
159.1315	0.105	318263	keystroke_r	r	n/a
159.3115	0.12	318623	keystroke_i	i	n/a
159.4765	0.15	318953	keystroke_s	s	n/a
159.6415	0.1195	319283	keystroke_h	h	n/a
159.836	0.12	319672	keystroke_Key.space	Key.space	n/a
160.016	0.12	320032	keystroke_e	e	n/a
160.287	0.104	320574	keystroke_t	t	n/a
160.436	0.1355	320872	keystroke_h	h	n/a
160.586	0.136	321172	keystroke_e	e	n/a
160.751	0.105	321502	keystroke_r	r	n/a
160.886	0.12	321772	keystroke_n	n	n/a
161.021	0.105	322042	keystroke_e	e	n/a
161.261	0.121	322522	keystroke_t	t	n/a
161.471	0.075	322942	keystroke_Key.enter	Key.enter	n/a
161.551	6.987	323102	prompt	n/a	msgstr subjective about shoulder\n
162.2815	0.135	324563	keystroke_m	m	n/a
162.4015	0.12	324803	keystroke_s	s	n/a
162.5965	0.105	325193	keystroke_g	g	n/a
162.8365	0.135	325673	keystroke_s	s	n/a
163.1215	0.09	326243	keystroke_t	t	n/a
163.4665	0.105	326933	keystroke_r	r	n/a
163.7515	0.075	327503	keystroke_Key.space	Key.space	n/a
163.8715	0.12	327743	keystroke_s	s	n/a
163.9615	0.12	327923	keystroke_u	u	n/a
164.1415	0.105	328283	keystroke_b	b	n/a
164.3365	0.12	328673	keystroke_j	j	n/a
164.3965	0.09	328793	keystroke_e	e	n/a
164.6365	0.105	329273	keystroke_c	c	n/a
164.9065	0.075	329813	keystroke_t	t	n/a
164.9965	0.165	329993	keystroke_i	i	n/a
165.177	0.0745	330354	keystroke_v	v	n/a
165.3415	0.09	330683	keystroke_e	e	n/a
165.4465	0.135	330893	keystroke_Key.space	Key.space	n/a
165.5965	0.15	331193	keystroke_a	a	n/a
165.7015	0.06	331403	keystroke_b	b	n/a
165.9265	0.09	331853	keystroke_o	o	n/a
166.0765	0.135	332153	keystroke_u	u	n/a
166.3015	0.09	332603	keystroke_t	t	n/a
166.436	0.09	332872	keystroke_Key.space	Key.space	n/a
166.586	0.06	333172	keystroke_t	t	n/a
166.886	0.09	333772	keystroke_Key.backspace	Key.backspace	n/a
167.006	0.15	334012	keystroke_s	s	n/a
167.172	0.119	334344	keystroke_h	h	n/a
167.321	0.1655	334642	keystroke_o	o	n/a
167.5015	0.075	335003	keystroke_u	u	n/a
167.7115	0.12	335423	keystroke_l	l	n/a
167.7865	0.105	335573	keystroke_d	d	n/a
168.0115	0.09	336023	keystroke_e	e	n/a
168.2365	0.105	336473	keystroke_r	r	n/a
168.4615	0.075	336923	keystroke_Key.enter	Key.enter	n/a
168.541	7.1385	337082	prompt	n/a	allocation restore adapter solving\n
169.3015	0.09	338603	keystroke_a	a	n/a
169.3765	0.1195	338753	keystroke_l	l	n/a
169.587	0.12	339174	keystroke_l	l	n/a
169.707	0.12	339414	keystroke_o	o	n/a
169.812	0.12	339624	keystroke_c	c	n/a
169.947	0.105	339894	keystroke_a	a	n/a
170.2015	0.12	340403	keystroke_t	t	n/a
170.2915	0.165	340583	keystroke_i	i	n/a
170.3815	0.18	340763	keystroke_o	o	n/a
170.4865	0.18	340973	keystroke_n	n	n/a
170.651	0.1355	341302	keystroke_Key.space	Key.space	n/a
170.7565	0.135	341513	keystroke_r	r	n/a
170.8315	0.135	341663	keystroke_e	e	n/a
171.1165	0.075	342233	keystroke_e	e	n/a
171.5215	0.09	343043	keystroke_Key.backspace	Key.backspace	n/a
171.7015	0.12	343403	keystroke_s	s	n/a
171.9565	0.075	343913	keystroke_t	t	n/a
172.0615	0.135	344123	keystroke_o	o	n/a
172.2115	0.105	344423	keystroke_r	r	n/a
172.4065	0.12	344813	keystroke_e	e	n/a
172.5565	0.1345	345113	keystroke_Key.space	Key.space	n/a
172.706	0.12	345412	keystroke_a	a	n/a
172.856	0.106	345712	keystroke_d	d	n/a
173.066	0.135	346132	keystroke_a	a	n/a
173.396	0.136	346792	keystroke_p	p	n/a
173.637	0.09	347274	keystroke_t	t	n/a
173.877	0.105	347754	keystroke_e	e	n/a
174.102	0.09	348204	keystroke_r	r	n/a
174.236	0.15	348472	keystroke_Key.space	Key.space	n/a
174.387	0.104	348774	keystroke_s	s	n/a
174.567	0.089	349134	keystroke_o	o	n/a
174.762	0.105	349524	keystroke_l	l	n/a
174.896	0.121	349792	keystroke_v	v	n/a
175.047	0.18	350094	keystroke_i	i	n/a
175.212	0.135	350424	keystroke_n	n	n/a
175.362	0.12	350724	keystroke_g	g	n/a
175.601	0.0755	351202	keystroke_Key.enter	Key.enter	n/a
175.69	5.928	351380	prompt	n/a	mature threats framing feature\n
176.321	0.135	352642	keystroke_m	m	n/a
176.517	0.074	353034	keystroke_a	a	n/a
176.696	0.09	353392	keystroke_t	t	n/a
176.801	0.1355	353602	keystroke_u	u	n/a
176.9515	0.12	353903	keystroke_r	r	n/a
177.0865	0.15	354173	keystroke_e	e	n/a
177.2515	0.105	354503	keystroke_Key.space	Key.space	n/a
177.4015	0.075	354803	keystroke_t	t	n/a
177.5215	0.15	355043	keystroke_h	h	n/a
177.6865	0.12	355373	keystroke_r	r	n/a
177.8215	0.105	355643	keystroke_e	e	n/a
178.0615	0.09	356123	keystroke_a	a	n/a
178.2565	0.0895	356513	keystroke_t	t	n/a
178.451	0.165	356902	keystroke_s	s	n/a
178.601	0.1355	357202	keystroke_Key.space	Key.space	n/a
178.7665	0.105	357533	keystroke_f	f	n/a
179.0515	0.09	358103	keystroke_r	r	n/a
179.3065	0.09	358613	keystroke_a	a	n/a
179.3215	0.105	358643	keystroke_m	m	n/a
179.5765	0.1945	359153	keystroke_i	i	n/a
179.7415	0.1495	359483	keystroke_n	n	n/a
179.846	0.12	359692	keystroke_g	g	n/a
179.996	0.135	359992	keystroke_Key.space	Key.space	n/a
180.161	0.105	360322	keystroke_f	f	n/a
180.401	0.075	360802	keystroke_e	e	n/a
180.611	0.105	361222	keystroke_a	a	n/a
180.836	0.105	361672	keystroke_t	t	n/a
181.001	0.151	362002	keystroke_u	u	n/a
181.137	0.135	362274	keystroke_r	r	n/a
181.257	0.135	362514	keystroke_e	e	n/a
181.542	0.075	363084	keystroke_Key.enter	Key.enter	n/a
181.622	8.1565	363244	prompt	n/a	showing communications doom acdbentity\n
182.307	0.12	364614	keystroke_s	s	n/a
182.472	0.135	364944	keystroke_h	h	n/a
182.622	0.149	365244	keystroke_o	o	n/a
182.741	0.105	365482	keystroke_w	w	n/a
182.936	0.135	365872	keystroke_i	i	n/a
183.026	0.165	366052	keystroke_n	n	n/a
183.146	0.106	366292	keystroke_g	g	n/a
183.266	0.195	366532	keystroke_Key.space	Key.space	n/a
183.491	0.166	366982	keystroke_c	c	n/a
183.746	0.136	367492	keystroke_o	o	n/a
183.866	0.105	367732	keystroke_m	m	n/a
184.031	0.106	368062	keystroke_m	m	n/a
184.271	0.09	368542	keystroke_u	u	n/a
184.451	0.136	368902	keystroke_n	n	n/a
184.587	0.104	369174	keystroke_i	i	n/a
184.706	0.136	369412	keystroke_c	c	n/a
184.886	0.105	369772	keystroke_a	a	n/a
185.126	0.105	370252	keystroke_t	t	n/a
185.201	0.12	370402	keystroke_i	i	n/a
185.307	0.164	370614	keystroke_o	o	n/a
185.411	0.15	370822	keystroke_n	n	n/a
185.516	0.135	371032	keystroke_s	s	n/a
185.636	0.135	371272	keystroke_Key.space	Key.space	n/a
185.787	0.119	371574	keystroke_d	d	n/a
185.921	0.105	371842	keystroke_o	o	n/a
186.086	0.09	372172	keystroke_o	o	n/a
186.326	0.181	372652	keystroke_m	m	n/a
186.492	0.12	372984	keystroke_Key.space	Key.space	n/a
186.687	0.104	373374	keystroke_a	a	n/a
186.911	0.105	373822	keystroke_c	c	n/a
187.137	0.104	374274	keystroke_d	d	n/a
187.886	0.105	375772	keystroke_b	b	n/a
188.201	0.075	376402	keystroke_e	e	n/a
188.411	0.105	376822	keystroke_n	n	n/a
188.937	0.06	377874	keystroke_t	t	n/a
189.117	0.104	378234	keystroke_i	i	n/a
189.252	0.075	378504	keystroke_t	t	n/a
189.477	0.074	378954	keystroke_y	y	n/a
189.702	0.075	379404	keystroke_Key.enter	Key.enter	n/a
189.789	5.854	379578	prompt	n/a	indiana handle serves volt\n
190.377	0.105	380754	keystroke_i	i	n/a
190.512	0.135	381024	keystroke_n	n	n/a
190.677	0.119	381354	keystroke_d	d	n/a
190.811	0.12	381622	keystroke_i	i	n/a
190.946	0.151	381892	keystroke_a	a	n/a
191.292	0.135	382584	keystroke_n	n	n/a
191.472	0.149	382944	keystroke_a	a	n/a
191.636	0.15	383272	keystroke_Key.space	Key.space	n/a
191.801	0.135	383602	keystroke_h	h	n/a
191.951	0.105	383902	keystroke_a	a	n/a
192.071	0.09	384142	keystroke_n	n	n/a
192.221	0.12	384442	keystroke_d	d	n/a
192.326	0.1505	384652	keystroke_l	l	n/a
192.5365	0.09	385073	keystroke_e	e	n/a
192.6415	0.15	385283	keystroke_Key.space	Key.space	n/a
192.7765	0.195	385553	keystroke_s	s	n/a
192.9265	0.195	385853	keystroke_e	e	n/a
193.1065	0.09	386213	keystroke_r	r	n/a
193.3915	0.12	386783	keystroke_v	v	n/a
193.6465	0.18	387293	keystroke_e	e	n/a
193.8415	0.135	387683	keystroke_s	s	n/a
193.9615	0.135	387923	keystroke_Key.space	Key.space	n/a
194.2315	0.105	388463	keystroke_v	v	n/a
194.2765	0.12	388553	keystroke_o	o	n/a
194.5765	0.0905	389153	keystroke_t	t	n/a
194.952	0.074	389904	keystroke_Key.backspace	Key.backspace	n/a
195.221	0.12	390442	keystroke_l	l	n/a
195.326	0.09	390652	keystroke_t	t	n/a
195.581	0.06	391162	keystroke_Key.enter	Key.enter	n/a
195.658	5.985	391316	prompt	n/a	carnival assets ranked ethical\n
196.241	0.12	392482	keystroke_c	c	n/a
196.5265	0.12	393053	keystroke_a	a	n/a
196.707	0.149	393414	keystroke_r	r	n/a
196.842	0.075	393684	keystroke_n	n	n/a
197.0065	0.12	394013	keystroke_i	i	n/a
197.1265	0.105	394253	keystroke_v	v	n/a
197.3365	0.135	394673	keystroke_a	a	n/a
197.4565	0.165	394913	keystroke_l	l	n/a
197.5915	0.135	395183	keystroke_Key.space	Key.space	n/a
197.6815	0.105	395363	keystroke_a	a	n/a
197.9065	0.075	395813	keystroke_s	s	n/a
198.1165	0.045	396233	keystroke_s	s	n/a
198.3265	0.075	396653	keystroke_e	e	n/a
198.5365	0.09	397073	keystroke_t	t	n/a
198.747	0.12	397494	keystroke_s	s	n/a
198.882	0.165	397764	keystroke_Key.space	Key.space	n/a
199.017	0.105	398034	keystroke_r	r	n/a
199.167	0.195	398334	keystroke_a	a	n/a
199.3015	0.1205	398603	keystroke_n	n	n/a
199.482	0.15	398964	keystroke_k	k	n/a
199.902	0.09	399804	keystroke_e	e	n/a
200.1265	0.105	400253	keystroke_d	d	n/a
200.2915	0.09	400583	keystroke_Key.space	Key.space	n/a
200.3965	0.105	400793	keystroke_e	e	n/a
200.5765	0.135	401153	keystroke_t	t	n/a
200.6965	0.12	401393	keystroke_h	h	n/a
200.8015	0.165	401603	keystroke_i	i	n/a
200.9815	0.105	401963	keystroke_c	c	n/a
201.1315	0.165	402263	keystroke_a	a	n/a
201.2365	0.15	402473	keystroke_l	l	n/a
201.5665	0.075	403133	keystroke_Key.enter	Key.enter	n/a
201.646	8.0225	403292	prompt	n/a	helicopter suddenly trinidad iron\n
202.3315	0.105	404663	keystroke_h	h	n/a
202.4515	0.105	404903	keystroke_e	e	n/a
202.5865	0.1345	405173	keystroke_l	l	n/a
202.826	0.0905	405652	keystroke_o	o	n/a
203.4565	0.06	406913	keystroke_Key.backspace	Key.backspace	n/a
203.7265	0.09	407453	keystroke_i	i	n/a
203.9815	0.12	407963	keystroke_c	c	n/a
204.0715	0.165	408143	keystroke_o	o	n/a
204.2065	0.135	408413	keystroke_p	p	n/a
204.4765	0.09	408953	keystroke_t	t	n/a
204.6715	0.12	409343	keystroke_e	e	n/a
204.8365	0.12	409673	keystroke_r	r	n/a
204.9865	0.105	409973	keystroke_Key.space	Key.space	n/a
205.1215	0.135	410243	keystroke_s	s	n/a
205.2115	0.12	410423	keystroke_u	u	n/a
205.3765	0.09	410753	keystroke_d	d	n/a
205.601	0.075	411202	keystroke_e	e	n/a
205.991	0.075	411982	keystroke_Key.backspace	Key.backspace	n/a
206.081	0.076	412162	keystroke_d	d	n/a
206.321	0.09	412642	keystroke_e	e	n/a
206.441	0.135	412882	keystroke_n	n	n/a
206.6815	0.15	413363	keystroke_l	l	n/a
206.7865	0.075	413573	keystroke_y	y	n/a
206.9515	0.15	413903	keystroke_Key.space	Key.space	n/a
207.1765	0.105	414353	keystroke_t	t	n/a
207.4165	0.105	414833	keystroke_r	r	n/a
207.6115	0.18	415223	keystroke_i	i	n/a
207.7765	0.135	415553	keystroke_n	n	n/a
208.0015	0.105	416003	keystroke_i	i	n/a
208.1215	0.09	416243	keystroke_d	d	n/a
208.331	0.12	416662	keystroke_a	a	n/a
208.617	0.105	417234	keystroke_d	d	n/a
208.782	0.12	417564	keystroke_Key.space	Key.space	n/a
208.932	0.1645	417864	keystroke_i	i	n/a
209.0665	0.1205	418133	keystroke_r	r	n/a
209.217	0.12	418434	keystroke_o	o	n/a
209.277	0.12	418554	keystroke_n	n	n/a
209.607	0.0595	419214	keystroke_Key.enter	Key.enter	n/a
209.68	7.053	419360	prompt	n/a	auction rehabilitation members suzuki\n
210.2665	0.105	420533	keystroke_a	a	n/a
210.5215	0.12	421043	keystroke_u	u	n/a
210.7465	0.105	421493	keystroke_c	c	n/a
211.0465	0.105	422093	keystroke_t	t	n/a
211.1665	0.12	422333	keystroke_i	i	n/a
211.2565	0.15	422513	keystroke_o	o	n/a
211.3015	0.225	422603	keystroke_n	n	n/a
211.5115	0.135	423023	keystroke_Key.space	Key.space	n/a
211.6615	0.12	423323	keystroke_r	r	n/a
211.7515	0.165	423503	keystroke_e	e	n/a
211.9315	0.15	423863	keystroke_h	h	n/a
212.0965	0.105	424193	keystroke_a	a	n/a
212.2165	0.09	424433	keystroke_b	b	n/a
212.4715	0.12	424943	keystroke_i	i	n/a
212.5765	0.2105	425153	keystroke_l	l	n/a
212.712	0.165	425424	keystroke_i	i	n/a
212.817	0.09	425634	keystroke_t	t	n/a
213.027	0.18	426054	keystroke_a	a	n/a
213.147	0.135	426294	keystroke_t	t	n/a
213.267	0.12	426534	keystroke_i	i	n/a
213.342	0.225	426684	keystroke_o	o	n/a
213.492	0.2095	426984	keystroke_n	n	n/a
213.6865	0.135	427373	keystroke_Key.space	Key.space	n/a
213.9265	0.12	427853	keystroke_m	m	n/a
214.0315	0.09	428063	keystroke_e	e	n/a
214.1215	0.135	428243	keystroke_m	m	n/a
214.3165	0.135	428633	keystroke_b	b	n/a
214.3915	0.18	428783	keystroke_e	e	n/a
214.5115	0.15	429023	keystroke_r	r	n/a
214.7065	0.1505	429413	keystroke_s	s	n/a
214.827	0.135	429654	keystroke_Key.space	Key.space	n/a
214.992	0.075	429984	keystroke_s	s	n/a
215.3815	0.105	430763	keystroke_u	u	n/a
215.6215	0.1195	431243	keystroke_z	z	n/a
215.861	0.105	431722	keystroke_u	u	n/a
216.132	0.089	432264	keystroke_k	k	n/a
216.311	0.1055	432622	keystroke_i	i	n/a
216.657	0.0745	433314	keystroke_Key.enter	Key.enter	n/a
216.7355	6.883	433471	prompt	n/a	boards blades basement represented\n
217.4065	0.105	434813	keystroke_b	b	n/a
217.6465	0.1505	435293	keystroke_o	o	n/a
217.767	0.165	435534	keystroke_a	a	n/a
217.886	0.105	435772	keystroke_r	r	n/a
218.1115	0.15	436223	keystroke_d	d	n/a
218.3065	0.1645	436613	keystroke_s	s	n/a
218.472	0.1045	436944	keystroke_Key.space	Key.space	n/a
218.697	0.06	437394	keystroke_b	b	n/a
218.892	0.135	437784	keystroke_l	l	n/a
218.982	0.105	437964	keystroke_a	a	n/a
219.267	0.105	438534	keystroke_d	d	n/a
219.627	0.0895	439254	keystroke_e	e	n/a
219.8665	0.135	439733	keystroke_s	s	n/a
220.0015	0.1495	440003	keystroke_Key.space	Key.space	n/a
220.256	0.121	440512	keystroke_b	b	n/a
220.3165	0.135	440633	keystroke_a	a	n/a
220.5715	0.135	441143	keystroke_s	s	n/a
220.6165	0.165	441233	keystroke_e	e	n/a
220.7665	0.135	441533	keystroke_m	m	n/a
220.9165	0.12	441833	keystroke_e	e	n/a
220.9915	0.15	441983	keystroke_n	n	n/a
221.1565	0.1205	442313	keystroke_t	t	n/a
221.292	0.105	442584	keystroke_Key.space	Key.space	n/a
221.562	0.12	443124	keystroke_r	r	n/a
221.652	0.135	443304	keystroke_e	e	n/a
221.892	0.119	443784	keystroke_p	p	n/a
222.027	0.134	444054	keystroke_r	r	n/a
222.176	0.135	444352	keystroke_e	e	n/a
222.356	0.226	444712	keystroke_s	s	n/a
222.506	0.09	445012	keystroke_e	e	n/a
222.612	0.1345	445224	keystroke_n	n	n/a
222.716	0.1055	445432	keystroke_t	t	n/a
223.0465	0.1045	446093	keystroke_e	e	n/a
223.286	0.12	446572	keystroke_d	d	n/a
223.541	0.075	447082	keystroke_Key.enter	Key.enter	n/a
223.6295	5.4335	447259	prompt	n/a	manchester basic what's parent\n
224.261	0.1205	448522	keystroke_m	m	n/a
224.3665	0.12	448733	keystroke_a	a	n/a
224.4715	0.1355	448943	keystroke_n	n	n/a
224.697	0.12	449394	keystroke_c	c	n/a
224.757	0.135	449514	keystroke_h	h	n/a
224.952	0.18	449904	keystroke_e	e	n/a
225.117	0.1345	450234	keystroke_s	s	n/a
225.2365	0.105	450473	keystroke_t	t	n/a
225.3865	0.18	450773	keystroke_e	e	n/a
225.5065	0.15	451013	keystroke_r	r	n/a
225.6715	0.12	451343	keystroke_Key.space	Key.space	n/a
225.8515	0.135	451703	keystroke_b	b	n/a
225.9265	0.12	451853	keystroke_a	a	n/a
226.1815	0.1055	452363	keystroke_s	s	n/a
226.272	0.15	452544	keystroke_i	i	n/a
226.437	0.135	452874	keystroke_c	c	n/a
226.557	0.1345	453114	keystroke_Key.space	Key.space	n/a
226.7665	0.105	453533	keystroke_w	w	n/a
226.8415	0.135	453683	keystroke_h	h	n/a
227.0215	0.09	454043	keystroke_a	a	n/a
227.2165	0.135	454433	keystroke_t	t	n/a
227.3665	0.105	454733	keystroke_'	'	n/a
227.4865	0.15	454973	keystroke_s	s	n/a
227.6665	0.1205	455333	keystroke_Key.space	Key.space	n/a
227.802	0.135	455604	keystroke_p	p	n/a
227.892	0.12	455784	keystroke_a	a	n/a
228.252	0.09	456504	keystroke_r	r	n/a
228.477	0.12	456954	keystroke_e	e	n/a
228.612	0.12	457224	keystroke_n	n	n/a
228.746	0.12	457492	keystroke_t	t	n/a
229.002	0.06	458004	keystroke_Key.enter	Key.enter	n/a
229.0655	5.9525	458131	prompt	n/a	cylinder beads msgstr watts\n
229.781	0.121	459562	keystroke_c	c	n/a
230.097	0.105	460194	keystroke_y	y	n/a
230.262	0.18	460524	keystroke_l	l	n/a
230.367	0.165	460734	keystroke_i	i	n/a
230.487	0.1795	460974	keystroke_n	n	n/a
230.607	0.1045	461214	keystroke_d	d	n/a
230.8315	0.15	461663	keystroke_e	e	n/a
230.9365	0.165	461873	keystroke_r	r	n/a
231.0715	0.12	462143	keystroke_Key.space	Key.space	n/a
231.2365	0.165	462473	keystroke_b	b	n/a
231.3565	0.09	462713	keystroke_e	e	n/a
231.566	0.135	463132	keystroke_a	a	n/a
231.702	0.12	463404	keystroke_d	d	n/a
231.926	0.136	463852	keystroke_s	s	n/a
232.076	0.105	464152	keystroke_Key.space	Key.space	n/a
232.256	0.166	464512	keystroke_m	m	n/a
232.391	0.09	464782	keystroke_s	s	n/a
232.586	0.106	465172	keystroke_g	g	n/a
233.1715	0.09	466343	keystroke_s	s	n/a
233.4415	0.075	466883	keystroke_t	t	n/a
233.697	0.09	467394	keystroke_r	r	n/a
233.8615	0.1355	467723	keystroke_Key.space	Key.space	n/a
234.012	0.1195	468024	keystroke_w	w	n/a
234.1765	0.12	468353	keystroke_a	a	n/a
234.342	0.09	468684	keystroke_t	t	n/a
234.522	0.075	469044	keystroke_t	t	n/a
234.7165	0.135	469433	keystroke_s	s	n/a
234.9115	0.105	469823	keystroke_Key.enter	Key.enter	n/a
235.021	7.6175	470042	prompt	n/a	summit signs gray mono\n
235.5715	0.045	471143	keystroke_c	c	n/a
236.1415	0.06	472283	keystroke_Key.backspace	Key.backspace	n/a
236.3515	0.135	472703	keystroke_s	s	n/a
236.4715	0.09	472943	keystroke_u	u	n/a
236.711	0.075	473422	keystroke_m	m	n/a
236.846	0.091	473692	keystroke_m	m	n/a
237.057	0.09	474114	keystroke_b	b	n/a
237.657	0.0595	475314	keystroke_Key.backspace	Key.backspace	n/a
237.9415	0.12	475883	keystroke_i	i	n/a
238.0765	0.105	476153	keystroke_t	t	n/a
238.2715	0.105	476543	keystroke_Key.space	Key.space	n/a
238.4065	0.135	476813	keystroke_s	s	n/a
238.4965	0.135	476993	keystroke_i	i	n/a
238.6915	0.105	477383	keystroke_g	g	n/a
238.9465	0.135	477893	keystroke_n	n	n/a
239.1865	0.15	478373	keystroke_s	s	n/a
239.3815	0.12	478763	keystroke_Key.space	Key.space	n/a
239.6515	0.075	479303	keystroke_g	g	n/a
239.8765	0.105	479753	keystroke_r	r	n/a
239.9965	0.165	479993	keystroke_a	a	n/a
240.2815	0.12	480563	keystroke_y	y	n/a
240.5215	0.09	481043	keystroke_Key.space	Key.space	n/a
240.821	0.09	481642	keystroke_m	m	n/a
241.601	0.151	483202	keystroke_o	o	n/a
241.962	0.12	483924	keystroke_n	n	n/a
242.112	0.105	484224	keystroke_o	o	n/a
242.577	0.06	485154	keystroke_Key.enter	Key.enter	n/a
242.649	6.169	485298	prompt	n/a	excluding dutch inspiration scoop\n
243.2515	0.075	486503	keystroke_e	e	n/a
243.4915	0.105	486983	keystroke_x	x	n/a
243.717	0.135	487434	keystroke_c	c	n/a
243.822	0.12	487644	keystroke_l	l	n/a
244.017	0.1045	488034	keystroke_u	u	n/a
244.107	0.12	488214	keystroke_d	d	n/a
244.272	0.1495	488544	keystroke_i	i	n/a
244.4065	0.1355	488813	keystroke_n	n	n/a
244.4965	0.1055	488993	keystroke_g	g	n/a
244.632	0.1345	489264	keystroke_Key.space	Key.space	n/a
244.7675	0.149	489535	keystroke_d	d	n/a
244.9015	0.12	489803	keystroke_u	u	n/a
245.0665	0.0905	490133	keystroke_t	t	n/a
245.352	0.15	490704	keystroke_c	c	n/a
245.457	0.15	490914	keystroke_h	h	n/a
245.637	0.104	491274	keystroke_Key.space	Key.space	n/a
245.786	0.15	491572	keystroke_i	i	n/a
245.892	0.119	491784	keystroke_n	n	n/a
246.026	0.135	492052	keystroke_s	s	n/a
246.221	0.12	492442	keystroke_p	p	n/a
246.5365	0.12	493073	keystroke_i	i	n/a
246.6415	0.12	493283	keystroke_r	r	n/a
246.8965	0.09	493793	keystroke_a	a	n/a
247.1065	0.12	494213	keystroke_t	t	n/a
247.2415	0.15	494483	keystroke_i	i	n/a
247.3465	0.15	494693	keystroke_o	o	n/a
247.4215	0.195	494843	keystroke_n	n	n/a
247.6315	0.1205	495263	keystroke_Key.space	Key.space	n/a
247.737	0.135	495474	keystroke_s	s	n/a
247.947	0.15	495894	keystroke_c	c	n/a
248.082	0.075	496164	keystroke_o	o	n/a
248.247	0.075	496494	keystroke_o	o	n/a
248.472	0.09	496944	keystroke_p	p	n/a
248.742	0.075	497484	keystroke_Key.enter	Key.enter	n/a
248.821	6.973	497642	prompt	n/a	machinery eating lightweight alerts\n
249.537	0.12	499074	keystroke_m	m	n/a
249.642	0.1045	499284	keystroke_a	a	n/a
249.8365	0.15	499673	keystroke_c	c	n/a
249.9115	0.15	499823	keystroke_h	h	n/a
250.0765	0.12	500153	keystroke_i	i	n/a
250.1665	0.165	500333	keystroke_n	n	n/a
250.3015	0.105	500603	keystroke_e	e	n/a
250.4815	0.105	500963	keystroke_r	r	n/a
250.767	0.12	501534	keystroke_y	y	n/a
251.037	0.135	502074	keystroke_Key.space	Key.space	n/a
251.202	0.09	502404	keystroke_e	e	n/a
251.427	0.09	502854	keystroke_a	a	n/a
251.607	0.09	503214	keystroke_t	t	n/a
251.698	0.149	503396	keystroke_i	i	n/a
251.802	0.195	503604	keystroke_n	n	n/a
251.937	0.12	503874	keystroke_g	g	n/a
252.042	0.135	504084	keystroke_Key.space	Key.space	n/a
252.207	0.165	504414	keystroke_l	l	n/a
252.312	0.135	504624	keystroke_i	i	n/a
252.432	0.105	504864	keystroke_g	g	n/a
252.552	0.1495	505104	keystroke_h	h	n/a
252.6565	0.105	505313	keystroke_t	t	n/a
253.1815	0.105	506363	keystroke_w	w	n/a
253.4665	0.09	506933	keystroke_e	e	n/a
253.6315	0.135	507263	keystroke_i	i	n/a
253.7815	0.105	507563	keystroke_g	g	n/a
253.8865	0.12	507773	keystroke_h	h	n/a
254.037	0.1045	508074	keystroke_t	t	n/a
254.2465	0.12	508493	keystroke_Key.space	Key.space	n/a
254.637	0.1345	509274	keystroke_a	a	n/a
254.727	0.135	509454	keystroke_l	l	n/a
254.907	0.12	509814	keystroke_e	e	n/a
254.982	0.105	509964	keystroke_r	r	n/a
255.222	0.075	510444	keystroke_t	t	n/a
255.447	0.12	510894	keystroke_s	s	n/a
255.717	0.075	511434	keystroke_Key.enter	Key.enter	n/a
255.804	7.865	511608	prompt	n/a	stations hidden secretariat waiting\n
256.3775	0.089	512755	keystroke_s	s	n/a
256.5565	0.09	513113	keystroke_t	t	n/a
256.7065	0.165	513413	keystroke_a	a	n/a
256.8115	0.135	513623	keystroke_t	t	n/a
256.9315	0.18	513863	keystroke_i	i	n/a
257.0815	0.15	514163	keystroke_o	o	n/a
257.1715	0.165	514343	keystroke_n	n	n/a
257.3515	0.15	514703	keystroke_s	s	n/a
257.5765	0.12	515153	keystroke_Key.space	Key.space	n/a
257.7565	0.135	515513	keystroke_h	h	n/a
257.8615	0.15	515723	keystroke_i	i	n/a
258.0125	0.074	516025	keystroke_d	d	n/a
258.1915	0.09	516383	keystroke_d	d	n/a
258.4765	0.075	516953	keystroke_e	e	n/a
258.6715	0.15	517343	keystroke_n	n	n/a
258.8365	0.12	517673	keystroke_Key.space	Key.space	n/a
258.9115	0.135	517823	keystroke_s	s	n/a
259.2565	0.09	518513	keystroke_e	e	n/a
259.5265	0.105	519053	keystroke_c	c	n/a
259.8115	0.12	519623	keystroke_r	r	n/a
259.9015	0.15	519803	keystroke_e	e	n/a
260.877	0.09	521754	keystroke_t	t	n/a
261.252	0.15	522504	keystroke_a	a	n/a
261.372	0.135	522744	keystroke_r	r	n/a
261.566	0.151	523132	keystroke_i	i	n/a
261.896	0.106	523792	keystroke_a	a	n/a
262.122	0.104	524244	keystroke_t	t	n/a
262.346	0.106	524692	keystroke_Key.space	Key.space	n/a
262.602	0.12	525204	keystroke_w	w	n/a
262.767	0.12	525534	keystroke_a	a	n/a
262.841	0.12	525682	keystroke_i	i	n/a
263.021	0.105	526042	keystroke_t	t	n/a
263.111	0.135	526222	keystroke_i	i	n/a
263.201	0.1655	526402	keystroke_n	n	n/a
263.3515	0.09	526703	keystroke_g	g	n/a
263.5765	0.0905	527153	keystroke_Key.enter	Key.enter	n/a
263.6825	6.736	527365	prompt	n/a	lack attention background library\n
264.237	0.15	528474	keystroke_l	l	n/a
264.327	0.135	528654	keystroke_a	a	n/a
264.597	0.135	529194	keystroke_c	c	n/a
264.672	0.15	529344	keystroke_k	k	n/a
264.792	0.12	529584	keystroke_Key.space	Key.space	n/a
265.092	0.105	530184	keystroke_a	a	n/a
265.302	0.075	530604	keystroke_t	t	n/a
265.452	0.09	530904	keystroke_t	t	n/a
265.647	0.105	531294	keystroke_e	e	n/a
265.752	0.09	531504	keystroke_n	n	n/a
265.887	0.15	531774	keystroke_t	t	n/a
265.992	0.195	531984	keystroke_i	i	n/a
266.157	0.18	532314	keystroke_o	o	n/a
266.247	0.21	532494	keystroke_n	n	n/a
266.427	0.12	532854	keystroke_Key.space	Key.space	n/a
266.607	0.135	533214	keystroke_b	b	n/a
266.727	0.09	533454	keystroke_a	a	n/a
266.952	0.12	533904	keystroke_c	c	n/a
267.027	0.135	534054	keystroke_k	k	n/a
267.222	0.09	534444	keystroke_g	g	n/a
267.462	0.12	534924	keystroke_r	r	n/a
267.567	0.15	535134	keystroke_o	o	n/a
267.702	0.09	535404	keystroke_u	u	n/a
267.732	0.195	535464	keystroke_n	n	n/a
267.897	0.135	535794	keystroke_d	d	n/a
268.017	0.165	536034	keystroke_Key.space	Key.space	n/a
268.212	0.24	536424	keystroke_l	l	n/a
268.392	0.12	536784	keystroke_i	i	n/a
268.662	0.135	537324	keystroke_b	b	n/a
268.827	0.105	537654	keystroke_r	r	n/a
269.1115	0.06	538223	keystroke_r	r	n/a
269.5465	0.1055	539093	keystroke_Key.backspace	Key.backspace	n/a
269.712	0.135	539424	keystroke_a	a	n/a
269.802	0.09	539604	keystroke_r	r	n/a
270.072	0.09	540144	keystroke_y	y	n/a
270.327	0.09	540654	keystroke_Key.enter	Key.enter	n/a
270.4245	6.564	540849	prompt	n/a	humidity matrix artistic hire\n
271.137	0.165	542274	keystroke_h	h	n/a
271.257	0.105	542514	keystroke_u	u	n/a
271.557	0.09	543114	keystroke_m	m	n/a
272.0215	0.105	544043	keystroke_i	i	n/a
272.1865	0.15	544373	keystroke_d	d	n/a
272.3375	0.134	544675	keystroke_i	i	n/a
272.5165	0.09	545033	keystroke_t	t	n/a
272.7415	0.09	545483	keystroke_y	y	n/a
272.8765	0.105	545753	keystroke_Key.space	Key.space	n/a
273.1015	0.15	546203	keystroke_m	m	n/a
273.1915	0.09	546383	keystroke_a	a	n/a
273.3415	0.105	546683	keystroke_t	t	n/a
273.5665	0.105	547133	keystroke_r	r	n/a
273.7015	0.1505	547403	keystroke_i	i	n/a
273.942	0.135	547884	keystroke_x	x	n/a
274.182	0.12	548364	keystroke_Key.space	Key.space	n/a
274.422	0.135	548844	keystroke_a	a	n/a
274.587	0.1045	549174	keystroke_r	r	n/a
274.8115	0.105	549623	keystroke_t	t	n/a
274.9015	0.12	549803	keystroke_i	i	n/a
275.0815	0.12	550163	keystroke_s	s	n/a
275.4865	0.09	550973	keystroke_t	t	n/a
275.6665	0.135	551333	keystroke_i	i	n/a
275.8765	0.12	551753	keystroke_c	c	n/a
276.0715	0.12	552143	keystroke_Key.space	Key.space	n/a
276.2815	0.15	552563	keystroke_h	h	n/a
276.3415	0.165	552683	keystroke_i	i	n/a
276.4915	0.12	552983	keystroke_r	r	n/a
276.6715	0.15	553343	keystroke_e	e	n/a
276.8815	0.105	553763	keystroke_Key.enter	Key.enter	n/a
276.991	8.233	553982	prompt	n/a	liquid signed thumbnails recognize\n
277.692	0.1795	555384	keystroke_l	l	n/a
277.797	0.1495	555594	keystroke_i	i	n/a
278.0815	0.12	556163	keystroke_q	q	n/a
278.2465	0.165	556493	keystroke_u	u	n/a
278.3665	0.165	556733	keystroke_i	i	n/a
278.5465	0.15	557093	keystroke_d	d	n/a
278.7265	0.09	557453	keystroke_Key.space	Key.space	n/a
278.8465	0.12	557693	keystroke_s	s	n/a
278.9365	0.12	557873	keystroke_i	i	n/a
279.1615	0.12	558323	keystroke_g	g	n/a
279.2965	0.15	558593	keystroke_n	n	n/a
279.4765	0.09	558953	keystroke_e	e	n/a
279.717	0.135	559434	keystroke_d	d	n/a
279.972	0.12	559944	keystroke_Key.space	Key.space	n/a
280.137	0.165	560274	keystroke_t	t	n/a
280.242	0.195	560484	keystroke_h	h	n/a
280.482	0.075	560964	keystroke_e	e	n/a
280.842	0.075	561684	keystroke_Key.backspace	Key.backspace	n/a
281.127	0.09	562254	keystroke_u	u	n/a
281.367	0.105	562734	keystroke_m	m	n/a
281.532	0.12	563064	keystroke_b	b	n/a
282.2065	0.12	564413	keystroke_n	n	n/a
282.5665	0.135	565133	keystroke_a	a	n/a
282.6715	0.135	565343	keystroke_i	i	n/a
282.7765	0.18	565553	keystroke_l	l	n/a
282.9415	0.106	565883	keystroke_s	s	n/a
283.1665	0.105	566333	keystroke_Key.space	Key.space	n/a
283.497	0.105	566994	keystroke_r	r	n/a
283.587	0.12	567174	keystroke_e	e	n/a
283.842	0.135	567684	keystroke_c	c	n/a
283.947	0.105	567894	keystroke_o	o	n/a
284.157	0.105	568314	keystroke_g	g	n/a
284.247	0.105	568494	keystroke_n	n	n/a
284.442	0.12	568884	keystroke_i	i	n/a
284.532	0.12	569064	keystroke_z	z	n/a
284.817	0.09	569634	keystroke_e	e	n/a
285.147	0.075	570294	keystroke_Key.enter	Key.enter	n/a
285.234	9.545	570468	prompt	n/a	geographic sexuality variety firewire\n
285.837	0.105	571674	keystroke_g	g	n/a
286.032	0.135	572064	keystroke_e	e	n/a
286.152	0.12	572304	keystroke_o	o	n/a
286.257	0.105	572514	keystroke_r	r	n/a
286.542	0.1045	573084	keystroke_g	g	n/a
287.4415	0.075	574883	keystroke_Key.backspace	Key.backspace	n/a
287.6215	0.09	575243	keystroke_Key.backspace	Key.backspace	n/a
288.2515	0.105	576503	keystroke_g	g	n/a
288.5215	0.105	577043	keystroke_r	r	n/a
288.7615	0.135	577523	keystroke_a	a	n/a
288.9115	0.15	577823	keystroke_p	p	n/a
289.0765	0.12	578153	keystroke_h	h	n/a
289.2115	0.165	578423	keystroke_i	i	n/a
289.3615	0.12	578723	keystroke_c	c	n/a
289.4965	0.135	578993	keystroke_Key.space	Key.space	n/a
289.6915	0.12	579383	keystroke_s	s	n/a
289.8415	0.076	579683	keystroke_e	e	n/a
290.0665	0.1505	580133	keystroke_x	x	n/a
290.202	0.135	580404	keystroke_u	u	n/a
290.577	0.105	581154	keystroke_a	a	n/a
290.922	0.06	581844	keystroke_l	l	n/a
290.937	0.15	581874	keystroke_i	i	n/a
291.012	0.09	582024	keystroke_t	t	n/a
291.207	0.105	582414	keystroke_y	y	n/a
291.387	0.1055	582774	keystroke_Key.space	Key.space	n/a
291.5525	0.1045	583105	keystroke_v	v	n/a
291.792	0.135	583584	keystroke_a	a	n/a
291.8975	0.105	583795	keystroke_r	r	n/a
292.017	0.1805	584034	keystroke_i	i	n/a
292.317	0.075	584634	keystroke_e	e	n/a
292.7665	0.0755	585533	keystroke_t	t	n/a
293.037	0.09	586074	keystroke_y	y	n/a
293.292	0.105	586584	keystroke_Key.space	Key.space	n/a
293.412	0.105	586824	keystroke_f	f	n/a
293.502	0.1795	587004	keystroke_i	i	n/a
293.6665	0.12	587333	keystroke_r	r	n/a
293.8015	0.06	587603	keystroke_e	e	n/a
293.9965	0.075	587993	keystroke_w	w	n/a
294.252	0.12	588504	keystroke_i	i	n/a
294.402	0.1345	588804	keystroke_r	r	n/a
294.4915	0.15	588983	keystroke_e	e	n/a
294.6865	0.0905	589373	keystroke_Key.enter	Key.enter	n/a
294.789	5.6895	589578	prompt	n/a	decide targets info established\n
295.512	0.0895	591024	keystroke_d	d	n/a
295.7365	0.076	591473	keystroke_e	e	n/a
295.947	0.12	591894	keystroke_c	c	n/a
296.037	0.1345	592074	keystroke_i	i	n/a
296.1565	0.1055	592313	keystroke_d	d	n/a
296.4115	0.0745	592823	keystroke_e	e	n/a
296.517	0.119	593034	keystroke_Key.space	Key.space	n/a
296.712	0.09	593424	keystroke_t	t	n/a
296.907	0.195	593814	keystroke_a	a	n/a
297.027	0.105	594054	keystroke_r	r	n/a
297.267	0.09	594534	keystroke_g	g	n/a
297.387	0.12	594774	keystroke_e	e	n/a
297.552	0.12	595104	keystroke_t	t	n/a
297.702	0.135	595404	keystroke_s	s	n/a
297.807	0.135	595614	keystroke_Key.space	Key.space	n/a
298.002	0.165	596004	keystroke_i	i	n/a
298.152	0.15	596304	keystroke_n	n	n/a
298.317	0.135	596634	keystroke_f	f	n/a
298.437	0.18	596874	keystroke_o	o	n/a
298.572	0.15	597144	keystroke_Key.space	Key.space	n/a
298.737	0.15	597474	keystroke_e	e	n/a
298.902	0.15	597804	keystroke_s	s	n/a
299.007	0.135	598014	keystroke_t	t	n/a
299.202	0.135	598404	keystroke_a	a	n/a
299.307	0.075	598614	keystroke_b	b	n/a
299.487	0.18	598974	keystroke_l	l	n/a
299.607	0.135	599214	keystroke_i	i	n/a
299.697	0.15	599394	keystroke_s	s	n/a
299.832	0.135	599664	keystroke_h	h	n/a
299.982	0.075	599964	keystroke_e	e	n/a
300.162	0.135	600324	keystroke_d	d	n/a
300.402	0.075	600804	keystroke_Key.enter	Key.enter	n/a
300.4815	7.812	600963	prompt	n/a	dark workshops snowboard exhibitions\n
301.092	0.09	602184	keystroke_d	d	n/a
301.332	0.09	602664	keystroke_a	a	n/a
301.572	0.1195	603144	keystroke_r	r	n/a
301.7065	0.18	603413	keystroke_k	k	n/a
301.8565	0.12	603713	keystroke_Key.space	Key.space	n/a
301.9465	0.12	603893	keystroke_w	w	n/a
302.0815	0.105	604163	keystroke_o	o	n/a
302.1875	0.104	604375	keystroke_r	r	n/a
302.2925	0.1495	604585	keystroke_k	k	n/a
302.517	0.09	605034	keystroke_f	f	n/a
302.862	0.075	605724	keystroke_Key.backspace	Key.backspace	n/a
303.012	0.135	606024	keystroke_s	s	n/a
303.177	0.12	606354	keystroke_h	h	n/a
303.342	0.105	606684	keystroke_o	o	n/a
303.582	0.1195	607164	keystroke_p	p	n/a
303.6865	0.15	607373	keystroke_s	s	n/a
303.8965	0.12	607793	keystroke_Key.space	Key.space	n/a
304.1515	0.105	608303	keystroke_s	s	n/a
304.3315	0.12	608663	keystroke_n	n	n/a
304.4965	0.1355	608993	keystroke_o	o	n/a
304.602	0.105	609204	keystroke_w	w	n/a
304.977	0.09	609954	keystroke_b	b	n/a
305.247	0.075	610494	keystroke_o	o	n/a
305.337	0.09	610674	keystroke_a	a	n/a
305.442	0.105	610884	keystroke_r	r	n/a
305.6675	0.135	611335	keystroke_d	d	n/a
305.8475	0.105	611695	keystroke_Key.space	Key.space	n/a
306.0425	0.075	612085	keystroke_e	e	n/a
306.2825	0.1495	612565	keystroke_x	x	n/a
306.4615	0.15	612923	keystroke_h	h	n/a
306.5965	0.135	613193	keystroke_i	i	n/a
307.0765	0.09	614153	keystroke_b	b	n/a
307.3915	0.12	614783	keystroke_i	i	n/a
307.5265	0.12	615053	keystroke_t	t	n/a
307.6315	0.1205	615263	keystroke_i	i	n/a
307.737	0.1645	615474	keystroke_o	o	n/a
307.7965	0.15	615593	keystroke_n	n	n/a
307.9165	0.15	615833	keystroke_s	s	n/a
308.217	0.0745	616434	keystroke_Key.enter	Key.enter	n/a
308.304	6.364	616608	prompt	n/a	antique michelle our y'all\n
309.087	0.135	618174	keystroke_a	a	n/a
309.207	0.09	618414	keystroke_n	n	n/a
309.372	0.105	618744	keystroke_t	t	n/a
309.462	0.12	618924	keystroke_i	i	n/a
309.627	0.1345	619254	keystroke_q	q	n/a
309.7765	0.12	619553	keystroke_u	u	n/a
310.2115	0.12	620423	keystroke_e	e	n/a
310.6615	0.09	621323	keystroke_Key.space	Key.space	n/a
311.0815	0.12	622163	keystroke_m	m	n/a
311.2315	0.09	622463	keystroke_i	i	n/a
311.3515	0.135	622703	keystroke_c	c	n/a
311.4565	0.12	622913	keystroke_h	h	n/a
311.6815	0.105	623363	keystroke_l	l	n/a
312.042	0.075	624084	keystroke_Key.backspace	Key.backspace	n/a
312.162	0.12	624324	keystroke_e	e	n/a
312.312	0.105	624624	keystroke_l	l	n/a
312.492	0.135	624984	keystroke_l	l	n/a
312.612	0.12	625224	keystroke_e	e	n/a
312.702	0.12	625404	keystroke_Key.space	Key.space	n/a
312.882	0.18	625764	keystroke_o	o	n/a
313.002	0.15	626004	keystroke_u	u	n/a
313.122	0.12	626244	keystroke_r	r	n/a
313.287	0.12	626574	keystroke_Key.space	Key.space	n/a
313.437	0.135	626874	keystroke_y	y	n/a
313.662	0.12	627324	keystroke_'	'	n/a
313.977	0.09	627954	keystroke_a	a	n/a
314.112	0.105	628224	keystroke_l	l	n/a
314.307	0.105	628614	keystroke_l	l	n/a
314.592	0.075	629184	keystroke_Key.enter	Key.enter	n/a
314.671	5.7725	629342	prompt	n/a	pros anniversary noted bulk\n
315.312	0.105	630624	keystroke_p	p	n/a
315.417	0.09	630834	keystroke_r	r	n/a
315.537	0.15	631074	keystroke_o	o	n/a
315.672	0.15	631344	keystroke_s	s	n/a
315.837	0.105	631674	keystroke_Key.space	Key.space	n/a
315.972	0.12	631944	keystroke_a	a	n/a
316.107	0.12	632214	keystroke_n	n	n/a
316.302	0.09	632604	keystroke_n	n	n/a
316.452	0.15	632904	keystroke_i	i	n/a
316.557	0.09	633114	keystroke_v	v	n/a
316.752	0.1495	633504	keystroke_e	e	n/a
316.8565	0.1355	633713	keystroke_r	r	n/a
317.052	0.09	634104	keystroke_s	s	n/a
317.262	0.075	634524	keystroke_a	a	n/a
317.412	0.09	634824	keystroke_r	r	n/a
317.637	0.09	635274	keystroke_y	y	n/a
317.787	0.1345	635574	keystroke_Key.space	Key.space	n/a
317.9065	0.15	635813	keystroke_n	n	n/a
318.0415	0.165	636083	keystroke_o	o	n/a
318.1165	0.091	636233	keystroke_t	t	n/a
318.3415	0.09	636683	keystroke_e	e	n/a
318.5665	0.1355	637133	keystroke_d	d	n/a
318.657	0.105	637314	keystroke_Key.space	Key.space	n/a
318.762	0.12	637524	keystroke_b	b	n/a
318.927	0.12	637854	keystroke_u	u	n/a
319.182	0.15	638364	keystroke_l	l	n/a
319.317	0.15	638634	keystroke_d	d	n/a
319.827	0.06	639654	keystroke_Key.backspace	Key.backspace	n/a
320.0665	0.1055	640133	keystroke_k	k	n/a
320.382	0.06	640764	keystroke_Key.enter	Key.enter	n/a
320.446	6.4625	640892	prompt	n/a	return fighting contribution styles\n
321.027	0.105	642054	keystroke_r	r	n/a
321.147	0.135	642294	keystroke_e	e	n/a
321.327	0.105	642654	keystroke_t	t	n/a
321.462	0.105	642924	keystroke_u	u	n/a
321.582	0.105	643164	keystroke_r	r	n/a
321.702	0.18	643404	keystroke_n	n	n/a
321.867	0.105	643734	keystroke_Key.space	Key.space	n/a
322.077	0.105	644154	keystroke_g	g	n/a
322.632	0.075	645264	keystroke_Key.backspace	Key.backspace	n/a
322.767	0.09	645534	keystroke_f	f	n/a
322.887	0.12	645774	keystroke_i	i	n/a
323.022	0.105	646044	keystroke_g	g	n/a
323.142	0.12	646284	keystroke_h	h	n/a
323.277	0.12	646554	keystroke_t	t	n/a
323.427	0.135	646854	keystroke_i	i	n/a
323.517	0.24	647034	keystroke_n	n	n/a
323.727	0.105	647454	keystroke_g	g	n/a
323.8465	0.15	647693	keystroke_Key.space	Key.space	n/a
324.0865	0.1355	648173	keystroke_c	c	n/a
324.177	0.15	648354	keystroke_o	o	n/a
324.282	0.18	648564	keystroke_n	n	n/a
324.447	0.09	648894	keystroke_t	t	n/a
324.642	0.12	649284	keystroke_r	r	n/a
324.687	0.105	649374	keystroke_i	i	n/a
324.867	0.15	649734	keystroke_b	b	n/a
324.972	0.12	649944	keystroke_u	u	n/a
325.152	0.135	650304	keystroke_t	t	n/a
325.242	0.18	650484	keystroke_i	i	n/a
325.407	0.21	650814	keystroke_o	o	n/a
325.5115	0.1955	651023	keystroke_n	n	n/a
325.692	0.135	651384	keystroke_Key.space	Key.space	n/a
325.782	0.075	651564	keystroke_s	s	n/a
325.947	0.09	651894	keystroke_t	t	n/a
326.142	0.105	652284	keystroke_y	y	n/a
326.277	0.135	652554	keystroke_l	l	n/a
326.382	0.18	652764	keystroke_e	e	n/a
326.607	0.12	653214	keystroke_s	s	n/a
326.832	0.0745	653664	keystroke_Key.enter	Key.enter	n/a
326.911	4.9925	653822	prompt	n/a	musical sync grant yeast\n
327.5665	0.09	655133	keystroke_m	m	n/a
327.7915	0.09	655583	keystroke_u	u	n/a
327.8965	0.09	655793	keystroke_s	s	n/a
328.0165	0.105	656033	keystroke_i	i	n/a
328.1365	0.12	656273	keystroke_c	c	n/a
328.2715	0.15	656543	keystroke_a	a	n/a
328.3315	0.18	656663	keystroke_l	l	n/a
328.4815	0.135	656963	keystroke_Key.space	Key.space	n/a
328.5865	0.1205	657173	keystroke_s	s	n/a
328.857	0.09	657714	keystroke_y	y	n/a
328.962	0.15	657924	keystroke_n	n	n/a
329.187	0.1345	658374	keystroke_c	c	n/a
329.3065	0.105	658613	keystroke_Key.space	Key.space	n/a
329.4865	0.09	658973	keystroke_g	g	n/a
329.7265	0.105	659453	keystroke_r	r	n/a
329.8765	0.15	659753	keystroke_a	a	n/a
330.0115	0.165	660023	keystroke_n	n	n/a
330.2965	0.1055	660593	keystroke_t	t	n/a
330.447	0.135	660894	keystroke_Key.space	Key.space	n/a
330.732	0.09	661464	keystroke_y	y	n/a
330.942	0.09	661884	keystroke_e	e	n/a
331.212	0.075	662424	keystroke_a	a	n/a
331.407	0.09	662814	keystroke_s	s	n/a
331.632	0.075	663264	keystroke_t	t	n/a
331.827	0.075	663654	keystroke_Key.enter	Key.enter	n/a
331.9075	5.981	663815	prompt	n/a	curious chassis shapes contacting\n
332.547	0.135	665094	keystroke_c	c	n/a
332.757	0.105	665514	keystroke_u	u	n/a
332.892	0.1195	665784	keystroke_r	r	n/a
333.0415	0.135	666083	keystroke_i	i	n/a
333.1775	0.209	666355	keystroke_o	o	n/a
333.2965	0.18	666593	keystroke_u	u	n/a
333.4615	0.12	666923	keystroke_s	s	n/a
333.5515	0.1205	667103	keystroke_Key.space	Key.space	n/a
333.732	0.15	667464	keystroke_c	c	n/a
333.807	0.135	667614	keystroke_h	h	n/a
333.972	0.135	667944	keystroke_a	a	n/a
334.227	0.075	668454	keystroke_s	s	n/a
334.437	0.075	668874	keystroke_s	s	n/a
334.542	0.15	669084	keystroke_i	i	n/a
334.677	0.105	669354	keystroke_s	s	n/a
334.767	0.15	669534	keystroke_Key.space	Key.space	n/a
334.947	0.09	669894	keystroke_s	s	n/a
335.022	0.12	670044	keystroke_h	h	n/a
335.172	0.12	670344	keystroke_a	a	n/a
335.487	0.12	670974	keystroke_p	p	n/a
335.7425	0.165	671485	keystroke_e	e	n/a
335.8475	0.135	671695	keystroke_s	s	n/a
336.0125	0.1195	672025	keystroke_Key.space	Key.space	n/a
336.222	0.135	672444	keystroke_c	c	n/a
336.312	0.1345	672624	keystroke_o	o	n/a
336.387	0.1645	672774	keystroke_n	n	n/a
336.5365	0.105	673073	keystroke_t	t	n/a
336.7015	0.12	673403	keystroke_a	a	n/a
336.9415	0.105	673883	keystroke_c	c	n/a
337.2115	0.09	674423	keystroke_t	t	n/a
337.2865	0.135	674573	keystroke_i	i	n/a
337.3765	0.18	674753	keystroke_n	n	n/a
337.5715	0.09	675143	keystroke_g	g	n/a
337.7965	0.09	675593	keystroke_Key.enter	Key.enter	n/a
337.8935	6.7	675787	prompt	n/a	variables export drug somewhere\n
338.5765	0.105	677153	keystroke_v	v	n/a
338.8175	0.104	677635	keystroke_a	a	n/a
338.9365	0.136	677873	keystroke_r	r	n/a
339.1165	0.105	678233	keystroke_i	i	n/a
339.4615	0.091	678923	keystroke_b	b	n/a
339.5065	0.135	679013	keystroke_a	a	n/a
340.107	0.075	680214	keystroke_Key.backspace	Key.backspace	n/a
340.257	0.075	680514	keystroke_Key.backspace	Key.backspace	n/a
340.362	0.15	680724	keystroke_a	a	n/a
340.527	0.09	681054	keystroke_b	b	n/a
340.707	0.15	681414	keystroke_l	l	n/a
340.842	0.195	681684	keystroke_e	e	n/a
340.977	0.135	681954	keystroke_s	s	n/a
341.082	0.12	682164	keystroke_Key.space	Key.space	n/a
341.337	0.0745	682674	keystroke_e	e	n/a
341.5315	0.135	683063	keystroke_x	x	n/a
341.6515	0.15	683303	keystroke_p	p	n/a
341.7715	0.18	683543	keystroke_o	o	n/a
341.8915	0.105	683783	keystroke_r	r	n/a
342.1015	0.105	684203	keystroke_t	t	n/a
342.2215	0.12	684443	keystroke_Key.space	Key.space	n/a
342.3715	0.12	684743	keystroke_d	d	n/a
342.597	0.0905	685194	keystroke_r	r	n/a
342.7025	0.12	685405	keystroke_u	u	n/a
342.8825	0.09	685765	keystroke_g	g	n/a
343.0475	0.105	686095	keystroke_Key.space	Key.space	n/a
343.1675	0.165	686335	keystroke_s	s	n/a
343.3175	0.165	686635	keystroke_o	o	n/a
343.3925	0.165	686785	keystroke_m	m	n/a
343.5425	0.075	687085	keystroke_e	e	n/a
343.7675	0.105	687535	keystroke_w	w	n/a
343.8875	0.135	687775	keystroke_h	h	n/a
344.0075	0.135	688015	keystroke_e	e	n/a
344.1575	0.165	688315	keystroke_r	r	n/a
344.2775	0.1345	688555	keystroke_e	e	n/a
344.502	0.09	689004	keystroke_Key.enter	Key.enter	n/a
344.5975	6.0255	689195	prompt	n/a	cite fails started sector\n
345.252	0.12	690504	keystroke_c	c	n/a
345.447	0.12	690894	keystroke_i	i	n/a
345.582	0.105	691164	keystroke_t	t	n/a
345.762	0.135	691524	keystroke_e	e	n/a
345.957	0.09	691914	keystroke_Key.space	Key.space	n/a
346.048	0.104	692096	keystroke_f	f	n/a
346.182	0.135	692364	keystroke_a	a	n/a
346.318	0.089	692636	keystroke_l	l	n/a
346.7065	0.075	693413	keystroke_Key.backspace	Key.backspace	n/a
346.9765	0.18	693953	keystroke_i	i	n/a
347.1265	0.18	694253	keystroke_l	l	n/a
347.2765	0.1505	694553	keystroke_s	s	n/a
347.487	0.135	694974	keystroke_Key.space	Key.space	n/a
347.847	0.105	695694	keystroke_s	s	n/a
347.997	0.105	695994	keystroke_t	t	n/a
348.132	0.195	696264	keystroke_a	a	n/a
348.237	0.105	696474	keystroke_r	r	n/a
348.462	0.09	696924	keystroke_t	t	n/a
348.7015	0.075	697403	keystroke_e	e	n/a
348.8965	0.121	697793	keystroke_d	d	n/a
349.0615	0.121	698123	keystroke_Key.space	Key.space	n/a
349.1675	0.135	698335	keystroke_s	s	n/a
349.5415	0.091	699083	keystroke_e	e	n/a
349.7675	0.135	699535	keystroke_c	c	n/a
350.0515	0.0755	700103	keystroke_t	t	n/a
350.128	0.104	700256	keystroke_o	o	n/a
350.262	0.105	700524	keystroke_r	r	n/a
350.562	0.06	701124	keystroke_Key.enter	Key.enter	n/a
350.626	7.303	701252	prompt	n/a	burton electro cardiac midwest\n
351.3115	0.1205	702623	keystroke_b	b	n/a
351.537	0.105	703074	keystroke_u	u	n/a
351.672	0.105	703344	keystroke_r	r	n/a
351.942	0.12	703884	keystroke_t	t	n/a
352.047	0.12	704094	keystroke_o	o	n/a
352.107	0.195	704214	keystroke_n	n	n/a
352.317	0.12	704634	keystroke_Key.space	Key.space	n/a
352.572	0.105	705144	keystroke_e	e	n/a
352.737	0.1655	705474	keystroke_l	l	n/a
352.857	0.075	705714	keystroke_e	e	n/a
353.097	0.12	706194	keystroke_c	c	n/a
353.3675	0.1045	706735	keystroke_t	t	n/a
353.667	0.135	707334	keystroke_r	r	n/a
353.817	0.12	707634	keystroke_o	o	n/a
354.177	0.12	708354	keystroke_Key.space	Key.space	n/a
354.402	0.135	708804	keystroke_c	c	n/a
354.597	0.165	709194	keystroke_a	a	n/a
354.702	0.105	709404	keystroke_r	r	n/a
354.942	0.1195	709884	keystroke_d	d	n/a
355.1665	0.135	710333	keystroke_a	a	n/a
355.6015	0.165	711203	keystroke_c	c	n/a
355.8265	0.1205	711653	keystroke_Key.space	Key.space	n/a
356.052	0.18	712104	keystroke_m	m	n/a
356.217	0.12	712434	keystroke_i	i	n/a
356.292	0.105	712584	keystroke_d	d	n/a
356.6965	0.091	713393	keystroke_w	w	n/a
357.282	0.09	714564	keystroke_e	e	n/a
357.492	0.1655	714984	keystroke_s	s	n/a
357.612	0.105	715224	keystroke_t	t	n/a
357.8525	0.075	715705	keystroke_Key.enter	Key.enter	n/a
357.939	6.56	715878	prompt	n/a	sites albania prefers postings\n
358.482	0.09	716964	keystroke_s	s	n/a
358.572	0.1205	717144	keystroke_i	i	n/a
358.707	0.105	717414	keystroke_t	t	n/a
358.857	0.21	717714	keystroke_e	e	n/a
359.037	0.135	718074	keystroke_s	s	n/a
359.157	0.105	718314	keystroke_Key.space	Key.space	n/a
359.322	0.15	718644	keystroke_a	a	n/a
359.592	0.1345	719184	keystroke_l	l	n/a
359.8315	0.12	719663	keystroke_b	b	n/a
360.027	0.1345	720054	keystroke_a	a	n/a
360.192	0.1495	720384	keystroke_n	n	n/a
360.4315	0.09	720863	keystroke_a	a	n/a
360.8065	0.09	721613	keystroke_Key.backspace	Key.backspace	n/a
361.062	0.12	722124	keystroke_i	i	n/a
361.122	0.15	722244	keystroke_a	a	n/a
361.437	0.105	722874	keystroke_Key.space	Key.space	n/a
361.8715	0.105	723743	keystroke_p	p	n/a
361.9465	0.12	723893	keystroke_r	r	n/a
362.0215	0.136	724043	keystroke_e	e	n/a
362.2175	0.1195	724435	keystroke_f	f	n/a
362.367	0.165	724734	keystroke_e	e	n/a
362.502	0.135	725004	keystroke_r	r	n/a
362.7565	0.12	725513	keystroke_s	s	n/a
362.9365	0.12	725873	keystroke_Key.space	Key.space	n/a
363.0865	0.165	726173	keystroke_p	p	n/a
363.2365	0.135	726473	keystroke_o	o	n/a
363.3415	0.135	726683	keystroke_s	s	n/a
363.5065	0.12	727013	keystroke_i	i	n/a
363.6275	0.1045	727255	keystroke_t	t	n/a
363.7765	0.1355	727553	keystroke_i	i	n/a
363.8815	0.1055	727763	keystroke_n	n	n/a
363.957	0.105	727914	keystroke_g	g	n/a
364.212	0.1345	728424	keystroke_s	s	n/a
364.437	0.0595	728874	keystroke_Key.enter	Key.enter	n/a
364.5155	6.943	729031	prompt	n/a	terminal there'd joke include\n
365.112	0.09	730224	keystroke_t	t	n/a
365.337	0.1495	730674	keystroke_e	e	n/a
365.4115	0.165	730823	keystroke_r	r	n/a
365.5165	0.105	731033	keystroke_m	m	n/a
365.7415	0.12	731483	keystroke_i	i	n/a
365.8465	0.18	731693	keystroke_n	n	n/a
365.9815	0.15	731963	keystroke_a	a	n/a
366.1915	0.15	732383	keystroke_l	l	n/a
366.3565	0.1205	732713	keystroke_Key.space	Key.space	n/a
366.478	0.134	732956	keystroke_t	t	n/a
366.627	0.12	733254	keystroke_h	h	n/a
366.762	0.105	733524	keystroke_e	e	n/a
366.837	0.195	733674	keystroke_r	r	n/a
367.017	0.045	734034	keystroke_e	e	n/a
367.047	0.135	734094	keystroke_'	'	n/a
367.572	0.1205	735144	keystroke_d	d	n/a
367.7965	0.135	735593	keystroke_Key.space	Key.space	n/a
368.2465	0.18	736493	keystroke_j	j	n/a
368.3965	0.135	736793	keystroke_o	o	n/a
368.6375	0.134	737275	keystroke_k	k	n/a
368.8615	0.105	737723	keystroke_e	e	n/a
369.0265	0.136	738053	keystroke_Key.space	Key.space	n/a
369.1775	0.135	738355	keystroke_i	i	n/a
369.2975	0.165	738595	keystroke_n	n	n/a
369.5975	0.1345	739195	keystroke_c	c	n/a
369.747	0.09	739494	keystroke_i	i	n/a
369.822	0.105	739644	keystroke_d	d	n/a
370.1665	0.06	740333	keystroke_Key.backspace	Key.backspace	n/a
370.3015	0.09	740603	keystroke_Key.backspace	Key.backspace	n/a
370.572	0.12	741144	keystroke_l	l	n/a
370.797	0.075	741594	keystroke_u	u	n/a
370.857	0.09	741714	keystroke_d	d	n/a
371.112	0.075	742224	keystroke_e	e	n/a
371.382	0.075	742764	keystroke_Key.enter	Key.enter	n/a
371.4755	7.1985	742951	prompt	n/a	refine anatomy prime abilities\n
372.087	0.105	744174	keystroke_r	r	n/a
372.237	0.1055	744474	keystroke_e	e	n/a
372.522	0.135	745044	keystroke_f	f	n/a
372.687	0.135	745374	keystroke_i	i	n/a
372.792	0.135	745584	keystroke_n	n	n/a
372.972	0.12	745944	keystroke_e	e	n/a
373.122	0.1505	746244	keystroke_Key.space	Key.space	n/a
373.4525	0.12	746905	keystroke_a	a	n/a
373.5575	0.135	747115	keystroke_n	n	n/a
373.7375	0.1045	747475	keystroke_a	a	n/a
374.052	0.09	748104	keystroke_t	t	n/a
374.217	0.135	748434	keystroke_o	o	n/a
374.292	0.165	748584	keystroke_m	m	n/a
374.472	0.12	748944	keystroke_y	y	n/a
374.772	0.12	749544	keystroke_Key.space	Key.space	n/a
374.952	0.0905	749904	keystroke_a	a	n/a
375.2515	0.075	750503	keystroke_Key.backspace	Key.backspace	n/a
375.5065	0.105	751013	keystroke_p	p	n/a
375.6565	0.12	751313	keystroke_r	r	n/a
375.8515	0.135	751703	keystroke_i	i	n/a
375.9565	0.135	751913	keystroke_n	n	n/a
376.4215	0.045	752843	keystroke_Key.backspace	Key.backspace	n/a
376.7075	0.15	753415	keystroke_m	m	n/a
376.8125	0.12	753625	keystroke_e	e	n/a
376.9475	0.135	753895	keystroke_Key.space	Key.space	n/a
377.2475	0.134	754495	keystroke_a	a	n/a
377.3825	0.119	754765	keystroke_b	b	n/a
377.6075	0.134	755215	keystroke_i	i	n/a
377.8165	0.166	755633	keystroke_l	l	n/a
377.8925	0.149	755785	keystroke_i	i	n/a
378.0265	0.091	756053	keystroke_t	t	n/a
378.1615	0.106	756323	keystroke_i	i	n/a
378.2215	0.18	756443	keystroke_e	e	n/a
378.3865	0.121	756773	keystroke_s	s	n/a
378.6115	0.06	757223	keystroke_Key.enter	Key.enter	n/a
378.6845	5.779	757369	prompt	n/a	surprised checking answered timely\n
379.2715	0.136	758543	keystroke_s	s	n/a
379.3915	0.091	758783	keystroke_u	u	n/a
379.6315	0.106	759263	keystroke_r	r	n/a
379.7525	0.089	759505	keystroke_p	p	n/a
379.8865	0.106	759773	keystroke_r	r	n/a
380.0075	0.1195	760015	keystroke_i	i	n/a
380.082	0.21	760164	keystroke_s	s	n/a
380.247	0.12	760494	keystroke_e	e	n/a
380.487	0.135	760974	keystroke_d	d	n/a
380.637	0.1195	761274	keystroke_Key.space	Key.space	n/a
380.8315	0.12	761663	keystroke_c	c	n/a
380.9215	0.12	761843	keystroke_h	h	n/a
381.0565	0.075	762113	keystroke_e	e	n/a
381.2515	0.1505	762503	keystroke_c	c	n/a
381.3115	0.105	762623	keystroke_k	k	n/a
381.5215	0.135	763043	keystroke_i	i	n/a
381.6275	0.179	763255	keystroke_n	n	n/a
381.7765	0.105	763553	keystroke_g	g	n/a
381.8665	0.15	763733	keystroke_Key.space	Key.space	n/a
382.0615	0.12	764123	keystroke_a	a	n/a
382.1665	0.15	764333	keystroke_n	n	n/a
382.3765	0.09	764753	keystroke_s	s	n/a
382.6465	0.2105	765293	keystroke_w	w	n/a
382.782	0.18	765564	keystroke_e	e	n/a
382.902	0.165	765804	keystroke_r	r	n/a
383.082	0.09	766164	keystroke_e	e	n/a
383.292	0.09	766584	keystroke_d	d	n/a
383.397	0.12	766794	keystroke_Key.space	Key.space	n/a
383.532	0.12	767064	keystroke_t	t	n/a
383.622	0.135	767244	keystroke_i	i	n/a
383.712	0.165	767424	keystroke_m	m	n/a
383.8465	0.105	767693	keystroke_e	e	n/a
383.9815	0.1805	767963	keystroke_l	l	n/a
384.1165	0.1055	768233	keystroke_y	y	n/a
384.402	0.06	768804	keystroke_Key.enter	Key.enter	n/a
384.4665	6.027	768933	prompt	n/a	proven replacing wordpress throw\n
385.032	0.105	770064	keystroke_p	p	n/a
385.152	0.09	770304	keystroke_r	r	n/a
385.257	0.12	770514	keystroke_o	o	n/a
385.407	0.09	770814	keystroke_v	v	n/a
385.602	0.06	771204	keystroke_e	e	n/a
385.947	0.12	771894	keystroke_n	n	n/a
386.157	0.0905	772314	keystroke_Key.space	Key.space	n/a
386.3675	0.105	772735	keystroke_r	r	n/a
386.4275	0.15	772855	keystroke_e	e	n/a
386.5925	0.045	773185	keystroke_p	p	n/a
386.7575	0.1195	773515	keystroke_l	l	n/a
386.8475	0.0895	773695	keystroke_a	a	n/a
387.072	0.15	774144	keystroke_c	c	n/a
387.192	0.15	774384	keystroke_i	i	n/a
387.327	0.18	774654	keystroke_n	n	n/a
387.447	0.12	774894	keystroke_g	g	n/a
387.568	0.119	775136	keystroke_Key.space	Key.space	n/a
387.717	0.105	775434	keystroke_w	w	n/a
387.837	0.105	775674	keystroke_o	o	n/a
387.927	0.15	775854	keystroke_r	r	n/a
388.407	0.15	776814	keystroke_d	d	n/a
388.693	0.134	777386	keystroke_p	p	n/a
388.842	0.165	777684	keystroke_r	r	n/a
388.977	0.135	777954	keystroke_e	e	n/a
389.202	0.075	778404	keystroke_s	s	n/a
389.412	0.075	778824	keystroke_s	s	n/a
389.502	0.105	779004	keystroke_Key.space	Key.space	n/a
389.592	0.105	779184	keystroke_t	t	n/a
389.742	0.12	779484	keystroke_h	h	n/a
389.877	0.09	779754	keystroke_r	r	n/a
390.027	0.135	780054	keystroke_o	o	n/a
390.132	0.105	780264	keystroke_w	w	n/a
390.4025	0.0895	780805	keystroke_Key.enter	Key.enter	n/a
390.5035	5.735	781007	prompt	n/a	glory seeds objectives across\n
391.212	0.09	782424	keystroke_g	g	n/a
391.377	0.18	782754	keystroke_l	l	n/a
391.512	0.165	783024	keystroke_o	o	n/a
391.647	0.075	783294	keystroke_r	r	n/a
391.887	0.09	783774	keystroke_y	y	n/a
392.052	0.12	784104	keystroke_Key.space	Key.space	n/a
392.187	0.12	784374	keystroke_s	s	n/a
392.3525	0.09	784705	keystroke_e	e	n/a
392.5625	0.075	785125	keystroke_e	e	n/a
392.7425	0.164	785485	keystroke_d	d	n/a
392.8915	0.151	785783	keystroke_s	s	n/a
393.0115	0.135	786023	keystroke_Key.space	Key.space	n/a
393.1315	0.135	786263	keystroke_o	o	n/a
393.3715	0.105	786743	keystroke_b	b	n/a
393.5515	0.1655	787103	keystroke_j	j	n/a
393.657	0.075	787314	keystroke_e	e	n/a
393.867	0.075	787734	keystroke_c	c	n/a
394.092	0.09	788184	keystroke_t	t	n/a
394.212	0.135	788424	keystroke_i	i	n/a
394.362	0.09	788724	keystroke_v	v	n/a
394.527	0.18	789054	keystroke_e	e	n/a
394.647	0.15	789294	keystroke_s	s	n/a
394.812	0.105	789624	keystroke_Key.space	Key.space	n/a
394.902	0.09	789804	keystroke_a	a	n/a
395.172	0.015	790344	keystroke_c	c	n/a
395.442	0.105	790884	keystroke_r	r	n/a
395.577	0.1205	791154	keystroke_o	o	n/a
395.7425	0.09	791485	keystroke_s	s	n/a
395.9375	0.105	791875	keystroke_s	s	n/a
396.1775	0.06	792355	keystroke_Key.enter	Key.enter	n/a
396.2425	5.9515	792485	prompt	n/a	dale achieved servers creates\n
396.7915	0.105	793583	keystroke_d	d	n/a
397.1075	0.149	794215	keystroke_a	a	n/a
397.287	0.15	794574	keystroke_l	l	n/a
397.512	0.105	795024	keystroke_e	e	n/a
397.662	0.1505	795324	keystroke_Key.space	Key.space	n/a
397.8875	0.105	795775	keystroke_a	a	n/a
398.0825	0.149	796165	keystroke_c	c	n/a
398.2925	0.134	796585	keystroke_h	h	n/a
398.4115	0.15	796823	keystroke_i	i	n/a
398.5475	0.075	797095	keystroke_e	e	n/a
398.772	0.09	797544	keystroke_v	v	n/a
398.952	0.075	797904	keystroke_e	e	n/a
399.147	0.09	798294	keystroke_d	d	n/a
399.252	0.105	798504	keystroke_Key.space	Key.space	n/a
399.402	0.135	798804	keystroke_s	s	n/a
399.492	0.18	798984	keystroke_e	e	n/a
399.627	0.1055	799254	keystroke_r	r	n/a
399.8825	0.12	799765	keystroke_v	v	n/a
400.092	0.15	800184	keystroke_e	e	n/a
400.197	0.135	800394	keystroke_r	r	n/a
400.392	0.15	800784	keystroke_s	s	n/a
400.557	0.12	801114	keystroke_Key.space	Key.space	n/a
400.947	0.105	801894	keystroke_c	c	n/a
401.232	0.105	802464	keystroke_r	r	n/a
401.292	0.105	802584	keystroke_e	e	n/a
401.487	0.12	802974	keystroke_a	a	n/a
401.697	0.105	803394	keystroke_t	t	n/a
401.877	0.09	803754	keystroke_e	e	n/a
402.102	0.09	804204	keystroke_Key.enter	Key.enter	n/a
402.1965	5.217	804393	prompt	n/a	divisions ambient novelty isle\n
402.762	0.135	805524	keystroke_d	d	n/a
402.898	0.104	805796	keystroke_i	i	n/a
403.032	0.12	806064	keystroke_v	v	n/a
403.107	0.12	806214	keystroke_i	i	n/a
403.242	0.15	806484	keystroke_s	s	n/a
403.362	0.105	806724	keystroke_i	i	n/a
403.497	0.15	806994	keystroke_o	o	n/a
403.542	0.18	807084	keystroke_n	n	n/a
403.707	0.105	807414	keystroke_s	s	n/a
403.827	0.105	807654	keystroke_Key.space	Key.space	n/a
403.947	0.15	807894	keystroke_a	a	n/a
404.022	0.12	808044	keystroke_m	m	n/a
404.262	0.105	808524	keystroke_b	b	n/a
404.457	0.105	808914	keystroke_i	i	n/a
404.7125	0.12	809425	keystroke_e	e	n/a
404.8025	0.15	809605	keystroke_n	n	n/a
404.9375	0.12	809875	keystroke_t	t	n/a
405.0725	0.1345	810145	keystroke_Key.space	Key.space	n/a
405.237	0.15	810474	keystroke_n	n	n/a
405.402	0.15	810804	keystroke_o	o	n/a
405.687	0.12	811374	keystroke_v	v	n/a
405.882	0.105	811764	keystroke_e	e	n/a
405.972	0.135	811944	keystroke_l	l	n/a
406.122	0.075	812244	keystroke_t	t	n/a
406.332	0.09	812664	keystroke_y	y	n/a
406.452	0.105	812904	keystroke_Key.space	Key.space	n/a
406.707	0.12	813414	keystroke_i	i	n/a
406.828	0.134	813656	keystroke_s	s	n/a
406.947	0.15	813894	keystroke_l	l	n/a
407.112	0.075	814224	keystroke_e	e	n/a
407.337	0.075	814674	keystroke_Key.enter	Key.enter	n/a
407.4165	6.342	814833	prompt	n/a	committed tops they're provide\n
408.042	0.09	816084	keystroke_c	c	n/a
408.357	0.12	816714	keystroke_o	o	n/a
408.492	0.105	816984	keystroke_m	m	n/a
408.672	0.105	817344	keystroke_m	m	n/a
408.778	0.15	817556	keystroke_i	i	n/a
408.957	0.075	817914	keystroke_t	t	n/a
409.152	0.09	818304	keystroke_t	t	n/a
409.332	0.09	818664	keystroke_e	e	n/a
409.5425	0.09	819085	keystroke_d	d	n/a
409.6925	0.09	819385	keystroke_Key.space	Key.space	n/a
409.7975	0.105	819595	keystroke_t	t	n/a
409.8875	0.165	819775	keystroke_o	o	n/a
410.0375	0.135	820075	keystroke_p	p	n/a
410.5625	0.09	821125	keystroke_s	s	n/a
410.7575	0.105	821515	keystroke_Key.space	Key.space	n/a
410.9375	0.105	821875	keystroke_t	t	n/a
411.0575	0.105	822115	keystroke_h	h	n/a
411.1775	0.09	822355	keystroke_e	e	n/a
411.4175	0.0745	822835	keystroke_y	y	n/a
411.6125	0.1195	823225	keystroke_'	'	n/a
411.822	0.105	823644	keystroke_r	r	n/a
412.257	0.1055	824514	keystroke_e	e	n/a
412.422	0.1355	824844	keystroke_Key.space	Key.space	n/a
412.572	0.135	825144	keystroke_p	p	n/a
412.678	0.09	825356	keystroke_r	r	n/a
412.752	0.136	825504	keystroke_o	o	n/a
412.932	0.105	825864	keystroke_v	v	n/a
413.022	0.135	826044	keystroke_i	i	n/a
413.172	0.09	826344	keystroke_d	d	n/a
413.442	0.105	826884	keystroke_e	e	n/a
413.667	0.09	827334	keystroke_Key.enter	Key.enter	n/a
413.765	7.2395	827530	prompt	n/a	puerto merry generic britain\n
414.402	0.09	828804	keystroke_p	p	n/a
414.627	0.09	829254	keystroke_u	u	n/a
414.822	0.12	829644	keystroke_e	e	n/a
415.032	0.12	830064	keystroke_r	r	n/a
415.302	0.12	830604	keystroke_t	t	n/a
415.467	0.15	830934	keystroke_o	o	n/a
415.632	0.121	831264	keystroke_Key.space	Key.space	n/a
415.872	0.135	831744	keystroke_m	m	n/a
416.038	0.179	832076	keystroke_e	e	n/a
416.172	0.105	832344	keystroke_r	r	n/a
416.397	0.075	832794	keystroke_r	r	n/a
416.592	0.09	833184	keystroke_y	y	n/a
416.712	0.135	833424	keystroke_Key.space	Key.space	n/a
416.892	0.075	833784	keystroke_g	g	n/a
417.207	0.09	834414	keystroke_n	n	n/a
417.267	0.09	834534	keystroke_e	e	n/a
417.822	0.06	835644	keystroke_Key.backspace	Key.backspace	n/a
417.987	0.045	835974	keystroke_Key.backspace	Key.backspace	n/a
418.092	0.1205	836184	keystroke_e	e	n/a
418.2425	0.15	836485	keystroke_n	n	n/a
418.3625	0.12	836725	keystroke_e	e	n/a
418.5275	0.12	837055	keystroke_r	r	n/a
418.707	0.105	837414	keystroke_i	i	n/a
418.857	0.165	837714	keystroke_c	c	n/a
419.007	0.105	838014	keystroke_Key.space	Key.space	n/a
419.187	0.12	838374	keystroke_b	b	n/a
419.442	0.09	838884	keystroke_r	r	n/a
419.577	0.1205	839154	keystroke_i	i	n/a
419.7125	0.12	839425	keystroke_t	t	n/a
420.2375	0.12	840475	keystroke_a	a	n/a
420.4925	0.15	840985	keystroke_i	i	n/a
420.5975	0.15	841195	keystroke_n	n	n/a
420.942	0.06	841884	keystroke_Key.enter	Key.enter	n/a
421.0145	7.2345	842029	prompt	n/a	defensive proposals danger variable\n
421.587	0.12	843174	keystroke_d	d	n/a
421.797	0.09	843594	keystroke_e	e	n/a
421.977	0.12	843954	keystroke_f	f	n/a
422.187	0.105	844374	keystroke_e	e	n/a
422.3675	0.09	844735	keystroke_n	n	n/a
422.4725	0.09	844945	keystroke_s	s	n/a
422.5925	0.135	845185	keystroke_i	i	n/a
422.7575	0.09	845515	keystroke_v	v	n/a
422.952	0.12	845904	keystroke_e	e	n/a
423.087	0.09	846174	keystroke_Key.space	Key.space	n/a
423.192	0.135	846384	keystroke_p	p	n/a
423.282	0.105	846564	keystroke_r	r	n/a
423.402	0.12	846804	keystroke_o	o	n/a
423.642	0.06	847284	keystroke_s	s	n/a
423.987	0.075	847974	keystroke_Key.backspace	Key.backspace	n/a
424.272	0.12	848544	keystroke_p	p	n/a
424.437	0.12	848874	keystroke_o	o	n/a
424.602	0.075	849204	keystroke_s	s	n/a
424.887	0.12	849774	keystroke_a	a	n/a
424.977	0.1355	849954	keystroke_l	l	n/a
425.1875	0.12	850375	keystroke_s	s	n/a
425.3225	0.15	850645	keystroke_Key.space	Key.space	n/a
425.5025	0.12	851005	keystroke_d	d	n/a
425.7575	0.12	851515	keystroke_a	a	n/a
425.8625	0.135	851725	keystroke_n	n	n/a
425.9825	0.12	851965	keystroke_g	g	n/a
426.1625	0.225	852325	keystroke_e	e	n/a
426.3575	0.12	852715	keystroke_r	r	n/a
426.5075	0.135	853015	keystroke_Key.space	Key.space	n/a
426.657	0.12	853314	keystroke_v	v	n/a
426.867	0.15	853734	keystroke_a	a	n/a
427.047	0.135	854094	keystroke_r	r	n/a
427.167	0.09	854334	keystroke_i	i	n/a
427.467	0.135	854934	keystroke_a	a	n/a
427.587	0.09	855174	keystroke_b	b	n/a
427.812	0.15	855624	keystroke_l	l	n/a
427.917	0.105	855834	keystroke_e	e	n/a
428.157	0.09	856314	keystroke_Key.enter	Key.enter	n/a
428.259	5.63	856518	prompt	n/a	closure side pins kansas\n
428.983	0.134	857966	keystroke_c	c	n/a
429.177	0.18	858354	keystroke_l	l	n/a
429.327	0.15	858654	keystroke_o	o	n/a
429.462	0.105	858924	keystroke_s	s	n/a
429.612	0.12	859224	keystroke_u	u	n/a
429.747	0.18	859494	keystroke_r	r	n/a
429.882	0.135	859764	keystroke_e	e	n/a
430.032	0.105	860064	keystroke_Key.space	Key.space	n/a
430.152	0.135	860304	keystroke_s	s	n/a
430.242	0.165	860484	keystroke_i	i	n/a
430.392	0.0905	860784	keystroke_d	d	n/a
430.617	0.12	861234	keystroke_e	e	n/a
430.782	0.09	861564	keystroke_Key.space	Key.space	n/a
430.902	0.15	861804	keystroke_p	p	n/a
431.097	0.165	862194	keystroke_i	i	n/a
431.202	0.21	862404	keystroke_n	n	n/a
431.397	0.12	862794	keystroke_s	s	n/a
431.562	0.075	863124	keystroke_Key.space	Key.space	n/a
431.712	0.1505	863424	keystroke_k	k	n/a
431.9365	0.166	863873	keystroke_a	a	n/a
432.0875	0.135	864175	keystroke_n	n	n/a
433.1525	0.0595	866305	keystroke_s	s	n/a
433.332	0.105	866664	keystroke_a	a	n/a
433.572	0.105	867144	keystroke_s	s	n/a
433.857	0.03	867714	keystroke_Key.enter	Key.enter	n/a
433.8925	7.5115	867785	prompt	n/a	within municipality volume mating\n
434.592	0.015	869184	keystroke_w	w	n/a
434.622	0.075	869244	keystroke_i	i	n/a
434.712	0.15	869424	keystroke_t	t	n/a
434.847	0.09	869694	keystroke_h	h	n/a
434.907	0.18	869814	keystroke_i	i	n/a
435.042	0.21	870084	keystroke_n	n	n/a
435.267	0.135	870534	keystroke_Key.space	Key.space	n/a
436.122	0.105	872244	keystroke_m	m	n/a
436.4215	0.105	872843	keystroke_u	u	n/a
436.7215	0.106	873443	keystroke_n	n	n/a
436.8465	0.145	873693	keystroke_i	i	n/a
437.0515	0.1355	874103	keystroke_c	c	n/a
437.247	0.1205	874494	keystroke_i	i	n/a
437.5775	0.105	875155	keystroke_p	p	n/a
437.7725	0.12	875545	keystroke_a	a	n/a
438.0425	0.18	876085	keystroke_l	l	n/a
438.1625	0.18	876325	keystroke_i	i	n/a
438.2375	0.09	876475	keystroke_t	t	n/a
438.4475	0.09	876895	keystroke_y	y	n/a
438.5825	0.12	877165	keystroke_Key.space	Key.space	n/a
438.8075	0.135	877615	keystroke_v	v	n/a
438.9125	0.105	877825	keystroke_o	o	n/a
439.1525	0.09	878305	keystroke_l	l	n/a
439.3775	0.09	878755	keystroke_u	u	n/a
439.6625	0.075	879325	keystroke_m	m	n/a
439.7225	0.135	879445	keystroke_e	e	n/a
439.8875	0.135	879775	keystroke_Key.space	Key.space	n/a
440.412	0.18	880824	keystroke_m	m	n/a
440.547	0.09	881094	keystroke_a	a	n/a
440.757	0.09	881514	keystroke_t	t	n/a
440.862	0.15	881724	keystroke_i	i	n/a
440.967	0.135	881934	keystroke_n	n	n/a
441.132	0.105	882264	keystroke_g	g	n/a
441.312	0.0905	882624	keystroke_Key.enter	Key.enter	n/a
441.4065	7.018	882813	prompt	n/a	launched mystery joyce improvement\n
442.1225	0.135	884245	keystroke_l	l	n/a
442.3025	0.15	884605	keystroke_a	a	n/a
442.4225	0.09	884845	keystroke_u	u	n/a
442.5875	0.1045	885175	keystroke_n	n	n/a
442.707	0.18	885414	keystroke_c	c	n/a
442.917	0.135	885834	keystroke_h	h	n/a
443.187	0.09	886374	keystroke_e	e	n/a
443.382	0.105	886764	keystroke_d	d	n/a
443.502	0.105	887004	keystroke_Key.space	Key.space	n/a
443.712	0.18	887424	keystroke_m	m	n/a
443.8775	0.1195	887755	keystroke_y	y	n/a
444.1325	0.135	888265	keystroke_s	s	n/a
444.4625	0.09	888925	keystroke_e	e	n/a
444.8675	0.105	889735	keystroke_Key.backspace	Key.backspace	n/a
444.9425	0.09	889885	keystroke_t	t	n/a
445.1975	0.1345	890395	keystroke_e	e	n/a
445.2575	0.1495	890515	keystroke_r	r	n/a
445.527	0.105	891054	keystroke_y	y	n/a
445.677	0.105	891354	keystroke_Key.space	Key.space	n/a
445.902	0.135	891804	keystroke_j	j	n/a
446.022	0.15	892044	keystroke_o	o	n/a
446.082	0.105	892164	keystroke_y	y	n/a
446.382	0.12	892764	keystroke_c	c	n/a
446.577	0.12	893154	keystroke_e	e	n/a
446.697	0.135	893394	keystroke_Key.space	Key.space	n/a
446.862	0.165	893724	keystroke_i	i	n/a
447.012	0.135	894024	keystroke_m	m	n/a
447.162	0.135	894324	keystroke_p	p	n/a
447.252	0.09	894504	keystroke_r	r	n/a
447.387	0.12	894774	keystroke_o	o	n/a
447.492	0.105	894984	keystroke_v	v	n/a
447.657	0.105	895314	keystroke_e	e	n/a
447.763	0.134	895526	keystroke_m	m	n/a
447.912	0.105	895824	keystroke_e	e	n/a
448.002	0.12	896004	keystroke_n	n	n/a
448.167	0.12	896334	keystroke_t	t	n/a
448.332	0.09	896664	keystroke_Key.enter	Key.enter	n/a
448.435	6.1985	896870	prompt	n/a	feeding mechanics social rugs\n
449.082	0.09	898164	keystroke_f	f	n/a
449.277	0.09	898554	keystroke_e	e	n/a
449.472	0.061	898944	keystroke_e	e	n/a
449.6525	0.105	899305	keystroke_d	d	n/a
449.7425	0.165	899485	keystroke_i	i	n/a
449.8475	0.195	899695	keystroke_n	n	n/a
449.9825	0.105	899965	keystroke_g	g	n/a
450.088	0.1645	900176	keystroke_Key.space	Key.space	n/a
450.387	0.15	900774	keystroke_m	m	n/a
450.507	0.18	901014	keystroke_e	e	n/a
450.657	0.12	901314	keystroke_r	r	n/a
451.092	0.105	902184	keystroke_Key.backspace	Key.backspace	n/a
451.242	0.15	902484	keystroke_c	c	n/a
451.422	0.15	902844	keystroke_h	h	n/a
451.737	0.165	903474	keystroke_a	a	n/a
451.857	0.105	903714	keystroke_n	n	n/a
452.097	0.135	904194	keystroke_i	i	n/a
452.217	0.135	904434	keystroke_c	c	n/a
452.487	0.15	904974	keystroke_s	s	n/a
452.667	0.12	905334	keystroke_Key.space	Key.space	n/a
452.9375	0.1345	905875	keystroke_s	s	n/a
453.042	0.12	906084	keystroke_o	o	n/a
453.222	0.135	906444	keystroke_c	c	n/a
453.313	0.089	906626	keystroke_i	i	n/a
453.447	0.1655	906894	keystroke_a	a	n/a
453.552	0.1655	907104	keystroke_l	l	n/a
453.6875	0.135	907375	keystroke_Key.space	Key.space	n/a
453.7925	0.105	907585	keystroke_r	r	n/a
453.9275	0.135	907855	keystroke_u	u	n/a
454.092	0.105	908184	keystroke_g	g	n/a
454.332	0.15	908664	keystroke_s	s	n/a
454.527	0.105	909054	keystroke_Key.enter	Key.enter	n/a
454.637	5.307	909274	prompt	n/a	regulation peers exposure comp\n
455.2775	0.135	910555	keystroke_r	r	n/a
455.4575	0.105	910915	keystroke_e	e	n/a
455.6675	0.1195	911335	keystroke_g	g	n/a
455.7425	0.0895	911485	keystroke_u	u	n/a
455.952	0.12	911904	keystroke_l	l	n/a
456.027	0.075	912054	keystroke_a	a	n/a
456.222	0.12	912444	keystroke_t	t	n/a
456.252	0.18	912504	keystroke_i	i	n/a
456.387	0.165	912774	keystroke_o	o	n/a
456.462	0.21	912924	keystroke_n	n	n/a
456.642	0.15	913284	keystroke_Key.space	Key.space	n/a
456.747	0.165	913494	keystroke_p	p	n/a
456.883	0.089	913766	keystroke_e	e	n/a
457.092	0.135	914184	keystroke_e	e	n/a
457.258	0.149	914516	keystroke_r	r	n/a
457.452	0.15	914904	keystroke_s	s	n/a
457.587	0.135	915174	keystroke_Key.space	Key.space	n/a
457.737	0.105	915474	keystroke_e	e	n/a
457.992	0.12	915984	keystroke_x	x	n/a
458.097	0.12	916194	keystroke_p	p	n/a
458.262	0.135	916524	keystroke_o	o	n/a
458.457	0.12	916914	keystroke_s	s	n/a
458.592	0.15	917184	keystroke_u	u	n/a
458.757	0.18	917514	keystroke_r	r	n/a
458.952	0.09	917904	keystroke_e	e	n/a
459.072	0.1055	918144	keystroke_Key.space	Key.space	n/a
459.2065	0.181	918413	keystroke_c	c	n/a
459.2825	0.135	918565	keystroke_o	o	n/a
459.4025	0.18	918805	keystroke_m	m	n/a
459.5825	0.09	919165	keystroke_p	p	n/a
459.8665	0.075	919733	keystroke_Key.enter	Key.enter	n/a
459.9485	7.0315	919897	prompt	n/a	engineering toll orientation angeles\n
460.512	0.121	921024	keystroke_e	e	n/a
460.6775	0.12	921355	keystroke_n	n	n/a
460.8125	0.1195	921625	keystroke_g	g	n/a
460.947	0.15	921894	keystroke_i	i	n/a
461.082	0.12	922164	keystroke_n	n	n/a
461.472	0.075	922944	keystroke_e	e	n/a
461.742	0.0905	923484	keystroke_e	e	n/a
461.892	0.12	923784	keystroke_r	r	n/a
462.042	0.135	924084	keystroke_i	i	n/a
462.147	0.21	924294	keystroke_n	n	n/a
462.252	0.12	924504	keystroke_g	g	n/a
462.387	0.12	924774	keystroke_Key.space	Key.space	n/a
462.492	0.15	924984	keystroke_t	t	n/a
462.597	0.0905	925194	keystroke_o	o	n/a
462.8075	0.09	925615	keystroke_l	l	n/a
463.0025	0.12	926005	keystroke_l	l	n/a
463.1375	0.15	926275	keystroke_Key.space	Key.space	n/a
463.2575	0.15	926515	keystroke_o	o	n/a
463.3775	0.105	926755	keystroke_r	r	n/a
463.5425	0.1045	927085	keystroke_i	i	n/a
463.708	0.119	927416	keystroke_e	e	n/a
463.857	0.135	927714	keystroke_n	n	n/a
463.932	0.12	927864	keystroke_t	t	n/a
464.112	0.1955	928224	keystroke_a	a	n/a
464.2625	0.12	928525	keystroke_t	t	n/a
464.3975	0.105	928795	keystroke_i	i	n/a
464.5175	0.165	929035	keystroke_o	o	n/a
464.5775	0.225	929155	keystroke_n	n	n/a
464.7875	0.12	929575	keystroke_Key.space	Key.space	n/a
464.8925	0.165	929785	keystroke_a	a	n/a
465.0125	0.135	930025	keystroke_n	n	n/a
465.1775	0.105	930355	keystroke_g	g	n/a
465.3275	0.12	930655	keystroke_l	l	n/a
465.8225	0.075	931645	keystroke_Key.backspace	Key.backspace	n/a
465.927	0.135	931854	keystroke_e	e	n/a
466.137	0.15	932274	keystroke_l	l	n/a
466.467	0.18	932934	keystroke_e	e	n/a
466.677	0.105	933354	keystroke_s	s	n/a
466.947	0.03	933894	keystroke_Key.enter	Key.enter	n/a
466.9925	8.267	933985	prompt	n/a	tiffany arabia political consolidated\n
467.6975	0.09	935395	keystroke_t	t	n/a
467.8925	0.135	935785	keystroke_i	i	n/a
468.2225	0.09	936445	keystroke_f	f	n/a
468.672	0.09	937344	keystroke_f	f	n/a
468.957	0.105	937914	keystroke_a	a	n/a
469.047	0.15	938094	keystroke_n	n	n/a
469.227	0.135	938454	keystroke_y	y	n/a
469.452	0.105	938904	keystroke_Key.space	Key.space	n/a
469.647	0.105	939294	keystroke_a	a	n/a
469.857	0.12	939714	keystroke_r	r	n/a
470.067	0.12	940134	keystroke_a	a	n/a
470.217	0.12	940434	keystroke_b	b	n/a
