onset	duration	sample	value	key	prompt_text
2.6355	12.961	5271	prompt	n/a	the quick brown fox jumps over a lazy dog\n
5.471	0.028	10942	keystroke_t	t	n/a
5.544	0.06	11088	keystroke_h	h	n/a
5.649	0.075	11298	keystroke_e	e	n/a
5.739	0.135	11478	keystroke_Key.space	Key.space	n/a
5.979	0.1465	11958	keystroke_q	q	n/a
6.2005	0.0895	12401	keystroke_u	u	n/a
6.366	0.149	12732	keystroke_c	c	n/a
6.53	0.092	13060	keystroke_k	k	n/a
6.9665	0.075	13933	keystroke_Key.backspace	Key.backspace	n/a
7.1165	0.0755	14233	keystroke_Key.backspace	Key.backspace	n/a
8.0015	0.06	16003	keystroke_i	i	n/a
8.1815	0.135	16363	keystroke_c	c	n/a
8.2865	0.09	16573	keystroke_k	k	n/a
8.4365	0.09	16873	keystroke_Key.space	Key.space	n/a
8.827	0.0895	17654	keystroke_b	b	n/a
9.0815	0.135	18163	keystroke_r	r	n/a
9.1865	0.075	18373	keystroke_o	o	n/a
9.2765	0.106	18553	keystroke_w	w	n/a
9.3965	0.075	18793	keystroke_n	n	n/a
9.5015	0.09	19003	keystroke_Key.space	Key.space	n/a
9.6365	0.135	19273	keystroke_f	f	n/a
9.7865	0.061	19573	keystroke_o	o	n/a
9.8915	0.12	19783	keystroke_x	x	n/a
10.0415	0.135	20083	keystroke_Key.space	Key.space	n/a
10.5065	0.09	21013	keystroke_j	j	n/a
10.7015	0.06	21403	keystroke_u	u	n/a
10.9265	0.105	21853	keystroke_m	m	n/a
11.3165	0.0905	22633	keystroke_p	p	n/a
11.6315	0.09	23263	keystroke_s	s	n/a
11.7815	0.12	23563	keystroke_Key.space	Key.space	n/a
11.9615	0.09	23923	keystroke_o	o	n/a
12.5765	0.18	25153	keystroke_v	v	n/a
12.7415	0.1655	25483	keystroke_e	e	n/a
12.892	0.105	25784	keystroke_r	r	n/a
13.042	0.1045	26084	keystroke_Key.space	Key.space	n/a
13.3115	0.09	26623	keystroke_a	a	n/a
13.4165	0.105	26833	keystroke_Key.space	Key.space	n/a
13.5515	0.105	27103	keystroke_l	l	n/a
13.7015	0.09	27403	keystroke_a	a	n/a
13.9115	0.15	27823	keystroke_z	z	n/a
14.1065	0.06	28213	keystroke_y	y	n/a
14.8265	0.1195	29653	keystroke_Key.space	Key.space	n/a
15.051	0.136	30102	keystroke_d	d	n/a
15.172	0.074	30344	keystroke_o	o	n/a
15.306	0.106	30612	keystroke_g	g	n/a
15.531	0.06	31062	keystroke_Key.enter	Key.enter	n/a
15.605	12.2745	31210	prompt	n/a	irish cons hygiene photographer\n
16.4765	0.06	32953	keystroke_i	i	n/a
16.6265	0.06	33253	keystroke_s	s	n/a
17.092	0.06	34184	keystroke_Key.backspace	Key.backspace	n/a
17.227	0.12	34454	keystroke_r	r	n/a
17.691	0.075	35382	keystroke_i	i	n/a
17.827	0.09	35654	keystroke_s	s	n/a
18.202	0.075	36404	keystroke_h	h	n/a
18.3815	0.135	36763	keystroke_Key.space	Key.space	n/a
18.6515	0.135	37303	keystroke_c	c	n/a
18.7115	0.09	37423	keystroke_o	o	n/a
18.8165	0.09	37633	keystroke_n	n	n/a
19.027	0.0895	38054	keystroke_s	s	n/a
19.1315	0.1055	38263	keystroke_Key.space	Key.space	n/a
19.387	0.09	38774	keystroke_h	h	n/a
19.492	0.105	38984	keystroke_e	e	n/a
19.642	0.0595	39284	keystroke_y	y	n/a
20.167	0.06	40334	keystroke_Key.backspace	Key.backspace	n/a
20.302	0.075	40604	keystroke_Key.backspace	Key.backspace	n/a
20.557	0.075	41114	keystroke_y	y	n/a
20.872	0.15	41744	keystroke_g	g	n/a
21.142	0.075	42284	keystroke_i	i	n/a
21.262	0.12	42524	keystroke_e	e	n/a
21.397	0.09	42794	keystroke_n	n	n/a
21.8465	0.12	43693	keystroke_e	e	n/a
23.3615	0.12	46723	keystroke_Key.space	Key.space	n/a
23.782	0.09	47564	keystroke_p	p	n/a
23.947	0.09	47894	keystroke_o	o	n/a
24.187	0.105	48374	keystroke_t	t	n/a
24.337	0.045	48674	keystroke_o	o	n/a
24.622	0.06	49244	keystroke_Key.backspace	Key.backspace	n/a
24.832	0.015	49664	keystroke_Key.backspace	Key.backspace	n/a
24.907	0.075	49814	keystroke_Key.backspace	Key.backspace	n/a
25.312	0.105	50624	keystroke_h	h	n/a
25.537	0.075	51074	keystroke_o	o	n/a
25.687	0.12	51374	keystroke_t	t	n/a
25.837	0.12	51674	keystroke_o	o	n/a
26.467	0.1045	52934	keystroke_g	g	n/a
26.6765	0.136	53353	keystroke_r	r	n/a
26.7815	0.12	53563	keystroke_a	a	n/a
26.9915	0.105	53983	keystroke_p	p	n/a
27.157	0.09	54314	keystroke_h	h	n/a
27.367	0.105	54734	keystroke_e	e	n/a
27.442	0.12	54884	keystroke_r	r	n/a
27.802	0.074	55604	keystroke_Key.enter	Key.enter	n/a
27.887	7.4765	55774	prompt	n/a	rotary voltage explicit betting\n
28.867	0.105	57734	keystroke_r	r	n/a
29.107	0.06	58214	keystroke_o	o	n/a
29.197	0.135	58394	keystroke_t	t	n/a
29.362	0.165	58724	keystroke_a	a	n/a
29.587	0.135	59174	keystroke_r	r	n/a
29.782	0.105	59564	keystroke_y	y	n/a
29.902	0.135	59804	keystroke_Key.space	Key.space	n/a
30.097	0.135	60194	keystroke_v	v	n/a
30.367	0.045	60734	keystroke_o	o	n/a
30.532	0.075	61064	keystroke_l	l	n/a
30.667	0.15	61334	keystroke_t	t	n/a
30.832	0.105	61664	keystroke_a	a	n/a
30.982	0.135	61964	keystroke_g	g	n/a
31.117	0.105	62234	keystroke_e	e	n/a
31.312	0.09	62624	keystroke_Key.space	Key.space	n/a
31.537	0.105	63074	keystroke_e	e	n/a
31.777	0.12	63554	keystroke_x	x	n/a
32.0315	0.12	64063	keystroke_p	p	n/a
32.2565	0.12	64513	keystroke_l	l	n/a
32.3615	0.0755	64723	keystroke_i	i	n/a
32.557	0.12	65114	keystroke_c	c	n/a
32.692	0.075	65384	keystroke_i	i	n/a
32.962	0.105	65924	keystroke_t	t	n/a
33.607	0.135	67214	keystroke_Key.space	Key.space	n/a
34.252	0.09	68504	keystroke_b	b	n/a
34.387	0.105	68774	keystroke_e	e	n/a
34.597	0.075	69194	keystroke_t	t	n/a
34.777	0.12	69554	keystroke_t	t	n/a
34.912	0.12	69824	keystroke_i	i	n/a
35.017	0.105	70034	keystroke_n	n	n/a
35.107	0.09	70214	keystroke_g	g	n/a
35.302	0.059	70604	keystroke_Key.enter	Key.enter	n/a
35.3765	11.6725	70753	prompt	n/a	across ottawa charm ring\n
36.1415	0.09	72283	keystroke_a	a	n/a
36.3815	0.075	72763	keystroke_c	c	n/a
36.5465	0.09	73093	keystroke_c	c	n/a
36.7715	0.105	73543	keystroke_r	r	n/a
36.9065	0.06	73813	keystroke_o	o	n/a
37.0415	0.075	74083	keystroke_s	s	n/a
37.1915	0.075	74383	keystroke_s	s	n/a
37.5215	0.12	75043	keystroke_Key.space	Key.space	n/a
37.7615	0.075	75523	keystroke_a	a	n/a
38.1365	0.075	76273	keystroke_Key.backspace	Key.backspace	n/a
38.3915	0.105	76783	keystroke_o	o	n/a
39.8615	0.0755	79723	keystroke_Key.backspace	Key.backspace	n/a
40.0265	0.06	80053	keystroke_Key.backspace	Key.backspace	n/a
40.1615	0.06	80323	keystroke_Key.backspace	Key.backspace	n/a
40.3265	0.046	80653	keystroke_Key.backspace	Key.backspace	n/a
40.4765	0.03	80953	keystroke_Key.backspace	Key.backspace	n/a
40.6115	0.045	81223	keystroke_Key.backspace	Key.backspace	n/a
40.7765	0.075	81553	keystroke_Key.backspace	Key.backspace	n/a
41.167	0.135	82334	keystroke_r	r	n/a
41.332	0.075	82664	keystroke_o	o	n/a
41.497	0.0595	82994	keystroke_s	s	n/a
41.6465	0.075	83293	keystroke_s	s	n/a
41.827	0.059	83654	keystroke_Key.space	Key.space	n/a
42.682	0.059	85364	keystroke_o	o	n/a
42.817	0.0595	85634	keystroke_t	t	n/a
42.9515	0.12	85903	keystroke_t	t	n/a
43.2215	0.18	86443	keystroke_a	a	n/a
43.4315	0.165	86863	keystroke_w	w	n/a
43.5815	0.105	87163	keystroke_a	a	n/a
44.2865	0.09	88573	keystroke_Key.space	Key.space	n/a
44.6315	0.12	89263	keystroke_c	c	n/a
44.7965	0.06	89593	keystroke_h	h	n/a
44.9015	0.12	89803	keystroke_a	a	n/a
45.0665	0.09	90133	keystroke_r	r	n/a
45.3965	0.105	90793	keystroke_m	m	n/a
46.0115	0.075	92023	keystroke_Key.space	Key.space	n/a
46.4165	0.165	92833	keystroke_r	r	n/a
46.5375	0.119	93075	keystroke_i	i	n/a
46.6715	0.12	93343	keystroke_n	n	n/a
46.8225	0.119	93645	keystroke_g	g	n/a
46.9865	0.06	93973	keystroke_Key.enter	Key.enter	n/a
47.0565	4.822	94113	prompt	n/a	janet cargo math villa\n
47.827	0.09	95654	keystroke_j	j	n/a
47.947	0.09	95894	keystroke_a	a	n/a
48.067	0.105	96134	keystroke_n	n	n/a
48.352	0.135	96704	keystroke_e	e	n/a
48.532	0.09	97064	keystroke_t	t	n/a
48.637	0.12	97274	keystroke_Key.space	Key.space	n/a
49.042	0.15	98084	keystroke_c	c	n/a
49.177	0.12	98354	keystroke_a	a	n/a
49.402	0.09	98804	keystroke_r	r	n/a
49.6865	0.1055	99373	keystroke_g	g	n/a
49.822	0.09	99644	keystroke_o	o	n/a
49.957	0.135	99914	keystroke_Key.space	Key.space	n/a
50.317	0.15	100634	keystroke_m	m	n/a
50.392	0.12	100784	keystroke_a	a	n/a
50.572	0.105	101144	keystroke_t	t	n/a
50.707	0.09	101414	keystroke_h	h	n/a
50.812	0.105	101624	keystroke_Key.space	Key.space	n/a
51.007	0.1345	102014	keystroke_v	v	n/a
51.1565	0.075	102313	keystroke_i	i	n/a
51.3665	0.06	102733	keystroke_l	l	n/a
51.4865	0.09	102973	keystroke_l	l	n/a
51.6065	0.105	103213	keystroke_a	a	n/a
51.8015	0.075	103603	keystroke_Key.enter	Key.enter	n/a
51.884	8.4395	103768	prompt	n/a	clocks devoted neighbor mines\n
52.7015	0.15	105403	keystroke_c	c	n/a
52.9265	0.075	105853	keystroke_l	l	n/a
53.1665	0.075	106333	keystroke_o	o	n/a
53.3915	0.105	106783	keystroke_c	c	n/a
53.512	0.0595	107024	keystroke_k	k	n/a
53.992	0.075	107984	keystroke_s	s	n/a
54.157	0.165	108314	keystroke_Key.space	Key.space	n/a
54.367	0.105	108734	keystroke_d	d	n/a
54.592	0.075	109184	keystroke_e	e	n/a
55.072	0.12	110144	keystroke_v	v	n/a
55.417	0.075	110834	keystroke_o	o	n/a
55.567	0.12	111134	keystroke_t	t	n/a
55.702	0.12	111404	keystroke_e	e	n/a
55.942	0.105	111884	keystroke_d	d	n/a
56.062	0.119	112124	keystroke_Key.space	Key.space	n/a
56.377	0.105	112754	keystroke_n	n	n/a
56.5565	0.075	113113	keystroke_e	e	n/a
56.9915	0.075	113983	keystroke_i	i	n/a
57.1875	0.134	114375	keystroke_g	g	n/a
57.4415	0.06	114883	keystroke_h	h	n/a
57.7565	0.1205	115513	keystroke_b	b	n/a
58.087	0.059	116174	keystroke_o	o	n/a
58.297	0.105	116594	keystroke_r	r	n/a
58.461	0.091	116922	keystroke_Key.space	Key.space	n/a
59.317	0.12	118634	keystroke_m	m	n/a
59.497	0.105	118994	keystroke_i	i	n/a
59.587	0.15	119174	keystroke_n	n	n/a
59.872	0.105	119744	keystroke_e	e	n/a
60.112	0.105	120224	keystroke_s	s	n/a
60.262	0.06	120524	keystroke_Key.enter	Key.enter	n/a
60.3285	11.891	120657	prompt	n/a	aboriginal isle marking example\n
61.177	0.105	122354	keystroke_a	a	n/a
61.417	0.105	122834	keystroke_b	b	n/a
61.687	0.09	123374	keystroke_o	o	n/a
61.897	0.135	123794	keystroke_r	r	n/a
62.032	0.12	124064	keystroke_i	i	n/a
62.136	0.091	124272	keystroke_n	n	n/a
62.257	0.104	124514	keystroke_g	g	n/a
63.3215	0.06	126643	keystroke_Key.backspace	Key.backspace	n/a
63.4865	0.06	126973	keystroke_Key.backspace	Key.backspace	n/a
63.6515	0.09	127303	keystroke_Key.backspace	Key.backspace	n/a
65.3615	0.06	130723	keystroke_i	i	n/a
65.7665	0.12	131533	keystroke_g	g	n/a
66.0965	0.09	132193	keystroke_i	i	n/a
66.2315	0.12	132463	keystroke_n	n	n/a
66.3815	0.105	132763	keystroke_a	a	n/a
66.5315	0.09	133063	keystroke_l	l	n/a
66.7415	0.09	133483	keystroke_Key.space	Key.space	n/a
67.326	0.06	134652	keystroke_i	i	n/a
67.4625	0.105	134925	keystroke_s	s	n/a
67.6565	0.09	135313	keystroke_l	l	n/a
67.7765	0.105	135553	keystroke_e	e	n/a
67.9265	0.105	135853	keystroke_Key.space	Key.space	n/a
68.3015	0.151	136603	keystroke_m	m	n/a
68.4225	0.104	136845	keystroke_a	a	n/a
68.7525	0.089	137505	keystroke_r	r	n/a
68.8565	0.09	137713	keystroke_k	k	n/a
69.0365	0.12	138073	keystroke_i	i	n/a
69.1415	0.09	138283	keystroke_n	n	n/a
69.2465	0.105	138493	keystroke_g	g	n/a
69.3365	0.105	138673	keystroke_Key.space	Key.space	n/a
69.6365	0.105	139273	keystroke_e	e	n/a
69.8915	0.195	139783	keystroke_x	x	n/a
70.642	0.09	141284	keystroke_a	a	n/a
70.747	0.225	141494	keystroke_m	m	n/a
71.5115	0.09	143023	keystroke_p	p	n/a
71.6465	0.105	143293	keystroke_l	l	n/a
71.7815	0.105	143563	keystroke_e	e	n/a
72.126	0.09	144252	keystroke_Key.enter	Key.enter	n/a
72.2285	12.1855	144457	prompt	n/a	tremendous parameter producers vertical\n
73.3415	0.105	146683	keystroke_t	t	n/a
73.5215	0.12	147043	keystroke_e	e	n/a
74.0165	0.06	148033	keystroke_Key.backspace	Key.backspace	n/a
74.1365	0.12	148273	keystroke_r	r	n/a
74.2415	0.09	148483	keystroke_e	e	n/a
74.5865	0.12	149173	keystroke_m	m	n/a
75.066	0.105	150132	keystroke_e	e	n/a
75.201	0.075	150402	keystroke_n	n	n/a
75.6215	0.06	151243	keystroke_d	d	n/a
75.9215	0.06	151843	keystroke_o	o	n/a
76.177	0.06	152354	keystroke_u	u	n/a
76.342	0.09	152684	keystroke_s	s	n/a
76.477	0.135	152954	keystroke_Key.space	Key.space	n/a
76.897	0.075	153794	keystroke_p	p	n/a
77.032	0.12	154064	keystroke_a	a	n/a
77.347	0.15	154694	keystroke_r	r	n/a
77.512	0.105	155024	keystroke_a	a	n/a
77.917	0.12	155834	keystroke_m	m	n/a
78.142	0.119	156284	keystroke_e	e	n/a
78.382	0.119	156764	keystroke_t	t	n/a
78.531	0.136	157062	keystroke_e	e	n/a
78.636	0.12	157272	keystroke_r	r	n/a
78.906	0.105	157812	keystroke_Key.space	Key.space	n/a
79.2815	0.09	158563	keystroke_p	p	n/a
79.4765	0.105	158953	keystroke_r	r	n/a
79.5665	0.06	159133	keystroke_o	o	n/a
79.7465	0.1205	159493	keystroke_d	d	n/a
79.9865	0.075	159973	keystroke_u	u	n/a
81.0515	0.075	162103	keystroke_c	c	n/a
81.3215	0.165	162643	keystroke_e	e	n/a
81.4715	0.115	162943	keystroke_r	r	n/a
81.6815	0.09	163363	keystroke_s	s	n/a
81.9365	0.12	163873	keystroke_Key.space	Key.space	n/a
82.567	0.135	165134	keystroke_v	v	n/a
82.717	0.135	165434	keystroke_e	e	n/a
82.837	0.09	165674	keystroke_r	r	n/a
83.047	0.09	166094	keystroke_t	t	n/a
83.212	0.105	166424	keystroke_i	i	n/a
83.707	0.18	167414	keystroke_c	c	n/a
83.842	0.12	167684	keystroke_a	a	n/a
84.037	0.12	168074	keystroke_l	l	n/a
84.337	0.075	168674	keystroke_Key.enter	Key.enter	n/a
84.419	10.5845	168838	prompt	n/a	greene individuals packages starring\n
85.4015	0.09	170803	keystroke_g	g	n/a
85.6265	0.09	171253	keystroke_r	r	n/a
85.8665	0.075	171733	keystroke_e	e	n/a
86.0165	0.12	172033	keystroke_e	e	n/a
86.2265	0.105	172453	keystroke_n	n	n/a
86.4665	0.105	172933	keystroke_e	e	n/a
86.6165	0.135	173233	keystroke_Key.space	Key.space	n/a
86.9315	0.09	173863	keystroke_i	i	n/a
87.0515	0.12	174103	keystroke_n	n	n/a
87.2315	0.12	174463	keystroke_d	d	n/a
87.936	0.075	175872	keystroke_i	i	n/a
88.057	0.134	176114	keystroke_v	v	n/a
88.206	0.075	176412	keystroke_i	i	n/a
88.761	0.12	177522	keystroke_d	d	n/a
89.032	0.089	178064	keystroke_u	u	n/a
89.287	0.09	178574	keystroke_a	a	n/a
89.437	0.09	178874	keystroke_l	l	n/a
89.692	0.105	179384	keystroke_s	s	n/a
90.2015	0.12	180403	keystroke_Key.space	Key.space	n/a
90.5915	0.12	181183	keystroke_p	p	n/a
90.8315	0.105	181663	keystroke_a	a	n/a
91.311	0.12	182622	keystroke_c	c	n/a
91.446	0.105	182892	keystroke_k	k	n/a
91.702	0.134	183404	keystroke_a	a	n/a
91.926	0.135	183852	keystroke_g	g	n/a
92.031	0.15	184062	keystroke_e	e	n/a
92.316	0.09	184632	keystroke_s	s	n/a
92.466	0.09	184932	keystroke_Key.space	Key.space	n/a
92.736	0.195	185472	keystroke_s	s	n/a
92.916	0.09	185832	keystroke_t	t	n/a
93.081	0.196	186162	keystroke_a	a	n/a
93.397	0.105	186794	keystroke_r	r	n/a
94.117	0.045	188234	keystroke_r	r	n/a
94.417	0.15	188834	keystroke_i	i	n/a
94.552	0.165	189104	keystroke_n	n	n/a
94.732	0.12	189464	keystroke_g	g	n/a
94.927	0.075	189854	keystroke_Key.enter	Key.enter	n/a
95.0085	9.5045	190017	prompt	n/a	designer shut organisms lopez\n
95.887	0.105	191774	keystroke_d	d	n/a
96.097	0.09	192194	keystroke_e	e	n/a
96.292	0.105	192584	keystroke_s	s	n/a
96.517	0.045	193034	keystroke_i	i	n/a
96.907	0.09	193814	keystroke_g	g	n/a
97.102	0.09	194204	keystroke_n	n	n/a
97.462	0.135	194924	keystroke_e	e	n/a
97.582	0.119	195164	keystroke_r	r	n/a
97.716	0.105	195432	keystroke_Key.space	Key.space	n/a
98.032	0.105	196064	keystroke_s	s	n/a
98.452	0.075	196904	keystroke_h	h	n/a
98.647	0.045	197294	keystroke_u	u	n/a
98.842	0.104	197684	keystroke_t	t	n/a
99.036	0.09	198072	keystroke_Key.space	Key.space	n/a
99.696	0.075	199392	keystroke_o	o	n/a
99.921	0.12	199842	keystroke_r	r	n/a
100.161	0.12	200322	keystroke_g	g	n/a
100.611	0.09	201222	keystroke_a	a	n/a
100.956	0.06	201912	keystroke_n	n	n/a
101.7665	0.075	203533	keystroke_i	i	n/a
101.9315	0.12	203863	keystroke_s	s	n/a
102.2165	0.105	204433	keystroke_m	m	n/a
102.5015	0.075	205003	keystroke_s	s	n/a
102.7715	0.1205	205543	keystroke_Key.space	Key.space	n/a
102.9965	0.09	205993	keystroke_l	l	n/a
103.1915	0.06	206383	keystroke_o	o	n/a
103.5815	0.09	207163	keystroke_p	p	n/a
103.8215	0.105	207643	keystroke_e	e	n/a
104.1215	0.135	208243	keystroke_z	z	n/a
104.4215	0.09	208843	keystroke_Key.enter	Key.enter	n/a
104.5175	15.0855	209035	prompt	n/a	powerpoint rewards vendor broadway\n
105.502	0.075	211004	keystroke_p	p	n/a
105.682	0.09	211364	keystroke_o	o	n/a
105.817	0.12	211634	keystroke_w	w	n/a
105.922	0.135	211844	keystroke_e	e	n/a
106.027	0.12	212054	keystroke_r	r	n/a
106.327	0.075	212654	keystroke_p	p	n/a
106.462	0.18	212924	keystroke_o	o	n/a
106.612	0.165	213224	keystroke_i	i	n/a
106.747	0.12	213494	keystroke_n	n	n/a
106.882	0.0895	213764	keystroke_t	t	n/a
107.0315	0.09	214063	keystroke_Key.space	Key.space	n/a
107.5565	0.135	215113	keystroke_r	r	n/a
107.6615	0.105	215323	keystroke_e	e	n/a
107.8715	0.06	215743	keystroke_e	e	n/a
112.239	0	224478	keystroke_Key.backspace	Key.backspace	n/a
112.387	0.119	224774	keystroke_v	v	n/a
112.896	0.0755	225792	keystroke_Key.backspace	Key.backspace	n/a
113.0175	0.179	226035	keystroke_w	w	n/a
113.2115	0.15	226423	keystroke_a	a	n/a
113.4065	0.12	226813	keystroke_r	r	n/a
114.037	0.12	228074	keystroke_d	d	n/a
114.202	0.09	228404	keystroke_s	s	n/a
114.412	0.03	228824	keystroke_Key.space	Key.space	n/a
114.652	0.135	229304	keystroke_v	v	n/a
114.817	0.12	229634	keystroke_e	e	n/a
114.982	0.09	229964	keystroke_n	n	n/a
115.462	0.135	230924	keystroke_d	d	n/a
115.672	0.075	231344	keystroke_o	o	n/a
115.942	0.105	231884	keystroke_r	r	n/a
116.107	0.09	232214	keystroke_Key.space	Key.space	n/a
116.482	0.09	232964	keystroke_b	b	n/a
116.797	0.134	233594	keystroke_r	r	n/a
117.127	0.06	234254	keystroke_o	o	n/a
117.562	0.1195	235124	keystroke_a	a	n/a
118.2965	0.15	236593	keystroke_d	d	n/a
118.5215	0.135	237043	keystroke_w	w	n/a
118.6415	0.105	237283	keystroke_a	a	n/a
119.2115	0.09	238423	keystroke_y	y	n/a
119.5265	0.075	239053	keystroke_Key.enter	Key.enter	n/a
119.608	9.2505	239216	prompt	n/a	constraint renew oliver damages\n
120.7265	0.075	241453	keystroke_c	c	n/a
120.7865	0.045	241573	keystroke_o	o	n/a
120.8165	0.03	241633	keystroke_n	n	n/a
121.386	0.15	242772	keystroke_s	s	n/a
121.641	0.105	243282	keystroke_t	t	n/a
121.9715	0.12	243943	keystroke_r	r	n/a
122.527	0.09	245054	keystroke_a	a	n/a
122.842	0.12	245684	keystroke_i	i	n/a
122.977	0.12	245954	keystroke_n	n	n/a
123.157	0.0895	246314	keystroke_t	t	n/a
123.2615	0.105	246523	keystroke_Key.space	Key.space	n/a
123.6815	0.105	247363	keystroke_r	r	n/a
123.8015	0.03	247603	keystroke_e	e	n/a
123.9215	0.06	247843	keystroke_n	n	n/a
123.9665	0.165	247933	keystroke_e	e	n/a
124.0715	0.12	248143	keystroke_w	w	n/a
124.1765	0.09	248353	keystroke_Key.space	Key.space	n/a
124.8365	0.09	249673	keystroke_o	o	n/a
125.0765	0.105	250153	keystroke_l	l	n/a
125.2865	0.075	250573	keystroke_i	i	n/a
125.4365	0.165	250873	keystroke_v	v	n/a
125.6015	0.165	251203	keystroke_e	e	n/a
125.7515	0.105	251503	keystroke_r	r	n/a
126.3965	0.105	252793	keystroke_Key.space	Key.space	n/a
126.6065	0.15	253213	keystroke_d	d	n/a
126.8765	0.09	253753	keystroke_a	a	n/a
127.0565	0.105	254113	keystroke_m	m	n/a
127.927	0.09	255854	keystroke_a	a	n/a
128.2715	0.105	256543	keystroke_g	g	n/a
128.3465	0.12	256693	keystroke_e	e	n/a
128.5865	0.105	257173	keystroke_s	s	n/a
128.7965	0.06	257593	keystroke_Key.enter	Key.enter	n/a
128.866	11.842	257732	prompt	n/a	reaction titten prevention jake\n
129.817	0.135	259634	keystroke_r	r	n/a
130.072	0.105	260144	keystroke_e	e	n/a
130.357	0.165	260714	keystroke_c	c	n/a
130.507	0.12	261014	keystroke_a	a	n/a
131.271	0.061	262542	keystroke_Key.backspace	Key.backspace	n/a
131.406	0.075	262812	keystroke_Key.backspace	Key.backspace	n/a
131.497	0.135	262994	keystroke_a	a	n/a
131.767	0.12	263534	keystroke_c	c	n/a
132.277	0.119	264554	keystroke_t	t	n/a
132.426	0.226	264852	keystroke_i	i	n/a
132.517	0.119	265034	keystroke_o	o	n/a
132.622	0.149	265244	keystroke_n	n	n/a
132.786	0.105	265572	keystroke_Key.space	Key.space	n/a
133.3115	0.1045	266623	keystroke_t	t	n/a
133.626	0.06	267252	keystroke_t	t	n/a
134.016	0.06	268032	keystroke_Key.backspace	Key.backspace	n/a
134.2715	0.045	268543	keystroke_i	i	n/a
134.3915	0.06	268783	keystroke_t	t	n/a
134.5565	0.09	269113	keystroke_t	t	n/a
134.8715	0.105	269743	keystroke_e	e	n/a
135.0215	0.09	270043	keystroke_n	n	n/a
135.1865	0.105	270373	keystroke_Key.space	Key.space	n/a
137.499	0.013	274998	keystroke_p	p	n/a
137.646	0.121	275292	keystroke_r	r	n/a
137.752	0.0895	275504	keystroke_e	e	n/a
137.9165	0.15	275833	keystroke_v	v	n/a
138.7115	0.105	277423	keystroke_e	e	n/a
138.8315	0.12	277663	keystroke_n	n	n/a
139.2965	0.12	278593	keystroke_t	t	n/a
139.4015	0.195	278803	keystroke_i	i	n/a
139.5065	0.12	279013	keystroke_o	o	n/a
139.5965	0.15	279193	keystroke_n	n	n/a
139.7615	0.105	279523	keystroke_Key.space	Key.space	n/a
140.0315	0.135	280063	keystroke_j	j	n/a
140.2115	0.12	280423	keystroke_a	a	n/a
140.3315	0.135	280663	keystroke_k	k	n/a
140.4515	0.12	280903	keystroke_e	e	n/a
140.6315	0.075	281263	keystroke_Key.enter	Key.enter	n/a
140.713	11.545	281426	prompt	n/a	shipments painting closely computational\n
141.6215	0.105	283243	keystroke_s	s	n/a
141.8915	0.135	283783	keystroke_h	h	n/a
142.0415	0.195	284083	keystroke_i	i	n/a
142.2065	0.1055	284413	keystroke_p	p	n/a
142.717	0.135	285434	keystroke_m	m	n/a
142.882	0.18	285764	keystroke_e	e	n/a
143.092	0.105	286184	keystroke_n	n	n/a
143.227	0.12	286454	keystroke_t	t	n/a
143.572	0.105	287144	keystroke_s	s	n/a
143.842	0.134	287684	keystroke_Key.space	Key.space	n/a
144.172	0.075	288344	keystroke_p	p	n/a
144.307	0.105	288614	keystroke_a	a	n/a
144.607	0.09	289214	keystroke_i	i	n/a
145.147	0.104	290294	keystroke_t	t	n/a
145.521	0.045	291042	keystroke_Key.backspace	Key.backspace	n/a
145.746	0.106	291492	keystroke_n	n	n/a
145.882	0.104	291764	keystroke_t	t	n/a
145.956	0.105	291912	keystroke_i	i	n/a
146.046	0.09	292092	keystroke_n	n	n/a
146.167	0.09	292334	keystroke_g	g	n/a
146.286	0.075	292572	keystroke_Key.space	Key.space	n/a
147.216	0.135	294432	keystroke_c	c	n/a
147.366	0.075	294732	keystroke_l	l	n/a
147.531	0.06	295062	keystroke_o	o	n/a
147.636	0.15	295272	keystroke_s	s	n/a
148.071	0.105	296142	keystroke_e	e	n/a
148.161	0.15	296322	keystroke_l	l	n/a
148.476	0.075	296952	keystroke_y	y	n/a
148.596	0.1355	297192	keystroke_Key.space	Key.space	n/a
149.212	0.15	298424	keystroke_c	c	n/a
149.3465	0.18	298693	keystroke_o	o	n/a
149.5115	0.1505	299023	keystroke_m	m	n/a
149.7365	0.0905	299473	keystroke_p	p	n/a
149.9765	0.0605	299953	keystroke_u	u	n/a
150.7865	0.105	301573	keystroke_t	t	n/a
151.0415	0.12	302083	keystroke_a	a	n/a
151.2665	0.105	302533	keystroke_t	t	n/a
151.3865	0.195	302773	keystroke_i	i	n/a
151.4765	0.12	302953	keystroke_o	o	n/a
151.5665	0.12	303133	keystroke_n	n	n/a
151.7165	0.12	303433	keystroke_a	a	n/a
151.8515	0.1195	303703	keystroke_l	l	n/a
152.181	0.075	304362	keystroke_Key.enter	Key.enter	n/a
152.2645	8.244	304529	prompt	n/a	nested xerox sender villas\n
153.231	0.09	306462	keystroke_n	n	n/a
153.336	0.105	306672	keystroke_e	e	n/a
153.741	0.12	307482	keystroke_s	s	n/a
153.981	0.09	307962	keystroke_t	t	n/a
154.191	0.09	308382	keystroke_e	e	n/a
154.386	0.105	308772	keystroke_d	d	n/a
154.506	0.105	309012	keystroke_Key.space	Key.space	n/a
154.852	0.1045	309704	keystroke_x	x	n/a
155.557	0.135	311114	keystroke_e	e	n/a
155.767	0.1045	311534	keystroke_r	r	n/a
155.9765	0.06	311953	keystroke_o	o	n/a
156.1415	0.135	312283	keystroke_x	x	n/a
156.3365	0.075	312673	keystroke_Key.space	Key.space	n/a
157.2215	0.165	314443	keystroke_s	s	n/a
157.3875	0.179	314775	keystroke_e	e	n/a
157.7765	0.09	315553	keystroke_n	n	n/a
157.9715	0.135	315943	keystroke_d	d	n/a
158.3165	0.135	316633	keystroke_e	e	n/a
158.4215	0.12	316843	keystroke_r	r	n/a
158.5715	0.135	317143	keystroke_Key.space	Key.space	n/a
159.0665	0.15	318133	keystroke_v	v	n/a
159.2465	0.09	318493	keystroke_i	i	n/a
159.5165	0.06	319033	keystroke_l	l	n/a
159.6515	0.075	319303	keystroke_l	l	n/a
159.8915	0.12	319783	keystroke_a	a	n/a
160.2065	0.105	320413	keystroke_s	s	n/a
160.4315	0.075	320863	keystroke_Key.enter	Key.enter	n/a
160.5135	10.165	321027	prompt	n/a	cakes bristol concentration contain\n
161.361	0.1655	322722	keystroke_c	c	n/a
161.4965	0.135	322993	keystroke_a	a	n/a
162.2315	0.075	324463	keystroke_k	k	n/a
162.3365	0.135	324673	keystroke_e	e	n/a
162.6065	0.09	325213	keystroke_s	s	n/a
162.7415	0.1045	325483	keystroke_Key.space	Key.space	n/a
162.951	0.105	325902	keystroke_b	b	n/a
163.2365	0.12	326473	keystroke_r	r	n/a
163.4165	0.06	326833	keystroke_i	i	n/a
163.5515	0.105	327103	keystroke_s	s	n/a
164.0465	0.105	328093	keystroke_t	t	n/a
164.257	0.075	328514	keystroke_o	o	n/a
164.707	0.09	329414	keystroke_l	l	n/a
164.917	0.09	329834	keystroke_Key.space	Key.space	n/a
165.277	0.165	330554	keystroke_c	c	n/a
165.397	0.105	330794	keystroke_o	o	n/a
165.517	0.074	331034	keystroke_n	n	n/a
166.011	0.075	332022	keystroke_e	e	n/a
166.476	0.045	332952	keystroke_Key.backspace	Key.backspace	n/a
166.596	0.091	333192	keystroke_c	c	n/a
166.866	0.1205	333732	keystroke_e	e	n/a
167.1965	0.09	334393	keystroke_n	n	n/a
167.4815	0.09	334963	keystroke_t	t	n/a
167.6915	0.15	335383	keystroke_r	r	n/a
167.8265	0.135	335653	keystroke_a	a	n/a
167.9765	0.105	335953	keystroke_t	t	n/a
168.1115	0.21	336223	keystroke_i	i	n/a
168.2165	0.12	336433	keystroke_o	o	n/a
168.3065	0.12	336613	keystroke_n	n	n/a
168.4865	0.09	336973	keystroke_Key.space	Key.space	n/a
169.3415	0.165	338683	keystroke_c	c	n/a
169.4915	0.06	338983	keystroke_o	o	n/a
169.5515	0.1195	339103	keystroke_n	n	n/a
169.807	0.149	339614	keystroke_t	t	n/a
169.971	0.1355	339942	keystroke_a	a	n/a
170.1215	0.09	340243	keystroke_i	i	n/a
170.2415	0.12	340483	keystroke_n	n	n/a
170.6015	0.075	341203	keystroke_Key.enter	Key.enter	n/a
170.685	7.7785	341370	prompt	n/a	inline leads sorry proceeds\n
171.607	0.105	343214	keystroke_i	i	n/a
171.742	0.12	343484	keystroke_n	n	n/a
171.907	0.105	343814	keystroke_l	l	n/a
172.012	0.12	344024	keystroke_i	i	n/a
172.117	0.105	344234	keystroke_n	n	n/a
172.342	0.0895	344684	keystroke_e	e	n/a
172.4765	0.09	344953	keystroke_Key.space	Key.space	n/a
173.0465	0.105	346093	keystroke_l	l	n/a
173.182	0.135	346364	keystroke_e	e	n/a
173.257	0.18	346514	keystroke_a	a	n/a
173.407	0.165	346814	keystroke_d	d	n/a
173.632	0.105	347264	keystroke_s	s	n/a
173.782	0.075	347564	keystroke_Key.space	Key.space	n/a
174.247	0.12	348494	keystroke_s	s	n/a
174.397	0.06	348794	keystroke_o	o	n/a
174.607	0.06	349214	keystroke_r	r	n/a
174.757	0.09	349514	keystroke_r	r	n/a
174.952	0.075	349904	keystroke_y	y	n/a
175.072	0.119	350144	keystroke_Key.space	Key.space	n/a
175.582	0.075	351164	keystroke_p	p	n/a
176.241	0.06	352482	keystroke_r	r	n/a
176.362	0.074	352724	keystroke_o	o	n/a
176.5865	0.105	353173	keystroke_c	c	n/a
176.8115	0.09	353623	keystroke_e	e	n/a
177.321	0.105	354642	keystroke_e	e	n/a
177.651	0.1205	355302	keystroke_d	d	n/a
177.9215	0.09	355843	keystroke_s	s	n/a
178.3865	0.075	356773	keystroke_Key.enter	Key.enter	n/a
178.4675	8.3965	356935	prompt	n/a	position scheduled names slowly\n
179.2265	0.105	358453	keystroke_p	p	n/a
179.3915	0.075	358783	keystroke_o	o	n/a
179.5415	0.135	359083	keystroke_s	s	n/a
179.7515	0.09	359503	keystroke_i	i	n/a
180.0215	0.105	360043	keystroke_t	t	n/a
180.1865	0.24	360373	keystroke_i	i	n/a
180.3215	0.135	360643	keystroke_o	o	n/a
180.4415	0.12	360883	keystroke_n	n	n/a
180.7115	0.09	361423	keystroke_Key.space	Key.space	n/a
181.4915	0.135	362983	keystroke_s	s	n/a
181.7765	0.135	363553	keystroke_c	c	n/a
181.9865	0.105	363973	keystroke_h	h	n/a
182.1665	0.135	364333	keystroke_e	e	n/a
182.6165	0.12	365233	keystroke_d	d	n/a
182.8865	0.09	365773	keystroke_u	u	n/a
183.1265	0.105	366253	keystroke_l	l	n/a
183.3365	0.09	366673	keystroke_e	e	n/a
183.5615	0.105	367123	keystroke_d	d	n/a
183.7115	0.09	367423	keystroke_Key.space	Key.space	n/a
183.967	0.09	367934	keystroke_n	n	n/a
184.041	0.136	368082	keystroke_a	a	n/a
184.192	0.135	368384	keystroke_m	m	n/a
184.312	0.104	368624	keystroke_e	e	n/a
184.926	0.12	369852	keystroke_Key.space	Key.space	n/a
185.2115	0.105	370423	keystroke_s	s	n/a
185.4665	0.12	370933	keystroke_l	l	n/a
185.6765	0.075	371353	keystroke_o	o	n/a
185.8565	0.12	371713	keystroke_w	w	n/a
186.231	0.12	372462	keystroke_l	l	n/a
186.501	0.075	373002	keystroke_y	y	n/a
186.786	0.075	373572	keystroke_Key.enter	Key.enter	n/a
186.8725	6.621	373745	prompt	n/a	written labor inform told\n
187.851	0.105	375702	keystroke_w	w	n/a
188.406	0.12	376812	keystroke_r	r	n/a
188.526	0.06	377052	keystroke_i	i	n/a
188.721	0.075	377442	keystroke_t	t	n/a
188.871	0.105	377742	keystroke_t	t	n/a
189.2015	0.105	378403	keystroke_e	e	n/a
189.3515	0.12	378703	keystroke_n	n	n/a
189.4865	0.105	378973	keystroke_Key.space	Key.space	n/a
189.8165	0.075	379633	keystroke_l	l	n/a
189.9065	0.105	379813	keystroke_a	a	n/a
190.0565	0.135	380113	keystroke_b	b	n/a
190.7615	0.15	381523	keystroke_o	o	n/a
190.9265	0.075	381853	keystroke_r	r	n/a
191.0165	0.09	382033	keystroke_Key.space	Key.space	n/a
191.316	0.0905	382632	keystroke_i	i	n/a
191.436	0.15	382872	keystroke_n	n	n/a
191.556	0.135	383112	keystroke_f	f	n/a
192.1265	0.0745	384253	keystroke_o	o	n/a
192.2165	0.1045	384433	keystroke_r	r	n/a
192.366	0.1505	384732	keystroke_m	m	n/a
192.5015	0.105	385003	keystroke_Key.space	Key.space	n/a
192.8465	0.135	385693	keystroke_t	t	n/a
192.9665	0.06	385933	keystroke_o	o	n/a
193.1315	0.09	386263	keystroke_l	l	n/a
193.2365	0.105	386473	keystroke_d	d	n/a
193.4165	0.075	386833	keystroke_Key.enter	Key.enter	n/a
193.499	8.8445	386998	prompt	n/a	practice boundary profits mazda\n
194.3165	0.075	388633	keystroke_p	p	n/a
194.5865	0.12	389173	keystroke_r	r	n/a
194.6915	0.135	389383	keystroke_a	a	n/a
194.8865	0.12	389773	keystroke_c	c	n/a
195.1265	0.1195	390253	keystroke_t	t	n/a
195.291	0.09	390582	keystroke_i	i	n/a
195.411	0.135	390822	keystroke_c	c	n/a
195.7115	0.09	391423	keystroke_e	e	n/a
195.8465	0.09	391693	keystroke_Key.space	Key.space	n/a
196.506	0.046	393012	keystroke_b	b	n/a
196.596	0.12	393192	keystroke_o	o	n/a
196.702	0.074	393404	keystroke_u	u	n/a
196.926	0.075	393852	keystroke_n	n	n/a
197.106	0.1205	394212	keystroke_d	d	n/a
197.3465	0.12	394693	keystroke_a	a	n/a
197.5715	0.105	395143	keystroke_r	r	n/a
197.7515	0.105	395503	keystroke_y	y	n/a
197.8865	0.12	395773	keystroke_Key.space	Key.space	n/a
198.292	0.105	396584	keystroke_p	p	n/a
198.517	0.135	397034	keystroke_r	r	n/a
198.637	0.075	397274	keystroke_o	o	n/a
198.832	0.119	397664	keystroke_f	f	n/a
198.996	0.076	397992	keystroke_i	i	n/a
199.2515	0.09	398503	keystroke_t	t	n/a
199.5215	0.09	399043	keystroke_s	s	n/a
199.6715	0.09	399343	keystroke_Key.space	Key.space	n/a
200.5265	0.12	401053	keystroke_m	m	n/a
200.6015	0.09	401203	keystroke_a	a	n/a
200.9615	0.1195	401923	keystroke_z	z	n/a
201.261	0.1045	402522	keystroke_a	a	n/a
201.891	0.075	403782	keystroke_Key.backspace	Key.backspace	n/a
201.937	0.179	403874	keystroke_d	d	n/a
202.071	0.12	404142	keystroke_a	a	n/a
202.281	0.0605	404562	keystroke_Key.enter	Key.enter	n/a
202.3495	8.0035	404699	prompt	n/a	shades proposal great social\n
203.227	0.105	406454	keystroke_s	s	n/a
203.347	0.105	406694	keystroke_h	h	n/a
203.482	0.12	406964	keystroke_a	a	n/a
203.632	0.1195	407264	keystroke_d	d	n/a
203.8715	0.09	407743	keystroke_e	e	n/a
204.0665	0.075	408133	keystroke_s	s	n/a
204.1565	0.09	408313	keystroke_Key.space	Key.space	n/a
204.5165	0.105	409033	keystroke_p	p	n/a
204.6815	0.12	409363	keystroke_r	r	n/a
204.7865	0.105	409573	keystroke_o	o	n/a
204.9665	0.1955	409933	keystroke_p	p	n/a
205.597	0.075	411194	keystroke_o	o	n/a
205.822	0.18	411644	keystroke_s	s	n/a
205.942	0.09	411884	keystroke_e	e	n/a
206.377	0.0745	412754	keystroke_Key.backspace	Key.backspace	n/a
206.4815	0.105	412963	keystroke_a	a	n/a
206.6465	0.12	413293	keystroke_l	l	n/a
206.8565	0.075	413713	keystroke_Key.space	Key.space	n/a
207.4415	0.105	414883	keystroke_g	g	n/a
207.7265	0.12	415453	keystroke_r	r	n/a
207.8315	0.15	415663	keystroke_e	e	n/a
207.9515	0.15	415903	keystroke_a	a	n/a
208.5815	0.105	417163	keystroke_t	t	n/a
208.7915	0.09	417583	keystroke_Key.space	Key.space	n/a
209.0165	0.105	418033	keystroke_s	s	n/a
209.2715	0.12	418543	keystroke_o	o	n/a
209.4965	0.135	418993	keystroke_c	c	n/a
209.6165	0.09	419233	keystroke_i	i	n/a
209.8565	0.105	419713	keystroke_a	a	n/a
210.0065	0.12	420013	keystroke_l	l	n/a
210.2765	0.075	420553	keystroke_Key.enter	Key.enter	n/a
210.3575	11.951	420715	prompt	n/a	mary broadband treasures afternoon\n
211.2965	0.1355	422593	keystroke_m	m	n/a
211.402	0.12	422804	keystroke_a	a	n/a
211.597	0.105	423194	keystroke_y	y	n/a
211.747	0.12	423494	keystroke_Key.space	Key.space	n/a
212.871	0.06	425742	keystroke_Key.backspace	Key.backspace	n/a
213.006	0.09	426012	keystroke_Key.backspace	Key.backspace	n/a
213.291	0.106	426582	keystroke_r	r	n/a
213.486	0.06	426972	keystroke_y	y	n/a
213.621	0.105	427242	keystroke_Key.space	Key.space	n/a
214.281	0.135	428562	keystroke_b	b	n/a
215.076	0.09	430152	keystroke_r	r	n/a
215.271	0.075	430542	keystroke_o	o	n/a
216.007	0.0895	432014	keystroke_a	a	n/a
216.2465	0.09	432493	keystroke_d	d	n/a
216.532	0.12	433064	keystroke_b	b	n/a
216.652	0.12	433304	keystroke_a	a	n/a
216.802	0.105	433604	keystroke_n	n	n/a
216.922	0.089	433844	keystroke_d	d	n/a
217.027	0.09	434054	keystroke_Key.space	Key.space	n/a
217.7465	0.1055	435493	keystroke_t	t	n/a
218.152	0.105	436304	keystroke_e	e	n/a
218.601	0.075	437202	keystroke_Key.backspace	Key.backspace	n/a
218.692	0.15	437384	keystroke_r	r	n/a
218.782	0.15	437564	keystroke_e	e	n/a
219.097	0.12	438194	keystroke_a	a	n/a
219.352	0.104	438704	keystroke_s	s	n/a
219.636	0.105	439272	keystroke_u	u	n/a
219.726	0.136	439452	keystroke_r	r	n/a
219.831	0.106	439662	keystroke_e	e	n/a
220.056	0.09	440112	keystroke_s	s	n/a
220.161	0.105	440322	keystroke_Key.space	Key.space	n/a
220.447	0.104	440894	keystroke_a	a	n/a
220.611	0.135	441222	keystroke_f	f	n/a
220.866	0.105	441732	keystroke_t	t	n/a
220.986	0.105	441972	keystroke_e	e	n/a
221.061	0.1205	442122	keystroke_r	r	n/a
221.481	0.091	442962	keystroke_n	n	n/a
221.736	0.06	443472	keystroke_o	o	n/a
221.856	0.105	443712	keystroke_o	o	n/a
222.007	0.119	444014	keystroke_n	n	n/a
222.231	0.075	444462	keystroke_Key.enter	Key.enter	n/a
222.313	8.8605	444626	prompt	n/a	config integrated male taxation\n
223.1615	0.15	446323	keystroke_c	c	n/a
223.2965	0.06	446593	keystroke_o	o	n/a
223.3415	0.12	446683	keystroke_n	n	n/a
223.5365	0.12	447073	keystroke_f	f	n/a
223.6715	0.06	447343	keystroke_i	i	n/a
223.8965	0.09	447793	keystroke_g	g	n/a
224.0165	0.075	448033	keystroke_Key.space	Key.space	n/a
224.4065	0.09	448813	keystroke_i	i	n/a
224.5115	0.105	449023	keystroke_n	n	n/a
224.9015	0.105	449803	keystroke_t	t	n/a
225.0665	0.135	450133	keystroke_e	e	n/a
225.8465	0.1205	451693	keystroke_g	g	n/a
226.267	0.105	452534	keystroke_r	r	n/a
226.356	0.105	452712	keystroke_a	a	n/a
226.476	0.15	452952	keystroke_t	t	n/a
226.596	0.1055	453192	keystroke_e	e	n/a
226.8215	0.09	453643	keystroke_d	d	n/a
226.9715	0.075	453943	keystroke_Key.space	Key.space	n/a
227.2415	0.135	454483	keystroke_m	m	n/a
227.3915	0.105	454783	keystroke_a	a	n/a
227.7065	0.09	455413	keystroke_l	l	n/a
227.8415	0.105	455683	keystroke_e	e	n/a
228.0065	0.09	456013	keystroke_Key.space	Key.space	n/a
228.3815	0.195	456763	keystroke_t	t	n/a
228.9215	0.105	457843	keystroke_a	a	n/a
229.2815	0.12	458563	keystroke_x	x	n/a
229.5365	0.0905	459073	keystroke_a	a	n/a
229.9415	0.105	459883	keystroke_t	t	n/a
230.3765	0.27	460753	keystroke_i	i	n/a
230.4815	0.15	460963	keystroke_o	o	n/a
230.5865	0.18	461173	keystroke_n	n	n/a
231.0965	0.075	462193	keystroke_Key.enter	Key.enter	n/a
231.1785	13.9595	462357	prompt	n/a	wake trees historic failed\n
231.9815	0.18	463963	keystroke_w	w	n/a
232.0865	0.18	464173	keystroke_a	a	n/a
232.3415	0.06	464683	keystroke_k	k	n/a
232.4315	0.105	464863	keystroke_e	e	n/a
232.5665	0.105	465133	keystroke_Key.space	Key.space	n/a
233.0315	0.105	466063	keystroke_t	t	n/a
233.2415	0.105	466483	keystroke_r	r	n/a
233.4965	0.06	466993	keystroke_e	e	n/a
233.6615	0.09	467323	keystroke_e	e	n/a
233.8865	0.09	467773	keystroke_s	s	n/a
234.0815	0.09	468163	keystroke_Key.space	Key.space	n/a
234.4865	0.135	468973	keystroke_h	h	n/a
234.5915	0.09	469183	keystroke_i	i	n/a
234.6965	0.165	469393	keystroke_s	s	n/a
234.8915	0.03	469783	keystroke_s	s	n/a
234.9065	0.135	469813	keystroke_t	t	n/a
235.102	0.0595	470204	keystroke_o	o	n/a
235.2215	0.12	470443	keystroke_r	r	n/a
235.416	0.075	470832	keystroke_i	i	n/a
235.9115	0.105	471823	keystroke_c	c	n/a
236.166	0.076	472332	keystroke_Key.space	Key.space	n/a
236.617	0.195	473234	keystroke_f	f	n/a
236.722	0.135	473444	keystroke_a	a	n/a
237.8165	0.09	475633	keystroke_i	i	n/a
237.9815	0.105	475963	keystroke_l	l	n/a
238.4015	0.105	476803	keystroke_e	e	n/a
238.7165	0.12	477433	keystroke_d	d	n/a
239.856	0.075	479712	keystroke_Key.backspace	Key.backspace	n/a
240.021	0.075	480042	keystroke_Key.backspace	Key.backspace	n/a
240.171	0.075	480342	keystroke_Key.backspace	Key.backspace	n/a
240.321	0.075	480642	keystroke_Key.backspace	Key.backspace	n/a
240.487	0.059	480974	keystroke_Key.backspace	Key.backspace	n/a
240.621	0.075	481242	keystroke_Key.backspace	Key.backspace	n/a
240.771	0.075	481542	keystroke_Key.backspace	Key.backspace	n/a
240.951	0.045	481902	keystroke_Key.backspace	Key.backspace	n/a
241.251	0.045	482502	keystroke_Key.backspace	Key.backspace	n/a
241.386	0.09	482772	keystroke_Key.backspace	Key.backspace	n/a
241.596	0.075	483192	keystroke_Key.backspace	Key.backspace	n/a
241.776	0.075	483552	keystroke_Key.backspace	Key.backspace	n/a
241.9265	0.09	483853	keystroke_Key.backspace	Key.backspace	n/a
242.5415	0.12	485083	keystroke_t	t	n/a
242.8565	0.06	485713	keystroke_o	o	n/a
243.2615	0.15	486523	keystroke_r	r	n/a
243.3965	0.075	486793	keystroke_i	i	n/a
243.6515	0.121	487303	keystroke_c	c	n/a
243.8015	0.105	487603	keystroke_Key.space	Key.space	n/a
243.9815	0.225	487963	keystroke_f	f	n/a
244.1465	0.165	488293	keystroke_a	a	n/a
244.3415	0.1645	488683	keystroke_i	i	n/a
244.4765	0.1345	488953	keystroke_l	l	n/a
244.6415	0.1195	489283	keystroke_e	e	n/a
244.881	0.1055	489762	keystroke_d	d	n/a
245.0465	0.09	490093	keystroke_Key.enter	Key.enter	n/a
245.1425	12.446	490285	prompt	n/a	ongoing transmit behavioral findarticles\n
246.052	0.075	492104	keystroke_o	o	n/a
246.187	0.12	492374	keystroke_n	n	n/a
246.397	0.12	492794	keystroke_g	g	n/a
246.547	0.15	493094	keystroke_o	o	n/a
246.667	0.15	493334	keystroke_i	i	n/a
246.802	0.09	493604	keystroke_n	n	n/a
246.892	0.105	493784	keystroke_g	g	n/a
246.981	0.105	493962	keystroke_Key.space	Key.space	n/a
247.987	0.075	495974	keystroke_t	t	n/a
248.167	0.195	496334	keystroke_r	r	n/a
248.287	0.134	496574	keystroke_a	a	n/a
248.437	0.09	496874	keystroke_n	n	n/a
248.647	0.089	497294	keystroke_s	s	n/a
249.8465	0.105	499693	keystroke_m	m	n/a
250.0565	0.09	500113	keystroke_i	i	n/a
250.1915	0.12	500383	keystroke_t	t	n/a
250.2965	0.09	500593	keystroke_Key.space	Key.space	n/a
250.6115	0.105	501223	keystroke_b	b	n/a
250.8665	0.105	501733	keystroke_e	e	n/a
251.1665	0.0905	502333	keystroke_h	h	n/a
251.3465	0.09	502693	keystroke_a	a	n/a
251.5415	0.075	503083	keystroke_v	v	n/a
252.127	0.18	504254	keystroke_i	i	n/a
252.277	0.105	504554	keystroke_o	o	n/a
252.487	0.105	504974	keystroke_r	r	n/a
252.712	0.104	505424	keystroke_a	a	n/a
252.831	0.136	505662	keystroke_l	l	n/a
254.362	0.09	508724	keystroke_Key.space	Key.space	n/a
254.797	0.12	509594	keystroke_f	f	n/a
255.037	0.09	510074	keystroke_i	i	n/a
255.2315	0.12	510463	keystroke_n	n	n/a
255.4415	0.135	510883	keystroke_d	d	n/a
255.6965	0.075	511393	keystroke_a	a	n/a
256.2665	0.09	512533	keystroke_r	r	n/a
256.4615	0.105	512923	keystroke_t	t	n/a
256.6715	0.09	513343	keystroke_i	i	n/a
256.8065	0.12	513613	keystroke_c	c	n/a
257.0015	0.09	514003	keystroke_l	l	n/a
257.1065	0.1205	514213	keystroke_e	e	n/a
257.347	0.105	514694	keystroke_s	s	n/a
257.527	0.06	515054	keystroke_Key.enter	Key.enter	n/a
257.5945	7.869	515189	prompt	n/a	possibly the winner barrier\n
258.442	0.075	516884	keystroke_p	p	n/a
258.622	0.074	517244	keystroke_o	o	n/a
259.3715	0.135	518743	keystroke_s	s	n/a
259.6565	0.105	519313	keystroke_s	s	n/a
259.8965	0.075	519793	keystroke_i	i	n/a
260.1815	0.105	520363	keystroke_b	b	n/a
260.6315	0.135	521263	keystroke_l	l	n/a
260.9615	0.09	521923	keystroke_y	y	n/a
261.1565	0.12	522313	keystroke_Key.space	Key.space	n/a
261.996	0.106	523992	keystroke_t	t	n/a
262.117	0.075	524234	keystroke_h	h	n/a
262.147	0.105	524294	keystroke_e	e	n/a
262.252	0.135	524504	keystroke_Key.space	Key.space	n/a
262.747	0.09	525494	keystroke_w	w	n/a
262.852	0.075	525704	keystroke_i	i	n/a
263.047	0.09	526094	keystroke_n	n	n/a
263.197	0.089	526394	keystroke_n	n	n/a
263.362	0.134	526724	keystroke_e	e	n/a
263.466	0.121	526932	keystroke_r	r	n/a
263.527	0.12	527054	keystroke_Key.space	Key.space	n/a
263.857	0.135	527714	keystroke_b	b	n/a
264.006	0.12	528012	keystroke_a	a	n/a
264.231	0.076	528462	keystroke_r	r	n/a
264.397	0.09	528794	keystroke_r	r	n/a
264.786	0.091	529572	keystroke_i	i	n/a
264.922	0.18	529844	keystroke_e	e	n/a
265.132	0.119	530264	keystroke_r	r	n/a
265.372	0.089	530744	keystroke_Key.enter	Key.enter	n/a
265.4685	20.815	530937	prompt	n/a	susan scenarios transport nasty\n
271.09	0.072	542180	keystroke_s	s	n/a
271.371	0.105	542742	keystroke_u	u	n/a
271.657	0.119	543314	keystroke_s	s	n/a
272.5565	0.12	545113	keystroke_a	a	n/a
272.7515	0.135	545503	keystroke_n	n	n/a
273.1715	0.12	546343	keystroke_s	s	n/a
273.4115	0.105	546823	keystroke_e	e	n/a
273.7415	0.12	547483	keystroke_c	c	n/a
274.6715	0.045	549343	keystroke_Key.backspace	Key.backspace	n/a
274.8215	0.075	549643	keystroke_Key.backspace	Key.backspace	n/a
274.9715	0.06	549943	keystroke_Key.backspace	Key.backspace	n/a
275.241	0.075	550482	keystroke_Key.space	Key.space	n/a
275.691	0.09	551382	keystroke_s	s	n/a
277.3715	0.075	554743	keystroke_s	s	n/a
277.837	0.06	555674	keystroke_Key.backspace	Key.backspace	n/a
278.452	0.165	556904	keystroke_c	c	n/a
278.977	0.119	557954	keystroke_e	e	n/a
279.142	0.12	558284	keystroke_n	n	n/a
279.682	0.135	559364	keystroke_a	a	n/a
279.952	0.1045	559904	keystroke_r	r	n/a
280.1015	0.195	560203	keystroke_i	i	n/a
280.2665	0.165	560533	keystroke_o	o	n/a
280.4165	0.09	560833	keystroke_u	u	n/a
280.5965	0.105	561193	keystroke_s	s	n/a
281.737	0.059	563474	keystroke_Key.backspace	Key.backspace	n/a
281.857	0.075	563714	keystroke_Key.backspace	Key.backspace	n/a
282.0215	0.105	564043	keystroke_s	s	n/a
282.1565	0.075	564313	keystroke_Key.space	Key.space	n/a
282.9365	0.105	565873	keystroke_t	t	n/a
283.1465	0.1505	566293	keystroke_r	r	n/a
283.282	0.105	566564	keystroke_a	a	n/a
283.402	0.09	566804	keystroke_n	n	n/a
283.522	0.105	567044	keystroke_s	s	n/a
283.777	0.135	567554	keystroke_p	p	n/a
283.927	0.105	567854	keystroke_o	o	n/a
284.047	0.105	568094	keystroke_r	r	n/a
284.197	0.105	568394	keystroke_t	t	n/a
284.332	0.105	568664	keystroke_Key.space	Key.space	n/a
284.857	0.12	569714	keystroke_n	n	n/a
284.962	0.105	569924	keystroke_a	a	n/a
285.3665	0.09	570733	keystroke_s	s	n/a
285.7715	0.105	571543	keystroke_t	t	n/a
285.9515	0.09	571903	keystroke_y	y	n/a
286.1915	0.09	572383	keystroke_Key.enter	Key.enter	n/a
286.2885	4.8555	572577	prompt	n/a	other landing an checklist\n
287.047	0.105	574094	keystroke_o	o	n/a
287.182	0.135	574364	keystroke_t	t	n/a
287.302	0.075	574604	keystroke_h	h	n/a
287.362	0.105	574724	keystroke_e	e	n/a
287.452	0.09	574904	keystroke_r	r	n/a
287.527	0.12	575054	keystroke_Key.space	Key.space	n/a
287.677	0.12	575354	keystroke_l	l	n/a
287.8275	0.104	575655	keystroke_a	a	n/a
287.9465	0.09	575893	keystroke_n	n	n/a
288.0815	0.1505	576163	keystroke_d	d	n/a
288.2165	0.1195	576433	keystroke_i	i	n/a
288.307	0.119	576614	keystroke_n	n	n/a
288.427	0.089	576854	keystroke_g	g	n/a
288.501	0.106	577002	keystroke_Key.space	Key.space	n/a
288.906	0.106	577812	keystroke_a	a	n/a
288.996	0.136	577992	keystroke_n	n	n/a
289.146	0.105	578292	keystroke_Key.space	Key.space	n/a
289.371	0.12	578742	keystroke_c	c	n/a
289.492	0.074	578984	keystroke_h	h	n/a
289.596	0.1055	579192	keystroke_e	e	n/a
289.8215	0.135	579643	keystroke_c	c	n/a
289.9265	0.12	579853	keystroke_k	k	n/a
290.2115	0.09	580423	keystroke_l	l	n/a
290.3475	0.119	580695	keystroke_e	e	n/a
290.6165	0.12	581233	keystroke_s	s	n/a
290.8415	0.12	581683	keystroke_t	t	n/a
291.0815	0.06	582163	keystroke_Key.enter	Key.enter	n/a
291.149	8.904	582298	prompt	n/a	bottles bolivia download spell\n
293.017	0.12	586034	keystroke_b	b	n/a
293.2115	0.09	586423	keystroke_o	o	n/a
293.3915	0.075	586783	keystroke_t	t	n/a
293.5265	0.12	587053	keystroke_t	t	n/a
293.6765	0.09	587353	keystroke_l	l	n/a
293.7965	0.09	587593	keystroke_e	e	n/a
293.9765	0.075	587953	keystroke_Key.space	Key.space	n/a
294.4865	0.06	588973	keystroke_Key.backspace	Key.backspace	n/a
294.5915	0.075	589183	keystroke_s	s	n/a
294.6965	0.09	589393	keystroke_Key.space	Key.space	n/a
295.252	0.105	590504	keystroke_b	b	n/a
295.537	0.075	591074	keystroke_o	o	n/a
295.717	0.105	591434	keystroke_l	l	n/a
295.942	0.075	591884	keystroke_i	i	n/a
296.047	0.135	592094	keystroke_v	v	n/a
296.212	0.075	592424	keystroke_i	i	n/a
296.482	0.09	592964	keystroke_a	a	n/a
296.631	0.091	593262	keystroke_Key.space	Key.space	n/a
296.932	0.12	593864	keystroke_d	d	n/a
297.082	0.059	594164	keystroke_o	o	n/a
297.2015	0.09	594403	keystroke_w	w	n/a
297.2915	0.075	594583	keystroke_n	n	n/a
297.4415	0.09	594883	keystroke_l	l	n/a
297.6815	0.015	595363	keystroke_o	o	n/a
297.7115	0.1505	595423	keystroke_a	a	n/a
297.876	0.105	595752	keystroke_d	d	n/a
298.506	0.12	597012	keystroke_Key.space	Key.space	n/a
298.791	0.12	597582	keystroke_s	s	n/a
299.0765	0.09	598153	keystroke_p	p	n/a
299.2565	0.075	598513	keystroke_e	e	n/a
299.5715	0.075	599143	keystroke_l	l	n/a
299.7065	0.105	599413	keystroke_l	l	n/a
299.9615	0.09	599923	keystroke_Key.enter	Key.enter	n/a
300.0605	8.708	600121	prompt	n/a	shaped loud adjacent strengths\n
300.8465	0.075	601693	keystroke_s	s	n/a
301.0715	0.1205	602143	keystroke_h	h	n/a
301.267	0.12	602534	keystroke_a	a	n/a
301.462	0.09	602924	keystroke_p	p	n/a
301.612	0.09	603224	keystroke_e	e	n/a
301.837	0.075	603674	keystroke_d	d	n/a
301.942	0.12	603884	keystroke_Key.space	Key.space	n/a
302.347	0.06	604694	keystroke_l	l	n/a
302.512	0.135	605024	keystroke_o	o	n/a
302.617	0.105	605234	keystroke_u	u	n/a
303.2915	0.09	606583	keystroke_d	d	n/a
303.4265	0.105	606853	keystroke_Key.space	Key.space	n/a
303.7115	0.105	607423	keystroke_a	a	n/a
304.1315	0.09	608263	keystroke_d	d	n/a
305.1215	0.0745	610243	keystroke_j	j	n/a
305.5265	0.105	611053	keystroke_a	a	n/a
305.7515	0.105	611503	keystroke_c	c	n/a
305.9915	0.09	611983	keystroke_e	e	n/a
306.1265	0.09	612253	keystroke_n	n	n/a
306.2615	0.09	612523	keystroke_t	t	n/a
306.3365	0.09	612673	keystroke_Key.space	Key.space	n/a
306.6065	0.165	613213	keystroke_s	s	n/a
306.7865	0.12	613573	keystroke_t	t	n/a
307.0115	0.12	614023	keystroke_r	r	n/a
307.207	0.12	614414	keystroke_e	e	n/a
307.402	0.075	614804	keystroke_n	n	n/a
307.582	0.105	615164	keystroke_g	g	n/a
308.092	0.105	616184	keystroke_t	t	n/a
308.242	0.075	616484	keystroke_h	h	n/a
308.497	0.075	616994	keystroke_s	s	n/a
308.6915	0.075	617383	keystroke_Key.enter	Key.enter	n/a
308.773	12.97	617546	prompt	n/a	abroad paso implement peripherals\n
309.652	0.075	619304	keystroke_a	a	n/a
309.907	0.09	619814	keystroke_b	b	n/a
310.192	0.15	620384	keystroke_r	r	n/a
310.387	0.06	620774	keystroke_o	o	n/a
310.972	0.195	621944	keystroke_a	a	n/a
311.257	0.135	622514	keystroke_d	d	n/a
311.827	0.1045	623654	keystroke_Key.space	Key.space	n/a
312.1865	0.09	624373	keystroke_p	p	n/a
312.3815	0.1055	624763	keystroke_a	a	n/a
312.727	0.09	625454	keystroke_s	s	n/a
312.892	0.12	625784	keystroke_o	o	n/a
313.027	0.105	626054	keystroke_Key.space	Key.space	n/a
313.357	0.09	626714	keystroke_i	i	n/a
313.732	0.165	627464	keystroke_m	m	n/a
314.631	0.105	629262	keystroke_p	p	n/a
315.1415	0.0905	630283	keystroke_l	l	n/a
315.5765	0.105	631153	keystroke_e	e	n/a
315.9965	0.12	631993	keystroke_m	m	n/a
316.8065	0.09	633613	keystroke_e	e	n/a
316.9565	0.105	633913	keystroke_n	n	n/a
317.1215	0.1045	634243	keystroke_t	t	n/a
317.256	0.091	634512	keystroke_Key.space	Key.space	n/a
317.692	0.09	635384	keystroke_p	p	n/a
317.932	0.15	635864	keystroke_e	e	n/a
318.097	0.12	636194	keystroke_r	r	n/a
318.367	0.075	636734	keystroke_i	i	n/a
318.757	0.09	637514	keystroke_p	p	n/a
319.237	0.09	638474	keystroke_h	h	n/a
319.507	0.18	639014	keystroke_e	e	n/a
320.7065	0.105	641413	keystroke_r	r	n/a
320.976	0.106	641952	keystroke_a	a	n/a
321.246	0.09	642492	keystroke_l	l	n/a
321.366	0.106	642732	keystroke_s	s	n/a
321.666	0.075	643332	keystroke_Key.enter	Key.enter	n/a
321.7475	9.386	643495	prompt	n/a	incl loans enhanced amounts\n
322.596	0.091	645192	keystroke_i	i	n/a
322.882	0.104	645764	keystroke_n	n	n/a
323.092	0.1345	646184	keystroke_c	c	n/a
323.3165	0.075	646633	keystroke_l	l	n/a
323.4815	0.12	646963	keystroke_Key.space	Key.space	n/a
324.0965	0.075	648193	keystroke_l	l	n/a
324.2465	0.075	648493	keystroke_o	o	n/a
324.3815	0.15	648763	keystroke_a	a	n/a
324.5015	0.12	649003	keystroke_d	d	n/a
324.7265	0.09	649453	keystroke_n	n	n/a
324.8765	0.09	649753	keystroke_s	s	n/a
325.0715	0.06	650143	keystroke_Key.space	Key.space	n/a
325.4465	0.06	650893	keystroke_Key.backspace	Key.backspace	n/a
325.5965	0.06	651193	keystroke_Key.backspace	Key.backspace	n/a
325.7315	0.075	651463	keystroke_Key.backspace	Key.backspace	n/a
325.8815	0.09	651763	keystroke_Key.backspace	Key.backspace	n/a
326.1665	0.09	652333	keystroke_n	n	n/a
326.3015	0.09	652603	keystroke_s	s	n/a
326.406	0.075	652812	keystroke_Key.space	Key.space	n/a
327.351	0.09	654702	keystroke_e	e	n/a
327.472	0.104	654944	keystroke_n	n	n/a
327.727	0.074	655454	keystroke_h	h	n/a
327.951	0.105	655902	keystroke_a	a	n/a
328.146	0.075	656292	keystroke_n	n	n/a
328.851	0.105	657702	keystroke_c	c	n/a
329.076	0.09	658152	keystroke_e	e	n/a
329.271	0.105	658542	keystroke_d	d	n/a
329.406	0.135	658812	keystroke_Key.space	Key.space	n/a
329.601	0.12	659202	keystroke_a	a	n/a
329.751	0.18	659502	keystroke_m	m	n/a
329.961	0.12	659922	keystroke_o	o	n/a
330.036	0.075	660072	keystroke_u	u	n/a
330.246	0.075	660492	keystroke_n	n	n/a
330.441	0.09	660882	keystroke_t	t	n/a
330.816	0.105	661632	keystroke_s	s	n/a
331.056	0.075	662112	keystroke_Key.enter	Key.enter	n/a
331.1395	8.1835	662279	prompt	n/a	authorization area flow beverages\n
331.9265	0.105	663853	keystroke_a	a	n/a
332.1815	0.105	664363	keystroke_u	u	n/a
332.4215	0.105	664843	keystroke_t	t	n/a
332.5115	0.105	665023	keystroke_h	h	n/a
332.7365	0.075	665473	keystroke_o	o	n/a
332.8865	0.12	665773	keystroke_r	r	n/a
333.0815	0.06	666163	keystroke_i	i	n/a
333.4415	0.09	666883	keystroke_z	z	n/a
333.7415	0.12	667483	keystroke_a	a	n/a
333.9965	0.105	667993	keystroke_t	t	n/a
334.1165	0.195	668233	keystroke_i	i	n/a
334.1915	0.135	668383	keystroke_o	o	n/a
334.2965	0.15	668593	keystroke_n	n	n/a
334.4615	0.06	668923	keystroke_Key.space	Key.space	n/a
334.6115	0.135	669223	keystroke_a	a	n/a
334.8965	0.12	669793	keystroke_r	r	n/a
334.9865	0.15	669973	keystroke_e	e	n/a
335.0765	0.135	670153	keystroke_a	a	n/a
335.2415	0.12	670483	keystroke_Key.space	Key.space	n/a
335.4815	0.12	670963	keystroke_f	f	n/a
335.5865	0.09	671173	keystroke_l	l	n/a
335.7815	0.06	671563	keystroke_o	o	n/a
335.9615	0.075	671923	keystroke_w	w	n/a
336.0815	0.09	672163	keystroke_Key.space	Key.space	n/a
336.7265	0.09	673453	keystroke_b	b	n/a
337.0865	0.12	674173	keystroke_e	e	n/a
337.7465	0.105	675493	keystroke_v	v	n/a
338.0165	0.195	676033	keystroke_e	e	n/a
338.1965	0.12	676393	keystroke_r	r	n/a
338.4365	0.135	676873	keystroke_a	a	n/a
338.6465	0.12	677293	keystroke_g	g	n/a
338.7365	0.12	677473	keystroke_e	e	n/a
339.0065	0.09	678013	keystroke_s	s	n/a
339.2615	0.06	678523	keystroke_Key.enter	Key.enter	n/a
339.328	8.3205	678656	prompt	n/a	fluid shake sparc sapphire\n
340.071	0.12	680142	keystroke_f	f	n/a
340.402	0.134	680804	keystroke_l	l	n/a
340.867	0.074	681734	keystroke_u	u	n/a
340.986	0.105	681972	keystroke_i	i	n/a
341.241	0.105	682482	keystroke_d	d	n/a
341.406	0.105	682812	keystroke_Key.space	Key.space	n/a
341.886	0.12	683772	keystroke_s	s	n/a
342.021	0.105	684042	keystroke_h	h	n/a
342.141	0.15	684282	keystroke_a	a	n/a
342.306	0.105	684612	keystroke_k	k	n/a
342.427	0.104	684854	keystroke_e	e	n/a
342.546	0.09	685092	keystroke_Key.space	Key.space	n/a
343.431	0.15	686862	keystroke_s	s	n/a
343.626	0.12	687252	keystroke_p	p	n/a
343.911	0.105	687822	keystroke_a	a	n/a
344.151	0.105	688302	keystroke_r	r	n/a
344.466	0.12	688932	keystroke_c	c	n/a
344.661	0.105	689322	keystroke_Key.space	Key.space	n/a
344.976	0.12	689952	keystroke_s	s	n/a
346.161	0.045	692322	keystroke_a	a	n/a
346.356	0.075	692712	keystroke_p	p	n/a
346.536	0.075	693072	keystroke_p	p	n/a
346.821	0.165	693642	keystroke_h	h	n/a
346.941	0.105	693882	keystroke_i	i	n/a
347.137	0.119	694274	keystroke_r	r	n/a
347.226	0.15	694452	keystroke_e	e	n/a
347.556	0.09	695112	keystroke_Key.enter	Key.enter	n/a
347.6535	7.9145	695307	prompt	n/a	plane noble dangerous omega\n
348.4715	0.12	696943	keystroke_p	p	n/a
348.7865	0.105	697573	keystroke_l	l	n/a
348.9215	0.12	697843	keystroke_a	a	n/a
349.0565	0.09	698113	keystroke_n	n	n/a
349.4015	0.12	698803	keystroke_e	e	n/a
349.5665	0.119	699133	keystroke_Key.space	Key.space	n/a
349.8815	0.165	699763	keystroke_n	n	n/a
350.0165	0.09	700033	keystroke_o	o	n/a
350.1965	0.12	700393	keystroke_b	b	n/a
350.3465	0.105	700693	keystroke_l	l	n/a
350.5115	0.105	701023	keystroke_e	e	n/a
350.6315	0.09	701263	keystroke_Key.space	Key.space	n/a
351.126	0.105	702252	keystroke_g	g	n/a
351.561	0.06	703122	keystroke_Key.backspace	Key.backspace	n/a
351.636	0.18	703272	keystroke_d	d	n/a
351.786	0.105	703572	keystroke_a	a	n/a
351.936	0.075	703872	keystroke_n	n	n/a
352.281	0.091	704562	keystroke_g	g	n/a
352.597	0.164	705194	keystroke_e	e	n/a
352.7915	0.075	705583	keystroke_r	r	n/a
352.9865	0.15	705973	keystroke_o	o	n/a
353.0915	0.105	706183	keystroke_u	u	n/a
353.7065	0.09	707413	keystroke_s	s	n/a
353.8415	0.12	707683	keystroke_Key.space	Key.space	n/a
354.3215	0.09	708643	keystroke_o	o	n/a
354.5315	0.135	709063	keystroke_m	m	n/a
354.8615	0.105	709723	keystroke_e	e	n/a
355.1015	0.18	710203	keystroke_g	g	n/a
355.2515	0.12	710503	keystroke_a	a	n/a
355.4915	0.075	710983	keystroke_Key.enter	Key.enter	n/a
355.575	7.463	711150	prompt	n/a	spent concerts keeping greg\n
356.4515	0.12	712903	keystroke_s	s	n/a
356.6315	0.105	713263	keystroke_p	p	n/a
356.7515	0.12	713503	keystroke_e	e	n/a
356.9765	0.09	713953	keystroke_n	n	n/a
357.426	0.12	714852	keystroke_t	t	n/a
357.561	0.105	715122	keystroke_Key.space	Key.space	n/a
357.891	0.136	715782	keystroke_c	c	n/a
357.966	0.106	715932	keystroke_o	o	n/a
358.056	0.091	716112	keystroke_n	n	n/a
358.311	0.105	716622	keystroke_c	c	n/a
358.551	0.12	717102	keystroke_e	e	n/a
358.641	0.091	717282	keystroke_r	r	n/a
358.836	0.061	717672	keystroke_t	t	n/a
359.031	0.091	718062	keystroke_s	s	n/a
359.136	0.105	718272	keystroke_Key.space	Key.space	n/a
359.377	0.104	718754	keystroke_k	k	n/a
359.496	0.06	718992	keystroke_e	e	n/a
359.662	0.089	719324	keystroke_e	e	n/a
359.901	0.1355	719802	keystroke_p	p	n/a
360.2315	0.03	720463	keystroke_i	i	n/a
360.2465	0.09	720493	keystroke_n	n	n/a
360.3665	0.12	720733	keystroke_g	g	n/a
360.4415	0.09	720883	keystroke_Key.space	Key.space	n/a
360.7265	0.09	721453	keystroke_g	g	n/a
360.9515	0.12	721903	keystroke_r	r	n/a
361.281	0.075	722562	keystroke_e	e	n/a
361.791	0.09	723582	keystroke_y	y	n/a
362.256	0.075	724512	keystroke_Key.backspace	Key.backspace	n/a
362.406	0.121	724812	keystroke_g	g	n/a
362.976	0.0605	725952	keystroke_Key.enter	Key.enter	n/a
363.042	15.506	726084	prompt	n/a	who'd've meet quebec pacific\n
368.9645	0.087	737929	keystroke_w	w	n/a
369.0665	0.1355	738133	keystroke_h	h	n/a
369.172	0.105	738344	keystroke_o	o	n/a
369.742	0.12	739484	keystroke_'	'	n/a
370.2065	0.12	740413	keystroke_d	d	n/a
371.1665	0.12	742333	keystroke_'	'	n/a
371.5115	0.12	743023	keystroke_v	v	n/a
371.8715	0.105	743743	keystroke_e	e	n/a
372.0515	0.105	744103	keystroke_Key.space	Key.space	n/a
373.086	0.121	746172	keystroke_m	m	n/a
373.222	0.06	746444	keystroke_e	e	n/a
373.371	0.12	746742	keystroke_e	e	n/a
373.687	0.014	747374	keystroke_t	t	n/a
373.716	0.105	747432	keystroke_Key.space	Key.space	n/a
374.1065	0.1055	748213	keystroke_q	q	n/a
374.407	0.135	748814	keystroke_u	u	n/a
374.812	0.104	749624	keystroke_e	e	n/a
375.217	0.105	750434	keystroke_b	b	n/a
375.427	0.104	750854	keystroke_e	e	n/a
375.666	0.105	751332	keystroke_c	c	n/a
376.386	0.12	752772	keystroke_Key.space	Key.space	n/a
376.687	0.119	753374	keystroke_p	p	n/a
376.837	0.104	753674	keystroke_a	a	n/a
377.061	0.12	754122	keystroke_c	c	n/a
377.556	0.06	755112	keystroke_i	i	n/a
377.661	0.12	755322	keystroke_f	f	n/a
377.841	0.075	755682	keystroke_i	i	n/a
378.036	0.1355	756072	keystroke_c	c	n/a
378.4715	0.075	756943	keystroke_Key.enter	Key.enter	n/a
378.553	14.275	757106	prompt	n/a	hungarian twins evans agent\n
379.4465	0.06	758893	keystroke_h	h	n/a
379.627	0.06	759254	keystroke_u	u	n/a
379.822	0.075	759644	keystroke_n	n	n/a
379.972	0.12	759944	keystroke_g	g	n/a
380.287	0.12	760574	keystroke_r	r	n/a
380.467	0.105	760934	keystroke_a	a	n/a
381.5015	0.045	763003	keystroke_Key.backspace	Key.backspace	n/a
381.7115	0.015	763423	keystroke_Key.backspace	Key.backspace	n/a
381.7715	0.06	763543	keystroke_Key.backspace	Key.backspace	n/a
381.8615	0.135	763723	keystroke_a	a	n/a
382.0265	0.12	764053	keystroke_r	r	n/a
382.867	0.045	765734	keystroke_Key.backspace	Key.backspace	n/a
383.002	0.09	766004	keystroke_Key.backspace	Key.backspace	n/a
383.137	0.18	766274	keystroke_g	g	n/a
383.287	0.135	766574	keystroke_a	a	n/a
384.0965	0.12	768193	keystroke_r	r	n/a
384.4265	0.09	768853	keystroke_i	i	n/a
384.5915	0.105	769183	keystroke_a	a	n/a
384.7115	0.105	769423	keystroke_n	n	n/a
385.3565	0.105	770713	keystroke_Key.space	Key.space	n/a
385.7165	0.1045	771433	keystroke_w	w	n/a
385.971	0.09	771942	keystroke_i	i	n/a
386.091	0.105	772182	keystroke_t	t	n/a
387.396	0.045	774792	keystroke_Key.backspace	Key.backspace	n/a
387.531	0.06	775062	keystroke_Key.backspace	Key.backspace	n/a
387.681	0.09	775362	keystroke_Key.backspace	Key.backspace	n/a
387.981	0.12	775962	keystroke_t	t	n/a
388.5365	0.075	777073	keystroke_w	w	n/a
388.6865	0.09	777373	keystroke_i	i	n/a
389.0315	0.0755	778063	keystroke_n	n	n/a
389.287	0.09	778574	keystroke_s	s	n/a
389.767	0.104	779534	keystroke_Key.space	Key.space	n/a
390.172	0.105	780344	keystroke_e	e	n/a
390.442	0.165	780884	keystroke_v	v	n/a
390.592	0.105	781184	keystroke_a	a	n/a
390.817	0.1195	781634	keystroke_n	n	n/a
390.9815	0.09	781963	keystroke_s	s	n/a
391.2515	0.12	782503	keystroke_Key.space	Key.space	n/a
391.5815	0.105	783163	keystroke_a	a	n/a
391.7915	0.105	783583	keystroke_g	g	n/a
392.0015	0.12	784003	keystroke_e	e	n/a
392.2115	0.12	784423	keystroke_n	n	n/a
392.4965	0.105	784993	keystroke_t	t	n/a
392.7515	0.075	785503	keystroke_Key.enter	Key.enter	n/a
392.833	8.14	785666	prompt	n/a	base titled status muscle\n
393.6065	0.15	787213	keystroke_b	b	n/a
393.7115	0.165	787423	keystroke_a	a	n/a
393.8915	0.165	787783	keystroke_s	s	n/a
393.9965	0.15	787993	keystroke_e	e	n/a
394.1765	0.135	788353	keystroke_Key.space	Key.space	n/a
394.3715	0.105	788743	keystroke_t	t	n/a
394.5515	0.09	789103	keystroke_i	i	n/a
394.7915	0.105	789583	keystroke_t	t	n/a
395.1965	0.075	790393	keystroke_l	l	n/a
395.3765	0.12	790753	keystroke_e	e	n/a
395.6615	0.03	791323	keystroke_e	e	n/a
396.4115	0.075	792823	keystroke_Key.backspace	Key.backspace	n/a
396.5315	0.1055	793063	keystroke_d	d	n/a
396.6665	0.09	793333	keystroke_Key.space	Key.space	n/a
397.1165	0.105	794233	keystroke_s	s	n/a
397.4015	0.12	794803	keystroke_t	t	n/a
397.6115	0.15	795223	keystroke_a	a	n/a
398.4215	0.12	796843	keystroke_t	t	n/a
398.7065	0.075	797413	keystroke_u	u	n/a
398.8715	0.105	797743	keystroke_s	s	n/a
398.9915	0.135	797983	keystroke_Key.space	Key.space	n/a
399.2315	0.135	798463	keystroke_m	m	n/a
399.4865	0.09	798973	keystroke_u	u	n/a
399.6365	0.135	799273	keystroke_s	s	n/a
400.011	0.136	800022	keystroke_c	c	n/a
400.566	0.106	801132	keystroke_l	l	n/a
400.686	0.135	801372	keystroke_e	e	n/a
400.881	0.09	801762	keystroke_Key.enter	Key.enter	n/a
400.9795	8.2585	801959	prompt	n/a	outdoor half bidding classification\n
401.9015	0.15	803803	keystroke_o	o	n/a
402.0965	0.09	804193	keystroke_u	u	n/a
402.2165	0.12	804433	keystroke_t	t	n/a
402.5615	0.12	805123	keystroke_d	d	n/a
402.8315	0.015	805663	keystroke_o	o	n/a
402.8765	0.105	805753	keystroke_o	o	n/a
403.0865	0.1345	806173	keystroke_r	r	n/a
403.207	0.104	806414	keystroke_Key.space	Key.space	n/a
403.762	0.09	807524	keystroke_h	h	n/a
403.866	0.12	807732	keystroke_a	a	n/a
404.106	0.0905	808212	keystroke_l	l	n/a
404.2265	0.12	808453	keystroke_f	f	n/a
404.3315	0.12	808663	keystroke_Key.space	Key.space	n/a
404.7515	0.09	809503	keystroke_b	b	n/a
405.1715	0.075	810343	keystroke_i	i	n/a
405.3065	0.09	810613	keystroke_d	d	n/a
405.471	0.12	810942	keystroke_d	d	n/a
405.606	0.135	811212	keystroke_i	i	n/a
405.726	0.135	811452	keystroke_n	n	n/a
405.876	0.09	811752	keystroke_g	g	n/a
405.951	0.12	811902	keystroke_Key.space	Key.space	n/a
406.521	0.165	813042	keystroke_c	c	n/a
406.791	0.0755	813582	keystroke_l	l	n/a
406.8965	0.12	813793	keystroke_a	a	n/a
407.152	0.074	814304	keystroke_s	s	n/a
407.317	0.104	814634	keystroke_s	s	n/a
407.571	0.06	815142	keystroke_i	i	n/a
407.691	0.12	815382	keystroke_f	f	n/a
407.826	0.06	815652	keystroke_i	i	n/a
407.991	0.15	815982	keystroke_c	c	n/a
408.171	0.09	816342	keystroke_a	a	n/a
408.336	0.106	816672	keystroke_t	t	n/a
408.396	0.21	816792	keystroke_i	i	n/a
408.471	0.12	816942	keystroke_o	o	n/a
408.576	0.135	817152	keystroke_n	n	n/a
409.176	0.06	818352	keystroke_Key.enter	Key.enter	n/a
409.2435	10.615	818487	prompt	n/a	assist stored resolutions mozilla\n
410.241	0.12	820482	keystroke_a	a	n/a
410.526	0.075	821052	keystroke_s	s	n/a
410.691	0.075	821382	keystroke_s	s	n/a
410.856	0.075	821712	keystroke_i	i	n/a
410.917	0.119	821834	keystroke_s	s	n/a
411.1865	0.105	822373	keystroke_t	t	n/a
411.3965	0.0895	822793	keystroke_Key.space	Key.space	n/a
411.9065	0.135	823813	keystroke_s	s	n/a
412.1315	0.135	824263	keystroke_t	t	n/a
412.2815	0.075	824563	keystroke_o	o	n/a
412.4015	0.135	824803	keystroke_r	r	n/a
412.5215	0.12	825043	keystroke_e	e	n/a
412.7915	0.105	825583	keystroke_d	d	n/a
412.9415	0.105	825883	keystroke_Key.space	Key.space	n/a
413.6015	0.135	827203	keystroke_r	r	n/a
413.6915	0.12	827383	keystroke_e	e	n/a
413.9315	0.105	827863	keystroke_s	s	n/a
414.0965	0.075	828193	keystroke_o	o	n/a
414.2765	0.135	828553	keystroke_l	l	n/a
414.4715	0.06	828943	keystroke_u	u	n/a
414.6665	0.12	829333	keystroke_t	t	n/a
414.6965	0.225	829393	keystroke_i	i	n/a
414.8015	0.135	829603	keystroke_o	o	n/a
415.056	0.105	830112	keystroke_s	s	n/a
415.191	0.105	830382	keystroke_Key.space	Key.space	n/a
415.926	0.075	831852	keystroke_Key.backspace	Key.backspace	n/a
416.076	0.075	832152	keystroke_Key.backspace	Key.backspace	n/a
416.346	0.075	832692	keystroke_n	n	n/a
416.631	0.105	833262	keystroke_s	s	n/a
417.081	0.09	834162	keystroke_Key.space	Key.space	n/a
418.071	0.135	836142	keystroke_m	m	n/a
418.221	0.105	836442	keystroke_o	o	n/a
418.612	0.149	837224	keystroke_z	z	n/a
418.881	0.076	837762	keystroke_i	i	n/a
419.091	0.076	838182	keystroke_l	l	n/a
419.211	0.15	838422	keystroke_l	l	n/a
419.421	0.15	838842	keystroke_a	a	n/a
419.781	0.075	839562	keystroke_Key.enter	Key.enter	n/a
419.867	14.902	839734	prompt	n/a	binary becoming circulation acting\n
420.681	0.105	841362	keystroke_b	b	n/a
421.026	0.105	842052	keystroke_i	i	n/a
421.191	0.135	842382	keystroke_n	n	n/a
421.431	0.12	842862	keystroke_a	a	n/a
421.641	0.105	843282	keystroke_r	r	n/a
421.776	0.09	843552	keystroke_y	y	n/a
421.881	0.105	843762	keystroke_Key.space	Key.space	n/a
422.061	0.09	844122	keystroke_b	b	n/a
422.166	0.135	844332	keystroke_e	e	n/a
422.421	0.135	844842	keystroke_c	c	n/a
422.541	0.12	845082	keystroke_o	o	n/a
422.631	0.135	845262	keystroke_m	m	n/a
422.781	0.135	845562	keystroke_i	i	n/a
422.886	0.105	845772	keystroke_n	n	n/a
423.021	0.105	846042	keystroke_g	g	n/a
423.096	0.075	846192	keystroke_Key.space	Key.space	n/a
423.561	0.135	847122	keystroke_c	c	n/a
423.741	0.075	847482	keystroke_i	i	n/a
424.026	0.12	848052	keystroke_r	r	n/a
424.536	0.135	849072	keystroke_c	c	n/a
424.851	0.06	849702	keystroke_u	u	n/a
425.031	0.12	850062	keystroke_l	l	n/a
425.136	0.091	850272	keystroke_a	a	n/a
425.286	0.135	850572	keystroke_t	t	n/a
425.361	0.21	850722	keystroke_i	i	n/a
425.556	0.135	851112	keystroke_n	n	n/a
425.676	0.09	851352	keystroke_Key.space	Key.space	n/a
426.291	0.06	852582	keystroke_Key.backspace	Key.backspace	n/a
426.426	0.09	852852	keystroke_Key.backspace	Key.backspace	n/a
426.576	0.075	853152	keystroke_Key.backspace	Key.backspace	n/a
426.831	0.12	853662	keystroke_o	o	n/a
426.966	0.135	853932	keystroke_n	n	n/a
427.116	0.105	854232	keystroke_Key.space	Key.space	n/a
431.094	0.012	862188	keystroke_Key.backspace	Key.backspace	n/a
431.346	0.075	862692	keystroke_Key.backspace	Key.backspace	n/a
431.601	0.06	863202	keystroke_Key.backspace	Key.backspace	n/a
432.4265	0.21	864853	keystroke_i	i	n/a
432.5165	0.15	865033	keystroke_o	o	n/a
432.6375	0.134	865275	keystroke_n	n	n/a
432.8015	0.09	865603	keystroke_Key.space	Key.space	n/a
433.3865	0.12	866773	keystroke_a	a	n/a
433.6265	0.15	867253	keystroke_c	c	n/a
433.8965	0.135	867793	keystroke_t	t	n/a
434.0015	0.12	868003	keystroke_i	i	n/a
434.1065	0.165	868213	keystroke_n	n	n/a
434.2715	0.105	868543	keystroke_g	g	n/a
434.6915	0.075	869383	keystroke_Key.enter	Key.enter	n/a
434.7755	6.6975	869551	prompt	n/a	relate dude bios visible\n
435.6065	0.135	871213	keystroke_r	r	n/a
435.6965	0.105	871393	keystroke_e	e	n/a
435.8465	0.09	871693	keystroke_l	l	n/a
435.9365	0.135	871873	keystroke_a	a	n/a
436.0565	0.12	872113	keystroke_t	t	n/a
436.2365	0.12	872473	keystroke_e	e	n/a
436.9865	0.105	873973	keystroke_Key.space	Key.space	n/a
437.2715	0.12	874543	keystroke_d	d	n/a
437.4665	0.105	874933	keystroke_u	u	n/a
437.5565	0.12	875113	keystroke_d	d	n/a
438.097	0.12	876194	keystroke_e	e	n/a
438.307	0.105	876614	keystroke_Key.space	Key.space	n/a
438.997	0.12	877994	keystroke_b	b	n/a
439.222	0.195	878444	keystroke_i	i	n/a
439.342	0.135	878684	keystroke_o	o	n/a
439.567	0.105	879134	keystroke_s	s	n/a
439.702	0.105	879404	keystroke_Key.space	Key.space	n/a
440.062	0.12	880124	keystroke_v	v	n/a
440.197	0.105	880394	keystroke_i	i	n/a
440.467	0.075	880934	keystroke_s	s	n/a
440.677	0.075	881354	keystroke_i	i	n/a
440.9165	0.09	881833	keystroke_b	b	n/a
441.0665	0.09	882133	keystroke_l	l	n/a
441.2165	0.09	882433	keystroke_e	e	n/a
441.4115	0.06	882823	keystroke_Key.enter	Key.enter	n/a
441.478	14.141	882956	prompt	n/a	nickel amplifier athletes mentor\n
442.4465	0.105	884893	keystroke_n	n	n/a
442.5965	0.09	885193	keystroke_i	i	n/a
442.7915	0.12	885583	keystroke_c	c	n/a
442.9265	0.12	885853	keystroke_k	k	n/a
443.1215	0.12	886243	keystroke_e	e	n/a
443.3015	0.09	886603	keystroke_l	l	n/a
443.5115	0.075	887023	keystroke_Key.space	Key.space	n/a
444.0665	0.105	888133	keystroke_a	a	n/a
444.2315	0.165	888463	keystroke_m	m	n/a
444.5465	0.12	889093	keystroke_p	p	n/a
444.8465	0.135	889693	keystroke_l	l	n/a
445.0265	0.09	890053	keystroke_i	i	n/a
446.0615	0.135	892123	keystroke_f	f	n/a
446.2415	0.105	892483	keystroke_i	i	n/a
446.4665	0.195	892933	keystroke_e	e	n/a
446.6315	0.12	893263	keystroke_r	r	n/a
446.9315	0.06	893863	keystroke_Key.space	Key.space	n/a
448.117	0.12	896234	keystroke_a	a	n/a
448.432	0.12	896864	keystroke_t	t	n/a
448.612	0.09	897224	keystroke_h	h	n/a
448.717	0.105	897434	keystroke_e	e	n/a
448.882	0.105	897764	keystroke_l	l	n/a
449.032	0.045	898064	keystroke_e	e	n/a
450.217	0.135	900434	keystroke_t	t	n/a
451.027	0.105	902054	keystroke_e	e	n/a
451.506	0.09	903012	keystroke_Key.backspace	Key.backspace	n/a
451.671	0.075	903342	keystroke_Key.backspace	Key.backspace	n/a
451.836	0.06	903672	keystroke_Key.backspace	Key.backspace	n/a
451.986	0.075	903972	keystroke_Key.backspace	Key.backspace	n/a
452.136	0.09	904272	keystroke_Key.backspace	Key.backspace	n/a
452.497	0.105	904994	keystroke_l	l	n/a
452.751	0.12	905502	keystroke_e	e	n/a
452.961	0.106	905922	keystroke_t	t	n/a
453.1715	0.12	906343	keystroke_e	e	n/a
453.4115	0.09	906823	keystroke_s	s	n/a
453.6065	0.105	907213	keystroke_Key.space	Key.space	n/a
454.522	0.135	909044	keystroke_m	m	n/a
454.687	0.1345	909374	keystroke_e	e	n/a
454.807	0.15	909614	keystroke_n	n	n/a
454.987	0.134	909974	keystroke_t	t	n/a
455.167	0.089	910334	keystroke_o	o	n/a
455.287	0.135	910574	keystroke_r	r	n/a
455.556	0.06	911112	keystroke_Key.enter	Key.enter	n/a
455.6255	5.9025	911251	prompt	n/a	week plus unified entrance\n
456.457	0.12	912914	keystroke_w	w	n/a
456.696	0.075	913392	keystroke_e	e	n/a
456.847	0.119	913694	keystroke_e	e	n/a
456.967	0.209	913934	keystroke_k	k	n/a
457.101	0.135	914202	keystroke_Key.space	Key.space	n/a
457.296	0.075	914592	keystroke_p	p	n/a
457.446	0.135	914892	keystroke_l	l	n/a
457.671	0.06	915342	keystroke_u	u	n/a
457.776	0.12	915552	keystroke_s	s	n/a
457.941	0.12	915882	keystroke_Key.space	Key.space	n/a
458.286	0.075	916572	keystroke_u	u	n/a
458.511	0.1355	917022	keystroke_n	n	n/a
458.6475	0.104	917295	keystroke_i	i	n/a
458.977	0.15	917954	keystroke_f	f	n/a
459.112	0.105	918224	keystroke_i	i	n/a
459.517	0.105	919034	keystroke_e	e	n/a
459.727	0.12	919454	keystroke_d	d	n/a
459.847	0.119	919694	keystroke_Key.space	Key.space	n/a
460.117	0.12	920234	keystroke_e	e	n/a
460.252	0.105	920504	keystroke_n	n	n/a
460.386	0.121	920772	keystroke_t	t	n/a
460.612	0.15	921224	keystroke_r	r	n/a
460.732	0.164	921464	keystroke_a	a	n/a
460.927	0.09	921854	keystroke_n	n	n/a
461.047	0.12	922094	keystroke_c	c	n/a
461.257	0.09	922514	keystroke_e	e	n/a
461.452	0.075	922904	keystroke_Key.enter	Key.enter	n/a
461.535	15.1885	923070	prompt	n/a	disability enhancement lopez bathroom\n
462.307	0.119	924614	keystroke_d	d	n/a
462.472	0.089	924944	keystroke_i	i	n/a
462.652	0.1195	925304	keystroke_s	s	n/a
462.8615	0.12	925723	keystroke_a	a	n/a
463.0865	0.105	926173	keystroke_b	b	n/a
463.3115	0.075	926623	keystroke_l	l	n/a
463.5065	0.09	927013	keystroke_i	i	n/a
464.5565	0.06	929113	keystroke_Key.backspace	Key.backspace	n/a
464.7065	0.06	929413	keystroke_Key.backspace	Key.backspace	n/a
466.086	0.075	932172	keystroke_i	i	n/a
466.236	0.105	932472	keystroke_l	l	n/a
466.386	0.09	932772	keystroke_i	i	n/a
466.596	0.105	933192	keystroke_t	t	n/a
466.716	0.075	933432	keystroke_y	y	n/a
466.8965	0.105	933793	keystroke_Key.space	Key.space	n/a
467.6915	0.12	935383	keystroke_e	e	n/a
467.8415	0.09	935683	keystroke_n	n	n/a
468.1565	0.0605	936313	keystroke_h	h	n/a
468.261	0.121	936522	keystroke_a	a	n/a
468.442	0.074	936884	keystroke_n	n	n/a
469.356	0.121	938712	keystroke_c	c	n/a
469.596	0.076	939192	keystroke_e	e	n/a
469.776	0.105	939552	keystroke_d	d	n/a
470.706	0.0605	941412	keystroke_Key.backspace	Key.backspace	n/a
470.961	0.09	941922	keystroke_m	m	n/a
471.111	0.135	942222	keystroke_e	e	n/a
471.261	0.075	942522	keystroke_n	n	n/a
471.426	0.09	942852	keystroke_t	t	n/a
471.576	0.045	943152	keystroke_Key.space	Key.space	n/a
471.921	0.075	943842	keystroke_l	l	n/a
472.191	0.165	944382	keystroke_o	o	n/a
472.341	0.105	944682	keystroke_p	p	n/a
473.3915	0.105	946783	keystroke_e	e	n/a
473.6615	0.12	947323	keystroke_z	z	n/a
473.9765	0.09	947953	keystroke_Key.space	Key.space	n/a
474.981	0.15	949962	keystroke_b	b	n/a
475.116	0.135	950232	keystroke_a	a	n/a
475.416	0.12	950832	keystroke_t	t	n/a
475.671	0.075	951342	keystroke_h	h	n/a
475.881	0.12	951762	keystroke_r	r	n/a
476.061	0.045	952122	keystroke_o	o	n/a
476.181	0.135	952362	keystroke_o	o	n/a
476.3915	0.15	952783	keystroke_m	m	n/a
476.6465	0.075	953293	keystroke_Key.enter	Key.enter	n/a
476.7295	9.2635	953459	prompt	n/a	block accomplished twenty solar\n
477.7565	0.09	955513	keystroke_b	b	n/a
477.8615	0.12	955723	keystroke_l	l	n/a
478.2365	0.075	956473	keystroke_o	o	n/a
478.4765	0.1355	956953	keystroke_c	c	n/a
478.597	0.09	957194	keystroke_k	k	n/a
478.731	0.105	957462	keystroke_Key.space	Key.space	n/a
479.032	0.09	958064	keystroke_a	a	n/a
479.316	0.075	958632	keystroke_c	c	n/a
479.467	0.104	958934	keystroke_c	c	n/a
479.721	0.12	959442	keystroke_o	o	n/a
479.901	0.165	959802	keystroke_m	m	n/a
480.156	0.075	960312	keystroke_p	p	n/a
480.456	0.09	960912	keystroke_i	i	n/a
481.041	0.09	962082	keystroke_Key.backspace	Key.backspace	n/a
481.281	0.12	962562	keystroke_l	l	n/a
481.417	0.089	962834	keystroke_i	i	n/a
481.581	0.12	963162	keystroke_s	s	n/a
481.731	0.075	963462	keystroke_h	h	n/a
481.896	0.105	963792	keystroke_e	e	n/a
482.121	0.105	964242	keystroke_d	d	n/a
482.241	0.12	964482	keystroke_Key.space	Key.space	n/a
482.871	0.105	965742	keystroke_t	t	n/a
483.096	0.0755	966192	keystroke_w	w	n/a
483.6365	0.09	967273	keystroke_e	e	n/a
483.7415	0.12	967483	keystroke_n	n	n/a
484.0265	0.105	968053	keystroke_t	t	n/a
484.2065	0.09	968413	keystroke_y	y	n/a
484.3565	0.105	968713	keystroke_Key.space	Key.space	n/a
485.092	0.135	970184	keystroke_s	s	n/a
485.242	0.045	970484	keystroke_o	o	n/a
485.392	0.09	970784	keystroke_l	l	n/a
485.602	0.105	971204	keystroke_a	a	n/a
485.767	0.105	971534	keystroke_r	r	n/a
485.916	0.075	971832	keystroke_Key.enter	Key.enter	n/a
485.9985	10.4795	971997	prompt	n/a	biological punishment outer expected\n
486.711	0.121	973422	keystroke_b	b	n/a
486.907	0.209	973814	keystroke_i	i	n/a
487.042	0.12	974084	keystroke_o	o	n/a
487.282	0.074	974564	keystroke_l	l	n/a
487.432	0.074	974864	keystroke_o	o	n/a
487.581	0.105	975162	keystroke_g	g	n/a
487.716	0.09	975432	keystroke_i	i	n/a
487.911	0.195	975822	keystroke_c	c	n/a
488.091	0.105	976182	keystroke_a	a	n/a
488.241	0.105	976482	keystroke_l	l	n/a
488.406	0.09	976812	keystroke_Key.space	Key.space	n/a
488.9315	0.18	977863	keystroke_p	p	n/a
489.3065	0.09	978613	keystroke_u	u	n/a
489.7715	0.105	979543	keystroke_n	n	n/a
490.9415	0.015	981883	keystroke_i	i	n/a
490.9865	0.135	981973	keystroke_s	s	n/a
491.1365	0.0755	982273	keystroke_h	h	n/a
491.5715	0.105	983143	keystroke_m	m	n/a
491.737	0.1195	983474	keystroke_e	e	n/a
491.8715	0.075	983743	keystroke_n	n	n/a
491.9915	0.09	983983	keystroke_t	t	n/a
492.4105	0.136	984821	keystroke_Key.space	Key.space	n/a
492.5915	0.1955	985183	keystroke_o	o	n/a
493.117	0.06	986234	keystroke_u	u	n/a
493.251	0.18	986502	keystroke_t	t	n/a
493.476	0.166	986952	keystroke_e	e	n/a
493.596	0.15	987192	keystroke_r	r	n/a
494.181	0.09	988362	keystroke_Key.space	Key.space	n/a
494.496	0.12	988992	keystroke_e	e	n/a
494.736	0.165	989472	keystroke_x	x	n/a
494.9915	0.075	989983	keystroke_p	p	n/a
495.1415	0.12	990283	keystroke_e	e	n/a
495.4115	0.135	990823	keystroke_c	c	n/a
495.6965	0.12	991393	keystroke_t	t	n/a
495.9665	0.1055	991933	keystroke_e	e	n/a
496.176	0.105	992352	keystroke_d	d	n/a
496.402	0.074	992804	keystroke_Key.enter	Key.enter	n/a
496.4815	7.392	992963	prompt	n/a	reset fellow circus nickel\n
497.272	0.12	994544	keystroke_r	r	n/a
497.346	0.12	994692	keystroke_e	e	n/a
497.542	0.1495	995084	keystroke_s	s	n/a
497.646	0.12	995292	keystroke_e	e	n/a
497.841	0.106	995682	keystroke_t	t	n/a
497.991	0.06	995982	keystroke_Key.space	Key.space	n/a
498.156	0.15	996312	keystroke_f	f	n/a
498.531	0.12	997062	keystroke_e	e	n/a
498.936	0.075	997872	keystroke_l	l	n/a
499.071	0.0905	998142	keystroke_l	l	n/a
499.2665	0.06	998533	keystroke_o	o	n/a
499.3715	0.09	998743	keystroke_w	w	n/a
499.4765	0.1205	998953	keystroke_Key.space	Key.space	n/a
499.717	0.18	999434	keystroke_c	c	n/a
499.9415	0.06	999883	keystroke_i	i	n/a
500.152	0.1045	1000304	keystroke_r	r	n/a
500.4665	0.135	1000933	keystroke_c	c	n/a
500.692	0.0745	1001384	keystroke_u	u	n/a
501.082	0.045	1002164	keystroke_s	s	n/a
501.9365	0.015	1003873	keystroke_Key.space	Key.space	n/a
502.0715	0.135	1004143	keystroke_n	n	n/a
502.2215	0.0755	1004443	keystroke_i	i	n/a
502.567	0.165	1005134	keystroke_c	c	n/a
502.777	0.105	1005554	keystroke_k	k	n/a
503.347	0.15	1006694	keystroke_e	e	n/a
503.512	0.1045	1007024	keystroke_l	l	n/a
503.7815	0.09	1007563	keystroke_Key.enter	Key.enter	n/a
503.8795	6.669	1007759	prompt	n/a	allowing flower showcase prize\n
504.5465	0.09	1009093	keystroke_a	a	n/a
504.7565	0.06	1009513	keystroke_l	l	n/a
504.9065	0.075	1009813	keystroke_l	l	n/a
505.2515	0.09	1010503	keystroke_o	o	n/a
505.4315	0.135	1010863	keystroke_w	w	n/a
505.5365	0.135	1011073	keystroke_i	i	n/a
505.6565	0.12	1011313	keystroke_n	n	n/a
505.8215	0.09	1011643	keystroke_g	g	n/a
505.8815	0.105	1011763	keystroke_Key.space	Key.space	n/a
506.2115	0.12	1012423	keystroke_f	f	n/a
506.3015	0.0895	1012603	keystroke_l	l	n/a
506.586	0.12	1013172	keystroke_o	o	n/a
506.871	0.15	1013742	keystroke_w	w	n/a
506.961	0.165	1013922	keystroke_e	e	n/a
507.081	0.1355	1014162	keystroke_r	r	n/a
507.2465	0.075	1014493	keystroke_Key.space	Key.space	n/a
507.8165	0.135	1015633	keystroke_s	s	n/a
507.9965	0.15	1015993	keystroke_h	h	n/a
508.1165	0.09	1016233	keystroke_o	o	n/a
508.2215	0.12	1016443	keystroke_w	w	n/a
508.5365	0.165	1017073	keystroke_c	c	n/a
508.6565	0.195	1017313	keystroke_a	a	n/a
508.8365	0.135	1017673	keystroke_s	s	n/a
508.9265	0.12	1017853	keystroke_e	e	n/a
509.1065	0.075	1018213	keystroke_Key.space	Key.space	n/a
509.3915	0.105	1018783	keystroke_p	p	n/a
509.5865	0.105	1019173	keystroke_r	r	n/a
509.6615	0.075	1019323	keystroke_i	i	n/a
510.0365	0.105	1020073	keystroke_z	z	n/a
510.2765	0.12	1020553	keystroke_e	e	n/a
510.4715	0.075	1020943	keystroke_Key.enter	Key.enter	n/a
510.5565	9.3965	1021113	prompt	n/a	greater received associations harrison\n
511.3715	0.1195	1022743	keystroke_g	g	n/a
511.611	0.135	1023222	keystroke_r	r	n/a
511.701	0.15	1023402	keystroke_e	e	n/a
511.791	0.09	1023582	keystroke_a	a	n/a
511.941	0.135	1023882	keystroke_t	t	n/a
512.046	0.135	1024092	keystroke_e	e	n/a
512.151	0.12	1024302	keystroke_r	r	n/a
512.406	0.06	1024812	keystroke_Key.space	Key.space	n/a
513.0515	0.12	1026103	keystroke_r	r	n/a
513.1265	0.105	1026253	keystroke_e	e	n/a
513.3515	0.12	1026703	keystroke_c	c	n/a
513.7865	0.09	1027573	keystroke_i	i	n/a
514.4615	0.0755	1028923	keystroke_Key.backspace	Key.backspace	n/a
514.567	0.12	1029134	keystroke_e	e	n/a
514.747	0.075	1029494	keystroke_i	i	n/a
514.852	0.135	1029704	keystroke_v	v	n/a
514.957	0.105	1029914	keystroke_e	e	n/a
515.1965	0.09	1030393	keystroke_d	d	n/a
515.3465	0.06	1030693	keystroke_Key.space	Key.space	n/a
516.1715	0.105	1032343	keystroke_a	a	n/a
516.4115	0.06	1032823	keystroke_s	s	n/a
516.562	0.09	1033124	keystroke_s	s	n/a
516.877	0.075	1033754	keystroke_o	o	n/a
516.982	0.135	1033964	keystroke_c	c	n/a
517.1915	0.075	1034383	keystroke_i	i	n/a
517.5065	0.105	1035013	keystroke_a	a	n/a
517.6565	0.12	1035313	keystroke_t	t	n/a
517.7465	0.21	1035493	keystroke_i	i	n/a
517.8515	0.12	1035703	keystroke_o	o	n/a
517.9415	0.09	1035883	keystroke_n	n	n/a
518.0915	0.105	1036183	keystroke_s	s	n/a
518.2415	0.09	1036483	keystroke_Key.space	Key.space	n/a
518.5415	0.075	1037083	keystroke_h	h	n/a
518.6465	0.12	1037293	keystroke_a	a	n/a
518.8715	0.06	1037743	keystroke_r	r	n/a
519.0365	0.09	1038073	keystroke_r	r	n/a
519.1865	0.09	1038373	keystroke_i	i	n/a
519.3215	0.105	1038643	keystroke_s	s	n/a
519.5015	0.18	1039003	keystroke_o	o	n/a
519.6515	0.12	1039303	keystroke_n	n	n/a
519.8765	0.075	1039753	keystroke_Key.enter	Key.enter	n/a
519.958	9.19	1039916	prompt	n/a	pleasant crossing suffering teens\n
520.8065	0.075	1041613	keystroke_p	p	n/a
520.9565	0.12	1041913	keystroke_l	l	n/a
521.0915	0.12	1042183	keystroke_e	e	n/a
521.2415	0.15	1042483	keystroke_a	a	n/a
521.4665	0.09	1042933	keystroke_s	s	n/a
521.9765	0.12	1043953	keystroke_a	a	n/a
522.1265	0.09	1044253	keystroke_n	n	n/a
522.3365	0.12	1044673	keystroke_t	t	n/a
522.4715	0.06	1044943	keystroke_Key.space	Key.space	n/a
523.026	0.165	1046052	keystroke_c	c	n/a
523.236	0.03	1046472	keystroke_o	o	n/a
523.371	0.09	1046742	keystroke_r	r	n/a
523.747	0.014	1047494	keystroke_s	s	n/a
524.0465	0.045	1048093	keystroke_Key.backspace	Key.backspace	n/a
524.1965	0.045	1048393	keystroke_Key.backspace	Key.backspace	n/a
524.3165	0.0895	1048633	keystroke_Key.backspace	Key.backspace	n/a
524.511	0.12	1049022	keystroke_r	r	n/a
524.691	0.075	1049382	keystroke_o	o	n/a
524.901	0.06	1049802	keystroke_s	s	n/a
525.066	0.075	1050132	keystroke_s	s	n/a
525.1715	0.135	1050343	keystroke_i	i	n/a
525.2915	0.105	1050583	keystroke_n	n	n/a
525.4415	0.09	1050883	keystroke_g	g	n/a
525.5165	0.09	1051033	keystroke_Key.space	Key.space	n/a
525.8615	0.105	1051723	keystroke_s	s	n/a
526.0265	0.075	1052053	keystroke_u	u	n/a
526.2065	0.09	1052413	keystroke_f	f	n/a
526.3865	0.09	1052773	keystroke_f	f	n/a
527.152	0.165	1054304	keystroke_e	e	n/a
527.302	0.135	1054604	keystroke_r	r	n/a
527.452	0.1345	1054904	keystroke_i	i	n/a
527.542	0.1195	1055084	keystroke_n	n	n/a
527.6765	0.09	1055353	keystroke_g	g	n/a
527.7365	0.12	1055473	keystroke_Key.space	Key.space	n/a
528.2765	0.075	1056553	keystroke_t	t	n/a
528.5165	0.06	1057033	keystroke_e	e	n/a
528.6665	0.105	1057333	keystroke_e	e	n/a
528.8015	0.09	1057603	keystroke_n	n	n/a
528.9365	0.105	1057873	keystroke_s	s	n/a
529.0715	0.075	1058143	keystroke_Key.enter	Key.enter	n/a
529.153	6.0405	1058306	prompt	n/a	allied stud nearest solve\n
529.9715	0.09	1059943	keystroke_a	a	n/a
530.2115	0.075	1060423	keystroke_l	l	n/a
530.3615	0.075	1060723	keystroke_l	l	n/a
530.6465	0.06	1061293	keystroke_i	i	n/a
530.8565	0.09	1061713	keystroke_e	e	n/a
531.0365	0.105	1062073	keystroke_d	d	n/a
531.1565	0.12	1062313	keystroke_Key.space	Key.space	n/a
531.3215	0.12	1062643	keystroke_s	s	n/a
531.5015	0.105	1063003	keystroke_t	t	n/a
531.6515	0.075	1063303	keystroke_u	u	n/a
531.7715	0.105	1063543	keystroke_d	d	n/a
531.8915	0.09	1063783	keystroke_Key.space	Key.space	n/a
532.1315	0.09	1064263	keystroke_n	n	n/a
532.2665	0.135	1064533	keystroke_e	e	n/a
532.7915	0.12	1065583	keystroke_a	a	n/a
532.9715	0.105	1065943	keystroke_r	r	n/a
533.2865	0.105	1066573	keystroke_e	e	n/a
533.5115	0.15	1067023	keystroke_s	s	n/a
533.6315	0.09	1067263	keystroke_t	t	n/a
533.7815	0.09	1067563	keystroke_Key.space	Key.space	n/a
534.1415	0.12	1068283	keystroke_s	s	n/a
534.3365	0.075	1068673	keystroke_o	o	n/a
534.5015	0.09	1069003	keystroke_l	l	n/a
534.6065	0.12	1069213	keystroke_v	v	n/a
534.7115	0.09	1069423	keystroke_e	e	n/a
535.1165	0.075	1070233	keystroke_Key.enter	Key.enter	n/a
535.199	13.3745	1070398	prompt	n/a	minolta blow retain sectors\n
536.406	0.1355	1072812	keystroke_m	m	n/a
536.5565	0.105	1073113	keystroke_i	i	n/a
536.6465	0.12	1073293	keystroke_n	n	n/a
537.0515	0.06	1074103	keystroke_o	o	n/a
537.2165	0.09	1074433	keystroke_l	l	n/a
537.4565	0.15	1074913	keystroke_t	t	n/a
537.6215	0.15	1075243	keystroke_a	a	n/a
537.8615	0.09	1075723	keystroke_Key.space	Key.space	n/a
538.1165	0.105	1076233	keystroke_b	b	n/a
538.2365	0.075	1076473	keystroke_l	l	n/a
538.3865	0.06	1076773	keystroke_o	o	n/a
538.5365	0.075	1077073	keystroke_w	w	n/a
538.6415	0.09	1077283	keystroke_Key.space	Key.space	n/a
539.5715	0.105	1079143	keystroke_r	r	n/a
539.6615	0.075	1079323	keystroke_e	e	n/a
539.8265	0.1045	1079653	keystroke_t	t	n/a
540.0965	0.09	1080193	keystroke_i	i	n/a
540.2015	0.105	1080403	keystroke_a	a	n/a
540.3215	0.1045	1080643	keystroke_n	n	n/a
540.471	0.075	1080942	keystroke_Key.space	Key.space	n/a
541.281	0.045	1082562	keystroke_Key.backspace	Key.backspace	n/a
541.416	0.06	1082832	keystroke_Key.backspace	Key.backspace	n/a
541.566	0.045	1083132	keystroke_Key.backspace	Key.backspace	n/a
541.686	0.06	1083372	keystroke_Key.backspace	Key.backspace	n/a
541.836	0.045	1083672	keystroke_Key.backspace	Key.backspace	n/a
542.001	0.105	1084002	keystroke_a	a	n/a
542.181	0.09	1084362	keystroke_i	i	n/a
542.616	0.045	1085232	keystroke_Key.backspace	Key.backspace	n/a
542.751	0.075	1085502	keystroke_Key.backspace	Key.backspace	n/a
542.901	0.075	1085802	keystroke_Key.backspace	Key.backspace	n/a
543.036	0.1205	1086072	keystroke_t	t	n/a
543.8015	0.06	1087603	keystroke_Key.backspace	Key.backspace	n/a
543.8765	0.105	1087753	keystroke_e	e	n/a
544.1015	0.09	1088203	keystroke_t	t	n/a
544.777	0.03	1089554	keystroke_i	i	n/a
544.837	0.135	1089674	keystroke_a	a	n/a
545.6915	0.06	1091383	keystroke_Key.backspace	Key.backspace	n/a
545.8415	0.0745	1091683	keystroke_Key.backspace	Key.backspace	n/a
546.006	0.105	1092012	keystroke_a	a	n/a
546.186	0.09	1092372	keystroke_i	i	n/a
546.366	0.105	1092732	keystroke_n	n	n/a
546.561	0.075	1093122	keystroke_Key.space	Key.space	n/a
547.2665	0.135	1094533	keystroke_s	s	n/a
547.3865	0.135	1094773	keystroke_e	e	n/a
547.6415	0.12	1095283	keystroke_c	c	n/a
547.8665	0.12	1095733	keystroke_t	t	n/a
548.0315	0.075	1096063	keystroke_o	o	n/a
548.1515	0.105	1096303	keystroke_r	r	n/a
548.3465	0.12	1096693	keystroke_s	s	n/a
548.4965	0.075	1096993	keystroke_Key.enter	Key.enter	n/a
548.5785	11.0945	1097157	prompt	n/a	advertisements asylum like statement\n
549.4715	0.105	1098943	keystroke_a	a	n/a
549.6965	0.105	1099393	keystroke_d	d	n/a
550.1315	0.165	1100263	keystroke_v	v	n/a
550.2815	0.135	1100563	keystroke_e	e	n/a
550.7915	0.09	1101583	keystroke_r	r	n/a
551.0315	0.105	1102063	keystroke_t	t	n/a
551.511	0.06	1103022	keystroke_i	i	n/a
551.616	0.12	1103232	keystroke_s	s	n/a
552.172	0.089	1104344	keystroke_e	e	n/a
552.547	0.074	1105094	keystroke_m	m	n/a
552.637	0.119	1105274	keystroke_e	e	n/a
552.771	0.075	1105542	keystroke_n	n	n/a
552.922	0.089	1105844	keystroke_t	t	n/a
553.056	0.045	1106112	keystroke_Key.space	Key.space	n/a
553.656	0.06	1107312	keystroke_Key.backspace	Key.backspace	n/a
553.791	0.075	1107582	keystroke_s	s	n/a
553.926	0.075	1107852	keystroke_Key.space	Key.space	n/a
554.136	0.12	1108272	keystroke_a	a	n/a
554.496	0.09	1108992	keystroke_s	s	n/a
555.2615	0.09	1110523	keystroke_y	y	n/a
555.9665	0.1195	1111933	keystroke_l	l	n/a
556.221	0.06	1112442	keystroke_u	u	n/a
556.477	0.134	1112954	keystroke_m	m	n/a
556.626	0.09	1113252	keystroke_Key.space	Key.space	n/a
556.986	0.045	1113972	keystroke_l	l	n/a
557.046	0.075	1114092	keystroke_i	i	n/a
557.226	0.06	1114452	keystroke_k	k	n/a
557.391	0.06	1114782	keystroke_e	e	n/a
557.436	0.075	1114872	keystroke_Key.space	Key.space	n/a
557.646	0.135	1115292	keystroke_s	s	n/a
557.841	0.12	1115682	keystroke_t	t	n/a
557.946	0.15	1115892	keystroke_a	a	n/a
558.291	0.09	1116582	keystroke_t	t	n/a
558.621	0.12	1117242	keystroke_e	e	n/a
558.816	0.12	1117632	keystroke_m	m	n/a
558.906	0.12	1117812	keystroke_e	e	n/a
559.2815	0.075	1118563	keystroke_n	n	n/a
559.4315	0.105	1118863	keystroke_t	t	n/a
559.6115	0.06	1119223	keystroke_Key.enter	Key.enter	n/a
559.678	14.815	1119356	prompt	n/a	headset january revenge federation\n
565.5085	0.028	1131017	keystroke_h	h	n/a
565.5095	0.132	1131019	keystroke_e	e	n/a
565.5815	0.135	1131163	keystroke_a	a	n/a
566.4365	0.12	1132873	keystroke_d	d	n/a
566.736	0.15	1133472	keystroke_s	s	n/a
566.856	0.12	1133712	keystroke_e	e	n/a
567.021	0.105	1134042	keystroke_t	t	n/a
567.1415	0.09	1134283	keystroke_Key.space	Key.space	n/a
567.5615	0.105	1135123	keystroke_j	j	n/a
567.711	0.121	1135422	keystroke_a	a	n/a
567.862	0.12	1135724	keystroke_n	n	n/a
568.417	0.09	1136834	keystroke_u	u	n/a
568.507	0.12	1137014	keystroke_a	a	n/a
568.656	0.105	1137312	keystroke_r	r	n/a
568.792	0.075	1137584	keystroke_y	y	n/a
568.941	0.105	1137882	keystroke_Key.space	Key.space	n/a
569.841	0.12	1139682	keystroke_r	r	n/a
569.946	0.12	1139892	keystroke_e	e	n/a
570.127	0.119	1140254	keystroke_v	v	n/a
570.231	0.12	1140462	keystroke_e	e	n/a
570.4115	0.09	1140823	keystroke_n	n	n/a
570.9365	0.105	1141873	keystroke_a	a	n/a
571.6115	0.015	1143223	keystroke_Key.backspace	Key.backspace	n/a
571.6415	0.03	1143283	keystroke_g	g	n/a
571.6565	0.075	1143313	keystroke_e	e	n/a
572.5715	0.15	1145143	keystroke_Key.space	Key.space	n/a
572.8865	0.135	1145773	keystroke_f	f	n/a
573.0065	0.09	1146013	keystroke_e	e	n/a
573.202	0.09	1146404	keystroke_d	d	n/a
573.397	0.165	1146794	keystroke_e	e	n/a
573.532	0.165	1147064	keystroke_r	r	n/a
573.697	0.165	1147394	keystroke_a	a	n/a
573.847	0.12	1147694	keystroke_t	t	n/a
573.982	0.21	1147964	keystroke_i	i	n/a
574.072	0.135	1148144	keystroke_o	o	n/a
574.162	0.135	1148324	keystroke_n	n	n/a
574.417	0.075	1148834	keystroke_Key.enter	Key.enter	n/a
574.5	9.188	1149000	prompt	n/a	breed magical midi argentina\n
575.347	0.105	1150694	keystroke_b	b	n/a
575.617	0.12	1151234	keystroke_r	r	n/a
575.872	0.059	1151744	keystroke_e	e	n/a
576.006	0.105	1152012	keystroke_e	e	n/a
576.321	0.105	1152642	keystroke_d	d	n/a
576.621	0.015	1153242	keystroke_Key.space	Key.space	n/a
576.876	0.136	1153752	keystroke_m	m	n/a
576.981	0.121	1153962	keystroke_a	a	n/a
577.836	0.105	1155672	keystroke_g	g	n/a
578.016	0.105	1156032	keystroke_i	i	n/a
578.136	0.165	1156272	keystroke_c	c	n/a
578.361	0.12	1156722	keystroke_a	a	n/a
578.511	0.1205	1157022	keystroke_l	l	n/a
578.6765	0.09	1157353	keystroke_Key.space	Key.space	n/a
580.192	0.12	1160384	keystroke_m	m	n/a
580.387	0.105	1160774	keystroke_i	i	n/a
580.552	0.135	1161104	keystroke_d	d	n/a
580.657	0.105	1161314	keystroke_i	i	n/a
580.837	0.104	1161674	keystroke_Key.space	Key.space	n/a
581.437	0.089	1162874	keystroke_a	a	n/a
581.722	0.09	1163444	keystroke_r	r	n/a
581.931	0.105	1163862	keystroke_g	g	n/a
582.067	0.134	1164134	keystroke_e	e	n/a
582.247	0.104	1164494	keystroke_n	n	n/a
582.921	0.12	1165842	keystroke_t	t	n/a
583.117	0.1045	1166234	keystroke_i	i	n/a
583.2965	0.15	1166593	keystroke_n	n	n/a
583.462	0.1195	1166924	keystroke_a	a	n/a
583.6115	0.075	1167223	keystroke_Key.enter	Key.enter	n/a
583.6945	12.279	1167389	prompt	n/a	civil episodes banners exposure\n
584.4365	0.12	1168873	keystroke_c	c	n/a
584.5415	0.075	1169083	keystroke_i	i	n/a
585.0665	0.135	1170133	keystroke_v	v	n/a
585.1865	0.135	1170373	keystroke_i	i	n/a
585.3365	0.12	1170673	keystroke_l	l	n/a
585.4715	0.105	1170943	keystroke_Key.space	Key.space	n/a
585.7715	0.12	1171543	keystroke_e	e	n/a
586.4015	0.06	1172803	keystroke_p	p	n/a
586.5515	0.105	1173103	keystroke_s	s	n/a
586.7165	0.09	1173433	keystroke_i	i	n/a
587.1815	0.06	1174363	keystroke_o	o	n/a
587.3315	0.105	1174663	keystroke_d	d	n/a
587.827	0.045	1175654	keystroke_Key.backspace	Key.backspace	n/a
587.962	0.06	1175924	keystroke_Key.backspace	Key.backspace	n/a
588.097	0.06	1176194	keystroke_Key.backspace	Key.backspace	n/a
588.232	0.06	1176464	keystroke_Key.backspace	Key.backspace	n/a
588.532	0.045	1177064	keystroke_i	i	n/a
588.757	0.12	1177514	keystroke_s	s	n/a
589.282	0.06	1178564	keystroke_o	o	n/a
589.387	0.119	1178774	keystroke_d	d	n/a
589.596	0.09	1179192	keystroke_e	e	n/a
589.836	0.105	1179672	keystroke_s	s	n/a
590.001	0.075	1180002	keystroke_Key.space	Key.space	n/a
590.346	0.105	1180692	keystroke_b	b	n/a
590.556	0.106	1181112	keystroke_a	a	n/a
590.706	0.075	1181412	keystroke_n	n	n/a
590.8565	0.0895	1181713	keystroke_n	n	n/a
591.006	0.1655	1182012	keystroke_e	e	n/a
591.141	0.1205	1182282	keystroke_r	r	n/a
591.3665	0.105	1182733	keystroke_s	s	n/a
591.5015	0.135	1183003	keystroke_Key.space	Key.space	n/a
591.6965	0.1205	1183393	keystroke_e	e	n/a
591.937	0.165	1183874	keystroke_x	x	n/a
592.297	0.105	1184594	keystroke_p	p	n/a
592.492	0.09	1184984	keystroke_l	l	n/a
592.687	0.075	1185374	keystroke_o	o	n/a
593.6165	0.015	1187233	keystroke_u	u	n/a
593.9165	0.06	1187833	keystroke_Key.backspace	Key.backspace	n/a
594.0665	0.075	1188133	keystroke_Key.backspace	Key.backspace	n/a
594.2015	0.09	1188403	keystroke_Key.backspace	Key.backspace	n/a
594.7265	0.075	1189453	keystroke_o	o	n/a
595.0115	0.09	1190023	keystroke_s	s	n/a
595.4615	0.075	1190923	keystroke_u	u	n/a
595.6115	0.135	1191223	keystroke_r	r	n/a
595.7165	0.09	1191433	keystroke_e	e	n/a
595.8965	0.075	1191793	keystroke_Key.enter	Key.enter	n/a
595.978	14.605	1191956	prompt	n/a	freelance implement displays herein\n
596.737	0.12	1193474	keystroke_f	f	n/a
597.171	0.061	1194342	keystroke_r	r	n/a
597.366	0.061	1194732	keystroke_e	e	n/a
597.517	0.104	1195034	keystroke_e	e	n/a
597.681	0.091	1195362	keystroke_l	l	n/a
597.802	0.104	1195604	keystroke_a	a	n/a
597.936	0.075	1195872	keystroke_n	n	n/a
598.371	0.12	1196742	keystroke_c	c	n/a
598.582	0.09	1197164	keystroke_e	e	n/a
598.896	0.09	1197792	keystroke_Key.space	Key.space	n/a
599.796	0.135	1199592	keystroke_i	i	n/a
599.976	0.241	1199952	keystroke_m	m	n/a
600.187	0.15	1200374	keystroke_p	p	n/a
601.057	0.0895	1202114	keystroke_e	e	n/a
601.746	0.06	1203492	keystroke_Key.backspace	Key.backspace	n/a
601.987	0.075	1203974	keystroke_l	l	n/a
602.166	0.0905	1204332	keystroke_e	e	n/a
602.4815	0.105	1204963	keystroke_m	m	n/a
602.6015	0.15	1205203	keystroke_e	e	n/a
602.7365	0.09	1205473	keystroke_n	n	n/a
602.9165	0.09	1205833	keystroke_t	t	n/a
603.561	0.105	1207122	keystroke_Key.space	Key.space	n/a
603.771	0.135	1207542	keystroke_d	d	n/a
603.847	0.074	1207694	keystroke_i	i	n/a
604.027	0.134	1208054	keystroke_s	s	n/a
604.341	0.03	1208682	keystroke_p	p	n/a
604.986	0.135	1209972	keystroke_l	l	n/a
605.5865	0.12	1211173	keystroke_Key.backspace	Key.backspace	n/a
606.1575	0.119	1212315	keystroke_l	l	n/a
606.3815	0.135	1212763	keystroke_a	a	n/a
606.6515	0.045	1213303	keystroke_y	y	n/a
606.8015	0.105	1213603	keystroke_s	s	n/a
606.9365	0.135	1213873	keystroke_Key.space	Key.space	n/a
607.1615	0.06	1214323	keystroke_i	i	n/a
607.5965	0.06	1215193	keystroke_Key.backspace	Key.backspace	n/a
607.8665	0.075	1215733	keystroke_h	h	n/a
608.0615	0.15	1216123	keystroke_e	e	n/a
608.1965	0.135	1216393	keystroke_r	r	n/a
608.5115	0.1045	1217023	keystroke_i	i	n/a
608.691	0.12	1217382	keystroke_n	n	n/a
609.202	0.06	1218404	keystroke_Key.backspace	Key.backspace	n/a
609.367	0.06	1218734	keystroke_Key.backspace	Key.backspace	n/a
609.907	0.0895	1219814	keystroke_e	e	n/a
610.1615	0.12	1220323	keystroke_i	i	n/a
610.2965	0.105	1220593	keystroke_n	n	n/a
610.5065	0.075	1221013	keystroke_Key.enter	Key.enter	n/a
610.5875	7.2555	1221175	prompt	n/a	match dump regular enabled\n
611.3465	0.15	1222693	keystroke_m	m	n/a
611.4665	0.105	1222933	keystroke_a	a	n/a
611.6765	0.09	1223353	keystroke_t	t	n/a
611.9915	0.12	1223983	keystroke_c	c	n/a
612.0965	0.12	1224193	keystroke_h	h	n/a
612.2015	0.18	1224403	keystroke_Key.space	Key.space	n/a
612.3515	0.135	1224703	keystroke_d	d	n/a
612.4865	0.09	1224973	keystroke_u	u	n/a
612.757	0.164	1225514	keystroke_m	m	n/a
612.936	0.12	1225872	keystroke_p	p	n/a
613.5365	0.075	1227073	keystroke_Key.space	Key.space	n/a
613.9415	0.12	1227883	keystroke_r	r	n/a
614.0165	0.09	1228033	keystroke_e	e	n/a
614.1965	0.12	1228393	keystroke_g	g	n/a
614.3765	0.09	1228753	keystroke_u	u	n/a
614.7365	0.105	1229473	keystroke_l	l	n/a
614.9165	0.135	1229833	keystroke_a	a	n/a
615.0965	0.12	1230193	keystroke_r	r	n/a
615.2615	0.12	1230523	keystroke_Key.space	Key.space	n/a
615.5765	0.09	1231153	keystroke_e	e	n/a
615.7265	0.105	1231453	keystroke_n	n	n/a
615.9365	0.12	1231873	keystroke_a	a	n/a
616.5215	0.12	1233043	keystroke_b	b	n/a
617.2265	0.045	1234453	keystroke_l	l	n/a
617.3615	0.105	1234723	keystroke_e	e	n/a
617.6015	0.105	1235203	keystroke_d	d	n/a
617.7665	0.075	1235533	keystroke_Key.enter	Key.enter	n/a
617.8485	10.09	1235697	prompt	n/a	bulletin cancellation undertake dresses\n
618.6815	0.12	1237363	keystroke_b	b	n/a
618.8775	0.119	1237755	keystroke_u	u	n/a
619.1015	0.09	1238203	keystroke_l	l	n/a
619.2515	0.075	1238503	keystroke_l	l	n/a
620.1515	0.165	1240303	keystroke_e	e	n/a
620.3015	0.135	1240603	keystroke_t	t	n/a
620.5565	0.09	1241113	keystroke_i	i	n/a
620.8715	0.135	1241743	keystroke_n	n	n/a
621.0215	0.12	1242043	keystroke_Key.space	Key.space	n/a
621.3065	0.15	1242613	keystroke_c	c	n/a
621.4115	0.12	1242823	keystroke_a	a	n/a
621.5315	0.12	1243063	keystroke_n	n	n/a
621.7415	0.1195	1243483	keystroke_c	c	n/a
622.041	0.06	1244082	keystroke_l	l	n/a
622.191	0.06	1244382	keystroke_l	l	n/a
622.311	0.12	1244622	keystroke_a	a	n/a
622.611	0.06	1245222	keystroke_t	t	n/a
622.686	0.195	1245372	keystroke_i	i	n/a
622.776	0.135	1245552	keystroke_o	o	n/a
622.896	0.15	1245792	keystroke_n	n	n/a
623.061	0.075	1246122	keystroke_Key.space	Key.space	n/a
623.2565	0.045	1246513	keystroke_u	u	n/a
623.4215	0.09	1246843	keystroke_n	n	n/a
623.4965	0.0755	1246993	keystroke_d	d	n/a
623.662	0.135	1247324	keystroke_e	e	n/a
623.766	0.121	1247532	keystroke_r	r	n/a
624.742	0.149	1249484	keystroke_t	t	n/a
624.877	0.135	1249754	keystroke_a	a	n/a
625.057	0.105	1250114	keystroke_k	k	n/a
625.146	0.09	1250292	keystroke_e	e	n/a
625.251	0.09	1250502	keystroke_Key.space	Key.space	n/a
625.416	0.166	1250832	keystroke_d	d	n/a
626.001	0.045	1252002	keystroke_Key.backspace	Key.backspace	n/a
626.5415	0.165	1253083	keystroke_d	d	n/a
626.7965	0.135	1253593	keystroke_r	r	n/a
626.8865	0.12	1253773	keystroke_e	e	n/a
627.157	0.0745	1254314	keystroke_s	s	n/a
627.3365	0.075	1254673	keystroke_s	s	n/a
627.4265	0.165	1254853	keystroke_e	e	n/a
627.681	0.12	1255362	keystroke_s	s	n/a
627.861	0.075	1255722	keystroke_Key.enter	Key.enter	n/a
627.945	8.123	1255890	prompt	n/a	kennedy neck date movers\n
628.9565	0.0905	1257913	keystroke_k	k	n/a
629.1065	0.105	1258213	keystroke_e	e	n/a
629.3015	0.06	1258603	keystroke_n	n	n/a
629.4365	0.09	1258873	keystroke_n	n	n/a
630.0515	0.105	1260103	keystroke_e	e	n/a
630.2765	0.12	1260553	keystroke_d	d	n/a
630.5015	0.09	1261003	keystroke_y	y	n/a
630.6365	0.12	1261273	keystroke_Key.space	Key.space	n/a
630.8615	0.105	1261723	keystroke_n	n	n/a
630.9815	0.135	1261963	keystroke_e	e	n/a
631.296	0.12	1262592	keystroke_c	c	n/a
631.7765	0.045	1263553	keystroke_k	k	n/a
631.9265	0.075	1263853	keystroke_Key.space	Key.space	n/a
632.2265	0.18	1264453	keystroke_d	d	n/a
632.3615	0.12	1264723	keystroke_a	a	n/a
632.6015	0.135	1265203	keystroke_e	e	n/a
632.6165	0.015	1265233	keystroke_t	t	n/a
632.7515	0.09	1265503	keystroke_Key.space	Key.space	n/a
633.4865	0.09	1266973	keystroke_Key.backspace	Key.backspace	n/a
633.6665	0.06	1267333	keystroke_Key.backspace	Key.backspace	n/a
633.8315	0.075	1267663	keystroke_Key.backspace	Key.backspace	n/a
634.2665	0.12	1268533	keystroke_t	t	n/a
634.3565	0.105	1268713	keystroke_e	e	n/a
634.4765	0.15	1268953	keystroke_Key.space	Key.space	n/a
634.6865	0.18	1269373	keystroke_m	m	n/a
634.8515	0.09	1269703	keystroke_o	o	n/a
635.0165	0.1355	1270033	keystroke_v	v	n/a
635.467	0.135	1270934	keystroke_e	e	n/a
635.572	0.105	1271144	keystroke_r	r	n/a
635.782	0.1495	1271564	keystroke_s	s	n/a
635.9915	0.075	1271983	keystroke_Key.enter	Key.enter	n/a
636.073	10.09	1272146	prompt	n/a	face malta refrigerator remember\n
636.9815	0.15	1273963	keystroke_f	f	n/a
637.1015	0.135	1274203	keystroke_a	a	n/a
637.2515	0.12	1274503	keystroke_c	c	n/a
637.4465	0.12	1274893	keystroke_e	e	n/a
637.5515	0.09	1275103	keystroke_Key.space	Key.space	n/a
637.7465	0.12	1275493	keystroke_m	m	n/a
637.8815	0.075	1275763	keystroke_a	a	n/a
638.0165	0.12	1276033	keystroke_l	l	n/a
638.2865	0.12	1276573	keystroke_t	t	n/a
638.4665	0.135	1276933	keystroke_a	a	n/a
638.6315	0.075	1277263	keystroke_Key.space	Key.space	n/a
638.9465	0.105	1277893	keystroke_r	r	n/a
639.0215	0.09	1278043	keystroke_e	e	n/a
639.4865	0.105	1278973	keystroke_f	f	n/a
640.582	0.135	1281164	keystroke_r	r	n/a
640.732	0.075	1281464	keystroke_i	i	n/a
641.527	0.044	1283054	keystroke_d	d	n/a
642.307	0.06	1284614	keystroke_Key.backspace	Key.backspace	n/a
642.412	0.135	1284824	keystroke_g	g	n/a
642.712	0.164	1285424	keystroke_e	e	n/a
642.906	0.255	1285812	keystroke_r	r	n/a
643.176	0.18	1286352	keystroke_a	a	n/a
643.432	0.134	1286864	keystroke_t	t	n/a
643.642	0.075	1287284	keystroke_o	o	n/a
643.761	0.12	1287522	keystroke_r	r	n/a
643.897	0.074	1287794	keystroke_Key.space	Key.space	n/a
644.512	0.134	1289024	keystroke_r	r	n/a
644.617	0.104	1289234	keystroke_e	e	n/a
644.811	0.09	1289622	keystroke_m	m	n/a
644.886	0.105	1289772	keystroke_e	e	n/a
644.976	0.09	1289952	keystroke_m	m	n/a
645.2165	0.135	1290433	keystroke_b	b	n/a
645.3815	0.15	1290763	keystroke_e	e	n/a
645.5165	0.12	1291033	keystroke_r	r	n/a
646.0865	0.075	1292173	keystroke_Key.enter	Key.enter	n/a
646.168	10.9005	1292336	prompt	n/a	ahead lauderdale containers adjustments\n
646.9115	0.12	1293823	keystroke_a	a	n/a
647.316	0.075	1294632	keystroke_h	h	n/a
647.361	0.1655	1294722	keystroke_e	e	n/a
647.466	0.1955	1294932	keystroke_a	a	n/a
647.6315	0.12	1295263	keystroke_d	d	n/a
647.7365	0.12	1295473	keystroke_Key.space	Key.space	n/a
648.0515	0.12	1296103	keystroke_l	l	n/a
648.2615	0.09	1296523	keystroke_a	a	n/a
648.6665	0.075	1297333	keystroke_u	u	n/a
648.9815	0.12	1297963	keystroke_d	d	n/a
649.687	0.179	1299374	keystroke_e	e	n/a
649.851	0.121	1299702	keystroke_r	r	n/a
650.121	0.195	1300242	keystroke_d	d	n/a
650.256	0.135	1300512	keystroke_a	a	n/a
650.451	0.075	1300902	keystroke_l	l	n/a
650.541	0.105	1301082	keystroke_e	e	n/a
650.631	0.105	1301262	keystroke_Key.space	Key.space	n/a
650.946	0.15	1301892	keystroke_c	c	n/a
651.021	0.09	1302042	keystroke_o	o	n/a
651.126	0.1055	1302252	keystroke_n	n	n/a
654.9835	0.058	1309967	keystroke_t	t	n/a
655.2365	0.135	1310473	keystroke_a	a	n/a
655.4015	0.09	1310803	keystroke_i	i	n/a
655.5365	0.12	1311073	keystroke_n	n	n/a
655.7615	0.18	1311523	keystroke_e	e	n/a
655.9115	0.1055	1311823	keystroke_r	r	n/a
656.152	0.134	1312304	keystroke_s	s	n/a
656.9315	0.135	1313863	keystroke_Key.enter	Key.enter	n/a
657.0745	9.5785	1314149	prompt	n/a	march slot butts proceeding\n
657.262	0.075	1314524	keystroke_a	a	n/a
