onset	duration	sample	value	key	prompt_text
2.522	12.7895	5044	prompt	n/a	the quick brown fox jumps over a lazy dog\n
5.3665	0.137	10733	keystroke	t	n/a
5.6185	0.155	11237	keystroke	h	n/a
6.3705	0.137	12741	keystroke	e	n/a
6.5285	0.16	13057	keystroke	Key.space	n/a
7.1645	0.18	14329	keystroke	q	n/a
7.411	0.112	14822	keystroke	u	n/a
7.564	0.115	15128	keystroke	i	n/a
7.768	0.177	15536	keystroke	c	n/a
8.042	0.1575	16084	keystroke	k	n/a
8.2385	0.137	16477	keystroke	Key.space	n/a
8.4605	0.113	16921	keystroke	b	n/a
8.6115	0.115	17223	keystroke	r	n/a
8.7475	0.157	17495	keystroke	o	n/a
8.9625	0.156	17925	keystroke	w	n/a
9.1575	0.155	18315	keystroke	n	n/a
9.3345	0.1135	18669	keystroke	Key.space	n/a
9.514	0.115	19028	keystroke	f	n/a
9.661	0.111	19322	keystroke	o	n/a
10.021	0.161	20042	keystroke	x	n/a
10.205	0.116	20410	keystroke	Key.space	n/a
10.451	0.1115	20902	keystroke	j	n/a
10.7275	0.069	21455	keystroke	u	n/a
10.9485	0.113	21897	keystroke	m	n/a
11.1695	0.135	22339	keystroke	p	n/a
11.3265	0.201	22653	keystroke	s	n/a
11.4595	0.114	22919	keystroke	Key.space	n/a
11.7505	0.156	23501	keystroke	o	n/a
12.125	0.138	24250	keystroke	v	n/a
12.3145	0.135	24629	keystroke	e	n/a
12.5515	0.115	25103	keystroke	r	n/a
12.6675	0.133	25335	keystroke	Key.space	n/a
12.8755	0.2035	25751	keystroke	a	n/a
13.011	0.116	26022	keystroke	Key.space	n/a
13.2175	0.154	26435	keystroke	l	n/a
13.3725	0.156	26745	keystroke	a	n/a
13.9865	0.201	27973	keystroke	z	n/a
14.1885	0.0905	28377	keystroke	y	n/a
14.3005	0.113	28601	keystroke	Key.space	n/a
14.4575	0.134	28915	keystroke	d	n/a
14.5935	0.132	29187	keystroke	o	n/a
14.9965	0.113	29993	keystroke	g	n/a
15.1765	0.1325	30353	keystroke	Key.enter	n/a
15.316	10.1905	30632	prompt	n/a	abilities suicide operators controlled\n
16.177	0.181	32354	keystroke	a	n/a
16.405	0.113	32810	keystroke	b	n/a
16.623	0.159	33246	keystroke	i	n/a
16.907	0.1795	33814	keystroke	l	n/a
17.1085	0.09	34217	keystroke	i	n/a
17.2215	0.136	34443	keystroke	t	n/a
17.3335	0.091	34667	keystroke	i	n/a
17.5335	0.136	35067	keystroke	e	n/a
17.7845	0.136	35569	keystroke	Key.space	n/a
18.3005	0.135	36601	keystroke	Key.backspace	n/a
18.4575	0.158	36915	keystroke	s	n/a
18.5905	0.091	37181	keystroke	Key.space	n/a
18.9435	0.181	37887	keystroke	s	n/a
19.2765	0.089	38553	keystroke	u	n/a
19.4505	0.09	38901	keystroke	i	n/a
19.5615	0.159	39123	keystroke	c	n/a
19.7215	0.088	39443	keystroke	i	n/a
19.831	0.155	39662	keystroke	d	n/a
20.11	0.1105	40220	keystroke	e	n/a
20.2515	0.0895	40503	keystroke	Key.space	n/a
20.766	0.114	41532	keystroke	o	n/a
20.961	0.114	41922	keystroke	p	n/a
21.12	0.205	42240	keystroke	e	n/a
21.793	0.135	43586	keystroke	r	n/a
22.0965	0.156	44193	keystroke	a	n/a
22.3955	0.136	44791	keystroke	t	n/a
22.5555	0.113	45111	keystroke	o	n/a
22.6695	0.156	45339	keystroke	r	n/a
22.9815	0.178	45963	keystroke	s	n/a
23.1825	0.091	46365	keystroke	Key.space	n/a
23.3785	0.204	46757	keystroke	c	n/a
23.6035	0.091	47207	keystroke	o	n/a
23.8255	0.1335	47651	keystroke	n	n/a
23.99	0.091	47980	keystroke	t	n/a
24.195	0.092	48390	keystroke	r	n/a
24.317	0.091	48634	keystroke	o	n/a
24.52	0.091	49040	keystroke	l	n/a
24.659	0.112	49318	keystroke	l	n/a
24.725	0.114	49450	keystroke	e	n/a
24.91	0.111	49820	keystroke	d	n/a
25.37	0.135	50740	keystroke	Key.enter	n/a
25.5115	9.5945	51023	prompt	n/a	liable lingerie workplace laid\n
26.321	0.137	52642	keystroke	l	n/a
26.48	0.092	52960	keystroke	i	n/a
26.61	0.1835	53220	keystroke	a	n/a
26.7945	0.111	53589	keystroke	b	n/a
27.039	0.1315	54078	keystroke	l	n/a
27.2275	0.159	54455	keystroke	e	n/a
27.3385	0.115	54677	keystroke	Key.space	n/a
27.5825	0.131	55165	keystroke	l	n/a
27.9735	0.112	55947	keystroke	i	n/a
28.2355	0.138	56471	keystroke	n	n/a
28.5275	0.113	57055	keystroke	g	n/a
29.6885	0.16	59377	keystroke	e	n/a
29.9725	0.155	59945	keystroke	r	n/a
30.1485	0.1375	60297	keystroke	i	n/a
30.325	0.157	60650	keystroke	e	n/a
30.536	0.111	61072	keystroke	Key.space	n/a
30.988	0.158	61976	keystroke	w	n/a
31.18	0.16	62360	keystroke	o	n/a
31.382	0.136	62764	keystroke	r	n/a
32.6155	0.113	65231	keystroke	k	n/a
32.8475	0.091	65695	keystroke	p	n/a
33.0535	0.112	66107	keystroke	l	n/a
33.1865	0.1605	66373	keystroke	a	n/a
33.4785	0.158	66957	keystroke	c	n/a
33.7525	0.16	67505	keystroke	e	n/a
33.9135	0.111	67827	keystroke	Key.space	n/a
34.1395	0.158	68279	keystroke	l	n/a
34.3525	0.201	68705	keystroke	a	n/a
34.5545	0.1345	69109	keystroke	i	n/a
34.719	0.202	69438	keystroke	d	n/a
34.945	0.159	69890	keystroke	Key.enter	n/a
35.111	17.469	70222	prompt	n/a	competitive congratulations vbulletin britney\n
36.063	0.18	72126	keystroke	c	n/a
36.2885	0.138	72577	keystroke	o	n/a
36.5455	0.112	73091	keystroke	m	n/a
36.7445	0.114	73489	keystroke	p	n/a
36.9425	0.204	73885	keystroke	e	n/a
37.535	0.1395	75070	keystroke	t	n/a
39.7285	0.092	79457	keystroke	i	n/a
39.9205	0.157	79841	keystroke	t	n/a
40.0315	0.114	80063	keystroke	i	n/a
40.281	0.16	80562	keystroke	v	n/a
40.474	0.18	80948	keystroke	e	n/a
40.655	0.089	81310	keystroke	Key.space	n/a
40.822	0.206	81644	keystroke	c	n/a
40.981	0.113	81962	keystroke	o	n/a
41.211	0.139	82422	keystroke	n	n/a
41.8505	0.09	83701	keystroke	g	n/a
41.9815	0.111	83963	keystroke	r	n/a
42.2755	0.18	84551	keystroke	a	n/a
42.4775	0.114	84955	keystroke	t	n/a
44.7255	0.092	89451	keystroke	u	n/a
44.9535	0.136	89907	keystroke	l	n/a
45.0905	0.092	90181	keystroke	a	n/a
45.3415	0.135	90683	keystroke	t	n/a
45.4775	0.113	90955	keystroke	i	n/a
45.5915	0.113	91183	keystroke	o	n/a
45.8315	0.135	91663	keystroke	n	n/a
45.9875	0.16	91975	keystroke	s	n/a
46.1225	0.114	92245	keystroke	Key.space	n/a
47.0515	0.1575	94103	keystroke	v	n/a
47.365	0.115	94730	keystroke	b	n/a
47.481	0.157	94962	keystroke	u	n/a
48.03	0.136	96060	keystroke	l	n/a
48.212	0.116	96424	keystroke	l	n/a
48.386	0.203	96772	keystroke	e	n/a
48.735	0.136	97470	keystroke	t	n/a
48.872	0.111	97744	keystroke	i	n/a
49.12	0.18	98240	keystroke	n	n/a
49.44	0.113	98880	keystroke	Key.space	n/a
49.787	0.1355	99574	keystroke	b	n/a
50.1135	0.091	100227	keystroke	r	n/a
51.022	0.1585	102044	keystroke	i	n/a
51.3685	0.156	102737	keystroke	t	n/a
51.6935	0.16	103387	keystroke	n	n/a
51.8875	0.1575	103775	keystroke	e	n/a
51.9995	0.113	103999	keystroke	y	n/a
52.417	0.161	104834	keystroke	Key.enter	n/a
52.5835	9.1675	105167	prompt	n/a	morocco portable alarm religious\n
53.723	0.1115	107446	keystroke	m	n/a
53.9265	0.117	107853	keystroke	o	n/a
54.2165	0.1815	108433	keystroke	r	n/a
55.024	0.135	110048	keystroke	o	n/a
55.181	0.135	110362	keystroke	c	n/a
55.375	0.136	110750	keystroke	c	n/a
55.512	0.111	111024	keystroke	o	n/a
55.643	0.137	111286	keystroke	Key.space	n/a
55.8715	0.159	111743	keystroke	p	n/a
56.031	0.134	112062	keystroke	o	n/a
56.238	0.1165	112476	keystroke	r	n/a
56.4545	0.0915	112909	keystroke	t	n/a
56.754	0.181	113508	keystroke	a	n/a
56.889	0.112	113778	keystroke	b	n/a
57.109	0.156	114218	keystroke	l	n/a
57.295	0.135	114590	keystroke	e	n/a
57.492	0.066	114984	keystroke	Key.space	n/a
57.624	0.16	115248	keystroke	a	n/a
57.738	0.114	115476	keystroke	l	n/a
57.894	0.136	115788	keystroke	a	n/a
58.115	0.111	116230	keystroke	r	n/a
58.2965	0.204	116593	keystroke	m	n/a
58.5415	0.138	117083	keystroke	Key.space	n/a
58.9125	0.116	117825	keystroke	r	n/a
59.1145	0.092	118229	keystroke	e	n/a
59.2535	0.137	118507	keystroke	l	n/a
59.827	0.111	119654	keystroke	i	n/a
60.246	0.178	120492	keystroke	g	n/a
60.479	0.157	120958	keystroke	o	n/a
60.657	0.068	121314	keystroke	u	n/a
60.8	0.18	121600	keystroke	s	n/a
61.612	0.136	123224	keystroke	Key.enter	n/a
61.754	12.4175	123508	prompt	n/a	introducing students myanmar voyuer\n
62.7365	0.09	125473	keystroke	i	n/a
62.9785	0.114	125957	keystroke	n	n/a
63.1425	0.134	126285	keystroke	t	n/a
63.37	0.0905	126740	keystroke	r	n/a
63.4815	0.136	126963	keystroke	o	n/a
63.6395	0.225	127279	keystroke	d	n/a
63.8655	0.2015	127731	keystroke	i	n/a
64.5215	0.137	129043	keystroke	Key.backspace	n/a
64.805	0.091	129610	keystroke	u	n/a
65.041	0.158	130082	keystroke	c	n/a
65.153	0.135	130306	keystroke	i	n/a
65.378	0.1115	130756	keystroke	n	n/a
65.5955	0.114	131191	keystroke	g	n/a
65.7645	0.09	131529	keystroke	Key.space	n/a
66.0425	0.181	132085	keystroke	s	n/a
66.41	0.112	132820	keystroke	t	n/a
66.6015	0.09	133203	keystroke	u	n/a
66.713	0.1315	133426	keystroke	d	n/a
66.9385	0.1345	133877	keystroke	e	n/a
67.027	0.0925	134054	keystroke	n	n/a
67.2485	0.139	134497	keystroke	t	n/a
67.4645	0.182	134929	keystroke	s	n/a
67.6225	0.136	135245	keystroke	Key.space	n/a
68.0375	0.159	136075	keystroke	m	n/a
68.3735	0.158	136747	keystroke	y	n/a
69.1495	0.245	138299	keystroke	a	n/a
70.1455	0.138	140291	keystroke	n	n/a
70.4015	0.139	140803	keystroke	m	n/a
70.6085	0.156	141217	keystroke	a	n/a
71.1855	0.138	142371	keystroke	r	n/a
71.3975	0.139	142795	keystroke	Key.space	n/a
72.068	0.134	144136	keystroke	v	n/a
72.258	0.183	144516	keystroke	o	n/a
72.665	0.135	145330	keystroke	y	n/a
73.5075	0.093	147015	keystroke	u	n/a
73.6385	0.158	147277	keystroke	e	n/a
73.8785	0.091	147757	keystroke	r	n/a
73.9915	0.179	147983	keystroke	Key.enter	n/a
74.175	7.8855	148350	prompt	n/a	threats miles copy trading\n
75.112	0.136	150224	keystroke	t	n/a
75.338	0.089	150676	keystroke	h	n/a
75.464	0.112	150928	keystroke	r	n/a
75.673	0.112	151346	keystroke	e	n/a
75.911	0.16	151822	keystroke	a	n/a
76.199	0.115	152398	keystroke	t	n/a
76.528	0.198	153056	keystroke	s	n/a
76.756	0.137	153512	keystroke	Key.space	n/a
77.047	0.1565	154094	keystroke	m	n/a
77.2925	0.114	154585	keystroke	i	n/a
77.5015	0.133	155003	keystroke	l	n/a
77.6355	0.113	155271	keystroke	e	n/a
77.8635	0.134	155727	keystroke	s	n/a
78.0195	0.068	156039	keystroke	Key.space	n/a
78.2125	0.1795	156425	keystroke	c	n/a
78.393	0.1125	156786	keystroke	o	n/a
78.5825	0.111	157165	keystroke	p	n/a
78.8285	0.135	157657	keystroke	y	n/a
79.0315	0.134	158063	keystroke	Key.space	n/a
79.5495	0.111	159099	keystroke	t	n/a
79.7545	0.113	159509	keystroke	r	n/a
80.0465	0.156	160093	keystroke	a	n/a
80.3065	0.136	160613	keystroke	d	n/a
80.4645	0.046	160929	keystroke	i	n/a
81.4515	0.113	162903	keystroke	n	n/a
81.6615	0.1145	163323	keystroke	g	n/a
81.966	0.093	163932	keystroke	Key.enter	n/a
82.071	8.529	164142	prompt	n/a	contribution phantom destroy laden\n
82.8125	0.181	165625	keystroke	c	n/a
83.0235	0.109	166047	keystroke	o	n/a
83.2465	0.134	166493	keystroke	n	n/a
83.3815	0.089	166763	keystroke	t	n/a
83.5675	0.114	167135	keystroke	r	n/a
83.7035	0.158	167407	keystroke	i	n/a
84.0515	0.136	168103	keystroke	b	n/a
84.277	0.0885	168554	keystroke	u	n/a
84.3975	0.134	168795	keystroke	t	n/a
84.6295	0.112	169259	keystroke	i	n/a
84.8275	0.114	169655	keystroke	o	n/a
85.057	0.157	170114	keystroke	n	n/a
85.215	0.1115	170430	keystroke	Key.space	n/a
85.6325	0.134	171265	keystroke	p	n/a
85.9395	0.113	171879	keystroke	h	n/a
86.1135	0.1585	172227	keystroke	a	n/a
86.2245	0.093	172449	keystroke	n	n/a
86.4735	0.137	172947	keystroke	t	n/a
86.6745	0.16	173349	keystroke	o	n/a
86.9805	0.179	173961	keystroke	m	n/a
87.1905	0.112	174381	keystroke	Key.space	n/a
87.3785	0.1835	174757	keystroke	d	n/a
87.6735	0.112	175347	keystroke	e	n/a
88.1615	0.161	176323	keystroke	s	n/a
88.4535	0.114	176907	keystroke	t	n/a
88.6345	0.111	177269	keystroke	r	n/a
88.7785	0.114	177557	keystroke	o	n/a
88.9955	0.137	177991	keystroke	y	n/a
89.2655	0.1135	178531	keystroke	Key.space	n/a
89.629	0.138	179258	keystroke	l	n/a
89.743	0.158	179486	keystroke	a	n/a
89.9745	0.0905	179949	keystroke	d	n/a
90.186	0.1135	180372	keystroke	e	n/a
90.2745	0.114	180549	keystroke	n	n/a
90.5275	0.071	181055	keystroke	Key.enter	n/a
90.6115	18.2025	181223	prompt	n/a	decorative pixels viruses symptoms\n
91.3615	0.114	182723	keystroke	d	n/a
91.5585	0.111	183117	keystroke	e	n/a
91.8025	0.136	183605	keystroke	c	n/a
92.1115	0.139	184223	keystroke	r	n/a
92.6615	0.113	185323	keystroke	o	n/a
95.9115	0.111	191823	keystroke	Key.backspace	n/a
96.1175	0.1115	192235	keystroke	Key.backspace	n/a
96.314	0.179	192628	keystroke	o	n/a
96.514	0.205	193028	keystroke	r	n/a
97.208	0.18	194416	keystroke	a	n/a
97.784	0.113	195568	keystroke	t	n/a
97.948	0.113	195896	keystroke	i	n/a
98.172	0.071	196344	keystroke	b	n/a
98.22	0.111	196440	keystroke	v	n/a
98.353	0.155	196706	keystroke	e	n/a
98.53	0.115	197060	keystroke	Key.space	n/a
98.855	0.0925	197710	keystroke	Key.backspace	n/a
99.0495	0.069	198099	keystroke	Key.backspace	n/a
99.2045	0.091	198409	keystroke	Key.backspace	n/a
99.55	0.112	199100	keystroke	Key.backspace	n/a
100.01	0.135	200020	keystroke	v	n/a
100.175	0.1335	200350	keystroke	e	n/a
100.2635	0.135	200527	keystroke	Key.space	n/a
100.4865	0.139	200973	keystroke	p	n/a
101.3355	0.158	202671	keystroke	x	n/a
101.62	0.114	203240	keystroke	e	n/a
101.755	0.1145	203510	keystroke	l	n/a
101.914	0.177	203828	keystroke	s	n/a
102.1125	0.136	204225	keystroke	Key.space	n/a
102.5715	0.115	205143	keystroke	Key.backspace	n/a
102.7645	0.068	205529	keystroke	Key.backspace	n/a
102.9115	0.0915	205823	keystroke	Key.backspace	n/a
103.1025	0.069	206205	keystroke	Key.backspace	n/a
103.3305	0.091	206661	keystroke	Key.backspace	n/a
103.8925	0.092	207785	keystroke	i	n/a
104.1475	0.1355	208295	keystroke	x	n/a
104.3905	0.134	208781	keystroke	e	n/a
104.5465	0.114	209093	keystroke	l	n/a
104.6905	0.158	209381	keystroke	s	n/a
104.9075	0.137	209815	keystroke	Key.space	n/a
105.402	0.136	210804	keystroke	v	n/a
105.621	0.093	211242	keystroke	i	n/a
105.797	0.137	211594	keystroke	r	n/a
106.041	0.09	212082	keystroke	u	n/a
106.195	0.136	212390	keystroke	s	n/a
106.453	0.0925	212906	keystroke	e	n/a
106.6575	0.114	213315	keystroke	s	n/a
106.8125	0.067	213625	keystroke	Key.space	n/a
106.9115	0.136	213823	keystroke	s	n/a
107.197	0.115	214394	keystroke	y	n/a
107.548	0.135	215096	keystroke	m	n/a
107.782	0.114	215564	keystroke	p	n/a
108.03	0.16	216060	keystroke	t	n/a
108.191	0.088	216382	keystroke	o	n/a
108.395	0.134	216790	keystroke	m	n/a
108.5655	0.1345	217131	keystroke	s	n/a
108.701	0.111	217402	keystroke	Key.enter	n/a
108.8175	10.192	217635	prompt	n/a	simplified untitled manor tires\n
109.407	0.1805	218814	keystroke	s	n/a
109.6595	0.112	219319	keystroke	i	n/a
109.8685	0.157	219737	keystroke	m	n/a
110.0955	0.136	220191	keystroke	p	n/a
110.2525	0.1135	220505	keystroke	l	n/a
110.439	0.114	220878	keystroke	i	n/a
110.587	0.136	221174	keystroke	f	n/a
110.724	0.067	221448	keystroke	i	n/a
110.85	0.138	221700	keystroke	e	n/a
111.08	0.1145	222160	keystroke	d	n/a
111.2165	0.114	222433	keystroke	Key.space	n/a
112.0455	0.09	224091	keystroke	u	n/a
112.96	0.156	225920	keystroke	n	n/a
113.211	0.1575	226422	keystroke	t	n/a
113.492	0.159	226984	keystroke	i	n/a
113.93	0.159	227860	keystroke	t	n/a
114.111	0.134	228222	keystroke	l	n/a
114.2925	0.228	228585	keystroke	e	n/a
114.8825	0.179	229765	keystroke	d	n/a
115.1005	0.112	230201	keystroke	Key.space	n/a
116.2155	0.134	232431	keystroke	m	n/a
116.3715	0.179	232743	keystroke	a	n/a
116.5045	0.113	233009	keystroke	n	n/a
116.7425	0.115	233485	keystroke	o	n/a
116.9025	0.115	233805	keystroke	r	n/a
117.0875	0.089	234175	keystroke	Key.space	n/a
117.8825	0.1335	235765	keystroke	t	n/a
118.111	0.114	236222	keystroke	i	n/a
118.265	0.1385	236530	keystroke	r	n/a
118.5005	0.137	237001	keystroke	e	n/a
118.7345	0.16	237469	keystroke	s	n/a
118.8955	0.112	237791	keystroke	Key.enter	n/a
119.016	16.0015	238032	prompt	n/a	constantly fixes distinct exclusion\n
119.937	0.204	239874	keystroke	c	n/a
120.163	0.112	240326	keystroke	o	n/a
120.379	0.135	240758	keystroke	n	n/a
120.535	0.158	241070	keystroke	s	n/a
120.7355	0.1595	241471	keystroke	t	n/a
120.925	0.1825	241850	keystroke	a	n/a
121.06	0.159	242120	keystroke	n	n/a
121.411	0.16	242822	keystroke	t	n/a
121.594	0.136	243188	keystroke	l	n/a
121.831	0.135	243662	keystroke	y	n/a
122.039	0.1125	244078	keystroke	Key.space	n/a
122.825	0.157	245650	keystroke	f	n/a
123.4685	0.113	246937	keystroke	i	n/a
123.7155	0.135	247431	keystroke	x	n/a
123.9765	0.114	247953	keystroke	e	n/a
124.1805	0.157	248361	keystroke	s	n/a
124.4395	0.157	248879	keystroke	Key.space	n/a
124.89	0.16	249780	keystroke	d	n/a
125.11	0.116	250220	keystroke	i	n/a
125.201	0.182	250402	keystroke	s	n/a
126.829	0.135	253658	keystroke	t	n/a
127.005	0.113	254010	keystroke	i	n/a
127.238	0.025	254476	keystroke	m	n/a
127.967	0.136	255934	keystroke	n	n/a
128.179	0.179	256358	keystroke	c	n/a
128.381	0.1345	256762	keystroke	t	n/a
128.6185	0.1585	257237	keystroke	Key.space	n/a
129.3545	0.11	258709	keystroke	Key.backspace	n/a
129.5645	0.092	259129	keystroke	Key.backspace	n/a
129.7305	0.093	259461	keystroke	Key.backspace	n/a
129.9115	0.114	259823	keystroke	Key.backspace	n/a
130.2665	0.136	260533	keystroke	Key.backspace	n/a
131.123	0.132	262246	keystroke	n	n/a
131.2975	0.1365	262595	keystroke	c	n/a
131.5005	0.1135	263001	keystroke	t	n/a
131.7	0.116	263400	keystroke	Key.space	n/a
132.019	0.137	264038	keystroke	e	n/a
132.065	0.093	264130	keystroke	w	n/a
132.5995	0.137	265199	keystroke	Key.backspace	n/a
133.1665	0.181	266333	keystroke	x	n/a
133.4325	0.1145	266865	keystroke	c	n/a
133.548	0.135	267096	keystroke	l	n/a
133.725	0.113	267450	keystroke	u	n/a
133.84	0.18	267680	keystroke	s	n/a
133.974	0.182	267948	keystroke	i	n/a
134.157	0.1335	268314	keystroke	o	n/a
134.3905	0.135	268781	keystroke	n	n/a
134.5565	0.115	269113	keystroke	Key.space	n/a
134.8795	0.136	269759	keystroke	Key.enter	n/a
135.0235	11.2115	270047	prompt	n/a	construction modifications april reminder\n
135.8095	0.156	271619	keystroke	c	n/a
136.0265	0.135	272053	keystroke	o	n/a
136.291	0.138	272582	keystroke	n	n/a
136.503	0.136	273006	keystroke	t	n/a
136.726	0.091	273452	keystroke	r	n/a
136.838	0.113	273676	keystroke	u	n/a
137.053	0.182	274106	keystroke	c	n/a
137.256	0.114	274512	keystroke	t	n/a
137.585	0.115	275170	keystroke	i	n/a
137.722	0.136	275444	keystroke	o	n/a
137.938	0.16	275876	keystroke	n	n/a
138.099	0.111	276198	keystroke	Key.space	n/a
138.326	0.136	276652	keystroke	m	n/a
138.557	0.1125	277114	keystroke	o	n/a
138.744	0.183	277488	keystroke	d	n/a
139.089	0.1355	278178	keystroke	i	n/a
139.7925	0.136	279585	keystroke	f	n/a
140.1315	0.1995	280263	keystroke	c	n/a
140.519	0.182	281038	keystroke	a	n/a
140.702	0.068	281404	keystroke	t	n/a
140.703	0.069	281406	keystroke	y	n/a
141.3405	0.157	282681	keystroke	Key.backspace	n/a
142.0475	0.157	284095	keystroke	i	n/a
142.2265	0.091	284453	keystroke	o	n/a
142.4415	0.134	284883	keystroke	n	n/a
142.5975	0.1585	285195	keystroke	s	n/a
142.731	0.138	285462	keystroke	Key.space	n/a
143.3155	0.161	286631	keystroke	a	n/a
143.4765	0.157	286953	keystroke	p	n/a
143.686	0.113	287372	keystroke	r	n/a
143.8305	0.1365	287661	keystroke	i	n/a
144.061	0.2505	288122	keystroke	l	n/a
144.3325	0.135	288665	keystroke	Key.space	n/a
144.7855	0.114	289571	keystroke	r	n/a
144.9885	0.136	289977	keystroke	e	n/a
145.0785	0.158	290157	keystroke	m	n/a
145.3075	0.111	290615	keystroke	i	n/a
145.5025	0.114	291005	keystroke	n	n/a
145.5935	0.089	291187	keystroke	d	n/a
145.7665	0.09	291533	keystroke	e	n/a
145.9725	0.089	291945	keystroke	r	n/a
146.1435	0.09	292287	keystroke	Key.enter	n/a
146.2395	9.4995	292479	prompt	n/a	runner antibody individual export\n
147.0175	0.135	294035	keystroke	r	n/a
147.2965	0.136	294593	keystroke	u	n/a
147.5665	0.091	295133	keystroke	n	n/a
147.7155	0.114	295431	keystroke	n	n/a
147.7855	0.112	295571	keystroke	e	n/a
147.9805	0.092	295961	keystroke	r	n/a
148.0955	0.091	296191	keystroke	Key.space	n/a
148.4005	0.204	296801	keystroke	a	n/a
148.5595	0.114	297119	keystroke	n	n/a
148.8135	0.114	297627	keystroke	t	n/a
148.9285	0.134	297857	keystroke	i	n/a
149.2545	0.1105	298509	keystroke	b	n/a
149.473	0.113	298946	keystroke	o	n/a
149.648	0.156	299296	keystroke	d	n/a
149.805	0.088	299610	keystroke	y	n/a
149.95	0.112	299900	keystroke	Key.space	n/a
151.1275	0.138	302255	keystroke	i	n/a
151.39	0.134	302780	keystroke	n	n/a
151.885	0.179	303770	keystroke	d	n/a
152.178	0.135	304356	keystroke	i	n/a
152.499	0.1575	304998	keystroke	v	n/a
152.657	0.1105	305314	keystroke	i	n/a
153.1855	0.161	306371	keystroke	d	n/a
153.3475	0.1085	306695	keystroke	u	n/a
153.587	0.182	307174	keystroke	a	n/a
153.745	0.136	307490	keystroke	l	n/a
153.936	0.089	307872	keystroke	Key.space	n/a
154.397	0.225	308794	keystroke	e	n/a
154.78	0.201	309560	keystroke	x	n/a
154.911	0.16	309822	keystroke	p	n/a
155.072	0.089	310144	keystroke	o	n/a
155.234	0.114	310468	keystroke	r	n/a
155.4605	0.09	310921	keystroke	t	n/a
155.6215	0.116	311243	keystroke	Key.enter	n/a
155.7425	8.5925	311485	prompt	n/a	memo banned hood novelty\n
156.6055	0.137	313211	keystroke	m	n/a
156.7435	0.158	313487	keystroke	e	n/a
156.8775	0.093	313755	keystroke	m	n/a
157.0785	0.113	314157	keystroke	o	n/a
157.2515	0.093	314503	keystroke	Key.space	n/a
157.6395	0.113	315279	keystroke	b	n/a
157.7745	0.183	315549	keystroke	a	n/a
157.9315	0.071	315863	keystroke	n	n/a
158.0655	0.137	316131	keystroke	n	n/a
158.2265	0.092	316453	keystroke	e	n/a
158.3905	0.136	316781	keystroke	d	n/a
158.5275	0.089	317055	keystroke	Key.space	n/a
159.0045	0.154	318009	keystroke	g	n/a
159.3975	0.138	318795	keystroke	Key.backspace	n/a
159.6875	0.1115	319375	keystroke	h	n/a
160.048	0.091	320096	keystroke	o	n/a
160.241	0.113	320482	keystroke	o	n/a
160.432	0.092	320864	keystroke	d	n/a
161.054	0.113	322108	keystroke	Key.space	n/a
162.248	0.0915	324496	keystroke	n	n/a
162.7475	0.136	325495	keystroke	o	n/a
163.0245	0.112	326049	keystroke	v	n/a
163.2835	0.133	326567	keystroke	e	n/a
163.3935	0.1375	326787	keystroke	l	n/a
163.731	0.112	327462	keystroke	y	n/a
163.905	0.136	327810	keystroke	t	n/a
164.245	0.089	328490	keystroke	Key.enter	n/a
164.3435	10.692	328687	prompt	n/a	bridal cases prime principles\n
165.7865	0.135	331573	keystroke	n	n/a
165.8085	0.115	331617	keystroke	b	n/a
166.044	0.1335	332088	keystroke	r	n/a
166.2265	0.134	332453	keystroke	i	n/a
166.3815	0.135	332763	keystroke	d	n/a
166.6885	0.158	333377	keystroke	a	n/a
166.8675	0.137	333735	keystroke	l	n/a
167.1775	0.091	334355	keystroke	Key.backspace	n/a
167.3555	0.068	334711	keystroke	Key.backspace	n/a
167.5155	0.07	335031	keystroke	Key.backspace	n/a
167.6525	0.089	335305	keystroke	Key.backspace	n/a
167.8245	0.091	335649	keystroke	Key.backspace	n/a
168.0095	0.112	336019	keystroke	Key.backspace	n/a
168.2065	0.1115	336413	keystroke	Key.backspace	n/a
168.653	0.134	337306	keystroke	b	n/a
168.857	0.135	337714	keystroke	r	n/a
169.092	0.115	338184	keystroke	i	n/a
169.23	0.114	338460	keystroke	d	n/a
169.476	0.182	338952	keystroke	a	n/a
169.612	0.157	339224	keystroke	l	n/a
169.818	0.091	339636	keystroke	Key.space	n/a
170.084	0.16	340168	keystroke	c	n/a
170.3715	0.183	340743	keystroke	a	n/a
170.5545	0.132	341109	keystroke	s	n/a
170.7945	0.113	341589	keystroke	e	n/a
170.9955	0.137	341991	keystroke	s	n/a
171.1715	0.112	342343	keystroke	Key.space	n/a
171.3375	0.157	342675	keystroke	p	n/a
171.5175	0.091	343035	keystroke	r	n/a
171.6315	0.134	343263	keystroke	i	n/a
171.8865	0.138	343773	keystroke	m	n/a
172.0795	0.159	344159	keystroke	e	n/a
172.2125	0.137	344425	keystroke	Key.space	n/a
172.4195	0.157	344839	keystroke	p	n/a
172.5775	0.111	345155	keystroke	r	n/a
172.7395	0.135	345479	keystroke	i	n/a
173.0325	0.111	346065	keystroke	n	n/a
173.7085	0.18	347417	keystroke	c	n/a
173.975	0.156	347950	keystroke	i	n/a
174.177	0.1365	348354	keystroke	p	n/a
174.3445	0.134	348689	keystroke	l	n/a
174.5125	0.11	349025	keystroke	e	n/a
174.7235	0.156	349447	keystroke	s	n/a
174.9005	0.134	349801	keystroke	Key.enter	n/a
175.039	11.443	350078	prompt	n/a	ingredients keyboard arnold diana\n
175.9355	0.114	351871	keystroke	i	n/a
176.2125	0.115	352425	keystroke	n	n/a
176.4455	0.113	352891	keystroke	g	n/a
176.5945	0.094	353189	keystroke	r	n/a
176.7915	0.067	353583	keystroke	e	n/a
176.9875	0.136	353975	keystroke	d	n/a
178.0775	0.136	356155	keystroke	i	n/a
179.325	0.158	358650	keystroke	e	n/a
179.518	0.135	359036	keystroke	n	n/a
179.815	0.158	359630	keystroke	t	n/a
180.056	0.182	360112	keystroke	s	n/a
180.214	0.1345	360428	keystroke	Key.space	n/a
180.8335	0.136	361667	keystroke	k	n/a
181.0075	0.135	362015	keystroke	e	n/a
181.1645	0.089	362329	keystroke	y	n/a
181.3735	0.111	362747	keystroke	b	n/a
181.5785	0.114	363157	keystroke	o	n/a
181.7145	0.16	363429	keystroke	a	n/a
181.9965	0.1345	363993	keystroke	r	n/a
182.245	0.158	364490	keystroke	d	n/a
182.425	0.091	364850	keystroke	Key.space	n/a
182.643	0.161	365286	keystroke	a	n/a
182.893	0.157	365786	keystroke	r	n/a
183.027	0.135	366054	keystroke	n	n/a
183.264	0.135	366528	keystroke	o	n/a
183.479	0.135	366958	keystroke	l	n/a
183.635	0.179	367270	keystroke	d	n/a
183.894	0.112	367788	keystroke	Key.space	n/a
185.344	0.18	370688	keystroke	d	n/a
185.546	0.113	371092	keystroke	i	n/a
185.726	0.157	371452	keystroke	a	n/a
185.884	0.1115	371768	keystroke	n	n/a
186.0175	0.157	372035	keystroke	a	n/a
186.366	0.115	372732	keystroke	Key.enter	n/a
186.4855	7.2005	372971	prompt	n/a	monitor finance salt skills\n
187.519	0.137	375038	keystroke	m	n/a
187.76	0.113	375520	keystroke	o	n/a
187.99	0.114	375980	keystroke	n	n/a
188.183	0.113	376366	keystroke	i	n/a
188.3955	0.114	376791	keystroke	t	n/a
188.5105	0.089	377021	keystroke	o	n/a
188.6485	0.137	377297	keystroke	r	n/a
188.854	0.091	377708	keystroke	Key.space	n/a
189.396	0.1165	378792	keystroke	f	n/a
189.5335	0.1155	379067	keystroke	i	n/a
189.7635	0.0885	379527	keystroke	n	n/a
189.8995	0.135	379799	keystroke	a	n/a
189.9445	0.1115	379889	keystroke	n	n/a
190.182	0.1375	380364	keystroke	c	n/a
190.442	0.0925	380884	keystroke	e	n/a
190.5815	0.112	381163	keystroke	Key.space	n/a
191.0135	0.202	382027	keystroke	s	n/a
191.2705	0.159	382541	keystroke	a	n/a
191.4055	0.113	382811	keystroke	l	n/a
191.6625	0.137	383325	keystroke	t	n/a
191.8505	0.115	383701	keystroke	Key.space	n/a
192.1915	0.181	384383	keystroke	s	n/a
192.3945	0.135	384789	keystroke	k	n/a
192.5985	0.114	385197	keystroke	i	n/a
192.8305	0.092	385661	keystroke	l	n/a
192.992	0.09	385984	keystroke	l	n/a
193.083	0.134	386166	keystroke	s	n/a
193.549	0.135	387098	keystroke	Key.enter	n/a
193.689	10.669	387378	prompt	n/a	interface chrome excited marker\n
194.5585	0.224	389117	keystroke	i	n/a
194.939	0.112	389878	keystroke	n	n/a
195.1995	0.156	390399	keystroke	t	n/a
195.4105	0.201	390821	keystroke	e	n/a
196.1045	0.136	392209	keystroke	r	n/a
196.4145	0.1605	392829	keystroke	f	n/a
196.699	0.179	393398	keystroke	a	n/a
197.0215	0.2255	394043	keystroke	c	n/a
197.368	0.135	394736	keystroke	e	n/a
197.598	0.066	395196	keystroke	Key.space	n/a
198.085	0.156	396170	keystroke	v	n/a
198.151	0.113	396302	keystroke	c	n/a
198.51	0.158	397020	keystroke	Key.backspace	n/a
198.983	0.114	397966	keystroke	Key.backspace	n/a
199.126	0.137	398252	keystroke	c	n/a
199.316	0.177	398632	keystroke	h	n/a
199.9915	0.157	399983	keystroke	r	n/a
200.1835	0.113	400367	keystroke	o	n/a
200.3925	0.135	400785	keystroke	m	n/a
200.5875	0.135	401175	keystroke	e	n/a
200.7235	0.09	401447	keystroke	Key.space	n/a
201.269	0.092	402538	keystroke	e	n/a
201.582	0.137	403164	keystroke	x	n/a
201.809	0.092	403618	keystroke	c	n/a
201.94	0.114	403880	keystroke	i	n/a
202.175	0.159	404350	keystroke	t	n/a
202.335	0.11	404670	keystroke	e	n/a
202.518	0.137	405036	keystroke	d	n/a
202.685	0.135	405370	keystroke	Key.space	n/a
203.028	0.158	406056	keystroke	m	n/a
203.163	0.1565	406326	keystroke	a	n/a
203.3705	0.115	406741	keystroke	r	n/a
203.4865	0.112	406973	keystroke	k	n/a
203.6335	0.2265	407267	keystroke	e	n/a
203.959	0.091	407918	keystroke	r	n/a
204.244	0.112	408488	keystroke	Key.enter	n/a
204.3615	9.4705	408723	prompt	n/a	rain joining frequent professionals\n
205.0505	0.136	410101	keystroke	r	n/a
205.258	0.249	410516	keystroke	a	n/a
205.508	0.109	411016	keystroke	i	n/a
205.712	0.159	411424	keystroke	n	n/a
205.893	0.113	411786	keystroke	Key.space	n/a
206.401	0.114	412802	keystroke	j	n/a
206.5855	0.16	413171	keystroke	o	n/a
206.7205	0.113	413441	keystroke	i	n/a
206.9515	0.1585	413903	keystroke	n	n/a
207.167	0.114	414334	keystroke	i	n/a
207.319	0.1155	414638	keystroke	n	n/a
207.5285	0.158	415057	keystroke	g	n/a
207.6875	0.11	415375	keystroke	Key.space	n/a
207.99	0.112	415980	keystroke	f	n/a
208.224	0.09	416448	keystroke	r	n/a
208.419	0.0915	416838	keystroke	e	n/a
209.0245	0.178	418049	keystroke	q	n/a
209.2035	0.113	418407	keystroke	u	n/a
209.3635	0.113	418727	keystroke	e	n/a
209.5085	0.1125	419017	keystroke	n	n/a
209.934	0.181	419868	keystroke	t	n/a
210.223	0.134	420446	keystroke	Key.space	n/a
210.574	0.181	421148	keystroke	p	n/a
210.806	0.137	421612	keystroke	r	n/a
211.229	0.115	422458	keystroke	o	n/a
211.8925	0.112	423785	keystroke	f	n/a
212.113	0.114	424226	keystroke	e	n/a
212.38	0.07	424760	keystroke	s	n/a
212.526	0.115	425052	keystroke	s	n/a
212.616	0.157	425232	keystroke	i	n/a
212.794	0.116	425588	keystroke	o	n/a
212.993	0.115	425986	keystroke	n	n/a
213.19	0.157	426380	keystroke	a	n/a
213.301	0.1365	426602	keystroke	l	n/a
213.4675	0.159	426935	keystroke	s	n/a
213.7155	0.115	427431	keystroke	Key.enter	n/a
213.837	9.808	427674	prompt	n/a	challenges latitude conflicts fabrics\n
214.7265	0.202	429453	keystroke	c	n/a
214.9295	0.091	429859	keystroke	h	n/a
215.1305	0.158	430261	keystroke	a	n/a
215.2215	0.09	430443	keystroke	l	n/a
215.372	0.111	430744	keystroke	l	n/a
215.504	0.138	431008	keystroke	e	n/a
215.617	0.115	431234	keystroke	n	n/a
215.821	0.116	431642	keystroke	g	n/a
215.912	0.117	431824	keystroke	e	n/a
216.137	0.159	432274	keystroke	s	n/a
216.297	0.111	432594	keystroke	Key.space	n/a
216.548	0.135	433096	keystroke	l	n/a
216.736	0.181	433472	keystroke	a	n/a
217.1345	0.137	434269	keystroke	t	n/a
217.2725	0.0915	434545	keystroke	i	n/a
217.4085	0.158	434817	keystroke	t	n/a
217.8365	0.113	435673	keystroke	u	n/a
217.9715	0.158	435943	keystroke	d	n/a
218.2105	0.1365	436421	keystroke	e	n/a
218.348	0.114	436696	keystroke	Key.space	n/a
219.1665	0.157	438333	keystroke	c	n/a
219.3465	0.113	438693	keystroke	o	n/a
219.5835	0.113	439167	keystroke	n	n/a
219.8895	0.113	439779	keystroke	f	n/a
220.0335	0.158	440067	keystroke	l	n/a
220.2135	0.068	440427	keystroke	i	n/a
220.3115	0.182	440623	keystroke	c	n/a
220.5155	0.16	441031	keystroke	t	n/a
220.7545	0.201	441509	keystroke	s	n/a
220.9565	0.133	441913	keystroke	Key.space	n/a
221.4655	0.113	442931	keystroke	f	n/a
221.7415	0.179	443483	keystroke	a	n/a
221.9215	0.137	443843	keystroke	b	n/a
222.0595	0.131	444119	keystroke	r	n/a
222.2645	0.1575	444529	keystroke	i	n/a
222.397	0.16	444794	keystroke	c	n/a
222.701	0.2055	445402	keystroke	s	n/a
223.4835	0.16	446967	keystroke	Key.enter	n/a
223.648	11.839	447296	prompt	n/a	option memorial friday invitations\n
224.5285	0.091	449057	keystroke	o	n/a
224.6985	0.114	449397	keystroke	p	n/a
224.8775	0.159	449755	keystroke	t	n/a
225.0125	0.158	450025	keystroke	i	n/a
225.1705	0.114	450341	keystroke	o	n/a
225.3625	0.162	450725	keystroke	n	n/a
225.571	0.113	451142	keystroke	Key.space	n/a
225.842	0.136	451684	keystroke	m	n/a
225.953	0.134	451906	keystroke	e	n/a
226.108	0.114	452216	keystroke	m	n/a
226.318	0.135	452636	keystroke	o	n/a
226.475	0.135	452950	keystroke	r	n/a
226.611	0.111	453222	keystroke	i	n/a
226.7965	0.1605	453593	keystroke	a	n/a
226.9325	0.1135	453865	keystroke	l	n/a
227.099	0.114	454198	keystroke	Key.space	n/a
227.629	0.158	455258	keystroke	f	n/a
227.869	0.114	455738	keystroke	r	n/a
227.937	0.1365	455874	keystroke	i	n/a
228.1505	0.135	456301	keystroke	d	n/a
228.4815	0.2025	456963	keystroke	a	n/a
228.858	0.158	457716	keystroke	t	n/a
229.3205	0.135	458641	keystroke	Key.backspace	n/a
229.6045	0.114	459209	keystroke	y	n/a
229.766	0.111	459532	keystroke	Key.space	n/a
230.07	0.114	460140	keystroke	i	n/a
230.305	0.112	460610	keystroke	n	n/a
230.723	0.091	461446	keystroke	Key.backspace	n/a
230.963	0.091	461926	keystroke	Key.backspace	n/a
231.756	0.112	463512	keystroke	Key.backspace	n/a
231.989	0.09	463978	keystroke	Key.space	n/a
232.764	0.114	465528	keystroke	i	n/a
233.099	0.114	466198	keystroke	n	n/a
233.3705	0.115	466741	keystroke	v	n/a
233.6255	0.133	467251	keystroke	i	n/a
233.9265	0.138	467853	keystroke	t	n/a
234.0975	0.18	468195	keystroke	a	n/a
234.2325	0.115	468465	keystroke	t	n/a
234.5	0.14	469000	keystroke	i	n/a
234.662	0.135	469324	keystroke	o	n/a
234.885	0.112	469770	keystroke	n	n/a
235.019	0.178	470038	keystroke	s	n/a
235.351	0.134	470702	keystroke	Key.enter	n/a
235.4905	15.0675	470981	prompt	n/a	apparel reno marc yemen\n
236.137	0.202	472274	keystroke	a	n/a
236.362	0.09	472724	keystroke	p	n/a
236.513	0.14	473026	keystroke	p	n/a
236.675	0.114	473350	keystroke	e	n/a
236.742	0.2	473484	keystroke	a	n/a
236.982	0.113	473964	keystroke	r	n/a
237.165	0.16	474330	keystroke	a	n/a
237.8775	0.1365	475755	keystroke	Key.backspace	n/a
238.036	0.114	476072	keystroke	e	n/a
238.222	0.18	476444	keystroke	l	n/a
238.449	0.138	476898	keystroke	Key.space	n/a
239.053	0.113	478106	keystroke	Key.backspace	n/a
239.251	0.09	478502	keystroke	Key.backspace	n/a
239.419	0.069	478838	keystroke	Key.backspace	n/a
239.5895	0.068	479179	keystroke	Key.backspace	n/a
239.76	0.135	479520	keystroke	Key.backspace	n/a
240.4195	0.161	480839	keystroke	a	n/a
240.6985	0.136	481397	keystroke	r	n/a
240.9185	0.113	481837	keystroke	e	n/a
241.0905	0.182	482181	keystroke	l	n/a
241.3985	0.154	482797	keystroke	Key.space	n/a
242.6125	0.115	485225	keystroke	Key.backspace	n/a
242.8145	0.069	485629	keystroke	Key.backspace	n/a
242.9745	0.09	485949	keystroke	Key.backspace	n/a
243.1455	0.115	486291	keystroke	Key.backspace	n/a
243.44	0.16	486880	keystroke	Key.backspace	n/a
243.8905	0.1605	487781	keystroke	Key.backspace	n/a
244.084	0.1785	488168	keystroke	a	n/a
244.3375	0.1325	488675	keystroke	r	n/a
244.54	0.113	489080	keystroke	e	n/a
246.3855	0.137	492771	keystroke	l	n/a
246.523	0.1595	493046	keystroke	Key.space	n/a
246.725	0.0695	493450	keystroke	r	n/a
246.87	0.1365	493740	keystroke	e	n/a
246.9825	0.093	493965	keystroke	n	n/a
247.1585	0.1555	494317	keystroke	o	n/a
247.315	0.1135	494630	keystroke	Key.space	n/a
247.5775	0.16	495155	keystroke	m	n/a
247.7385	0.155	495477	keystroke	a	n/a
247.9265	0.137	495853	keystroke	r	n/a
248.1885	0.204	496377	keystroke	c	n/a
248.414	0.092	496828	keystroke	Key.space	n/a
248.755	0.161	497510	keystroke	y	n/a
248.779	0.114	497558	keystroke	t	n/a
249.181	0.137	498362	keystroke	Key.backspace	n/a
249.365	0.1825	498730	keystroke	e	n/a
249.5845	0.204	499169	keystroke	m	n/a
249.8665	0.159	499733	keystroke	e	n/a
250.0665	0.2005	500133	keystroke	n	n/a
250.416	0.1405	500832	keystroke	Key.enter	n/a
250.562	10.337	501124	prompt	n/a	executives secondary villas bottom\n
251.3215	0.16	502643	keystroke	e	n/a
251.8575	0.158	503715	keystroke	x	n/a
252.1105	0.069	504221	keystroke	e	n/a
252.3115	0.135	504623	keystroke	c	n/a
252.468	0.114	504936	keystroke	u	n/a
252.688	0.138	505376	keystroke	t	n/a
252.847	0.114	505694	keystroke	i	n/a
253.132	0.115	506264	keystroke	v	n/a
253.268	0.114	506536	keystroke	e	n/a
253.586	0.203	507172	keystroke	s	n/a
253.609	0.068	507218	keystroke	d	n/a
253.868	0.09	507736	keystroke	Key.space	n/a
254.2875	0.091	508575	keystroke	Key.backspace	n/a
254.4545	0.115	508909	keystroke	Key.backspace	n/a
254.8085	0.111	509617	keystroke	Key.space	n/a
255.0175	0.156	510035	keystroke	s	n/a
255.2645	0.09	510529	keystroke	e	n/a
255.8195	0.162	511639	keystroke	c	n/a
256.046	0.159	512092	keystroke	o	n/a
256.3455	0.137	512691	keystroke	n	n/a
256.4575	0.14	512915	keystroke	d	n/a
256.6495	0.181	513299	keystroke	a	n/a
256.9115	0.1365	513823	keystroke	r	n/a
257.088	0.113	514176	keystroke	y	n/a
257.259	0.113	514518	keystroke	Key.space	n/a
258.2295	0.136	516459	keystroke	v	n/a
258.3875	0.138	516775	keystroke	i	n/a
258.6325	0.091	517265	keystroke	l	n/a
258.7885	0.113	517577	keystroke	l	n/a
258.8785	0.203	517757	keystroke	a	n/a
259.0585	0.136	518117	keystroke	s	n/a
259.2165	0.116	518433	keystroke	Key.space	n/a
259.5195	0.114	519039	keystroke	b	n/a
259.7715	0.157	519543	keystroke	o	n/a
260.082	0.1125	520164	keystroke	t	n/a
260.2735	0.113	520547	keystroke	t	n/a
260.3875	0.086	520775	keystroke	o	n/a
260.5535	0.1355	521107	keystroke	m	n/a
260.7835	0.114	521567	keystroke	Key.enter	n/a
260.902	9.407	521804	prompt	n/a	mails payroll france recorded\n
261.5585	0.18	523117	keystroke	m	n/a
261.7715	0.182	523543	keystroke	a	n/a
261.9545	0.111	523909	keystroke	i	n/a
262.1575	0.135	524315	keystroke	l	n/a
262.3135	0.205	524627	keystroke	s	n/a
262.6065	0.114	525213	keystroke	Key.space	n/a
262.8195	0.16	525639	keystroke	p	n/a
263.0005	0.137	526001	keystroke	a	n/a
263.5825	0.09	527165	keystroke	y	n/a
263.8175	0.153	527635	keystroke	r	n/a
264.1035	0.1805	528207	keystroke	o	n/a
264.4615	0.1105	528923	keystroke	l	n/a
264.633	0.158	529266	keystroke	l	n/a
264.813	0.091	529626	keystroke	Key.space	n/a
265.237	0.158	530474	keystroke	f	n/a
266.1815	0.114	532363	keystroke	r	n/a
266.3955	0.2275	532791	keystroke	a	n/a
266.681	0.183	533362	keystroke	n	n/a
266.838	0.14	533676	keystroke	c	n/a
267.072	0.114	534144	keystroke	e	n/a
267.216	0.115	534432	keystroke	Key.space	n/a
267.403	0.111	534806	keystroke	r	n/a
267.766	0.132	535532	keystroke	Key.backspace	n/a
268.5105	0.114	537021	keystroke	r	n/a
268.7085	0.0895	537417	keystroke	e	n/a
269.072	0.18	538144	keystroke	c	n/a
269.288	0.136	538576	keystroke	o	n/a
269.447	0.114	538894	keystroke	r	n/a
269.6655	0.116	539331	keystroke	d	n/a
269.8815	0.09	539763	keystroke	e	n/a
270.0625	0.113	540125	keystroke	d	n/a
270.2145	0.093	540429	keystroke	Key.enter	n/a
270.314	10.379	540628	prompt	n/a	zdnet harrison recommend opposite\n
271.7315	0.179	543463	keystroke	z	n/a
272.9755	0.135	545951	keystroke	d	n/a
273.1845	0.114	546369	keystroke	n	n/a
273.3205	0.1115	546641	keystroke	e	n/a
273.623	0.137	547246	keystroke	t	n/a
273.823	0.1345	547646	keystroke	Key.space	n/a
274.497	0.137	548994	keystroke	h	n/a
274.635	0.1545	549270	keystroke	a	n/a
275.0245	0.092	550049	keystroke	r	n/a
275.1945	0.093	550389	keystroke	r	n/a
275.528	0.158	551056	keystroke	i	n/a
275.687	0.1575	551374	keystroke	s	n/a
275.846	0.134	551692	keystroke	o	n/a
276.082	0.18	552164	keystroke	n	n/a
276.3055	0.092	552611	keystroke	Key.space	n/a
276.4275	0.09	552855	keystroke	r	n/a
276.5975	0.088	553195	keystroke	e	n/a
276.8565	0.135	553713	keystroke	c	n/a
277.0255	0.114	554051	keystroke	o	n/a
277.2665	0.069	554533	keystroke	m	n/a
277.3815	0.1335	554763	keystroke	m	n/a
277.516	0.135	555032	keystroke	e	n/a
277.685	0.115	555370	keystroke	n	n/a
277.801	0.131	555602	keystroke	d	n/a
277.983	0.0685	555966	keystroke	Key.space	n/a
278.813	0.1355	557626	keystroke	o	n/a
279.0455	0.069	558091	keystroke	p	n/a
279.1785	0.134	558357	keystroke	p	n/a
279.3135	0.089	558627	keystroke	o	n/a
279.437	0.1595	558874	keystroke	s	n/a
279.6285	0.092	559257	keystroke	i	n/a
279.9385	0.137	559877	keystroke	t	n/a
280.1055	0.1355	560211	keystroke	e	n/a
280.556	0.136	561112	keystroke	Key.enter	n/a
280.696	11.285	561392	prompt	n/a	royal negotiations pencil anti\n
282.0045	0.132	564009	keystroke	r	n/a
282.2475	0.1125	564495	keystroke	o	n/a
282.516	0.11	565032	keystroke	y	n/a
282.72	0.1805	565440	keystroke	a	n/a
282.855	0.201	565710	keystroke	l	n/a
283.056	0.137	566112	keystroke	Key.space	n/a
283.5825	0.137	567165	keystroke	n	n/a
283.7205	0.135	567441	keystroke	e	n/a
283.8565	0.068	567713	keystroke	h	n/a
284.0765	0.134	568153	keystroke	o	n/a
284.58	0.134	569160	keystroke	Key.backspace	n/a
284.791	0.112	569582	keystroke	Key.backspace	n/a
285.407	0.09	570814	keystroke	g	n/a
285.655	0.183	571310	keystroke	o	n/a
287.423	0.181	574846	keystroke	t	n/a
287.605	0.089	575210	keystroke	i	n/a
287.776	0.159	575552	keystroke	a	n/a
288.082	0.116	576164	keystroke	t	n/a
288.173	0.137	576346	keystroke	i	n/a
288.312	0.089	576624	keystroke	o	n/a
288.495	0.115	576990	keystroke	n	n/a
288.706	0.2265	577412	keystroke	s	n/a
289.0535	0.115	578107	keystroke	Key.space	n/a
289.3115	0.157	578623	keystroke	p	n/a
289.4695	0.135	578939	keystroke	e	n/a
289.6525	0.1345	579305	keystroke	n	n/a
289.877	0.183	579754	keystroke	c	n/a
290.035	0.135	580070	keystroke	i	n/a
290.302	0.136	580604	keystroke	l	n/a
290.484	0.112	580968	keystroke	Key.space	n/a
290.573	0.18	581146	keystroke	a	n/a
290.708	0.1335	581416	keystroke	n	n/a
291.4895	0.112	582979	keystroke	t	n/a
291.6565	0.112	583313	keystroke	i	n/a
291.8645	0.114	583729	keystroke	Key.enter	n/a
291.9835	7.9915	583967	prompt	n/a	shares enabled customized moms\n
292.6745	0.181	585349	keystroke	s	n/a
292.8775	0.092	585755	keystroke	h	n/a
292.9715	0.135	585943	keystroke	a	n/a
293.1925	0.093	586385	keystroke	r	n/a
293.3835	0.114	586767	keystroke	e	n/a
293.6135	0.156	587227	keystroke	s	n/a
293.8085	0.113	587617	keystroke	Key.space	n/a
293.9535	0.136	587907	keystroke	e	n/a
294.1125	0.138	588225	keystroke	n	n/a
294.308	0.157	588616	keystroke	a	n/a
294.466	0.133	588932	keystroke	b	n/a
294.761	0.159	589522	keystroke	l	n/a
295.105	0.138	590210	keystroke	e	n/a
295.35	0.112	590700	keystroke	d	n/a
295.544	0.068	591088	keystroke	Key.space	n/a
295.95	0.181	591900	keystroke	c	n/a
296.133	0.11	592266	keystroke	u	n/a
296.294	0.181	592588	keystroke	s	n/a
296.476	0.088	592952	keystroke	t	n/a
296.713	0.134	593426	keystroke	o	n/a
296.951	0.135	593902	keystroke	m	n/a
297.176	0.133	594352	keystroke	i	n/a
298.0355	0.156	596071	keystroke	z	n/a
298.339	0.114	596678	keystroke	e	n/a
298.54	0.115	597080	keystroke	d	n/a
298.713	0.115	597426	keystroke	Key.space	n/a
299.116	0.135	598232	keystroke	m	n/a
299.362	0.113	598724	keystroke	o	n/a
299.555	0.137	599110	keystroke	m	n/a
299.668	0.157	599336	keystroke	s	n/a
299.862	0.112	599724	keystroke	Key.enter	n/a
299.9785	61.0695	599957	prompt	n/a	charity marshall towers intervention\n
349.5625	0.136	699125	keystroke	c	n/a
349.7725	0.134	699545	keystroke	h	n/a
349.8835	0.228	699767	keystroke	a	n/a
350.8195	0.113	701639	keystroke	r	n/a
350.9995	0.159	701999	keystroke	i	n/a
351.2965	0.089	702593	keystroke	t	n/a
351.5025	0.0905	703005	keystroke	y	n/a
351.669	0.114	703338	keystroke	Key.space	n/a
351.986	0.158	703972	keystroke	m	n/a
352.146	0.131	704292	keystroke	a	n/a
352.339	0.09	704678	keystroke	e	n/a
352.569	0.113	705138	keystroke	s	n/a
352.713	0.112	705426	keystroke	h	n/a
353.2965	0.157	706593	keystroke	a	n/a
353.4755	0.092	706951	keystroke	l	n/a
353.6405	0.1385	707281	keystroke	l	n/a
353.7545	0.161	707509	keystroke	Key.space	n/a
354.1505	0.139	708301	keystroke	t	n/a
354.3495	0.091	708699	keystroke	o	n/a
354.6345	0.112	709269	keystroke	w	n/a
354.8675	0.114	709735	keystroke	e	n/a
355.0725	0.09	710145	keystroke	r	n/a
355.3115	0.114	710623	keystroke	s	n/a
355.4665	0.136	710933	keystroke	Key.space	n/a
355.8425	0.135	711685	keystroke	i	n/a
356.1085	0.115	712217	keystroke	n	n/a
356.3375	0.137	712675	keystroke	t	n/a
356.4755	0.069	712951	keystroke	e	n/a
356.6495	0.09	713299	keystroke	r	n/a
356.8155	0.135	713631	keystroke	v	n/a
357.0005	0.113	714001	keystroke	e	n/a
357.1345	0.113	714269	keystroke	n	n/a
357.7755	0.136	715551	keystroke	y	n/a
358.0355	0.089	716071	keystroke	t	n/a
358.3745	0.137	716749	keystroke	Key.backspace	n/a
358.5985	0.092	717197	keystroke	Key.backspace	n/a
359.314	0.113	718628	keystroke	t	n/a
359.681	0.135	719362	keystroke	i	n/a
359.868	0.091	719736	keystroke	o	n/a
360.1055	0.088	720211	keystroke	n	n/a
360.88	0.157	721760	keystroke	Key.enter	n/a
361.055	7.5755	722110	prompt	n/a	madonna primary deck focus\n
361.909	0.1115	723818	keystroke	m	n/a
362.7695	0.18	725539	keystroke	a	n/a
363.1225	0.136	726245	keystroke	d	n/a
363.2985	0.113	726597	keystroke	o	n/a
363.5565	0.068	727113	keystroke	n	n/a
363.7005	0.115	727401	keystroke	n	n/a
363.8615	0.177	727723	keystroke	a	n/a
364.0385	0.089	728077	keystroke	Key.space	n/a
364.2305	0.1385	728461	keystroke	p	n/a
364.582	0.1355	729164	keystroke	r	n/a
364.7385	0.112	729477	keystroke	i	n/a
364.9685	0.113	729937	keystroke	m	n/a
365.0825	0.11	730165	keystroke	a	n/a
365.2685	0.116	730537	keystroke	r	n/a
365.4055	0.092	730811	keystroke	y	n/a
365.5685	0.09	731137	keystroke	Key.space	n/a
366.073	0.093	732146	keystroke	d	n/a
366.278	0.068	732556	keystroke	e	n/a
366.5	0.137	733000	keystroke	c	n/a
366.68	0.136	733360	keystroke	k	n/a
366.838	0.113	733676	keystroke	Key.space	n/a
367.6015	0.156	735203	keystroke	f	n/a
367.7915	0.112	735583	keystroke	o	n/a
368.0055	0.179	736011	keystroke	c	n/a
368.1865	0.088	736373	keystroke	u	n/a
368.3355	0.14	736671	keystroke	s	n/a
368.5385	0.09	737077	keystroke	Key.enter	n/a
368.6345	11.1595	737269	prompt	n/a	cellular scholarships objective grab\n
369.535	0.1125	739070	keystroke	c	n/a
369.7645	0.114	739529	keystroke	e	n/a
369.9805	0.09	739961	keystroke	l	n/a
370.146	0.1375	740292	keystroke	l	n/a
370.755	0.092	741510	keystroke	u	n/a
370.943	0.114	741886	keystroke	l	n/a
371.089	0.114	742178	keystroke	a	n/a
371.306	0.134	742612	keystroke	r	n/a
371.492	0.111	742984	keystroke	Key.space	n/a
371.979	0.18	743958	keystroke	s	n/a
372.259	0.139	744518	keystroke	h	n/a
372.473	0.137	744946	keystroke	o	n/a
372.691	0.135	745382	keystroke	l	n/a
372.827	0.135	745654	keystroke	a	n/a
373.074	0.138	746148	keystroke	r	n/a
373.281	0.11	746562	keystroke	h	n/a
373.9055	0.159	747811	keystroke	s	n/a
374.301	0.047	748602	keystroke	Key.backspace	n/a
374.46	0.0905	748920	keystroke	Key.backspace	n/a
375.0535	0.136	750107	keystroke	s	n/a
375.2785	0.0915	750557	keystroke	h	n/a
375.532	0.115	751064	keystroke	i	n/a
375.767	0.136	751534	keystroke	p	n/a
376.007	0.136	752014	keystroke	s	n/a
376.165	0.092	752330	keystroke	Key.space	n/a
376.447	0.158	752894	keystroke	o	n/a
376.775	0.112	753550	keystroke	b	n/a
377.049	0.137	754098	keystroke	j	n/a
377.187	0.089	754374	keystroke	e	n/a
377.419	0.162	754838	keystroke	c	n/a
377.534	0.091	755068	keystroke	t	n/a
377.744	0.112	755488	keystroke	i	n/a
377.981	0.135	755962	keystroke	v	n/a
378.163	0.16	756326	keystroke	e	n/a
378.345	0.112	756690	keystroke	Key.space	n/a
378.939	0.091	757878	keystroke	g	n/a
379.103	0.113	758206	keystroke	r	n/a
379.374	0.138	758748	keystroke	a	n/a
379.487	0.073	758974	keystroke	b	n/a
379.7025	0.09	759405	keystroke	Key.enter	n/a
379.7995	6.849	759599	prompt	n/a	connecting ment session mine\n
380.5945	0.157	761189	keystroke	c	n/a
380.7935	0.137	761587	keystroke	o	n/a
381.0625	0.069	762125	keystroke	n	n/a
381.1865	0.114	762373	keystroke	n	n/a
381.2535	0.1165	762507	keystroke	e	n/a
381.493	0.135	762986	keystroke	c	n/a
381.629	0.089	763258	keystroke	t	n/a
381.82	0.114	763640	keystroke	i	n/a
382.0475	0.115	764095	keystroke	n	n/a
382.2625	0.1155	764525	keystroke	g	n/a
382.45	0.093	764900	keystroke	Key.space	n/a
383.031	0.16	766062	keystroke	m	n/a
383.221	0.133	766442	keystroke	e	n/a
383.3785	0.092	766757	keystroke	n	n/a
383.633	0.091	767266	keystroke	t	n/a
383.8145	0.09	767629	keystroke	Key.space	n/a
384.325	0.18	768650	keystroke	s	n/a
384.62	0.09	769240	keystroke	e	n/a
384.838	0.089	769676	keystroke	s	n/a
384.991	0.09	769982	keystroke	s	n/a
385.1115	0.091	770223	keystroke	i	n/a
385.2835	0.092	770567	keystroke	o	n/a
385.5145	0.112	771029	keystroke	n	n/a
385.6755	0.137	771351	keystroke	Key.space	n/a
385.8935	0.11	771787	keystroke	m	n/a
386.1075	0.091	772215	keystroke	i	n/a
386.2895	0.113	772579	keystroke	n	n/a
386.4575	0.069	772915	keystroke	e	n/a
386.5785	0.067	773157	keystroke	Key.enter	n/a
386.652	6.894	773304	prompt	n/a	polish homes bomb quick\n
387.2165	0.16	774433	keystroke	p	n/a
387.4315	0.159	774863	keystroke	o	n/a
387.7045	0.135	775409	keystroke	l	n/a
388.635	0.114	777270	keystroke	i	n/a
388.818	0.1345	777636	keystroke	s	n/a
388.9535	0.134	777907	keystroke	h	n/a
389.1655	0.068	778331	keystroke	Key.space	n/a
389.5555	0.09	779111	keystroke	h	n/a
389.7385	0.114	779477	keystroke	o	n/a
389.9345	0.115	779869	keystroke	m	n/a
390.0715	0.111	780143	keystroke	e	n/a
390.3015	0.135	780603	keystroke	s	n/a
390.458	0.113	780916	keystroke	Key.space	n/a
390.876	0.136	781752	keystroke	b	n/a
391.115	0.116	782230	keystroke	o	n/a
391.389	0.113	782778	keystroke	m	n/a
391.575	0.092	783150	keystroke	b	n/a
391.747	0.134	783494	keystroke	s	n/a
391.858	0.136	783716	keystroke	Key.space	n/a
392.303	0.157	784606	keystroke	q	n/a
392.575	0.113	785150	keystroke	u	n/a
392.746	0.1135	785492	keystroke	i	n/a
392.8615	0.157	785723	keystroke	c	n/a
393.1355	0.135	786271	keystroke	k	n/a
393.4295	0.114	786859	keystroke	Key.enter	n/a
393.55	7.618	787100	prompt	n/a	sources node elected delaware\n
394.3035	0.1605	788607	keystroke	s	n/a
394.499	0.135	788998	keystroke	o	n/a
394.675	0.091	789350	keystroke	u	n/a
394.818	0.115	789636	keystroke	r	n/a
395.093	0.112	790186	keystroke	c	n/a
395.356	0.091	790712	keystroke	e	n/a
395.559	0.136	791118	keystroke	s	n/a
395.7165	0.135	791433	keystroke	Key.space	n/a
396.0065	0.092	792013	keystroke	n	n/a
396.1975	0.1145	792395	keystroke	o	n/a
396.313	0.086	792626	keystroke	d	n/a
396.502	0.092	793004	keystroke	e	n/a
396.782	0.09	793564	keystroke	Key.space	n/a
397.1945	0.1145	794389	keystroke	e	n/a
397.339	0.114	794678	keystroke	l	n/a
397.454	0.091	794908	keystroke	e	n/a
397.682	0.135	795364	keystroke	c	n/a
397.818	0.113	795636	keystroke	t	n/a
397.954	0.068	795908	keystroke	e	n/a
398.125	0.091	796250	keystroke	d	n/a
398.265	0.1135	796530	keystroke	Key.space	n/a
398.6465	0.09	797293	keystroke	d	n/a
398.861	0.089	797722	keystroke	e	n/a
398.98	0.116	797960	keystroke	l	n/a
399.6665	0.181	799333	keystroke	a	n/a
400.0775	0.114	800155	keystroke	w	n/a
400.2555	0.181	800511	keystroke	a	n/a
400.5165	0.093	801033	keystroke	r	n/a
400.7055	0.112	801411	keystroke	e	n/a
401.053	0.113	802106	keystroke	Key.enter	n/a
401.1715	10.0675	802343	prompt	n/a	release cyprus harris although\n
402.05	0.114	804100	keystroke	r	n/a
402.2565	0.09	804513	keystroke	e	n/a
402.3835	0.137	804767	keystroke	l	n/a
402.4725	0.094	804945	keystroke	e	n/a
402.6805	0.224	805361	keystroke	a	n/a
402.8595	0.113	805719	keystroke	s	n/a
403.0745	0.091	806149	keystroke	e	n/a
403.2425	0.0915	806485	keystroke	Key.space	n/a
403.844	0.159	807688	keystroke	c	n/a
404.106	0.092	808212	keystroke	y	n/a
404.335	0.135	808670	keystroke	p	n/a
404.6165	0.164	809233	keystroke	r	n/a
405.5825	0.115	811165	keystroke	u	n/a
405.72	0.158	811440	keystroke	s	n/a
405.879	0.088	811758	keystroke	Key.space	n/a
407.4515	0.112	814903	keystroke	h	n/a
407.6495	0.179	815299	keystroke	a	n/a
408.106	0.091	816212	keystroke	r	n/a
408.2995	0.113	816599	keystroke	r	n/a
408.4335	0.1125	816867	keystroke	i	n/a
408.62	0.115	817240	keystroke	s	n/a
408.7815	0.111	817563	keystroke	Key.space	n/a
409.267	0.1595	818534	keystroke	a	n/a
409.4275	0.089	818855	keystroke	l	n/a
409.8145	0.134	819629	keystroke	t	n/a
409.9695	0.112	819939	keystroke	h	n/a
410.243	0.137	820486	keystroke	o	n/a
410.448	0.09	820896	keystroke	u	n/a
410.6525	0.091	821305	keystroke	g	n/a
410.8235	0.09	821647	keystroke	h	n/a
411.1225	0.115	822245	keystroke	Key.enter	n/a
411.2435	7.6395	822487	prompt	n/a	excited replication retain develops\n
412.1035	0.135	824207	keystroke	e	n/a
412.4245	0.159	824849	keystroke	x	n/a
412.6835	0.091	825367	keystroke	c	n/a
412.7965	0.115	825593	keystroke	i	n/a
413.0155	0.11	826031	keystroke	t	n/a
413.1465	0.094	826293	keystroke	e	n/a
413.3255	0.092	826651	keystroke	d	n/a
413.4715	0.112	826943	keystroke	Key.space	n/a
413.834	0.091	827668	keystroke	r	n/a
414.017	0.1135	828034	keystroke	e	n/a
414.1535	0.095	828307	keystroke	p	n/a
414.3535	0.112	828707	keystroke	l	n/a
414.4955	0.068	828991	keystroke	i	n/a
414.5645	0.1345	829129	keystroke	c	n/a
414.794	0.159	829588	keystroke	a	n/a
414.93	0.089	829860	keystroke	t	n/a
415.169	0.1125	830338	keystroke	i	n/a
415.319	0.136	830638	keystroke	o	n/a
415.558	0.136	831116	keystroke	n	n/a
415.732	0.115	831464	keystroke	Key.space	n/a
416.252	0.091	832504	keystroke	r	n/a
416.44	0.1125	832880	keystroke	e	n/a
416.5735	0.114	833147	keystroke	t	n/a
416.7465	0.115	833493	keystroke	a	n/a
416.8375	0.114	833675	keystroke	i	n/a
417.0205	0.158	834041	keystroke	n	n/a
417.2015	0.136	834403	keystroke	Key.space	n/a
417.4085	0.09	834817	keystroke	d	n/a
417.6145	0.092	835229	keystroke	e	n/a
417.7795	0.09	835559	keystroke	v	n/a
417.9175	0.092	835835	keystroke	e	n/a
418.0765	0.114	836153	keystroke	l	n/a
418.2885	0.092	836577	keystroke	o	n/a
418.4505	0.089	836901	keystroke	p	n/a
418.5895	0.113	837179	keystroke	s	n/a
418.7465	0.135	837493	keystroke	Key.enter	n/a
418.886	7.9835	837772	prompt	n/a	developing quite conditions modems\n
419.6065	0.114	839213	keystroke	d	n/a
419.8265	0.0915	839653	keystroke	e	n/a
419.9675	0.09	839935	keystroke	v	n/a
420.135	0.067	840270	keystroke	e	n/a
420.3205	0.115	840641	keystroke	l	n/a
420.5395	0.069	841079	keystroke	o	n/a
420.6915	0.094	841383	keystroke	p	n/a
420.8865	0.092	841773	keystroke	i	n/a
421.114	0.09	842228	keystroke	n	n/a
421.3045	0.115	842609	keystroke	g	n/a
421.5025	0.09	843005	keystroke	Key.space	n/a
422.0575	0.18	844115	keystroke	q	n/a
422.3115	0.1115	844623	keystroke	u	n/a
422.487	0.091	844974	keystroke	i	n/a
422.672	0.112	845344	keystroke	t	n/a
422.829	0.1115	845658	keystroke	e	n/a
423.0165	0.09	846033	keystroke	Key.space	n/a
423.451	0.156	846902	keystroke	c	n/a
423.608	0.114	847216	keystroke	o	n/a
423.833	0.0945	847666	keystroke	n	n/a
423.949	0.1125	847898	keystroke	d	n/a
424.1345	0.116	848269	keystroke	i	n/a
424.3935	0.136	848787	keystroke	t	n/a
424.6195	0.1795	849239	keystroke	i	n/a
424.886	0.091	849772	keystroke	o	n/a
425.106	0.091	850212	keystroke	n	n/a
425.242	0.1615	850484	keystroke	s	n/a
425.357	0.1125	850714	keystroke	Key.space	n/a
425.5705	0.113	851141	keystroke	m	n/a
425.7905	0.069	851581	keystroke	o	n/a
425.9965	0.092	851993	keystroke	d	n/a
426.1955	0.0905	852391	keystroke	e	n/a
426.309	0.091	852618	keystroke	m	n/a
426.448	0.134	852896	keystroke	s	n/a
426.604	0.113	853208	keystroke	Key.space	n/a
426.8005	0.068	853601	keystroke	Key.enter	n/a
426.8775	9.567	853755	prompt	n/a	attributes meets launch seeks\n
427.692	0.16	855384	keystroke	a	n/a
428.069	0.14	856138	keystroke	t	n/a
428.289	0.112	856578	keystroke	t	n/a
428.498	0.134	856996	keystroke	r	n/a
429.116	0.09	858232	keystroke	i	n/a
429.35	0.093	858700	keystroke	b	n/a
429.521	0.115	859042	keystroke	u	n/a
429.691	0.091	859382	keystroke	t	n/a
429.805	0.114	859610	keystroke	e	n/a
430.011	0.159	860022	keystroke	s	n/a
430.171	0.089	860342	keystroke	Key.space	n/a
430.381	0.113	860762	keystroke	m	n/a
430.5255	0.092	861051	keystroke	e	n/a
430.6835	0.114	861367	keystroke	e	n/a
430.8285	0.092	861657	keystroke	t	n/a
431.0095	0.089	862019	keystroke	s	n/a
431.21	0.092	862420	keystroke	Key.space	n/a
431.472	0.1365	862944	keystroke	l	n/a
431.6475	0.136	863295	keystroke	a	n/a
431.7605	0.09	863521	keystroke	u	n/a
431.9945	0.114	863989	keystroke	n	n/a
432.0635	0.157	864127	keystroke	c	n/a
432.2425	0.112	864485	keystroke	g	n/a
432.4305	0.091	864861	keystroke	Key.space	n/a
432.9535	0.092	865907	keystroke	Key.backspace	n/a
433.1205	0.093	866241	keystroke	Key.backspace	n/a
433.3245	0.046	866649	keystroke	Key.backspace	n/a
434.067	0.1595	868134	keystroke	c	n/a
434.2485	0.113	868497	keystroke	h	n/a
434.3835	0.116	868767	keystroke	Key.space	n/a
434.8105	0.137	869621	keystroke	s	n/a
435.0885	0.093	870177	keystroke	e	n/a
435.2625	0.135	870525	keystroke	e	n/a
435.3985	0.112	870797	keystroke	k	n/a
435.8015	0.112	871603	keystroke	s	n/a
435.9775	0.136	871955	keystroke	Key.space	n/a
436.3295	0.1135	872659	keystroke	Key.enter	n/a
436.449	7.249	872898	prompt	n/a	matrix overview tower settlement\n
437.142	0.115	874284	keystroke	m	n/a
437.279	0.114	874558	keystroke	a	n/a
437.517	0.135	875034	keystroke	t	n/a
437.757	0.092	875514	keystroke	r	n/a
437.871	0.07	875742	keystroke	i	n/a
438.001	0.182	876002	keystroke	c	n/a
438.204	0.115	876408	keystroke	Key.space	n/a
438.472	0.1335	876944	keystroke	o	n/a
438.771	0.1125	877542	keystroke	v	n/a
438.9065	0.092	877813	keystroke	e	n/a
439.0935	0.113	878187	keystroke	r	n/a
439.2275	0.091	878455	keystroke	v	n/a
439.4095	0.156	878819	keystroke	i	n/a
439.5665	0.114	879133	keystroke	e	n/a
439.7625	0.115	879525	keystroke	w	n/a
439.9005	0.136	879801	keystroke	Key.space	n/a
440.4035	0.114	880807	keystroke	t	n/a
440.6395	0.135	881279	keystroke	o	n/a
440.7975	0.09	881595	keystroke	w	n/a
440.9895	0.114	881979	keystroke	e	n/a
441.1905	0.093	882381	keystroke	r	n/a
441.3235	0.113	882647	keystroke	Key.space	n/a
441.6235	0.1585	883247	keystroke	s	n/a
441.8895	0.111	883779	keystroke	e	n/a
442.2425	0.113	884485	keystroke	t	n/a
442.471	0.069	884942	keystroke	t	n/a
442.562	0.091	885124	keystroke	l	n/a
442.698	0.116	885396	keystroke	e	n/a
442.864	0.114	885728	keystroke	m	n/a
443	0.091	886000	keystroke	e	n/a
443.092	0.112	886184	keystroke	n	n/a
443.307	0.113	886614	keystroke	t	n/a
443.65	0.046	887300	keystroke	Key.enter	n/a
443.702	14.326	887404	prompt	n/a	toolbox situation volumes stunning\n
444.639	0.156	889278	keystroke	t	n/a
444.876	0.11	889752	keystroke	o	n/a
445.02	0.136	890040	keystroke	o	n/a
445.5845	0.069	891169	keystroke	o	n/a
446.172	0.115	892344	keystroke	Key.backspace	n/a
446.195	0.07	892390	keystroke	\	n/a
446.8025	0.182	893605	keystroke	Key.backspace	n/a
447.6625	0.178	895325	keystroke	Key.backspace	n/a
448.4255	0.113	896851	keystroke	o	n/a
448.6505	0.091	897301	keystroke	l	n/a
448.9975	0.159	897995	keystroke	b	n/a
449.3095	0.157	898619	keystroke	o	n/a
449.9035	0.1345	899807	keystroke	x	n/a
450.096	0.138	900192	keystroke	Key.space	n/a
450.575	0.158	901150	keystroke	s	n/a
451.399	0.134	902798	keystroke	i	n/a
451.68	0.112	903360	keystroke	t	n/a
451.9055	0.134	903811	keystroke	u	n/a
452.0705	0.181	904141	keystroke	a	n/a
452.2055	0.137	904411	keystroke	t	n/a
452.6755	0.155	905351	keystroke	i	n/a
452.9295	0.115	905859	keystroke	o	n/a
453.1705	0.136	906341	keystroke	n	n/a
453.3465	0.136	906693	keystroke	Key.space	n/a
453.8885	0.045	907777	keystroke	c	n/a
454.3295	0.135	908659	keystroke	Key.backspace	n/a
454.4855	0.1135	908971	keystroke	v	n/a
455.035	0.091	910070	keystroke	o	n/a
455.227	0.091	910454	keystroke	l	n/a
455.367	0.0925	910734	keystroke	u	n/a
455.5915	0.114	911183	keystroke	m	n/a
455.6805	0.136	911361	keystroke	e	n/a
455.9185	0.137	911837	keystroke	s	n/a
456.033	0.112	912066	keystroke	Key.space	n/a
456.4075	0.112	912815	keystroke	s	n/a
456.5585	0.094	913117	keystroke	t	n/a
456.7755	0.114	913551	keystroke	u	n/a
457.0225	0.09	914045	keystroke	n	n/a
457.1935	0.139	914387	keystroke	n	n/a
457.3085	0.137	914617	keystroke	i	n/a
457.4665	0.137	914933	keystroke	n	n/a
457.6945	0.091	915389	keystroke	g	n/a
457.912	0.115	915824	keystroke	Key.enter	n/a
458.032	6.733	916064	prompt	n/a	calendar foul scanned kathy\n
458.794	0.114	917588	keystroke	c	n/a
459.141	0.158	918282	keystroke	a	n/a
459.321	0.091	918642	keystroke	l	n/a
459.4845	0.114	918969	keystroke	e	n/a
459.6205	0.091	919241	keystroke	n	n/a
459.7365	0.091	919473	keystroke	d	n/a
459.9165	0.113	919833	keystroke	e	n/a
460.109	0.091	920218	keystroke	r	n/a
460.255	0.112	920510	keystroke	Key.space	n/a
460.615	0.09	921230	keystroke	f	n/a
460.764	0.14	921528	keystroke	o	n/a
460.927	0.089	921854	keystroke	u	n/a
461.111	0.136	922222	keystroke	l	n/a
461.318	0.112	922636	keystroke	Key.space	n/a
461.8735	0.183	923747	keystroke	s	n/a
462.2075	0.137	924415	keystroke	c	n/a
462.4355	0.183	924871	keystroke	a	n/a
462.5945	0.069	925189	keystroke	n	n/a
462.7185	0.114	925437	keystroke	n	n/a
462.8095	0.113	925619	keystroke	e	n/a
463.0025	0.136	926005	keystroke	d	n/a
463.1385	0.112	926277	keystroke	Key.space	n/a
463.717	0.138	927434	keystroke	k	n/a
463.896	0.181	927792	keystroke	a	n/a
464.078	0.1145	928156	keystroke	t	n/a
464.2845	0.091	928569	keystroke	h	n/a
464.4435	0.0915	928887	keystroke	y	n/a
464.6735	0.089	929347	keystroke	Key.enter	n/a
464.7715	10.1985	929543	prompt	n/a	genre documentary impacts gazette\n
465.6735	0.092	931347	keystroke	h	n/a
466.1435	0.157	932287	keystroke	Key.backspace	n/a
466.5285	0.16	933057	keystroke	g	n/a
466.7295	0.138	933459	keystroke	e	n/a
466.8435	0.1165	933687	keystroke	n	n/a
466.993	0.09	933986	keystroke	r	n/a
467.172	0.092	934344	keystroke	e	n/a
467.328	0.155	934656	keystroke	Key.space	n/a
467.894	0.133	935788	keystroke	d	n/a
468.049	0.14	936098	keystroke	o	n/a
468.212	0.138	936424	keystroke	c	n/a
468.281	0.092	936562	keystroke	u	n/a
468.537	0.091	937074	keystroke	m	n/a
468.658	0.114	937316	keystroke	e	n/a
468.749	0.113	937498	keystroke	n	n/a
469.138	0.1125	938276	keystroke	t	n/a
469.3105	0.136	938621	keystroke	a	n/a
469.5085	0.1345	939017	keystroke	r	n/a
469.6195	0.1165	939239	keystroke	y	n/a
469.774	0.114	939548	keystroke	Key.space	n/a
470.851	0.091	941702	keystroke	i	n/a
471.0825	0.114	942165	keystroke	m	n/a
471.2985	0.114	942597	keystroke	p	n/a
471.4355	0.116	942871	keystroke	a	n/a
471.6585	0.16	943317	keystroke	c	n/a
471.7945	0.1595	943589	keystroke	t	n/a
472.0765	0.1795	944153	keystroke	s	n/a
472.289	0.156	944578	keystroke	Key.space	n/a
473.082	0.09	946164	keystroke	g	n/a
473.203	0.204	946406	keystroke	a	n/a
473.63	0.1825	947260	keystroke	z	n/a
474.0085	0.139	948017	keystroke	e	n/a
474.2655	0.091	948531	keystroke	t	n/a
474.4875	0.112	948975	keystroke	t	n/a
474.6485	0.155	949297	keystroke	e	n/a
474.8565	0.111	949713	keystroke	Key.enter	n/a
474.975	8.7745	949950	prompt	n/a	ivory pierre pressed hiking\n
475.9035	0.09	951807	keystroke	i	n/a
476.2405	0.113	952481	keystroke	v	n/a
476.3965	0.114	952793	keystroke	o	n/a
476.7005	0.135	953401	keystroke	r	n/a
476.8565	0.1135	953713	keystroke	y	n/a
477.015	0.09	954030	keystroke	Key.space	n/a
477.61	0.134	955220	keystroke	p	n/a
478.076	0.112	956152	keystroke	i	n/a
478.6775	0.202	957355	keystroke	e	n/a
479.2715	0.114	958543	keystroke	r	n/a
479.447	0.113	958894	keystroke	r	n/a
479.651	0.1135	959302	keystroke	e	n/a
479.8055	0.137	959611	keystroke	Key.space	n/a
480.0135	0.113	960027	keystroke	p	n/a
480.1715	0.089	960343	keystroke	r	n/a
480.348	0.114	960696	keystroke	e	n/a
480.603	0.093	961206	keystroke	s	n/a
480.779	0.114	961558	keystroke	s	n/a
480.972	0.113	961944	keystroke	e	n/a
481.182	0.159	962364	keystroke	d	n/a
481.295	0.113	962590	keystroke	Key.space	n/a
482.2705	0.113	964541	keystroke	h	n/a
482.484	0.116	964968	keystroke	i	n/a
482.711	0.1135	965422	keystroke	k	n/a
482.8595	0.134	965719	keystroke	i	n/a
483.1035	0.113	966207	keystroke	n	n/a
483.3275	0.114	966655	keystroke	g	n/a
483.6125	0.1355	967225	keystroke	Key.enter	n/a
483.7525	10.828	967505	prompt	n/a	determining complex chief vary\n
484.427	0.1345	968854	keystroke	d	n/a
484.669	0.136	969338	keystroke	e	n/a
484.861	0.1345	969722	keystroke	t	n/a
485.0175	0.068	970035	keystroke	e	n/a
485.202	0.069	970404	keystroke	r	n/a
485.3295	0.1795	970659	keystroke	m	n/a
485.533	0.158	971066	keystroke	i	n/a
485.7825	0.134	971565	keystroke	n	n/a
486.0935	0.158	972187	keystroke	g	n/a
486.644	0.16	973288	keystroke	Key.backspace	n/a
487.313	0.1145	974626	keystroke	i	n/a
487.5535	0.089	975107	keystroke	n	n/a
487.7395	0.111	975479	keystroke	g	n/a
487.8735	0.114	975747	keystroke	Key.space	n/a
488.556	0.16	977112	keystroke	c	n/a
488.717	0.133	977434	keystroke	o	n/a
488.9475	0.1145	977895	keystroke	m	n/a
489.148	0.116	978296	keystroke	p	n/a
489.405	0.113	978810	keystroke	l	n/a
489.615	0.137	979230	keystroke	e	n/a
489.885	0.176	979770	keystroke	x	n/a
490.116	0.089	980232	keystroke	Key.space	n/a
490.72	0.137	981440	keystroke	c	n/a
490.899	0.114	981798	keystroke	h	n/a
491.079	0.134	982158	keystroke	i	n/a
491.235	0.114	982470	keystroke	e	n/a
491.469	0.0905	982938	keystroke	f	n/a
491.6355	0.09	983271	keystroke	Key.space	n/a
492.205	0.09	984410	keystroke	v	n/a
492.354	0.161	984708	keystroke	a	n/a
492.9835	0.09	985967	keystroke	r	n/a
493.1525	0.091	986305	keystroke	r	n/a
493.6625	0.137	987325	keystroke	Key.backspace	n/a
494.2315	0.095	988463	keystroke	y	n/a
494.4455	0.133	988891	keystroke	Key.enter	n/a
494.586	7.6975	989172	prompt	n/a	spare measures incoming divide\n
495.2765	0.268	990553	keystroke	s	n/a
495.5215	0.1595	991043	keystroke	p	n/a
495.681	0.112	991362	keystroke	a	n/a
495.8675	0.0925	991735	keystroke	r	n/a
496.044	0.138	992088	keystroke	e	n/a
496.213	0.1345	992426	keystroke	Key.space	n/a
496.4995	0.157	992999	keystroke	m	n/a
496.7635	0.112	993527	keystroke	e	n/a
496.9365	0.18	993873	keystroke	a	n/a
497.0705	0.137	994141	keystroke	s	n/a
497.2375	0.093	994475	keystroke	u	n/a
497.3535	0.091	994707	keystroke	r	n/a
497.5215	0.111	995043	keystroke	e	n/a
497.7255	0.1365	995451	keystroke	s	n/a
497.885	0.138	995770	keystroke	Key.space	n/a
498.2715	0.116	996543	keystroke	i	n/a
498.5315	0.113	997063	keystroke	n	n/a
498.6665	0.1375	997333	keystroke	c	n/a
498.853	0.157	997706	keystroke	o	n/a
499.138	0.157	998276	keystroke	m	n/a
499.4	0.091	998800	keystroke	i	n/a
499.587	0.1145	999174	keystroke	n	n/a
499.8615	0.091	999723	keystroke	g	n/a
500.0175	0.114	1000035	keystroke	Key.space	n/a
501.1165	0.135	1002233	keystroke	d	n/a
501.3175	0.115	1002635	keystroke	i	n/a
501.5665	0.114	1003133	keystroke	v	n/a
501.7025	0.091	1003405	keystroke	i	n/a
501.8155	0.113	1003631	keystroke	d	n/a
502.022	0.113	1004044	keystroke	e	n/a
502.168	0.1135	1004336	keystroke	Key.enter	n/a
502.287	6.536	1004574	prompt	n/a	compare tackle phases reed\n
502.9295	0.203	1005859	keystroke	c	n/a
503.1715	0.134	1006343	keystroke	o	n/a
503.4145	0.136	1006829	keystroke	m	n/a
503.5975	0.1375	1007195	keystroke	p	n/a
503.736	0.112	1007472	keystroke	a	n/a
503.957	0.114	1007914	keystroke	r	n/a
504.15	0.09	1008300	keystroke	e	n/a
504.288	0.134	1008576	keystroke	Key.space	n/a
504.788	0.112	1009576	keystroke	t	n/a
505.078	0.138	1010156	keystroke	a	n/a
505.319	0.1335	1010638	keystroke	c	n/a
505.4735	0.114	1010947	keystroke	k	n/a
505.6095	0.136	1011219	keystroke	l	n/a
505.7935	0.134	1011587	keystroke	e	n/a
506.0015	0.134	1012003	keystroke	Key.space	n/a
506.2905	0.138	1012581	keystroke	p	n/a
506.6045	0.135	1013209	keystroke	h	n/a
506.8515	0.113	1013703	keystroke	r	n/a
507.0815	0.208	1014163	keystroke	a	n/a
507.2645	0.139	1014529	keystroke	s	n/a
507.5025	0.09	1015005	keystroke	e	n/a
507.6965	0.113	1015393	keystroke	s	n/a
507.8325	0.092	1015665	keystroke	Key.space	n/a
508.0165	0.091	1016033	keystroke	r	n/a
508.1965	0.113	1016393	keystroke	e	n/a
508.3735	0.095	1016747	keystroke	e	n/a
508.5605	0.114	1017121	keystroke	d	n/a
508.7305	0.091	1017461	keystroke	Key.enter	n/a
508.827	8.5505	1017654	prompt	n/a	interpreted arms councils flow\n
509.676	0.093	1019352	keystroke	i	n/a
509.883	0.115	1019766	keystroke	n	n/a
510.16	0.115	1020320	keystroke	t	n/a
510.297	0.091	1020594	keystroke	e	n/a
510.489	0.071	1020978	keystroke	r	n/a
510.675	0.114	1021350	keystroke	e	n/a
510.877	0.137	1021754	keystroke	p	n/a
511.1035	0.091	1022207	keystroke	r	n/a
511.2885	0.111	1022577	keystroke	e	n/a
512.027	0.157	1024054	keystroke	t	n/a
512.207	0.113	1024414	keystroke	e	n/a
512.401	0.114	1024802	keystroke	d	n/a
512.537	0.114	1025074	keystroke	Key.space	n/a
512.673	0.134	1025346	keystroke	a	n/a
512.887	0.112	1025774	keystroke	r	n/a
513.043	0.137	1026086	keystroke	m	n/a
513.156	0.138	1026312	keystroke	e	n/a
513.396	0.184	1026792	keystroke	d	n/a
513.832	0.092	1027664	keystroke	Key.backspace	n/a
514.05	0.068	1028100	keystroke	Key.backspace	n/a
514.191	0.1375	1028382	keystroke	s	n/a
514.3295	0.088	1028659	keystroke	Key.space	n/a
515.0345	0.137	1030069	keystroke	c	n/a
515.2205	0.136	1030441	keystroke	o	n/a
515.427	0.095	1030854	keystroke	u	n/a
515.625	0.093	1031250	keystroke	n	n/a
515.694	0.135	1031388	keystroke	c	n/a
515.876	0.1345	1031752	keystroke	i	n/a
516.0965	0.114	1032193	keystroke	l	n/a
516.2405	0.1345	1032481	keystroke	s	n/a
516.376	0.112	1032752	keystroke	Key.space	n/a
516.667	0.114	1033334	keystroke	f	n/a
516.804	0.09	1033608	keystroke	l	n/a
516.98	0.1115	1033960	keystroke	o	n/a
517.0925	0.112	1034185	keystroke	w	n/a
517.2875	0.089	1034575	keystroke	Key.enter	n/a
517.3825	8.3535	1034765	prompt	n/a	icon donate suggesting generating\n
518.2025	0.116	1036405	keystroke	i	n/a
518.3995	0.139	1036799	keystroke	c	n/a
518.5395	0.112	1037079	keystroke	o	n/a
518.771	0.136	1037542	keystroke	n	n/a
518.96	0.091	1037920	keystroke	Key.space	n/a
519.45	0.136	1038900	keystroke	d	n/a
519.587	0.112	1039174	keystroke	o	n/a
519.808	0.138	1039616	keystroke	n	n/a
519.968	0.1585	1039936	keystroke	a	n/a
520.1275	0.111	1040255	keystroke	t	n/a
520.304	0.136	1040608	keystroke	e	n/a
520.5195	0.091	1041039	keystroke	Key.space	n/a
521.1635	0.16	1042327	keystroke	s	n/a
521.3705	0.092	1042741	keystroke	u	n/a
521.6665	0.0925	1043333	keystroke	g	n/a
521.811	0.115	1043622	keystroke	g	n/a
521.967	0.1345	1043934	keystroke	e	n/a
522.2255	0.134	1044451	keystroke	s	n/a
522.3605	0.089	1044721	keystroke	t	n/a
522.5585	0.14	1045117	keystroke	i	n/a
522.8305	0.09	1045661	keystroke	n	n/a
523.0085	0.113	1046017	keystroke	g	n/a
523.1965	0.069	1046393	keystroke	Key.space	n/a
523.5545	0.114	1047109	keystroke	g	n/a
523.7375	0.135	1047475	keystroke	e	n/a
523.8275	0.09	1047655	keystroke	n	n/a
523.9805	0.069	1047961	keystroke	e	n/a
524.1285	0.091	1048257	keystroke	r	n/a
524.3375	0.16	1048675	keystroke	a	n/a
524.4295	0.115	1048859	keystroke	t	n/a
524.759	0.157	1049518	keystroke	i	n/a
525.013	0.114	1050026	keystroke	n	n/a
525.192	0.089	1050384	keystroke	g	n/a
525.339	0.138	1050678	keystroke	Key.space	n/a
525.623	0.111	1051246	keystroke	Key.enter	n/a
525.7395	8.152	1051479	prompt	n/a	sterling shorts aircraft roads\n
526.42	0.18	1052840	keystroke	s	n/a
526.657	0.112	1053314	keystroke	t	n/a
526.799	0.1125	1053598	keystroke	e	n/a
526.9975	0.091	1053995	keystroke	r	n/a
527.1625	0.158	1054325	keystroke	l	n/a
527.3425	0.158	1054685	keystroke	i	n/a
527.6385	0.114	1055277	keystroke	n	n/a
527.8385	0.091	1055677	keystroke	g	n/a
528.0135	0.091	1056027	keystroke	Key.space	n/a
528.5545	0.159	1057109	keystroke	s	n/a
528.7445	0.092	1057489	keystroke	h	n/a
528.9265	0.1125	1057853	keystroke	o	n/a
529.1185	0.134	1058237	keystroke	r	n/a
529.3445	0.1125	1058689	keystroke	t	n/a
529.643	0.157	1059286	keystroke	s	n/a
529.838	0.069	1059676	keystroke	Key.space	n/a
530.008	0.182	1060016	keystroke	a	n/a
530.212	0.09	1060424	keystroke	i	n/a
530.372	0.135	1060744	keystroke	r	n/a
531.121	0.1335	1062242	keystroke	c	n/a
531.4035	0.1595	1062807	keystroke	r	n/a
531.71	0.156	1063420	keystroke	a	n/a
531.867	0.113	1063734	keystroke	f	n/a
532.117	0.136	1064234	keystroke	t	n/a
532.3565	0.114	1064713	keystroke	Key.space	n/a
532.8815	0.114	1065763	keystroke	r	n/a
533.0175	0.136	1066035	keystroke	o	n/a
533.2215	0.112	1066443	keystroke	a	n/a
533.4085	0.156	1066817	keystroke	d	n/a
533.6395	0.137	1067279	keystroke	s	n/a
533.7785	0.111	1067557	keystroke	Key.enter	n/a
533.894	13.0615	1067788	prompt	n/a	deliver configuration surgeons beginning\n
534.7075	0.157	1069415	keystroke	d	n/a
534.9895	0.136	1069979	keystroke	e	n/a
535.154	0.137	1070308	keystroke	l	n/a
535.312	0.092	1070624	keystroke	i	n/a
535.5815	0.114	1071163	keystroke	v	n/a
535.7175	0.091	1071435	keystroke	e	n/a
535.8955	0.091	1071791	keystroke	r	n/a
536.0365	0.095	1072073	keystroke	Key.space	n/a
536.395	0.1795	1072790	keystroke	c	n/a
536.5515	0.111	1073103	keystroke	o	n/a
536.7975	0.114	1073595	keystroke	n	n/a
537.54	0.113	1075080	keystroke	f	n/a
537.711	0.1575	1075422	keystroke	i	n/a
538.518	0.111	1077036	keystroke	g	n/a
538.722	0.116	1077444	keystroke	u	n/a
539.051	0.1565	1078102	keystroke	r	n/a
539.3955	0.138	1078791	keystroke	a	n/a
539.6815	0.1815	1079363	keystroke	t	n/a
539.885	0.137	1079770	keystroke	i	n/a
540.023	0.09	1080046	keystroke	o	n/a
540.21	0.1835	1080420	keystroke	n	n/a
540.4165	0.113	1080833	keystroke	Key.space	n/a
540.9725	0.158	1081945	keystroke	s	n/a
541.1915	0.09	1082383	keystroke	u	n/a
541.3665	0.114	1082733	keystroke	r	n/a
541.6075	0.114	1083215	keystroke	g	n/a
542.9145	0.157	1085829	keystroke	e	n/a
543.1325	0.139	1086265	keystroke	o	n/a
543.397	0.136	1086794	keystroke	n	n/a
543.685	0.224	1087370	keystroke	s	n/a
544.114	0.115	1088228	keystroke	Key.space	n/a
544.834	0.135	1089668	keystroke	b	n/a
544.993	0.114	1089986	keystroke	e	n/a
545.129	0.112	1090258	keystroke	g	n/a
545.429	0.1555	1090858	keystroke	i	n/a
545.7255	0.092	1091451	keystroke	n	n/a
545.8675	0.112	1091735	keystroke	n	n/a
546.0345	0.113	1092069	keystroke	i	n/a
546.2055	0.1115	1092411	keystroke	n	n/a
546.423	0.091	1092846	keystroke	g	n/a
546.84	0.114	1093680	keystroke	Key.enter	n/a
546.9585	8.1755	1093917	prompt	n/a	abortion bizarre penny cells\n
547.799	0.177	1095598	keystroke	a	n/a
548.122	0.114	1096244	keystroke	b	n/a
548.3285	0.135	1096657	keystroke	o	n/a
548.5565	0.113	1097113	keystroke	r	n/a
548.7815	0.137	1097563	keystroke	t	n/a
548.8945	0.138	1097789	keystroke	i	n/a
549.0545	0.115	1098109	keystroke	o	n/a
549.3165	0.134	1098633	keystroke	n	n/a
549.72	0.1375	1099440	keystroke	Key.space	n/a
550.167	0.1115	1100334	keystroke	b	n/a
550.5905	0.09	1101181	keystroke	i	n/a
551.0155	0.154	1102031	keystroke	z	n/a
551.2295	0.136	1102459	keystroke	z	n/a
551.498	0.203	1102996	keystroke	a	n/a
551.801	0.112	1103602	keystroke	r	n/a
552.011	0.092	1104022	keystroke	e	n/a
552.193	0.133	1104386	keystroke	Key.space	n/a
552.379	0.114	1104758	keystroke	p	n/a
552.494	0.113	1104988	keystroke	e	n/a
552.739	0.0925	1105478	keystroke	n	n/a
552.8905	0.112	1105781	keystroke	n	n/a
553.1065	0.091	1106213	keystroke	y	n/a
553.2515	0.091	1106503	keystroke	Key.space	n/a
553.926	0.133	1107852	keystroke	c	n/a
554.169	0.1145	1108338	keystroke	e	n/a
554.3065	0.113	1108613	keystroke	l	n/a
554.4865	0.135	1108973	keystroke	l	n/a
554.6425	0.16	1109285	keystroke	s	n/a
554.9965	0.136	1109993	keystroke	Key.enter	n/a
555.137	12.1815	1110274	prompt	n/a	disk connector marketing elevation\n
556.157	0.134	1112314	keystroke	d	n/a
556.312	0.091	1112624	keystroke	i	n/a
556.424	0.136	1112848	keystroke	s	n/a
556.622	0.112	1113244	keystroke	k	n/a
557.1965	0.1365	1114393	keystroke	Key.space	n/a
557.5785	0.158	1115157	keystroke	c	n/a
557.7365	0.092	1115473	keystroke	o	n/a
557.942	0.0675	1115884	keystroke	n	n/a
558.0575	0.114	1116115	keystroke	n	n/a
558.1475	0.1145	1116295	keystroke	e	n/a
558.351	0.16	1116702	keystroke	c	n/a
558.464	0.069	1116928	keystroke	t	n/a
558.652	0.136	1117304	keystroke	o	n/a
558.811	0.136	1117622	keystroke	r	n/a
559.014	0.089	1118028	keystroke	Key.space	n/a
559.6095	0.159	1119219	keystroke	m	n/a
559.7215	0.136	1119443	keystroke	a	n/a
559.9375	0.114	1119875	keystroke	r	n/a
560.0745	0.114	1120149	keystroke	k	n/a
560.2095	0.138	1120419	keystroke	e	n/a
560.4095	0.069	1120819	keystroke	t	n/a
560.4115	0.023	1120823	keystroke	y	n/a
560.6315	0.114	1121263	keystroke	i	n/a
560.8435	0.113	1121687	keystroke	n	n/a
561.052	0.091	1122104	keystroke	g	n/a
561.435	0.0895	1122870	keystroke	Key.backspace	n/a
561.6175	0.092	1123235	keystroke	Key.backspace	n/a
561.8045	0.157	1123609	keystroke	Key.backspace	n/a
562.418	0.112	1124836	keystroke	Key.backspace	n/a
562.439	0.069	1124878	keystroke	\	n/a
562.787	0.112	1125574	keystroke	i	n/a
563.046	0.0915	1126092	keystroke	n	n/a
563.393	0.137	1126786	keystroke	Key.backspace	n/a
563.606	0.113	1127212	keystroke	Key.backspace	n/a
563.928	0.111	1127856	keystroke	Key.backspace	n/a
564.4635	0.092	1128927	keystroke	i	n/a
564.7125	0.092	1129425	keystroke	n	n/a
564.8835	0.135	1129767	keystroke	g	n/a
565.0675	0.115	1130135	keystroke	Key.space	n/a
565.3955	0.155	1130791	keystroke	e	n/a
565.5515	0.113	1131103	keystroke	l	n/a
565.6665	0.132	1131333	keystroke	e	n/a
565.9135	0.135	1131827	keystroke	v	n/a
566.0785	0.181	1132157	keystroke	a	n/a
566.2605	0.1105	1132521	keystroke	t	n/a
566.4925	0.137	1132985	keystroke	i	n/a
566.6515	0.112	1133303	keystroke	o	n/a
566.8525	0.091	1133705	keystroke	n	n/a
567.2025	0.1145	1134405	keystroke	Key.enter	n/a
567.323	86.633	1134646	prompt	n/a	klein moves intro despite\n
642.8365	0.09	1285673	keystroke	k	n/a
643.0145	0.136	1286029	keystroke	l	n/a
643.1875	0.114	1286375	keystroke	i	n/a
643.4025	0.117	1286805	keystroke	e	n/a
643.5665	0.136	1287133	keystroke	n	n/a
643.7415	0.112	1287483	keystroke	Key.space	n/a
644.1805	0.1355	1288361	keystroke	m	n/a
644.414	0.0695	1288828	keystroke	p	n/a
644.416	0.0695	1288832	keystroke	o	n/a
644.636	0.116	1289272	keystroke	b	n/a
646.63	0.093	1293260	keystroke	Key.backspace	n/a
646.808	0.0685	1293616	keystroke	Key.backspace	n/a
646.9505	0.069	1293901	keystroke	Key.backspace	n/a
647.1035	0.07	1294207	keystroke	Key.backspace	n/a
647.2605	0.069	1294521	keystroke	Key.backspace	n/a
647.4045	0.072	1294809	keystroke	Key.backspace	n/a
647.5575	0.092	1295115	keystroke	Key.backspace	n/a
647.8345	0.11	1295669	keystroke	Key.backspace	n/a
648.0935	0.09	1296187	keystroke	e	n/a
648.4835	0.09	1296967	keystroke	i	n/a
648.7225	0.137	1297445	keystroke	n	n/a
648.889	0.091	1297778	keystroke	Key.space	n/a
649.062	0.115	1298124	keystroke	m	n/a
649.369	0.112	1298738	keystroke	o	n/a
649.6575	0.113	1299315	keystroke	v	n/a
649.8085	0.091	1299617	keystroke	e	n/a
650.0135	0.1365	1300027	keystroke	s	n/a
650.151	0.135	1300302	keystroke	Key.space	n/a
650.927	0.1365	1301854	keystroke	i	n/a
651.1895	0.138	1302379	keystroke	n	n/a
651.3805	0.112	1302761	keystroke	t	n/a
651.6025	0.112	1303205	keystroke	r	n/a
651.7495	0.139	1303499	keystroke	o	n/a
651.9455	0.113	1303891	keystroke	Key.space	n/a
652.4495	0.1145	1304899	keystroke	d	n/a
652.649	0.088	1305298	keystroke	e	n/a
652.832	0.137	1305664	keystroke	s	n/a
652.922	0.113	1305844	keystroke	p	n/a
653.114	0.09	1306228	keystroke	i	n/a
653.441	0.135	1306882	keystroke	t	n/a
653.608	0.1145	1307216	keystroke	e	n/a
653.8305	0.115	1307661	keystroke	Key.enter	n/a
653.9635	6.2645	1307927	prompt	n/a	ecuador front exchange swim\n
654.961	0.1155	1309922	keystroke	e	n/a
655.9305	0.178	1311861	keystroke	c	n/a
656.282	0.089	1312564	keystroke	u	n/a
656.4235	0.135	1312847	keystroke	a	n/a
656.6495	0.113	1313299	keystroke	d	n/a
656.8095	0.158	1313619	keystroke	o	n/a
656.9895	0.116	1313979	keystroke	r	n/a
657.137	0.114	1314274	keystroke	Key.space	n/a
657.384	0.114	1314768	keystroke	f	n/a
657.6015	0.089	1315203	keystroke	r	n/a
657.6915	0.1115	1315383	keystroke	o	n/a
657.901	0.113	1315802	keystroke	n	n/a
658.129	0.159	1316258	keystroke	t	n/a
658.373	0.113	1316746	keystroke	Key.space	n/a
658.653	0.137	1317306	keystroke	e	n/a
658.943	0.139	1317886	keystroke	x	n/a
659.175	0.115	1318350	keystroke	c	n/a
659.312	0.115	1318624	keystroke	h	n/a
659.487	0.182	1318974	keystroke	a	n/a
659.598	0.094	1319196	keystroke	n	n/a
659.7705	0.111	1319541	keystroke	g	n/a
659.9035	0.07	1319807	keystroke	e	n/a
660.0915	0.135	1320183	keystroke	Key.enter	n/a
660.2315	12.3365	1320463	prompt	n/a	generators playlist porcelain controversial\n
661.291	0.114	1322582	keystroke	g	n/a
661.436	0.135	1322872	keystroke	e	n/a
661.572	0.109	1323144	keystroke	n	n/a
661.683	0.068	1323366	keystroke	e	n/a
661.848	0.067	1323696	keystroke	r	n/a
662.037	0.157	1324074	keystroke	a	n/a
662.126	0.091	1324252	keystroke	t	n/a
662.363	0.113	1324726	keystroke	o	n/a
662.477	0.089	1324954	keystroke	r	n/a
662.724	0.136	1325448	keystroke	s	n/a
662.882	0.068	1325764	keystroke	Key.space	n/a
662.983	0.135	1325966	keystroke	p	n/a
663.193	0.137	1326386	keystroke	l	n/a
663.331	0.1125	1326662	keystroke	a	n/a
663.7315	0.07	1327463	keystroke	y	n/a
664.2355	0.158	1328471	keystroke	l	n/a
664.3945	0.09	1328789	keystroke	i	n/a
664.5365	0.1385	1329073	keystroke	s	n/a
664.652	0.113	1329304	keystroke	t	n/a
664.867	0.111	1329734	keystroke	Key.space	n/a
665.268	0.1575	1330536	keystroke	p	n/a
665.4685	0.139	1330937	keystroke	r	n/a
665.6435	0.138	1331287	keystroke	o	n/a
666.25	0.0925	1332500	keystroke	Key.backspace	n/a
666.4325	0.068	1332865	keystroke	Key.backspace	n/a
666.5605	0.116	1333121	keystroke	o	n/a
666.6995	0.09	1333399	keystroke	r	n/a
667.849	0.137	1335698	keystroke	c	n/a
668.808	0.137	1337616	keystroke	e	n/a
668.991	0.157	1337982	keystroke	l	n/a
669.286	0.161	1338572	keystroke	a	n/a
669.401	0.068	1338802	keystroke	i	n/a
669.6305	0.113	1339261	keystroke	n	n/a
669.796	0.091	1339592	keystroke	Key.space	n/a
670.2265	0.135	1340453	keystroke	c	n/a
670.3625	0.114	1340725	keystroke	o	n/a
670.5725	0.093	1341145	keystroke	n	n/a
670.6875	0.111	1341375	keystroke	t	n/a
670.9015	0.09	1341803	keystroke	r	n/a
670.9925	0.111	1341985	keystroke	o	n/a
671.2135	0.135	1342427	keystroke	v	n/a
671.3255	0.1145	1342651	keystroke	e	n/a
671.513	0.0725	1343026	keystroke	r	n/a
671.7565	0.137	1343513	keystroke	s	n/a
671.9375	0.158	1343875	keystroke	i	n/a
672.1245	0.182	1344249	keystroke	a	n/a
672.2605	0.1125	1344521	keystroke	l	n/a
672.4545	0.1115	1344909	keystroke	Key.enter	n/a
672.5715	13.2785	1345143	prompt	n/a	exhibition accredited catholic significance\n
673.4345	0.1615	1346869	keystroke	e	n/a
673.76	0.204	1347520	keystroke	x	n/a
674.1445	0.226	1348289	keystroke	h	n/a
675.2805	0.114	1350561	keystroke	i	n/a
675.548	0.115	1351096	keystroke	b	n/a
675.758	0.093	1351516	keystroke	i	n/a
676.007	0.114	1352014	keystroke	t	n/a
676.3065	0.135	1352613	keystroke	i	n/a
676.4715	0.134	1352943	keystroke	o	n/a
676.7175	0.135	1353435	keystroke	n	n/a
676.8525	0.11	1353705	keystroke	Key.space	n/a
677.2425	0.157	1354485	keystroke	a	n/a
677.5765	0.137	1355153	keystroke	c	n/a
677.7715	0.135	1355543	keystroke	c	n/a
678.219	0.09	1356438	keystroke	r	n/a
678.407	0.092	1356814	keystroke	e	n/a
678.652	0.114	1357304	keystroke	d	n/a
678.889	0.113	1357778	keystroke	i	n/a
679.142	0.112	1358284	keystroke	t	n/a
679.287	0.092	1358574	keystroke	e	n/a
679.481	0.094	1358962	keystroke	d	n/a
679.622	0.092	1359244	keystroke	Key.space	n/a
680.035	0.093	1360070	keystroke	c	n/a
680.292	0.18	1360584	keystroke	a	n/a
680.473	0.155	1360946	keystroke	t	n/a
680.754	0.115	1361508	keystroke	h	n/a
681.0155	0.181	1362031	keystroke	l	n/a
681.1975	0.09	1362395	keystroke	o	n/a
681.7145	0.136	1363429	keystroke	Key.backspace	n/a
682.4755	0.112	1364951	keystroke	i	n/a
682.6445	0.178	1365289	keystroke	c	n/a
682.8865	0.136	1365773	keystroke	Key.space	n/a
683.339	0.16	1366678	keystroke	s	n/a
683.5465	0.1115	1367093	keystroke	i	n/a
683.8145	0.093	1367629	keystroke	g	n/a
684.029	0.0905	1368058	keystroke	n	n/a
684.176	0.09	1368352	keystroke	i	n/a
684.45	0.116	1368900	keystroke	f	n/a
684.567	0.065	1369134	keystroke	i	n/a
684.6985	0.115	1369397	keystroke	c	n/a
684.9565	0.183	1369913	keystroke	a	n/a
685.1155	0.091	1370231	keystroke	n	n/a
685.3515	0.115	1370703	keystroke	c	n/a
685.6035	0.093	1371207	keystroke	e	n/a
685.7575	0.0905	1371515	keystroke	Key.enter	n/a
685.865	9.231	1371730	prompt	n/a	cultural kurt dirty point\n
686.6695	0.137	1373339	keystroke	c	n/a
686.8735	0.115	1373747	keystroke	u	n/a
687.239	0.137	1374478	keystroke	l	n/a
687.685	0.1555	1375370	keystroke	t	n/a
687.8935	0.114	1375787	keystroke	u	n/a
688.0295	0.137	1376059	keystroke	r	n/a
688.392	0.206	1376784	keystroke	a	n/a
688.627	0.137	1377254	keystroke	l	n/a
688.816	0.111	1377632	keystroke	Key.space	n/a
689.559	0.182	1379118	keystroke	k	n/a
689.8835	0.092	1379767	keystroke	u	n/a
690.1395	0.139	1380279	keystroke	r	n/a
690.4805	0.159	1380961	keystroke	t	n/a
690.7415	0.1135	1381483	keystroke	Key.space	n/a
691.1825	0.137	1382365	keystroke	d	n/a
691.3425	0.113	1382685	keystroke	i	n/a
691.5865	0.16	1383173	keystroke	r	n/a
691.971	0.158	1383942	keystroke	t	n/a
692.262	0.1115	1384524	keystroke	y	n/a
692.4345	0.138	1384869	keystroke	Key.space	n/a
692.6645	0.202	1385329	keystroke	p	n/a
692.8885	0.134	1385777	keystroke	o	n/a
693.0775	0.11	1386155	keystroke	i	n/a
693.286	0.114	1386572	keystroke	n	n/a
693.5515	0.091	1387103	keystroke	t	n/a
694.8725	0.222	1389745	keystroke	Key.enter	n/a
695.1	12.6075	1390200	prompt	n/a	begin something's aluminum cursor\n
696.0335	0.135	1392067	keystroke	b	n/a
696.1695	0.1115	1392339	keystroke	e	n/a
696.339	0.113	1392678	keystroke	g	n/a
696.532	0.135	1393064	keystroke	i	n/a
696.731	0.137	1393462	keystroke	n	n/a
697.068	0.1375	1394136	keystroke	Key.space	n/a
697.3225	0.1605	1394645	keystroke	s	n/a
697.588	0.111	1395176	keystroke	o	n/a
697.786	0.1355	1395572	keystroke	m	n/a
697.974	0.0675	1395948	keystroke	e	n/a
698.136	0.1155	1396272	keystroke	t	n/a
698.3765	0.091	1396753	keystroke	h	n/a
698.5225	0.114	1397045	keystroke	i	n/a
698.7295	0.09	1397459	keystroke	n	n/a
698.9745	0.09	1397949	keystroke	g	n/a
699.5035	0.1365	1399007	keystroke	Key.backspace	n/a
700.612	0.067	1401224	keystroke	g	n/a
701.162	0.089	1402324	keystroke	'	n/a
701.307	0.1575	1402614	keystroke	s	n/a
701.5115	0.114	1403023	keystroke	Key.space	n/a
702.297	0.16	1404594	keystroke	a	n/a
702.411	0.115	1404822	keystroke	l	n/a
702.6	0.091	1405200	keystroke	u	n/a
702.8515	0.112	1405703	keystroke	m	n/a
703.038	0.094	1406076	keystroke	i	n/a
703.2165	0.092	1406433	keystroke	n	n/a
703.7495	0.113	1407499	keystroke	y	n/a
703.9995	0.1815	1407999	keystroke	m	n/a
704.4175	0.132	1408835	keystroke	Key.backspace	n/a
704.6325	0.091	1409265	keystroke	Key.backspace	n/a
705.412	0.113	1410824	keystroke	u	n/a
705.655	0.136	1411310	keystroke	m	n/a
705.822	0.09	1411644	keystroke	Key.space	n/a
706.281	0.205	1412562	keystroke	c	n/a
706.542	0.115	1413084	keystroke	u	n/a
706.762	0.113	1413524	keystroke	r	n/a
707.006	0.136	1414012	keystroke	s	n/a
707.164	0.069	1414328	keystroke	o	n/a
707.329	0.09	1414658	keystroke	r	n/a
707.57	0.135	1415140	keystroke	Key.enter	n/a
707.7135	9.758	1415427	prompt	n/a	estate annoying munich reseller\n
708.542	0.133	1417084	keystroke	e	n/a
708.777	0.135	1417554	keystroke	s	n/a
708.9875	0.113	1417975	keystroke	t	n/a
709.102	0.158	1418204	keystroke	a	n/a
709.236	0.117	1418472	keystroke	t	n/a
709.3285	0.138	1418657	keystroke	e	n/a
709.533	0.1345	1419066	keystroke	Key.space	n/a
709.8645	0.137	1419729	keystroke	a	n/a
710.0935	0.07	1420187	keystroke	n	n/a
710.2275	0.115	1420455	keystroke	n	n/a
710.4565	0.136	1420913	keystroke	o	n/a
710.7245	0.0695	1421449	keystroke	y	n/a
710.9225	0.112	1421845	keystroke	i	n/a
711.1535	0.092	1422307	keystroke	m	n/a
711.7135	0.136	1423427	keystroke	Key.backspace	n/a
712.36	0.137	1424720	keystroke	n	n/a
712.596	0.115	1425192	keystroke	g	n/a
712.78	0.092	1425560	keystroke	Key.space	n/a
713.7555	0.111	1427511	keystroke	m	n/a
713.9555	0.112	1427911	keystroke	u	n/a
714.2035	0.114	1428407	keystroke	n	n/a
714.3805	0.111	1428761	keystroke	i	n/a
714.9195	0.205	1429839	keystroke	c	n/a
715.1465	0.137	1430293	keystroke	h	n/a
715.935	0.091	1431870	keystroke	Key.space	n/a
716.184	0.091	1432368	keystroke	r	n/a
716.354	0.068	1432708	keystroke	e	n/a
716.56	0.092	1433120	keystroke	s	n/a
716.759	0.116	1433518	keystroke	e	n/a
716.897	0.093	1433794	keystroke	l	n/a
717.045	0.09	1434090	keystroke	l	n/a
717.068	0.113	1434136	keystroke	e	n/a
717.287	0.068	1434574	keystroke	r	n/a
717.377	0.093	1434754	keystroke	Key.enter	n/a
717.4755	8.055	1434951	prompt	n/a	colony offense pursuit by\n
718.454	0.09	1436908	keystroke	v	n/a
718.802	0.137	1437604	keystroke	Key.backspace	n/a
718.99	0.115	1437980	keystroke	c	n/a
719.128	0.156	1438256	keystroke	o	n/a
719.395	0.112	1438790	keystroke	l	n/a
719.571	0.092	1439142	keystroke	o	n/a
720.537	0.114	1441074	keystroke	n	n/a
720.82	0.113	1441640	keystroke	y	n/a
721.012	0.092	1442024	keystroke	Key.space	n/a
721.536	0.133	1443072	keystroke	o	n/a
721.757	0.07	1443514	keystroke	f	n/a
721.9115	0.0935	1443823	keystroke	f	n/a
722.115	0.113	1444230	keystroke	e	n/a
722.295	0.112	1444590	keystroke	n	n/a
722.36	0.161	1444720	keystroke	s	n/a
722.62	0.1135	1445240	keystroke	e	n/a
722.7845	0.094	1445569	keystroke	Key.space	n/a
723.0695	0.155	1446139	keystroke	p	n/a
723.358	0.092	1446716	keystroke	u	n/a
723.582	0.114	1447164	keystroke	r	n/a
723.847	0.14	1447694	keystroke	s	n/a
723.963	0.136	1447926	keystroke	u	n/a
724.165	0.091	1448330	keystroke	i	n/a
724.427	0.136	1448854	keystroke	t	n/a
724.652	0.113	1449304	keystroke	Key.space	n/a
724.88	0.111	1449760	keystroke	b	n/a
725.105	0.136	1450210	keystroke	y	n/a
725.416	0.1125	1450832	keystroke	Key.enter	n/a
725.5395	6.9795	1451079	prompt	n/a	chancellor excel penn seating\n
726.342	0.137	1452684	keystroke	c	n/a
726.512	0.114	1453024	keystroke	h	n/a
726.693	0.158	1453386	keystroke	a	n/a
726.852	0.087	1453704	keystroke	n	n/a
726.997	0.158	1453994	keystroke	c	n/a
727.262	0.0895	1454524	keystroke	e	n/a
727.3725	0.114	1454745	keystroke	l	n/a
727.5535	0.091	1455107	keystroke	l	n/a
727.7155	0.112	1455431	keystroke	o	n/a
727.8495	0.09	1455699	keystroke	r	n/a
728.0005	0.094	1456001	keystroke	Key.space	n/a
728.4445	0.113	1456889	keystroke	e	n/a
728.7225	0.157	1457445	keystroke	x	n/a
728.9875	0.07	1457975	keystroke	c	n/a
729.1765	0.092	1458353	keystroke	e	n/a
729.8065	0.135	1459613	keystroke	l	n/a
729.9725	0.112	1459945	keystroke	Key.space	n/a
730.181	0.116	1460362	keystroke	p	n/a
730.326	0.114	1460652	keystroke	e	n/a
730.57	0.07	1461140	keystroke	n	n/a
730.731	0.159	1461462	keystroke	n	n/a
730.911	0.091	1461822	keystroke	Key.space	n/a
731.05	0.14	1462100	keystroke	s	n/a
731.299	0.091	1462598	keystroke	e	n/a
731.486	0.1145	1462972	keystroke	a	n/a
731.6935	0.113	1463387	keystroke	t	n/a
731.8285	0.094	1463657	keystroke	i	n/a
732.0015	0.116	1464003	keystroke	n	n/a
732.2065	0.0905	1464413	keystroke	g	n/a
732.427	0.09	1464854	keystroke	Key.enter	n/a
732.528	9.2725	1465056	prompt	n/a	relevance myth surgeon mileage\n
733.346	0.089	1466692	keystroke	r	n/a
733.522	0.0915	1467044	keystroke	e	n/a
733.6505	0.111	1467301	keystroke	l	n/a
733.815	0.092	1467630	keystroke	e	n/a
734.602	0.114	1469204	keystroke	v	n/a
734.739	0.134	1469478	keystroke	a	n/a
734.895	0.067	1469790	keystroke	n	n/a
735.028	0.136	1470056	keystroke	c	n/a
735.278	0.093	1470556	keystroke	e	n/a
735.426	0.112	1470852	keystroke	Key.space	n/a
735.694	0.138	1471388	keystroke	m	n/a
735.999	0.112	1471998	keystroke	u	n/a
736.351	0.113	1472702	keystroke	t	n/a
736.529	0.112	1473058	keystroke	h	n/a
736.675	0.09	1473350	keystroke	Key.space	n/a
737.135	0.16	1474270	keystroke	s	n/a
737.336	0.094	1474672	keystroke	u	n/a
737.509	0.136	1475018	keystroke	r	n/a
737.71	0.09	1475420	keystroke	g	n/a
737.86	0.112	1475720	keystroke	e	n/a
738.255	0.1135	1476510	keystroke	o	n/a
738.954	0.179	1477908	keystroke	Key.backspace	n/a
739.515	0.1355	1479030	keystroke	o	n/a
739.8105	0.183	1479621	keystroke	n	n/a
740.0145	0.114	1480029	keystroke	Key.space	n/a
740.2315	0.113	1480463	keystroke	m	n/a
740.4545	0.135	1480909	keystroke	i	n/a
740.6975	0.115	1481395	keystroke	l	n/a
740.8135	0.1125	1481627	keystroke	e	n/a
740.9875	0.179	1481975	keystroke	a	n/a
741.142	0.0915	1482284	keystroke	g	n/a
741.2695	0.09	1482539	keystroke	e	n/a
741.7075	0.091	1483415	keystroke	Key.enter	n/a
741.808	9.396	1483616	prompt	n/a	courtesy beats grew illinois\n
742.579	0.135	1485158	keystroke	c	n/a
742.714	0.114	1485428	keystroke	o	n/a
742.901	0.091	1485802	keystroke	u	n/a
743.105	0.159	1486210	keystroke	r	n/a
743.57	0.16	1487140	keystroke	t	n/a
743.896	0.1365	1487792	keystroke	e	n/a
744.1455	0.113	1488291	keystroke	s	n/a
744.2805	0.114	1488561	keystroke	y	n/a
744.4375	0.114	1488875	keystroke	Key.space	n/a
744.6565	0.09	1489313	keystroke	b	n/a
744.7475	0.112	1489495	keystroke	e	n/a
744.8975	0.159	1489795	keystroke	a	n/a
745.1775	0.113	1490355	keystroke	t	n/a
745.4665	0.157	1490933	keystroke	s	n/a
745.6455	0.111	1491291	keystroke	Key.space	n/a
746.0745	0.093	1492149	keystroke	h	n/a
746.498	0.138	1492996	keystroke	Key.backspace	n/a
746.799	0.115	1493598	keystroke	g	n/a
746.97	0.112	1493940	keystroke	r	n/a
747.166	0.113	1494332	keystroke	e	n/a
747.393	0.137	1494786	keystroke	w	n/a
747.618	0.069	1495236	keystroke	Key.space	n/a
748.2685	0.111	1496537	keystroke	i	n/a
748.5175	0.068	1497035	keystroke	l	n/a
748.6545	0.135	1497309	keystroke	l	n/a
750.0385	0.158	1500077	keystroke	n	n/a
750.3185	0.1805	1500637	keystroke	o	n/a
750.501	0.111	1501002	keystroke	i	n/a
750.821	0.158	1501642	keystroke	s	n/a
751.025	0.178	1502050	keystroke	Key.enter	n/a
751.211	9.6605	1502422	prompt	n/a	certification brother crystal tracked\n
752.0185	0.112	1504037	keystroke	c	n/a
752.2475	0.112	1504495	keystroke	e	n/a
752.4455	0.116	1504891	keystroke	r	n/a
752.6785	0.112	1505357	keystroke	t	n/a
752.8225	0.1115	1505645	keystroke	i	n/a
752.972	0.136	1505944	keystroke	f	n/a
753.063	0.112	1506126	keystroke	i	n/a
753.2575	0.0895	1506515	keystroke	c	n/a
754.3055	0.136	1508611	keystroke	a	n/a
754.4895	0.113	1508979	keystroke	t	n/a
754.8325	0.158	1509665	keystroke	i	n/a
755.0335	0.112	1510067	keystroke	o	n/a
755.2605	0.136	1510521	keystroke	n	n/a
755.4175	0.135	1510835	keystroke	Key.space	n/a
755.8005	0.113	1511601	keystroke	b	n/a
755.9915	0.114	1511983	keystroke	r	n/a
756.1585	0.135	1512317	keystroke	o	n/a
756.4455	0.112	1512891	keystroke	t	n/a
756.664	0.113	1513328	keystroke	h	n/a
756.799	0.091	1513598	keystroke	e	n/a
756.977	0.092	1513954	keystroke	r	n/a
757.105	0.0925	1514210	keystroke	Key.space	n/a
757.3695	0.1595	1514739	keystroke	c	n/a
757.676	0.134	1515352	keystroke	r	n/a
757.832	0.091	1515664	keystroke	y	n/a
758.236	0.114	1516472	keystroke	s	n/a
758.495	0.134	1516990	keystroke	t	n/a
758.8235	0.16	1517647	keystroke	a	n/a
759.016	0.1605	1518032	keystroke	l	n/a
759.1995	0.114	1518399	keystroke	Key.space	n/a
759.5105	0.112	1519021	keystroke	t	n/a
759.7215	0.091	1519443	keystroke	r	n/a
759.9535	0.134	1519907	keystroke	a	n/a
760.1905	0.139	1520381	keystroke	c	n/a
760.3505	0.092	1520701	keystroke	k	n/a
760.4645	0.068	1520929	keystroke	e	n/a
760.6255	0.0935	1521251	keystroke	d	n/a
760.779	0.0915	1521558	keystroke	Key.enter	n/a
760.8745	7.1095	1521749	prompt	n/a	mumbai green spencer mistress\n
761.6455	0.111	1523291	keystroke	m	n/a
762.0255	0.137	1524051	keystroke	u	n/a
762.265	0.1145	1524530	keystroke	m	n/a
762.5215	0.155	1525043	keystroke	b	n/a
762.753	0.181	1525506	keystroke	a	n/a
763.1315	0.136	1526263	keystroke	i	n/a
763.327	0.1155	1526654	keystroke	Key.space	n/a
763.7425	0.092	1527485	keystroke	g	n/a
763.8945	0.113	1527789	keystroke	r	n/a
764.1015	0.089	1528203	keystroke	e	n/a
764.2595	0.092	1528519	keystroke	e	n/a
764.3735	0.135	1528747	keystroke	n	n/a
764.5385	0.092	1529077	keystroke	Key.space	n/a
764.6775	0.139	1529355	keystroke	s	n/a
764.8175	0.111	1529635	keystroke	p	n/a
765.1115	0.133	1530223	keystroke	e	n/a
765.2455	0.091	1530491	keystroke	n	n/a
765.4105	0.112	1530821	keystroke	c	n/a
765.6415	0.09	1531283	keystroke	e	n/a
765.8345	0.093	1531669	keystroke	r	n/a
765.9885	0.091	1531977	keystroke	Key.space	n/a
766.2535	0.136	1532507	keystroke	m	n/a
766.4915	0.092	1532983	keystroke	i	n/a
766.6165	0.115	1533233	keystroke	s	n/a
766.901	0.112	1533802	keystroke	t	n/a
767.111	0.091	1534222	keystroke	r	n/a
767.303	0.094	1534606	keystroke	e	n/a
767.561	0.135	1535122	keystroke	s	n/a
767.734	0.138	1535468	keystroke	s	n/a
767.847	0.136	1535694	keystroke	Key.enter	n/a
767.987	10.9945	1535974	prompt	n/a	therapeutic japan feature invoice\n
768.9295	0.135	1537859	keystroke	t	n/a
769.1715	0.113	1538343	keystroke	h	n/a
769.7315	0.138	1539463	keystroke	e	n/a
769.9565	0.09	1539913	keystroke	r	n/a
770.2275	0.1565	1540455	keystroke	a	n/a
770.415	0.159	1540830	keystroke	p	n/a
771.667	0.16	1543334	keystroke	e	n/a
771.928	0.09	1543856	keystroke	u	n/a
772.392	0.1135	1544784	keystroke	t	n/a
772.6205	0.134	1545241	keystroke	i	n/a
772.8435	0.181	1545687	keystroke	c	n/a
773.0775	0.091	1546155	keystroke	Key.space	n/a
773.2845	0.158	1546569	keystroke	j	n/a
773.4835	0.158	1546967	keystroke	a	n/a
773.8545	0.157	1547709	keystroke	p	n/a
774.3295	0.159	1548659	keystroke	a	n/a
774.5755	0.185	1549151	keystroke	n	n/a
774.8155	0.136	1549631	keystroke	Key.space	n/a
775.532	0.092	1551064	keystroke	f	n/a
775.724	0.089	1551448	keystroke	e	n/a
775.945	0.138	1551890	keystroke	a	n/a
776.219	0.1155	1552438	keystroke	t	n/a
776.3845	0.091	1552769	keystroke	u	n/a
776.5565	0.133	1553113	keystroke	r	n/a
776.7815	0.133	1553563	keystroke	e	n/a
776.9525	0.115	1553905	keystroke	Key.space	n/a
777.2255	0.113	1554451	keystroke	i	n/a
777.5235	0.091	1555047	keystroke	n	n/a
778.097	0.112	1556194	keystroke	v	n/a
778.24	0.1365	1556480	keystroke	o	n/a
778.3775	0.112	1556755	keystroke	i	n/a
778.4655	0.114	1556931	keystroke	c	n/a
778.6945	0.09	1557389	keystroke	e	n/a
778.8415	0.138	1557683	keystroke	Key.enter	n/a
778.985	7.1665	1557970	prompt	n/a	gary cruises friday fluid\n
779.7845	0.025	1559569	keystroke	g	n/a
779.8545	0.136	1559709	keystroke	a	n/a
780.2245	0.136	1560449	keystroke	r	n/a
780.4275	0.1175	1560855	keystroke	y	n/a
780.9025	0.116	1561805	keystroke	Key.space	n/a
781.2525	0.16	1562505	keystroke	c	n/a
781.5285	0.115	1563057	keystroke	r	n/a
781.6445	0.089	1563289	keystroke	u	n/a
781.7925	0.116	1563585	keystroke	i	n/a
781.9095	0.114	1563819	keystroke	s	n/a
782.1415	0.068	1564283	keystroke	e	n/a
782.3255	0.137	1564651	keystroke	s	n/a
782.4845	0.068	1564969	keystroke	Key.space	n/a
782.6975	0.114	1565395	keystroke	f	n/a
782.9365	0.092	1565873	keystroke	r	n/a
783.0505	0.114	1566101	keystroke	i	n/a
783.1855	0.115	1566371	keystroke	d	n/a
783.4155	0.138	1566831	keystroke	a	n/a
783.5545	0.111	1567109	keystroke	y	n/a
783.6885	0.114	1567377	keystroke	Key.space	n/a
784.1195	0.135	1568239	keystroke	f	n/a
784.796	0.159	1569592	keystroke	l	n/a
785.518	0.114	1571036	keystroke	u	n/a
785.694	0.091	1571388	keystroke	i	n/a
785.858	0.138	1571716	keystroke	d	n/a
786.058	0.091	1572116	keystroke	Key.enter	n/a
786.1565	9.5005	1572313	prompt	n/a	connecting relatively spider patent\n
786.907	0.138	1573814	keystroke	c	n/a
787.068	0.089	1574136	keystroke	o	n/a
787.287	0.07	1574574	keystroke	n	n/a
787.4045	0.115	1574809	keystroke	n	n/a
787.4505	0.115	1574901	keystroke	e	n/a
788.0525	0.138	1576105	keystroke	c	n/a
788.2225	0.1135	1576445	keystroke	t	n/a
788.563	0.1575	1577126	keystroke	i	n/a
788.8365	0.115	1577673	keystroke	n	n/a
789.0215	0.114	1578043	keystroke	g	n/a
789.1955	0.068	1578391	keystroke	Key.space	n/a
789.349	0.067	1578698	keystroke	r	n/a
789.5205	0.116	1579041	keystroke	e	n/a
789.6585	0.114	1579317	keystroke	l	n/a
790.2465	0.1585	1580493	keystroke	a	n/a
790.631	0.136	1581262	keystroke	t	n/a
790.789	0.137	1581578	keystroke	i	n/a
791.045	0.135	1582090	keystroke	v	n/a
791.215	0.1345	1582430	keystroke	e	n/a
791.424	0.0925	1582848	keystroke	l	n/a
791.7185	0.115	1583437	keystroke	y	n/a
791.9195	0.113	1583839	keystroke	Key.space	n/a
792.6965	0.1605	1585393	keystroke	s	n/a
793.0855	0.228	1586171	keystroke	p	n/a
793.44	0.1165	1586880	keystroke	i	n/a
793.6125	0.067	1587225	keystroke	d	n/a
793.7965	0.069	1587593	keystroke	e	n/a
793.9785	0.087	1587957	keystroke	r	n/a
794.0885	0.135	1588177	keystroke	Key.space	n/a
794.331	0.112	1588662	keystroke	p	n/a
794.496	0.135	1588992	keystroke	a	n/a
794.739	0.114	1589478	keystroke	t	n/a
794.905	0.135	1589810	keystroke	e	n/a
795.041	0.111	1590082	keystroke	n	n/a
795.271	0.0925	1590542	keystroke	t	n/a
795.5635	0.092	1591127	keystroke	Key.enter	n/a
795.662	7.5545	1591324	prompt	n/a	turned saver converter trades\n
796.7375	0.138	1593475	keystroke	t	n/a
796.9135	0.113	1593827	keystroke	u	n/a
797.0485	0.135	1594097	keystroke	r	n/a
797.2195	0.0915	1594439	keystroke	n	n/a
797.312	0.1355	1594624	keystroke	e	n/a
797.5505	0.114	1595101	keystroke	d	n/a
797.7465	0.091	1595493	keystroke	Key.space	n/a
798.1355	0.137	1596271	keystroke	s	n/a
798.3625	0.158	1596725	keystroke	a	n/a
798.4735	0.115	1596947	keystroke	v	n/a
798.6115	0.09	1597223	keystroke	e	n/a
798.8005	0.091	1597601	keystroke	r	n/a
798.9415	0.092	1597883	keystroke	Key.space	n/a
799.1545	0.183	1598309	keystroke	c	n/a
799.3385	0.111	1598677	keystroke	o	n/a
799.5685	0.114	1599137	keystroke	n	n/a
800.5515	0.112	1601103	keystroke	v	n/a
800.7455	0.112	1601491	keystroke	e	n/a
800.972	0.091	1601944	keystroke	r	n/a
801.064	0.089	1602128	keystroke	t	n/a
801.198	0.092	1602396	keystroke	e	n/a
801.387	0.092	1602774	keystroke	r	n/a
801.5	0.113	1603000	keystroke	Key.space	n/a
801.84	0.095	1603680	keystroke	t	n/a
802.045	0.115	1604090	keystroke	r	n/a
802.2845	0.135	1604569	keystroke	a	n/a
802.5135	0.094	1605027	keystroke	d	n/a
802.7035	0.089	1605407	keystroke	e	n/a
802.9015	0.135	1605803	keystroke	s	n/a
803.1035	0.112	1606207	keystroke	Key.enter	n/a
803.2215	11.6945	1606443	prompt	n/a	camping requesting married healthcare\n
803.9995	0.157	1607999	keystroke	c	n/a
804.34	0.114	1608680	keystroke	a	n/a
804.455	0.135	1608910	keystroke	m	n/a
804.704	0.18	1609408	keystroke	p	n/a
804.939	0.112	1609878	keystroke	i	n/a
805.19	0.115	1610380	keystroke	n	n/a
805.433	0.115	1610866	keystroke	g	n/a
805.589	0.134	1611178	keystroke	Key.space	n/a
806.346	0.115	1612692	keystroke	r	n/a
806.551	0.089	1613102	keystroke	e	n/a
807.049	0.16	1614098	keystroke	q	n/a
807.364	0.092	1614728	keystroke	u	n/a
807.703	0.0685	1615406	keystroke	r	n/a
808.3305	0.136	1616661	keystroke	Key.backspace	n/a
808.6495	0.137	1617299	keystroke	e	n/a
808.8985	0.138	1617797	keystroke	s	n/a
809.079	0.1135	1618158	keystroke	t	n/a
809.3855	0.1345	1618771	keystroke	i	n/a
809.6265	0.0955	1619253	keystroke	n	n/a
809.804	0.114	1619608	keystroke	g	n/a
809.973	0.115	1619946	keystroke	Key.space	n/a
810.174	0.14	1620348	keystroke	m	n/a
810.29	0.136	1620580	keystroke	a	n/a
810.525	0.09	1621050	keystroke	r	n/a
810.684	0.09	1621368	keystroke	r	n/a
810.885	0.134	1621770	keystroke	e	n/a
811.733	0.137	1623466	keystroke	Key.backspace	n/a
811.975	0.091	1623950	keystroke	i	n/a
812.117	0.113	1624234	keystroke	e	n/a
812.3305	0.1365	1624661	keystroke	d	n/a
812.4885	0.091	1624977	keystroke	Key.space	n/a
812.8645	0.135	1625729	keystroke	h	n/a
813.0795	0.135	1626159	keystroke	e	n/a
