onset	duration	sample	value	key	prompt_text
4.589	12.4015	9178	prompt	n/a	the quick brown fox jumps over a lazy dog\n
6.8835	0.08	13767	keystroke_t	t	n/a
8.851	0.0965	17702	keystroke_h	h	n/a
8.9315	0.1035	17863	keystroke_e	e	n/a
9.0595	0.1515	18119	keystroke_Key.space	Key.space	n/a
10.083	0.1125	20166	keystroke_q	q	n/a
10.1795	0.0955	20359	keystroke_u	u	n/a
11.539	0.0885	23078	keystroke_i	i	n/a
11.6675	0.144	23335	keystroke_c	c	n/a
11.8035	0.103	23607	keystroke_k	k	n/a
11.9475	0.151	23895	keystroke_Key.space	Key.space	n/a
12.2435	0.088	24487	keystroke_b	b	n/a
12.595	0.192	25190	keystroke_r	r	n/a
12.7625	0.072	25525	keystroke_o	o	n/a
12.8195	0.1435	25639	keystroke_w	w	n/a
12.9475	0.096	25895	keystroke_n	n	n/a
13.0355	0.135	26071	keystroke_Key.space	Key.space	n/a
13.267	0.0805	26534	keystroke_f	f	n/a
13.3635	0.096	26727	keystroke_o	o	n/a
13.4985	0.137	26997	keystroke_x	x	n/a
13.5955	0.1275	27191	keystroke_Key.space	Key.space	n/a
13.7315	0.096	27463	keystroke_j	j	n/a
13.8595	0.096	27719	keystroke_u	u	n/a
14.0425	0.089	28085	keystroke_m	m	n/a
14.2275	0.1115	28455	keystroke_p	p	n/a
14.339	0.176	28678	keystroke_s	s	n/a
14.395	0.1685	28790	keystroke_Key.space	Key.space	n/a
14.5715	0.128	29143	keystroke_o	o	n/a
14.7475	0.0715	29495	keystroke_v	v	n/a
14.9235	0.1355	29847	keystroke_e	e	n/a
15.0035	0.16	30007	keystroke_r	r	n/a
15.091	0.1275	30182	keystroke_Key.space	Key.space	n/a
15.251	0.0885	30502	keystroke_a	a	n/a
15.3075	0.1275	30615	keystroke_Key.space	Key.space	n/a
15.483	0.096	30966	keystroke_l	l	n/a
15.6035	0.08	31207	keystroke_a	a	n/a
15.851	0.136	31702	keystroke_z	z	n/a
15.9475	0.112	31895	keystroke_y	y	n/a
16.0595	0.1435	32119	keystroke_Key.space	Key.space	n/a
16.3475	0.144	32695	keystroke_d	d	n/a
16.475	0.0965	32950	keystroke_o	o	n/a
16.667	0.112	33334	keystroke_g	g	n/a
16.915	0.072	33830	keystroke_Key.enter	Key.enter	n/a
16.9955	5.722	33991	prompt	n/a	cylinder eggs mars abuse\n
17.691	0.1205	35382	keystroke_c	c	n/a
17.891	0.0885	35782	keystroke_y	y	n/a
18.115	0.0725	36230	keystroke_l	l	n/a
18.259	0.0805	36518	keystroke_i	i	n/a
18.4355	0.128	36871	keystroke_n	n	n/a
18.515	0.12	37030	keystroke_d	d	n/a
18.6435	0.168	37287	keystroke_e	e	n/a
18.7715	0.136	37543	keystroke_r	r	n/a
18.891	0.1195	37782	keystroke_Key.space	Key.space	n/a
19.155	0.1045	38310	keystroke_e	e	n/a
19.3635	0.0635	38727	keystroke_g	g	n/a
19.5145	0.073	39029	keystroke_g	g	n/a
19.6195	0.16	39239	keystroke_s	s	n/a
19.7475	0.128	39495	keystroke_Key.space	Key.space	n/a
20.035	0.1445	40070	keystroke_a	a	n/a
20.1635	0.04	40327	keystroke_m	m	n/a
20.3875	0.0795	40775	keystroke_Key.backspace	Key.backspace	n/a
20.523	0.0805	41046	keystroke_Key.backspace	Key.backspace	n/a
20.7795	0.12	41559	keystroke_m	m	n/a
20.8435	0.112	41687	keystroke_a	a	n/a
20.9475	0.144	41895	keystroke_r	r	n/a
21.1155	0.1515	42231	keystroke_s	s	n/a
21.2505	0.1525	42501	keystroke_Key.space	Key.space	n/a
21.4595	0.096	42919	keystroke_b	b	n/a
21.8115	0.071	43623	keystroke_Key.backspace	Key.backspace	n/a
21.9715	0.112	43943	keystroke_a	a	n/a
22.107	0.12	44214	keystroke_b	b	n/a
22.2195	0.1115	44439	keystroke_u	u	n/a
22.323	0.112	44646	keystroke_s	s	n/a
22.3865	0.145	44773	keystroke_e	e	n/a
22.6195	0.095	45239	keystroke_Key.enter	Key.enter	n/a
22.7225	5.7625	45445	prompt	n/a	greeting wales accepted devil\n
23.443	0.0885	46886	keystroke_g	g	n/a
23.6915	0.1115	47383	keystroke_r	r	n/a
23.731	0.16	47462	keystroke_e	e	n/a
23.955	0.056	47910	keystroke_t	t	n/a
24.5465	0.08	49093	keystroke_Key.backspace	Key.backspace	n/a
24.6595	0.144	49319	keystroke_e	e	n/a
24.7555	0.112	49511	keystroke_t	t	n/a
24.8435	0.088	49687	keystroke_i	i	n/a
25.003	0.112	50006	keystroke_n	n	n/a
25.0915	0.1115	50183	keystroke_g	g	n/a
25.1635	0.136	50327	keystroke_s	s	n/a
25.251	0.168	50502	keystroke_Key.space	Key.space	n/a
25.531	0.1525	51062	keystroke_w	w	n/a
25.6515	0.1275	51303	keystroke_a	a	n/a
25.771	0.0965	51542	keystroke_l	l	n/a
25.899	0.1525	51798	keystroke_e	e	n/a
25.9795	0.184	51959	keystroke_s	s	n/a
26.1235	0.159	52247	keystroke_Key.space	Key.space	n/a
26.2995	0.064	52599	keystroke_a	a	n/a
26.4755	0.064	52951	keystroke_c	c	n/a
26.627	0.096	53254	keystroke_c	c	n/a
26.747	0.1685	53494	keystroke_e	e	n/a
26.867	0.088	53734	keystroke_p	p	n/a
26.9635	0.1195	53927	keystroke_t	t	n/a
27.083	0.1765	54166	keystroke_e	e	n/a
27.2595	0.0955	54519	keystroke_d	d	n/a
27.331	0.152	54662	keystroke_Key.space	Key.space	n/a
27.532	0.1035	55064	keystroke_d	d	n/a
27.6105	0.153	55221	keystroke_e	e	n/a
27.8435	0.0955	55687	keystroke_v	v	n/a
27.931	0.152	55862	keystroke_i	i	n/a
28.0195	0.1435	56039	keystroke_l	l	n/a
28.3625	0.12	56725	keystroke_Key.enter	Key.enter	n/a
28.4915	7.3055	56983	prompt	n/a	chinese rice convertible aquatic\n
29.3955	0.1275	58791	keystroke_c	c	n/a
29.4675	0.128	58935	keystroke_h	h	n/a
29.5555	0.111	59111	keystroke_i	i	n/a
29.731	0.1195	59462	keystroke_n	n	n/a
29.8195	0.151	59639	keystroke_e	e	n/a
29.947	0.1365	59894	keystroke_s	s	n/a
30.0905	0.08	60181	keystroke_e	e	n/a
30.4425	0.1685	60885	keystroke_Key.space	Key.space	n/a
30.691	0.096	61382	keystroke_r	r	n/a
30.7875	0.1195	61575	keystroke_i	i	n/a
30.987	0.1195	61974	keystroke_c	c	n/a
31.0755	0.1515	62151	keystroke_e	e	n/a
31.195	0.152	62390	keystroke_Key.space	Key.space	n/a
31.347	0.12	62694	keystroke_c	c	n/a
31.411	0.0955	62822	keystroke_o	o	n/a
31.5625	0.137	63125	keystroke_n	n	n/a
32.0345	0.089	64069	keystroke_v	v	n/a
32.1715	0.1915	64343	keystroke_e	e	n/a
32.2915	0.1435	64583	keystroke_r	r	n/a
32.547	0.1205	65094	keystroke_t	t	n/a
32.6105	0.0965	65221	keystroke_i	i	n/a
32.779	0.0955	65558	keystroke_b	b	n/a
32.9715	0.119	65943	keystroke_l	l	n/a
33.0745	0.1125	66149	keystroke_e	e	n/a
33.155	0.1765	66310	keystroke_Key.space	Key.space	n/a
33.923	0.0635	67846	keystroke_a	a	n/a
34.171	0.12	68342	keystroke_q	q	n/a
34.315	0.096	68630	keystroke_u	u	n/a
34.4905	0.097	68981	keystroke_a	a	n/a
34.7235	0.1035	69447	keystroke_t	t	n/a
35.2425	0.0805	70485	keystroke_i	i	n/a
35.3635	0.1035	70727	keystroke_c	c	n/a
35.707	0.088	71414	keystroke_Key.enter	Key.enter	n/a
35.802	5.091	71604	prompt	n/a	chronic fence higher hood\n
36.363	0.1125	72726	keystroke_c	c	n/a
36.467	0.088	72934	keystroke_h	h	n/a
36.7385	0.0965	73477	keystroke_r	r	n/a
36.8435	0.079	73687	keystroke_o	o	n/a
37.019	0.088	74038	keystroke_n	n	n/a
37.131	0.096	74262	keystroke_i	i	n/a
37.3155	0.1115	74631	keystroke_c	c	n/a
37.443	0.1595	74886	keystroke_Key.space	Key.space	n/a
37.7705	0.113	75541	keystroke_f	f	n/a
37.947	0.1595	75894	keystroke_e	e	n/a
38.0595	0.0955	76119	keystroke_n	n	n/a
38.2595	0.12	76519	keystroke_c	c	n/a
38.3865	0.1445	76773	keystroke_e	e	n/a
38.675	0.12	77350	keystroke_Key.space	Key.space	n/a
38.8905	0.1045	77781	keystroke_h	h	n/a
39.0425	0.129	78085	keystroke_i	i	n/a
39.1945	0.1365	78389	keystroke_g	g	n/a
39.307	0.104	78614	keystroke_h	h	n/a
39.451	0.12	78902	keystroke_e	e	n/a
39.5235	0.1435	79047	keystroke_r	r	n/a
39.851	0.136	79702	keystroke_Key.space	Key.space	n/a
39.987	0.104	79974	keystroke_h	h	n/a
40.195	0.0725	80390	keystroke_o	o	n/a
40.3635	0.096	80727	keystroke_o	o	n/a
40.451	0.0955	80902	keystroke_d	d	n/a
40.835	0.056	81670	keystroke_Key.enter	Key.enter	n/a
40.898	6.939	81796	prompt	n/a	hotels rebate diagnostic recipients\n
41.747	0.0965	83494	keystroke_h	h	n/a
41.851	0.112	83702	keystroke_o	o	n/a
41.9945	0.104	83989	keystroke_t	t	n/a
42.2435	0.112	84487	keystroke_e	e	n/a
42.3705	0.081	84741	keystroke_l	l	n/a
42.483	0.104	84966	keystroke_s	s	n/a
42.587	0.1355	85174	keystroke_Key.space	Key.space	n/a
42.8345	0.112	85669	keystroke_r	r	n/a
42.8985	0.16	85797	keystroke_e	e	n/a
43.0915	0.103	86183	keystroke_b	b	n/a
43.2265	0.1205	86453	keystroke_a	a	n/a
43.419	0.12	86838	keystroke_t	t	n/a
43.459	0.176	86918	keystroke_e	e	n/a
43.595	0.16	87190	keystroke_Key.space	Key.space	n/a
43.8675	0.056	87735	keystroke_d	d	n/a
43.915	0.08	87830	keystroke_i	i	n/a
44.043	0.104	88086	keystroke_a	a	n/a
44.2915	0.103	88583	keystroke_g	g	n/a
44.4265	0.08	88853	keystroke_n	n	n/a
44.875	0.104	89750	keystroke_o	o	n/a
45.035	0.096	90070	keystroke_s	s	n/a
45.115	0.12	90230	keystroke_t	t	n/a
45.251	0.0885	90502	keystroke_i	i	n/a
45.419	0.112	90838	keystroke_c	c	n/a
45.539	0.128	91078	keystroke_Key.space	Key.space	n/a
45.763	0.1525	91526	keystroke_r	r	n/a
46.1795	0.136	92359	keystroke_e	e	n/a
46.3955	0.144	92791	keystroke_c	c	n/a
46.4905	0.08	92981	keystroke_i	i	n/a
46.7625	0.1045	93525	keystroke_p	p	n/a
47.0355	0.095	94071	keystroke_i	i	n/a
47.147	0.1605	94294	keystroke_e	e	n/a
47.267	0.1365	94534	keystroke_n	n	n/a
47.3555	0.127	94711	keystroke_t	t	n/a
47.4755	0.1195	94951	keystroke_s	s	n/a
47.739	0.0955	95478	keystroke_Key.enter	Key.enter	n/a
47.8455	6.393	95691	prompt	n/a	bronze preventing obligations converter\n
48.5075	0.104	97015	keystroke_b	b	n/a
48.6425	0.12	97285	keystroke_r	r	n/a
48.7385	0.0965	97477	keystroke_o	o	n/a
48.8675	0.1115	97735	keystroke_n	n	n/a
49.0745	0.169	98149	keystroke_z	z	n/a
49.2185	0.128	98437	keystroke_e	e	n/a
49.3305	0.136	98661	keystroke_Key.space	Key.space	n/a
49.5385	0.112	99077	keystroke_p	p	n/a
49.659	0.12	99318	keystroke_r	r	n/a
49.739	0.1515	99478	keystroke_e	e	n/a
50.0105	0.129	100021	keystroke_v	v	n/a
50.1065	0.1285	100213	keystroke_e	e	n/a
50.235	0.1045	100470	keystroke_n	n	n/a
50.3625	0.104	100725	keystroke_t	t	n/a
50.4675	0.1195	100935	keystroke_i	i	n/a
50.587	0.128	101174	keystroke_n	n	n/a
50.699	0.104	101398	keystroke_g	g	n/a
50.747	0.152	101494	keystroke_Key.space	Key.space	n/a
50.947	0.096	101894	keystroke_o	o	n/a
51.1395	0.104	102279	keystroke_b	b	n/a
51.323	0.096	102646	keystroke_l	l	n/a
51.443	0.1205	102886	keystroke_i	i	n/a
51.579	0.12	103158	keystroke_g	g	n/a
51.819	0.1205	103638	keystroke_a	a	n/a
51.947	0.1125	103894	keystroke_t	t	n/a
52.027	0.1125	104054	keystroke_i	i	n/a
52.091	0.128	104182	keystroke_o	o	n/a
52.211	0.136	104422	keystroke_n	n	n/a
52.307	0.112	104614	keystroke_s	s	n/a
52.355	0.184	104710	keystroke_Key.space	Key.space	n/a
52.667	0.144	105334	keystroke_c	c	n/a
52.787	0.0725	105574	keystroke_o	o	n/a
52.9155	0.1355	105831	keystroke_n	n	n/a
53.123	0.096	106246	keystroke_v	v	n/a
53.267	0.184	106534	keystroke_e	e	n/a
53.387	0.12	106774	keystroke_r	r	n/a
53.611	0.128	107222	keystroke_t	t	n/a
53.803	0.12	107606	keystroke_e	e	n/a
53.891	0.112	107782	keystroke_r	r	n/a
54.147	0.088	108294	keystroke_Key.enter	Key.enter	n/a
54.2435	6.1055	108487	prompt	n/a	samba apollo spin planners\n
55.0505	0.0885	110101	keystroke_s	s	n/a
55.155	0.152	110310	keystroke_a	a	n/a
55.259	0.1115	110518	keystroke_m	m	n/a
55.507	0.128	111014	keystroke_b	b	n/a
55.643	0.0955	111286	keystroke_a	a	n/a
55.7865	0.1525	111573	keystroke_Key.space	Key.space	n/a
56.0025	0.1205	112005	keystroke_a	a	n/a
56.2745	0.0885	112549	keystroke_p	p	n/a
56.5465	0.0885	113093	keystroke_o	o	n/a
56.715	0.08	113430	keystroke_o	o	n/a
57.1625	0.0805	114325	keystroke_Key.backspace	Key.backspace	n/a
57.4265	0.0725	114853	keystroke_l	l	n/a
57.5865	0.048	115173	keystroke_l	l	n/a
57.7305	0.112	115461	keystroke_o	o	n/a
57.859	0.1595	115718	keystroke_Key.space	Key.space	n/a
58.0355	0.0955	116071	keystroke_s	s	n/a
58.1065	0.113	116213	keystroke_p	p	n/a
58.3315	0.079	116663	keystroke_i	i	n/a
58.507	0.119	117014	keystroke_n	n	n/a
58.634	0.1605	117268	keystroke_Key.space	Key.space	n/a
58.9065	0.072	117813	keystroke_p	p	n/a
59.1465	0.097	118293	keystroke_l	l	n/a
59.3465	0.128	118693	keystroke_a	a	n/a
59.515	0.0715	119030	keystroke_n	n	n/a
59.6585	0.104	119317	keystroke_n	n	n/a
59.843	0.152	119686	keystroke_e	e	n/a
59.899	0.1675	119798	keystroke_r	r	n/a
60.035	0.144	120070	keystroke_s	s	n/a
60.259	0.088	120518	keystroke_Key.enter	Key.enter	n/a
60.3535	5.267	120707	prompt	n/a	startup helps karen solid\n
61.235	0.1195	122470	keystroke_s	s	n/a
61.3465	0.136	122693	keystroke_t	t	n/a
61.5465	0.136	123093	keystroke_a	a	n/a
61.6505	0.1125	123301	keystroke_r	r	n/a
61.8755	0.095	123751	keystroke_t	t	n/a
62.2105	0.0885	124421	keystroke_u	u	n/a
62.427	0.0955	124854	keystroke_p	p	n/a
62.531	0.112	125062	keystroke_Key.space	Key.space	n/a
62.6905	0.1205	125381	keystroke_h	h	n/a
62.923	0.1035	125846	keystroke_e	e	n/a
63.0585	0.056	126117	keystroke_l	l	n/a
63.235	0.0955	126470	keystroke_p	p	n/a
63.315	0.128	126630	keystroke_s	s	n/a
63.4025	0.168	126805	keystroke_Key.space	Key.space	n/a
63.7635	0.1265	127527	keystroke_k	k	n/a
63.899	0.135	127798	keystroke_a	a	n/a
64.042	0.112	128084	keystroke_r	r	n/a
64.123	0.143	128246	keystroke_e	e	n/a
64.25	0.104	128500	keystroke_n	n	n/a
64.41	0.168	128820	keystroke_Key.space	Key.space	n/a
64.7225	0.072	129445	keystroke_s	s	n/a
64.7545	0.072	129509	keystroke_o	o	n/a
64.955	0.0635	129910	keystroke_l	l	n/a
65.1225	0.096	130245	keystroke_i	i	n/a
65.2345	0.112	130469	keystroke_d	d	n/a
65.5145	0.104	131029	keystroke_Key.enter	Key.enter	n/a
65.6255	6.955	131251	prompt	n/a	gambling bits level bathrooms\n
66.5865	0.088	133173	keystroke_g	g	n/a
66.7865	0.112	133573	keystroke_a	a	n/a
66.8745	0.168	133749	keystroke_m	m	n/a
67.0265	0.112	134053	keystroke_l	l	n/a
67.4265	0.0725	134853	keystroke_Key.backspace	Key.backspace	n/a
67.747	0.0715	135494	keystroke_b	b	n/a
67.915	0.08	135830	keystroke_l	l	n/a
68.042	0.088	136084	keystroke_i	i	n/a
68.194	0.12	136388	keystroke_n	n	n/a
68.235	0.1435	136470	keystroke_g	g	n/a
68.3625	0.192	136725	keystroke_Key.space	Key.space	n/a
68.5545	0.112	137109	keystroke_b	b	n/a
68.739	0.1195	137478	keystroke_i	i	n/a
68.8265	0.112	137653	keystroke_t	t	n/a
68.9145	0.112	137829	keystroke_s	s	n/a
68.9625	0.152	137925	keystroke_Key.space	Key.space	n/a
69.131	0.1195	138262	keystroke_l	l	n/a
69.2265	0.136	138453	keystroke_e	e	n/a
69.4505	0.128	138901	keystroke_v	v	n/a
69.554	0.121	139108	keystroke_e	e	n/a
69.6505	0.0715	139301	keystroke_l	l	n/a
69.73	0.144	139460	keystroke_Key.space	Key.space	n/a
69.978	0.097	139956	keystroke_b	b	n/a
70.49	0.1445	140980	keystroke_t	t	n/a
70.8745	0.088	141749	keystroke_Key.backspace	Key.backspace	n/a
70.9705	0.1355	141941	keystroke_a	a	n/a
71.0825	0.1205	142165	keystroke_t	t	n/a
71.242	0.104	142484	keystroke_h	h	n/a
71.6025	0.072	143205	keystroke_r	r	n/a
71.69	0.064	143380	keystroke_o	o	n/a
71.85	0.0805	143700	keystroke_o	o	n/a
72.043	0.095	144086	keystroke_m	m	n/a
72.139	0.087	144278	keystroke_s	s	n/a
72.4905	0.088	144981	keystroke_Key.enter	Key.enter	n/a
72.584	6.8445	145168	prompt	n/a	awarded somerset incentives attempted\n
73.411	0.0875	146822	keystroke_a	a	n/a
73.778	0.2085	147556	keystroke_w	w	n/a
73.9385	0.192	147877	keystroke_a	a	n/a
74.1465	0.152	148293	keystroke_r	r	n/a
74.5865	0.112	149173	keystroke_d	d	n/a
74.7065	0.152	149413	keystroke_e	e	n/a
74.8025	0.1195	149605	keystroke_d	d	n/a
74.906	0.2085	149812	keystroke_Key.space	Key.space	n/a
75.107	0.1035	150214	keystroke_s	s	n/a
75.1935	0.0815	150387	keystroke_o	o	n/a
75.3065	0.128	150613	keystroke_m	m	n/a
75.4025	0.136	150805	keystroke_e	e	n/a
75.4665	0.1605	150933	keystroke_r	r	n/a
75.7945	0.144	151589	keystroke_s	s	n/a
75.8745	0.144	151749	keystroke_e	e	n/a
75.9785	0.1365	151957	keystroke_t	t	n/a
76.314	0.1525	152628	keystroke_Key.space	Key.space	n/a
76.5225	0.1045	153045	keystroke_i	i	n/a
76.7065	0.128	153413	keystroke_n	n	n/a
76.8025	0.136	153605	keystroke_c	c	n/a
76.9145	0.176	153829	keystroke_e	e	n/a
77.059	0.1035	154118	keystroke_n	n	n/a
77.2585	0.0885	154517	keystroke_t	t	n/a
77.499	0.0715	154998	keystroke_i	i	n/a
77.5945	0.1195	155189	keystroke_v	v	n/a
77.6985	0.1525	155397	keystroke_e	e	n/a
77.795	0.1515	155590	keystroke_s	s	n/a
77.9385	0.152	155877	keystroke_Key.space	Key.space	n/a
78.139	0.087	156278	keystroke_a	a	n/a
78.282	0.0805	156564	keystroke_t	t	n/a
78.4425	0.12	156885	keystroke_t	t	n/a
78.5545	0.1365	157109	keystroke_e	e	n/a
78.6425	0.1115	157285	keystroke_m	m	n/a
78.81	0.137	157620	keystroke_p	p	n/a
78.922	0.105	157844	keystroke_t	t	n/a
79.0505	0.168	158101	keystroke_e	e	n/a
79.2025	0.08	158405	keystroke_d	d	n/a
79.3705	0.056	158741	keystroke_Key.enter	Key.enter	n/a
79.433	5.8185	158866	prompt	n/a	basin i'd bachelor churches\n
80.155	0.111	160310	keystroke_b	b	n/a
80.282	0.144	160564	keystroke_a	a	n/a
80.4025	0.112	160805	keystroke_s	s	n/a
80.458	0.1205	160916	keystroke_i	i	n/a
80.563	0.127	161126	keystroke_n	n	n/a
80.898	0.176	161796	keystroke_Key.space	Key.space	n/a
81.0585	0.1115	162117	keystroke_i	i	n/a
81.491	0.079	162982	keystroke_'	'	n/a
81.594	0.128	163188	keystroke_d	d	n/a
81.6745	0.1835	163349	keystroke_Key.space	Key.space	n/a
82.003	0.111	164006	keystroke_b	b	n/a
82.1065	0.1045	164213	keystroke_a	a	n/a
82.282	0.1285	164564	keystroke_c	c	n/a
82.6745	0.104	165349	keystroke_h	h	n/a
83.0585	0.16	166117	keystroke_e	e	n/a
83.3145	0.096	166629	keystroke_l	l	n/a
83.523	0.104	167046	keystroke_o	o	n/a
83.627	0.112	167254	keystroke_r	r	n/a
83.698	0.16	167396	keystroke_Key.space	Key.space	n/a
83.9695	0.0815	167939	keystroke_c	c	n/a
84.0265	0.1125	168053	keystroke_h	h	n/a
84.1545	0.119	168309	keystroke_u	u	n/a
84.251	0.1115	168502	keystroke_r	r	n/a
84.579	0.175	169158	keystroke_c	c	n/a
84.6425	0.1115	169285	keystroke_h	h	n/a
84.746	0.1765	169492	keystroke_e	e	n/a
84.8505	0.184	169701	keystroke_s	s	n/a
85.1305	0.12	170261	keystroke_Key.enter	Key.enter	n/a
85.255	6.389	170510	prompt	n/a	seasons month devoted qualify\n
85.8345	0.064	171669	keystroke_s	s	n/a
86.0425	0.1195	172085	keystroke_e	e	n/a
86.1785	0.144	172357	keystroke_a	a	n/a
86.3305	0.104	172661	keystroke_s	s	n/a
86.4425	0.088	172885	keystroke_o	o	n/a
86.5945	0.1115	173189	keystroke_n	n	n/a
86.6585	0.128	173317	keystroke_s	s	n/a
86.77	0.1435	173540	keystroke_Key.space	Key.space	n/a
86.9225	0.136	173845	keystroke_m	m	n/a
87.0345	0.1115	174069	keystroke_o	o	n/a
87.1865	0.104	174373	keystroke_n	n	n/a
87.298	0.1365	174596	keystroke_t	t	n/a
87.4825	0.104	174965	keystroke_Key.space	Key.space	n/a
87.5625	0.088	175125	keystroke_h	h	n/a
87.8825	0.08	175765	keystroke_Key.backspace	Key.backspace	n/a
87.9945	0.104	175989	keystroke_Key.backspace	Key.backspace	n/a
88.3225	0.1205	176645	keystroke_h	h	n/a
88.458	0.128	176916	keystroke_Key.space	Key.space	n/a
88.6265	0.12	177253	keystroke_d	d	n/a
88.715	0.1425	177430	keystroke_e	e	n/a
89.0335	0.1135	178067	keystroke_v	v	n/a
89.2665	0.0795	178533	keystroke_o	o	n/a
89.4175	0.096	178835	keystroke_t	t	n/a
89.5615	0.161	179123	keystroke_e	e	n/a
89.714	0.08	179428	keystroke_d	d	n/a
89.7945	0.1275	179589	keystroke_Key.space	Key.space	n/a
90.3545	0.08	180709	keystroke_q	q	n/a
90.418	0.104	180836	keystroke_u	u	n/a
90.6825	0.1115	181365	keystroke_a	a	n/a
90.786	0.0885	181572	keystroke_l	l	n/a
90.866	0.1125	181732	keystroke_i	i	n/a
91.0345	0.088	182069	keystroke_f	f	n/a
91.1785	0.104	182357	keystroke_y	y	n/a
91.57	0.0715	183140	keystroke_Key.enter	Key.enter	n/a
91.648	7.2595	183296	prompt	n/a	limited mercedes displayed understanding\n
92.4825	0.087	184965	keystroke_l	l	n/a
92.6025	0.112	185205	keystroke_i	i	n/a
92.794	0.1285	185588	keystroke_m	m	n/a
92.898	0.1365	185796	keystroke_i	i	n/a
93.0265	0.103	186053	keystroke_t	t	n/a
93.1615	0.169	186323	keystroke_e	e	n/a
93.3305	0.104	186661	keystroke_d	d	n/a
93.4025	0.1435	186805	keystroke_Key.space	Key.space	n/a
93.6265	0.143	187253	keystroke_m	m	n/a
93.7615	0.145	187523	keystroke_e	e	n/a
93.8575	0.113	187715	keystroke_r	r	n/a
94.1465	0.111	188293	keystroke_c	c	n/a
94.3055	0.145	188611	keystroke_e	e	n/a
94.4905	0.1595	188981	keystroke_d	d	n/a
94.6425	0.176	189285	keystroke_e	e	n/a
94.7945	0.1515	189589	keystroke_s	s	n/a
95.01	0.1605	190020	keystroke_Key.space	Key.space	n/a
95.306	0.104	190612	keystroke_d	d	n/a
95.418	0.0805	190836	keystroke_i	i	n/a
95.594	0.1125	191188	keystroke_s	s	n/a
96.0265	0.152	192053	keystroke_p	p	n/a
96.106	0.144	192212	keystroke_l	l	n/a
96.3375	0.105	192675	keystroke_a	a	n/a
96.4495	0.105	192899	keystroke_y	y	n/a
96.57	0.1845	193140	keystroke_e	e	n/a
96.7145	0.12	193429	keystroke_d	d	n/a
96.7855	0.113	193571	keystroke_Key.space	Key.space	n/a
96.8745	0.112	193749	keystroke_u	u	n/a
97.0265	0.128	194053	keystroke_n	n	n/a
97.1225	0.12	194245	keystroke_d	d	n/a
97.1865	0.216	194373	keystroke_e	e	n/a
97.3705	0.168	194741	keystroke_r	r	n/a
97.5785	0.136	195157	keystroke_s	s	n/a
97.8095	0.1045	195619	keystroke_t	t	n/a
98.0655	0.1045	196131	keystroke_a	a	n/a
98.1295	0.089	196259	keystroke_n	n	n/a
98.2335	0.096	196467	keystroke_d	d	n/a
98.338	0.12	196676	keystroke_i	i	n/a
98.458	0.1125	196916	keystroke_n	n	n/a
98.5385	0.1195	197077	keystroke_g	g	n/a
98.826	0.08	197652	keystroke_Key.enter	Key.enter	n/a
98.9105	6.3485	197821	prompt	n/a	cooked how'd refrigerator readings\n
99.538	0.112	199076	keystroke_c	c	n/a
99.586	0.088	199172	keystroke_o	o	n/a
99.786	0.08	199572	keystroke_o	o	n/a
100.0025	0.1115	200005	keystroke_k	k	n/a
100.162	0.136	200324	keystroke_e	e	n/a
100.258	0.136	200516	keystroke_d	d	n/a
100.45	0.1605	200900	keystroke_Key.space	Key.space	n/a
100.634	0.104	201268	keystroke_h	h	n/a
100.778	0.1205	201556	keystroke_o	o	n/a
100.938	0.072	201876	keystroke_w	w	n/a
101.106	0.08	202212	keystroke_'	'	n/a
101.218	0.096	202436	keystroke_d	d	n/a
101.274	0.168	202548	keystroke_Key.space	Key.space	n/a
101.618	0.1445	203236	keystroke_r	r	n/a
101.73	0.176	203460	keystroke_e	e	n/a
101.938	0.088	203876	keystroke_f	f	n/a
102.1695	0.1045	204339	keystroke_r	r	n/a
102.2975	0.0805	204595	keystroke_i	i	n/a
102.5135	0.096	205027	keystroke_g	g	n/a
102.898	0.136	205796	keystroke_e	e	n/a
102.986	0.176	205972	keystroke_r	r	n/a
103.274	0.0875	206548	keystroke_a	a	n/a
103.3775	0.113	206755	keystroke_t	t	n/a
103.642	0.1045	207284	keystroke_o	o	n/a
103.754	0.088	207508	keystroke_r	r	n/a
103.826	0.152	207652	keystroke_Key.space	Key.space	n/a
104.082	0.136	208164	keystroke_r	r	n/a
104.162	0.1435	208324	keystroke_e	e	n/a
104.4415	0.12	208883	keystroke_a	a	n/a
104.586	0.0955	209172	keystroke_d	d	n/a
104.6895	0.08	209379	keystroke_i	i	n/a
104.826	0.12	209652	keystroke_n	n	n/a
104.906	0.1275	209812	keystroke_g	g	n/a
104.986	0.1125	209972	keystroke_s	s	n/a
105.2185	0.039	210437	keystroke_Key.enter	Key.enter	n/a
105.2625	7.925	210525	prompt	n/a	agencies subscribe specially believe\n
105.8905	0.087	211781	keystroke_a	a	n/a
106.0815	0.144	212163	keystroke_g	g	n/a
106.2015	0.152	212403	keystroke_e	e	n/a
106.338	0.0955	212676	keystroke_n	n	n/a
106.5135	0.1205	213027	keystroke_c	c	n/a
106.642	0.0795	213284	keystroke_i	i	n/a
106.7135	0.2	213427	keystroke_e	e	n/a
106.8415	0.1525	213683	keystroke_s	s	n/a
107.0015	0.144	214003	keystroke_Key.space	Key.space	n/a
107.1535	0.08	214307	keystroke_s	s	n/a
107.2415	0.0885	214483	keystroke_u	u	n/a
107.3855	0.12	214771	keystroke_b	b	n/a
107.53	0.1205	215060	keystroke_s	s	n/a
107.706	0.0965	215412	keystroke_r	r	n/a
108.074	0.088	216148	keystroke_Key.backspace	Key.backspace	n/a
108.17	0.088	216340	keystroke_c	c	n/a
108.418	0.096	216836	keystroke_r	r	n/a
108.4815	0.0805	216963	keystroke_i	i	n/a
108.73	0.048	217460	keystroke_b	b	n/a
108.786	0.1355	217572	keystroke_e	e	n/a
109.0175	0.1285	218035	keystroke_Key.space	Key.space	n/a
109.2975	0.121	218595	keystroke_e	e	n/a
109.7055	0.0555	219411	keystroke_Key.backspace	Key.backspace	n/a
109.8425	0.12	219685	keystroke_s	s	n/a
109.978	0.136	219956	keystroke_p	p	n/a
110.13	0.1205	220260	keystroke_e	e	n/a
110.3615	0.136	220723	keystroke_c	c	n/a
110.665	0.112	221330	keystroke_i	i	n/a
110.826	0.08	221652	keystroke_a	a	n/a
111.098	0.0795	222196	keystroke_l	l	n/a
111.2895	0.096	222579	keystroke_l	l	n/a
111.5055	0.096	223011	keystroke_y	y	n/a
111.6025	0.143	223205	keystroke_Key.space	Key.space	n/a
111.8255	0.1205	223651	keystroke_b	b	n/a
111.9695	0.144	223939	keystroke_e	e	n/a
112.0905	0.0795	224181	keystroke_l	l	n/a
112.2415	0.113	224483	keystroke_i	i	n/a
112.4575	0.1285	224915	keystroke_e	e	n/a
112.634	0.112	225268	keystroke_v	v	n/a
112.706	0.152	225412	keystroke_e	e	n/a
113.098	0.088	226196	keystroke_Key.enter	Key.enter	n/a
113.191	8.1805	226382	prompt	n/a	nikon poems celebs controller\n
113.866	0.096	227732	keystroke_b	b	n/a
114.202	0.096	228404	keystroke_Key.backspace	Key.backspace	n/a
114.4975	0.0965	228995	keystroke_n	n	n/a
114.6495	0.0885	229299	keystroke_i	i	n/a
114.882	0.0795	229764	keystroke_k	k	n/a
115.066	0.08	230132	keystroke_o	o	n/a
115.218	0.128	230436	keystroke_n	n	n/a
115.3295	0.1445	230659	keystroke_Key.space	Key.space	n/a
115.513	0.1125	231026	keystroke_p	p	n/a
115.8575	0.104	231715	keystroke_o	o	n/a
116.0175	0.0885	232035	keystroke_e	e	n/a
116.146	0.096	232292	keystroke_m	m	n/a
116.274	0.12	232548	keystroke_s	s	n/a
116.386	0.152	232772	keystroke_Key.space	Key.space	n/a
116.8815	0.136	233763	keystroke_c	c	n/a
117.0025	0.1355	234005	keystroke_e	e	n/a
117.226	0.104	234452	keystroke_e	e	n/a
117.913	0.073	235826	keystroke_Key.backspace	Key.backspace	n/a
118.202	0.103	236404	keystroke_l	l	n/a
118.314	0.112	236628	keystroke_e	e	n/a
118.5055	0.1205	237011	keystroke_b	b	n/a
118.786	0.1125	237572	keystroke_s	s	n/a
118.9855	0.128	237971	keystroke_Key.space	Key.space	n/a
119.2735	0.088	238547	keystroke_s	s	n/a
119.6415	0.096	239283	keystroke_Key.backspace	Key.backspace	n/a
119.778	0.1275	239556	keystroke_c	c	n/a
119.9375	0.104	239875	keystroke_o	o	n/a
120.1375	0.1125	240275	keystroke_n	n	n/a
120.2335	0.104	240467	keystroke_t	t	n/a
120.4815	0.1045	240963	keystroke_r	r	n/a
120.5375	0.0725	241075	keystroke_o	o	n/a
120.762	0.032	241524	keystroke_l	l	n/a
120.906	0.08	241812	keystroke_l	l	n/a
120.978	0.096	241956	keystroke_e	e	n/a
121.034	0.135	242068	keystroke_r	r	n/a
121.298	0.072	242596	keystroke_Key.enter	Key.enter	n/a
121.379	4.8965	242758	prompt	n/a	held fought fiber collection\n
121.905	0.0965	243810	keystroke_n	n	n/a
122.1455	0.072	244291	keystroke_e	e	n/a
122.202	0.112	244404	keystroke_l	l	n/a
122.3615	0.104	244723	keystroke_d	d	n/a
122.474	0.143	244948	keystroke_Key.space	Key.space	n/a
122.7225	0.1195	245445	keystroke_f	f	n/a
122.8345	0.0795	245669	keystroke_o	o	n/a
123.0175	0.096	246035	keystroke_u	u	n/a
123.1455	0.112	246291	keystroke_g	g	n/a
123.2255	0.1365	246451	keystroke_h	h	n/a
123.3935	0.112	246787	keystroke_t	t	n/a
123.4815	0.128	246963	keystroke_Key.space	Key.space	n/a
123.8175	0.0885	247635	keystroke_f	f	n/a
123.89	0.072	247780	keystroke_i	i	n/a
124.082	0.128	248164	keystroke_b	b	n/a
124.178	0.112	248356	keystroke_e	e	n/a
124.242	0.144	248484	keystroke_r	r	n/a
124.394	0.128	248788	keystroke_Key.space	Key.space	n/a
124.6735	0.12	249347	keystroke_c	c	n/a
124.754	0.064	249508	keystroke_o	o	n/a
124.946	0.0635	249892	keystroke_l	l	n/a
125.098	0.0955	250196	keystroke_l	l	n/a
125.178	0.1275	250356	keystroke_e	e	n/a
125.274	0.112	250548	keystroke_c	c	n/a
125.61	0.096	251220	keystroke_t	t	n/a
125.666	0.096	251332	keystroke_i	i	n/a
125.69	0.144	251380	keystroke_o	o	n/a
125.826	0.112	251652	keystroke_n	n	n/a
126.178	0.096	252356	keystroke_Key.enter	Key.enter	n/a
126.2785	7.597	252557	prompt	n/a	coach discretion starter aerial\n
126.914	0.1355	253828	keystroke_c	c	n/a
127.001	0.089	254002	keystroke_o	o	n/a
127.1535	0.1355	254307	keystroke_a	a	n/a
127.354	0.136	254708	keystroke_c	c	n/a
127.425	0.112	254850	keystroke_h	h	n/a
127.529	0.152	255058	keystroke_Key.space	Key.space	n/a
127.906	0.0395	255812	keystroke_d	d	n/a
127.9535	0.096	255907	keystroke_i	i	n/a
128.1695	0.096	256339	keystroke_s	s	n/a
128.3695	0.0805	256739	keystroke_c	c	n/a
128.625	0.112	257250	keystroke_r	r	n/a
128.714	0.168	257428	keystroke_e	e	n/a
128.8825	0.111	257765	keystroke_t	t	n/a
129.0255	0.1205	258051	keystroke_i	i	n/a
129.0975	0.128	258195	keystroke_o	o	n/a
129.2255	0.136	258451	keystroke_n	n	n/a
129.3695	0.1595	258739	keystroke_Key.space	Key.space	n/a
129.882	0.1115	259764	keystroke_s	s	n/a
130.114	0.12	260228	keystroke_t	t	n/a
130.29	0.151	260580	keystroke_a	a	n/a
130.417	0.097	260834	keystroke_r	r	n/a
130.6255	0.12	261251	keystroke_t	t	n/a
130.7775	0.1685	261555	keystroke_e	e	n/a
130.906	0.104	261812	keystroke_r	r	n/a
131.0495	0.1365	262099	keystroke_Key.space	Key.space	n/a
131.322	0.136	262644	keystroke_a	a	n/a
131.738	0.0395	263476	keystroke_i	i	n/a
131.8575	0.0725	263715	keystroke_e	e	n/a
132.074	0.0875	264148	keystroke_Key.backspace	Key.backspace	n/a
132.2335	0.08	264467	keystroke_Key.backspace	Key.backspace	n/a
132.33	0.12	264660	keystroke_e	e	n/a
132.562	0.096	265124	keystroke_i	i	n/a
132.9295	0.088	265859	keystroke_Key.backspace	Key.backspace	n/a
133.0575	0.136	266115	keystroke_r	r	n/a
133.1935	0.0965	266387	keystroke_i	i	n/a
133.313	0.121	266626	keystroke_a	a	n/a
133.417	0.1205	266834	keystroke_l	l	n/a
133.81	0.063	267620	keystroke_Key.enter	Key.enter	n/a
133.8805	6.5945	267761	prompt	n/a	customize john menu decades\n
134.658	0.136	269316	keystroke_c	c	n/a
134.73	0.088	269460	keystroke_u	u	n/a
134.929	0.12	269858	keystroke_s	s	n/a
135.025	0.12	270050	keystroke_t	t	n/a
135.105	0.1285	270210	keystroke_o	o	n/a
135.2415	0.1285	270483	keystroke_m	m	n/a
135.4175	0.1205	270835	keystroke_i	i	n/a
135.6575	0.1365	271315	keystroke_z	z	n/a
135.7775	0.1445	271555	keystroke_e	e	n/a
135.9295	0.1845	271859	keystroke_Key.space	Key.space	n/a
136.122	0.1275	272244	keystroke_j	j	n/a
136.2575	0.1205	272515	keystroke_o	o	n/a
136.434	0.12	272868	keystroke_h	h	n/a
136.6815	0.12	273363	keystroke_n	n	n/a
136.8095	0.136	273619	keystroke_Key.space	Key.space	n/a
138.1935	0.112	276387	keystroke_m	m	n/a
138.3055	0.16	276611	keystroke_e	e	n/a
138.5055	0.112	277011	keystroke_n	n	n/a
138.642	0.1275	277284	keystroke_u	u	n/a
138.8015	0.1675	277603	keystroke_Key.space	Key.space	n/a
139.041	0.0965	278082	keystroke_d	d	n/a
139.122	0.1435	278244	keystroke_e	e	n/a
139.3295	0.128	278659	keystroke_c	c	n/a
139.4975	0.112	278995	keystroke_a	a	n/a
139.7295	0.0965	279459	keystroke_d	d	n/a
139.7775	0.216	279555	keystroke_e	e	n/a
139.898	0.1435	279796	keystroke_s	s	n/a
140.3775	0.096	280755	keystroke_Key.enter	Key.enter	n/a
140.478	7.925	280956	prompt	n/a	shelter pichunter sealed capital\n
141.193	0.072	282386	keystroke_s	s	n/a
141.2495	0.1275	282499	keystroke_h	h	n/a
141.425	0.1605	282850	keystroke_e	e	n/a
141.6095	0.096	283219	keystroke_l	l	n/a
141.6975	0.128	283395	keystroke_t	t	n/a
141.8655	0.128	283731	keystroke_e	e	n/a
141.9615	0.136	283923	keystroke_r	r	n/a
142.1375	0.152	284275	keystroke_Key.space	Key.space	n/a
142.5535	0.1205	285107	keystroke_p	p	n/a
142.8255	0.08	285651	keystroke_i	i	n/a
143.01	0.1595	286020	keystroke_c	c	n/a
143.1935	0.0955	286387	keystroke_h	h	n/a
143.53	0.0875	287060	keystroke_u	u	n/a
143.7295	0.104	287459	keystroke_n	n	n/a
143.8255	0.096	287651	keystroke_t	t	n/a
143.946	0.1515	287892	keystroke_e	e	n/a
144.05	0.112	288100	keystroke_r	r	n/a
144.17	0.1345	288340	keystroke_Key.space	Key.space	n/a
144.5215	0.128	289043	keystroke_s	s	n/a
144.6255	0.128	289251	keystroke_e	e	n/a
144.8895	0.1045	289779	keystroke_l	l	n/a
145.2815	0.0795	290563	keystroke_Key.backspace	Key.backspace	n/a
145.417	0.1525	290834	keystroke_a	a	n/a
145.5935	0.104	291187	keystroke_l	l	n/a
145.874	0.159	291748	keystroke_e	e	n/a
146.0095	0.1275	292019	keystroke_d	d	n/a
146.1135	0.1675	292227	keystroke_Key.space	Key.space	n/a
146.3775	0.16	292755	keystroke_c	c	n/a
146.562	0.1115	293124	keystroke_p	p	n/a
146.9055	0.064	293811	keystroke_Key.backspace	Key.backspace	n/a
147.0815	0.1125	294163	keystroke_a	a	n/a
147.1695	0.096	294339	keystroke_p	p	n/a
147.514	0.0875	295028	keystroke_i	i	n/a
147.6085	0.121	295217	keystroke_t	t	n/a
147.8015	0.0965	295603	keystroke_a	a	n/a
147.898	0.104	295796	keystroke_l	l	n/a
148.2885	0.112	296577	keystroke_Key.enter	Key.enter	n/a
148.4085	5.698	296817	prompt	n/a	there're reset embedded liver\n
149.089	0.121	298178	keystroke_t	t	n/a
149.1535	0.1045	298307	keystroke_h	h	n/a
149.2495	0.1285	298499	keystroke_e	e	n/a
149.37	0.152	298740	keystroke_r	r	n/a
149.4735	0.1195	298947	keystroke_e	e	n/a
149.85	0.095	299700	keystroke_'	'	n/a
150.025	0.128	300050	keystroke_r	r	n/a
150.113	0.1605	300226	keystroke_e	e	n/a
150.321	0.16	300642	keystroke_Key.space	Key.space	n/a
150.5535	0.152	301107	keystroke_r	r	n/a
150.6415	0.255	301283	keystroke_e	e	n/a
150.8095	0.1835	301619	keystroke_s	s	n/a
151.0805	0.113	302161	keystroke_t	t	n/a
151.449	0.0805	302898	keystroke_Key.backspace	Key.backspace	n/a
151.537	0.1205	303074	keystroke_e	e	n/a
151.6255	0.1115	303251	keystroke_t	t	n/a
151.6895	0.144	303379	keystroke_Key.space	Key.space	n/a
151.937	0.113	303874	keystroke_e	e	n/a
152.0575	0.08	304115	keystroke_m	m	n/a
152.2575	0.12	304515	keystroke_b	b	n/a
152.3375	0.112	304675	keystroke_e	e	n/a
152.6015	0.032	305203	keystroke_d	d	n/a
152.7455	0.096	305491	keystroke_d	d	n/a
152.8575	0.1275	305715	keystroke_e	e	n/a
152.953	0.104	305906	keystroke_d	d	n/a
153.089	0.128	306178	keystroke_Key.space	Key.space	n/a
153.2735	0.104	306547	keystroke_l	l	n/a
153.4575	0.103	306915	keystroke_i	i	n/a
153.5855	0.0955	307171	keystroke_v	v	n/a
153.7215	0.1675	307443	keystroke_e	e	n/a
153.8255	0.1515	307651	keystroke_r	r	n/a
153.9935	0.112	307987	keystroke_Key.enter	Key.enter	n/a
154.1095	6.0615	308219	prompt	n/a	streaming radical who'd've cities\n
154.8655	0.096	309731	keystroke_s	s	n/a
155.225	0.0965	310450	keystroke_t	t	n/a
155.449	0.1685	310898	keystroke_r	r	n/a
155.521	0.1365	311042	keystroke_e	e	n/a
155.681	0.1365	311362	keystroke_a	a	n/a
155.809	0.1205	311618	keystroke_m	m	n/a
155.89	0.1195	311780	keystroke_i	i	n/a
156.0815	0.1205	312163	keystroke_n	n	n/a
156.1775	0.0955	312355	keystroke_g	g	n/a
156.2575	0.152	312515	keystroke_Key.space	Key.space	n/a
156.465	0.104	312930	keystroke_r	r	n/a
156.578	0.143	313156	keystroke_a	a	n/a
156.73	0.087	313460	keystroke_d	d	n/a
156.825	0.096	313650	keystroke_i	i	n/a
156.961	0.1285	313922	keystroke_c	c	n/a
157.0655	0.144	314131	keystroke_a	a	n/a
157.1855	0.1045	314371	keystroke_l	l	n/a
157.2335	0.168	314467	keystroke_Key.space	Key.space	n/a
157.4975	0.0725	314995	keystroke_w	w	n/a
157.5775	0.088	315155	keystroke_h	h	n/a
157.6735	0.112	315347	keystroke_o	o	n/a
158.001	0.081	316002	keystroke_'	'	n/a
158.225	0.1035	316450	keystroke_d	d	n/a
158.385	0.1125	316770	keystroke_'	'	n/a
158.5615	0.1355	317123	keystroke_v	v	n/a
158.721	0.128	317442	keystroke_e	e	n/a
158.905	0.144	317810	keystroke_Key.space	Key.space	n/a
159.1455	0.096	318291	keystroke_c	c	n/a
159.242	0.127	318484	keystroke_i	i	n/a
159.4335	0.1275	318867	keystroke_t	t	n/a
159.521	0.112	319042	keystroke_i	i	n/a
159.6575	0.152	319315	keystroke_e	e	n/a
159.761	0.1205	319522	keystroke_s	s	n/a
160.081	0.088	320162	keystroke_Key.enter	Key.enter	n/a
160.175	6.828	320350	prompt	n/a	chubby sacrifice finishing mate\n
160.9935	0.1035	321987	keystroke_c	c	n/a
161.089	0.0565	322178	keystroke_u	u	n/a
161.5045	0.08	323009	keystroke_Key.backspace	Key.backspace	n/a
161.785	0.144	323570	keystroke_h	h	n/a
161.897	0.112	323794	keystroke_u	u	n/a
162.1045	0.24	324209	keystroke_b	b	n/a
162.5925	0.121	325185	keystroke_b	b	n/a
162.6975	0.12	325395	keystroke_y	y	n/a
162.825	0.136	325650	keystroke_Key.space	Key.space	n/a
162.985	0.0885	325970	keystroke_s	s	n/a
163.233	0.112	326466	keystroke_a	a	n/a
163.401	0.1285	326802	keystroke_c	c	n/a
163.745	0.08	327490	keystroke_r	r	n/a
163.833	0.096	327666	keystroke_i	i	n/a
164.001	0.088	328002	keystroke_f	f	n/a
164.0735	0.104	328147	keystroke_i	i	n/a
164.249	0.12	328498	keystroke_c	c	n/a
164.329	0.1205	328658	keystroke_e	e	n/a
164.513	0.152	329026	keystroke_Key.space	Key.space	n/a
164.8805	0.097	329761	keystroke_f	f	n/a
164.9685	0.08	329937	keystroke_i	i	n/a
165.1295	0.127	330259	keystroke_n	n	n/a
165.2575	0.128	330515	keystroke_i	i	n/a
165.4165	0.104	330833	keystroke_s	s	n/a
165.4725	0.105	330945	keystroke_h	h	n/a
165.6175	0.111	331235	keystroke_i	i	n/a
165.7685	0.105	331537	keystroke_n	n	n/a
165.8655	0.12	331731	keystroke_g	g	n/a
165.9695	0.1435	331939	keystroke_Key.space	Key.space	n/a
166.1535	0.136	332307	keystroke_m	m	n/a
166.2975	0.088	332595	keystroke_a	a	n/a
166.4495	0.1195	332899	keystroke_t	t	n/a
166.5285	0.1445	333057	keystroke_e	e	n/a
166.889	0.1115	333778	keystroke_Key.enter	Key.enter	n/a
167.008	5.979	334016	prompt	n/a	alignment rural intensive quest\n
167.737	0.088	335474	keystroke_a	a	n/a
167.817	0.072	335634	keystroke_l	l	n/a
167.945	0.1035	335890	keystroke_i	i	n/a
168.0335	0.1275	336067	keystroke_g	g	n/a
168.1765	0.1125	336353	keystroke_n	n	n/a
168.425	0.088	336850	keystroke_m	m	n/a
168.5775	0.095	337155	keystroke_e	e	n/a
168.649	0.1125	337298	keystroke_n	n	n/a
168.769	0.1035	337538	keystroke_t	t	n/a
168.8645	0.128	337729	keystroke_Key.space	Key.space	n/a
169.0565	0.113	338113	keystroke_r	r	n/a
169.1935	0.1035	338387	keystroke_u	u	n/a
169.3045	0.12	338609	keystroke_r	r	n/a
169.5285	0.113	339057	keystroke_a	a	n/a
169.6485	0.136	339297	keystroke_l	l	n/a
169.8085	0.1365	339617	keystroke_Key.space	Key.space	n/a
170.0165	0.08	340033	keystroke_i	i	n/a
170.193	0.1275	340386	keystroke_n	n	n/a
170.2885	0.12	340577	keystroke_t	t	n/a
170.393	0.1115	340786	keystroke_e	e	n/a
170.6255	0.063	341251	keystroke_n	n	n/a
171.113	0.112	342226	keystroke_s	s	n/a
171.2725	0.152	342545	keystroke_i	i	n/a
171.601	0.144	343202	keystroke_v	v	n/a
171.705	0.1365	343410	keystroke_e	e	n/a
171.801	0.1355	343602	keystroke_Key.space	Key.space	n/a
172.161	0.1285	344322	keystroke_q	q	n/a
172.249	0.1195	344498	keystroke_u	u	n/a
172.4495	0.2075	344899	keystroke_e	e	n/a
172.5845	0.1445	345169	keystroke_s	s	n/a
172.689	0.136	345378	keystroke_t	t	n/a
172.8895	0.0955	345779	keystroke_Key.enter	Key.enter	n/a
172.991	7.3475	345982	prompt	n/a	theatre fetish scholarships activated\n
173.8575	0.1275	347715	keystroke_t	t	n/a
173.9455	0.12	347891	keystroke_h	h	n/a
174.049	0.144	348098	keystroke_e	e	n/a
174.209	0.1685	348418	keystroke_a	a	n/a
174.3935	0.119	348787	keystroke_t	t	n/a
174.713	0.128	349426	keystroke_r	r	n/a
174.833	0.096	349666	keystroke_e	e	n/a
174.945	0.12	349890	keystroke_Key.space	Key.space	n/a
175.161	0.104	350322	keystroke_f	f	n/a
175.345	0.16	350690	keystroke_e	e	n/a
175.481	0.136	350962	keystroke_t	t	n/a
175.7765	0.112	351553	keystroke_i	i	n/a
175.897	0.1445	351794	keystroke_s	s	n/a
176.0015	0.12	352003	keystroke_h	h	n/a
176.1055	0.135	352211	keystroke_Key.space	Key.space	n/a
176.3295	0.1265	352659	keystroke_s	s	n/a
176.505	0.1285	353010	keystroke_c	c	n/a
176.5775	0.104	353155	keystroke_h	h	n/a
176.6815	0.087	353363	keystroke_o	o	n/a
176.9135	0.0955	353827	keystroke_l	l	n/a
177.001	0.1445	354002	keystroke_a	a	n/a
177.1695	0.1355	354339	keystroke_r	r	n/a
177.553	0.0955	355106	keystroke_s	s	n/a
177.6335	0.103	355267	keystroke_h	h	n/a
177.721	0.1115	355442	keystroke_i	i	n/a
177.9765	0.089	355953	keystroke_p	p	n/a
178.0735	0.0875	356147	keystroke_s	s	n/a
178.153	0.1435	356306	keystroke_Key.space	Key.space	n/a
178.273	0.0875	356546	keystroke_a	a	n/a
178.433	0.072	356866	keystroke_c	c	n/a
178.737	0.104	357474	keystroke_i	i	n/a
179.113	0.072	358226	keystroke_Key.backspace	Key.backspace	n/a
179.201	0.12	358402	keystroke_t	t	n/a
179.385	0.104	358770	keystroke_i	i	n/a
179.497	0.08	358994	keystroke_v	v	n/a
179.673	0.08	359346	keystroke_a	a	n/a
179.793	0.127	359586	keystroke_t	t	n/a
179.929	0.16	359858	keystroke_e	e	n/a
180.073	0.104	360146	keystroke_d	d	n/a
180.257	0.08	360514	keystroke_Key.enter	Key.enter	n/a
180.3425	5.684	360685	prompt	n/a	levy warcraft climate sims\n
180.937	0.0875	361874	keystroke_l	l	n/a
181.0485	0.121	362097	keystroke_e	e	n/a
181.2725	0.137	362545	keystroke_v	v	n/a
181.3535	0.1355	362707	keystroke_y	y	n/a
181.5045	0.128	363009	keystroke_Key.space	Key.space	n/a
181.8815	0.128	363763	keystroke_w	w	n/a
182.0185	0.1025	364037	keystroke_a	a	n/a
182.1135	0.0875	364227	keystroke_r	r	n/a
182.529	0.112	365058	keystroke_c	c	n/a
182.873	0.096	365746	keystroke_r	r	n/a
182.977	0.096	365954	keystroke_a	a	n/a
183.153	0.08	366306	keystroke_f	f	n/a
183.369	0.112	366738	keystroke_t	t	n/a
183.472	0.112	366944	keystroke_Key.space	Key.space	n/a
184.056	0.088	368112	keystroke_c	c	n/a
184.184	0.065	368368	keystroke_l	l	n/a
184.288	0.105	368576	keystroke_i	i	n/a
184.4645	0.144	368929	keystroke_m	m	n/a
184.5845	0.128	369169	keystroke_a	a	n/a
184.7765	0.128	369553	keystroke_t	t	n/a
184.833	0.1435	369666	keystroke_e	e	n/a
184.9925	0.144	369985	keystroke_Key.space	Key.space	n/a
185.289	0.072	370578	keystroke_s	s	n/a
185.3615	0.0955	370723	keystroke_i	i	n/a
185.465	0.104	370930	keystroke_m	m	n/a
185.5445	0.1125	371089	keystroke_s	s	n/a
185.9365	0.088	371873	keystroke_Key.enter	Key.enter	n/a
186.0305	5.868	372061	prompt	n/a	breaking quotes deemed landscape\n
186.809	0.112	373618	keystroke_b	b	n/a
186.945	0.184	373890	keystroke_r	r	n/a
187.097	0.096	374194	keystroke_e	e	n/a
187.153	0.1525	374306	keystroke_a	a	n/a
187.249	0.088	374498	keystroke_k	k	n/a
187.4325	0.08	374865	keystroke_i	i	n/a
187.585	0.127	375170	keystroke_n	n	n/a
187.681	0.1275	375362	keystroke_g	g	n/a
187.752	0.193	375504	keystroke_Key.space	Key.space	n/a
188.049	0.064	376098	keystroke_q	q	n/a
188.313	0.088	376626	keystroke_u	u	n/a
188.5525	0.088	377105	keystroke_o	o	n/a
188.793	0.1675	377586	keystroke_t	t	n/a
188.929	0.128	377858	keystroke_e	e	n/a
189.0165	0.128	378033	keystroke_s	s	n/a
189.1525	0.136	378305	keystroke_Key.space	Key.space	n/a
189.4005	0.1045	378801	keystroke_d	d	n/a
189.4805	0.12	378961	keystroke_e	e	n/a
189.6965	0.112	379393	keystroke_e	e	n/a
189.8245	0.12	379649	keystroke_m	m	n/a
189.969	0.1435	379938	keystroke_e	e	n/a
190.0885	0.128	380177	keystroke_d	d	n/a
190.248	0.144	380496	keystroke_Key.space	Key.space	n/a
190.5125	0.072	381025	keystroke_l	l	n/a
190.617	0.128	381234	keystroke_a	a	n/a
190.737	0.104	381474	keystroke_n	n	n/a
190.841	0.072	381682	keystroke_d	d	n/a
191.0325	0.088	382065	keystroke_s	s	n/a
191.2165	0.0645	382433	keystroke_c	c	n/a
191.297	0.1195	382594	keystroke_a	a	n/a
191.441	0.104	382882	keystroke_p	p	n/a
191.521	0.1355	383042	keystroke_e	e	n/a
191.8005	0.096	383601	keystroke_Key.enter	Key.enter	n/a
191.9065	6.6315	383813	prompt	n/a	careers expanded supervisor discounts\n
192.609	0.104	385218	keystroke_c	c	n/a
192.7845	0.168	385569	keystroke_a	a	n/a
192.9365	0.12	385873	keystroke_r	r	n/a
193.201	0.0395	386402	keystroke_e	e	n/a
193.353	0.0875	386706	keystroke_e	e	n/a
193.4165	0.1605	386833	keystroke_r	r	n/a
193.5685	0.144	387137	keystroke_s	s	n/a
193.7205	0.1205	387441	keystroke_Key.space	Key.space	n/a
193.945	0.096	387890	keystroke_e	e	n/a
194.209	0.1035	388418	keystroke_x	x	n/a
194.3045	0.12	388609	keystroke_p	p	n/a
194.473	0.0875	388946	keystroke_a	a	n/a
194.5605	0.12	389121	keystroke_n	n	n/a
194.753	0.0555	389506	keystroke_d	d	n/a
194.8485	0.1445	389697	keystroke_e	e	n/a
194.977	0.104	389954	keystroke_d	d	n/a
195.073	0.12	390146	keystroke_Key.space	Key.space	n/a
195.233	0.0955	390466	keystroke_s	s	n/a
195.289	0.0795	390578	keystroke_u	u	n/a
195.5125	0.0965	391025	keystroke_p	p	n/a
195.5925	0.104	391185	keystroke_e	e	n/a
195.6325	0.136	391265	keystroke_r	r	n/a
195.9525	0.112	391905	keystroke_v	v	n/a
196.025	0.103	392050	keystroke_i	i	n/a
196.169	0.1275	392338	keystroke_s	s	n/a
196.289	0.0955	392578	keystroke_o	o	n/a
196.393	0.1205	392786	keystroke_r	r	n/a
196.5285	0.152	393057	keystroke_Key.space	Key.space	n/a
196.904	0.0645	393808	keystroke_d	d	n/a
196.9685	0.112	393937	keystroke_i	i	n/a
197.16	0.128	394320	keystroke_s	s	n/a
197.3685	0.104	394737	keystroke_c	c	n/a
197.705	0.0635	395410	keystroke_o	o	n/a
197.8565	0.0805	395713	keystroke_u	u	n/a
198.0005	0.128	396001	keystroke_n	n	n/a
198.0485	0.152	396097	keystroke_t	t	n/a
198.1445	0.1445	396289	keystroke_s	s	n/a
198.4485	0.088	396897	keystroke_Key.enter	Key.enter	n/a
198.542	9.652	397084	prompt	n/a	flooring notified edwards sacramento\n
199.2005	0.0965	398401	keystroke_f	f	n/a
199.2645	0.0805	398529	keystroke_l	l	n/a
199.4645	0.056	398929	keystroke_o	o	n/a
199.6005	0.104	399201	keystroke_o	o	n/a
199.7445	0.056	399489	keystroke_i	i	n/a
199.7605	0.1605	399521	keystroke_r	r	n/a
200.2805	0.216	400561	keystroke_Key.backspace	Key.backspace	n/a
200.5525	0.096	401105	keystroke_r	r	n/a
200.7125	0.048	401425	keystroke_=	=	n/a
201.0085	0.088	402017	keystroke_Key.backspace	Key.backspace	n/a
201.1685	0.0965	402337	keystroke_Key.backspace	Key.backspace	n/a
201.5125	0.0645	403025	keystroke_Key.backspace	Key.backspace	n/a
201.737	0.064	403474	keystroke_r	r	n/a
201.889	0.088	403778	keystroke_i	i	n/a
202.064	0.121	404128	keystroke_n	n	n/a
202.1365	0.1275	404273	keystroke_g	g	n/a
202.224	0.1605	404448	keystroke_Key.space	Key.space	n/a
202.4245	0.096	404849	keystroke_n	n	n/a
202.5765	0.1125	405153	keystroke_o	o	n/a
202.696	0.096	405392	keystroke_t	t	n/a
202.784	0.104	405568	keystroke_i	i	n/a
202.984	0.081	405968	keystroke_f	f	n/a
203.025	0.0875	406050	keystroke_i	i	n/a
203.217	0.119	406434	keystroke_e	e	n/a
203.296	0.128	406592	keystroke_d	d	n/a
203.456	0.152	406912	keystroke_Key.space	Key.space	n/a
203.921	0.1355	407842	keystroke_e	e	n/a
204.0725	0.1205	408145	keystroke_d	d	n/a
204.4005	0.112	408801	keystroke_w	w	n/a
204.5205	0.112	409041	keystroke_a	a	n/a
204.6405	0.08	409281	keystroke_r	r	n/a
204.8805	0.104	409761	keystroke_d	d	n/a
204.9445	0.144	409889	keystroke_s	s	n/a
205.0725	0.136	410145	keystroke_Key.space	Key.space	n/a
205.4725	0.12	410945	keystroke_s	s	n/a
205.5935	0.095	411187	keystroke_a	a	n/a
205.8405	0.08	411681	keystroke_c	c	n/a
206.1205	0.072	412241	keystroke_r	r	n/a
206.9765	0.1355	413953	keystroke_a	a	n/a
207.289	0.119	414578	keystroke_m	m	n/a
207.409	0.1355	414818	keystroke_e	e	n/a
207.5445	0.1035	415089	keystroke_n	n	n/a
207.624	0.104	415248	keystroke_t	t	n/a
207.76	0.1125	415520	keystroke_o	o	n/a
208.096	0.0965	416192	keystroke_Key.enter	Key.enter	n/a
208.198	6.6125	416396	prompt	n/a	attended quite hose satisfactory\n
208.9445	0.1035	417889	keystroke_a	a	n/a
209.112	0.0965	418224	keystroke_t	t	n/a
209.304	0.104	418608	keystroke_t	t	n/a
209.4325	0.1445	418865	keystroke_e	e	n/a
209.616	0.104	419232	keystroke_n	n	n/a
209.896	0.088	419792	keystroke_d	d	n/a
210.017	0.111	420034	keystroke_e	e	n/a
210.113	0.095	420226	keystroke_d	d	n/a
210.2325	0.152	420465	keystroke_Key.space	Key.space	n/a
210.784	0.113	421568	keystroke_q	q	n/a
210.8165	0.0875	421633	keystroke_u	u	n/a
211.1835	0.113	422367	keystroke_i	i	n/a
211.3435	0.097	422687	keystroke_t	t	n/a
211.393	0.1755	422786	keystroke_e	e	n/a
211.592	0.1685	423184	keystroke_Key.space	Key.space	n/a
211.753	0.104	423506	keystroke_h	h	n/a
211.9125	0.1045	423825	keystroke_o	o	n/a
212.04	0.1285	424080	keystroke_s	s	n/a
212.096	0.1605	424192	keystroke_e	e	n/a
212.2565	0.159	424513	keystroke_Key.space	Key.space	n/a
212.5445	0.1045	425089	keystroke_s	s	n/a
212.777	0.079	425554	keystroke_a	a	n/a
212.897	0.128	425794	keystroke_t	t	n/a
213.0085	0.0955	426017	keystroke_i	i	n/a
213.161	0.12	426322	keystroke_s	s	n/a
213.4	0.072	426800	keystroke_f	f	n/a
213.512	0.096	427024	keystroke_a	a	n/a
213.6725	0.096	427345	keystroke_c	c	n/a
213.961	0.079	427922	keystroke_t	t	n/a
214.1365	0.088	428273	keystroke_o	o	n/a
214.2485	0.072	428497	keystroke_r	r	n/a
214.3525	0.0955	428705	keystroke_y	y	n/a
214.752	0.056	429504	keystroke_Key.enter	Key.enter	n/a
214.814	10.564	429628	prompt	n/a	attacked unemployment menu extraordinary\n
215.441	0.0795	430882	keystroke_a	a	n/a
215.6005	0.0715	431201	keystroke_t	t	n/a
215.7525	0.1115	431505	keystroke_t	t	n/a
215.92	0.1125	431840	keystroke_a	a	n/a
216.136	0.0645	432272	keystroke_c	c	n/a
216.208	0.1045	432416	keystroke_k	k	n/a
216.3365	0.144	432673	keystroke_e	e	n/a
216.448	0.1125	432896	keystroke_d	d	n/a
216.5605	0.168	433121	keystroke_Key.space	Key.space	n/a
216.984	0.096	433968	keystroke_u	u	n/a
217.1445	0.136	434289	keystroke_n	n	n/a
217.3685	0.104	434737	keystroke_e	e	n/a
217.5125	0.1205	435025	keystroke_m	m	n/a
217.92	0.1765	435840	keystroke_p	p	n/a
218.0485	0.12	436097	keystroke_l	l	n/a
218.3125	0.064	436625	keystroke_o	o	n/a
218.816	0.0805	437632	keystroke_y	y	n/a
219.08	0.128	438160	keystroke_m	m	n/a
219.232	0.168	438464	keystroke_e	e	n/a
219.3205	0.128	438641	keystroke_n	n	n/a
219.416	0.1445	438832	keystroke_t	t	n/a
219.5125	0.1515	439025	keystroke_Key.space	Key.space	n/a
219.7925	0.128	439585	keystroke_m	m	n/a
219.9525	0.1195	439905	keystroke_e	e	n/a
220.0565	0.096	440113	keystroke_n	n	n/a
220.168	0.1285	440336	keystroke_u	u	n/a
220.3525	0.136	440705	keystroke_Key.space	Key.space	n/a
220.7045	0.096	441409	keystroke_e	e	n/a
221.2005	0.152	442401	keystroke_x	x	n/a
221.473	0.0955	442946	keystroke_t	t	n/a
221.7125	0.08	443425	keystroke_r	r	n/a
221.7685	0.144	443537	keystroke_a	a	n/a
222.1125	0.096	444225	keystroke_d	d	n/a
222.3125	0.0795	444625	keystroke_o	o	n/a
222.9205	0.048	445841	keystroke_Key.backspace	Key.backspace	n/a
223.048	0.088	446096	keystroke_Key.backspace	Key.backspace	n/a
223.2885	0.1115	446577	keystroke_o	o	n/a
223.384	0.0965	446768	keystroke_r	r	n/a
223.6235	0.096	447247	keystroke_d	d	n/a
223.7115	0.105	447423	keystroke_i	i	n/a
223.928	0.105	447856	keystroke_n	n	n/a
224.064	0.0885	448128	keystroke_a	a	n/a
224.153	0.119	448306	keystroke_r	r	n/a
224.208	0.136	448416	keystroke_y	y	n/a
225.272	0.104	450544	keystroke_Key.enter	Key.enter	n/a
225.3835	10.218	450767	prompt	n/a	crafts acknowledged italian receiver\n
226.0885	0.088	452177	keystroke_c	c	n/a
226.3365	0.104	452673	keystroke_r	r	n/a
226.4245	0.12	452849	keystroke_a	a	n/a
226.6235	0.0805	453247	keystroke_f	f	n/a
226.856	0.0795	453712	keystroke_t	t	n/a
226.9045	0.144	453809	keystroke_s	s	n/a
227.0635	0.137	454127	keystroke_Key.space	Key.space	n/a
227.2405	0.088	454481	keystroke_a	a	n/a
227.3995	0.137	454799	keystroke_c	c	n/a
227.5445	0.112	455089	keystroke_k	k	n/a
228.1205	0.104	456241	keystroke_n	n	n/a
228.4405	0.104	456881	keystroke_o	o	n/a
228.9445	0.064	457889	keystroke_w	w	n/a
230.04	0.1275	460080	keystroke_l	l	n/a
230.2	0.16	460400	keystroke_e	e	n/a
230.352	0.12	460704	keystroke_d	d	n/a
230.664	0.128	461328	keystroke_g	g	n/a
230.776	0.1525	461552	keystroke_e	e	n/a
231.145	0.079	462290	keystroke_d	d	n/a
231.248	0.144	462496	keystroke_Key.space	Key.space	n/a
231.568	0.096	463136	keystroke_i	i	n/a
231.7285	0.1275	463457	keystroke_t	t	n/a
231.96	0.1125	463920	keystroke_a	a	n/a
232.0885	0.056	464177	keystroke_l	l	n/a
232.24	0.1045	464480	keystroke_i	i	n/a
232.44	0.0645	464880	keystroke_s	s	n/a
232.872	0.072	465744	keystroke_Key.backspace	Key.backspace	n/a
233.0645	0.0795	466129	keystroke_a	a	n/a
233.176	0.144	466352	keystroke_n	n	n/a
233.28	0.152	466560	keystroke_Key.space	Key.space	n/a
233.616	0.136	467232	keystroke_r	r	n/a
233.7205	0.1835	467441	keystroke_e	e	n/a
233.984	0.1365	467968	keystroke_c	c	n/a
234.1285	0.128	468257	keystroke_e	e	n/a
234.3435	0.088	468687	keystroke_i	i	n/a
234.888	0.1125	469776	keystroke_v	v	n/a
235.0715	0.153	470143	keystroke_e	e	n/a
235.176	0.16	470352	keystroke_r	r	n/a
235.496	0.1035	470992	keystroke_Key.enter	Key.enter	n/a
235.6065	9.6905	471213	prompt	n/a	birthday bytes road blast\n
236.176	0.1045	472352	keystroke_b	b	n/a
236.328	0.112	472656	keystroke_r	r	n/a
236.392	0.0965	472784	keystroke_i	i	n/a
236.5995	0.104	473199	keystroke_t	t	n/a
236.6875	0.112	473375	keystroke_h	h	n/a
236.8875	0.12	473775	keystroke_d	d	n/a
236.9995	0.1125	473999	keystroke_a	a	n/a
237.0475	0.1525	474095	keystroke_y	y	n/a
237.5275	0.0645	475055	keystroke_Key.backspace	Key.backspace	n/a
237.7195	0.04	475439	keystroke_Key.backspace	Key.backspace	n/a
237.8795	0.0565	475759	keystroke_Key.backspace	Key.backspace	n/a
238.0475	0.0645	476095	keystroke_Key.backspace	Key.backspace	n/a
238.224	0.0475	476448	keystroke_Key.backspace	Key.backspace	n/a
238.376	0.096	476752	keystroke_Key.backspace	Key.backspace	n/a
238.696	0.088	477392	keystroke_Key.backspace	Key.backspace	n/a
239.0165	0.1115	478033	keystroke_i	i	n/a
239.248	0.112	478496	keystroke_r	r	n/a
239.649	0.1035	479298	keystroke_t	t	n/a
239.7605	0.1035	479521	keystroke_h	h	n/a
239.96	0.1035	479920	keystroke_d	d	n/a
240.0885	0.071	480177	keystroke_a	a	n/a
240.12	0.1515	480240	keystroke_y	y	n/a
240.5275	0.137	481055	keystroke_Key.space	Key.space	n/a
240.7755	0.089	481551	keystroke_b	b	n/a
240.992	0.112	481984	keystroke_y	y	n/a
241.144	0.176	482288	keystroke_t	t	n/a
241.272	0.1285	482544	keystroke_e	e	n/a
241.336	0.1515	482672	keystroke_s	s	n/a
241.496	0.144	482992	keystroke_Key.space	Key.space	n/a
241.736	0.0885	483472	keystroke_b	b	n/a
242.1435	0.1285	484287	keystroke_r	r	n/a
242.312	0.072	484624	keystroke_Key.backspace	Key.backspace	n/a
242.464	0.072	484928	keystroke_Key.backspace	Key.backspace	n/a
242.72	0.104	485440	keystroke_o	o	n/a
242.808	0.112	485616	keystroke_r	r	n/a
243.24	0.063	486480	keystroke_Key.backspace	Key.backspace	n/a
243.392	0.08	486784	keystroke_Key.backspace	Key.backspace	n/a
243.5525	0.104	487105	keystroke_r	r	n/a
243.6655	0.0705	487331	keystroke_o	o	n/a
243.768	0.0965	487536	keystroke_a	a	n/a
243.9605	0.087	487921	keystroke_d	d	n/a
244.0795	0.176	488159	keystroke_Key.space	Key.space	n/a
244.2405	0.095	488481	keystroke_b	b	n/a
244.4485	0.1195	488897	keystroke_l	l	n/a
244.536	0.072	489072	keystroke_a	a	n/a
244.832	0.1365	489664	keystroke_s	s	n/a
244.944	0.1365	489888	keystroke_t	t	n/a
245.208	0.0875	490416	keystroke_Key.enter	Key.enter	n/a
245.3	5.0455	490600	prompt	n/a	supposed deep lots creating\n
245.872	0.1115	491744	keystroke_s	s	n/a
245.9355	0.096	491871	keystroke_u	u	n/a
246.1675	0.0725	492335	keystroke_p	p	n/a
246.3205	0.087	492641	keystroke_p	p	n/a
246.36	0.1435	492720	keystroke_o	o	n/a
246.52	0.1435	493040	keystroke_s	s	n/a
246.6155	0.152	493231	keystroke_e	e	n/a
246.7435	0.104	493487	keystroke_d	d	n/a
246.8235	0.1525	493647	keystroke_Key.space	Key.space	n/a
247.0245	0.119	494049	keystroke_d	d	n/a
247.1125	0.3035	494225	keystroke_e	e	n/a
247.696	0.08	495392	keystroke_e	e	n/a
247.792	0.1355	495584	keystroke_p	p	n/a
247.8955	0.144	495791	keystroke_Key.space	Key.space	n/a
248.224	0.096	496448	keystroke_l	l	n/a
248.4245	0.112	496849	keystroke_o	o	n/a
248.528	0.112	497056	keystroke_t	t	n/a
248.616	0.137	497232	keystroke_s	s	n/a
248.8	0.112	497600	keystroke_Key.space	Key.space	n/a
249.0875	0.096	498175	keystroke_c	c	n/a
249.36	0.136	498720	keystroke_r	r	n/a
249.456	0.1515	498912	keystroke_e	e	n/a
249.5515	0.1445	499103	keystroke_a	a	n/a
249.68	0.112	499360	keystroke_t	t	n/a
249.776	0.08	499552	keystroke_i	i	n/a
249.912	0.112	499824	keystroke_n	n	n/a
250	0.12	500000	keystroke_g	g	n/a
250.248	0.0955	500496	keystroke_Key.enter	Key.enter	n/a
250.35	6.7075	500700	prompt	n/a	cape possibility consists puerto\n
251.144	0.096	502288	keystroke_c	c	n/a
251.288	0.0965	502576	keystroke_a	a	n/a
251.416	0.096	502832	keystroke_p	p	n/a
251.504	0.128	503008	keystroke_e	e	n/a
251.624	0.16	503248	keystroke_Key.space	Key.space	n/a
252.0645	0.096	504129	keystroke_p	p	n/a
252.176	0.1035	504352	keystroke_o	o	n/a
252.3355	0.073	504671	keystroke_s	s	n/a
252.512	0.072	505024	keystroke_s	s	n/a
252.6155	0.0885	505231	keystroke_i	i	n/a
252.848	0.112	505696	keystroke_b	b	n/a
253.064	0.304	506128	keystroke_i	i	n/a
253.1675	0.168	506335	keystroke_l	l	n/a
253.88	0.0875	507760	keystroke_i	i	n/a
253.9835	0.1605	507967	keystroke_t	t	n/a
254.104	0.128	508208	keystroke_y	y	n/a
254.24	0.16	508480	keystroke_Key.space	Key.space	n/a
254.432	0.104	508864	keystroke_c	c	n/a
254.56	0.104	509120	keystroke_o	o	n/a
254.72	0.12	509440	keystroke_n	n	n/a
254.88	0.047	509760	keystroke_s	s	n/a
254.9755	0.1205	509951	keystroke_i	i	n/a
255.1685	0.1115	510337	keystroke_s	s	n/a
255.36	0.144	510720	keystroke_t	t	n/a
255.4955	0.048	510991	keystroke_s	s	n/a
255.655	0.1605	511310	keystroke_Key.space	Key.space	n/a
255.9755	0.0565	511951	keystroke_p	p	n/a
256.2	0.112	512400	keystroke_u	u	n/a
256.304	0.128	512608	keystroke_e	e	n/a
256.368	0.144	512736	keystroke_r	r	n/a
256.6	0.128	513200	keystroke_t	t	n/a
256.68	0.104	513360	keystroke_o	o	n/a
256.984	0.072	513968	keystroke_Key.enter	Key.enter	n/a
257.0625	5.7545	514125	prompt	n/a	forecast windows courier bridge\n
257.6795	0.1115	515359	keystroke_f	f	n/a
257.872	0.112	515744	keystroke_o	o	n/a
257.976	0.104	515952	keystroke_r	r	n/a
258.072	0.152	516144	keystroke_e	e	n/a
258.312	0.136	516624	keystroke_c	c	n/a
258.48	0.152	516960	keystroke_a	a	n/a
258.592	0.128	517184	keystroke_s	s	n/a
258.8	0.135	517600	keystroke_t	t	n/a
258.928	0.1195	517856	keystroke_Key.space	Key.space	n/a
259.072	0.104	518144	keystroke_w	w	n/a
259.136	0.072	518272	keystroke_i	i	n/a
259.288	0.112	518576	keystroke_n	n	n/a
259.416	0.088	518832	keystroke_d	d	n/a
259.543	0.097	519086	keystroke_o	o	n/a
259.632	0.0965	519264	keystroke_w	w	n/a
259.823	0.137	519646	keystroke_s	s	n/a
259.967	0.1285	519934	keystroke_Key.space	Key.space	n/a
260.112	0.104	520224	keystroke_c	c	n/a
260.352	0.0715	520704	keystroke_o	o	n/a
260.52	0.096	521040	keystroke_u	u	n/a
260.632	0.12	521264	keystroke_r	r	n/a
260.888	0.096	521776	keystroke_i	i	n/a
261.056	0.144	522112	keystroke_e	e	n/a
261.184	0.119	522368	keystroke_r	r	n/a
261.608	0.08	523216	keystroke_Key.space	Key.space	n/a
261.808	0.112	523616	keystroke_b	b	n/a
261.944	0.104	523888	keystroke_r	r	n/a
262.072	0.104	524144	keystroke_i	i	n/a
262.216	0.0795	524432	keystroke_d	d	n/a
262.431	0.113	524862	keystroke_g	g	n/a
262.5195	0.12	525039	keystroke_e	e	n/a
262.736	0.0795	525472	keystroke_Key.enter	Key.enter	n/a
262.8205	7.477	525641	prompt	n/a	teens chemical checkout luxembourg\n
263.4795	0.12	526959	keystroke_t	t	n/a
263.5835	0.104	527167	keystroke_e	e	n/a
263.7755	0.0885	527551	keystroke_e	e	n/a
263.8795	0.0965	527759	keystroke_n	n	n/a
263.992	0.136	527984	keystroke_s	s	n/a
264.1355	0.112	528271	keystroke_Key.space	Key.space	n/a
264.5195	0.12	529039	keystroke_c	c	n/a
264.6965	0.1195	529393	keystroke_h	h	n/a
264.807	0.137	529614	keystroke_e	e	n/a
265.0235	0.136	530047	keystroke_m	m	n/a
265.1525	0.1185	530305	keystroke_i	i	n/a
265.2405	0.1035	530481	keystroke_c	c	n/a
265.375	0.137	530750	keystroke_a	a	n/a
265.512	0.096	531024	keystroke_l	l	n/a
265.56	0.1675	531120	keystroke_Key.space	Key.space	n/a
265.872	0.1435	531744	keystroke_c	c	n/a
266.0315	0.1045	532063	keystroke_h	h	n/a
266.1845	0.159	532369	keystroke_e	e	n/a
266.3995	0.104	532799	keystroke_c	c	n/a
266.4635	0.096	532927	keystroke_k	k	n/a
266.775	0.0565	533550	keystroke_o	o	n/a
266.9365	0.087	533873	keystroke_u	u	n/a
267.0155	0.1435	534031	keystroke_t	t	n/a
267.215	0.144	534430	keystroke_Key.space	Key.space	n/a
267.568	0.08	535136	keystroke_l	l	n/a
267.76	0.0795	535520	keystroke_u	u	n/a
268.087	0.128	536174	keystroke_x	x	n/a
268.343	0.1205	536686	keystroke_e	e	n/a
268.455	0.1045	536910	keystroke_m	m	n/a
268.7675	0.096	537535	keystroke_b	b	n/a
269.064	0.0875	538128	keystroke_o	o	n/a
269.248	0.0955	538496	keystroke_u	u	n/a
269.3915	0.088	538783	keystroke_r	r	n/a
269.6795	0.088	539359	keystroke_g	g	n/a
270.215	0.08	540430	keystroke_Key.enter	Key.enter	n/a
270.3025	7.0025	540605	prompt	n/a	dancing agencies underwear floor\n
270.8955	0.096	541791	keystroke_d	d	n/a
271.0795	0.08	542159	keystroke_a	a	n/a
271.1835	0.1045	542367	keystroke_n	n	n/a
271.2955	0.104	542591	keystroke_c	c	n/a
271.4075	0.0965	542815	keystroke_i	i	n/a
271.6075	0.112	543215	keystroke_n	n	n/a
271.9515	0.096	543903	keystroke_g	g	n/a
272.0875	0.1365	544175	keystroke_Key.space	Key.space	n/a
272.311	0.0805	544622	keystroke_a	a	n/a
272.512	0.095	545024	keystroke_g	g	n/a
272.7115	0.096	545423	keystroke_e	e	n/a
272.8155	0.0965	545631	keystroke_n	n	n/a
273.0075	0.096	546015	keystroke_i	i	n/a
273.1515	0.064	546303	keystroke_c	c	n/a
273.4235	0.08	546847	keystroke_Key.backspace	Key.backspace	n/a
273.5755	0.08	547151	keystroke_Key.backspace	Key.backspace	n/a
273.7355	0.088	547471	keystroke_c	c	n/a
273.9035	0.096	547807	keystroke_i	i	n/a
273.9835	0.144	547967	keystroke_e	e	n/a
274.0795	0.128	548159	keystroke_s	s	n/a
274.3275	0.136	548655	keystroke_Key.space	Key.space	n/a
274.5275	0.072	549055	keystroke_u	u	n/a
274.6795	0.12	549359	keystroke_n	n	n/a
274.7915	0.112	549583	keystroke_d	d	n/a
274.8795	0.1915	549759	keystroke_e	e	n/a
275.0475	0.1765	550095	keystroke_r	r	n/a
275.6315	0.072	551263	keystroke_w	w	n/a
275.8795	0.12	551759	keystroke_e	e	n/a
276.0005	0.095	552001	keystroke_a	a	n/a
276.088	0.1195	552176	keystroke_r	r	n/a
276.2635	0.12	552527	keystroke_Key.space	Key.space	n/a
276.4475	0.088	552895	keystroke_f	f	n/a
276.591	0.0645	553182	keystroke_l	l	n/a
276.7605	0.079	553521	keystroke_o	o	n/a
276.912	0.0955	553824	keystroke_o	o	n/a
276.9915	0.096	553983	keystroke_r	r	n/a
277.2235	0.08	554447	keystroke_Key.enter	Key.enter	n/a
277.3115	8.9775	554623	prompt	n/a	brunette bahamas gained instrumentation\n
278.072	0.103	556144	keystroke_b	b	n/a
278.256	0.096	556512	keystroke_r	r	n/a
278.312	0.0875	556624	keystroke_u	u	n/a
278.48	0.1035	556960	keystroke_n	n	n/a
278.68	0.12	557360	keystroke_e	e	n/a
278.9755	0.096	557951	keystroke_t	t	n/a
279.1435	0.096	558287	keystroke_t	t	n/a
279.2235	0.136	558447	keystroke_e	e	n/a
279.3835	0.128	558767	keystroke_Key.space	Key.space	n/a
279.5595	0.112	559119	keystroke_b	b	n/a
279.7595	0.144	559519	keystroke_r	r	n/a
280.3595	0.072	560719	keystroke_Key.backspace	Key.backspace	n/a
280.5355	0.056	561071	keystroke_Key.backspace	Key.backspace	n/a
281.0235	0.088	562047	keystroke_b	b	n/a
281.215	0.08	562430	keystroke_a	a	n/a
281.415	0.0885	562830	keystroke_h	h	n/a
281.543	0.0805	563086	keystroke_a	a	n/a
281.736	0.0635	563472	keystroke_m	m	n/a
281.856	0.08	563712	keystroke_a	a	n/a
282.295	0.0645	564590	keystroke_s	s	n/a
282.4705	0.121	564941	keystroke_Key.space	Key.space	n/a
282.8555	0.096	565711	keystroke_g	g	n/a
283.0555	0.112	566111	keystroke_a	a	n/a
283.2075	0.0715	566415	keystroke_i	i	n/a
283.384	0.1115	566768	keystroke_n	n	n/a
283.472	0.1195	566944	keystroke_e	e	n/a
283.5915	0.096	567183	keystroke_d	d	n/a
283.6715	0.144	567343	keystroke_Key.space	Key.space	n/a
283.9595	0.048	567919	keystroke_i	i	n/a
284.144	0.127	568288	keystroke_n	n	n/a
284.255	0.12	568510	keystroke_s	s	n/a
284.3595	0.0875	568719	keystroke_t	t	n/a
284.5755	0.1045	569151	keystroke_r	r	n/a
284.6315	0.0805	569263	keystroke_u	u	n/a
284.823	0.1195	569646	keystroke_m	m	n/a
284.9755	0.1205	569951	keystroke_e	e	n/a
285.072	0.111	570144	keystroke_n	n	n/a
285.144	0.128	570288	keystroke_t	t	n/a
285.367	0.113	570734	keystroke_a	a	n/a
285.551	0.1045	571102	keystroke_t	t	n/a
285.6625	0.145	571325	keystroke_i	i	n/a
285.7515	0.112	571503	keystroke_o	o	n/a
285.8315	0.112	571663	keystroke_n	n	n/a
286.2235	0.064	572447	keystroke_Key.enter	Key.enter	n/a
286.2925	6.8285	572585	prompt	n/a	glory pontiac ranch witch\n
287.352	0.0875	574704	keystroke_g	g	n/a
287.5195	0.0725	575039	keystroke_l	l	n/a
287.6955	0.096	575391	keystroke_o	o	n/a
287.8075	0.1195	575615	keystroke_r	r	n/a
287.935	0.12	575870	keystroke_y	y	n/a
288.079	0.1445	576158	keystroke_Key.space	Key.space	n/a
288.431	0.08	576862	keystroke_p	p	n/a
288.631	0.0965	577262	keystroke_o	o	n/a
288.8715	0.112	577743	keystroke_n	n	n/a
289.1115	0.112	578223	keystroke_t	t	n/a
289.2315	0.088	578463	keystroke_i	i	n/a
289.3435	0.112	578687	keystroke_a	a	n/a
289.5755	0.144	579151	keystroke_c	c	n/a
289.9195	0.112	579839	keystroke_Key.space	Key.space	n/a
290.8395	0.1515	581679	keystroke_r	r	n/a
291.007	0.081	582014	keystroke_a	a	n/a
291.143	0.1045	582286	keystroke_n	n	n/a
291.311	0.129	582622	keystroke_c	c	n/a
291.424	0.119	582848	keystroke_h	h	n/a
291.863	0.0965	583726	keystroke_Key.space	Key.space	n/a
292.143	0.104	584286	keystroke_w	w	n/a
292.3515	0.0955	584703	keystroke_i	i	n/a
292.455	0.104	584910	keystroke_t	t	n/a
292.719	0.136	585438	keystroke_c	c	n/a
292.743	0.12	585486	keystroke_h	h	n/a
293.0395	0.0795	586079	keystroke_Key.enter	Key.enter	n/a
293.125	7.788	586250	prompt	n/a	come explain nice compete\n
293.7995	0.096	587599	keystroke_c	c	n/a
293.919	0.104	587838	keystroke_o	o	n/a
294.087	0.128	588174	keystroke_m	m	n/a
294.208	0.1435	588416	keystroke_e	e	n/a
294.3595	0.144	588719	keystroke_Key.space	Key.space	n/a
294.8635	0.0885	589727	keystroke_e	e	n/a
295.0955	0.136	590191	keystroke_x	x	n/a
295.1915	0.144	590383	keystroke_p	p	n/a
295.4235	0.048	590847	keystroke_a	a	n/a
295.7755	0.072	591551	keystroke_Key.backspace	Key.backspace	n/a
296.0475	0.096	592095	keystroke_l	l	n/a
296.2315	0.072	592463	keystroke_a	a	n/a
296.3275	0.072	592655	keystroke_i	i	n/a
296.5355	0.1035	593071	keystroke_n	n	n/a
296.8545	0.136	593709	keystroke_Key.space	Key.space	n/a
297.2875	0.0955	594575	keystroke_n	n	n/a
297.455	0.1445	594910	keystroke_i	i	n/a
297.5755	0.1435	595151	keystroke_c	c	n/a
297.6795	0.1195	595359	keystroke_e	e	n/a
298.183	0.1285	596366	keystroke_Key.space	Key.space	n/a
299.3355	0.096	598671	keystroke_c	c	n/a
299.3675	0.096	598735	keystroke_o	o	n/a
299.5115	0.112	599023	keystroke_m	m	n/a
299.879	0.1045	599758	keystroke_p	p	n/a
300.1595	0.1115	600319	keystroke_e	e	n/a
300.279	0.144	600558	keystroke_t	t	n/a
300.399	0.104	600798	keystroke_e	e	n/a
300.8465	0.0645	601693	keystroke_Key.enter	Key.enter	n/a
300.917	6.6995	601834	prompt	n/a	garlic opposed carroll forums\n
301.6875	0.127	603375	keystroke_g	g	n/a
301.9185	0.1605	603837	keystroke_a	a	n/a
302.031	0.128	604062	keystroke_r	r	n/a
302.167	0.088	604334	keystroke_l	l	n/a
302.327	0.104	604654	keystroke_i	i	n/a
302.4785	0.097	604957	keystroke_c	c	n/a
302.5585	0.1685	605117	keystroke_Key.space	Key.space	n/a
302.7755	0.1195	605551	keystroke_o	o	n/a
303.0075	0.048	606015	keystroke_p	p	n/a
303.1515	0.08	606303	keystroke_p	p	n/a
303.2395	0.128	606479	keystroke_o	o	n/a
303.3995	0.168	606799	keystroke_s	s	n/a
303.5275	0.112	607055	keystroke_e	e	n/a
303.6235	0.128	607247	keystroke_d	d	n/a
303.759	0.1205	607518	keystroke_Key.space	Key.space	n/a
304.095	0.112	608190	keystroke_c	c	n/a
304.271	0.152	608542	keystroke_a	a	n/a
304.399	0.096	608798	keystroke_r	r	n/a
304.583	0.0805	609166	keystroke_r	r	n/a
304.6795	0.0875	609359	keystroke_o	o	n/a
304.951	0.04	609902	keystroke_l	l	n/a
305.087	0.0965	610174	keystroke_l	l	n/a
305.3745	0.152	610749	keystroke_Key.space	Key.space	n/a
305.6865	0.104	611373	keystroke_f	f	n/a
305.9435	0.103	611887	keystroke_o	o	n/a
306.1425	0.096	612285	keystroke_r	r	n/a
306.2705	0.08	612541	keystroke_u	u	n/a
306.4705	0.1045	612941	keystroke_m	m	n/a
306.599	0.08	613198	keystroke_s	s	n/a
307.535	0.08	615070	keystroke_Key.enter	Key.enter	n/a
307.62	7.9165	615240	prompt	n/a	shake telecom presidential holocaust\n
308.3835	0.0955	616767	keystroke_s	s	n/a
308.4315	0.1275	616863	keystroke_h	h	n/a
308.583	0.072	617166	keystroke_a	a	n/a
308.711	0.104	617422	keystroke_k	k	n/a
308.791	0.128	617582	keystroke_e	e	n/a
308.911	0.144	617822	keystroke_Key.space	Key.space	n/a
309.127	0.136	618254	keystroke_t	t	n/a
309.231	0.128	618462	keystroke_e	e	n/a
309.415	0.104	618830	keystroke_l	l	n/a
309.631	0.104	619262	keystroke_e	e	n/a
309.911	0.096	619822	keystroke_c	c	n/a
309.991	0.0965	619982	keystroke_o	o	n/a
310.175	0.1045	620350	keystroke_m	m	n/a
310.807	0.128	621614	keystroke_Key.space	Key.space	n/a
311.023	0.096	622046	keystroke_p	p	n/a
311.111	0.136	622222	keystroke_r	r	n/a
311.2395	0.1595	622479	keystroke_e	e	n/a
311.679	0.088	623358	keystroke_s	s	n/a
311.9755	0.087	623951	keystroke_i	i	n/a
312.3025	0.12	624605	keystroke_d	d	n/a
312.383	0.1765	624766	keystroke_e	e	n/a
312.5345	0.121	625069	keystroke_n	n	n/a
312.6875	0.128	625375	keystroke_t	t	n/a
312.7835	0.1195	625567	keystroke_i	i	n/a
312.951	0.0955	625902	keystroke_a	a	n/a
313.0945	0.097	626189	keystroke_l	l	n/a
313.567	0.12	627134	keystroke_Key.space	Key.space	n/a
313.767	0.096	627534	keystroke_h	h	n/a
313.9115	0.1115	627823	keystroke_o	o	n/a
314.159	0.064	628318	keystroke_l	l	n/a
314.335	0.096	628670	keystroke_o	o	n/a
314.4865	0.1205	628973	keystroke_c	c	n/a
314.735	0.104	629470	keystroke_a	a	n/a
314.823	0.112	629646	keystroke_u	u	n/a
315.079	0.136	630158	keystroke_s	s	n/a
315.175	0.128	630350	keystroke_t	t	n/a
315.455	0.08	630910	keystroke_Key.enter	Key.enter	n/a
315.541	6.9255	631082	prompt	n/a	needle sides enjoying indeed\n
316.3595	0.095	632719	keystroke_n	n	n/a
316.5025	0.0485	633005	keystroke_e	e	n/a
316.6715	0.144	633343	keystroke_e	e	n/a
316.8305	0.088	633661	keystroke_d	d	n/a
316.9425	0.1125	633885	keystroke_l	l	n/a
317.0465	0.1605	634093	keystroke_e	e	n/a
317.1025	0.161	634205	keystroke_s	s	n/a
317.2545	0.104	634509	keystroke_Key.space	Key.space	n/a
317.639	0.072	635278	keystroke_Key.backspace	Key.backspace	n/a
317.8065	0.072	635613	keystroke_Key.backspace	Key.backspace	n/a
317.975	0.136	635950	keystroke_Key.space	Key.space	n/a
318.1755	0.1275	636351	keystroke_s	s	n/a
318.311	0.088	636622	keystroke_i	i	n/a
318.495	0.12	636990	keystroke_d	d	n/a
318.567	0.232	637134	keystroke_e	e	n/a
318.735	0.152	637470	keystroke_s	s	n/a
318.9585	0.1445	637917	keystroke_Key.space	Key.space	n/a
319.543	0.144	639086	keystroke_e	e	n/a
319.655	0.088	639310	keystroke_n	n	n/a
319.8555	0.152	639711	keystroke_j	j	n/a
319.9995	0.111	639999	keystroke_o	o	n/a
320.207	0.096	640414	keystroke_y	y	n/a
320.423	0.0645	640846	keystroke_i	i	n/a
320.535	0.112	641070	keystroke_n	n	n/a
320.615	0.128	641230	keystroke_g	g	n/a
320.7105	0.144	641421	keystroke_Key.space	Key.space	n/a
320.8635	0.088	641727	keystroke_i	i	n/a
321.023	0.1195	642046	keystroke_n	n	n/a
321.1505	0.096	642301	keystroke_d	d	n/a
321.3665	0.2805	642733	keystroke_e	e	n/a
321.935	0.096	643870	keystroke_e	e	n/a
322.031	0.0875	644062	keystroke_d	d	n/a
322.375	0.088	644750	keystroke_Key.enter	Key.enter	n/a
322.4705	8.474	644941	prompt	n/a	griffin break programme unnecessary\n
323.719	0.144	647438	keystroke_g	g	n/a
323.839	0.1515	647678	keystroke_r	r	n/a
324.0305	0.1125	648061	keystroke_i	i	n/a
324.3835	0.0715	648767	keystroke_f	f	n/a
324.567	0.0715	649134	keystroke_f	f	n/a
324.679	0.0955	649358	keystroke_i	i	n/a
324.8555	0.127	649711	keystroke_n	n	n/a
324.9345	0.2	649869	keystroke_Key.space	Key.space	n/a
325.1265	0.137	650253	keystroke_b	b	n/a
325.223	0.1915	650446	keystroke_r	r	n/a
325.3425	0.1125	650685	keystroke_e	e	n/a
325.4145	0.1525	650829	keystroke_a	a	n/a
325.527	0.112	651054	keystroke_k	k	n/a
325.623	0.1675	651246	keystroke_Key.space	Key.space	n/a
325.8225	0.1045	651645	keystroke_p	p	n/a
325.975	0.0955	651950	keystroke_r	r	n/a
326.063	0.088	652126	keystroke_o	o	n/a
326.3435	0.1195	652687	keystroke_g	g	n/a
326.5665	0.16	653133	keystroke_r	r	n/a
326.6945	0.128	653389	keystroke_a	a	n/a
326.8625	0.081	653725	keystroke_m	m	n/a
327.031	0.112	654062	keystroke_m	m	n/a
327.223	0.111	654446	keystroke_e	e	n/a
327.494	0.121	654988	keystroke_Key.space	Key.space	n/a
327.759	0.08	655518	keystroke_u	u	n/a
327.9505	0.08	655901	keystroke_n	n	n/a
328.111	0.1195	656222	keystroke_n	n	n/a
328.3995	0.143	656799	keystroke_e	e	n/a
328.567	0.1685	657134	keystroke_c	c	n/a
328.839	0.1275	657678	keystroke_e	e	n/a
329.1825	0.081	658365	keystroke_s	s	n/a
329.3675	0.087	658735	keystroke_s	s	n/a
329.4785	0.12	658957	keystroke_a	a	n/a
329.575	0.0875	659150	keystroke_r	r	n/a
330.295	0.12	660590	keystroke_y	y	n/a
330.855	0.0875	661710	keystroke_Key.enter	Key.enter	n/a
330.9485	5.252	661897	prompt	n/a	thru technology tour poland\n
331.559	0.12	663118	keystroke_t	t	n/a
331.727	0.1275	663454	keystroke_h	h	n/a
331.8625	0.096	663725	keystroke_r	r	n/a
331.9515	0.103	663903	keystroke_u	u	n/a
332.111	0.1595	664222	keystroke_Key.space	Key.space	n/a
332.3025	0.128	664605	keystroke_t	t	n/a
332.4225	0.1365	664845	keystroke_e	e	n/a
332.663	0.12	665326	keystroke_c	c	n/a
332.751	0.088	665502	keystroke_h	h	n/a
332.991	0.087	665982	keystroke_n	n	n/a
333.151	0.1045	666302	keystroke_o	o	n/a
333.367	0.071	666734	keystroke_l	l	n/a
333.543	0.08	667086	keystroke_o	o	n/a
333.631	0.1035	667262	keystroke_g	g	n/a
333.7425	0.12	667485	keystroke_y	y	n/a
333.8945	0.1365	667789	keystroke_Key.space	Key.space	n/a
334.159	0.0955	668318	keystroke_t	t	n/a
334.311	0.0875	668622	keystroke_o	o	n/a
334.503	0.096	669006	keystroke_u	u	n/a
334.6155	0.1035	669231	keystroke_r	r	n/a
334.7265	0.152	669453	keystroke_Key.space	Key.space	n/a
335.159	0.0795	670318	keystroke_p	p	n/a
335.295	0.0955	670590	keystroke_o	o	n/a
335.5185	0.0885	671037	keystroke_l	l	n/a
335.655	0.0795	671310	keystroke_a	a	n/a
335.7505	0.128	671501	keystroke_n	n	n/a
335.8465	0.088	671693	keystroke_d	d	n/a
336.1105	0.088	672221	keystroke_Key.enter	Key.enter	n/a
336.2045	6.108	672409	prompt	n/a	less changing spot memory\n
336.807	0.1115	673614	keystroke_l	l	n/a
336.9585	0.1445	673917	keystroke_e	e	n/a
337.0625	0.096	674125	keystroke_s	s	n/a
337.2545	0.1125	674509	keystroke_s	s	n/a
337.351	0.144	674702	keystroke_Key.space	Key.space	n/a
337.8225	0.112	675645	keystroke_c	c	n/a
337.919	0.104	675838	keystroke_h	h	n/a
338.031	0.096	676062	keystroke_a	a	n/a
338.15	0.0965	676300	keystroke_n	n	n/a
338.359	0.088	676718	keystroke_i	i	n/a
338.502	0.08	677004	keystroke_g	g	n/a
338.559	0.1275	677118	keystroke_n	n	n/a
339.1745	0.048	678349	keystroke_Key.backspace	Key.backspace	n/a
339.3265	0.072	678653	keystroke_Key.backspace	Key.backspace	n/a
339.591	0.1035	679182	keystroke_Key.backspace	Key.backspace	n/a
339.7905	0.096	679581	keystroke_g	g	n/a
339.9105	0.088	679821	keystroke_i	i	n/a
340.087	0.1115	680174	keystroke_n	n	n/a
340.1905	0.096	680381	keystroke_g	g	n/a
340.2545	0.144	680509	keystroke_Key.space	Key.space	n/a
340.5185	0.12	681037	keystroke_s	s	n/a
340.5905	0.1125	681181	keystroke_p	p	n/a
340.6385	0.1595	681277	keystroke_o	o	n/a
340.791	0.104	681582	keystroke_t	t	n/a
340.886	0.1525	681772	keystroke_Key.space	Key.space	n/a
341.119	0.112	682238	keystroke_m	m	n/a
341.263	0.119	682526	keystroke_e	e	n/a
341.39	0.121	682780	keystroke_m	m	n/a
341.574	0.12	683148	keystroke_o	o	n/a
341.743	0.136	683486	keystroke_r	r	n/a
341.854	0.105	683708	keystroke_y	y	n/a
342.2385	0.0725	684477	keystroke_Key.enter	Key.enter	n/a
342.316	6.4845	684632	prompt	n/a	twenty collins commercial square\n
342.919	0.1035	685838	keystroke_t	t	n/a
343.1665	0.12	686333	keystroke_w	w	n/a
343.4625	0.152	686925	keystroke_e	e	n/a
343.5905	0.104	687181	keystroke_n	n	n/a
343.7265	0.1195	687453	keystroke_t	t	n/a
344.046	0.12	688092	keystroke_y	y	n/a
344.222	0.144	688444	keystroke_Key.space	Key.space	n/a
344.438	0.128	688876	keystroke_c	c	n/a
344.5025	0.096	689005	keystroke_o	o	n/a
344.735	0.0715	689470	keystroke_l	l	n/a
344.879	0.0715	689758	keystroke_l	l	n/a
345.04	0.095	690080	keystroke_i	i	n/a
345.166	0.121	690332	keystroke_a	a	n/a
345.263	0.12	690526	keystroke_n	n	n/a
345.391	0.128	690782	keystroke_s	s	n/a
345.487	0.1515	690974	keystroke_Key.space	Key.space	n/a
345.6945	0.12	691389	keystroke_c	c	n/a
345.7745	0.064	691549	keystroke_o	o	n/a
345.9585	0.088	691917	keystroke_m	m	n/a
346.1185	0.12	692237	keystroke_m	m	n/a
346.2225	0.0965	692445	keystroke_e	e	n/a
346.2785	0.128	692557	keystroke_r	r	n/a
346.6785	0.136	693357	keystroke_c	c	n/a
346.823	0.0635	693646	keystroke_i	i	n/a
346.9665	0.08	693933	keystroke_a	a	n/a
347.1185	0.096	694237	keystroke_l	l	n/a
347.2065	0.152	694413	keystroke_Key.space	Key.space	n/a
347.551	0.0635	695102	keystroke_s	s	n/a
347.8065	0.12	695613	keystroke_q	q	n/a
347.943	0.1035	695886	keystroke_u	u	n/a
348.1425	0.136	696285	keystroke_a	a	n/a
348.295	0.0875	696590	keystroke_r	r	n/a
348.3425	0.128	696685	keystroke_e	e	n/a
348.6785	0.12	697357	keystroke_Key.enter	Key.enter	n/a
348.8045	4.14	697609	prompt	n/a	against nutten sony army\n
349.415	0.0795	698830	keystroke_a	a	n/a
349.6305	0.112	699261	keystroke_g	g	n/a
349.8385	0.088	699677	keystroke_a	a	n/a
349.9105	0.096	699821	keystroke_i	i	n/a
350.0545	0.136	700109	keystroke_n	n	n/a
350.1425	0.128	700285	keystroke_s	s	n/a
350.223	0.152	700446	keystroke_t	t	n/a
350.3105	0.152	700621	keystroke_Key.space	Key.space	n/a
350.4945	0.1195	700989	keystroke_n	n	n/a
350.6065	0.105	701213	keystroke_u	u	n/a
350.7185	0.072	701437	keystroke_t	t	n/a
350.8785	0.096	701757	keystroke_t	t	n/a
350.9585	0.144	701917	keystroke_e	e	n/a
351.0705	0.128	702141	keystroke_n	n	n/a
351.1985	0.168	702397	keystroke_Key.space	Key.space	n/a
351.3745	0.12	702749	keystroke_s	s	n/a
351.471	0.0715	702942	keystroke_o	o	n/a
351.6145	0.104	703229	keystroke_n	n	n/a
351.742	0.1285	703484	keystroke_y	y	n/a
351.9025	0.152	703805	keystroke_Key.space	Key.space	n/a
352.0705	0.128	704141	keystroke_a	a	n/a
352.1825	0.1115	704365	keystroke_r	r	n/a
352.295	0.08	704590	keystroke_m	m	n/a
352.463	0.103	704926	keystroke_y	y	n/a
352.854	0.0885	705708	keystroke_Key.enter	Key.enter	n/a
352.9515	6.065	705903	prompt	n/a	going myanmar couples seats\n
353.6705	0.088	707341	keystroke_g	g	n/a
353.7595	0.1345	707519	keystroke_o	o	n/a
353.831	0.127	707662	keystroke_i	i	n/a
353.999	0.144	707998	keystroke_n	n	n/a
354.127	0.111	708254	keystroke_g	g	n/a
354.174	0.1525	708348	keystroke_Key.space	Key.space	n/a
354.4545	0.104	708909	keystroke_m	m	n/a
354.6705	0.128	709341	keystroke_y	y	n/a
354.8065	0.088	709613	keystroke_a	a	n/a
354.9425	0.096	709885	keystroke_n	n	n/a
355.3345	0.096	710669	keystroke_m	m	n/a
355.662	0.088	711324	keystroke_a	a	n/a
355.9585	0.0795	711917	keystroke_r	r	n/a
356.086	0.1365	712172	keystroke_Key.space	Key.space	n/a
356.3745	0.103	712749	keystroke_c	c	n/a
356.4535	0.089	712907	keystroke_o	o	n/a
356.6225	0.088	713245	keystroke_u	u	n/a
356.8385	0.096	713677	keystroke_p	p	n/a
357.1425	0.08	714285	keystroke_l	l	n/a
357.319	0.1195	714638	keystroke_e	e	n/a
357.3905	0.136	714781	keystroke_s	s	n/a
357.5905	0.16	715181	keystroke_Key.space	Key.space	n/a
357.8785	0.064	715757	keystroke_s	s	n/a
358.238	0.137	716476	keystroke_e	e	n/a
358.3825	0.0875	716765	keystroke_a	a	n/a
358.566	0.144	717132	keystroke_t	t	n/a
358.647	0.136	717294	keystroke_s	s	n/a
358.95	0.064	717900	keystroke_Key.enter	Key.enter	n/a
359.0205	4.7715	718041	prompt	n/a	retired wheels shell whose\n
359.59	0.1285	719180	keystroke_r	r	n/a
359.75	0.121	719500	keystroke_e	e	n/a
359.878	0.104	719756	keystroke_t	t	n/a
360.006	0.112	720012	keystroke_i	i	n/a
360.134	0.096	720268	keystroke_r	r	n/a
360.214	0.193	720428	keystroke_e	e	n/a
360.408	0.086	720816	keystroke_d	d	n/a
360.494	0.1525	720988	keystroke_Key.space	Key.space	n/a
360.8225	0.088	721645	keystroke_w	w	n/a
360.9265	0.096	721853	keystroke_h	h	n/a
361.07	0.0805	722140	keystroke_e	e	n/a
361.2545	0.0635	722509	keystroke_e	e	n/a
361.334	0.121	722668	keystroke_l	l	n/a
361.487	0.0875	722974	keystroke_s	s	n/a
361.5665	0.16	723133	keystroke_Key.space	Key.space	n/a
361.806	0.104	723612	keystroke_s	s	n/a
361.911	0.087	723822	keystroke_h	h	n/a
362.0385	0.0875	724077	keystroke_e	e	n/a
362.1425	0.0955	724285	keystroke_l	l	n/a
362.3105	0.1115	724621	keystroke_l	l	n/a
362.4545	0.1515	724909	keystroke_Key.space	Key.space	n/a
362.7495	0.073	725499	keystroke_w	w	n/a
362.7985	0.1125	725597	keystroke_h	h	n/a
362.9745	0.1115	725949	keystroke_o	o	n/a
363.11	0.1275	726220	keystroke_s	s	n/a
363.1815	0.144	726363	keystroke_e	e	n/a
363.7185	0.0715	727437	keystroke_Key.enter	Key.enter	n/a
363.7965	7.0355	727593	prompt	n/a	keeps filed ment mystery\n
364.4145	0.12	728829	keystroke_k	k	n/a
364.6385	0.0725	729277	keystroke_e	e	n/a
364.806	0.0725	729612	keystroke_e	e	n/a
364.8945	0.1035	729789	keystroke_p	p	n/a
365.0305	0.1035	730061	keystroke_s	s	n/a
365.158	0.184	730316	keystroke_Key.space	Key.space	n/a
365.582	0.104	731164	keystroke_i	i	n/a
366.078	0.112	732156	keystroke_Key.backspace	Key.backspace	n/a
366.5825	0.0955	733165	keystroke_f	f	n/a
366.679	0.095	733358	keystroke_i	i	n/a
366.9895	0.0725	733979	keystroke_l	l	n/a
367.0785	0.1595	734157	keystroke_e	e	n/a
367.2305	0.103	734461	keystroke_d	d	n/a
367.494	0.136	734988	keystroke_Key.space	Key.space	n/a
367.694	0.112	735388	keystroke_m	m	n/a
367.798	0.152	735596	keystroke_e	e	n/a
367.926	0.1045	735852	keystroke_n	n	n/a
368.014	0.136	736028	keystroke_t	t	n/a
368.1415	0.1205	736283	keystroke_Key.space	Key.space	n/a
368.3665	0.063	736733	keystroke_m	m	n/a
368.5745	0.096	737149	keystroke_y	y	n/a
368.6705	0.136	737341	keystroke_s	s	n/a
368.8065	0.112	737613	keystroke_t	t	n/a
368.927	0.1595	737854	keystroke_e	e	n/a
369.0465	0.12	738093	keystroke_r	r	n/a
369.1345	0.143	738269	keystroke_y	y	n/a
370.6935	0.136	741387	keystroke_Key.enter	Key.enter	n/a
370.836	7.1475	741672	prompt	n/a	flexible blocks experiencing airplane\n
371.686	0.1365	743372	keystroke_f	f	n/a
371.8865	0.096	743773	keystroke_l	l	n/a
372.0375	0.048	744075	keystroke_e	e	n/a
372.3345	0.112	744669	keystroke_x	x	n/a
372.4385	0.104	744877	keystroke_i	i	n/a
372.7265	0.0875	745453	keystroke_b	b	n/a
372.9585	0.0955	745917	keystroke_l	l	n/a
373.07	0.12	746140	keystroke_e	e	n/a
373.31	0.152	746620	keystroke_Key.space	Key.space	n/a
373.614	0.08	747228	keystroke_b	b	n/a
373.798	0.072	747596	keystroke_l	l	n/a
373.9825	0.0635	747965	keystroke_o	o	n/a
374.0385	0.1275	748077	keystroke_c	c	n/a
374.182	0.1045	748364	keystroke_k	k	n/a
374.318	0.112	748636	keystroke_s	s	n/a
374.39	0.1755	748780	keystroke_Key.space	Key.space	n/a
374.598	0.088	749196	keystroke_e	e	n/a
374.846	0.104	749692	keystroke_x	x	n/a
374.9425	0.104	749885	keystroke_p	p	n/a
375.1265	0.135	750253	keystroke_e	e	n/a
375.2135	0.176	750427	keystroke_r	r	n/a
375.382	0.088	750764	keystroke_i	i	n/a
375.51	0.1355	751020	keystroke_e	e	n/a
375.6145	0.119	751229	keystroke_n	n	n/a
375.8135	0.073	751627	keystroke_c	c	n/a
376.1015	0.064	752203	keystroke_i	i	n/a
376.238	0.1195	752476	keystroke_n	n	n/a
376.3255	0.112	752651	keystroke_g	g	n/a
376.3975	0.168	752795	keystroke_Key.space	Key.space	n/a
376.6375	0.0965	753275	keystroke_a	a	n/a
376.71	0.088	753420	keystroke_i	i	n/a
376.838	0.088	753676	keystroke_r	r	n/a
376.998	0.072	753996	keystroke_p	p	n/a
377.246	0.08	754492	keystroke_l	l	n/a
377.366	0.0725	754732	keystroke_a	a	n/a
377.4865	0.103	754973	keystroke_n	n	n/a
377.5815	0.104	755163	keystroke_e	e	n/a
377.902	0.08	755804	keystroke_Key.enter	Key.enter	n/a
377.9955	7.4045	755991	prompt	n/a	enzyme prepaid accepted arrives\n
378.7825	0.055	757565	keystroke_e	e	n/a
379.094	0.1045	758188	keystroke_n	n	n/a
379.6385	0.0635	759277	keystroke_z	z	n/a
379.8695	0.1205	759739	keystroke_y	y	n/a
380.1905	0.1115	760381	keystroke_m	m	n/a
380.3415	0.128	760683	keystroke_e	e	n/a
380.4705	0.1595	760941	keystroke_Key.space	Key.space	n/a
380.702	0.096	761404	keystroke_p	p	n/a
380.83	0.16	761660	keystroke_r	r	n/a
380.934	0.128	761868	keystroke_e	e	n/a
381.126	0.072	762252	keystroke_p	p	n/a
381.246	0.136	762492	keystroke_a	a	n/a
381.3665	0.103	762733	keystroke_i	i	n/a
381.4945	0.127	762989	keystroke_d	d	n/a
381.5975	0.112	763195	keystroke_Key.space	Key.space	n/a
382.03	0.072	764060	keystroke_a	a	n/a
382.214	0.08	764428	keystroke_c	c	n/a
382.382	0.128	764764	keystroke_c	c	n/a
382.4785	0.1675	764957	keystroke_e	e	n/a
382.67	0.096	765340	keystroke_p	p	n/a
382.726	0.1355	765452	keystroke_t	t	n/a
382.974	0.1445	765948	keystroke_e	e	n/a
383.1255	0.104	766251	keystroke_d	d	n/a
383.238	0.1195	766476	keystroke_Key.space	Key.space	n/a
383.4615	0.1205	766923	keystroke_a	a	n/a
383.59	0.2325	767180	keystroke_r	r	n/a
384.5985	0.1035	769197	keystroke_r	r	n/a
384.79	0.096	769580	keystroke_i	i	n/a
384.894	0.1365	769788	keystroke_v	v	n/a
385.006	0.128	770012	keystroke_e	e	n/a
385.086	0.128	770172	keystroke_s	s	n/a
385.3095	0.088	770619	keystroke_Key.enter	Key.enter	n/a
385.404	11.3155	770808	prompt	n/a	ringtone date continent mailed\n
385.902	0.048	771804	keystroke_e	e	n/a
386.2295	0.072	772459	keystroke_Key.backspace	Key.backspace	n/a
386.4135	0.08	772827	keystroke_r	r	n/a
386.5015	0.0805	773003	keystroke_i	i	n/a
386.6775	0.104	773355	keystroke_n	n	n/a
386.734	0.088	773468	keystroke_g	g	n/a
387.094	0.064	774188	keystroke_o	o	n/a
387.414	0.0715	774828	keystroke_Key.backspace	Key.backspace	n/a
387.5025	0.167	775005	keystroke_t	t	n/a
387.6705	0.087	775341	keystroke_o	o	n/a
387.8535	0.121	775707	keystroke_n	n	n/a
387.9505	0.103	775901	keystroke_e	e	n/a
388.0455	0.16	776091	keystroke_Key.space	Key.space	n/a
388.4145	0.119	776829	keystroke_d	d	n/a
388.542	0.128	777084	keystroke_a	a	n/a
388.75	0.12	777500	keystroke_t	t	n/a
388.83	0.144	777660	keystroke_e	e	n/a
388.99	0.144	777980	keystroke_Key.space	Key.space	n/a
389.158	0.128	778316	keystroke_c	c	n/a
389.246	0.064	778492	keystroke_o	o	n/a
389.406	0.104	778812	keystroke_n	n	n/a
389.59	0.1275	779180	keystroke_t	t	n/a
389.7575	0.104	779515	keystroke_i	i	n/a
389.87	0.152	779740	keystroke_e	e	n/a
389.966	0.1195	779932	keystroke_n	n	n/a
390.0855	0.137	780171	keystroke_t	t	n/a
390.5495	0.112	781099	keystroke_Key.space	Key.space	n/a
390.71	0.1275	781420	keystroke_m	m	n/a
390.8455	0.097	781691	keystroke_a	a	n/a
390.9735	0.1285	781947	keystroke_i	i	n/a
391.094	0.1285	782188	keystroke_l	l	n/a
391.19	0.128	782380	keystroke_e	e	n/a
391.302	0.096	782604	keystroke_d	d	n/a
392.5495	0.0795	785099	keystroke_Key.backspace	Key.backspace	n/a
392.733	0.0645	785466	keystroke_Key.backspace	Key.backspace	n/a
392.917	0.056	785834	keystroke_Key.backspace	Key.backspace	n/a
393.085	0.072	786170	keystroke_Key.backspace	Key.backspace	n/a
393.269	0.0805	786538	keystroke_Key.backspace	Key.backspace	n/a
393.4535	0.072	786907	keystroke_Key.backspace	Key.backspace	n/a
393.638	0.0715	787276	keystroke_Key.backspace	Key.backspace	n/a
393.822	0.072	787644	keystroke_Key.backspace	Key.backspace	n/a
393.998	0.072	787996	keystroke_Key.backspace	Key.backspace	n/a
394.158	0.096	788316	keystroke_Key.backspace	Key.backspace	n/a
394.518	0.152	789036	keystroke_n	n	n/a
394.67	0.159	789340	keystroke_e	e	n/a
394.926	0.072	789852	keystroke_n	n	n/a
395.1495	0.1125	790299	keystroke_t	t	n/a
395.6695	0.128	791339	keystroke_Key.space	Key.space	n/a
395.902	0.088	791804	keystroke_m	m	n/a
395.9975	0.08	791995	keystroke_a	a	n/a
396.07	0.12	792140	keystroke_i	i	n/a
396.222	0.144	792444	keystroke_l	l	n/a
396.326	0.104	792652	keystroke_e	e	n/a
396.414	0.103	792828	keystroke_d	d	n/a
396.6375	0.0795	793275	keystroke_Key.enter	Key.enter	n/a
396.7245	9.9635	793449	prompt	n/a	ordinary suddenly attendance joan\n
397.3015	0.104	794603	keystroke_o	o	n/a
397.43	0.1195	794860	keystroke_r	r	n/a
397.6705	0.135	795341	keystroke_d	d	n/a
397.8615	0.089	795723	keystroke_i	i	n/a
398.0855	0.096	796171	keystroke_n	n	n/a
398.198	0.12	796396	keystroke_a	a	n/a
398.3015	0.136	796603	keystroke_r	r	n/a
398.4295	0.136	796859	keystroke_y	y	n/a
398.7575	0.128	797515	keystroke_Key.space	Key.space	n/a
398.9175	0.096	797835	keystroke_s	s	n/a
398.9735	0.073	797947	keystroke_u	u	n/a
399.1495	0.0875	798299	keystroke_n	n	n/a
399.525	0.072	799050	keystroke_Key.backspace	Key.backspace	n/a
399.654	0.072	799308	keystroke_d	d	n/a
399.822	0.096	799644	keystroke_d	d	n/a
400.006	0.1115	800012	keystroke_e	e	n/a
400.07	0.088	800140	keystroke_n	n	n/a
400.2465	0.0955	800493	keystroke_l	l	n/a
400.493	0.064	800986	keystroke_y	y	n/a
400.59	0.119	801180	keystroke_Key.space	Key.space	n/a
400.726	0.088	801452	keystroke_a	a	n/a
400.8615	0.0965	801723	keystroke_t	t	n/a
401.038	0.104	802076	keystroke_t	t	n/a
401.1255	0.136	802251	keystroke_e	e	n/a
401.246	0.1195	802492	keystroke_n	n	n/a
401.5015	0.112	803003	keystroke_a	a	n/a
401.7185	0.087	803437	keystroke_n	n	n/a
401.7985	0.111	803597	keystroke_c	c	n/a
401.8775	0.113	803755	keystroke_e	e	n/a
402.062	0.1595	804124	keystroke_Key.space	Key.space	n/a
402.214	0.1435	804428	keystroke_j	j	n/a
402.3735	0.096	804747	keystroke_o	o	n/a
402.4855	0.096	804971	keystroke_a	a	n/a
402.5895	0.1205	805179	keystroke_n	n	n/a
403.662	0.08	807324	keystroke_Key.backspace	Key.backspace	n/a
403.854	0.08	807708	keystroke_Key.backspace	Key.backspace	n/a
404.046	0.064	808092	keystroke_Key.backspace	Key.backspace	n/a
404.214	0.08	808428	keystroke_Key.backspace	Key.backspace	n/a
404.39	0.08	808780	keystroke_Key.backspace	Key.backspace	n/a
404.566	0.079	809132	keystroke_Key.backspace	Key.backspace	n/a
404.742	0.0795	809484	keystroke_Key.backspace	Key.backspace	n/a
404.9095	0.064	809819	keystroke_Key.backspace	Key.backspace	n/a
405.0615	0.112	810123	keystroke_Key.backspace	Key.backspace	n/a
405.2135	0.1045	810427	keystroke_d	d	n/a
405.326	0.1035	810652	keystroke_a	a	n/a
405.4855	0.136	810971	keystroke_n	n	n/a
405.6535	0.104	811307	keystroke_c	c	n/a
405.718	0.1195	811436	keystroke_e	e	n/a
405.8215	0.152	811643	keystroke_Key.space	Key.space	n/a
405.9495	0.1365	811899	keystroke_j	j	n/a
406.07	0.096	812140	keystroke_o	o	n/a
406.19	0.112	812380	keystroke_a	a	n/a
406.278	0.1195	812556	keystroke_n	n	n/a
406.5975	0.0885	813195	keystroke_Key.enter	Key.enter	n/a
406.692	8.2595	813384	prompt	n/a	focuses automobile algorithms eliminate\n
407.558	0.048	815116	keystroke_f	f	n/a
407.598	0.104	815196	keystroke_o	o	n/a
407.8135	0.1285	815627	keystroke_c	c	n/a
407.8935	0.1045	815787	keystroke_u	u	n/a
408.102	0.1115	816204	keystroke_s	s	n/a
408.1975	0.152	816395	keystroke_e	e	n/a
408.3095	0.1205	816619	keystroke_s	s	n/a
408.51	0.16	817020	keystroke_Key.space	Key.space	n/a
408.934	0.1035	817868	keystroke_a	a	n/a
409.03	0.0955	818060	keystroke_u	u	n/a
409.1655	0.112	818331	keystroke_t	t	n/a
409.3015	0.088	818603	keystroke_o	o	n/a
409.454	0.1275	818908	keystroke_m	m	n/a
409.7895	0.056	819579	keystroke_o	o	n/a
410.4935	0.0965	820987	keystroke_b	b	n/a
410.6855	0.1365	821371	keystroke_i	i	n/a
410.7815	0.1365	821563	keystroke_l	l	n/a
410.918	0.1435	821836	keystroke_e	e	n/a
411.0135	0.176	822027	keystroke_Key.space	Key.space	n/a
411.246	0.1115	822492	keystroke_a	a	n/a
411.3655	0.0965	822731	keystroke_l	l	n/a
411.662	0.1275	823324	keystroke_g	g	n/a
411.7975	0.096	823595	keystroke_o	o	n/a
412.246	0.1035	824492	keystroke_r	r	n/a
412.5575	0.1045	825115	keystroke_i	i	n/a
412.6775	0.1275	825355	keystroke_t	t	n/a
412.789	0.089	825578	keystroke_h	h	n/a
413.038	0.112	826076	keystroke_m	m	n/a
413.166	0.096	826332	keystroke_s	s	n/a
413.294	0.144	826588	keystroke_Key.space	Key.space	n/a
413.43	0.12	826860	keystroke_e	e	n/a
413.573	0.081	827146	keystroke_l	l	n/a
413.726	0.08	827452	keystroke_i	i	n/a
413.854	0.136	827708	keystroke_m	m	n/a
413.966	0.12	827932	keystroke_i	i	n/a
414.158	0.12	828316	keystroke_n	n	n/a
414.286	0.088	828572	keystroke_a	a	n/a
414.413	0.137	828826	keystroke_t	t	n/a
414.582	0.1355	829164	keystroke_e	e	n/a
414.862	0.0875	829724	keystroke_Key.enter	Key.enter	n/a
414.9555	6.8035	829911	prompt	n/a	modification evanescence scout ages\n
415.662	0.191	831324	keystroke_m	m	n/a
415.83	0.128	831660	keystroke_o	o	n/a
416.006	0.095	832012	keystroke_d	d	n/a
416.126	0.112	832252	keystroke_i	i	n/a
416.261	0.081	832522	keystroke_f	f	n/a
416.35	0.104	832700	keystroke_i	i	n/a
416.502	0.12	833004	keystroke_c	c	n/a
416.646	0.143	833292	keystroke_a	a	n/a
416.8055	0.1205	833611	keystroke_t	t	n/a
416.8535	0.1355	833707	keystroke_i	i	n/a
416.9335	0.128	833867	keystroke_o	o	n/a
417.062	0.128	834124	keystroke_n	n	n/a
417.149	0.153	834298	keystroke_Key.space	Key.space	n/a
417.342	0.0955	834684	keystroke_e	e	n/a
417.598	0.0795	835196	keystroke_v	v	n/a
417.79	0.0955	835580	keystroke_a	a	n/a
417.8615	0.1205	835723	keystroke_n	n	n/a
418.1415	0.2005	836283	keystroke_e	e	n/a
418.542	0.088	837084	keystroke_s	s	n/a
418.886	0.111	837772	keystroke_c	c	n/a
419.03	0.128	838060	keystroke_e	e	n/a
419.158	0.112	838316	keystroke_n	n	n/a
419.534	0.12	839068	keystroke_c	c	n/a
419.614	0.119	839228	keystroke_e	e	n/a
419.7495	0.1765	839499	keystroke_Key.space	Key.space	n/a
420.149	0.048	840298	keystroke_s	s	n/a
420.47	0.0955	840940	keystroke_c	c	n/a
420.5665	0.063	841133	keystroke_o	o	n/a
420.7095	0.104	841419	keystroke_u	u	n/a
420.8375	0.112	841675	keystroke_t	t	n/a
420.9095	0.1605	841819	keystroke_Key.space	Key.space	n/a
421.085	0.064	842170	keystroke_a	a	n/a
421.27	0.143	842540	keystroke_g	g	n/a
421.398	0.135	842796	keystroke_e	e	n/a
421.4695	0.1285	842939	keystroke_s	s	n/a
421.6935	0.064	843387	keystroke_Key.enter	Key.enter	n/a
421.763	8.732	843526	prompt	n/a	communist judgment pound documented\n
422.374	0.0715	844748	keystroke_c	c	n/a
422.4375	0.1035	844875	keystroke_o	o	n/a
422.67	0.08	845340	keystroke_m	m	n/a
422.8375	0.0885	845675	keystroke_m	m	n/a
423.006	0.088	846012	keystroke_u	u	n/a
423.198	0.088	846396	keystroke_n	n	n/a
423.3895	0.1045	846779	keystroke_i	i	n/a
423.606	0.104	847212	keystroke_s	s	n/a
423.693	0.1285	847386	keystroke_t	t	n/a
423.8615	0.152	847723	keystroke_Key.space	Key.space	n/a
424.2535	0.072	848507	keystroke_j	j	n/a
424.4375	0.096	848875	keystroke_u	u	n/a
424.55	0.0635	849100	keystroke_d	d	n/a
424.9735	0.096	849947	keystroke_g	g	n/a
425.102	0.071	850204	keystroke_m	m	n/a
425.245	0.1525	850490	keystroke_e	e	n/a
425.3415	0.128	850683	keystroke_n	n	n/a
425.421	0.16	850842	keystroke_t	t	n/a
425.525	0.1845	851050	keystroke_Key.space	Key.space	n/a
425.742	0.104	851484	keystroke_p	p	n/a
425.933	0.12	851866	keystroke_o	o	n/a
426.126	0.111	852252	keystroke_u	u	n/a
426.302	0.039	852604	keystroke_d	d	n/a
426.349	0.136	852698	keystroke_Key.space	Key.space	n/a
426.621	0.073	853242	keystroke_d	d	n/a
426.789	0.08	853578	keystroke_o	o	n/a
427.189	0.0725	854378	keystroke_Key.backspace	Key.backspace	n/a
427.3655	0.064	854731	keystroke_Key.backspace	Key.backspace	n/a
427.525	0.072	855050	keystroke_Key.backspace	Key.backspace	n/a
427.685	0.088	855370	keystroke_Key.backspace	Key.backspace	n/a
427.966	0.096	855932	keystroke_n	n	n/a
428.413	0.056	856826	keystroke_d	d	n/a
428.5895	0.1435	857179	keystroke_Key.space	Key.space	n/a
428.8855	0.08	857771	keystroke_d	d	n/a
428.9655	0.12	857931	keystroke_o	o	n/a
429.1335	0.12	858267	keystroke_c	c	n/a
429.245	0.0805	858490	keystroke_u	u	n/a
429.461	0.112	858922	keystroke_m	m	n/a
429.581	0.1765	859162	keystroke_e	e	n/a
429.702	0.127	859404	keystroke_n	n	n/a
429.765	0.1285	859530	keystroke_t	t	n/a
429.934	0.143	859868	keystroke_e	e	n/a
430.07	0.087	860140	keystroke_d	d	n/a
430.4055	0.088	860811	keystroke_Key.enter	Key.enter	n/a
430.4985	6.2685	860997	prompt	n/a	certificate invitation retained treaty\n
431.102	0.1035	862204	keystroke_c	c	n/a
431.317	0.153	862634	keystroke_e	e	n/a
431.413	0.1275	862826	keystroke_r	r	n/a
431.6445	0.089	863289	keystroke_t	t	n/a
431.749	0.1195	863498	keystroke_i	i	n/a
431.8925	0.089	863785	keystroke_f	f	n/a
431.9895	0.088	863979	keystroke_i	i	n/a
432.1245	0.1125	864249	keystroke_c	c	n/a
432.2295	0.1035	864459	keystroke_a	a	n/a
432.413	0.1045	864826	keystroke_t	t	n/a
432.493	0.1605	864986	keystroke_e	e	n/a
432.6695	0.12	865339	keystroke_Key.space	Key.space	n/a
432.7975	0.088	865595	keystroke_i	i	n/a
432.9895	0.112	865979	keystroke_n	n	n/a
433.1175	0.104	866235	keystroke_v	v	n/a
433.214	0.0955	866428	keystroke_i	i	n/a
433.4855	0.112	866971	keystroke_t	t	n/a
433.6535	0.112	867307	keystroke_a	a	n/a
433.7575	0.1035	867515	keystroke_t	t	n/a
433.8055	0.1275	867611	keystroke_i	i	n/a
433.8855	0.1285	867771	keystroke_o	o	n/a
434.006	0.1115	868012	keystroke_n	n	n/a
434.085	0.168	868170	keystroke_Key.space	Key.space	n/a
434.206	0.135	868412	keystroke_r	r	n/a
434.3015	0.1755	868603	keystroke_e	e	n/a
434.469	0.1205	868938	keystroke_t	t	n/a
434.6775	0.088	869355	keystroke_a	a	n/a
434.7665	0.135	869533	keystroke_i	i	n/a
434.8775	0.112	869755	keystroke_n	n	n/a
435.021	0.1365	870042	keystroke_e	e	n/a
435.1415	0.1035	870283	keystroke_d	d	n/a
435.229	0.184	870458	keystroke_Key.space	Key.space	n/a
435.5255	0.112	871051	keystroke_t	t	n/a
435.773	0.1525	871546	keystroke_r	r	n/a
435.869	0.168	871738	keystroke_e	e	n/a
436.013	0.185	872026	keystroke_a	a	n/a
436.293	0.128	872586	keystroke_t	t	n/a
436.358	0.135	872716	keystroke_y	y	n/a
436.685	0.08	873370	keystroke_Key.enter	Key.enter	n/a
436.7735	5.122	873547	prompt	n/a	hack selection feel family\n
437.3815	0.1355	874763	keystroke_h	h	n/a
437.541	0.088	875082	keystroke_a	a	n/a
437.7255	0.135	875451	keystroke_c	c	n/a
437.781	0.1045	875562	keystroke_k	k	n/a
437.8525	0.1605	875705	keystroke_Key.space	Key.space	n/a
438.021	0.0885	876042	keystroke_s	s	n/a
438.2375	0.096	876475	keystroke_e	e	n/a
438.3655	0.104	876731	keystroke_l	l	n/a
438.4455	0.1515	876891	keystroke_e	e	n/a
438.589	0.088	877178	keystroke_c	c	n/a
438.853	0.12	877706	keystroke_t	t	n/a
438.909	0.1285	877818	keystroke_i	i	n/a
438.982	0.143	877964	keystroke_o	o	n/a
439.109	0.12	878218	keystroke_n	n	n/a
439.189	0.136	878378	keystroke_Key.space	Key.space	n/a
439.437	0.08	878874	keystroke_f	f	n/a
439.541	0.104	879082	keystroke_e	e	n/a
439.917	0.0565	879834	keystroke_e	e	n/a
440.013	0.1125	880026	keystroke_l	l	n/a
440.1415	0.0875	880283	keystroke_Key.space	Key.space	n/a
440.469	0.08	880938	keystroke_f	f	n/a
440.6935	0.167	881387	keystroke_a	a	n/a
440.8215	0.151	881643	keystroke_m	m	n/a
440.9335	0.152	881867	keystroke_i	i	n/a
441.0055	0.136	882011	keystroke_l	l	n/a
441.2295	0.08	882459	keystroke_y	y	n/a
441.8125	0.0805	883625	keystroke_Key.enter	Key.enter	n/a
441.899	10.612	883798	prompt	n/a	scheduled follow likelihood institutional\n
442.7415	0.088	885483	keystroke_s	s	n/a
442.9335	0.104	885867	keystroke_c	c	n/a
443.061	0.12	886122	keystroke_h	h	n/a
443.197	0.144	886394	keystroke_e	e	n/a
443.3015	0.112	886603	keystroke_d	d	n/a
443.429	0.104	886858	keystroke_u	u	n/a
443.669	0.0965	887338	keystroke_l	l	n/a
443.773	0.136	887546	keystroke_e	e	n/a
443.901	0.0965	887802	keystroke_d	d	n/a
444.3495	0.144	888699	keystroke_Key.space	Key.space	n/a
444.6055	0.119	889211	keystroke_f	f	n/a
444.6855	0.072	889371	keystroke_o	o	n/a
444.8935	0.056	889787	keystroke_l	l	n/a
445.0375	0.072	890075	keystroke_l	l	n/a
445.2285	0.104	890457	keystroke_o	o	n/a
445.645	0.128	891290	keystroke_w	w	n/a
445.845	0.1595	891690	keystroke_Key.space	Key.space	n/a
446.2125	0.0805	892425	keystroke_l	l	n/a
446.357	0.104	892714	keystroke_i	i	n/a
446.8135	0.072	893627	keystroke_k	k	n/a
447.5175	0.088	895035	keystroke_e	e	n/a
447.621	0.088	895242	keystroke_l	l	n/a
447.861	0.088	895722	keystroke_i	i	n/a
448.1175	0.0635	896235	keystroke_h	h	n/a
448.269	0.0715	896538	keystroke_o	o	n/a
448.4455	0.079	896891	keystroke_o	o	n/a
448.5325	0.096	897065	keystroke_d	d	n/a
448.6455	0.207	897291	keystroke_Key.space	Key.space	n/a
448.8685	0.057	897737	keystroke_h	h	n/a
449.1975	0.08	898395	keystroke_Key.backspace	Key.backspace	n/a
449.4615	0.072	898923	keystroke_i	i	n/a
449.6455	0.12	899291	keystroke_n	n	n/a
449.7575	0.12	899515	keystroke_s	s	n/a
449.8775	0.12	899755	keystroke_t	t	n/a
450.8045	0.088	901609	keystroke_i	i	n/a
451.0055	0.1195	902011	keystroke_t	t	n/a
451.141	0.08	902282	keystroke_u	u	n/a
451.5575	0.12	903115	keystroke_t	t	n/a
451.6695	0.1355	903339	keystroke_i	i	n/a
451.765	0.128	903530	keystroke_o	o	n/a
451.8695	0.1195	903739	keystroke_n	n	n/a
452.0375	0.0955	904075	keystroke_a	a	n/a
452.069	0.1355	904138	keystroke_l	l	n/a
452.437	0.072	904874	keystroke_Key.enter	Key.enter	n/a
452.515	7.5875	905030	prompt	n/a	colors cartridges feedback shipped\n
453.213	0.104	906426	keystroke_c	c	n/a
453.261	0.072	906522	keystroke_o	o	n/a
453.461	0.056	906922	keystroke_l	l	n/a
453.597	0.112	907194	keystroke_o	o	n/a
453.677	0.111	907354	keystroke_r	r	n/a
453.773	0.136	907546	keystroke_s	s	n/a
453.8605	0.16	907721	keystroke_Key.space	Key.space	n/a
454.0615	0.112	908123	keystroke_c	c	n/a
454.197	0.1755	908394	keystroke_a	a	n/a
454.3335	0.119	908667	keystroke_r	r	n/a
454.565	0.08	909130	keystroke_t	t	n/a
454.8215	0.087	909643	keystroke_i	i	n/a
455.1895	0.103	910379	keystroke_r	r	n/a
455.6135	0.031	911227	keystroke_Key.backspace	Key.backspace	n/a
455.7245	0.104	911449	keystroke_Key.backspace	Key.backspace	n/a
455.9095	0.087	911819	keystroke_r	r	n/a
456.0135	0.1115	912027	keystroke_i	i	n/a
456.157	0.0805	912314	keystroke_d	d	n/a
456.373	0.136	912746	keystroke_g	g	n/a
456.4605	0.1445	912921	keystroke_e	e	n/a
456.5325	0.153	913065	keystroke_s	s	n/a
456.6765	0.1445	913353	keystroke_Key.space	Key.space	n/a
456.965	0.1115	913930	keystroke_d	d	n/a
457.189	0.0715	914378	keystroke_e	e	n/a
457.493	0.0795	914986	keystroke_Key.backspace	Key.backspace	n/a
457.6605	0.0965	915321	keystroke_Key.backspace	Key.backspace	n/a
457.765	0.1035	915530	keystroke_f	f	n/a
457.8525	0.096	915705	keystroke_e	e	n/a
458.0525	0.12	916105	keystroke_e	e	n/a
458.213	0.0875	916426	keystroke_d	d	n/a
458.421	0.0955	916842	keystroke_b	b	n/a
458.5415	0.071	917083	keystroke_a	a	n/a
458.6925	0.112	917385	keystroke_c	c	n/a
458.7735	0.1195	917547	keystroke_k	k	n/a
458.8765	0.144	917753	keystroke_Key.space	Key.space	n/a
459.013	0.0965	918026	keystroke_s	s	n/a
459.101	0.0955	918202	keystroke_h	h	n/a
459.261	0.0955	918522	keystroke_i	i	n/a
459.4855	0.0715	918971	keystroke_p	p	n/a
459.6525	0.096	919305	keystroke_p	p	n/a
459.733	0.104	919466	keystroke_e	e	n/a
459.8285	0.0885	919657	keystroke_d	d	n/a
460.029	0.072	920058	keystroke_Key.enter	Key.enter	n/a
460.1055	9.349	920211	prompt	n/a	generated suburban mandatory comm\n
461.029	0.104	922058	keystroke_g	g	n/a
461.2125	0.128	922425	keystroke_e	e	n/a
461.3735	0.103	922747	keystroke_n	n	n/a
461.445	0.1275	922890	keystroke_e	e	n/a
461.541	0.143	923082	keystroke_r	r	n/a
461.765	0.0875	923530	keystroke_a	a	n/a
461.909	0.1275	923818	keystroke_t	t	n/a
461.997	0.1675	923994	keystroke_e	e	n/a
462.7085	0.096	925417	keystroke_d	d	n/a
462.9485	0.12	925897	keystroke_Key.space	Key.space	n/a
463.0605	0.1045	926121	keystroke_s	s	n/a
463.1405	0.096	926281	keystroke_u	u	n/a
463.309	0.128	926618	keystroke_b	b	n/a
463.621	0.088	927242	keystroke_u	u	n/a
463.733	0.08	927466	keystroke_r	r	n/a
465.58	0.112	931160	keystroke_b	b	n/a
465.677	0.119	931354	keystroke_a	a	n/a
465.828	0.104	931656	keystroke_n	n	n/a
465.9965	0.104	931993	keystroke_Key.space	Key.space	n/a
