onset	duration	sample	value	key	prompt_text
3.5495	10.885	7099	prompt	n/a	the quick brown fox jumps over a lazy dog\n
5.3955	0.0135	10791	keystroke_t	t	n/a
5.4685	0.105	10937	keystroke_h	h	n/a
5.6635	0.0915	11327	keystroke_e	e	n/a
5.756	0.1075	11512	keystroke_Key.space	Key.space	n/a
6.239	0.1065	12478	keystroke_q	q	n/a
6.3905	0.195	12781	keystroke_u	u	n/a
6.5255	0.135	13051	keystroke_i	i	n/a
6.7055	0.105	13411	keystroke_c	c	n/a
6.8255	0.2105	13651	keystroke_k	k	n/a
6.976	0.15	13952	keystroke_Key.space	Key.space	n/a
7.367	0.135	14734	keystroke_b	b	n/a
7.517	0.09	15034	keystroke_r	r	n/a
7.667	0.15	15334	keystroke_o	o	n/a
7.802	0.135	15604	keystroke_w	w	n/a
7.937	0.179	15874	keystroke_n	n	n/a
8.056	0.136	16112	keystroke_Key.space	Key.space	n/a
8.702	0.06	17404	keystroke_f	f	n/a
8.837	0.12	17674	keystroke_o	o	n/a
9.017	0.075	18034	keystroke_x	x	n/a
9.182	0.12	18364	keystroke_Key.space	Key.space	n/a
9.437	0.1795	18874	keystroke_j	j	n/a
9.587	0.1645	19174	keystroke_u	u	n/a
9.7665	0.2255	19533	keystroke_m	m	n/a
9.947	0.195	19894	keystroke_p	p	n/a
10.127	0.15	20254	keystroke_s	s	n/a
10.247	0.135	20494	keystroke_Key.space	Key.space	n/a
10.547	0.12	21094	keystroke_o	o	n/a
10.9975	0.09	21995	keystroke_v	v	n/a
11.0725	0.105	22145	keystroke_e	e	n/a
11.2525	0.0895	22505	keystroke_r	r	n/a
11.402	0.1205	22804	keystroke_Key.space	Key.space	n/a
11.5675	0.15	23135	keystroke_a	a	n/a
11.6725	0.104	23345	keystroke_Key.space	Key.space	n/a
11.972	0.12	23944	keystroke_l	l	n/a
12.047	0.1205	24094	keystroke_a	a	n/a
12.992	0.1055	25984	keystroke_z	z	n/a
13.1725	0.15	26345	keystroke_y	y	n/a
13.2925	0.12	26585	keystroke_Key.space	Key.space	n/a
13.5925	0.075	27185	keystroke_d	d	n/a
13.6825	0.105	27365	keystroke_o	o	n/a
13.8175	0.075	27635	keystroke_g	g	n/a
14.2975	0.135	28595	keystroke_Key.enter	Key.enter	n/a
14.4385	11.5455	28877	prompt	n/a	chef september cement creation\n
15.8275	0.075	31655	keystroke_c	c	n/a
15.9325	0.135	31865	keystroke_h	h	n/a
16.0525	0.06	32105	keystroke_e	e	n/a
16.2625	0.075	32525	keystroke_f	f	n/a
16.3675	0.105	32735	keystroke_Key.space	Key.space	n/a
17.222	0.165	34444	keystroke_s	s	n/a
17.492	0.091	34984	keystroke_e	e	n/a
17.627	0.136	35254	keystroke_p	p	n/a
17.7925	0.075	35585	keystroke_t	t	n/a
17.9875	0.105	35975	keystroke_e	e	n/a
18.1225	0.105	36245	keystroke_m	m	n/a
18.3775	0.12	36755	keystroke_b	b	n/a
18.5125	0.105	37025	keystroke_e	e	n/a
18.6625	0.12	37325	keystroke_r	r	n/a
18.7675	0.135	37535	keystroke_Key.space	Key.space	n/a
20.9795	0.038	41959	keystroke_c	c	n/a
21.2425	0.09	42485	keystroke_e	e	n/a
21.3775	0.105	42755	keystroke_m	m	n/a
21.4675	0.075	42935	keystroke_e	e	n/a
21.5725	0.12	43145	keystroke_n	n	n/a
21.7225	0.06	43445	keystroke_t	t	n/a
21.8275	0.12	43655	keystroke_Key.space	Key.space	n/a
22.442	0.06	44884	keystroke_c	c	n/a
22.637	0.06	45274	keystroke_r	r	n/a
22.832	0.015	45664	keystroke_e	e	n/a
23.177	0.06	46354	keystroke_q	q	n/a
23.7925	0.15	47585	keystroke_Key.backspace	Key.backspace	n/a
23.9725	0.105	47945	keystroke_a	a	n/a
24.2875	0.09	48575	keystroke_t	t	n/a
24.4075	0.2245	48815	keystroke_i	i	n/a
24.5425	0.1645	49085	keystroke_o	o	n/a
24.677	0.09	49354	keystroke_j	j	n/a
25.2025	0.09	50405	keystroke_Key.backspace	Key.backspace	n/a
25.5025	0.09	51005	keystroke_n	n	n/a
25.8775	0.1045	51755	keystroke_Key.enter	Key.enter	n/a
25.9875	9.957	51975	prompt	n/a	singing header uniform theory\n
27.573	0.15	55146	keystroke_s	s	n/a
27.783	0.195	55566	keystroke_i	i	n/a
27.873	0.165	55746	keystroke_n	n	n/a
28.023	0.12	56046	keystroke_b	b	n/a
28.203	0.18	56406	keystroke_i	i	n/a
28.293	0.135	56586	keystroke_n	n	n/a
28.368	0.12	56736	keystroke_b	b	n/a
28.503	0.135	57006	keystroke_Key.space	Key.space	n/a
28.953	0.075	57906	keystroke_Key.backspace	Key.backspace	n/a
29.103	0.075	58206	keystroke_Key.backspace	Key.backspace	n/a
29.2675	0.075	58535	keystroke_Key.backspace	Key.backspace	n/a
29.4475	0.06	58895	keystroke_Key.backspace	Key.backspace	n/a
29.6125	0.075	59225	keystroke_Key.backspace	Key.backspace	n/a
30.3025	0.105	60605	keystroke_g	g	n/a
30.4225	0.165	60845	keystroke_i	i	n/a
30.4975	0.12	60995	keystroke_n	n	n/a
30.6025	0.075	61205	keystroke_g	g	n/a
30.738	0.135	61476	keystroke_Key.space	Key.space	n/a
31.2475	0.12	62495	keystroke_h	h	n/a
31.562	0.091	63124	keystroke_e	e	n/a
31.803	0.105	63606	keystroke_a	a	n/a
32.058	0.09	64116	keystroke_d	d	n/a
32.268	0.09	64536	keystroke_e	e	n/a
32.463	0.06	64926	keystroke_r	r	n/a
32.538	0.12	65076	keystroke_Key.space	Key.space	n/a
33.258	0.135	66516	keystroke_u	u	n/a
33.408	0.195	66816	keystroke_n	n	n/a
33.543	0.15	67086	keystroke_i	i	n/a
33.9325	0.105	67865	keystroke_f	f	n/a
34.0225	0.12	68045	keystroke_o	o	n/a
34.1275	0.135	68255	keystroke_r	r	n/a
34.2475	0.18	68495	keystroke_m	m	n/a
34.3825	0.12	68765	keystroke_Key.space	Key.space	n/a
35.0575	0.09	70115	keystroke_t	t	n/a
35.1325	0.105	70265	keystroke_h	h	n/a
35.2825	0.105	70565	keystroke_e	e	n/a
35.3275	0.12	70655	keystroke_o	o	n/a
35.4775	0.105	70955	keystroke_r	r	n/a
35.5675	0.105	71135	keystroke_y	y	n/a
35.8525	0.09	71705	keystroke_Key.enter	Key.enter	n/a
35.9475	8.622	71895	prompt	n/a	fundamental videos adult suffer\n
36.7825	0.1195	73565	keystroke_f	f	n/a
36.8725	0.1345	73745	keystroke_u	u	n/a
36.962	0.12	73924	keystroke_n	n	n/a
37.113	0.074	74226	keystroke_d	d	n/a
37.353	0.09	74706	keystroke_a	a	n/a
37.457	0.09	74914	keystroke_m	m	n/a
37.758	0.105	75516	keystroke_e	e	n/a
37.878	0.09	75756	keystroke_n	n	n/a
37.983	0.0745	75966	keystroke_t	t	n/a
38.5225	0.165	77045	keystroke_a	a	n/a
38.6575	0.1655	77315	keystroke_l	l	n/a
38.793	0.1045	77586	keystroke_Key.space	Key.space	n/a
39.4225	0.105	78845	keystroke_v	v	n/a
39.5575	0.135	79115	keystroke_i	i	n/a
39.6775	0.09	79355	keystroke_d	d	n/a
40.0525	0.075	80105	keystroke_e	e	n/a
40.2175	0.09	80435	keystroke_o	o	n/a
40.3225	0.1355	80645	keystroke_s	s	n/a
40.472	0.106	80944	keystroke_Key.space	Key.space	n/a
40.938	0.1045	81876	keystroke_a	a	n/a
41.298	0.135	82596	keystroke_d	d	n/a
41.388	0.09	82776	keystroke_u	u	n/a
41.553	0.1345	83106	keystroke_l	l	n/a
41.643	0.1195	83286	keystroke_t	t	n/a
41.7775	0.15	83555	keystroke_Key.space	Key.space	n/a
42.393	0.105	84786	keystroke_s	s	n/a
42.513	0.135	85026	keystroke_u	u	n/a
42.663	0.165	85326	keystroke_f	f	n/a
42.993	0.1195	85986	keystroke_e	e	n/a
43.3675	0.09	86735	keystroke_Key.backspace	Key.backspace	n/a
43.5175	0.075	87035	keystroke_f	f	n/a
43.713	0.09	87426	keystroke_e	e	n/a
43.968	0.105	87936	keystroke_r	r	n/a
44.478	0.09	88956	keystroke_Key.enter	Key.enter	n/a
44.5725	5.427	89145	prompt	n/a	cost unit stress palm\n
45.3475	0.12	90695	keystroke_c	c	n/a
45.4825	0.135	90965	keystroke_o	o	n/a
45.7075	0.12	91415	keystroke_s	s	n/a
45.8425	0.12	91685	keystroke_t	t	n/a
45.9775	0.165	91955	keystroke_Key.space	Key.space	n/a
46.2475	0.15	92495	keystroke_u	u	n/a
46.3825	0.2105	92765	keystroke_n	n	n/a
46.517	0.166	93034	keystroke_i	i	n/a
46.668	0.105	93336	keystroke_t	t	n/a
46.787	0.136	93574	keystroke_Key.space	Key.space	n/a
47.328	0.105	94656	keystroke_s	s	n/a
47.6425	0.105	95285	keystroke_t	t	n/a
47.8075	0.105	95615	keystroke_r	r	n/a
48.0175	0.105	96035	keystroke_e	e	n/a
48.2425	0.09	96485	keystroke_s	s	n/a
48.3925	0.12	96785	keystroke_s	s	n/a
48.4975	0.135	96995	keystroke_Key.space	Key.space	n/a
48.6925	0.135	97385	keystroke_p	p	n/a
48.9025	0.1355	97805	keystroke_a	a	n/a
49.233	0.165	98466	keystroke_l	l	n/a
49.413	0.165	98826	keystroke_m	m	n/a
49.863	0.135	99726	keystroke_Key.enter	Key.enter	n/a
50.003	6.2965	100006	prompt	n/a	deals frog alliance reunion\n
51.1675	0.135	102335	keystroke_d	d	n/a
51.2875	0.135	102575	keystroke_e	e	n/a
51.4675	0.135	102935	keystroke_a	a	n/a
51.5875	0.15	103175	keystroke_l	l	n/a
51.6775	0.135	103355	keystroke_s	s	n/a
51.8275	0.135	103655	keystroke_Key.space	Key.space	n/a
52.1275	0.12	104255	keystroke_f	f	n/a
52.3075	0.1355	104615	keystroke_r	r	n/a
52.428	0.105	104856	keystroke_o	o	n/a
52.563	0.12	105126	keystroke_g	g	n/a
52.698	0.105	105396	keystroke_Key.space	Key.space	n/a
52.953	0.12	105906	keystroke_a	a	n/a
53.043	0.09	106086	keystroke_l	l	n/a
53.208	0.165	106416	keystroke_l	l	n/a
53.343	0.135	106686	keystroke_i	i	n/a
53.433	0.135	106866	keystroke_a	a	n/a
53.5825	0.135	107165	keystroke_n	n	n/a
53.8375	0.12	107675	keystroke_c	c	n/a
54.0175	0.195	108035	keystroke_e	e	n/a
54.2275	0.105	108455	keystroke_Key.space	Key.space	n/a
54.8575	0.09	109715	keystroke_r	r	n/a
55.0375	0.135	110075	keystroke_e	e	n/a
55.353	0.075	110706	keystroke_u	u	n/a
55.548	0.195	111096	keystroke_n	n	n/a
55.728	0.21	111456	keystroke_i	i	n/a
55.878	0.1795	111756	keystroke_o	o	n/a
55.9825	0.135	111965	keystroke_n	n	n/a
56.1775	0.12	112355	keystroke_Key.enter	Key.enter	n/a
56.303	7.872	112606	prompt	n/a	gore respective visa airport\n
57.0775	0.105	114155	keystroke_g	g	n/a
57.2125	0.12	114425	keystroke_o	o	n/a
57.3175	0.12	114635	keystroke_r	r	n/a
57.5275	0.12	115055	keystroke_e	e	n/a
57.6925	0.12	115385	keystroke_Key.space	Key.space	n/a
58.0075	0.06	116015	keystroke_r	r	n/a
58.1275	0.105	116255	keystroke_e	e	n/a
58.2925	0.075	116585	keystroke_p	p	n/a
58.713	0.06	117426	keystroke_Key.backspace	Key.backspace	n/a
58.788	0.12	117576	keystroke_s	s	n/a
58.953	0.105	117906	keystroke_p	p	n/a
59.088	0.105	118176	keystroke_e	e	n/a
59.778	0.09	119556	keystroke_c	c	n/a
60.003	0.0905	120006	keystroke_t	t	n/a
60.1385	0.06	120277	keystroke_i	i	n/a
60.2435	0.105	120487	keystroke_v	v	n/a
60.4385	0.12	120877	keystroke_e	e	n/a
60.5725	0.121	121145	keystroke_Key.space	Key.space	n/a
61.503	0.09	123006	keystroke_v	v	n/a
61.638	0.105	123276	keystroke_i	i	n/a
61.7875	0.09	123575	keystroke_s	s	n/a
61.9675	0.15	123935	keystroke_a	a	n/a
62.1025	0.105	124205	keystroke_Key.space	Key.space	n/a
62.3125	0.12	124625	keystroke_a	a	n/a
62.4475	0.12	124895	keystroke_i	i	n/a
62.6425	0.121	125285	keystroke_r	r	n/a
62.838	0.135	125676	keystroke_p	p	n/a
63.0185	0.15	126037	keystroke_o	o	n/a
63.2135	0.089	126427	keystroke_s	s	n/a
63.5275	0.075	127055	keystroke_Key.backspace	Key.backspace	n/a
63.6175	0.061	127235	keystroke_r	r	n/a
63.7675	0.15	127535	keystroke_t	t	n/a
64.083	0.0895	128166	keystroke_Key.enter	Key.enter	n/a
64.1805	8.694	128361	prompt	n/a	centers practical neck reviewer\n
65.1935	0.104	130387	keystroke_c	c	n/a
65.3425	0.15	130685	keystroke_e	e	n/a
65.5075	0.09	131015	keystroke_n	n	n/a
65.7775	0.075	131555	keystroke_t	t	n/a
65.9725	0.09	131945	keystroke_e	e	n/a
66.1675	0.105	132335	keystroke_r	r	n/a
66.3775	0.15	132755	keystroke_s	s	n/a
66.4975	0.12	132995	keystroke_Key.space	Key.space	n/a
66.798	0.1195	133596	keystroke_p	p	n/a
67.2175	0.06	134435	keystroke_r	r	n/a
67.4275	0.105	134855	keystroke_a	a	n/a
67.7435	0.1045	135487	keystroke_c	c	n/a
68.0725	0.03	136145	keystroke_t	t	n/a
68.1475	0.136	136295	keystroke_i	i	n/a
68.5685	0.075	137137	keystroke_c	c	n/a
68.7635	0.164	137527	keystroke_a	a	n/a
68.8385	0.195	137677	keystroke_l	l	n/a
68.9875	0.15	137975	keystroke_Key.space	Key.space	n/a
69.1525	0.1205	138305	keystroke_n	n	n/a
69.2425	0.0905	138485	keystroke_e	e	n/a
69.7825	0.135	139565	keystroke_c	c	n/a
69.9025	0.18	139805	keystroke_k	k	n/a
70.0225	0.12	140045	keystroke_Key.space	Key.space	n/a
70.8475	0.075	141695	keystroke_r	r	n/a
71.1625	0.121	142325	keystroke_e	e	n/a
71.4335	0.09	142867	keystroke_v	v	n/a
71.643	0.12	143286	keystroke_i	i	n/a
71.853	0.09	143706	keystroke_e	e	n/a
72.108	0.1045	144216	keystroke_w	w	n/a
72.303	0.09	144606	keystroke_e	e	n/a
72.453	0.135	144906	keystroke_r	r	n/a
72.798	0.075	145596	keystroke_Key.enter	Key.enter	n/a
72.8775	11.757	145755	prompt	n/a	cornwall commercial extras attraction\n
73.7285	0.105	147457	keystroke_c	c	n/a
73.8185	0.12	147637	keystroke_o	o	n/a
73.9235	0.105	147847	keystroke_r	r	n/a
74.0435	0.105	148087	keystroke_n	n	n/a
74.3735	0.135	148747	keystroke_w	w	n/a
74.6135	0.15	149227	keystroke_a	a	n/a
74.7785	0.03	149557	keystroke_l	l	n/a
74.8835	0.15	149767	keystroke_l	l	n/a
75.0035	0.134	150007	keystroke_Key.space	Key.space	n/a
75.3175	0.105	150635	keystroke_c	c	n/a
75.4835	0.119	150967	keystroke_o	o	n/a
75.6925	0.105	151385	keystroke_m	m	n/a
75.9485	0.104	151897	keystroke_m	m	n/a
76.1125	0.1355	152225	keystroke_e	e	n/a
76.263	0.06	152526	keystroke_e	e	n/a
76.308	0.09	152616	keystroke_r	r	n/a
76.623	0.135	153246	keystroke_s	s	n/a
76.983	0.045	153966	keystroke_Key.backspace	Key.backspace	n/a
77.118	0.06	154236	keystroke_Key.backspace	Key.backspace	n/a
77.253	0.12	154506	keystroke_r	r	n/a
77.7475	0.046	155495	keystroke_Key.backspace	Key.backspace	n/a
77.868	0.075	155736	keystroke_Key.backspace	Key.backspace	n/a
77.9885	0.09	155977	keystroke_r	r	n/a
78.7985	0.105	157597	keystroke_i	i	n/a
79.1135	0.06	158227	keystroke_Key.backspace	Key.backspace	n/a
79.2635	0.12	158527	keystroke_c	c	n/a
79.6535	0.105	159307	keystroke_i	i	n/a
79.8485	0.149	159697	keystroke_a	a	n/a
79.9525	0.196	159905	keystroke_l	l	n/a
80.1025	0.12	160205	keystroke_Key.space	Key.space	n/a
80.838	0.105	161676	keystroke_e	e	n/a
81.198	0.1055	162396	keystroke_x	x	n/a
81.4085	0.105	162817	keystroke_t	t	n/a
81.5285	0.09	163057	keystroke_r	r	n/a
81.7535	0.1195	163507	keystroke_a	a	n/a
81.933	0.12	163866	keystroke_s	s	n/a
82.068	0.105	164136	keystroke_Key.space	Key.space	n/a
82.188	0.15	164376	keystroke_a	a	n/a
82.503	0.06	165006	keystroke_t	t	n/a
82.578	0.1205	165156	keystroke_t	t	n/a
83.0275	0.09	166055	keystroke_r	r	n/a
83.328	0.12	166656	keystroke_a	a	n/a
83.583	0.105	167166	keystroke_c	c	n/a
83.988	0.09	167976	keystroke_t	t	n/a
84.093	0.18	168186	keystroke_i	i	n/a
84.228	0.165	168456	keystroke_o	o	n/a
84.318	0.135	168636	keystroke_n	n	n/a
84.528	0.105	169056	keystroke_Key.enter	Key.enter	n/a
84.637	6.628	169274	prompt	n/a	carey lesbian rolling taxes\n
85.728	0.105	171456	keystroke_c	c	n/a
85.9985	0.12	171997	keystroke_a	a	n/a
86.2085	0.0895	172417	keystroke_r	r	n/a
86.568	0.105	173136	keystroke_e	e	n/a
86.658	0.135	173316	keystroke_y	y	n/a
86.778	0.135	173556	keystroke_Key.space	Key.space	n/a
87.093	0.09	174186	keystroke_l	l	n/a
87.213	0.075	174426	keystroke_e	e	n/a
87.513	0.12	175026	keystroke_s	s	n/a
87.9185	0.135	175837	keystroke_b	b	n/a
88.0385	0.135	176077	keystroke_i	i	n/a
88.1285	0.165	176257	keystroke_a	a	n/a
88.2635	0.15	176527	keystroke_n	n	n/a
88.3685	0.12	176737	keystroke_Key.space	Key.space	n/a
88.6085	0.105	177217	keystroke_r	r	n/a
88.7285	0.105	177457	keystroke_o	o	n/a
88.9085	0.06	177817	keystroke_l	l	n/a
89.0285	0.15	178057	keystroke_l	l	n/a
89.1485	0.21	178297	keystroke_i	i	n/a
89.2535	0.21	178507	keystroke_n	n	n/a
89.3435	0.15	178687	keystroke_g	g	n/a
89.4785	0.1195	178957	keystroke_Key.space	Key.space	n/a
90.1975	0.09	180395	keystroke_t	t	n/a
90.5125	0.12	181025	keystroke_a	a	n/a
90.6925	0.09	181385	keystroke_x	x	n/a
90.8885	0.075	181777	keystroke_e	e	n/a
91.0675	0.106	182135	keystroke_s	s	n/a
91.1875	0.075	182375	keystroke_Key.enter	Key.enter	n/a
91.268	8.3665	182536	prompt	n/a	performs forget contractors talked\n
91.908	0.12	183816	keystroke_p	p	n/a
92.013	0.09	184026	keystroke_e	e	n/a
92.193	0.105	184386	keystroke_r	r	n/a
92.583	0.09	185166	keystroke_f	f	n/a
92.688	0.1205	185376	keystroke_o	o	n/a
92.7635	0.075	185527	keystroke_r	r	n/a
92.9135	0.12	185827	keystroke_m	m	n/a
93.1835	0.12	186367	keystroke_s	s	n/a
93.3035	0.12	186607	keystroke_Key.space	Key.space	n/a
93.6335	0.075	187267	keystroke_f	f	n/a
93.9785	0.09	187957	keystroke_Key.backspace	Key.backspace	n/a
94.413	0.12	188826	keystroke_f	f	n/a
94.518	0.135	189036	keystroke_o	o	n/a
94.608	0.12	189216	keystroke_r	r	n/a
95.253	0.075	190506	keystroke_g	g	n/a
95.283	0.2545	190566	keystroke_e	e	n/a
95.5075	0.105	191015	keystroke_t	t	n/a
95.6425	0.105	191285	keystroke_Key.space	Key.space	n/a
96.1825	0.105	192365	keystroke_c	c	n/a
96.303	0.18	192606	keystroke_o	o	n/a
96.438	0.1205	192876	keystroke_n	n	n/a
96.528	0.1055	193056	keystroke_t	t	n/a
96.723	0.1205	193446	keystroke_r	r	n/a
97.0085	0.105	194017	keystroke_a	a	n/a
97.4735	0.09	194947	keystroke_c	c	n/a
97.7285	0.06	195457	keystroke_t	t	n/a
97.9085	0.105	195817	keystroke_o	o	n/a
97.9985	0.12	195997	keystroke_r	r	n/a
98.2235	0.12	196447	keystroke_s	s	n/a
98.3585	0.105	196717	keystroke_Key.space	Key.space	n/a
98.5085	0.075	197017	keystroke_t	t	n/a
98.7635	0.12	197527	keystroke_a	a	n/a
98.8685	0.135	197737	keystroke_l	l	n/a
98.9585	0.165	197917	keystroke_k	k	n/a
99.0635	0.075	198127	keystroke_e	e	n/a
99.2435	0.105	198487	keystroke_d	d	n/a
99.5435	0.09	199087	keystroke_Key.enter	Key.enter	n/a
99.6375	8.5325	199275	prompt	n/a	conflict description partners bulletin\n
100.4285	0.12	200857	keystroke_c	c	n/a
100.5335	0.195	201067	keystroke_o	o	n/a
100.7435	0.1345	201487	keystroke_n	n	n/a
100.923	0.1055	201846	keystroke_f	f	n/a
101.0735	0.12	202147	keystroke_l	l	n/a
101.2835	0.135	202567	keystroke_i	i	n/a
101.419	0.089	202838	keystroke_s	s	n/a
101.6435	0.09	203287	keystroke_t	t	n/a
101.9885	0.06	203977	keystroke_Key.backspace	Key.backspace	n/a
102.1085	0.1045	204217	keystroke_Key.backspace	Key.backspace	n/a
102.1985	0.105	204397	keystroke_c	c	n/a
102.4235	0.105	204847	keystroke_t	t	n/a
102.5435	0.0895	205087	keystroke_Key.space	Key.space	n/a
103.1885	0.075	206377	keystroke_d	d	n/a
103.3235	0.09	206647	keystroke_e	e	n/a
103.5485	0.06	207097	keystroke_s	s	n/a
103.7585	0.06	207517	keystroke_c	c	n/a
103.9235	0.105	207847	keystroke_r	r	n/a
104.0585	0.165	208117	keystroke_i	i	n/a
104.1935	0.15	208387	keystroke_p	p	n/a
104.3585	0.09	208717	keystroke_t	t	n/a
104.4635	0.165	208927	keystroke_i	i	n/a
104.5835	0.225	209167	keystroke_o	o	n/a
104.7335	0.15	209467	keystroke_n	n	n/a
105.0035	0.105	210007	keystroke_Key.space	Key.space	n/a
105.2135	0.12	210427	keystroke_p	p	n/a
105.3635	0.105	210727	keystroke_a	a	n/a
105.5735	0.09	211147	keystroke_r	r	n/a
105.7235	0.12	211447	keystroke_t	t	n/a
105.8285	0.105	211657	keystroke_n	n	n/a
105.9485	0.09	211897	keystroke_e	e	n/a
106.1285	0.09	212257	keystroke_r	r	n/a
106.3535	0.105	212707	keystroke_s	s	n/a
106.4585	0.105	212917	keystroke_Key.space	Key.space	n/a
106.6985	0.2245	213397	keystroke_b	b	n/a
106.908	0.12	213816	keystroke_u	u	n/a
107.148	0.045	214296	keystroke_l	l	n/a
107.268	0.1055	214536	keystroke_l	l	n/a
107.3735	0.105	214747	keystroke_e	e	n/a
107.658	0.09	215316	keystroke_t	t	n/a
107.7635	0.165	215527	keystroke_i	i	n/a
107.8685	0.12	215737	keystroke_n	n	n/a
108.0485	0.12	216097	keystroke_Key.enter	Key.enter	n/a
108.173	8.232	216346	prompt	n/a	destinations wordpress madness ellen\n
109.0085	0.06	218017	keystroke_d	d	n/a
109.1275	0.075	218255	keystroke_e	e	n/a
109.353	0.0895	218706	keystroke_s	s	n/a
109.5785	0.09	219157	keystroke_t	t	n/a
109.683	0.18	219366	keystroke_i	i	n/a
109.788	0.12	219576	keystroke_n	n	n/a
109.878	0.1195	219756	keystroke_a	a	n/a
110.118	0.075	220236	keystroke_t	t	n/a
110.223	0.12	220446	keystroke_i	i	n/a
110.313	0.195	220626	keystroke_o	o	n/a
110.433	0.12	220866	keystroke_n	n	n/a
110.493	0.09	220986	keystroke_s	s	n/a
110.598	0.12	221196	keystroke_Key.space	Key.space	n/a
111.243	0.06	222486	keystroke_r	r	n/a
111.5135	0.0745	223027	keystroke_Key.backspace	Key.backspace	n/a
111.5735	0.12	223147	keystroke_w	w	n/a
111.7835	0.105	223567	keystroke_o	o	n/a
111.8735	0.09	223747	keystroke_r	r	n/a
112.3085	0.09	224617	keystroke_d	d	n/a
112.8935	0.09	225787	keystroke_p	p	n/a
112.9985	0.075	225997	keystroke_r	r	n/a
113.1635	0.0745	226327	keystroke_e	e	n/a
113.493	0.06	226986	keystroke_s	s	n/a
113.658	0.1055	227316	keystroke_s	s	n/a
113.7485	0.12	227497	keystroke_Key.space	Key.space	n/a
113.9585	0.135	227917	keystroke_m	m	n/a
114.0635	0.075	228127	keystroke_a	a	n/a
114.3035	0.105	228607	keystroke_d	d	n/a
114.4535	0.1045	228907	keystroke_n	n	n/a
114.5885	0.075	229177	keystroke_e	e	n/a
114.8735	0.09	229747	keystroke_s	s	n/a
115.0385	0.12	230077	keystroke_s	s	n/a
115.2485	0.105	230497	keystroke_Key.space	Key.space	n/a
115.4735	0.075	230947	keystroke_e	e	n/a
115.5635	0.075	231127	keystroke_l	l	n/a
115.6985	0.12	231397	keystroke_l	l	n/a
115.8035	0.105	231607	keystroke_e	e	n/a
115.938	0.135	231876	keystroke_n	n	n/a
116.313	0.09	232626	keystroke_Key.enter	Key.enter	n/a
116.408	8.862	232816	prompt	n/a	missile shots proper unusual\n
117.003	0.18	234006	keystroke_m	m	n/a
117.168	0.12	234336	keystroke_i	i	n/a
117.318	0.045	234636	keystroke_s	s	n/a
117.438	0.1355	234876	keystroke_s	s	n/a
117.558	0.1055	235116	keystroke_i	i	n/a
117.7385	0.12	235477	keystroke_l	l	n/a
117.8435	0.09	235687	keystroke_e	e	n/a
117.9935	0.105	235987	keystroke_Key.space	Key.space	n/a
118.3385	0.12	236677	keystroke_s	s	n/a
118.4735	0.09	236947	keystroke_h	h	n/a
118.5335	0.1195	237067	keystroke_o	o	n/a
118.6385	0.0745	237277	keystroke_t	t	n/a
118.863	0.1205	237726	keystroke_s	s	n/a
119.013	0.1055	238026	keystroke_Key.space	Key.space	n/a
119.3735	0.09	238747	keystroke_p	p	n/a
119.4785	0.12	238957	keystroke_r	r	n/a
119.5685	0.1795	239137	keystroke_o	o	n/a
119.718	0.105	239436	keystroke_p	p	n/a
119.808	0.105	239616	keystroke_e	e	n/a
119.988	0.1355	239976	keystroke_r	r	n/a
120.1535	0.06	240307	keystroke_Key.space	Key.space	n/a
120.4835	0.135	240967	keystroke_u	u	n/a
120.6335	0.1645	241267	keystroke_n	n	n/a
120.753	0.15	241506	keystroke_u	u	n/a
120.873	0.105	241746	keystroke_r	r	n/a
121.023	0.105	242046	keystroke_u	u	n/a
121.188	0.12	242376	keystroke_a	a	n/a
121.518	0.06	243036	keystroke_Key.backspace	Key.backspace	n/a
121.6375	0.075	243275	keystroke_Key.backspace	Key.backspace	n/a
121.7725	0.105	243545	keystroke_Key.backspace	Key.backspace	n/a
121.8925	0.136	243785	keystroke_s	s	n/a
122.0735	0.075	244147	keystroke_y	y	n/a
122.2235	0.105	244447	keystroke_a	a	n/a
122.3435	0.105	244687	keystroke_k	k	n/a
122.883	0.045	245766	keystroke_Key.backspace	Key.backspace	n/a
123.018	0.105	246036	keystroke_Key.backspace	Key.backspace	n/a
123.228	0.045	246456	keystroke_Key.backspace	Key.backspace	n/a
123.9335	0.03	247867	keystroke_y	y	n/a
124.293	0.09	248586	keystroke_Key.backspace	Key.backspace	n/a
124.578	0.12	249156	keystroke_u	u	n/a
124.743	0.1205	249486	keystroke_a	a	n/a
124.8485	0.12	249697	keystroke_l	l	n/a
125.1935	0.075	250387	keystroke_Key.enter	Key.enter	n/a
125.2735	6.881	250547	prompt	n/a	abraham theology scoop sorts\n
126.2435	0.135	252487	keystroke_a	a	n/a
126.3635	0.12	252727	keystroke_b	b	n/a
126.5135	0.09	253027	keystroke_r	r	n/a
126.7235	0.105	253447	keystroke_a	a	n/a
126.8435	0.075	253687	keystroke_h	h	n/a
126.9485	0.12	253897	keystroke_a	a	n/a
127.0835	0.15	254167	keystroke_m	m	n/a
127.2185	0.105	254437	keystroke_Key.space	Key.space	n/a
127.473	0.03	254946	keystroke_t	t	n/a
127.518	0.09	255036	keystroke_h	h	n/a
127.743	0.1355	255486	keystroke_e	e	n/a
127.8935	0.105	255787	keystroke_o	o	n/a
128.1185	0.075	256237	keystroke_l	l	n/a
128.2535	0.1045	256507	keystroke_o	o	n/a
129.168	0.165	258336	keystroke_g	g	n/a
129.258	0.15	258516	keystroke_y	y	n/a
129.378	0.135	258756	keystroke_Key.space	Key.space	n/a
130.083	0.03	260166	keystroke_s	s	n/a
130.323	0.075	260646	keystroke_c	c	n/a
130.488	0.075	260976	keystroke_o	o	n/a
130.623	0.2105	261246	keystroke_o	o	n/a
130.728	0.1655	261456	keystroke_p	p	n/a
130.8485	0.1345	261697	keystroke_Key.space	Key.space	n/a
131.118	0.135	262236	keystroke_s	s	n/a
131.238	0.12	262476	keystroke_o	o	n/a
131.388	0.105	262776	keystroke_r	r	n/a
131.553	0.0905	263106	keystroke_t	t	n/a
131.7785	0.135	263557	keystroke_s	s	n/a
132.048	0.105	264096	keystroke_Key.enter	Key.enter	n/a
132.1585	8.066	264317	prompt	n/a	album detector threatening reprints\n
132.828	0.15	265656	keystroke_a	a	n/a
132.948	0.09	265896	keystroke_l	l	n/a
133.128	0.15	266256	keystroke_b	b	n/a
133.233	0.09	266466	keystroke_u	u	n/a
133.458	0.18	266916	keystroke_m	m	n/a
133.593	0.12	267186	keystroke_Key.space	Key.space	n/a
134.028	0.0895	268056	keystroke_d	d	n/a
134.1625	0.135	268325	keystroke_e	e	n/a
134.4335	0.0895	268867	keystroke_t	t	n/a
134.598	0.1055	269196	keystroke_e	e	n/a
134.838	0.1045	269676	keystroke_c	c	n/a
135.0775	0.091	270155	keystroke_t	t	n/a
135.1825	0.12	270365	keystroke_o	o	n/a
135.3175	0.105	270635	keystroke_r	r	n/a
135.4525	0.121	270905	keystroke_Key.space	Key.space	n/a
135.6485	0.09	271297	keystroke_t	t	n/a
135.7535	0.09	271507	keystroke_h	h	n/a
135.9185	0.09	271837	keystroke_r	r	n/a
136.128	0.0455	272256	keystroke_w	w	n/a
136.563	0.0905	273126	keystroke_Key.backspace	Key.backspace	n/a
136.6235	0.09	273247	keystroke_e	e	n/a
136.7885	0.12	273577	keystroke_a	a	n/a
137.058	0.09	274116	keystroke_t	t	n/a
137.343	0.105	274686	keystroke_e	e	n/a
137.463	0.15	274926	keystroke_n	n	n/a
137.583	0.18	275166	keystroke_i	i	n/a
137.718	0.12	275436	keystroke_n	n	n/a
137.853	0.105	275706	keystroke_g	g	n/a
137.973	0.12	275946	keystroke_Key.space	Key.space	n/a
138.738	0.075	277476	keystroke_r	r	n/a
138.918	0.105	277836	keystroke_e	e	n/a
139.098	0.1055	278196	keystroke_p	p	n/a
139.2175	0.091	278435	keystroke_r	r	n/a
139.3825	0.106	278765	keystroke_i	i	n/a
139.5785	0.089	279157	keystroke_n	n	n/a
139.6385	0.09	279277	keystroke_t	t	n/a
139.8935	0.105	279787	keystroke_s	s	n/a
140.1485	0.075	280297	keystroke_Key.enter	Key.enter	n/a
140.228	4.977	280456	prompt	n/a	bottle bunny optical hills\n
140.8685	0.135	281737	keystroke_b	b	n/a
140.9885	0.135	281977	keystroke_o	o	n/a
141.1235	0.075	282247	keystroke_t	t	n/a
141.2585	0.075	282517	keystroke_t	t	n/a
141.3785	0.105	282757	keystroke_l	l	n/a
141.4535	0.12	282907	keystroke_e	e	n/a
141.6035	0.15	283207	keystroke_Key.space	Key.space	n/a
141.7985	0.15	283597	keystroke_b	b	n/a
141.9035	0.1195	283807	keystroke_u	u	n/a
142.113	0.075	284226	keystroke_n	n	n/a
142.248	0.18	284496	keystroke_n	n	n/a
142.398	0.165	284796	keystroke_y	y	n/a
142.518	0.135	285036	keystroke_Key.space	Key.space	n/a
142.863	0.195	285726	keystroke_o	o	n/a
142.983	0.135	285966	keystroke_p	p	n/a
143.133	0.06	286266	keystroke_r	r	n/a
143.463	0.045	286926	keystroke_Key.backspace	Key.backspace	n/a
143.538	0.0895	287076	keystroke_t	t	n/a
143.6735	0.119	287347	keystroke_i	i	n/a
143.8085	0.059	287617	keystroke_c	c	n/a
144.0025	0.135	288005	keystroke_a	a	n/a
144.0935	0.149	288187	keystroke_l	l	n/a
144.2275	0.135	288455	keystroke_Key.space	Key.space	n/a
144.3785	0.135	288757	keystroke_h	h	n/a
144.4525	0.136	288905	keystroke_i	i	n/a
144.6635	0.104	289327	keystroke_l	l	n/a
144.8125	0.121	289625	keystroke_l	l	n/a
144.9035	0.134	289807	keystroke_s	s	n/a
145.0975	0.1055	290195	keystroke_Key.enter	Key.enter	n/a
145.208	7.126	290416	prompt	n/a	advice worn numbers whale\n
145.7735	0.1495	291547	keystroke_a	a	n/a
146.043	0.09	292086	keystroke_d	d	n/a
146.553	0.105	293106	keystroke_c	c	n/a
146.688	0.075	293376	keystroke_i	i	n/a
146.853	0.09	293706	keystroke_e	e	n/a
146.988	0.105	293976	keystroke_Key.space	Key.space	n/a
147.4385	0.075	294877	keystroke_Key.backspace	Key.backspace	n/a
147.5885	0.075	295177	keystroke_Key.backspace	Key.backspace	n/a
147.7235	0.06	295447	keystroke_Key.backspace	Key.backspace	n/a
147.8585	0.075	295717	keystroke_Key.backspace	Key.backspace	n/a
148.4585	0.075	296917	keystroke_v	v	n/a
148.5635	0.1195	297127	keystroke_i	i	n/a
148.668	0.075	297336	keystroke_c	c	n/a
148.863	0.075	297726	keystroke_e	e	n/a
148.953	0.105	297906	keystroke_Key.space	Key.space	n/a
149.059	0.104	298118	keystroke_w	w	n/a
149.148	0.105	298296	keystroke_o	o	n/a
149.313	0.105	298626	keystroke_r	r	n/a
149.403	0.18	298806	keystroke_n	n	n/a
149.553	0.135	299106	keystroke_Key.space	Key.space	n/a
149.748	0.15	299496	keystroke_n	n	n/a
149.838	0.09	299676	keystroke_u	u	n/a
150.033	0.105	300066	keystroke_m	m	n/a
150.258	0.105	300516	keystroke_b	b	n/a
150.303	0.09	300606	keystroke_e	e	n/a
150.468	0.09	300936	keystroke_r	r	n/a
150.678	0.12	301356	keystroke_s	s	n/a
150.783	0.105	301566	keystroke_Key.space	Key.space	n/a
150.963	0.075	301926	keystroke_w	w	n/a
151.098	0.105	302196	keystroke_h	h	n/a
151.263	0.12	302526	keystroke_a	a	n/a
151.413	0.12	302826	keystroke_l	l	n/a
151.578	0.12	303156	keystroke_e	e	n/a
152.2535	0.075	304507	keystroke_Key.enter	Key.enter	n/a
152.334	6.4315	304668	prompt	n/a	grams persons village tamil\n
153.1685	0.1045	306337	keystroke_g	g	n/a
153.2275	0.105	306455	keystroke_a	a	n/a
153.558	0.075	307116	keystroke_Key.backspace	Key.backspace	n/a
153.6485	0.0905	307297	keystroke_r	r	n/a
153.873	0.09	307746	keystroke_a	a	n/a
154.0825	0.1065	308165	keystroke_s	s	n/a
154.473	0.06	308946	keystroke_Key.backspace	Key.backspace	n/a
154.683	0.12	309366	keystroke_m	m	n/a
154.789	0.105	309578	keystroke_s	s	n/a
154.908	0.105	309816	keystroke_Key.space	Key.space	n/a
155.029	0.134	310058	keystroke_p	p	n/a
155.149	0.074	310298	keystroke_e	e	n/a
155.299	0.0745	310598	keystroke_r	r	n/a
155.493	0.1205	310986	keystroke_s	s	n/a
155.5985	0.135	311197	keystroke_o	o	n/a
155.7185	0.12	311437	keystroke_n	n	n/a
155.7785	0.195	311557	keystroke_s	s	n/a
155.9585	0.12	311917	keystroke_Key.space	Key.space	n/a
156.5435	0.09	313087	keystroke_v	v	n/a
156.6485	0.0895	313297	keystroke_i	i	n/a
156.8285	0.075	313657	keystroke_l	l	n/a
156.9935	0.09	313987	keystroke_l	l	n/a
157.0085	0.135	314017	keystroke_a	a	n/a
157.2035	0.12	314407	keystroke_g	g	n/a
157.3085	0.12	314617	keystroke_e	e	n/a
157.3835	0.105	314767	keystroke_Key.space	Key.space	n/a
157.6385	0.12	315277	keystroke_t	t	n/a
157.9235	0.12	315847	keystroke_a	a	n/a
158.0285	0.21	316057	keystroke_m	m	n/a
158.1935	0.195	316387	keystroke_i	i	n/a
158.3735	0.135	316747	keystroke_l	l	n/a
158.688	0.075	317376	keystroke_Key.enter	Key.enter	n/a
158.7685	8.6515	317537	prompt	n/a	prostores enables zope yarn\n
159.5735	0.15	319147	keystroke_p	p	n/a
159.7085	0.105	319417	keystroke_r	r	n/a
159.8285	0.12	319657	keystroke_o	o	n/a
160.3685	0.1205	320737	keystroke_s	s	n/a
160.654	0.1045	321308	keystroke_t	t	n/a
160.7885	0.075	321577	keystroke_o	o	n/a
160.908	0.075	321816	keystroke_r	r	n/a
161.238	0.06	322476	keystroke_e	e	n/a
161.478	0.1355	322956	keystroke_s	s	n/a
161.5985	0.105	323197	keystroke_Key.space	Key.space	n/a
161.7935	0.09	323587	keystroke_e	e	n/a
161.8985	0.12	323797	keystroke_n	n	n/a
162.048	0.15	324096	keystroke_a	a	n/a
162.213	0.12	324426	keystroke_b	b	n/a
162.3485	0.15	324697	keystroke_l	l	n/a
162.468	0.0755	324936	keystroke_e	e	n/a
162.708	0.12	325416	keystroke_s	s	n/a
162.873	0.1055	325746	keystroke_Key.space	Key.space	n/a
163.9235	0.0905	327847	keystroke_z	z	n/a
164.0285	0.135	328057	keystroke_o	o	n/a
164.1335	0.18	328267	keystroke_p	p	n/a
164.2535	0.12	328507	keystroke_e	e	n/a
164.3885	0.105	328777	keystroke_Key.space	Key.space	n/a
165.064	0.089	330128	keystroke_t	t	n/a
165.468	0.075	330936	keystroke_Key.backspace	Key.backspace	n/a
165.7235	0.105	331447	keystroke_y	y	n/a
165.8135	0.105	331627	keystroke_a	a	n/a
166.0385	0.105	332077	keystroke_r	r	n/a
166.1585	0.12	332317	keystroke_m	m	n/a
166.728	0.075	333456	keystroke_Key.backspace	Key.backspace	n/a
166.953	0.1055	333906	keystroke_n	n	n/a
167.3435	0.075	334687	keystroke_Key.enter	Key.enter	n/a
167.4235	8.786	334847	prompt	n/a	tyler amendments receipt acceptable\n
168.363	0.12	336726	keystroke_t	t	n/a
168.618	0.12	337236	keystroke_y	y	n/a
168.918	0.075	337836	keystroke_l	l	n/a
169.008	0.06	338016	keystroke_e	e	n/a
169.143	0.12	338286	keystroke_r	r	n/a
169.323	0.12	338646	keystroke_Key.space	Key.space	n/a
169.699	0.1195	339398	keystroke_a	a	n/a
169.8035	0.105	339607	keystroke_m	m	n/a
170.0135	0.1045	340027	keystroke_e	e	n/a
170.133	0.12	340266	keystroke_n	n	n/a
170.329	0.089	340658	keystroke_d	d	n/a
170.464	0.119	340928	keystroke_m	m	n/a
170.673	0.09	341346	keystroke_e	e	n/a
171.4985	0.12	342997	keystroke_n	n	n/a
171.6035	0.105	343207	keystroke_t	t	n/a
171.8435	0.135	343687	keystroke_s	s	n/a
171.9785	0.1195	343957	keystroke_Key.space	Key.space	n/a
172.533	0.06	345066	keystroke_r	r	n/a
172.6685	0.0895	345337	keystroke_e	e	n/a
173.088	0.0755	346176	keystroke_c	c	n/a
173.283	0.106	346566	keystroke_e	e	n/a
173.359	0.149	346718	keystroke_i	i	n/a
173.464	0.134	346928	keystroke_p	p	n/a
173.583	0.12	347166	keystroke_t	t	n/a
173.733	0.12	347466	keystroke_Key.space	Key.space	n/a
174.063	0.105	348126	keystroke_a	a	n/a
174.318	0.045	348636	keystroke_c	c	n/a
174.423	0.075	348846	keystroke_c	c	n/a
174.633	0.09	349266	keystroke_e	e	n/a
175.008	0.105	350016	keystroke_p	p	n/a
175.218	0.075	350436	keystroke_t	t	n/a
175.548	0.1205	351096	keystroke_a	a	n/a
175.6535	0.15	351307	keystroke_b	b	n/a
175.7735	0.135	351547	keystroke_l	l	n/a
175.8785	0.12	351757	keystroke_e	e	n/a
176.1185	0.09	352237	keystroke_Key.enter	Key.enter	n/a
176.213	6.447	352426	prompt	n/a	enjoying slots elect ladder\n
176.7635	0.12	353527	keystroke_e	e	n/a
176.8985	0.105	353797	keystroke_n	n	n/a
177.1385	0.1645	354277	keystroke_j	j	n/a
177.333	0.165	354666	keystroke_o	o	n/a
177.6935	0.0895	355387	keystroke_y	y	n/a
177.858	0.18	355716	keystroke_i	i	n/a
177.948	0.1505	355896	keystroke_n	n	n/a
178.023	0.12	356046	keystroke_g	g	n/a
178.2035	0.0895	356407	keystroke_Key.space	Key.space	n/a
178.368	0.121	356736	keystroke_s	s	n/a
178.4735	0.0905	356947	keystroke_l	l	n/a
178.6535	0.12	357307	keystroke_o	o	n/a
178.7585	0.09	357517	keystroke_t	t	n/a
179.0285	0.105	358057	keystroke_s	s	n/a
179.1635	0.09	358327	keystroke_Key.space	Key.space	n/a
179.359	0.09	358718	keystroke_e	e	n/a
179.464	0.105	358928	keystroke_l	l	n/a
179.554	0.074	359108	keystroke_e	e	n/a
179.7635	0.075	359527	keystroke_c	c	n/a
179.9885	0.06	359977	keystroke_t	t	n/a
180.108	0.135	360216	keystroke_Key.space	Key.space	n/a
180.258	0.121	360516	keystroke_l	l	n/a
180.364	0.074	360728	keystroke_a	a	n/a
180.739	0.045	361478	keystroke_f	f	n/a
180.964	0.06	361928	keystroke_d	d	n/a
181.279	0.059	362558	keystroke_Key.backspace	Key.backspace	n/a
181.398	0.105	362796	keystroke_Key.backspace	Key.backspace	n/a
181.518	0.0755	363036	keystroke_d	d	n/a
181.6685	0.075	363337	keystroke_d	d	n/a
181.8635	0.075	363727	keystroke_e	e	n/a
182.0435	0.0745	364087	keystroke_r	r	n/a
182.568	0.09	365136	keystroke_Key.enter	Key.enter	n/a
182.663	8.817	365326	prompt	n/a	consultancy patents redhead census\n
183.438	0.105	366876	keystroke_c	c	n/a
183.5585	0.1955	367117	keystroke_o	o	n/a
183.679	0.135	367358	keystroke_n	n	n/a
183.769	0.12	367538	keystroke_s	s	n/a
183.964	0.1195	367928	keystroke_l	l	n/a
184.2635	0.105	368527	keystroke_u	u	n/a
184.3385	0.105	368677	keystroke_t	t	n/a
184.6685	0.045	369337	keystroke_Key.backspace	Key.backspace	n/a
184.7885	0.075	369577	keystroke_Key.backspace	Key.backspace	n/a
184.9535	0.045	369907	keystroke_Key.backspace	Key.backspace	n/a
185.1635	0.105	370327	keystroke_u	u	n/a
185.329	0.149	370658	keystroke_l	l	n/a
185.4185	0.0895	370837	keystroke_t	t	n/a
185.7185	0.105	371437	keystroke_a	a	n/a
185.8385	0.12	371677	keystroke_n	n	n/a
186.0785	0.1355	372157	keystroke_c	c	n/a
186.9785	0.165	373957	keystroke_y	y	n/a
187.1135	0.12	374227	keystroke_Key.space	Key.space	n/a
187.3235	0.135	374647	keystroke_p	p	n/a
187.4135	0.12	374827	keystroke_a	a	n/a
187.713	0.075	375426	keystroke_t	t	n/a
187.923	0.105	375846	keystroke_e	e	n/a
188.043	0.105	376086	keystroke_n	n	n/a
188.163	0.075	376326	keystroke_t	t	n/a
188.388	0.15	376776	keystroke_s	s	n/a
188.553	0.075	377106	keystroke_Key.space	Key.space	n/a
189.0485	0.0605	378097	keystroke_r	r	n/a
189.1835	0.09	378367	keystroke_e	e	n/a
189.3485	0.105	378697	keystroke_d	d	n/a
189.4685	0.105	378937	keystroke_h	h	n/a
189.5435	0.09	379087	keystroke_e	e	n/a
189.7535	0.105	379507	keystroke_a	a	n/a
189.964	0.0895	379928	keystroke_d	d	n/a
190.0385	0.12	380077	keystroke_Key.space	Key.space	n/a
190.3235	0.09	380647	keystroke_c	c	n/a
190.5335	0.0895	381067	keystroke_e	e	n/a
190.668	0.105	381336	keystroke_n	n	n/a
190.758	0.136	381516	keystroke_s	s	n/a
190.909	0.134	381818	keystroke_u	u	n/a
191.029	0.135	382058	keystroke_s	s	n/a
191.374	0.1045	382748	keystroke_Key.enter	Key.enter	n/a
191.483	6.597	382966	prompt	n/a	demand cannon browsing antenna\n
192.318	0.09	384636	keystroke_d	d	n/a
192.453	0.105	384906	keystroke_e	e	n/a
192.589	0.104	385178	keystroke_m	m	n/a
192.694	0.134	385388	keystroke_a	a	n/a
192.814	0.104	385628	keystroke_n	n	n/a
192.949	0.105	385898	keystroke_d	d	n/a
193.083	0.12	386166	keystroke_Key.space	Key.space	n/a
193.218	0.076	386436	keystroke_c	c	n/a
193.399	0.135	386798	keystroke_a	a	n/a
193.549	0.0745	387098	keystroke_n	n	n/a
193.6985	0.15	387397	keystroke_n	n	n/a
193.8185	0.225	387637	keystroke_o	o	n/a
193.9835	0.18	387967	keystroke_n	n	n/a
194.1335	0.12	388267	keystroke_Key.space	Key.space	n/a
194.5085	0.1195	389017	keystroke_b	b	n/a
194.643	0.105	389286	keystroke_r	r	n/a
194.733	0.135	389466	keystroke_o	o	n/a
194.883	0.15	389766	keystroke_w	w	n/a
195.438	0.09	390876	keystroke_s	s	n/a
195.6185	0.135	391237	keystroke_i	i	n/a
195.6935	0.195	391387	keystroke_n	n	n/a
195.8585	0.1205	391717	keystroke_g	g	n/a
196.008	0.136	392016	keystroke_Key.space	Key.space	n/a
196.3835	0.09	392767	keystroke_a	a	n/a
196.5635	0.135	393127	keystroke_n	n	n/a
196.8035	0.045	393607	keystroke_t	t	n/a
197.2535	0.105	394507	keystroke_e	e	n/a
197.4485	0.0745	394897	keystroke_n	n	n/a
197.613	0.09	395226	keystroke_n	n	n/a
197.7185	0.135	395437	keystroke_a	a	n/a
197.9735	0.105	395947	keystroke_Key.enter	Key.enter	n/a
198.083	8.187	396166	prompt	n/a	browser stylish bought thereafter\n
199.038	0.12	398076	keystroke_b	b	n/a
199.173	0.09	398346	keystroke_r	r	n/a
199.263	0.121	398526	keystroke_o	o	n/a
199.429	0.075	398858	keystroke_w	w	n/a
199.654	0.075	399308	keystroke_s	s	n/a
199.879	0.06	399758	keystroke_e	e	n/a
200.044	0.09	400088	keystroke_r	r	n/a
200.178	0.106	400356	keystroke_Key.space	Key.space	n/a
200.4935	0.105	400987	keystroke_s	s	n/a
200.7335	0.075	401467	keystroke_t	t	n/a
200.8835	0.06	401767	keystroke_y	y	n/a
200.9585	0.105	401917	keystroke_l	l	n/a
201.1235	0.135	402247	keystroke_i	i	n/a
201.2435	0.195	402487	keystroke_s	s	n/a
201.3935	0.18	402787	keystroke_h	h	n/a
201.5435	0.09	403087	keystroke_Key.space	Key.space	n/a
201.7085	0.2255	403417	keystroke_b	b	n/a
201.844	0.135	403688	keystroke_o	o	n/a
201.919	0.15	403838	keystroke_u	u	n/a
202.009	0.15	404018	keystroke_t	t	n/a
202.204	0.135	404408	keystroke_h	h	n/a
202.564	0.059	405128	keystroke_Key.backspace	Key.backspace	n/a
202.6835	0.105	405367	keystroke_Key.backspace	Key.backspace	n/a
202.8185	0.09	405637	keystroke_g	g	n/a
202.9685	0.09	405937	keystroke_h	h	n/a
203.0735	0.1495	406147	keystroke_t	t	n/a
203.328	0.12	406656	keystroke_Key.space	Key.space	n/a
204.0485	0.075	408097	keystroke_t	t	n/a
204.1385	0.105	408277	keystroke_h	h	n/a
204.2735	0.09	408547	keystroke_e	e	n/a
204.4985	0.0445	408997	keystroke_r	r	n/a
204.648	0.06	409296	keystroke_e	e	n/a
204.8885	0.105	409777	keystroke_a	a	n/a
205.1435	0.06	410287	keystroke_f	f	n/a
205.3535	0.075	410707	keystroke_t	t	n/a
205.579	0.09	411158	keystroke_e	e	n/a
205.759	0.09	411518	keystroke_r	r	n/a
206.163	0.105	412326	keystroke_Key.enter	Key.enter	n/a
206.273	6.912	412546	prompt	n/a	pantyhose dogs background this\n
207.063	0.105	414126	keystroke_p	p	n/a
207.228	0.135	414456	keystroke_a	a	n/a
207.318	0.12	414636	keystroke_n	n	n/a
207.663	0.1055	415326	keystroke_t	t	n/a
207.7985	0.12	415597	keystroke_y	y	n/a
208.2035	0.165	416407	keystroke_h	h	n/a
208.3235	0.18	416647	keystroke_o	o	n/a
208.4435	0.105	416887	keystroke_s	s	n/a
208.6535	0.12	417307	keystroke_e	e	n/a
208.8035	0.09	417607	keystroke_Key.space	Key.space	n/a
209.5235	0.105	419047	keystroke_d	d	n/a
209.5835	0.165	419167	keystroke_o	o	n/a
209.7785	0.15	419557	keystroke_g	g	n/a
209.9135	0.15	419827	keystroke_s	s	n/a
210.0935	0.105	420187	keystroke_Key.space	Key.space	n/a
210.3485	0.1045	420697	keystroke_b	b	n/a
210.4085	0.1045	420817	keystroke_a	a	n/a
210.663	0.105	421326	keystroke_c	c	n/a
210.858	0.12	421716	keystroke_k	k	n/a
211.009	0.089	422018	keystroke_g	g	n/a
211.473	0.09	422946	keystroke_r	r	n/a
211.593	0.2105	423186	keystroke_o	o	n/a
211.7135	0.18	423427	keystroke_u	u	n/a
211.8485	0.135	423697	keystroke_n	n	n/a
211.9235	0.135	423847	keystroke_d	d	n/a
212.1185	0.105	424237	keystroke_Key.space	Key.space	n/a
212.5235	0.09	425047	keystroke_t	t	n/a
212.6135	0.1945	425227	keystroke_h	h	n/a
212.748	0.135	425496	keystroke_i	i	n/a
212.853	0.15	425706	keystroke_s	s	n/a
213.093	0.09	426186	keystroke_Key.enter	Key.enter	n/a
213.1875	11.023	426375	prompt	n/a	basin palestinian behavioral graphs\n
213.9635	0.12	427927	keystroke_b	b	n/a
214.0385	0.12	428077	keystroke_a	a	n/a
214.2485	0.165	428497	keystroke_s	s	n/a
214.3385	0.24	428677	keystroke_i	i	n/a
214.5185	0.18	429037	keystroke_n	n	n/a
214.6685	0.1795	429337	keystroke_Key.space	Key.space	n/a
214.833	0.136	429666	keystroke_p	p	n/a
214.969	0.119	429938	keystroke_a	a	n/a
215.328	0.135	430656	keystroke_l	l	n/a
215.448	0.105	430896	keystroke_e	e	n/a
215.943	0.105	431886	keystroke_s	s	n/a
216.198	0.09	432396	keystroke_t	t	n/a
216.289	0.179	432578	keystroke_i	i	n/a
216.438	0.21	432876	keystroke_n	n	n/a
216.603	0.18	433206	keystroke_i	i	n/a
216.738	0.1655	433476	keystroke_a	a	n/a
216.9185	0.195	433837	keystroke_n	n	n/a
217.0685	0.135	434137	keystroke_Key.space	Key.space	n/a
217.3235	0.105	434647	keystroke_b	b	n/a
217.4435	0.12	434887	keystroke_e	e	n/a
221.106	0.057	442212	keystroke_h	h	n/a
221.118	0.091	442236	keystroke_a	a	n/a
221.373	0.075	442746	keystroke_v	v	n/a
221.493	0.196	442986	keystroke_i	i	n/a
221.613	0.166	443226	keystroke_o	o	n/a
221.734	0.09	443468	keystroke_r	r	n/a
221.958	0.15	443916	keystroke_a	a	n/a
222.078	0.15	444156	keystroke_l	l	n/a
222.183	0.105	444366	keystroke_Key.space	Key.space	n/a
223.3835	0.1045	446767	keystroke_g	g	n/a
223.474	0.075	446948	keystroke_r	r	n/a
223.669	0.1045	447338	keystroke_a	a	n/a
223.7285	0.18	447457	keystroke_p	p	n/a
223.8785	0.105	447757	keystroke_h	h	n/a
223.9235	0.12	447847	keystroke_s	s	n/a
224.1185	0.09	448237	keystroke_Key.enter	Key.enter	n/a
224.213	10.482	448426	prompt	n/a	remote interference basename statements\n
225.0035	0.06	450007	keystroke_r	r	n/a
225.1685	0.12	450337	keystroke_e	e	n/a
225.3035	0.135	450607	keystroke_m	m	n/a
225.3785	0.135	450757	keystroke_o	o	n/a
225.4835	0.075	450967	keystroke_t	t	n/a
225.6635	0.105	451327	keystroke_e	e	n/a
225.7835	0.105	451567	keystroke_Key.space	Key.space	n/a
226.0385	0.15	452077	keystroke_i	i	n/a
226.1285	0.135	452257	keystroke_n	n	n/a
226.2335	0.09	452467	keystroke_t	t	n/a
226.4285	0.105	452857	keystroke_e	e	n/a
226.593	0.105	453186	keystroke_r	r	n/a
226.803	0.09	453606	keystroke_f	f	n/a
226.998	0.106	453996	keystroke_e	e	n/a
227.223	0.105	454446	keystroke_r	r	n/a
227.463	0.06	454926	keystroke_e	e	n/a
227.6735	0.09	455347	keystroke_n	n	n/a
227.7785	0.075	455557	keystroke_c	c	n/a
227.9735	0.105	455947	keystroke_e	e	n/a
228.0935	0.105	456187	keystroke_Key.space	Key.space	n/a
228.4535	0.15	456907	keystroke_b	b	n/a
228.738	0.12	457476	keystroke_a	a	n/a
228.978	0.09	457956	keystroke_s	s	n/a
229.203	0.075	458406	keystroke_e	e	n/a
229.308	0.12	458616	keystroke_n	n	n/a
229.398	0.09	458796	keystroke_e	e	n/a
229.623	0.105	459246	keystroke_m	m	n/a
229.743	0.09	459486	keystroke_a	a	n/a
229.9835	0.075	459967	keystroke_e	e	n/a
230.0135	0.105	460027	keystroke_Key.space	Key.space	n/a
230.478	0.06	460956	keystroke_Key.backspace	Key.backspace	n/a
230.628	0.045	461256	keystroke_Key.backspace	Key.backspace	n/a
230.748	0.075	461496	keystroke_Key.backspace	Key.backspace	n/a
230.883	0.09	461766	keystroke_Key.backspace	Key.backspace	n/a
231.048	0.12	462096	keystroke_Key.backspace	Key.backspace	n/a
231.483	0.1205	462966	keystroke_a	a	n/a
231.6635	0.105	463327	keystroke_m	m	n/a
231.7835	0.12	463567	keystroke_e	e	n/a
231.9335	0.105	463867	keystroke_Key.space	Key.space	n/a
232.2935	0.09	464587	keystroke_s	s	n/a
232.6085	0.09	465217	keystroke_t	t	n/a
232.863	0.105	465726	keystroke_a	a	n/a
233.118	0.06	466236	keystroke_t	t	n/a
233.298	0.09	466596	keystroke_e	e	n/a
233.418	0.09	466836	keystroke_m	m	n/a
233.553	0.0755	467106	keystroke_e	e	n/a
233.6435	0.105	467287	keystroke_n	n	n/a
233.7485	0.09	467497	keystroke_t	t	n/a
234.0185	0.135	468037	keystroke_s	s	n/a
234.6185	0.075	469237	keystroke_Key.enter	Key.enter	n/a
234.698	7.782	469396	prompt	n/a	walk axis washington epic\n
235.4885	0.105	470977	keystroke_w	w	n/a
235.7135	0.12	471427	keystroke_a	a	n/a
235.8185	0.24	471637	keystroke_l	l	n/a
235.954	0.1945	471908	keystroke_k	k	n/a
236.1035	0.1355	472207	keystroke_Key.space	Key.space	n/a
236.269	0.1345	472538	keystroke_a	a	n/a
236.5385	0.1055	473077	keystroke_z	z	n/a
236.854	0.06	473708	keystroke_Key.backspace	Key.backspace	n/a
236.914	0.105	473828	keystroke_x	x	n/a
237.304	0.12	474608	keystroke_i	i	n/a
237.409	0.135	474818	keystroke_s	s	n/a
237.559	0.12	475118	keystroke_Key.space	Key.space	n/a
238.234	0.075	476468	keystroke_w	w	n/a
238.414	0.09	476828	keystroke_a	a	n/a
238.594	0.0895	477188	keystroke_s	s	n/a
238.6985	0.1355	477397	keystroke_h	h	n/a
238.849	0.15	477698	keystroke_i	i	n/a
238.939	0.165	477878	keystroke_n	n	n/a
239.2235	0.06	478447	keystroke_g	g	n/a
239.464	0.0895	478928	keystroke_t	t	n/a
239.5685	0.2395	479137	keystroke_o	o	n/a
239.733	0.21	479466	keystroke_n	n	n/a
239.898	0.135	479796	keystroke_Key.space	Key.space	n/a
240.048	0.09	480096	keystroke_e	e	n/a
240.153	0.136	480306	keystroke_p	p	n/a
240.258	0.195	480516	keystroke_i	i	n/a
240.393	0.106	480786	keystroke_d	d	n/a
241.2485	0.09	482497	keystroke_Key.backspace	Key.backspace	n/a
241.3535	0.12	482707	keystroke_c	c	n/a
242.403	0.076	484806	keystroke_Key.enter	Key.enter	n/a
242.4855	5.965	484971	prompt	n/a	contracts laden final knowing\n
243.259	0.075	486518	keystroke_c	c	n/a
243.349	0.1345	486698	keystroke_o	o	n/a
243.439	0.1495	486878	keystroke_n	n	n/a
243.574	0.0595	487148	keystroke_t	t	n/a
243.7085	0.09	487417	keystroke_r	r	n/a
243.949	0.09	487898	keystroke_a	a	n/a
244.1735	0.075	488347	keystroke_c	c	n/a
244.3835	0.06	488767	keystroke_t	t	n/a
244.6235	0.135	489247	keystroke_s	s	n/a
244.743	0.12	489486	keystroke_Key.space	Key.space	n/a
244.909	0.135	489818	keystroke_l	l	n/a
245.029	0.135	490058	keystroke_a	a	n/a
245.329	0.06	490658	keystroke_d	d	n/a
245.4935	0.12	490987	keystroke_e	e	n/a
245.7335	0.18	491467	keystroke_n	n	n/a
245.8835	0.1055	491767	keystroke_Key.space	Key.space	n/a
246.559	0.09	493118	keystroke_f	f	n/a
246.664	0.1495	493328	keystroke_i	i	n/a
246.739	0.1645	493478	keystroke_n	n	n/a
246.8735	0.165	493747	keystroke_a	a	n/a
247.0535	0.165	494107	keystroke_l	l	n/a
247.2035	0.165	494407	keystroke_Key.space	Key.space	n/a
247.3835	0.165	494767	keystroke_k	k	n/a
247.4885	0.15	494977	keystroke_n	n	n/a
247.5935	0.15	495187	keystroke_o	o	n/a
247.7135	0.1205	495427	keystroke_w	w	n/a
247.849	0.194	495698	keystroke_i	i	n/a
247.924	0.194	495848	keystroke_n	n	n/a
248.104	0.12	496208	keystroke_g	g	n/a
248.3585	0.09	496717	keystroke_Key.enter	Key.enter	n/a
248.453	6.867	496906	prompt	n/a	camcorders giving posted concern\n
249.379	0.09	498758	keystroke_c	c	n/a
249.544	0.135	499088	keystroke_a	a	n/a
249.709	0.195	499418	keystroke_m	m	n/a
249.9335	0.12	499867	keystroke_c	c	n/a
250.0985	0.09	500197	keystroke_o	o	n/a
250.2485	0.09	500497	keystroke_r	r	n/a
250.4885	0.075	500977	keystroke_d	d	n/a
250.6685	0.09	501337	keystroke_e	e	n/a
250.834	0.1055	501668	keystroke_r	r	n/a
251.0445	0.149	502089	keystroke_s	s	n/a
251.2085	0.0755	502417	keystroke_Key.space	Key.space	n/a
251.734	0.1045	503468	keystroke_g	g	n/a
251.8235	0.12	503647	keystroke_i	i	n/a
251.9285	0.12	503857	keystroke_v	v	n/a
252.0335	0.2105	504067	keystroke_i	i	n/a
252.1535	0.2555	504307	keystroke_n	n	n/a
252.259	0.105	504518	keystroke_g	g	n/a
252.409	0.134	504818	keystroke_Key.space	Key.space	n/a
252.739	0.18	505478	keystroke_p	p	n/a
252.889	0.15	505778	keystroke_o	o	n/a
253.009	0.134	506018	keystroke_s	s	n/a
253.279	0.135	506558	keystroke_t	t	n/a
253.5035	0.075	507007	keystroke_e	e	n/a
253.684	0.1645	507368	keystroke_d	d	n/a
253.8335	0.105	507667	keystroke_Key.space	Key.space	n/a
254.0735	0.09	508147	keystroke_c	c	n/a
254.1485	0.1805	508297	keystroke_o	o	n/a
254.299	0.15	508598	keystroke_n	n	n/a
254.374	0.076	508748	keystroke_c	c	n/a
254.569	0.09	509138	keystroke_e	e	n/a
254.779	0.075	509558	keystroke_r	r	n/a
254.914	0.12	509828	keystroke_n	n	n/a
255.214	0.105	510428	keystroke_Key.enter	Key.enter	n/a
255.323	8.787	510646	prompt	n/a	head archive thumbzilla blogging\n
256.144	0.135	512288	keystroke_h	h	n/a
256.234	0.09	512468	keystroke_e	e	n/a
256.4135	0.12	512827	keystroke_a	a	n/a
256.6085	0.09	513217	keystroke_d	d	n/a
256.7735	0.1055	513547	keystroke_Key.space	Key.space	n/a
256.864	0.09	513728	keystroke_a	a	n/a
257.1035	0.075	514207	keystroke_r	r	n/a
257.3285	0.105	514657	keystroke_c	c	n/a
257.5085	0.135	515017	keystroke_h	h	n/a
257.6135	0.15	515227	keystroke_i	i	n/a
257.8685	0.075	515737	keystroke_v	v	n/a
258.1085	0.09	516217	keystroke_e	e	n/a
258.2285	0.09	516457	keystroke_Key.space	Key.space	n/a
258.6935	0.12	517387	keystroke_t	t	n/a
258.8285	0.135	517657	keystroke_h	h	n/a
258.9935	0.105	517987	keystroke_u	u	n/a
259.5485	0.135	519097	keystroke_m	m	n/a
259.9685	0.12	519937	keystroke_b	b	n/a
260.8685	0.09	521737	keystroke_z	z	n/a
260.9595	0.089	521919	keystroke_i	i	n/a
261.1535	0.06	522307	keystroke_l	l	n/a
261.2885	0.165	522577	keystroke_l	l	n/a
261.3785	0.15	522757	keystroke_a	a	n/a
261.5135	0.1055	523027	keystroke_Key.space	Key.space	n/a
261.694	0.1345	523388	keystroke_b	b	n/a
261.8135	0.105	523627	keystroke_l	l	n/a
262.0835	0.1205	524167	keystroke_o	o	n/a
263.314	0.075	526628	keystroke_g	g	n/a
263.434	0.12	526868	keystroke_g	g	n/a
263.584	0.165	527168	keystroke_i	i	n/a
263.674	0.135	527348	keystroke_n	n	n/a
263.794	0.135	527588	keystroke_g	g	n/a
263.989	0.12	527978	keystroke_Key.enter	Key.enter	n/a
264.1135	6.7015	528227	prompt	n/a	drug model updates sandwich\n
265.0835	0.06	530167	keystroke_d	d	n/a
265.2185	0.195	530437	keystroke_r	r	n/a
265.3685	0.195	530737	keystroke_u	u	n/a
265.4885	0.15	530977	keystroke_g	g	n/a
265.6085	0.165	531217	keystroke_Key.space	Key.space	n/a
265.8035	0.165	531607	keystroke_m	m	n/a
265.9085	0.18	531817	keystroke_o	o	n/a
266.1935	0.075	532387	keystroke_d	d	n/a
266.3585	0.135	532717	keystroke_e	e	n/a
266.5235	0.24	533047	keystroke_l	l	n/a
266.6885	0.135	533377	keystroke_Key.space	Key.space	n/a
267.019	0.165	534038	keystroke_u	u	n/a
267.109	0.165	534218	keystroke_p	p	n/a
267.259	0.105	534518	keystroke_d	d	n/a
267.4535	0.12	534907	keystroke_a	a	n/a
267.5885	0.105	535177	keystroke_t	t	n/a
267.7085	0.1055	535417	keystroke_e	e	n/a
267.919	0.135	535838	keystroke_s	s	n/a
268.069	0.105	536138	keystroke_Key.space	Key.space	n/a
268.234	0.09	536468	keystroke_s	s	n/a
268.414	0.105	536828	keystroke_a	a	n/a
268.579	0.1195	537158	keystroke_n	n	n/a
268.7135	0.09	537427	keystroke_d	d	n/a
268.9385	0.09	537877	keystroke_w	w	n/a
269.0435	0.075	538087	keystroke_i	i	n/a
269.2385	0.06	538477	keystroke_s	s	n/a
269.584	0.12	539168	keystroke_h	h	n/a
270.049	0.03	540098	keystroke_Key.backspace	Key.backspace	n/a
270.154	0.059	540308	keystroke_Key.backspace	Key.backspace	n/a
270.229	0.105	540458	keystroke_c	c	n/a
270.378	0.106	540756	keystroke_h	h	n/a
270.723	0.09	541446	keystroke_Key.enter	Key.enter	n/a
270.818	8.3525	541636	prompt	n/a	tradition done guest insertion\n
271.549	0.0745	543098	keystroke_t	t	n/a
271.699	0.075	543398	keystroke_r	r	n/a
271.9085	0.0605	543817	keystroke_a	a	n/a
272.0735	0.06	544147	keystroke_d	d	n/a
272.2085	0.12	544417	keystroke_i	i	n/a
272.3435	0.0755	544687	keystroke_t	t	n/a
272.4485	0.1055	544897	keystroke_i	i	n/a
272.539	0.255	545078	keystroke_o	o	n/a
272.734	0.1795	545468	keystroke_n	n	n/a
272.8385	0.135	545677	keystroke_Key.space	Key.space	n/a
273.0785	0.0905	546157	keystroke_d	d	n/a
273.184	0.2095	546368	keystroke_o	o	n/a
273.3335	0.15	546667	keystroke_n	n	n/a
273.409	0.1045	546818	keystroke_e	e	n/a
273.5585	0.12	547117	keystroke_Key.space	Key.space	n/a
274.1735	0.09	548347	keystroke_g	g	n/a
274.2485	0.12	548497	keystroke_u	u	n/a
274.3535	0.09	548707	keystroke_e	e	n/a
274.5335	0.105	549067	keystroke_s	s	n/a
274.774	0.09	549548	keystroke_t	t	n/a
274.894	0.105	549788	keystroke_Key.space	Key.space	n/a
275.2685	0.1795	550537	keystroke_i	i	n/a
275.3885	0.1505	550777	keystroke_n	n	n/a
275.508	0.06	551016	keystroke_d	d	n/a
275.943	0.09	551886	keystroke_Key.backspace	Key.backspace	n/a
276.019	0.105	552038	keystroke_s	s	n/a
276.199	0.075	552398	keystroke_r	r	n/a
276.349	0.0745	552698	keystroke_r	r	n/a
276.5285	0.09	553057	keystroke_t	t	n/a
276.8285	0.0605	553657	keystroke_Key.backspace	Key.backspace	n/a
276.964	0.105	553928	keystroke_Key.backspace	Key.backspace	n/a
277.084	0.105	554168	keystroke_e	e	n/a
277.249	0.105	554498	keystroke_r	r	n/a
277.534	0.0445	555068	keystroke_Key.backspace	Key.backspace	n/a
277.6685	0.045	555337	keystroke_Key.backspace	Key.backspace	n/a
277.7885	0.09	555577	keystroke_Key.backspace	Key.backspace	n/a
277.9235	0.075	555847	keystroke_e	e	n/a
278.0585	0.105	556117	keystroke_r	r	n/a
278.2685	0.09	556537	keystroke_t	t	n/a
278.5685	0.135	557137	keystroke_i	i	n/a
278.6735	0.1655	557347	keystroke_o	o	n/a
278.764	0.1345	557528	keystroke_n	n	n/a
279.0785	0.09	558157	keystroke_Key.enter	Key.enter	n/a
279.173	7.0625	558346	prompt	n/a	constitute working printable prisoner\n
279.8735	0.09	559747	keystroke_c	c	n/a
279.9485	0.15	559897	keystroke_o	o	n/a
280.0535	0.15	560107	keystroke_n	n	n/a
280.1445	0.12	560289	keystroke_s	s	n/a
280.3985	0.106	560797	keystroke_t	t	n/a
280.5485	0.105	561097	keystroke_i	i	n/a
280.6685	0.06	561337	keystroke_t	t	n/a
280.8785	0.09	561757	keystroke_u	u	n/a
281.1935	0.09	562387	keystroke_t	t	n/a
281.3735	0.105	562747	keystroke_e	e	n/a
281.4935	0.1205	562987	keystroke_Key.space	Key.space	n/a
281.824	0.105	563648	keystroke_w	w	n/a
281.899	0.12	563798	keystroke_o	o	n/a
282.064	0.105	564128	keystroke_r	r	n/a
282.184	0.09	564368	keystroke_k	k	n/a
282.364	0.225	564728	keystroke_i	i	n/a
282.544	0.12	565088	keystroke_n	n	n/a
282.604	0.105	565208	keystroke_g	g	n/a
282.784	0.1045	565568	keystroke_Key.space	Key.space	n/a
283.2035	0.105	566407	keystroke_p	p	n/a
283.3535	0.105	566707	keystroke_r	r	n/a
283.4735	0.2105	566947	keystroke_i	i	n/a
283.5635	0.1355	567127	keystroke_n	n	n/a
283.669	0.075	567338	keystroke_t	t	n/a
283.879	0.165	567758	keystroke_a	a	n/a
284.029	0.15	568058	keystroke_b	b	n/a
284.119	0.195	568238	keystroke_l	l	n/a
284.209	0.135	568418	keystroke_e	e	n/a
284.434	0.075	568868	keystroke_Key.space	Key.space	n/a
284.539	0.135	569078	keystroke_p	p	n/a
284.659	0.09	569318	keystroke_r	r	n/a
284.7945	0.105	569589	keystroke_i	i	n/a
285.0935	0.0905	570187	keystroke_s	s	n/a
285.274	0.15	570548	keystroke_o	o	n/a
285.409	0.12	570818	keystroke_n	n	n/a
285.559	0.0895	571118	keystroke_e	e	n/a
285.7385	0.18	571477	keystroke_r	r	n/a
286.1435	0.09	572287	keystroke_Key.enter	Key.enter	n/a
286.239	10.4065	572478	prompt	n/a	faith notebooks breach designing\n
286.9835	0.075	573967	keystroke_f	f	n/a
287.1635	0.135	574327	keystroke_a	a	n/a
287.2985	0.105	574597	keystroke_i	i	n/a
287.4485	0.12	574897	keystroke_t	t	n/a
287.5535	0.1805	575107	keystroke_h	h	n/a
287.689	0.075	575378	keystroke_Key.space	Key.space	n/a
287.974	0.12	575948	keystroke_n	n	n/a
288.049	0.1345	576098	keystroke_o	o	n/a
288.1985	0.09	576397	keystroke_t	t	n/a
288.379	0.105	576758	keystroke_e	e	n/a
288.529	0.105	577058	keystroke_b	b	n/a
288.694	0.09	577388	keystroke_o	o	n/a
288.874	0.165	577748	keystroke_o	o	n/a
288.979	0.1345	577958	keystroke_k	k	n/a
289.0835	0.15	578167	keystroke_s	s	n/a
289.2485	0.09	578497	keystroke_Key.space	Key.space	n/a
289.3985	0.12	578797	keystroke_b	b	n/a
289.5785	0.075	579157	keystroke_r	r	n/a
290.0435	0.075	580087	keystroke_e	e	n/a
290.4495	0.104	580899	keystroke_a	a	n/a
290.839	0.105	581678	keystroke_c	c	n/a
290.959	0.1345	581918	keystroke_h	h	n/a
291.0485	0.105	582097	keystroke_Key.space	Key.space	n/a
291.5895	0.06	583179	keystroke_d	d	n/a
291.7235	0.091	583447	keystroke_e	e	n/a
291.9045	0.12	583809	keystroke_i	i	n/a
291.9645	0.105	583929	keystroke_s	s	n/a
292.1895	0.12	584379	keystroke_g	g	n/a
292.3245	0.135	584649	keystroke_n	n	n/a
292.4895	0.149	584979	keystroke_i	i	n/a
292.9235	0.061	585847	keystroke_Key.backspace	Key.backspace	n/a
293.0745	0.044	586149	keystroke_Key.backspace	Key.backspace	n/a
293.2235	0.03	586447	keystroke_Key.backspace	Key.backspace	n/a
293.3595	0.045	586719	keystroke_Key.backspace	Key.backspace	n/a
293.4935	0.075	586987	keystroke_Key.backspace	Key.backspace	n/a
293.7035	0.135	587407	keystroke_s	s	n/a
293.8685	0.165	587737	keystroke_i	i	n/a
294.0635	0.12	588127	keystroke_g	g	n/a
294.1535	0.15	588307	keystroke_n	n	n/a
294.2885	0.15	588577	keystroke_i	i	n/a
294.3785	0.1355	588757	keystroke_n	n	n/a
294.4685	0.1355	588937	keystroke_g	g	n/a
296.554	0.09	593108	keystroke_Key.enter	Key.enter	n/a
296.6485	6.507	593297	prompt	n/a	fight gordon linda confused\n
297.4995	0.1045	594999	keystroke_f	f	n/a
297.619	0.06	595238	keystroke_i	i	n/a
297.724	0.06	595448	keystroke_g	g	n/a
297.814	0.1045	595628	keystroke_h	h	n/a
297.9485	0.09	595897	keystroke_t	t	n/a
298.0535	0.135	596107	keystroke_Key.space	Key.space	n/a
298.5785	0.0755	597157	keystroke_g	g	n/a
298.669	0.12	597338	keystroke_o	o	n/a
298.804	0.09	597608	keystroke_r	r	n/a
299.119	0.09	598238	keystroke_d	d	n/a
299.419	0.21	598838	keystroke_o	o	n/a
299.569	0.225	599138	keystroke_n	n	n/a
299.734	0.105	599468	keystroke_Key.space	Key.space	n/a
300.049	0.225	600098	keystroke_l	l	n/a
300.199	0.195	600398	keystroke_i	i	n/a
300.319	0.165	600638	keystroke_n	n	n/a
300.439	0.105	600878	keystroke_d	d	n/a
300.634	0.1645	601268	keystroke_a	a	n/a
300.7685	0.135	601537	keystroke_Key.space	Key.space	n/a
301.4285	0.09	602857	keystroke_c	c	n/a
301.5335	0.195	603067	keystroke_o	o	n/a
301.669	0.1495	603338	keystroke_n	n	n/a
301.9385	0.06	603877	keystroke_f	f	n/a
302.0585	0.09	604117	keystroke_u	u	n/a
302.1935	0.09	604387	keystroke_s	s	n/a
302.3735	0.06	604747	keystroke_e	e	n/a
302.5685	0.09	605137	keystroke_d	d	n/a
303.049	0.105	606098	keystroke_Key.enter	Key.enter	n/a
303.158	6.9725	606316	prompt	n/a	oasis fist allow antarctica\n
303.7685	0.135	607537	keystroke_o	o	n/a
303.9335	0.105	607867	keystroke_a	a	n/a
304.1435	0.09	608287	keystroke_s	s	n/a
304.2785	0.12	608557	keystroke_i	i	n/a
304.4135	0.15	608827	keystroke_s	s	n/a
304.5935	0.12	609187	keystroke_Key.space	Key.space	n/a
305.2245	0.09	610449	keystroke_f	f	n/a
305.3295	0.1195	610659	keystroke_i	i	n/a
305.434	0.135	610868	keystroke_s	s	n/a
305.674	0.105	611348	keystroke_t	t	n/a
305.794	0.105	611588	keystroke_Key.space	Key.space	n/a
305.959	0.075	611918	keystroke_a	a	n/a
306.049	0.09	612098	keystroke_l	l	n/a
306.229	0.075	612458	keystroke_l	l	n/a
306.379	0.135	612758	keystroke_o	o	n/a
306.484	0.12	612968	keystroke_w	w	n/a
306.664	0.1045	613328	keystroke_Key.space	Key.space	n/a
307.4435	0.12	614887	keystroke_a	a	n/a
307.5785	0.135	615157	keystroke_n	n	n/a
307.8035	0.0755	615607	keystroke_t	t	n/a
308.029	0.1045	616058	keystroke_a	a	n/a
308.2385	0.09	616477	keystroke_r	r	n/a
308.4635	0.075	616927	keystroke_c	c	n/a
308.7485	0.06	617497	keystroke_t	t	n/a
308.9435	0.12	617887	keystroke_i	i	n/a
309.1695	0.075	618339	keystroke_c	c	n/a
309.4835	0.12	618967	keystroke_a	a	n/a
310.0535	0.075	620107	keystroke_Key.enter	Key.enter	n/a
310.133	8.6975	620266	prompt	n/a	organic combining accurate titles\n
310.8795	0.135	621759	keystroke_o	o	n/a
311.104	0.075	622208	keystroke_r	r	n/a
311.284	0.09	622568	keystroke_g	g	n/a
311.389	0.165	622778	keystroke_a	a	n/a
311.524	0.1795	623048	keystroke_n	n	n/a
311.6435	0.135	623287	keystroke_i	i	n/a
311.9735	0.09	623947	keystroke_x	x	n/a
312.4235	0.0905	624847	keystroke_Key.backspace	Key.backspace	n/a
312.649	0.06	625298	keystroke_d	d	n/a
313.309	0.075	626618	keystroke_Key.backspace	Key.backspace	n/a
313.444	0.105	626888	keystroke_c	c	n/a
313.669	0.09	627338	keystroke_Key.space	Key.space	n/a
314.404	0.105	628808	keystroke_c	c	n/a
314.494	0.21	628988	keystroke_o	o	n/a
314.629	0.12	629258	keystroke_m	m	n/a
314.854	0.135	629708	keystroke_b	b	n/a
315.004	0.165	630008	keystroke_i	i	n/a
315.1395	0.1645	630279	keystroke_n	n	n/a
315.289	0.165	630578	keystroke_i	i	n/a
315.394	0.24	630788	keystroke_n	n	n/a
315.469	0.18	630938	keystroke_g	g	n/a
315.664	0.105	631328	keystroke_Key.space	Key.space	n/a
315.919	0.105	631838	keystroke_a	a	n/a
316.219	0.045	632438	keystroke_c	c	n/a
316.3385	0.09	632677	keystroke_c	c	n/a
316.474	0.105	632948	keystroke_u	u	n/a
316.624	0.075	633248	keystroke_r	r	n/a
316.849	0.09	633698	keystroke_a	a	n/a
317.119	0.075	634238	keystroke_t	t	n/a
317.314	0.12	634628	keystroke_e	e	n/a
317.479	0.105	634958	keystroke_Key.space	Key.space	n/a
317.644	0.1195	635288	keystroke_t	t	n/a
317.7485	0.12	635497	keystroke_i	i	n/a
317.8535	0.12	635707	keystroke_t	t	n/a
318.0185	0.1355	636037	keystroke_l	l	n/a
318.154	0.105	636308	keystroke_e	e	n/a
318.379	0.12	636758	keystroke_s	s	n/a
318.724	0.105	637448	keystroke_Key.enter	Key.enter	n/a
318.8335	6.237	637667	prompt	n/a	tomato candle tribune sympathy\n
319.489	0.1045	638978	keystroke_t	t	n/a
319.6085	0.135	639217	keystroke_o	o	n/a
319.8035	0.105	639607	keystroke_m	m	n/a
319.9235	0.105	639847	keystroke_a	a	n/a
320.1785	0.12	640357	keystroke_t	t	n/a
320.3145	0.2095	640629	keystroke_o	o	n/a
320.494	0.105	640988	keystroke_Key.space	Key.space	n/a
320.794	0.06	641588	keystroke_c	c	n/a
320.974	0.12	641948	keystroke_a	a	n/a
321.109	0.12	642218	keystroke_n	n	n/a
321.304	0.03	642608	keystroke_d	d	n/a
321.379	0.135	642758	keystroke_l	l	n/a
321.484	0.135	642968	keystroke_e	e	n/a
321.679	0.105	643358	keystroke_Key.space	Key.space	n/a
321.964	0.105	643928	keystroke_t	t	n/a
322.174	0.06	644348	keystroke_r	r	n/a
322.279	0.135	644558	keystroke_i	i	n/a
322.399	0.18	644798	keystroke_b	b	n/a
322.549	0.15	645098	keystroke_u	u	n/a
322.744	0.165	645488	keystroke_n	n	n/a
322.879	0.105	645758	keystroke_e	e	n/a
323.014	0.1195	646028	keystroke_Key.space	Key.space	n/a
323.3735	0.15	646747	keystroke_s	s	n/a
323.5385	0.075	647077	keystroke_y	y	n/a
323.734	0.1505	647468	keystroke_m	m	n/a
323.8535	0.1655	647707	keystroke_p	p	n/a
324.0035	0.135	648007	keystroke_a	a	n/a
324.2585	0.12	648517	keystroke_t	t	n/a
324.4835	0.225	648967	keystroke_h	h	n/a
324.5885	0.195	649177	keystroke_y	y	n/a
324.9785	0.09	649957	keystroke_Key.enter	Key.enter	n/a
325.076	10.8995	650152	prompt	n/a	measurements oakland blackjack bowling\n
325.6835	0.165	651367	keystroke_m	m	n/a
325.8635	0.075	651727	keystroke_e	e	n/a
326.1035	0.09	652207	keystroke_a	a	n/a
326.2685	0.105	652537	keystroke_s	s	n/a
326.4185	0.12	652837	keystroke_u	u	n/a
326.5985	0.075	653197	keystroke_r	r	n/a
326.7935	0.075	653587	keystroke_e	e	n/a
326.9435	0.1055	653887	keystroke_m	m	n/a
327.064	0.09	654128	keystroke_e	e	n/a
327.169	0.1055	654338	keystroke_n	n	n/a
327.2895	0.09	654579	keystroke_t	t	n/a
327.5145	0.075	655029	keystroke_w	w	n/a
327.6195	0.135	655239	keystroke_Key.space	Key.space	n/a
328.084	0.045	656168	keystroke_Key.backspace	Key.backspace	n/a
328.204	0.105	656408	keystroke_Key.backspace	Key.backspace	n/a
328.339	0.135	656678	keystroke_s	s	n/a
328.429	0.135	656858	keystroke_Key.space	Key.space	n/a
328.714	0.12	657428	keystroke_o	o	n/a
328.939	0.135	657878	keystroke_a	a	n/a
329.089	0.105	658178	keystroke_k	k	n/a
329.329	0.105	658658	keystroke_l	l	n/a
329.479	0.105	658958	keystroke_a	a	n/a
329.599	0.105	659198	keystroke_n	n	n/a
329.734	0.06	659468	keystroke_d	d	n/a
330.169	0.09	660338	keystroke_Key.space	Key.space	n/a
330.544	0.135	661088	keystroke_b	b	n/a
330.649	0.135	661298	keystroke_l	l	n/a
330.724	0.15	661448	keystroke_a	a	n/a
330.994	0.09	661988	keystroke_c	c	n/a
331.099	0.105	662198	keystroke_k	k	n/a
331.534	0.1055	663068	keystroke_a	a	n/a
331.8645	0.075	663729	keystroke_Key.backspace	Key.backspace	n/a
332.0745	0.12	664149	keystroke_h	h	n/a
332.1645	0.105	664329	keystroke_a	a	n/a
332.3895	0.135	664779	keystroke_c	c	n/a
332.7795	0.059	665559	keystroke_Key.backspace	Key.backspace	n/a
332.9135	0.0755	665827	keystroke_Key.backspace	Key.backspace	n/a
333.094	0.09	666188	keystroke_Key.backspace	Key.backspace	n/a
333.9035	0.105	667807	keystroke_j	j	n/a
333.9935	0.12	667987	keystroke_a	a	n/a
334.2185	0.135	668437	keystroke_c	c	n/a
334.4135	0.15	668827	keystroke_k	k	n/a
334.5935	0.105	669187	keystroke_Key.space	Key.space	n/a
334.849	0.15	669698	keystroke_b	b	n/a
334.969	0.135	669938	keystroke_o	o	n/a
335.089	0.12	670178	keystroke_w	w	n/a
335.239	0.075	670478	keystroke_l	l	n/a
335.449	0.135	670898	keystroke_i	i	n/a
335.554	0.135	671108	keystroke_n	n	n/a
335.644	0.12	671288	keystroke_g	g	n/a
335.884	0.09	671768	keystroke_Key.enter	Key.enter	n/a
335.979	5.8015	671958	prompt	n/a	wants you'll capitol commons\n
336.814	0.0755	673628	keystroke_w	w	n/a
336.9945	0.105	673989	keystroke_a	a	n/a
337.1595	0.105	674319	keystroke_n	n	n/a
337.3395	0.09	674679	keystroke_t	t	n/a
337.5645	0.0895	675129	keystroke_s	s	n/a
337.684	0.12	675368	keystroke_Key.space	Key.space	n/a
337.894	0.1055	675788	keystroke_y	y	n/a
337.9695	0.2395	675939	keystroke_o	o	n/a
338.149	0.12	676298	keystroke_u	u	n/a
338.404	0.105	676808	keystroke_'	'	n/a
338.659	0.075	677318	keystroke_l	l	n/a
338.809	0.1495	677618	keystroke_l	l	n/a
338.9435	0.12	677887	keystroke_Key.space	Key.space	n/a
339.2435	0.075	678487	keystroke_c	c	n/a
339.4385	0.135	678877	keystroke_a	a	n/a
339.5885	0.15	679177	keystroke_p	p	n/a
339.7085	0.165	679417	keystroke_i	i	n/a
339.8585	0.151	679717	keystroke_t	t	n/a
339.994	0.1355	679988	keystroke_o	o	n/a
340.384	0.03	680768	keystroke_l	l	n/a
340.399	0.135	680798	keystroke_Key.space	Key.space	n/a
340.535	0.104	681070	keystroke_c	c	n/a
340.669	0.1345	681338	keystroke_o	o	n/a
340.8935	0.091	681787	keystroke_m	m	n/a
341.0595	0.12	682119	keystroke_m	m	n/a
341.1485	0.225	682297	keystroke_o	o	n/a
341.3135	0.165	682627	keystroke_n	n	n/a
341.4645	0.1195	682929	keystroke_s	s	n/a
341.689	0.09	683378	keystroke_Key.enter	Key.enter	n/a
341.784	6.191	683568	prompt	n/a	after more though serious\n
342.604	0.105	685208	keystroke_a	a	n/a
342.829	0.06	685658	keystroke_f	f	n/a
342.994	0.075	685988	keystroke_t	t	n/a
343.204	0.09	686408	keystroke_e	e	n/a
343.384	0.0895	686768	keystroke_r	r	n/a
343.5785	0.24	687157	keystroke_m	m	n/a
343.7435	0.18	687487	keystroke_o	o	n/a
343.8785	0.12	687757	keystroke_r	r	n/a
344.1935	0.06	688387	keystroke_Key.backspace	Key.backspace	n/a
344.3585	0.06	688717	keystroke_Key.backspace	Key.backspace	n/a
344.5385	0.06	689077	keystroke_Key.backspace	Key.backspace	n/a
344.7185	0.12	689437	keystroke_Key.space	Key.space	n/a
344.8845	0.1945	689769	keystroke_m	m	n/a
345.034	0.15	690068	keystroke_o	o	n/a
345.08	0.224	690160	keystroke_r	r	n/a
345.289	0.255	690578	keystroke_e	e	n/a
345.559	0.1345	691118	keystroke_Key.space	Key.space	n/a
345.7085	0.135	691417	keystroke_t	t	n/a
345.8735	0.225	691747	keystroke_h	h	n/a
346.0085	0.18	692017	keystroke_o	o	n/a
346.0835	0.165	692167	keystroke_u	u	n/a
346.2035	0.15	692407	keystroke_g	g	n/a
346.3385	0.135	692677	keystroke_h	h	n/a
346.4285	0.12	692857	keystroke_Key.space	Key.space	n/a
346.6235	0.12	693247	keystroke_s	s	n/a
346.8485	0.045	693697	keystroke_e	e	n/a
346.9685	0.12	693937	keystroke_r	r	n/a
347.2085	0.18	694417	keystroke_i	i	n/a
347.3735	0.165	694747	keystroke_o	o	n/a
347.4785	0.21	694957	keystroke_u	u	n/a
347.6585	0.1805	695317	keystroke_s	s	n/a
347.8835	0.09	695767	keystroke_Key.enter	Key.enter	n/a
347.978	9.7775	695956	prompt	n/a	nicole yahoo expressions wives\n
348.694	0.135	697388	keystroke_n	n	n/a
348.934	0.03	697868	keystroke_o	o	n/a
349.639	0.075	699278	keystroke_Key.backspace	Key.backspace	n/a
349.879	0.105	699758	keystroke_i	i	n/a
349.969	0.12	699938	keystroke_c	c	n/a
350.119	0.09	700238	keystroke_o	o	n/a
350.314	0.12	700628	keystroke_l	l	n/a
350.404	0.165	700808	keystroke_e	e	n/a
350.599	0.1045	701198	keystroke_Key.space	Key.space	n/a
350.8985	0.105	701797	keystroke_y	y	n/a
351.0185	0.12	702037	keystroke_a	a	n/a
351.1535	0.105	702307	keystroke_h	h	n/a
351.3635	0.075	702727	keystroke_o	o	n/a
351.5285	0.1655	703057	keystroke_o	o	n/a
351.679	0.1195	703358	keystroke_Key.space	Key.space	n/a
351.8145	0.09	703629	keystroke_e	e	n/a
352.0545	0.119	704109	keystroke_x	x	n/a
352.3385	0.06	704677	keystroke_r	r	n/a
352.669	0.09	705338	keystroke_Key.backspace	Key.backspace	n/a
353.329	0.12	706658	keystroke_p	p	n/a
353.419	0.105	706838	keystroke_r	r	n/a
353.599	0.105	707198	keystroke_e	e	n/a
353.824	0.09	707648	keystroke_s	s	n/a
353.989	0.165	707978	keystroke_s	s	n/a
354.139	0.15	708278	keystroke_i	i	n/a
354.259	0.195	708518	keystroke_o	o	n/a
354.394	0.165	708788	keystroke_n	n	n/a
354.484	0.2245	708968	keystroke_s	s	n/a
354.679	0.1345	709358	keystroke_Key.space	Key.space	n/a
355.4735	0.105	710947	keystroke_q	q	n/a
356.089	0.075	712178	keystroke_Key.backspace	Key.backspace	n/a
356.179	0.135	712358	keystroke_w	w	n/a
356.3885	0.0905	712777	keystroke_i	i	n/a
356.494	0.0895	712988	keystroke_v	v	n/a
356.7185	0.09	713437	keystroke_e	e	n/a
356.9435	0.15	713887	keystroke_s	s	n/a
357.6635	0.0905	715327	keystroke_Key.enter	Key.enter	n/a
357.759	11.1115	715518	prompt	n/a	bureau identifying dispatched want\n
358.6535	0.195	717307	keystroke_b	b	n/a
358.8185	0.15	717637	keystroke_u	u	n/a
358.9385	0.135	717877	keystroke_r	r	n/a
359.314	0.105	718628	keystroke_e	e	n/a
359.824	0.105	719648	keystroke_a	a	n/a
360.469	0.0745	720938	keystroke_u	u	n/a
360.6485	0.0895	721297	keystroke_Key.space	Key.space	n/a
361.4595	0.149	722919	keystroke_i	i	n/a
361.5945	0.06	723189	keystroke_d	d	n/a
361.7585	0.09	723517	keystroke_e	e	n/a
361.8635	0.12	723727	keystroke_n	n	n/a
362.0885	0.075	724177	keystroke_t	t	n/a
362.2085	0.1055	724417	keystroke_i	i	n/a
362.314	0.135	724628	keystroke_f	f	n/a
362.614	0.12	725228	keystroke_y	y	n/a
362.704	0.2395	725408	keystroke_i	i	n/a
362.8535	0.15	725707	keystroke_n	n	n/a
362.9885	0.135	725977	keystroke_h	h	n/a
363.1385	0.12	726277	keystroke_Key.space	Key.space	n/a
363.7085	0.06	727417	keystroke_Key.backspace	Key.backspace	n/a
363.8585	0.075	727717	keystroke_Key.backspace	Key.backspace	n/a
364.6085	0.075	729217	keystroke_g	g	n/a
364.7135	0.105	729427	keystroke_Key.space	Key.space	n/a
365.479	0.075	730958	keystroke_d	d	n/a
365.554	0.105	731108	keystroke_i	i	n/a
365.6885	0.105	731377	keystroke_s	s	n/a
365.8085	0.12	731617	keystroke_p	p	n/a
365.9435	0.09	731887	keystroke_a	a	n/a
366.1835	0.075	732367	keystroke_t	t	n/a
366.4085	0.075	732817	keystroke_c	c	n/a
366.5435	0.105	733087	keystroke_h	h	n/a
366.6635	0.075	733327	keystroke_e	e	n/a
366.859	0.0895	733718	keystroke_d	d	n/a
366.9785	0.105	733957	keystroke_Key.space	Key.space	n/a
367.3085	0.045	734617	keystroke_w	w	n/a
368.044	0.0905	736088	keystroke_a	a	n/a
368.179	0.104	736358	keystroke_n	n	n/a
368.3435	0.12	736687	keystroke_t	t	n/a
368.7485	0.1205	737497	keystroke_Key.enter	Key.enter	n/a
368.874	6.851	737748	prompt	n/a	carbon neon lewis command\n
369.7385	0.075	739477	keystroke_c	c	n/a
369.9035	0.12	739807	keystroke_a	a	n/a
370.1435	0.09	740287	keystroke_r	r	n/a
370.2635	0.15	740527	keystroke_b	b	n/a
370.3835	0.285	740767	keystroke_o	o	n/a
370.5635	0.21	741127	keystroke_n	n	n/a
370.7585	0.1805	741517	keystroke_Key.space	Key.space	n/a
371.044	0.165	742088	keystroke_n	n	n/a
371.179	0.135	742358	keystroke_e	e	n/a
371.329	0.255	742658	keystroke_o	o	n/a
371.524	0.2395	743048	keystroke_n	n	n/a
371.7185	0.135	743437	keystroke_Key.space	Key.space	n/a
372.0035	0.15	744007	keystroke_l	l	n/a
372.214	0.045	744428	keystroke_w	w	n/a
372.679	0.06	745358	keystroke_Key.backspace	Key.backspace	n/a
372.724	0.105	745448	keystroke_e	e	n/a
372.904	0.105	745808	keystroke_w	w	n/a
373.114	0.135	746228	keystroke_s	s	n/a
373.234	0.105	746468	keystroke_i	i	n/a
373.654	0.06	747308	keystroke_Key.backspace	Key.backspace	n/a
373.789	0.06	747578	keystroke_Key.backspace	Key.backspace	n/a
373.999	0.12	747998	keystroke_i	i	n/a
374.059	0.165	748118	keystroke_s	s	n/a
374.209	0.105	748418	keystroke_Key.space	Key.space	n/a
374.449	0.105	748898	keystroke_c	c	n/a
374.569	0.09	749138	keystroke_o	o	n/a
374.779	0.075	749558	keystroke_m	m	n/a
374.914	0.1045	749828	keystroke_m	m	n/a
375.0035	0.12	750007	keystroke_a	a	n/a
375.1535	0.1055	750307	keystroke_n	n	n/a
375.289	0.15	750578	keystroke_d	d	n/a
375.604	0.12	751208	keystroke_Key.enter	Key.enter	n/a
375.7285	9.087	751457	prompt	n/a	exempt renew consultant utilities\n
376.399	0.0895	752798	keystroke_e	e	n/a
376.624	0.09	753248	keystroke_x	x	n/a
376.834	0.0745	753668	keystroke_e	e	n/a
376.9535	0.18	753907	keystroke_m	m	n/a
377.0735	0.18	754147	keystroke_p	p	n/a
377.1785	0.12	754357	keystroke_t	t	n/a
377.4035	0.105	754807	keystroke_Key.space	Key.space	n/a
377.8695	0.075	755739	keystroke_r	r	n/a
378.0335	0.106	756067	keystroke_e	e	n/a
378.1545	0.12	756309	keystroke_n	n	n/a
378.2585	0.0905	756517	keystroke_e	e	n/a
378.439	0.1645	756878	keystroke_w	w	n/a
378.6495	0.104	757299	keystroke_Key.space	Key.space	n/a
378.9635	0.046	757927	keystroke_c	c	n/a
379.294	0.165	758588	keystroke_o	o	n/a
379.384	0.165	758768	keystroke_n	n	n/a
379.534	0.1045	759068	keystroke_s	s	n/a
379.9685	0.105	759937	keystroke_u	u	n/a
380.1485	0.1205	760297	keystroke_l	l	n/a
380.239	0.09	760478	keystroke_t	t	n/a
380.4945	0.105	760989	keystroke_a	a	n/a
380.7945	0.0895	761589	keystroke_n	n	n/a
381.064	0.105	762128	keystroke_t	t	n/a
381.214	0.105	762428	keystroke_Key.space	Key.space	n/a
382.009	0.12	764018	keystroke_i	i	n/a
382.369	0.075	764738	keystroke_Key.backspace	Key.backspace	n/a
382.579	0.135	765158	keystroke_u	u	n/a
382.699	0.15	765398	keystroke_t	t	n/a
382.924	0.18	765848	keystroke_i	i	n/a
383.089	0.225	766178	keystroke_l	l	n/a
383.284	0.12	766568	keystroke_i	i	n/a
383.389	0.1495	766778	keystroke_t	t	n/a
383.554	0.12	767108	keystroke_i	i	n/a
383.7635	0.1055	767527	keystroke_e	e	n/a
383.974	0.105	767948	keystroke_s	s	n/a
384.694	0.12	769388	keystroke_Key.enter	Key.enter	n/a
384.8185	8.3225	769637	prompt	n/a	qualify bottom knight brooklyn\n
385.8185	0.0905	771637	keystroke_q	q	n/a
386.119	0.1345	772238	keystroke_a	a	n/a
387.1985	0.06	774397	keystroke_Key.backspace	Key.backspace	n/a
387.4385	0.12	774877	keystroke_u	u	n/a
387.5285	0.15	775057	keystroke_a	a	n/a
387.7535	0.135	775507	keystroke_l	l	n/a
387.8735	0.0905	775747	keystroke_i	i	n/a
388.7295	0.075	777459	keystroke_f	f	n/a
388.879	0.165	777758	keystroke_y	y	n/a
389.0295	0.135	778059	keystroke_Key.space	Key.space	n/a
389.2545	0.15	778509	keystroke_b	b	n/a
389.3745	0.15	778749	keystroke_o	o	n/a
389.5395	0.09	779079	keystroke_t	t	n/a
389.6895	0.12	779379	keystroke_t	t	n/a
389.8095	0.21	779619	keystroke_o	o	n/a
389.9595	0.18	779919	keystroke_m	m	n/a
390.1095	0.15	780219	keystroke_Key.space	Key.space	n/a
390.2895	0.15	780579	keystroke_k	k	n/a
390.3945	0.21	780789	keystroke_n	n	n/a
390.5745	0.165	781149	keystroke_i	i	n/a
390.7545	0.075	781509	keystroke_g	g	n/a
390.8445	0.12	781689	keystroke_h	h	n/a
390.9645	0.149	781929	keystroke_t	t	n/a
391.1735	0.121	782347	keystroke_Key.space	Key.space	n/a
391.3995	0.104	782799	keystroke_b	b	n/a
391.609	0.075	783218	keystroke_r	r	n/a
391.729	0.0595	783458	keystroke_o	o	n/a
391.8635	0.166	783727	keystroke_o	o	n/a
392.0145	0.164	784029	keystroke_k	k	n/a
392.1935	0.15	784387	keystroke_l	l	n/a
392.3885	0.09	784777	keystroke_y	y	n/a
392.779	0.12	785558	keystroke_n	n	n/a
393.0495	0.0895	786099	keystroke_Key.enter	Key.enter	n/a
393.1435	5.847	786287	prompt	n/a	side cell prefers clarke\n
393.859	0.09	787718	keystroke_s	s	n/a
393.979	0.105	787958	keystroke_i	i	n/a
394.069	0.09	788138	keystroke_d	d	n/a
394.264	0.105	788528	keystroke_e	e	n/a
394.384	0.15	788768	keystroke_Key.space	Key.space	n/a
394.579	0.09	789158	keystroke_c	c	n/a
394.774	0.135	789548	keystroke_e	e	n/a
394.909	0.09	789818	keystroke_l	l	n/a
395.074	0.165	790148	keystroke_l	l	n/a
395.209	0.135	790418	keystroke_Key.space	Key.space	n/a
395.3885	0.15	790777	keystroke_p	p	n/a
395.5235	0.09	791047	keystroke_r	r	n/a
395.749	0.09	791498	keystroke_e	e	n/a
395.944	0.06	791888	keystroke_f	f	n/a
396.124	0.06	792248	keystroke_e	e	n/a
396.259	0.09	792518	keystroke_r	r	n/a
396.484	0.135	792968	keystroke_s	s	n/a
396.649	0.075	793298	keystroke_Key.space	Key.space	n/a
397.0385	0.09	794077	keystroke_c	c	n/a
397.1735	0.15	794347	keystroke_l	l	n/a
397.3085	0.09	794617	keystroke_e	e	n/a
397.9835	0.075	795967	keystroke_Key.backspace	Key.backspace	n/a
398.0285	0.12	796057	keystroke_a	a	n/a
398.2835	0.09	796567	keystroke_r	r	n/a
398.5685	0.105	797137	keystroke_k	k	n/a
398.6885	0.1355	797377	keystroke_e	e	n/a
398.914	0.075	797828	keystroke_Key.enter	Key.enter	n/a
398.9935	8.1575	797987	prompt	n/a	comm applies village how's\n
399.889	0.075	799778	keystroke_c	c	n/a
399.979	0.135	799958	keystroke_o	o	n/a
400.219	0.075	800438	keystroke_m	m	n/a
400.384	0.165	800768	keystroke_m	m	n/a
400.564	0.135	801128	keystroke_Key.space	Key.space	n/a
400.909	0.12	801818	keystroke_a	a	n/a
400.999	0.09	801998	keystroke_p	p	n/a
401.179	0.15	802358	keystroke_p	p	n/a
401.299	0.105	802598	keystroke_l	l	n/a
401.569	0.06	803138	keystroke_u	u	n/a
401.659	0.12	803318	keystroke_e	e	n/a
401.869	0.1045	803738	keystroke_s	s	n/a
402.1385	0.0455	804277	keystroke_Key.backspace	Key.backspace	n/a
402.259	0.06	804518	keystroke_Key.backspace	Key.backspace	n/a
402.409	0.09	804818	keystroke_Key.backspace	Key.backspace	n/a
403.024	0.12	806048	keystroke_i	i	n/a
403.129	0.09	806258	keystroke_e	e	n/a
403.324	0.18	806648	keystroke_s	s	n/a
403.489	0.105	806978	keystroke_Key.space	Key.space	n/a
404.179	0.075	808358	keystroke_v	v	n/a
404.299	0.075	808598	keystroke_i	i	n/a
404.524	0.06	809048	keystroke_l	l	n/a
404.674	0.09	809348	keystroke_l	l	n/a
404.839	0.1505	809678	keystroke_a	a	n/a
405.0195	0.135	810039	keystroke_g	g	n/a
405.1695	0.135	810339	keystroke_e	e	n/a
405.3195	0.105	810639	keystroke_Key.space	Key.space	n/a
405.769	0.18	811538	keystroke_h	h	n/a
405.889	0.1655	811778	keystroke_o	o	n/a
406.3385	0.121	812677	keystroke_w	w	n/a
406.5035	0.136	813007	keystroke_'	'	n/a
406.6395	0.12	813279	keystroke_s	s	n/a
407.0595	0.09	814119	keystroke_Key.enter	Key.enter	n/a
407.155	8.8305	814310	prompt	n/a	repeat amsterdam incredible social\n
407.929	0.075	815858	keystroke_r	r	n/a
408.094	0.12	816188	keystroke_e	e	n/a
408.229	0.12	816458	keystroke_p	p	n/a
408.319	0.12	816638	keystroke_e	e	n/a
408.5595	0.1045	817119	keystroke_a	a	n/a
408.859	0.075	817718	keystroke_t	t	n/a
409.024	0.075	818048	keystroke_Key.space	Key.space	n/a
409.339	0.12	818678	keystroke_a	a	n/a
409.474	0.105	818948	keystroke_m	m	n/a
409.6985	0.075	819397	keystroke_s	s	n/a
410.0585	0.075	820117	keystroke_t	t	n/a
410.2545	0.074	820509	keystroke_e	e	n/a
410.4035	0.09	820807	keystroke_r	r	n/a
410.8985	0.09	821797	keystroke_d	d	n/a
411.0945	0.164	822189	keystroke_a	a	n/a
411.2735	0.106	822547	keystroke_m	m	n/a
411.7085	0.0905	823417	keystroke_Key.space	Key.space	n/a
411.859	0.165	823718	keystroke_i	i	n/a
411.979	0.12	823958	keystroke_n	n	n/a
412.069	0.09	824138	keystroke_c	c	n/a
413.119	0.09	826238	keystroke_r	r	n/a
413.284	0.075	826568	keystroke_e	e	n/a
413.464	0.09	826928	keystroke_d	d	n/a
413.614	0.105	827228	keystroke_i	i	n/a
413.794	0.18	827588	keystroke_b	b	n/a
413.959	0.15	827918	keystroke_l	l	n/a
414.079	0.1505	828158	keystroke_e	e	n/a
414.259	0.1355	828518	keystroke_Key.space	Key.space	n/a
414.8745	0.105	829749	keystroke_s	s	n/a
415.0095	0.105	830019	keystroke_o	o	n/a
415.1595	0.09	830319	keystroke_c	c	n/a
415.2795	0.105	830559	keystroke_i	i	n/a
415.4145	0.1645	830829	keystroke_a	a	n/a
415.594	0.135	831188	keystroke_l	l	n/a
415.894	0.09	831788	keystroke_Key.enter	Key.enter	n/a
415.988	6.1775	831976	prompt	n/a	deer washing reflects rights\n
416.719	0.09	833438	keystroke_d	d	n/a
416.914	0.06	833828	keystroke_e	e	n/a
417.034	0.09	834068	keystroke_e	e	n/a
417.229	0.105	834458	keystroke_r	r	n/a
417.364	0.12	834728	keystroke_Key.space	Key.space	n/a
417.6195	0.105	835239	keystroke_w	w	n/a
417.8445	0.09	835689	keystroke_a	a	n/a
418.0245	0.105	836049	keystroke_s	s	n/a
418.1595	0.12	836319	keystroke_h	h	n/a
418.2945	0.27	836589	keystroke_i	i	n/a
418.4295	0.24	836859	keystroke_n	n	n/a
418.5495	0.15	837099	keystroke_g	g	n/a
418.6995	0.15	837399	keystroke_Key.space	Key.space	n/a
419.1195	0.075	838239	keystroke_r	r	n/a
419.2845	0.105	838569	keystroke_e	e	n/a
419.4795	0.105	838959	keystroke_f	f	n/a
419.6895	0.105	839379	keystroke_l	l	n/a
419.7045	0.12	839409	keystroke_e	e	n/a
420.3495	0.104	840699	keystroke_c	c	n/a
420.5735	0.106	841147	keystroke_t	t	n/a
420.814	0.12	841628	keystroke_s	s	n/a
420.949	0.105	841898	keystroke_Key.space	Key.space	n/a
421.174	0.09	842348	keystroke_r	r	n/a
421.2795	0.09	842559	keystroke_i	i	n/a
421.3995	0.09	842799	keystroke_g	g	n/a
421.5345	0.09	843069	keystroke_h	h	n/a
421.669	0.075	843338	keystroke_t	t	n/a
421.909	0.105	843818	keystroke_s	s	n/a
422.074	0.09	844148	keystroke_Key.enter	Key.enter	n/a
422.168	8.2025	844336	prompt	n/a	relocation lancaster hometown reported\n
423.004	0.075	846008	keystroke_r	r	n/a
423.169	0.12	846338	keystroke_e	e	n/a
423.304	0.105	846608	keystroke_l	l	n/a
423.514	0.135	847028	keystroke_o	o	n/a
423.604	0.075	847208	keystroke_c	c	n/a
423.799	0.12	847598	keystroke_a	a	n/a
424.069	0.105	848138	keystroke_t	t	n/a
424.174	0.18	848348	keystroke_i	i	n/a
424.324	0.255	848648	keystroke_o	o	n/a
424.519	0.165	849038	keystroke_n	n	n/a
424.654	0.135	849308	keystroke_Key.space	Key.space	n/a
424.804	0.15	849608	keystroke_l	l	n/a
424.924	0.135	849848	keystroke_a	a	n/a
425.089	0.135	850178	keystroke_n	n	n/a
425.269	0.075	850538	keystroke_c	c	n/a
425.4495	0.105	850899	keystroke_a	a	n/a
425.6135	0.106	851227	keystroke_s	s	n/a
425.9145	0.075	851829	keystroke_t	t	n/a
426.1245	0.09	852249	keystroke_e	e	n/a
426.3195	0.09	852639	keystroke_r	r	n/a
426.5285	0.106	853057	keystroke_Key.space	Key.space	n/a
427.159	0.15	854318	keystroke_h	h	n/a
427.264	0.225	854528	keystroke_o	o	n/a
427.474	0.18	854948	keystroke_m	m	n/a
427.609	0.105	855218	keystroke_e	e	n/a
427.849	0.105	855698	keystroke_t	t	n/a
427.969	0.1205	855938	keystroke_o	o	n/a
428.1195	0.15	856239	keystroke_w	w	n/a
428.2995	0.195	856599	keystroke_n	n	n/a
428.4345	0.15	856869	keystroke_Key.space	Key.space	n/a
428.809	0.075	857618	keystroke_r	r	n/a
428.974	0.105	857948	keystroke_e	e	n/a
429.109	0.18	858218	keystroke_p	p	n/a
429.244	0.165	858488	keystroke_o	o	n/a
429.364	0.0745	858728	keystroke_r	r	n/a
429.514	0.0905	859028	keystroke_t	t	n/a
429.7535	0.106	859507	keystroke_e	e	n/a
429.9495	0.135	859899	keystroke_d	d	n/a
430.2795	0.09	860559	keystroke_Key.enter	Key.enter	n/a
430.373	13.003	860746	prompt	n/a	computers kazakhstan algeria southampton\n
431.2245	0.075	862449	keystroke_c	c	n/a
431.3445	0.18	862689	keystroke_o	o	n/a
431.4645	0.18	862929	keystroke_m	m	n/a
431.5695	0.135	863139	keystroke_p	p	n/a
431.8545	0.09	863709	keystroke_u	u	n/a
431.9295	0.09	863859	keystroke_t	t	n/a
432.1245	0.105	864249	keystroke_e	e	n/a
432.3195	0.09	864639	keystroke_r	r	n/a
432.544	0.12	865088	keystroke_s	s	n/a
432.709	0.105	865418	keystroke_Key.space	Key.space	n/a
433.4145	0.105	866829	keystroke_k	k	n/a
433.579	0.12	867158	keystroke_a	a	n/a
433.939	0.09	867878	keystroke_z	z	n/a
434.149	0.1205	868298	keystroke_a	a	n/a
434.5845	0.225	869169	keystroke_l	l	n/a
434.7795	0.12	869559	keystroke_h	h	n/a
435.5595	0.0595	871119	keystroke_Key.backspace	Key.backspace	n/a
435.709	0.075	871418	keystroke_Key.backspace	Key.backspace	n/a
436.3545	0.225	872709	keystroke_k	k	n/a
436.5195	0.15	873039	keystroke_h	h	n/a
436.8645	0.105	873729	keystroke_s	s	n/a
437.1045	0.09	874209	keystroke_t	t	n/a
437.3895	0.165	874779	keystroke_a	a	n/a
437.5245	0.195	875049	keystroke_n	n	n/a
437.6745	0.12	875349	keystroke_Key.space	Key.space	n/a
437.9745	0.09	875949	keystroke_e	e	n/a
438.1995	0.135	876399	keystroke_l	l	n/a
438.769	0.105	877538	keystroke_g	g	n/a
438.889	0.06	877778	keystroke_e	e	n/a
439.0245	0.09	878049	keystroke_r	r	n/a
439.1595	0.12	878319	keystroke_i	i	n/a
439.3245	0.135	878649	keystroke_a	a	n/a
439.4745	0.12	878949	keystroke_Key.space	Key.space	n/a
441.259	0.1355	882518	keystroke_s	s	n/a
441.4095	0.1795	882819	keystroke_o	o	n/a
441.5295	0.1195	883059	keystroke_u	u	n/a
441.665	0.1195	883330	keystroke_t	t	n/a
441.8145	0.12	883629	keystroke_h	h	n/a
442.0095	0.15	884019	keystroke_a	a	n/a
442.1745	0.18	884349	keystroke_m	m	n/a
442.3245	0.135	884649	keystroke_p	p	n/a
442.5945	0.0895	885189	keystroke_t	t	n/a
442.714	0.225	885428	keystroke_o	o	n/a
442.894	0.15	885788	keystroke_n	n	n/a
443.3145	0.06	886629	keystroke_Key.enter	Key.enter	n/a
443.3785	5.9975	886757	prompt	n/a	ongoing light biology baths\n
444.769	0.195	889538	keystroke_o	o	n/a
444.904	0.15	889808	keystroke_n	n	n/a
445.039	0.12	890078	keystroke_g	g	n/a
445.144	0.225	890288	keystroke_o	o	n/a
445.294	0.225	890588	keystroke_i	i	n/a
445.429	0.225	890858	keystroke_n	n	n/a
445.444	0.15	890888	keystroke_g	g	n/a
445.669	0.09	891338	keystroke_Key.space	Key.space	n/a
445.909	0.1655	891818	keystroke_l	l	n/a
446.044	0.151	892088	keystroke_i	i	n/a
446.165	0.119	892330	keystroke_g	g	n/a
446.329	0.12	892658	keystroke_h	h	n/a
446.465	0.134	892930	keystroke_t	t	n/a
446.614	0.075	893228	keystroke_Key.space	Key.space	n/a
446.84	0.1335	893680	keystroke_b	b	n/a
447.0045	0.21	894009	keystroke_i	i	n/a
447.1385	0.151	894277	keystroke_o	o	n/a
447.3495	0.105	894699	keystroke_l	l	n/a
447.5295	0.1655	895059	keystroke_o	o	n/a
447.649	0.135	895298	keystroke_g	g	n/a
447.889	0.211	895778	keystroke_y	y	n/a
448.024	0.15	896048	keystroke_Key.space	Key.space	n/a
448.37	0.12	896740	keystroke_b	b	n/a
448.519	0.09	897038	keystroke_a	a	n/a
448.744	0.105	897488	keystroke_t	t	n/a
448.969	0.09	897938	keystroke_h	h	n/a
449.074	0.12	898148	keystroke_s	s	n/a
449.2995	0.075	898599	keystroke_Key.enter	Key.enter	n/a
449.3785	9.072	898757	prompt	n/a	surrounding mortgage australia eval\n
450.064	0.09	900128	keystroke_s	s	n/a
450.199	0.12	900398	keystroke_u	u	n/a
450.364	0.075	900728	keystroke_r	r	n/a
450.499	0.105	900998	keystroke_r	r	n/a
450.694	0.2105	901388	keystroke_o	o	n/a
450.8295	0.21	901659	keystroke_u	u	n/a
450.9495	0.195	901899	keystroke_n	n	n/a
451.339	0.09	902678	keystroke_d	d	n/a
451.444	0.195	902888	keystroke_i	i	n/a
451.564	0.15	903128	keystroke_n	n	n/a
451.669	0.165	903338	keystroke_g	g	n/a
451.864	0.105	903728	keystroke_Key.space	Key.space	n/a
452.089	0.18	904178	keystroke_m	m	n/a
452.21	0.179	904420	keystroke_o	o	n/a
452.374	0.105	904748	keystroke_r	r	n/a
452.585	0.089	905170	keystroke_t	t	n/a
452.8245	0.12	905649	keystroke_g	g	n/a
452.9295	0.135	905859	keystroke_a	a	n/a
453.0945	0.105	906189	keystroke_g	g	n/a
453.2145	0.135	906429	keystroke_e	e	n/a
453.3495	0.09	906699	keystroke_Key.space	Key.space	n/a
453.6195	0.135	907239	keystroke_a	a	n/a
453.8145	0.135	907629	keystroke_u	u	n/a
454.0845	0.105	908169	keystroke_s	s	n/a
454.3245	0.06	908649	keystroke_t	t	n/a
454.4595	0.09	908919	keystroke_r	r	n/a
454.6845	0.1195	909369	keystroke_a	a	n/a
454.835	0.195	909670	keystroke_l	l	n/a
454.954	0.196	909908	keystroke_i	i	n/a
455.105	0.134	910210	keystroke_a	a	n/a
455.255	0.09	910510	keystroke_Key.space	Key.space	n/a
455.6295	0.12	911259	keystroke_e	e	n/a
457.2195	0.105	914439	keystroke_v	v	n/a
457.5495	0.1045	915099	keystroke_a	a	n/a
457.669	0.135	915338	keystroke_l	l	n/a
458.3445	0.105	916689	keystroke_Key.enter	Key.enter	n/a
458.454	5.8765	916908	prompt	n/a	president uniform pushed claims\n
459.2295	0.15	918459	keystroke_p	p	n/a
459.3645	0.105	918729	keystroke_r	r	n/a
459.5145	0.1045	919029	keystroke_e	e	n/a
459.754	0.09	919508	keystroke_s	s	n/a
459.859	0.105	919718	keystroke_i	i	n/a
460.009	0.03	920018	keystroke_d	d	n/a
460.144	0.12	920288	keystroke_e	e	n/a
460.249	0.105	920498	keystroke_n	n	n/a
460.399	0.12	920798	keystroke_t	t	n/a
460.534	0.135	921068	keystroke_Key.space	Key.space	n/a
460.684	0.135	921368	keystroke_u	u	n/a
460.804	0.24	921608	keystroke_n	n	n/a
460.999	0.15	921998	keystroke_i	i	n/a
461.389	0.105	922778	keystroke_f	f	n/a
461.479	0.12	922958	keystroke_o	o	n/a
461.644	0.105	923288	keystroke_r	r	n/a
461.794	0.21	923588	keystroke_m	m	n/a
461.989	0.12	923978	keystroke_Key.space	Key.space	n/a
462.154	0.09	924308	keystroke_p	p	n/a
462.379	0.09	924758	keystroke_u	u	n/a
462.604	0.105	925208	keystroke_s	s	n/a
462.724	0.09	925448	keystroke_h	h	n/a
462.844	0.075	925688	keystroke_e	e	n/a
463.024	0.09	926048	keystroke_d	d	n/a
463.159	0.09	926318	keystroke_Key.space	Key.space	n/a
463.309	0.12	926618	keystroke_c	c	n/a
463.444	0.135	926888	keystroke_l	l	n/a
463.594	0.105	927188	keystroke_a	a	n/a
463.729	0.195	927458	keystroke_i	i	n/a
463.8795	0.1495	927759	keystroke_m	m	n/a
463.9995	0.1345	927999	keystroke_s	s	n/a
464.269	0.06	928538	keystroke_Key.enter	Key.enter	n/a
464.3335	6.2675	928667	prompt	n/a	what'll reset mention mother\n
464.9895	0.1045	929979	keystroke_w	w	n/a
465.139	0.105	930278	keystroke_h	h	n/a
465.229	0.105	930458	keystroke_a	a	n/a
465.499	0.0895	930998	keystroke_t	t	n/a
466.189	0.1205	932378	keystroke_'	'	n/a
466.6095	0.075	933219	keystroke_l	l	n/a
466.7445	0.165	933489	keystroke_l	l	n/a
466.8935	0.105	933787	keystroke_Key.space	Key.space	n/a
467.2845	0.09	934569	keystroke_r	r	n/a
467.494	0.0755	934988	keystroke_e	e	n/a
467.704	0.075	935408	keystroke_s	s	n/a
467.884	0.0755	935768	keystroke_e	e	n/a
468.1245	0.1045	936249	keystroke_t	t	n/a
468.244	0.1355	936488	keystroke_Key.space	Key.space	n/a
468.424	0.135	936848	keystroke_m	m	n/a
468.56	0.1195	937120	keystroke_e	e	n/a
468.694	0.1355	937388	keystroke_n	n	n/a
468.844	0.105	937688	keystroke_t	t	n/a
468.934	0.2855	937868	keystroke_i	i	n/a
469.1145	0.195	938229	keystroke_o	o	n/a
469.2645	0.165	938529	keystroke_n	n	n/a
469.3695	0.18	938739	keystroke_Key.space	Key.space	n/a
469.5345	0.1945	939069	keystroke_m	m	n/a
469.669	0.18	939338	keystroke_o	o	n/a
469.85	0.089	939700	keystroke_t	t	n/a
470.014	0.105	940028	keystroke_h	h	n/a
470.104	0.12	940208	keystroke_e	e	n/a
470.314	0.0905	940628	keystroke_r	r	n/a
470.5095	0.09	941019	keystroke_Key.enter	Key.enter	n/a
470.604	7.992	941208	prompt	n/a	univ greatest currently sunglasses\n
471.5745	0.1795	943149	keystroke_i	i	n/a
471.7095	0.2245	943419	keystroke_n	n	n/a
471.859	0.15	943718	keystroke_u	u	n/a
471.994	0.105	943988	keystroke_v	v	n/a
472.189	0.075	944378	keystroke_Key.space	Key.space	n/a
472.639	0.105	945278	keystroke_g	g	n/a
472.714	0.09	945428	keystroke_r	r	n/a
472.894	0.09	945788	keystroke_e	e	n/a
473.1045	0.09	946209	keystroke_a	a	n/a
473.3445	0.075	946689	keystroke_t	t	n/a
473.5245	0.0895	947049	keystroke_e	e	n/a
473.719	0.106	947438	keystroke_s	s	n/a
473.96	0.075	947920	keystroke_t	t	n/a
474.094	0.12	948188	keystroke_Key.space	Key.space	n/a
474.5595	0.105	949119	keystroke_c	c	n/a
474.6795	0.105	949359	keystroke_u	u	n/a
474.8145	0.06	949629	keystroke_r	r	n/a
475.0995	0.075	950199	keystroke_r	r	n/a
475.2795	0.105	950559	keystroke_e	e	n/a
475.4295	0.105	950859	keystroke_n	n	n/a
475.5945	0.075	951189	keystroke_t	t	n/a
475.7595	0.1195	951519	keystroke_l	l	n/a
475.894	0.09	951788	keystroke_y	y	n/a
476.074	0.09	952148	keystroke_Key.space	Key.space	n/a
476.494	0.0755	952988	keystroke_s	s	n/a
476.6595	0.1945	953319	keystroke_u	u	n/a
476.809	0.15	953618	keystroke_n	n	n/a
477.109	0.0755	954218	keystroke_g	g	n/a
477.2895	0.12	954579	keystroke_l	l	n/a
477.4095	0.09	954819	keystroke_a	a	n/a
477.6195	0.0745	955239	keystroke_s	s	n/a
477.769	0.0755	955538	keystroke_s	s	n/a
477.9645	0.0895	955929	keystroke_e	e	n/a
478.1895	0.105	956379	keystroke_s	s	n/a
478.504	0.0905	957008	keystroke_Key.enter	Key.enter	n/a
478.599	4.977	957198	prompt	n/a	optical loving guide chuck\n
479.3145	0.225	958629	keystroke_o	o	n/a
479.4345	0.1795	958869	keystroke_p	p	n/a
479.5395	0.1195	959079	keystroke_t	t	n/a
479.704	0.15	959408	keystroke_i	i	n/a
479.869	0.09	959738	keystroke_c	c	n/a
480.079	0.165	960158	keystroke_a	a	n/a
480.184	0.21	960368	keystroke_l	l	n/a
480.364	0.105	960728	keystroke_Key.space	Key.space	n/a
480.559	0.09	961118	keystroke_l	l	n/a
480.724	0.105	961448	keystroke_o	o	n/a
480.844	0.105	961688	keystroke_v	v	n/a
480.964	0.24	961928	keystroke_i	i	n/a
481.129	0.12	962258	keystroke_n	n	n/a
481.219	0.09	962438	keystroke_g	g	n/a
481.384	0.135	962768	keystroke_Key.space	Key.space	n/a
481.8645	0.075	963729	keystroke_g	g	n/a
481.9845	0.15	963969	keystroke_u	u	n/a
482.0895	0.15	964179	keystroke_i	i	n/a
482.1795	0.09	964359	keystroke_d	d	n/a
482.4195	0.135	964839	keystroke_e	e	n/a
482.5695	0.1045	965139	keystroke_Key.space	Key.space	n/a
482.7795	0.075	965559	keystroke_c	c	n/a
482.8695	0.165	965739	keystroke_h	h	n/a
482.9745	0.12	965949	keystroke_u	u	n/a
483.0945	0.135	966189	keystroke_c	c	n/a
483.2595	0.12	966519	keystroke_k	k	n/a
483.4995	0.0745	966999	keystroke_Key.enter	Key.enter	n/a
483.58	13.256	967160	prompt	n/a	seat spirituality thumbnail projected\n
484.2495	0.09	968499	keystroke_s	s	n/a
484.4295	0.075	968859	keystroke_e	e	n/a
484.6095	0.1505	969219	keystroke_a	a	n/a
484.79	0.1795	969580	keystroke_t	t	n/a
484.9095	0.1195	969819	keystroke_Key.space	Key.space	n/a
485.4195	0.105	970839	keystroke_s	s	n/a
485.6595	0.195	971319	keystroke_p	p	n/a
485.8695	0.075	971739	keystroke_r	r	n/a
485.9745	0.15	971949	keystroke_i	i	n/a
486.1695	0.09	972339	keystroke_t	t	n/a
486.2745	0.105	972549	keystroke_i	i	n/a
487.174	0.105	974348	keystroke_u	u	n/a
487.76	0.075	975520	keystroke_Key.backspace	Key.backspace	n/a
488.015	0.015	976030	keystroke_Key.backspace	Key.backspace	n/a
489.094	0.06	978188	keystroke_Key.backspace	Key.backspace	n/a
489.244	0.075	978488	keystroke_Key.backspace	Key.backspace	n/a
489.394	0.105	978788	keystroke_Key.backspace	Key.backspace	n/a
490.129	0.09	980258	keystroke_i	i	n/a
490.264	0.12	980528	keystroke_r	r	n/a
490.355	0.134	980710	keystroke_i	i	n/a
490.609	0.105	981218	keystroke_t	t	n/a
490.955	0.105	981910	keystroke_u	u	n/a
491.24	0.105	982480	keystroke_a	a	n/a
491.345	0.075	982690	keystroke_l	l	n/a
491.495	0.1345	982990	keystroke_l	l	n/a
491.6145	0.09	983229	keystroke_y	y	n/a
491.7045	0.105	983409	keystroke_Key.space	Key.space	n/a
492.0495	0.09	984099	keystroke_t	t	n/a
492.1395	0.15	984279	keystroke_h	h	n/a
492.2445	0.105	984489	keystroke_u	u	n/a
492.4845	0.075	984969	keystroke_m	m	n/a
492.7245	0.12	985449	keystroke_b	b	n/a
493.2045	0.09	986409	keystroke_Key.backspace	Key.backspace	n/a
493.999	0.0755	987998	keystroke_b	b	n/a
494.1645	0.105	988329	keystroke_n	n	n/a
494.2545	0.165	988509	keystroke_a	a	n/a
494.3895	0.195	988779	keystroke_i	i	n/a
494.5095	0.2395	989019	keystroke_l	l	n/a
494.689	0.135	989378	keystroke_Key.space	Key.space	n/a
495.1245	0.135	990249	keystroke_p	p	n/a
495.2605	0.119	990521	keystroke_r	r	n/a
495.3645	0.12	990729	keystroke_o	o	n/a
495.589	0.121	991178	keystroke_j	j	n/a
495.649	0.106	991298	keystroke_e	e	n/a
495.859	0.09	991718	keystroke_c	c	n/a
496.099	0.091	992198	keystroke_t	t	n/a
496.3095	0.09	992619	keystroke_e	e	n/a
496.5345	0.1195	993069	keystroke_d	d	n/a
496.729	0.105	993458	keystroke_Key.enter	Key.enter	n/a
496.8385	8.083	993677	prompt	n/a	attending reflection market investigation\n
497.75	0.1045	995500	keystroke_a	a	n/a
498.1245	0.075	996249	keystroke_t	t	n/a
498.2745	0.075	996549	keystroke_t	t	n/a
498.4545	0.12	996909	keystroke_e	e	n/a
498.6045	0.135	997209	keystroke_n	n	n/a
498.7545	0.105	997509	keystroke_d	d	n/a
498.8295	0.1945	997659	keystroke_i	i	n/a
498.9495	0.1495	997899	keystroke_n	n	n/a
499.04	0.1945	998080	keystroke_g	g	n/a
499.2195	0.12	998439	keystroke_Key.space	Key.space	n/a
499.3995	0.09	998799	keystroke_r	r	n/a
499.5795	0.09	999159	keystroke_e	e	n/a
499.8045	0.09	999609	keystroke_f	f	n/a
499.9245	0.1205	999849	keystroke_l	l	n/a
500.06	0.12	1000120	keystroke_e	e	n/a
500.315	0.09	1000630	keystroke_c	c	n/a
500.555	0.12	1001110	keystroke_t	t	n/a
500.645	0.18	1001290	keystroke_i	i	n/a
500.795	0.225	1001590	keystroke_o	o	n/a
500.915	0.18	1001830	keystroke_n	n	n/a
501.05	0.165	1002100	keystroke_Key.space	Key.space	n/a
501.2	0.15	1002400	keystroke_m	m	n/a
501.29	0.1195	1002580	keystroke_a	a	n/a
501.5145	0.1205	1003029	keystroke_r	r	n/a
501.649	0.091	1003298	keystroke_k	k	n/a
501.754	0.15	1003508	keystroke_e	e	n/a
502.009	0.15	1004018	keystroke_t	t	n/a
502.129	0.135	1004258	keystroke_Key.space	Key.space	n/a
502.4445	0.18	1004889	keystroke_i	i	n/a
502.5645	0.135	1005129	keystroke_n	n	n/a
502.9395	0.09	1005879	keystroke_v	v	n/a
503.1495	0.075	1006299	keystroke_e	e	n/a
503.3745	0.075	1006749	keystroke_s	s	n/a
503.585	0.06	1007170	keystroke_t	t	n/a
503.72	0.105	1007440	keystroke_i	i	n/a
503.78	0.0745	1007560	keystroke_g	g	n/a
504.0045	0.105	1008009	keystroke_a	a	n/a
504.26	0.09	1008520	keystroke_t	t	n/a
504.365	0.1345	1008730	keystroke_i	i	n/a
504.4695	0.21	1008939	keystroke_o	o	n/a
504.6195	0.12	1009239	keystroke_n	n	n/a
504.8445	0.075	1009689	keystroke_Key.enter	Key.enter	n/a
504.924	8.292	1009848	prompt	n/a	derby underwear watt who'd've\n
505.6995	0.075	1011399	keystroke_d	d	n/a
505.8645	0.075	1011729	keystroke_e	e	n/a
506.0145	0.12	1012029	keystroke_r	r	n/a
506.269	0.195	1012538	keystroke_v	v	n/a
506.719	0.075	1013438	keystroke_Key.backspace	Key.backspace	n/a
506.9595	0.2255	1013919	keystroke_b	b	n/a
507.124	0.196	1014248	keystroke_y	y	n/a
507.275	0.135	1014550	keystroke_Key.space	Key.space	n/a
507.845	0.1645	1015690	keystroke_u	u	n/a
507.9345	0.195	1015869	keystroke_n	n	n/a
508.0695	0.075	1016139	keystroke_d	d	n/a
508.2345	0.075	1016469	keystroke_e	e	n/a
508.3845	0.075	1016769	keystroke_r	r	n/a
508.6095	0.105	1017219	keystroke_w	w	n/a
508.7595	0.0905	1017519	keystroke_e	e	n/a
508.97	0.105	1017940	keystroke_a	a	n/a
509.195	0.09	1018390	keystroke_r	r	n/a
509.329	0.136	1018658	keystroke_Key.space	Key.space	n/a
509.495	0.0895	1018990	keystroke_w	w	n/a
509.7195	0.105	1019439	keystroke_a	a	n/a
510.154	0.06	1020308	keystroke_t	t	n/a
510.289	0.106	1020578	keystroke_t	t	n/a
510.65	0.1045	1021300	keystroke_Key.space	Key.space	n/a
510.9495	0.105	1021899	keystroke_w	w	n/a
511.0995	0.165	1022199	keystroke_h	h	n/a
511.2195	0.165	1022439	keystroke_o	o	n/a
511.4145	0.09	1022829	keystroke_d	d	n/a
511.625	0.135	1023250	keystroke_'	'	n/a
511.745	0.075	1023490	keystroke_v	v	n/a
511.94	0.135	1023880	keystroke_e	e	n/a
512.09	0.105	1024180	keystroke_Key.space	Key.space	n/a
512.8245	0.0755	1025649	keystroke_Key.backspace	Key.backspace	n/a
513.11	0.105	1026220	keystroke_Key.enter	Key.enter	n/a
513.2185	9.298	1026437	prompt	n/a	ethiopia nominations trade toyota\n
513.9045	0.0905	1027809	keystroke_e	e	n/a
514.115	0.18	1028230	keystroke_h	h	n/a
514.325	0.135	1028650	keystroke_i	i	n/a
514.8795	0.06	1029759	keystroke_Key.backspace	Key.backspace	n/a
515.0145	0.075	1030029	keystroke_Key.backspace	Key.backspace	n/a
515.1045	0.18	1030209	keystroke_t	t	n/a
515.3295	0.195	1030659	keystroke_h	h	n/a
515.4495	0.2705	1030899	keystroke_i	i	n/a
515.629	0.181	1031258	keystroke_o	o	n/a
516.634	0.166	1033268	keystroke_p	p	n/a
516.7545	0.1345	1033509	keystroke_i	i	n/a
516.83	0.15	1033660	keystroke_a	a	n/a
517.01	0.104	1034020	keystroke_Key.space	Key.space	n/a
517.879	0.15	1035758	keystroke_n	n	n/a
517.984	0.1955	1035968	keystroke_o	o	n/a
518.1645	0.165	1036329	keystroke_m	m	n/a
518.3145	0.165	1036629	keystroke_i	i	n/a
518.4345	0.165	1036869	keystroke_n	n	n/a
518.5545	0.12	1037109	keystroke_a	a	n/a
518.7945	0.0905	1037589	keystroke_t	t	n/a
518.9	0.165	1037800	keystroke_i	i	n/a
519.005	0.255	1038010	keystroke_o	o	n/a
519.14	0.195	1038280	keystroke_n	n	n/a
519.29	0.179	1038580	keystroke_s	s	n/a
519.424	0.135	1038848	keystroke_Key.space	Key.space	n/a
519.874	0.075	1039748	keystroke_t	t	n/a
520.024	0.075	1040048	keystroke_r	r	n/a
520.28	0.105	1040560	keystroke_a	a	n/a
520.52	0.045	1041040	keystroke_d	d	n/a
520.685	0.09	1041370	keystroke_e	e	n/a
520.8045	0.105	1041609	keystroke_Key.space	Key.space	n/a
521.2245	0.1205	1042449	keystroke_t	t	n/a
521.345	0.1195	1042690	keystroke_o	o	n/a
521.5095	0.09	1043019	keystroke_y	y	n/a
521.6295	0.1205	1043259	keystroke_o	o	n/a
521.765	0.1045	1043530	keystroke_t	t	n/a
522.1395	0.12	1044279	keystroke_a	a	n/a
522.4245	0.09	1044849	keystroke_Key.enter	Key.enter	n/a
522.519	6.687	1045038	prompt	n/a	gothic dive delicious bacteria\n
523.2345	0.105	1046469	keystroke_g	g	n/a
523.3695	0.135	1046739	keystroke_o	o	n/a
523.5195	0.09	1047039	keystroke_t	t	n/a
523.6395	0.1805	1047279	keystroke_h	h	n/a
523.76	0.1495	1047520	keystroke_i	i	n/a
523.8795	0.15	1047759	keystroke_c	c	n/a
524.0295	0.105	1048059	keystroke_Key.space	Key.space	n/a
524.8095	0.075	1049619	keystroke_d	d	n/a
524.9145	0.105	1049829	keystroke_i	i	n/a
525.0345	0.09	1050069	keystroke_v	v	n/a
525.2745	0.1195	1050549	keystroke_e	e	n/a
525.424	0.105	1050848	keystroke_Key.space	Key.space	n/a
525.905	0.075	1051810	keystroke_d	d	n/a
526.055	0.12	1052110	keystroke_e	e	n/a
526.19	0.1645	1052380	keystroke_l	l	n/a
526.3095	0.15	1052619	keystroke_i	i	n/a
526.4745	0.0755	1052949	keystroke_c	c	n/a
526.58	0.1495	1053160	keystroke_i	i	n/a
526.715	0.195	1053430	keystroke_o	o	n/a
526.8645	0.165	1053729	keystroke_u	u	n/a
526.985	0.1945	1053970	keystroke_s	s	n/a
527.1345	0.12	1054269	keystroke_Key.space	Key.space	n/a
527.3895	0.12	1054779	keystroke_b	b	n/a
527.4795	0.09	1054959	keystroke_a	a	n/a
527.69	0.09	1055380	keystroke_c	c	n/a
527.96	0.075	1055920	keystroke_t	t	n/a
528.185	0.075	1056370	keystroke_e	e	n/a
528.365	0.0745	1056730	keystroke_r	r	n/a
