onset	duration	sample	value	key	prompt_text
12.079	12.436	24158	prompt	n/a	the quick brown fox jumps over a lazy dog\n
13.1	0	26200	keystroke_t	t	n/a
13.232	0.06	26464	keystroke_h	h	n/a
13.382	0.09	26764	keystroke_e	e	n/a
13.442	0.135	26884	keystroke_Key.space	Key.space	n/a
13.697	0.06	27394	keystroke_q	q	n/a
14.327	0.06	28654	keystroke_u	u	n/a
14.477	0.09	28954	keystroke_i	i	n/a
14.627	0.075	29254	keystroke_c	c	n/a
14.747	0.09	29494	keystroke_k	k	n/a
15.092	0.105	30184	keystroke_Key.space	Key.space	n/a
15.437	0.105	30874	keystroke_b	b	n/a
15.572	0.075	31144	keystroke_r	r	n/a
15.707	0.105	31414	keystroke_o	o	n/a
15.8275	0.089	31655	keystroke_w	w	n/a
16.082	0.0745	32164	keystroke_n	n	n/a
16.2015	0.09	32403	keystroke_Key.space	Key.space	n/a
16.7415	0.06	33483	keystroke_f	f	n/a
16.8465	0.105	33693	keystroke_o	o	n/a
17.0865	0.135	34173	keystroke_x	x	n/a
17.2515	0.075	34503	keystroke_Key.space	Key.space	n/a
18.1815	0.046	36363	keystroke_j	j	n/a
18.2715	0.09	36543	keystroke_u	u	n/a
18.4815	0.075	36963	keystroke_m	m	n/a
18.6465	0.06	37293	keystroke_p	p	n/a
18.8715	0.165	37743	keystroke_s	s	n/a
19.0215	0.105	38043	keystroke_Key.space	Key.space	n/a
19.4275	0.014	38855	keystroke_o	o	n/a
20.0415	0.12	40083	keystroke_v	v	n/a
20.1765	0.046	40353	keystroke_e	e	n/a
20.2965	0.15	40593	keystroke_r	r	n/a
20.4315	0.09	40863	keystroke_Key.space	Key.space	n/a
20.5815	0.166	41163	keystroke_a	a	n/a
20.6865	0.105	41373	keystroke_Key.space	Key.space	n/a
21.0315	0.06	42063	keystroke_l	l	n/a
21.0925	0.135	42185	keystroke_a	a	n/a
21.4515	0.09	42903	keystroke_z	z	n/a
21.6775	0.089	43355	keystroke_t	t	n/a
21.8115	0.12	43623	keystroke_Key.space	Key.space	n/a
22.2615	0.075	44523	keystroke_Key.backspace	Key.backspace	n/a
22.4115	0.075	44823	keystroke_Key.backspace	Key.backspace	n/a
22.6815	0.076	45363	keystroke_y	y	n/a
22.7715	0.106	45543	keystroke_Key.space	Key.space	n/a
23.2075	0.074	46415	keystroke_d	d	n/a
23.3275	0.075	46655	keystroke_o	o	n/a
23.4775	0.089	46955	keystroke_g	g	n/a
24.4525	0.059	48905	keystroke_Key.enter	Key.enter	n/a
24.519	10.5255	49038	prompt	n/a	inspector mini alternative advert\n
27.379	0.001	54758	keystroke_i	i	n/a
27.497	0.075	54994	keystroke_n	n	n/a
27.617	0.09	55234	keystroke_s	s	n/a
27.782	0.015	55564	keystroke_p	p	n/a
27.857	0.075	55714	keystroke_e	e	n/a
28.532	0.06	57064	keystroke_c	c	n/a
28.862	0.075	57724	keystroke_t	t	n/a
29.012	0.075	58024	keystroke_o	o	n/a
29.102	0.15	58204	keystroke_r	r	n/a
29.192	0.12	58384	keystroke_Key.space	Key.space	n/a
29.417	0.105	58834	keystroke_m	m	n/a
29.612	0.075	59224	keystroke_i	i	n/a
29.792	0.135	59584	keystroke_n	n	n/a
29.957	0.09	59914	keystroke_i	i	n/a
30.032	0.135	60064	keystroke_Key.space	Key.space	n/a
30.347	0.09	60694	keystroke_a	a	n/a
30.482	0.09	60964	keystroke_l	l	n/a
30.917	0.06	61834	keystroke_t	t	n/a
30.992	0.0755	61984	keystroke_e	e	n/a
31.1425	0.09	62285	keystroke_r	r	n/a
31.3225	0.09	62645	keystroke_n	n	n/a
31.4425	0.12	62885	keystroke_a	a	n/a
31.7275	0.06	63455	keystroke_t	t	n/a
31.8175	0.075	63635	keystroke_i	i	n/a
32.0575	0.075	64115	keystroke_v	v	n/a
32.1625	0.15	64325	keystroke_e	e	n/a
32.2825	0.105	64565	keystroke_Key.space	Key.space	n/a
32.8225	0.12	65645	keystroke_a	a	n/a
33.0625	0.06	66125	keystroke_d	d	n/a
33.2575	0.09	66515	keystroke_v	v	n/a
33.3175	0.09	66635	keystroke_e	e	n/a
33.4975	0.09	66995	keystroke_r	r	n/a
33.6625	0.09	67325	keystroke_t	t	n/a
34.9675	0.075	69935	keystroke_Key.enter	Key.enter	n/a
35.0475	11.052	70095	prompt	n/a	warranty saint opponents chen\n
36.1525	0.075	72305	keystroke_w	w	n/a
36.3475	0.12	72695	keystroke_a	a	n/a
37.4725	0.06	74945	keystroke_e	e	n/a
37.6375	0.06	75275	keystroke_e	e	n/a
37.7875	0.135	75575	keystroke_a	a	n/a
37.9375	0.12	75875	keystroke_n	n	n/a
38.0725	0.09	76145	keystroke_t	t	n/a
38.5075	0.075	77015	keystroke_Key.backspace	Key.backspace	n/a
38.6575	0.075	77315	keystroke_Key.backspace	Key.backspace	n/a
38.7925	0.075	77585	keystroke_Key.backspace	Key.backspace	n/a
38.9575	0.075	77915	keystroke_Key.backspace	Key.backspace	n/a
39.1075	0.12	78215	keystroke_Key.backspace	Key.backspace	n/a
39.7675	0.06	79535	keystroke_r	r	n/a
39.9025	0.075	79805	keystroke_r	r	n/a
39.9925	0.09	79985	keystroke_a	a	n/a
40.1575	0.105	80315	keystroke_n	n	n/a
40.2925	0.09	80585	keystroke_t	t	n/a
40.4875	0.105	80975	keystroke_y	y	n/a
40.7425	0.1195	81485	keystroke_Key.space	Key.space	n/a
41.132	0.15	82264	keystroke_s	s	n/a
41.267	0.135	82534	keystroke_a	a	n/a
41.417	0.105	82834	keystroke_i	i	n/a
41.627	0.075	83254	keystroke_t	t	n/a
41.927	0.075	83854	keystroke_Key.backspace	Key.backspace	n/a
42.152	0.09	84304	keystroke_n	n	n/a
42.228	0.164	84456	keystroke_t	t	n/a
42.377	0.09	84754	keystroke_Key.space	Key.space	n/a
42.827	0.075	85654	keystroke_o	o	n/a
43.082	0.045	86164	keystroke_p	p	n/a
43.217	0.09	86434	keystroke_p	p	n/a
43.502	0.075	87004	keystroke_o	o	n/a
43.697	0.09	87394	keystroke_n	n	n/a
43.878	0.059	87756	keystroke_e	e	n/a
44.057	0.09	88114	keystroke_n	n	n/a
44.343	0.074	88686	keystroke_t	t	n/a
44.657	0.135	89314	keystroke_s	s	n/a
44.897	0.09	89794	keystroke_Key.space	Key.space	n/a
45.167	0.09	90334	keystroke_c	c	n/a
45.317	0.09	90634	keystroke_h	h	n/a
45.452	0.075	90904	keystroke_e	e	n/a
45.557	0.12	91114	keystroke_n	n	n/a
46.052	0.045	92104	keystroke_Key.enter	Key.enter	n/a
46.103	15.5965	92206	prompt	n/a	vegetable panasonic intended alternatively\n
47.042	0.075	94084	keystroke_v	v	n/a
47.102	0.09	94204	keystroke_e	e	n/a
47.222	0.076	94444	keystroke_g	g	n/a
47.312	0.075	94624	keystroke_e	e	n/a
47.598	0.075	95196	keystroke_t	t	n/a
47.717	0.09	95434	keystroke_a	a	n/a
47.882	0.105	95764	keystroke_b	b	n/a
48.152	0.046	96304	keystroke_l	l	n/a
48.243	0.104	96486	keystroke_e	e	n/a
48.332	0.09	96664	keystroke_Key.space	Key.space	n/a
48.632	0.075	97264	keystroke_p	p	n/a
48.753	0.089	97506	keystroke_a	a	n/a
48.887	0.076	97774	keystroke_n	n	n/a
48.977	0.105	97954	keystroke_a	a	n/a
49.172	0.09	98344	keystroke_s	s	n/a
49.278	0.09	98556	keystroke_o	o	n/a
49.623	0.09	99246	keystroke_n	n	n/a
49.773	0.09	99546	keystroke_i	i	n/a
49.878	0.089	99756	keystroke_c	c	n/a
50.148	0.089	100296	keystroke_Key.space	Key.space	n/a
53.09	0.001	106180	keystroke_i	i	n/a
53.178	0.09	106356	keystroke_n	n	n/a
53.478	0.075	106956	keystroke_t	t	n/a
53.583	0.075	107166	keystroke_e	e	n/a
53.763	0.075	107526	keystroke_n	n	n/a
54.183	0.06	108366	keystroke_d	d	n/a
54.378	0.09	108756	keystroke_e	e	n/a
54.663	0.06	109326	keystroke_n	n	n/a
55.173	0.06	110346	keystroke_d	d	n/a
55.293	0.06	110586	keystroke_Key.backspace	Key.backspace	n/a
55.488	0.09	110976	keystroke_Key.backspace	Key.backspace	n/a
55.683	0.075	111366	keystroke_Key.backspace	Key.backspace	n/a
55.773	0.105	111546	keystroke_d	d	n/a
56.163	0.09	112326	keystroke_Key.backspace	Key.backspace	n/a
56.238	0.075	112476	keystroke_e	e	n/a
56.418	0.165	112836	keystroke_d	d	n/a
56.508	0.135	113016	keystroke_Key.space	Key.space	n/a
57.063	0.135	114126	keystroke_a	a	n/a
57.528	0.06	115056	keystroke_l	l	n/a
58.128	0.09	116256	keystroke_t	t	n/a
58.203	0.06	116406	keystroke_e	e	n/a
58.368	0.075	116736	keystroke_r	r	n/a
58.473	0.105	116946	keystroke_n	n	n/a
58.638	0.135	117276	keystroke_a	a	n/a
58.983	0.075	117966	keystroke_t	t	n/a
59.133	0.075	118266	keystroke_i	i	n/a
59.523	0.045	119046	keystroke_v	v	n/a
59.598	0.09	119196	keystroke_e	e	n/a
59.868	0.09	119736	keystroke_l	l	n/a
60.1675	0.075	120335	keystroke_y	y	n/a
61.6525	0.045	123305	keystroke_Key.enter	Key.enter	n/a
61.7025	8.8465	123405	prompt	n/a	ultimate boats restore viewing\n
62.6125	0.045	125225	keystroke_u	u	n/a
63.0175	0.075	126035	keystroke_l	l	n/a
63.1225	0.075	126245	keystroke_t	t	n/a
63.2275	0.075	126455	keystroke_i	i	n/a
63.3925	0.09	126785	keystroke_m	m	n/a
63.5125	0.105	127025	keystroke_a	a	n/a
63.8275	0.09	127655	keystroke_t	t	n/a
63.9475	0.135	127895	keystroke_e	e	n/a
64.0675	0.105	128135	keystroke_Key.space	Key.space	n/a
64.2175	0.09	128435	keystroke_b	b	n/a
64.4125	0.12	128825	keystroke_o	o	n/a
64.5175	0.12	129035	keystroke_a	a	n/a
64.7275	0.06	129455	keystroke_t	t	n/a
64.9075	0.12	129815	keystroke_s	s	n/a
65.0575	0.105	130115	keystroke_Key.space	Key.space	n/a
65.6125	0.06	131225	keystroke_r	r	n/a
65.6875	0.06	131375	keystroke_e	e	n/a
65.8525	0.075	131705	keystroke_s	s	n/a
65.9425	0.075	131885	keystroke_t	t	n/a
66.1975	0.105	132395	keystroke_o	o	n/a
66.5275	0.09	133055	keystroke_r	r	n/a
66.6475	0.12	133295	keystroke_e	e	n/a
66.7375	0.09	133475	keystroke_Key.space	Key.space	n/a
67.6525	0.06	135305	keystroke_v	v	n/a
67.7875	0.12	135575	keystroke_i	i	n/a
67.8775	0.09	135755	keystroke_e	e	n/a
68.1925	0.09	136385	keystroke_w	w	n/a
68.5525	0.075	137105	keystroke_i	i	n/a
68.6875	0.12	137375	keystroke_n	n	n/a
68.8375	0.075	137675	keystroke_g	g	n/a
70.4875	0.06	140975	keystroke_Key.enter	Key.enter	n/a
70.5525	7.542	141105	prompt	n/a	opinions founded instant sight\n
71.4175	0.06	142835	keystroke_o	o	n/a
71.5975	0.09	143195	keystroke_p	p	n/a
71.8825	0.06	143765	keystroke_i	i	n/a
72.1225	0.06	144245	keystroke_n	n	n/a
72.2875	0.045	144575	keystroke_i	i	n/a
72.5125	0.015	145025	keystroke_o	o	n/a
72.6025	0.075	145205	keystroke_n	n	n/a
72.7375	0.12	145475	keystroke_s	s	n/a
72.8275	0.135	145655	keystroke_Key.space	Key.space	n/a
73.3675	0.015	146735	keystroke_f	f	n/a
73.3975	0.075	146795	keystroke_o	o	n/a
73.5775	0.06	147155	keystroke_u	u	n/a
73.7425	0.075	147485	keystroke_n	n	n/a
73.8325	0.105	147665	keystroke_d	d	n/a
74.0275	0.09	148055	keystroke_e	e	n/a
74.2225	0.105	148445	keystroke_d	d	n/a
74.2975	0.135	148595	keystroke_Key.space	Key.space	n/a
74.552	0.06	149104	keystroke_i	i	n/a
74.732	0.075	149464	keystroke_n	n	n/a
74.867	0.075	149734	keystroke_s	s	n/a
75.197	0.135	150394	keystroke_t	t	n/a
75.317	0.09	150634	keystroke_a	a	n/a
75.632	0.06	151264	keystroke_n	n	n/a
75.977	0.075	151954	keystroke_t	t	n/a
76.082	0.12	152164	keystroke_Key.space	Key.space	n/a
76.277	0.105	152554	keystroke_s	s	n/a
76.427	0.075	152854	keystroke_i	i	n/a
76.772	0.075	153544	keystroke_g	g	n/a
76.877	0.09	153754	keystroke_h	h	n/a
76.997	0.075	153994	keystroke_t	t	n/a
78.032	0.06	156064	keystroke_Key.enter	Key.enter	n/a
78.1	10.284	156200	prompt	n/a	align skip utilization installed\n
79.772	0.075	159544	keystroke_a	a	n/a
79.892	0.075	159784	keystroke_l	l	n/a
80.102	0.03	160204	keystroke_i	i	n/a
80.342	0.075	160684	keystroke_g	g	n/a
80.432	0.09	160864	keystroke_n	n	n/a
80.567	0.105	161134	keystroke_Key.space	Key.space	n/a
81.422	0.105	162844	keystroke_s	s	n/a
82.412	0.045	164824	keystroke_k	k	n/a
82.577	0.075	165154	keystroke_p	p	n/a
82.817	0.09	165634	keystroke_Key.backspace	Key.backspace	n/a
83.012	0.105	166024	keystroke_i	i	n/a
83.237	0.075	166474	keystroke_p	p	n/a
83.462	0.135	166924	keystroke_Key.space	Key.space	n/a
83.912	0.09	167824	keystroke_u	u	n/a
84.077	0.09	168154	keystroke_t	t	n/a
84.243	0.075	168486	keystroke_i	i	n/a
84.812	0.09	169624	keystroke_l	l	n/a
85.022	0.075	170044	keystroke_i	i	n/a
85.098	0.12	170196	keystroke_z	z	n/a
85.262	0.105	170524	keystroke_a	a	n/a
85.502	0.06	171004	keystroke_t	t	n/a
85.577	0.06	171154	keystroke_i	i	n/a
85.727	0.06	171454	keystroke_o	o	n/a
85.893	0.074	171786	keystroke_n	n	n/a
86.027	0.105	172054	keystroke_Key.space	Key.space	n/a
86.372	0.06	172744	keystroke_i	i	n/a
86.537	0.09	173074	keystroke_n	n	n/a
86.643	0.134	173286	keystroke_s	s	n/a
86.882	0.075	173764	keystroke_t	t	n/a
87.002	0.12	174004	keystroke_a	a	n/a
87.227	0.075	174454	keystroke_l	l	n/a
87.407	0.045	174814	keystroke_l	l	n/a
87.497	0.09	174994	keystroke_e	e	n/a
87.677	0.06	175354	keystroke_d	d	n/a
88.337	0.045	176674	keystroke_Key.enter	Key.enter	n/a
88.387	12.072	176774	prompt	n/a	breeds close contractors gorgeous\n
89.177	0.075	178354	keystroke_b	b	n/a
89.402	0.06	178804	keystroke_r	r	n/a
89.538	0.059	179076	keystroke_e	e	n/a
89.672	0.06	179344	keystroke_e	e	n/a
89.868	0.075	179736	keystroke_d	d	n/a
90.107	0.136	180214	keystroke_s	s	n/a
90.272	0.09	180544	keystroke_Key.space	Key.space	n/a
90.782	0.075	181564	keystroke_c	c	n/a
90.887	0.076	181774	keystroke_l	l	n/a
91.082	0.075	182164	keystroke_o	o	n/a
91.218	0.089	182436	keystroke_s	s	n/a
91.413	0.134	182826	keystroke_e	e	n/a
91.712	0.075	183424	keystroke_Key.space	Key.space	n/a
91.923	0.059	183846	keystroke_x	x	n/a
91.968	0.075	183936	keystroke_o	o	n/a
92.357	0.075	184714	keystroke_Key.backspace	Key.backspace	n/a
92.5075	0.0895	185015	keystroke_Key.backspace	Key.backspace	n/a
92.628	0.074	185256	keystroke_c	c	n/a
92.733	0.105	185466	keystroke_o	o	n/a
92.957	0.106	185914	keystroke_n	n	n/a
93.077	0.091	186154	keystroke_s	s	n/a
93.827	0.136	187654	keystroke_Key.backspace	Key.backspace	n/a
94.608	0.075	189216	keystroke_t	t	n/a
94.757	0.076	189514	keystroke_r	r	n/a
94.878	0.104	189756	keystroke_a	a	n/a
94.953	0.09	189906	keystroke_c	c	n/a
95.163	0.06	190326	keystroke_t	t	n/a
95.298	0.09	190596	keystroke_o	o	n/a
95.402	0.061	190804	keystroke_r	r	n/a
95.673	0.135	191346	keystroke_s	s	n/a
95.853	0.12	191706	keystroke_Key.space	Key.space	n/a
96.678	0.03	193356	keystroke_g	g	n/a
96.843	0.09	193686	keystroke_o	o	n/a
96.963	0.06	193926	keystroke_r	r	n/a
97.128	0.075	194256	keystroke_g	g	n/a
97.233	0.075	194466	keystroke_e	e	n/a
97.548	0.045	195096	keystroke_o	o	n/a
97.908	0.105	195816	keystroke_s	s	n/a
98.418	0.045	196836	keystroke_Key.backspace	Key.backspace	n/a
99.093	0.015	198186	keystroke_u	u	n/a
99.198	0.03	198396	keystroke_s	s	n/a
100.4125	0.045	200825	keystroke_Key.enter	Key.enter	n/a
100.4625	18.5215	200925	prompt	n/a	commonwealth banned drunk watts\n
101.5375	0.075	203075	keystroke_c	c	n/a
101.7025	0.06	203405	keystroke_o	o	n/a
102.1225	0.045	204245	keystroke_m	m	n/a
102.2725	0.09	204545	keystroke_m	m	n/a
102.4375	0.09	204875	keystroke_o	o	n/a
103.1425	0.075	206285	keystroke_w	w	n/a
103.3225	0.075	206645	keystroke_e	e	n/a
103.5325	0.09	207065	keystroke_a	a	n/a
104.2525	0.15	208505	keystroke_l	l	n/a
104.4175	0.015	208835	keystroke_t	t	n/a
104.5075	0.06	209015	keystroke_h	h	n/a
105.0325	0.09	210065	keystroke_Key.space	Key.space	n/a
105.3175	0.06	210635	keystroke_b	b	n/a
105.4075	0.105	210815	keystroke_a	a	n/a
105.5725	0.075	211145	keystroke_n	n	n/a
105.7375	0.06	211475	keystroke_n	n	n/a
105.8125	0.09	211625	keystroke_e	e	n/a
106.0375	0.15	212075	keystroke_d	d	n/a
106.1725	0.12	212345	keystroke_Key.space	Key.space	n/a
107.9425	0.06	215885	keystroke_Key.backspace	Key.backspace	n/a
108.0925	0.045	216185	keystroke_Key.backspace	Key.backspace	n/a
108.2725	0.06	216545	keystroke_Key.backspace	Key.backspace	n/a
108.4375	0.06	216875	keystroke_Key.backspace	Key.backspace	n/a
108.6025	0.075	217205	keystroke_Key.backspace	Key.backspace	n/a
108.7675	0.075	217535	keystroke_Key.backspace	Key.backspace	n/a
108.9325	0.075	217865	keystroke_Key.backspace	Key.backspace	n/a
109.1125	0.075	218225	keystroke_Key.backspace	Key.backspace	n/a
109.3075	0.06	218615	keystroke_Key.backspace	Key.backspace	n/a
109.4725	0.06	218945	keystroke_Key.backspace	Key.backspace	n/a
109.6975	0.045	219395	keystroke_Key.backspace	Key.backspace	n/a
109.9525	0.06	219905	keystroke_Key.backspace	Key.backspace	n/a
110.1325	0.075	220265	keystroke_Key.backspace	Key.backspace	n/a
110.3725	0.075	220745	keystroke_Key.backspace	Key.backspace	n/a
111.1375	0.06	222275	keystroke_n	n	n/a
111.4675	0.12	222935	keystroke_w	w	n/a
111.9025	0.075	223805	keystroke_e	e	n/a
112.0825	0.105	224165	keystroke_a	a	n/a
112.3375	0.075	224675	keystroke_l	l	n/a
112.4725	0.075	224945	keystroke_t	t	n/a
112.6825	0.075	225365	keystroke_h	h	n/a
112.8925	0.12	225785	keystroke_Key.space	Key.space	n/a
113.6125	0.06	227225	keystroke_n	n	n/a
113.9125	0.075	227825	keystroke_Key.backspace	Key.backspace	n/a
114.1375	0.075	228275	keystroke_b	b	n/a
114.2275	0.105	228455	keystroke_a	a	n/a
114.692	0.06	229384	keystroke_n	n	n/a
114.8275	0.074	229655	keystroke_n	n	n/a
114.9175	0.059	229835	keystroke_e	e	n/a
115.1125	0.15	230225	keystroke_d	d	n/a
115.3965	0.121	230793	keystroke_Key.space	Key.space	n/a
115.8475	0.09	231695	keystroke_d	d	n/a
116.0425	0.075	232085	keystroke_r	r	n/a
116.1625	0.089	232325	keystroke_u	u	n/a
116.3875	0.089	232775	keystroke_n	n	n/a
116.5665	0.105	233133	keystroke_k	k	n/a
116.7625	0.089	233525	keystroke_Key.space	Key.space	n/a
117.3015	0.061	234603	keystroke_a	a	n/a
117.6765	0.106	235353	keystroke_Key.backspace	Key.backspace	n/a
117.7525	0.09	235505	keystroke_w	w	n/a
117.9625	0.105	235925	keystroke_a	a	n/a
118.0825	0.06	236165	keystroke_t	t	n/a
118.2175	0.105	236435	keystroke_t	t	n/a
118.3375	0.105	236675	keystroke_s	s	n/a
118.9225	0.06	237845	keystroke_Key.enter	Key.enter	n/a
118.987	6.7915	237974	prompt	n/a	affair wars upset counties\n
119.8525	0.09	239705	keystroke_a	a	n/a
120.0025	0.045	240005	keystroke_f	f	n/a
120.1525	0.09	240305	keystroke_f	f	n/a
120.2875	0.105	240575	keystroke_a	a	n/a
120.4375	0.075	240875	keystroke_i	i	n/a
120.7975	0.105	241595	keystroke_r	r	n/a
120.9475	0.09	241895	keystroke_Key.space	Key.space	n/a
121.4575	0.09	242915	keystroke_w	w	n/a
121.6975	0.12	243395	keystroke_a	a	n/a
121.9075	0.06	243815	keystroke_r	r	n/a
122.0575	0.12	244115	keystroke_s	s	n/a
122.2075	0.135	244415	keystroke_Key.space	Key.space	n/a
122.6425	0.06	245285	keystroke_u	u	n/a
122.8975	0.06	245795	keystroke_p	p	n/a
123.1075	0.09	246215	keystroke_s	s	n/a
123.3025	0.09	246605	keystroke_e	e	n/a
123.5425	0.09	247085	keystroke_t	t	n/a
123.7675	0.105	247535	keystroke_Key.space	Key.space	n/a
124.3825	0.09	248765	keystroke_c	c	n/a
124.4875	0.075	248975	keystroke_o	o	n/a
124.6825	0.075	249365	keystroke_u	u	n/a
124.8625	0.105	249725	keystroke_n	n	n/a
124.9825	0.075	249965	keystroke_t	t	n/a
125.0725	0.09	250145	keystroke_i	i	n/a
125.2225	0.075	250445	keystroke_e	e	n/a
125.3875	0.075	250775	keystroke_s	s	n/a
125.7325	0.045	251465	keystroke_Key.enter	Key.enter	n/a
125.782	9.915	251564	prompt	n/a	auto matrix vids recipes\n
126.5275	0.075	253055	keystroke_a	a	n/a
126.6475	0.105	253295	keystroke_o	o	n/a
127.0675	0.075	254135	keystroke_Key.backspace	Key.backspace	n/a
127.2625	0.09	254525	keystroke_u	u	n/a
127.3675	0.06	254735	keystroke_t	t	n/a
128.1475	0.105	256295	keystroke_o	o	n/a
128.2675	0.105	256535	keystroke_Key.space	Key.space	n/a
128.4625	0.075	256925	keystroke_m	m	n/a
128.5975	0.06	257195	keystroke_a	a	n/a
128.8375	0.06	257675	keystroke_t	t	n/a
129.0025	0.075	258005	keystroke_r	r	n/a
129.0925	0.075	258185	keystroke_i	i	n/a
129.3175	0.075	258635	keystroke_c	c	n/a
129.8125	0.075	259625	keystroke_Key.backspace	Key.backspace	n/a
129.9025	0.09	259805	keystroke_x	x	n/a
130.1425	0.075	260285	keystroke_Key.space	Key.space	n/a
130.9225	0.06	261845	keystroke_v	v	n/a
131.0575	0.1045	262115	keystroke_i	i	n/a
131.192	0.09	262384	keystroke_d	d	n/a
131.432	0.1355	262864	keystroke_s	s	n/a
131.582	0.12	263164	keystroke_Key.space	Key.space	n/a
131.972	0.075	263944	keystroke_r	r	n/a
132.092	0.075	264184	keystroke_e	e	n/a
132.302	0.09	264604	keystroke_c	c	n/a
132.407	0.075	264814	keystroke_i	i	n/a
132.617	0.03	265234	keystroke_p	p	n/a
132.692	0.09	265384	keystroke_e	e	n/a
132.917	0.075	265834	keystroke_s	s	n/a
135.694	0.001	271388	keystroke_Key.enter	Key.enter	n/a
135.7005	13.7485	271401	prompt	n/a	reward field analysis sussex\n
136.637	0.075	273274	keystroke_r	r	n/a
136.727	0.06	273454	keystroke_e	e	n/a
137.012	0.045	274024	keystroke_w	w	n/a
137.192	0.225	274384	keystroke_a	a	n/a
137.687	0.06	275374	keystroke_r	r	n/a
137.897	0.18	275794	keystroke_d	d	n/a
138.062	0.105	276124	keystroke_Key.space	Key.space	n/a
138.827	0.06	277654	keystroke_f	f	n/a
138.902	0.075	277804	keystroke_i	i	n/a
139.022	0.075	278044	keystroke_e	e	n/a
139.142	0.09	278284	keystroke_l	l	n/a
139.277	0.12	278554	keystroke_d	d	n/a
139.382	0.09	278764	keystroke_Key.space	Key.space	n/a
139.877	0.075	279754	keystroke_a	a	n/a
139.967	0.105	279934	keystroke_n	n	n/a
140.1475	0.0895	280295	keystroke_a	a	n/a
140.327	0.105	280654	keystroke_l	l	n/a
140.612	0.06	281224	keystroke_y	y	n/a
140.792	0.06	281584	keystroke_s	s	n/a
141.527	0.075	283054	keystroke_i	i	n/a
141.617	0.165	283234	keystroke_s	s	n/a
141.737	0.135	283474	keystroke_Key.space	Key.space	n/a
142.052	0.075	284104	keystroke_u	u	n/a
142.262	0.075	284524	keystroke_n	n	n/a
142.502	0.075	285004	keystroke_Key.backspace	Key.backspace	n/a
142.667	0.105	285334	keystroke_Key.backspace	Key.backspace	n/a
143.927	0.09	287854	keystroke_s	s	n/a
144.032	0.075	288064	keystroke_u	u	n/a
144.167	0.09	288334	keystroke_s	s	n/a
144.557	0.09	289114	keystroke_Key.backspace	Key.backspace	n/a
145.908	0.059	291816	keystroke_s	s	n/a
146.057	0.105	292114	keystroke_s	s	n/a
146.267	0.105	292534	keystroke_e	e	n/a
146.582	0.105	293164	keystroke_x	x	n/a
149.42	0.027	298840	keystroke_Key.enter	Key.enter	n/a
149.4525	9.8515	298905	prompt	n/a	game comparative kissing webcams\n
150.617	0.075	301234	keystroke_g	g	n/a
150.737	0.105	301474	keystroke_a	a	n/a
150.887	0.075	301774	keystroke_m	m	n/a
151.022	0.1055	302044	keystroke_e	e	n/a
151.112	0.1205	302224	keystroke_Key.space	Key.space	n/a
151.3825	0.075	302765	keystroke_c	c	n/a
151.4725	0.06	302945	keystroke_o	o	n/a
151.6225	0.09	303245	keystroke_m	m	n/a
151.7575	0.09	303515	keystroke_p	p	n/a
151.8775	0.075	303755	keystroke_a	a	n/a
152.0875	0.06	304175	keystroke_r	r	n/a
152.2675	0.06	304535	keystroke_t	t	n/a
152.6425	0.075	305285	keystroke_Key.backspace	Key.backspace	n/a
152.7775	0.12	305555	keystroke_a	a	n/a
153.0775	0.075	306155	keystroke_t	t	n/a
153.2125	0.075	306425	keystroke_i	i	n/a
153.8425	0.09	307685	keystroke_v	v	n/a
153.9325	0.15	307865	keystroke_e	e	n/a
154.0675	0.105	308135	keystroke_Key.space	Key.space	n/a
154.5625	0.075	309125	keystroke_k	k	n/a
154.8175	0.015	309635	keystroke_i	i	n/a
154.8625	0.075	309725	keystroke_s	s	n/a
155.0275	0.09	310055	keystroke_s	s	n/a
155.1325	0.075	310265	keystroke_i	i	n/a
155.2975	0.105	310595	keystroke_n	n	n/a
155.4325	0.09	310865	keystroke_g	g	n/a
155.6725	0.105	311345	keystroke_Key.space	Key.space	n/a
156.6175	0.09	313235	keystroke_w	w	n/a
156.8575	0.09	313715	keystroke_e	e	n/a
157.6225	0.06	315245	keystroke_b	b	n/a
157.7125	0.105	315425	keystroke_c	c	n/a
157.8775	0.135	315755	keystroke_a	a	n/a
158.0275	0.0895	316055	keystroke_m	m	n/a
158.267	0.105	316534	keystroke_s	s	n/a
159.257	0.045	318514	keystroke_Key.enter	Key.enter	n/a
159.307	18.0425	318614	prompt	n/a	whose dicke milwaukee appropriations\n
160.277	0.075	320554	keystroke_w	w	n/a
160.367	0.06	320734	keystroke_h	h	n/a
160.517	0.105	321034	keystroke_o	o	n/a
160.652	0.06	321304	keystroke_s	s	n/a
160.892	0.135	321784	keystroke_e	e	n/a
161.057	0.105	322114	keystroke_Key.space	Key.space	n/a
162.437	0.075	324874	keystroke_d	d	n/a
162.542	0.09	325084	keystroke_i	i	n/a
162.707	0.075	325414	keystroke_c	c	n/a
162.842	0.075	325684	keystroke_k	k	n/a
162.977	0.105	325954	keystroke_e	e	n/a
163.172	0.105	326344	keystroke_Key.space	Key.space	n/a
164.042	0.09	328084	keystroke_m	m	n/a
164.222	0.09	328444	keystroke_i	i	n/a
164.327	0.075	328654	keystroke_w	w	n/a
166.082	0.09	332164	keystroke_a	a	n/a
166.217	0.075	332434	keystroke_u	u	n/a
166.457	0.075	332914	keystroke_k	k	n/a
166.577	0.045	333154	keystroke_e	e	n/a
166.742	0.06	333484	keystroke_e	e	n/a
166.877	0.135	333754	keystroke_Key.space	Key.space	n/a
168.032	0.06	336064	keystroke_Key.backspace	Key.backspace	n/a
168.182	0.09	336364	keystroke_Key.backspace	Key.backspace	n/a
168.347	0.09	336694	keystroke_Key.backspace	Key.backspace	n/a
168.527	0.09	337054	keystroke_Key.backspace	Key.backspace	n/a
168.692	0.09	337384	keystroke_Key.backspace	Key.backspace	n/a
168.872	0.075	337744	keystroke_Key.backspace	Key.backspace	n/a
169.037	0.105	338074	keystroke_Key.backspace	Key.backspace	n/a
169.727	0.06	339454	keystroke_l	l	n/a
169.967	0.03	339934	keystroke_k	k	n/a
170.192	0.09	340384	keystroke_Key.backspace	Key.backspace	n/a
170.327	0.09	340654	keystroke_w	w	n/a
170.582	0.09	341164	keystroke_a	a	n/a
170.732	0.03	341464	keystroke_u	u	n/a
171.602	0.106	343204	keystroke_k	k	n/a
171.737	0.075	343474	keystroke_e	e	n/a
171.887	0.135	343774	keystroke_e	e	n/a
172.067	0.075	344134	keystroke_Key.space	Key.space	n/a
173.237	0.091	346474	keystroke_a	a	n/a
173.462	0.045	346924	keystroke_p	p	n/a
173.612	0.06	347224	keystroke_p	p	n/a
173.837	0.075	347674	keystroke_r	r	n/a
173.958	0.074	347916	keystroke_o	o	n/a
174.752	0.075	349504	keystroke_p	p	n/a
174.947	0.075	349894	keystroke_r	r	n/a
175.112	0.06	350224	keystroke_i	i	n/a
175.2625	0.12	350525	keystroke_a	a	n/a
175.5475	0.075	351095	keystroke_t	t	n/a
175.6975	0.06	351395	keystroke_i	i	n/a
175.9375	0.075	351875	keystroke_o	o	n/a
176.1325	0.075	352265	keystroke_n	n	n/a
176.2525	0.075	352505	keystroke_s	s	n/a
177.2725	0.075	354545	keystroke_Key.enter	Key.enter	n/a
177.3535	7.3605	354707	prompt	n/a	scored origins wanna pursue\n
178.412	0.061	356824	keystroke_s	s	n/a
178.592	0.076	357184	keystroke_c	c	n/a
178.683	0.074	357366	keystroke_o	o	n/a
178.967	0.075	357934	keystroke_r	r	n/a
179.087	0.091	358174	keystroke_e	e	n/a
179.312	0.135	358624	keystroke_d	d	n/a
179.417	0.15	358834	keystroke_Key.space	Key.space	n/a
179.612	0.075	359224	keystroke_o	o	n/a
179.7475	0.105	359495	keystroke_r	r	n/a
179.8825	0.075	359765	keystroke_i	i	n/a
180.0775	0.06	360155	keystroke_g	g	n/a
180.1525	0.075	360305	keystroke_i	i	n/a
180.3175	0.09	360635	keystroke_n	n	n/a
180.4525	0.105	360905	keystroke_s	s	n/a
180.6775	0.12	361355	keystroke_Key.space	Key.space	n/a
181.3375	0.09	362675	keystroke_w	w	n/a
181.5775	0.135	363155	keystroke_a	a	n/a
181.6975	0.075	363395	keystroke_n	n	n/a
181.8475	0.105	363695	keystroke_n	n	n/a
181.9825	0.105	363965	keystroke_a	a	n/a
182.0425	0.135	364085	keystroke_Key.space	Key.space	n/a
182.4925	0.09	364985	keystroke_p	p	n/a
182.8975	0.075	365795	keystroke_u	u	n/a
183.1075	0.06	366215	keystroke_s	s	n/a
183.3475	0.09	366695	keystroke_Key.backspace	Key.backspace	n/a
183.4225	0.075	366845	keystroke_r	r	n/a
183.6325	0.09	367265	keystroke_s	s	n/a
183.7675	0.06	367535	keystroke_u	u	n/a
183.8725	0.075	367745	keystroke_e	e	n/a
184.6525	0.06	369305	keystroke_Key.enter	Key.enter	n/a
184.7175	7.9765	369435	prompt	n/a	divx largely tion shift\n
185.928	0.059	371856	keystroke_d	d	n/a
186.033	0.045	372066	keystroke_i	i	n/a
186.242	0.061	372484	keystroke_v	v	n/a
186.453	0.075	372906	keystroke_x	x	n/a
186.692	0.12	373384	keystroke_Key.space	Key.space	n/a
187.023	0.105	374046	keystroke_l	l	n/a
187.143	0.105	374286	keystroke_a	a	n/a
187.368	0.0595	374736	keystroke_r	r	n/a
187.7875	0.09	375575	keystroke_g	g	n/a
187.9075	0.075	375815	keystroke_e	e	n/a
188.2075	0.06	376415	keystroke_l	l	n/a
188.5225	0.06	377045	keystroke_y	y	n/a
188.6575	0.105	377315	keystroke_Key.space	Key.space	n/a
189.0175	0.075	378035	keystroke_t	t	n/a
189.1225	0.075	378245	keystroke_i	i	n/a
189.3025	0.105	378605	keystroke_o	o	n/a
189.4975	0.09	378995	keystroke_n	n	n/a
189.6325	0.1045	379265	keystroke_Key.space	Key.space	n/a
189.872	0.135	379744	keystroke_s	s	n/a
190.127	0.075	380254	keystroke_h	h	n/a
190.262	0.105	380524	keystroke_i	i	n/a
190.547	0.06	381094	keystroke_f	f	n/a
190.742	0.075	381484	keystroke_t	t	n/a
192.632	0.06	385264	keystroke_Key.enter	Key.enter	n/a
192.699	9.055	385398	prompt	n/a	hosting hobby engineer regarding\n
193.697	0.045	387394	keystroke_h	h	n/a
193.847	0.09	387694	keystroke_o	o	n/a
193.907	0.075	387814	keystroke_s	s	n/a
194.117	0.09	388234	keystroke_t	t	n/a
194.222	0.075	388444	keystroke_i	i	n/a
194.372	0.075	388744	keystroke_n	n	n/a
194.432	0.09	388864	keystroke_g	g	n/a
194.702	0.12	389404	keystroke_Key.space	Key.space	n/a
195.497	0.075	390994	keystroke_h	h	n/a
195.662	0.075	391324	keystroke_o	o	n/a
195.887	0.06	391774	keystroke_b	b	n/a
196.037	0.105	392074	keystroke_b	b	n/a
196.247	0.075	392494	keystroke_y	y	n/a
196.352	0.12	392704	keystroke_Key.space	Key.space	n/a
196.802	0.09	393604	keystroke_e	e	n/a
196.937	0.075	393874	keystroke_n	n	n/a
197.192	0.09	394384	keystroke_Key.backspace	Key.backspace	n/a
197.657	0.09	395314	keystroke_n	n	n/a
197.928	0.059	395856	keystroke_g	g	n/a
198.017	0.075	396034	keystroke_i	i	n/a
198.227	0.076	396454	keystroke_n	n	n/a
198.422	0.106	396844	keystroke_e	e	n/a
198.603	0.089	397206	keystroke_e	e	n/a
198.798	0.134	397596	keystroke_r	r	n/a
198.902	0.105	397804	keystroke_Key.space	Key.space	n/a
199.847	0.075	399694	keystroke_r	r	n/a
199.907	0.075	399814	keystroke_e	e	n/a
200.042	0.09	400084	keystroke_g	g	n/a
200.162	0.105	400324	keystroke_a	a	n/a
200.387	0.075	400774	keystroke_r	r	n/a
200.582	0.075	401164	keystroke_d	d	n/a
200.642	0.09	401284	keystroke_i	i	n/a
200.807	0.09	401614	keystroke_n	n	n/a
200.898	0.074	401796	keystroke_g	g	n/a
201.692	0.06	403384	keystroke_Key.enter	Key.enter	n/a
201.7575	8.637	403515	prompt	n/a	these bush boating bahrain\n
202.787	0.06	405574	keystroke_t	t	n/a
203.012	0.075	406024	keystroke_h	h	n/a
203.088	0.074	406176	keystroke_e	e	n/a
203.297	0.09	406594	keystroke_s	s	n/a
203.492	0.135	406984	keystroke_e	e	n/a
203.582	0.135	407164	keystroke_Key.space	Key.space	n/a
203.748	0.105	407496	keystroke_b	b	n/a
203.942	0.09	407884	keystroke_u	u	n/a
204.047	0.12	408094	keystroke_s	s	n/a
204.692	0.105	409384	keystroke_h	h	n/a
204.812	0.12	409624	keystroke_Key.space	Key.space	n/a
205.232	0.09	410464	keystroke_b	b	n/a
205.412	0.12	410824	keystroke_o	o	n/a
205.518	0.165	411036	keystroke_a	a	n/a
205.772	0.076	411544	keystroke_t	t	n/a
206.117	0.075	412234	keystroke_i	i	n/a
206.298	0.09	412596	keystroke_n	n	n/a
206.403	0.104	412806	keystroke_g	g	n/a
206.582	0.135	413164	keystroke_Key.space	Key.space	n/a
207.617	0.09	415234	keystroke_b	b	n/a
207.783	0.09	415566	keystroke_a	a	n/a
207.932	0.075	415864	keystroke_h	h	n/a
208.578	0.075	417156	keystroke_r	r	n/a
208.803	0.09	417606	keystroke_a	a	n/a
208.907	0.061	417814	keystroke_i	i	n/a
209.073	0.075	418146	keystroke_n	n	n/a
210.3325	0.06	420665	keystroke_Key.enter	Key.enter	n/a
210.3985	7.0305	420797	prompt	n/a	mail periods submit avatar\n
211.2925	0.075	422585	keystroke_m	m	n/a
211.3975	0.105	422795	keystroke_a	a	n/a
211.5175	0.045	423035	keystroke_i	i	n/a
211.7125	0.09	423425	keystroke_l	l	n/a
211.8025	0.09	423605	keystroke_Key.space	Key.space	n/a
211.9375	0.09	423875	keystroke_p	p	n/a
212.0425	0.09	424085	keystroke_e	e	n/a
212.2375	0.075	424475	keystroke_r	r	n/a
212.3275	0.06	424655	keystroke_i	i	n/a
212.5375	0.09	425075	keystroke_o	o	n/a
212.8975	0.075	425795	keystroke_d	d	n/a
213.0925	0.165	426185	keystroke_s	s	n/a
213.2125	0.135	426425	keystroke_Key.space	Key.space	n/a
213.6175	0.09	427235	keystroke_s	s	n/a
213.8875	0.06	427775	keystroke_u	u	n/a
214.0525	0.075	428105	keystroke_b	b	n/a
214.2625	0.12	428525	keystroke_m	m	n/a
214.4725	0.075	428945	keystroke_i	i	n/a
214.6525	0.12	429305	keystroke_t	t	n/a
214.8325	0.105	429665	keystroke_Key.space	Key.space	n/a
215.1775	0.105	430355	keystroke_a	a	n/a
215.3725	0.075	430745	keystroke_v	v	n/a
215.4925	0.105	430985	keystroke_a	a	n/a
215.5975	0.075	431195	keystroke_v	v	n/a
216.0625	0.09	432125	keystroke_Key.backspace	Key.backspace	n/a
216.1225	0.075	432245	keystroke_t	t	n/a
216.3775	0.135	432755	keystroke_a	a	n/a
216.6325	0.105	433265	keystroke_r	r	n/a
217.3675	0.06	434735	keystroke_Key.enter	Key.enter	n/a
217.432	8.6815	434864	prompt	n/a	voluntary apart bryant party\n
218.4025	0.045	436805	keystroke_v	v	n/a
218.5975	0.075	437195	keystroke_o	o	n/a
218.7925	0.09	437585	keystroke_l	l	n/a
219.0475	0.06	438095	keystroke_u	u	n/a
219.2275	0.075	438455	keystroke_n	n	n/a
219.4825	0.075	438965	keystroke_t	t	n/a
219.5875	0.09	439175	keystroke_a	a	n/a
219.8275	0.045	439655	keystroke_r	r	n/a
219.9625	0.075	439925	keystroke_y	y	n/a
220.0825	0.105	440165	keystroke_Key.space	Key.space	n/a
220.4725	0.09	440945	keystroke_a	a	n/a
220.6225	0.105	441245	keystroke_p	p	n/a
220.7725	0.09	441545	keystroke_a	a	n/a
220.9825	0.09	441965	keystroke_r	r	n/a
221.1925	0.12	442385	keystroke_t	t	n/a
221.3875	0.105	442775	keystroke_Key.space	Key.space	n/a
222.0775	0.105	444155	keystroke_b	b	n/a
222.1975	0.09	444395	keystroke_r	r	n/a
222.5875	0.09	445175	keystroke_y	y	n/a
222.7075	0.09	445415	keystroke_a	a	n/a
222.8875	0.075	445775	keystroke_n	n	n/a
223.0375	0.105	446075	keystroke_t	t	n/a
223.1875	0.09	446375	keystroke_Key.space	Key.space	n/a
223.5025	0.03	447005	keystroke_p	p	n/a
223.6075	0.09	447215	keystroke_a	a	n/a
224.5675	0.06	449135	keystroke_r	r	n/a
224.7325	0.075	449465	keystroke_t	t	n/a
224.8375	0.09	449675	keystroke_y	y	n/a
226.0525	0.06	452105	keystroke_Key.enter	Key.enter	n/a
226.1165	22.8125	452233	prompt	n/a	mexican hook defence greatest\n
226.9225	0.06	453845	keystroke_m	m	n/a
227.0125	0.06	454025	keystroke_e	e	n/a
227.2975	0.075	454595	keystroke_x	x	n/a
227.4175	0.075	454835	keystroke_i	i	n/a
227.6425	0.045	455285	keystroke_c	c	n/a
227.8225	0.075	455645	keystroke_a	a	n/a
227.9425	0.06	455885	keystroke_n	n	n/a
228.0925	0.12	456185	keystroke_Key.space	Key.space	n/a
228.8575	0.045	457715	keystroke_h	h	n/a
228.9175	0.075	457835	keystroke_o	o	n/a
229.0675	0.06	458135	keystroke_o	o	n/a
229.2025	0.105	458405	keystroke_k	k	n/a
229.4275	0.105	458855	keystroke_Key.space	Key.space	n/a
230.2075	0.075	460415	keystroke_d	d	n/a
230.372	0.105	460744	keystroke_e	e	n/a
230.972	0.075	461944	keystroke_f	f	n/a
231.032	0.09	462064	keystroke_e	e	n/a
231.227	0.09	462454	keystroke_n	n	n/a
231.557	0.06	463114	keystroke_c	c	n/a
231.647	0.135	463294	keystroke_e	e	n/a
231.797	0.12	463594	keystroke_Key.space	Key.space	n/a
232.187	0.09	464374	keystroke_g	g	n/a
232.397	0.075	464794	keystroke_r	r	n/a
232.457	0.075	464914	keystroke_e	e	n/a
232.667	0.105	465334	keystroke_a	a	n/a
232.787	0.075	465574	keystroke_t	t	n/a
232.892	0.075	465784	keystroke_e	e	n/a
233.102	0.075	466204	keystroke_s	s	n/a
240.0795	0	480159	keystroke_Key.backspace	Key.backspace	n/a
240.4225	0.06	480845	keystroke_t	t	n/a
240.4975	0.09	480995	keystroke_d	d	n/a
241.967	0.06	483934	keystroke_Key.backspace	Key.backspace	n/a
242.043	0.0895	484086	keystroke_s	s	n/a
245.914	0.043	491828	keystroke_Key.backspace	Key.backspace	n/a
246.062	0.075	492124	keystroke_Key.backspace	Key.backspace	n/a
246.332	0.135	492664	keystroke_s	s	n/a
246.797	0.045	493594	keystroke_t	t	n/a
248.807	0.12	497614	keystroke_Key.enter	Key.enter	n/a
248.9325	7.752	497865	prompt	n/a	influences harder pics chase\n
250.052	0.06	500104	keystroke_i	i	n/a
250.202	0.091	500404	keystroke_n	n	n/a
250.457	0.06	500914	keystroke_f	f	n/a
250.547	0.09	501094	keystroke_l	l	n/a
250.817	0.06	501634	keystroke_u	u	n/a
250.907	0.075	501814	keystroke_e	e	n/a
251.027	0.075	502054	keystroke_n	n	n/a
251.282	0.06	502564	keystroke_c	c	n/a
251.357	0.075	502714	keystroke_e	e	n/a
251.567	0.151	503134	keystroke_s	s	n/a
251.702	0.09	503404	keystroke_Key.space	Key.space	n/a
252.107	0.09	504214	keystroke_h	h	n/a
252.212	0.105	504424	keystroke_a	a	n/a
252.452	0.091	504904	keystroke_r	r	n/a
252.648	0.104	505296	keystroke_d	d	n/a
252.857	0.075	505714	keystroke_e	e	n/a
253.037	0.15	506074	keystroke_r	r	n/a
253.142	0.12	506284	keystroke_Key.space	Key.space	n/a
253.397	0.09	506794	keystroke_p	p	n/a
253.652	0.091	507304	keystroke_i	i	n/a
253.772	0.105	507544	keystroke_c	c	n/a
254.043	0.134	508086	keystroke_s	s	n/a
254.222	0.12	508444	keystroke_Key.space	Key.space	n/a
254.672	0.09	509344	keystroke_c	c	n/a
254.747	0.105	509494	keystroke_h	h	n/a
254.897	0.121	509794	keystroke_a	a	n/a
255.062	0.106	510124	keystroke_s	s	n/a
255.243	0.075	510486	keystroke_e	e	n/a
256.607	0.075	513214	keystroke_Key.enter	Key.enter	n/a
256.6875	9.5365	513375	prompt	n/a	qualities management null robbie\n
257.732	0.091	515464	keystroke_q	q	n/a
257.823	0.075	515646	keystroke_u	u	n/a
257.988	0.119	515976	keystroke_a	a	n/a
258.093	0.104	516186	keystroke_l	l	n/a
258.302	0.061	516604	keystroke_i	i	n/a
258.407	0.061	516814	keystroke_t	t	n/a
258.513	0.089	517026	keystroke_i	i	n/a
258.663	0.089	517326	keystroke_e	e	n/a
258.887	0.12	517774	keystroke_s	s	n/a
258.993	0.119	517986	keystroke_Key.space	Key.space	n/a
259.577	0.075	519154	keystroke_m	m	n/a
259.668	0.104	519336	keystroke_a	a	n/a
259.787	0.09	519574	keystroke_n	n	n/a
259.908	0.119	519816	keystroke_a	a	n/a
260.132	0.075	520264	keystroke_g	g	n/a
260.597	0.046	521194	keystroke_e	e	n/a
260.687	0.076	521374	keystroke_m	m	n/a
260.777	0.091	521554	keystroke_e	e	n/a
260.898	0.09	521796	keystroke_n	n	n/a
261.198	0.089	522396	keystroke_t	t	n/a
261.572	0.165	523144	keystroke_Key.space	Key.space	n/a
262.518	0.09	525036	keystroke_n	n	n/a
262.713	0.075	525426	keystroke_u	u	n/a
262.998	0.0595	525996	keystroke_l	l	n/a
263.1325	0.09	526265	keystroke_l	l	n/a
263.2525	0.105	526505	keystroke_Key.space	Key.space	n/a
264.5875	0.06	529175	keystroke_r	r	n/a
264.6925	0.09	529385	keystroke_o	o	n/a
265.0225	0.045	530045	keystroke_b	b	n/a
265.1875	0.045	530375	keystroke_b	b	n/a
265.2925	0.105	530585	keystroke_i	i	n/a
265.3825	0.075	530765	keystroke_e	e	n/a
266.1625	0.06	532325	keystroke_Key.enter	Key.enter	n/a
266.2275	10.887	532455	prompt	n/a	cholesterol extent inputs running\n
267.0925	0.075	534185	keystroke_c	c	n/a
267.2125	0.06	534425	keystroke_h	h	n/a
267.3475	0.075	534695	keystroke_o	o	n/a
267.5425	0.09	535085	keystroke_l	l	n/a
267.6475	0.06	535295	keystroke_e	e	n/a
267.8425	0.09	535685	keystroke_s	s	n/a
267.9625	0.075	535925	keystroke_t	t	n/a
268.2475	0.075	536495	keystroke_e	e	n/a
268.4575	0.015	536915	keystroke_t	t	n/a
268.7125	0.09	537425	keystroke_Key.backspace	Key.backspace	n/a
268.7875	0.06	537575	keystroke_r	r	n/a
268.9075	0.09	537815	keystroke_o	o	n/a
269.2075	0.075	538415	keystroke_l	l	n/a
269.3725	0.105	538745	keystroke_Key.space	Key.space	n/a
269.7325	0.075	539465	keystroke_e	e	n/a
270.392	0.075	540784	keystroke_x	x	n/a
270.557	0.075	541114	keystroke_t	t	n/a
270.692	0.06	541384	keystroke_e	e	n/a
270.827	0.105	541654	keystroke_n	n	n/a
271.097	0.0755	542194	keystroke_t	t	n/a
271.292	0.12	542584	keystroke_Key.space	Key.space	n/a
271.742	0.06	543484	keystroke_i	i	n/a
271.982	0.075	543964	keystroke_n	n	n/a
272.192	0.105	544384	keystroke_p	p	n/a
272.447	0.06	544894	keystroke_u	u	n/a
272.642	0.075	545284	keystroke_n	n	n/a
273.122	0.075	546244	keystroke_Key.backspace	Key.backspace	n/a
273.438	0.044	546876	keystroke_t	t	n/a
273.497	0.12	546994	keystroke_s	s	n/a
273.767	0.105	547534	keystroke_Key.space	Key.space	n/a
274.817	0.075	549634	keystroke_r	r	n/a
274.907	0.075	549814	keystroke_u	u	n/a
275.117	0.075	550234	keystroke_n	n	n/a
275.267	0.105	550534	keystroke_n	n	n/a
275.402	0.075	550804	keystroke_i	i	n/a
275.552	0.12	551104	keystroke_n	n	n/a
275.702	0.061	551404	keystroke_g	g	n/a
277.052	0.06	554104	keystroke_Key.enter	Key.enter	n/a
277.1185	11.5755	554237	prompt	n/a	advisor those're who'll town\n
277.938	0.104	555876	keystroke_a	a	n/a
278.147	0.075	556294	keystroke_d	d	n/a
278.763	0.075	557526	keystroke_v	v	n/a
278.867	0.09	557734	keystroke_i	i	n/a
278.988	0.075	557976	keystroke_s	s	n/a
279.107	0.09	558214	keystroke_o	o	n/a
279.2425	0.0895	558485	keystroke_r	r	n/a
279.437	0.105	558874	keystroke_Key.space	Key.space	n/a
279.872	0.091	559744	keystroke_t	t	n/a
279.977	0.09	559954	keystroke_h	h	n/a
280.157	0.106	560314	keystroke_o	o	n/a
280.8325	0.075	561665	keystroke_s	s	n/a
281.0125	0.09	562025	keystroke_e	e	n/a
281.4925	0.045	562985	keystroke_'	'	n/a
281.6125	0.09	563225	keystroke_r	r	n/a
281.8225	0.09	563645	keystroke_e	e	n/a
281.9725	0.105	563945	keystroke_Key.space	Key.space	n/a
283.082	0.075	566164	keystroke_w	w	n/a
283.172	0.09	566344	keystroke_h	h	n/a
283.337	0.09	566674	keystroke_o	o	n/a
284.042	0.075	568084	keystroke_;	;	n/a
284.267	0.075	568534	keystroke_l	l	n/a
284.432	0.075	568864	keystroke_l	l	n/a
284.717	0.075	569434	keystroke_Key.backspace	Key.backspace	n/a
284.867	0.075	569734	keystroke_Key.backspace	Key.backspace	n/a
285.032	0.06	570064	keystroke_Key.backspace	Key.backspace	n/a
285.722	0.06	571444	keystroke_'	'	n/a
286.022	0.075	572044	keystroke_l	l	n/a
286.172	0.105	572344	keystroke_l	l	n/a
286.292	0.105	572584	keystroke_Key.space	Key.space	n/a
287.057	0.06	574114	keystroke_t	t	n/a
287.462	0.09	574924	keystroke_o	o	n/a
287.582	0.09	575164	keystroke_w	w	n/a
287.777	0.045	575554	keystroke_n	n	n/a
288.632	0.06	577264	keystroke_Key.enter	Key.enter	n/a
288.697	9.492	577394	prompt	n/a	investor tape valves nutrition\n
289.517	0.06	579034	keystroke_i	i	n/a
289.697	0.075	579394	keystroke_n	n	n/a
289.982	0.06	579964	keystroke_v	v	n/a
290.072	0.075	580144	keystroke_e	e	n/a
290.267	0.09	580534	keystroke_s	s	n/a
290.537	0.105	581074	keystroke_t	t	n/a
290.688	0.059	581376	keystroke_o	o	n/a
290.763	0.089	581526	keystroke_r	r	n/a
290.987	0.09	581974	keystroke_Key.space	Key.space	n/a
291.632	0.09	583264	keystroke_t	t	n/a
291.738	0.104	583476	keystroke_a	a	n/a
292.022	0.075	584044	keystroke_p	p	n/a
292.142	0.121	584284	keystroke_e	e	n/a
292.232	0.12	584464	keystroke_Key.space	Key.space	n/a
292.727	0.075	585454	keystroke_b	b	n/a
293.0875	0.09	586175	keystroke_Key.backspace	Key.backspace	n/a
293.1925	0.075	586385	keystroke_v	v	n/a
293.3725	0.105	586745	keystroke_a	a	n/a
293.4625	0.09	586925	keystroke_l	l	n/a
294.1975	0.015	588395	keystroke_v	v	n/a
294.2275	0.015	588455	keystroke_e	e	n/a
294.2725	0.09	588545	keystroke_s	s	n/a
295.1725	0.105	590345	keystroke_Key.space	Key.space	n/a
295.4575	0.09	590915	keystroke_n	n	n/a
295.6825	0.075	591365	keystroke_u	u	n/a
295.8175	0.06	591635	keystroke_t	t	n/a
296.0575	0.09	592115	keystroke_r	r	n/a
296.1925	0.075	592385	keystroke_i	i	n/a
296.3425	0.09	592685	keystroke_i	i	n/a
296.4625	0.075	592925	keystroke_t	t	n/a
296.5675	0.075	593135	keystroke_i	i	n/a
296.7325	0.09	593465	keystroke_o	o	n/a
296.9425	0.075	593885	keystroke_n	n	n/a
298.1275	0.06	596255	keystroke_Key.enter	Key.enter	n/a
298.195	6.369	596390	prompt	n/a	makers boats euro held\n
299.7625	0.075	599525	keystroke_m	m	n/a
299.8825	0.09	599765	keystroke_a	a	n/a
299.9875	0.06	599975	keystroke_k	k	n/a
300.1225	0.075	600245	keystroke_e	e	n/a
300.3175	0.075	600635	keystroke_r	r	n/a
300.5725	0.135	601145	keystroke_s	s	n/a
300.6475	0.135	601295	keystroke_Key.space	Key.space	n/a
300.8575	0.09	601715	keystroke_b	b	n/a
301.0675	0.09	602135	keystroke_o	o	n/a
301.1585	0.104	602317	keystroke_a	a	n/a
301.5625	0.075	603125	keystroke_t	t	n/a
301.6825	0.165	603365	keystroke_s	s	n/a
301.8475	0.12	603695	keystroke_Key.space	Key.space	n/a
302.1175	0.075	604235	keystroke_e	e	n/a
302.4175	0.135	604835	keystroke_u	u	n/a
302.8375	0.075	605675	keystroke_r	r	n/a
302.9725	0.075	605945	keystroke_o	o	n/a
303.0475	0.12	606095	keystroke_Key.space	Key.space	n/a
303.5725	0.06	607145	keystroke_h	h	n/a
303.6625	0.105	607325	keystroke_e	e	n/a
303.8725	0.061	607745	keystroke_l	l	n/a
303.9775	0.105	607955	keystroke_d	d	n/a
304.4875	0.0745	608975	keystroke_Key.enter	Key.enter	n/a
304.5675	11.4115	609135	prompt	n/a	retailer tripadvisor north waiting\n
305.582	0.09	611164	keystroke_r	r	n/a
305.777	0.075	611554	keystroke_e	e	n/a
306.077	0.075	612154	keystroke_t	t	n/a
306.167	0.105	612334	keystroke_a	a	n/a
306.347	0.075	612694	keystroke_i	i	n/a
306.602	0.06	613204	keystroke_l	l	n/a
306.677	0.09	613354	keystroke_e	e	n/a
306.857	0.105	613714	keystroke_r	r	n/a
306.932	0.105	613864	keystroke_Key.space	Key.space	n/a
307.622	0.075	615244	keystroke_t	t	n/a
307.742	0.06	615484	keystroke_r	r	n/a
308.042	0.06	616084	keystroke_i	i	n/a
308.252	0.045	616504	keystroke_o	o	n/a
308.657	0.105	617314	keystroke_Key.backspace	Key.backspace	n/a
308.808	0.089	617616	keystroke_p	p	n/a
308.942	0.045	617884	keystroke_d	d	n/a
309.392	0.06	618784	keystroke_Key.backspace	Key.backspace	n/a
310.037	0.06	620074	keystroke_a	a	n/a
310.277	0.075	620554	keystroke_d	d	n/a
310.427	0.09	620854	keystroke_v	v	n/a
310.607	0.09	621214	keystroke_i	i	n/a
311.102	0.06	622204	keystroke_s	s	n/a
311.582	0.09	623164	keystroke_o	o	n/a
311.747	0.09	623494	keystroke_r	r	n/a
311.942	0.105	623884	keystroke_Key.space	Key.space	n/a
312.812	0.09	625624	keystroke_n	n	n/a
312.977	0.09	625954	keystroke_o	o	n/a
313.097	0.075	626194	keystroke_r	r	n/a
313.292	0.075	626584	keystroke_t	t	n/a
313.412	0.09	626824	keystroke_h	h	n/a
313.517	0.09	627034	keystroke_Key.space	Key.space	n/a
313.833	0.044	627666	keystroke_e	e	n/a
314.162	0.075	628324	keystroke_Key.backspace	Key.backspace	n/a
314.297	0.09	628594	keystroke_w	w	n/a
314.508	0.089	629016	keystroke_a	a	n/a
314.642	0.105	629284	keystroke_i	i	n/a
314.808	0.074	629616	keystroke_t	t	n/a
314.927	0.075	629854	keystroke_i	i	n/a
315.152	0.06	630304	keystroke_n	n	n/a
315.272	0.075	630544	keystroke_g	g	n/a
315.902	0.075	631804	keystroke_Key.enter	Key.enter	n/a
315.982	12.762	631964	prompt	n/a	connectivity myanmar plug cornell\n
316.953	0.044	633906	keystroke_c	c	n/a
317.208	0.059	634416	keystroke_o	o	n/a
317.672	0.045	635344	keystroke_n	n	n/a
317.808	0.075	635616	keystroke_n	n	n/a
317.897	0.061	635794	keystroke_e	e	n/a
318.108	0.105	636216	keystroke_c	c	n/a
318.527	0.075	637054	keystroke_t	t	n/a
318.647	0.09	637294	keystroke_i	i	n/a
318.947	0.045	637894	keystroke_v	v	n/a
319.187	0.075	638374	keystroke_i	i	n/a
319.502	0.061	639004	keystroke_t	t	n/a
319.608	0.089	639216	keystroke_u	u	n/a
319.698	0.135	639396	keystroke_Key.space	Key.space	n/a
320.058	0.075	640116	keystroke_Key.backspace	Key.backspace	n/a
320.192	0.091	640384	keystroke_Key.backspace	Key.backspace	n/a
320.417	0.091	640834	keystroke_y	y	n/a
320.522	0.105	641044	keystroke_Key.space	Key.space	n/a
321.123	0.089	642246	keystroke_m	m	n/a
321.392	0.091	642784	keystroke_y	y	n/a
321.603	0.09	643206	keystroke_a	a	n/a
322.428	0.075	644856	keystroke_n	n	n/a
322.623	0.09	645246	keystroke_m	m	n/a
322.728	0.09	645456	keystroke_a	a	n/a
322.983	0.12	645966	keystroke_r	r	n/a
323.148	0.104	646296	keystroke_Key.space	Key.space	n/a
323.808	0.09	647616	keystroke_p	p	n/a
323.928	0.12	647856	keystroke_l	l	n/a
324.198	0.075	648396	keystroke_u	u	n/a
324.753	0.06	649506	keystroke_g	g	n/a
324.887	0.121	649774	keystroke_Key.space	Key.space	n/a
325.743	0.045	651486	keystroke_c	c	n/a
325.833	0.075	651666	keystroke_o	o	n/a
326.013	0.06	652026	keystroke_r	r	n/a
326.133	0.105	652266	keystroke_n	n	n/a
326.433	0.075	652866	keystroke_l	l	n/a
326.568	0.06	653136	keystroke_e	e	n/a
327.003	0.075	654006	keystroke_Key.backspace	Key.backspace	n/a
327.153	0.105	654306	keystroke_Key.backspace	Key.backspace	n/a
327.228	0.075	654456	keystroke_e	e	n/a
327.423	0.075	654846	keystroke_l	l	n/a
327.588	0.09	655176	keystroke_l	l	n/a
328.7275	0.015	657455	keystroke_Key.enter	Key.enter	n/a
328.7475	8.3365	657495	prompt	n/a	curve channels amendment careful\n
329.6275	0.075	659255	keystroke_c	c	n/a
329.7625	0.075	659525	keystroke_u	u	n/a
329.8975	0.075	659795	keystroke_r	r	n/a
330.0325	0.09	660065	keystroke_v	v	n/a
330.1675	0.15	660335	keystroke_e	e	n/a
330.2875	0.12	660575	keystroke_Key.space	Key.space	n/a
330.6325	0.075	661265	keystroke_c	c	n/a
330.7375	0.075	661475	keystroke_h	h	n/a
330.8575	0.105	661715	keystroke_a	a	n/a
331.0075	0.075	662015	keystroke_n	n	n/a
331.1875	0.09	662375	keystroke_n	n	n/a
331.2925	0.09	662585	keystroke_e	e	n/a
331.4425	0.09	662885	keystroke_l	l	n/a
331.6825	0.15	663365	keystroke_s	s	n/a
331.8025	0.105	663605	keystroke_Key.space	Key.space	n/a
332.0725	0.105	664145	keystroke_a	a	n/a
332.5225	0.06	665045	keystroke_m	m	n/a
332.7625	0.06	665525	keystroke_e	e	n/a
333.0025	0.09	666005	keystroke_n	n	n/a
333.1225	0.12	666245	keystroke_d	d	n/a
334.4425	0.09	668885	keystroke_m	m	n/a
334.5175	0.105	669035	keystroke_e	e	n/a
334.6675	0.075	669335	keystroke_n	n	n/a
334.8025	0.12	669605	keystroke_t	t	n/a
334.9675	0.105	669935	keystroke_Key.space	Key.space	n/a
335.1925	0.105	670385	keystroke_c	c	n/a
335.4025	0.105	670805	keystroke_a	a	n/a
335.6425	0.075	671285	keystroke_r	r	n/a
335.8075	0.09	671615	keystroke_e	e	n/a
335.8825	0.075	671765	keystroke_f	f	n/a
336.0625	0.09	672125	keystroke_u	u	n/a
336.3325	0.075	672665	keystroke_l	l	n/a
337.0225	0.06	674045	keystroke_Key.enter	Key.enter	n/a
337.087	7.8875	674174	prompt	n/a	molecules heel uruguay slim\n
337.9375	0.06	675875	keystroke_m	m	n/a
338.1025	0.06	676205	keystroke_o	o	n/a
338.2975	0.105	676595	keystroke_l	l	n/a
338.3425	0.075	676685	keystroke_e	e	n/a
338.7025	0.06	677405	keystroke_c	c	n/a
338.8675	0.075	677735	keystroke_u	u	n/a
339.1075	0.105	678215	keystroke_l	l	n/a
339.2275	0.075	678455	keystroke_e	e	n/a
339.4825	0.045	678965	keystroke_s	s	n/a
339.4975	0.12	678995	keystroke_Key.space	Key.space	n/a
339.8875	0.075	679775	keystroke_h	h	n/a
339.9925	0.09	679985	keystroke_e	e	n/a
340.1875	0.075	680375	keystroke_e	e	n/a
340.4725	0.075	680945	keystroke_l	l	n/a
340.667	0.12	681334	keystroke_Key.space	Key.space	n/a
341.178	0.09	682356	keystroke_u	u	n/a
341.282	0.06	682564	keystroke_r	r	n/a
341.357	0.105	682714	keystroke_u	u	n/a
341.703	0.075	683406	keystroke_g	g	n/a
341.837	0.105	683674	keystroke_u	u	n/a
341.928	0.104	683856	keystroke_a	a	n/a
342.213	0.09	684426	keystroke_y	y	n/a
342.347	0.106	684694	keystroke_Key.space	Key.space	n/a
342.678	0.075	685356	keystroke_s	s	n/a
342.873	0.105	685746	keystroke_l	l	n/a
343.157	0.076	686314	keystroke_i	i	n/a
343.368	0.09	686736	keystroke_m	m	n/a
344.912	0.06	689824	keystroke_Key.enter	Key.enter	n/a
344.977	14.6225	689954	prompt	n/a	cream gibraltar node thoughts\n
346.068	0.06	692136	keystroke_c	c	n/a
346.203	0.09	692406	keystroke_r	r	n/a
346.293	0.074	692586	keystroke_e	e	n/a
346.518	0.089	693036	keystroke_a	a	n/a
346.622	0.09	693244	keystroke_m	m	n/a
346.757	0.105	693514	keystroke_Key.space	Key.space	n/a
347.732	0.061	695464	keystroke_g	g	n/a
347.822	0.076	695644	keystroke_i	i	n/a
348.048	0.075	696096	keystroke_b	b	n/a
348.708	0.09	697416	keystroke_r	r	n/a
348.948	0.15	697896	keystroke_a	a	n/a
349.053	0.105	698106	keystroke_l	l	n/a
349.368	0.09	698736	keystroke_t	t	n/a
349.473	0.105	698946	keystroke_a	a	n/a
349.713	0.12	699426	keystroke_r	r	n/a
349.922	0.106	699844	keystroke_Key.space	Key.space	n/a
350.253	0.09	700506	keystroke_n	n	n/a
350.448	0.09	700896	keystroke_o	o	n/a
350.583	0.09	701166	keystroke_d	d	n/a
350.823	0.075	701646	keystroke_e	e	n/a
351.018	0.105	702036	keystroke_r	r	n/a
351.168	0.045	702336	keystroke_Key.space	Key.space	n/a
351.468	0.105	702936	keystroke_Key.backspace	Key.backspace	n/a
351.678	0.09	703356	keystroke_Key.space	Key.space	n/a
351.843	0.075	703686	keystroke_Key.backspace	Key.backspace	n/a
352.008	0.12	704016	keystroke_Key.backspace	Key.backspace	n/a
352.083	0.09	704166	keystroke_Key.space	Key.space	n/a
352.548	0.075	705096	keystroke_t	t	n/a
352.683	0.09	705366	keystroke_h	h	n/a
352.908	0.105	705816	keystroke_o	o	n/a
353.238	0.105	706476	keystroke_u	u	n/a
354.033	0.045	708066	keystroke_g	g	n/a
354.138	0.075	708276	keystroke_h	h	n/a
354.258	0.075	708516	keystroke_t	t	n/a
354.933	0.09	709866	keystroke_s	s	n/a
359.57	0.028	719140	keystroke_Key.enter	Key.enter	n/a
359.6045	14.111	719209	prompt	n/a	studios million sheer browse\n
362.1495	0.043	724299	keystroke_s	s	n/a
362.2075	0.09	724415	keystroke_u	u	n/a
362.4325	0.06	724865	keystroke_t	t	n/a
362.7625	0.12	725525	keystroke_d	d	n/a
362.8975	0.075	725795	keystroke_i	i	n/a
363.1375	0.09	726275	keystroke_o	o	n/a
363.3025	0.15	726605	keystroke_s	s	n/a
363.3925	0.12	726785	keystroke_Key.space	Key.space	n/a
363.6175	0.105	727235	keystroke_m	m	n/a
363.8125	0.075	727625	keystroke_i	i	n/a
364.6825	0.06	729365	keystroke_Key.backspace	Key.backspace	n/a
364.8325	0.075	729665	keystroke_Key.backspace	Key.backspace	n/a
364.9825	0.075	729965	keystroke_Key.backspace	Key.backspace	n/a
365.1475	0.075	730295	keystroke_Key.backspace	Key.backspace	n/a
365.3275	0.06	730655	keystroke_Key.backspace	Key.backspace	n/a
365.5075	0.06	731015	keystroke_Key.backspace	Key.backspace	n/a
365.6575	0.105	731315	keystroke_Key.backspace	Key.backspace	n/a
365.8375	0.12	731675	keystroke_Key.backspace	Key.backspace	n/a
366.1975	0.075	732395	keystroke_Key.backspace	Key.backspace	n/a
366.2875	0.105	732575	keystroke_t	t	n/a
366.4975	0.075	732995	keystroke_u	u	n/a
366.8725	0.105	733745	keystroke_d	d	n/a
366.9625	0.09	733925	keystroke_i	i	n/a
367.1125	0.105	734225	keystroke_o	o	n/a
367.2175	0.105	734435	keystroke_s	s	n/a
367.2925	0.12	734585	keystroke_Key.space	Key.space	n/a
367.5925	0.075	735185	keystroke_m	m	n/a
367.8175	0.075	735635	keystroke_i	i	n/a
368.0425	0.075	736085	keystroke_l	l	n/a
368.2825	0.015	736565	keystroke_l	l	n/a
368.4175	0.09	736835	keystroke_i	i	n/a
368.6125	0.075	737225	keystroke_o	o	n/a
368.7925	0.09	737585	keystroke_n	n	n/a
368.8975	0.12	737795	keystroke_Key.space	Key.space	n/a
369.2275	0.09	738455	keystroke_s	s	n/a
369.3775	0.075	738755	keystroke_h	h	n/a
369.5125	0.075	739025	keystroke_e	e	n/a
369.6775	0.09	739355	keystroke_e	e	n/a
369.9325	0.105	739865	keystroke_r	r	n/a
370.0075	0.12	740015	keystroke_Key.space	Key.space	n/a
370.2775	0.105	740555	keystroke_b	b	n/a
370.9525	0.06	741905	keystroke_r	r	n/a
371.5225	0.06	743045	keystroke_o	o	n/a
371.673	0.06	743346	keystroke_w	w	n/a
371.883	0.06	743766	keystroke_n	n	n/a
372.723	0.06	745446	keystroke_Key.backspace	Key.backspace	n/a
372.798	0.09	745596	keystroke_s	s	n/a
373.023	0.075	746046	keystroke_e	e	n/a
373.623	0.09	747246	keystroke_Key.enter	Key.enter	n/a
373.7185	10.886	747437	prompt	n/a	janet auditor genes flight\n
374.538	0.075	749076	keystroke_j	j	n/a
374.658	0.09	749316	keystroke_a	a	n/a
374.733	0.12	749466	keystroke_n	n	n/a
374.988	0.075	749976	keystroke_t	t	n/a
375.123	0.15	750246	keystroke_e	e	n/a
375.228	0.165	750456	keystroke_Key.space	Key.space	n/a
375.993	0.06	751986	keystroke_Key.backspace	Key.backspace	n/a
376.143	0.075	752286	keystroke_Key.backspace	Key.backspace	n/a
376.278	0.135	752556	keystroke_Key.backspace	Key.backspace	n/a
376.398	0.075	752796	keystroke_e	e	n/a
376.638	0.09	753276	keystroke_t	t	n/a
376.698	0.105	753396	keystroke_Key.space	Key.space	n/a
376.983	0.105	753966	keystroke_a	a	n/a
377.073	0.09	754146	keystroke_u	u	n/a
378.618	0.09	757236	keystroke_d	d	n/a
378.753	0.09	757506	keystroke_i	i	n/a
378.918	0.075	757836	keystroke_t	t	n/a
379.128	0.03	758256	keystroke_o	o	n/a
379.503	0.075	759006	keystroke_Key.backspace	Key.backspace	n/a
379.998	0.09	759996	keystroke_o	o	n/a
380.118	0.15	760236	keystroke_r	r	n/a
380.268	0.105	760536	keystroke_Key.space	Key.space	n/a
381.258	0.075	762516	keystroke_g	g	n/a
381.378	0.075	762756	keystroke_e	e	n/a
381.513	0.09	763026	keystroke_n	n	n/a
381.798	0.06	763596	keystroke_r	r	n/a
381.933	0.075	763866	keystroke_e	e	n/a
382.158	0.12	764316	keystroke_s	s	n/a
382.263	0.105	764526	keystroke_Key.space	Key.space	n/a
382.893	0.06	765786	keystroke_f	f	n/a
382.983	0.09	765966	keystroke_l	l	n/a
383.208	0.075	766416	keystroke_i	i	n/a
383.388	0.045	766776	keystroke_g	g	n/a
383.493	0.075	766986	keystroke_h	h	n/a
383.598	0.06	767196	keystroke_t	t	n/a
384.543	0.06	769086	keystroke_Key.enter	Key.enter	n/a
384.6075	9.7015	769215	prompt	n/a	perhaps appeal backgrounds claimed\n
385.5925	0.06	771185	keystroke_p	p	n/a
385.7125	0.09	771425	keystroke_e	e	n/a
385.9675	0.09	771935	keystroke_r	r	n/a
386.1925	0.03	772385	keystroke_h	h	n/a
386.2825	0.12	772565	keystroke_a	a	n/a
386.9275	0.045	773855	keystroke_p	p	n/a
387.2275	0.135	774455	keystroke_s	s	n/a
387.3775	0.105	774755	keystroke_Key.space	Key.space	n/a
387.6625	0.09	775325	keystroke_a	a	n/a
387.8725	0.06	775745	keystroke_p	p	n/a
388.0375	0.06	776075	keystroke_p	p	n/a
388.1725	0.12	776345	keystroke_e	e	n/a
388.5175	0.09	777035	keystroke_a	a	n/a
388.6375	0.09	777275	keystroke_l	l	n/a
388.7425	0.09	777485	keystroke_Key.space	Key.space	n/a
389.8825	0.09	779765	keystroke_b	b	n/a
390.0025	0.09	780005	keystroke_a	a	n/a
390.2125	0.075	780425	keystroke_c	c	n/a
390.3325	0.045	780665	keystroke_k	k	n/a
390.9775	0.105	781955	keystroke_g	g	n/a
391.1125	0.075	782225	keystroke_r	r	n/a
391.2775	0.075	782555	keystroke_o	o	n/a
391.4875	0.075	782975	keystroke_u	u	n/a
391.7125	0.075	783425	keystroke_n	n	n/a
391.8775	0.06	783755	keystroke_d	d	n/a
392.1175	0.105	784235	keystroke_s	s	n/a
392.2675	0.045	784535	keystroke_Key.space	Key.space	n/a
392.5075	0.06	785015	keystroke_c	c	n/a
392.5975	0.09	785195	keystroke_l	l	n/a
392.7925	0.105	785585	keystroke_a	a	n/a
392.9425	0.09	785885	keystroke_i	i	n/a
393.2275	0.06	786455	keystroke_m	m	n/a
393.3175	0.09	786635	keystroke_e	e	n/a
393.5725	0.03	787145	keystroke_d	d	n/a
394.2325	0.075	788465	keystroke_Key.enter	Key.enter	n/a
394.3125	8.562	788625	prompt	n/a	included contamination fires suggest\n
395.4925	0.045	790985	keystroke_i	i	n/a
395.6275	0.105	791255	keystroke_n	n	n/a
395.7625	0.09	791525	keystroke_c	c	n/a
395.8675	0.09	791735	keystroke_l	l	n/a
396.1075	0.075	792215	keystroke_u	u	n/a
396.2275	0.09	792455	keystroke_d	d	n/a
396.4525	0.075	792905	keystroke_e	e	n/a
396.6625	0.105	793325	keystroke_d	d	n/a
396.7825	0.12	793565	keystroke_Key.space	Key.space	n/a
397.0375	0.106	794075	keystroke_c	c	n/a
397.1125	0.075	794225	keystroke_o	o	n/a
397.2925	0.075	794585	keystroke_n	n	n/a
397.5935	0.074	795187	keystroke_t	t	n/a
397.7275	0.105	795455	keystroke_a	a	n/a
397.9225	0.075	795845	keystroke_m	m	n/a
398.1625	0.075	796325	keystroke_i	i	n/a
398.3725	0.09	796745	keystroke_n	n	n/a
398.4775	0.091	796955	keystroke_a	a	n/a
398.8675	0.045	797735	keystroke_t	t	n/a
398.9425	0.09	797885	keystroke_i	i	n/a
399.1525	0.06	798305	keystroke_o	o	n/a
399.2875	0.105	798575	keystroke_n	n	n/a
399.3775	0.09	798755	keystroke_Key.space	Key.space	n/a
399.9775	0.06	799955	keystroke_f	f	n/a
400.0385	0.105	800077	keystroke_i	i	n/a
400.3225	0.09	800645	keystroke_r	r	n/a
400.4275	0.076	800855	keystroke_e	e	n/a
400.6525	0.12	801305	keystroke_s	s	n/a
400.7425	0.105	801485	keystroke_Key.space	Key.space	n/a
400.9685	0.089	801937	keystroke_s	s	n/a
401.0875	0.09	802175	keystroke_u	u	n/a
401.5075	0.045	803015	keystroke_g	g	n/a
401.6725	0.06	803345	keystroke_g	g	n/a
401.7335	0.074	803467	keystroke_e	e	n/a
401.9435	0.074	803887	keystroke_s	s	n/a
402.0775	0.075	804155	keystroke_t	t	n/a
402.8125	0.06	805625	keystroke_Key.enter	Key.enter	n/a
402.879	12.5355	805758	prompt	n/a	eating no telecharger licensed\n
403.6685	0.059	807337	keystroke_e	e	n/a
403.9685	0.104	807937	keystroke_t	t	n/a
404.3125	0.075	808625	keystroke_Key.backspace	Key.backspace	n/a
404.4025	0.091	808805	keystroke_a	a	n/a
404.6275	0.105	809255	keystroke_t	t	n/a
404.8525	0.091	809705	keystroke_i	i	n/a
405.0475	0.075	810095	keystroke_n	n	n/a
405.3325	0.03	810665	keystroke_g	g	n/a
405.9025	0.075	811805	keystroke_Key.space	Key.space	n/a
406.0825	0.075	812165	keystroke_n	n	n/a
406.2325	0.09	812465	keystroke_o	o	n/a
406.3525	0.105	812705	keystroke_Key.space	Key.space	n/a
406.6685	0.075	813337	keystroke_t	t	n/a
407.072	0.09	814144	keystroke_e	e	n/a
407.237	0.106	814474	keystroke_l	l	n/a
407.357	0.075	814714	keystroke_e	e	n/a
407.762	0.075	815524	keystroke_c	c	n/a
407.988	0.09	815976	keystroke_h	h	n/a
408.063	0.105	816126	keystroke_a	a	n/a
408.302	0.091	816604	keystroke_r	r	n/a
408.543	0.075	817086	keystroke_g	g	n/a
408.632	0.075	817264	keystroke_e	e	n/a
408.813	0.134	817626	keystroke_r	r	n/a
408.918	0.089	817836	keystroke_Key.space	Key.space	n/a
409.293	0.075	818586	keystroke_l	l	n/a
409.518	0.06	819036	keystroke_i	i	n/a
409.653	0.06	819306	keystroke_c	c	n/a
409.863	0.075	819726	keystroke_e	e	n/a
410.013	0.059	820026	keystroke_n	n	n/a
410.118	0.09	820236	keystroke_s	s	n/a
410.328	0.075	820656	keystroke_e	e	n/a
411.993	0.075	823986	keystroke_d	d	n/a
415.353	0.06	830706	keystroke_Key.enter	Key.enter	n/a
415.4175	12.117	830835	prompt	n/a	'tis sword bother catalyst\n
417.063	0.06	834126	keystroke_'	'	n/a
417.693	0.075	835386	keystroke_t	t	n/a
417.813	0.045	835626	keystroke_i	i	n/a
418.008	0.15	836016	keystroke_s	s	n/a
418.143	0.105	836286	keystroke_Key.space	Key.space	n/a
418.428	0.09	836856	keystroke_s	s	n/a
418.818	0.09	837636	keystroke_w	w	n/a
419.433	0.075	838866	keystroke_o	o	n/a
419.568	0.09	839136	keystroke_r	r	n/a
420.183	0.15	840366	keystroke_d	d	n/a
420.318	0.12	840636	keystroke_Key.space	Key.space	n/a
420.618	0.06	841236	keystroke_n	n	n/a
421.023	0.105	842046	keystroke_Key.backspace	Key.backspace	n/a
421.473	0.06	842946	keystroke_b	b	n/a
421.578	0.09	843156	keystroke_o	o	n/a
421.698	0.075	843396	keystroke_t	t	n/a
421.833	0.09	843666	keystroke_h	h	n/a
422.568	0.09	845136	keystroke_e	e	n/a
422.763	0.12	845526	keystroke_r	r	n/a
422.838	0.105	845676	keystroke_Key.space	Key.space	n/a
423.078	0.105	846156	keystroke_c	c	n/a
423.273	0.105	846546	keystroke_a	a	n/a
423.4075	0.105	846815	keystroke_t	t	n/a
423.5875	0.105	847175	keystroke_a	a	n/a
423.8875	0.075	847775	keystroke_l	l	n/a
424.2025	0.075	848405	keystroke_y	y	n/a
424.3075	0.18	848615	keystroke_s	s	n/a
424.5325	0.1505	849065	keystroke_Key.space	Key.space	n/a
425.6875	0.06	851375	keystroke_Key.backspace	Key.backspace	n/a
425.8225	0.135	851645	keystroke_t	t	n/a
425.9425	0.135	851885	keystroke_Key.space	Key.space	n/a
426.4075	0.06	852815	keystroke_=	=	n/a
426.8725	0.075	853745	keystroke_Key.backspace	Key.backspace	n/a
427.0075	0.105	854015	keystroke_Key.backspace	Key.backspace	n/a
427.4425	0.09	854885	keystroke_Key.enter	Key.enter	n/a
427.5375	12.342	855075	prompt	n/a	albert comply prediction relevant\n
428.4025	0.09	856805	keystroke_a	a	n/a
428.4775	0.075	856955	keystroke_l	l	n/a
428.6875	0.075	857375	keystroke_b	b	n/a
428.7475	0.075	857495	keystroke_e	e	n/a
428.9125	0.12	857825	keystroke_r	r	n/a
428.9875	0.12	857975	keystroke_Key.space	Key.space	n/a
429.2875	0.105	858575	keystroke_c	c	n/a
429.4075	0.09	858815	keystroke_o	o	n/a
429.6025	0.09	859205	keystroke_m	m	n/a
429.7675	0.09	859535	keystroke_p	p	n/a
429.9325	0.105	859865	keystroke_l	l	n/a
430.1725	0.075	860345	keystroke_Key.backspace	Key.backspace	n/a
430.3075	0.09	860615	keystroke_Key.backspace	Key.backspace	n/a
430.4575	0.075	860915	keystroke_Key.backspace	Key.backspace	n/a
430.6525	0.06	861305	keystroke_Key.backspace	Key.backspace	n/a
430.7875	0.105	861575	keystroke_Key.backspace	Key.backspace	n/a
431.0425	0.06	862085	keystroke_t	t	n/a
431.1625	0.075	862325	keystroke_Key.backspace	Key.backspace	n/a
431.3275	0.105	862655	keystroke_Key.backspace	Key.backspace	n/a
431.3725	0.105	862745	keystroke_t	t	n/a
431.4475	0.12	862895	keystroke_Key.space	Key.space	n/a
431.7325	0.06	863465	keystroke_v	v	n/a
432.1975	0.09	864395	keystroke_Key.backspace	Key.backspace	n/a
432.5725	0.075	865145	keystroke_c	c	n/a
432.7375	0.06	865475	keystroke_o	o	n/a
432.8875	0.075	865775	keystroke_m	m	n/a
433.0675	0.06	866135	keystroke_p	p	n/a
433.1875	0.12	866375	keystroke_l	l	n/a
433.5025	0.075	867005	keystroke_y	y	n/a
434.1025	0.09	868205	keystroke_Key.space	Key.space	n/a
434.4625	0.075	868925	keystroke_p	p	n/a
434.6575	0.15	869315	keystroke_r	r	n/a
434.7935	0.104	869587	keystroke_e	e	n/a
435.8575	0.075	871715	keystroke_d	d	n/a
435.9775	0.105	871955	keystroke_i	i	n/a
436.0975	0.09	872195	keystroke_c	c	n/a
436.8625	0.076	873725	keystroke_t	t	n/a
436.9225	0.091	873845	keystroke_i	i	n/a
437.0575	0.105	874115	keystroke_o	o	n/a
437.2525	0.105	874505	keystroke_n	n	n/a
437.4925	0.105	874985	keystroke_Key.space	Key.space	n/a
437.9425	0.075	875885	keystroke_r	r	n/a
438.0625	0.075	876125	keystroke_e	e	n/a
438.1825	0.106	876365	keystroke_l	l	n/a
438.3325	0.075	876665	keystroke_e	e	n/a
438.5135	0.089	877027	keystroke_v	v	n/a
438.6635	0.119	877327	keystroke_a	a	n/a
438.9325	0.09	877865	keystroke_n	n	n/a
439.0975	0.075	878195	keystroke_t	t	n/a
439.8175	0.06	879635	keystroke_Key.enter	Key.enter	n/a
439.887	9.2175	879774	prompt	n/a	loaded finally recommends sound\n
440.6885	0.104	881377	keystroke_l	l	n/a
440.8385	0.089	881677	keystroke_o	o	n/a
440.9725	0.12	881945	keystroke_a	a	n/a
441.4385	0.089	882877	keystroke_d	d	n/a
441.5435	0.059	883087	keystroke_e	e	n/a
441.6475	0.091	883295	keystroke_d	d	n/a
441.9325	0.105	883865	keystroke_Key.space	Key.space	n/a
442.4885	0.089	884977	keystroke_f	f	n/a
442.5925	0.09	885185	keystroke_i	i	n/a
442.7425	0.121	885485	keystroke_n	n	n/a
442.8475	0.091	885695	keystroke_a	a	n/a
442.9975	0.075	885995	keystroke_l	l	n/a
443.2075	0.075	886415	keystroke_l	l	n/a
443.4635	0.075	886927	keystroke_y	y	n/a
443.5825	0.105	887165	keystroke_Key.space	Key.space	n/a
443.7925	0.046	887585	keystroke_r	r	n/a
443.9725	0.045	887945	keystroke_e	e	n/a
444.1975	0.075	888395	keystroke_c	c	n/a
444.3025	0.09	888605	keystroke_o	o	n/a
444.4825	0.075	888965	keystroke_m	m	n/a
444.6325	0.09	889265	keystroke_m	m	n/a
444.7675	0.105	889535	keystroke_e	e	n/a
444.9925	0.09	889985	keystroke_d	d	n/a
445.2325	0.075	890465	keystroke_n	n	n/a
445.3975	0.105	890795	keystroke_s	s	n/a
445.563	0.09	891126	keystroke_Key.space	Key.space	n/a
446.103	0.045	892206	keystroke_Key.backspace	Key.backspace	n/a
446.223	0.075	892446	keystroke_Key.backspace	Key.backspace	n/a
446.373	0.09	892746	keystroke_Key.backspace	Key.backspace	n/a
446.688	0.045	893376	keystroke_Key.backspace	Key.backspace	n/a
446.883	0.06	893766	keystroke_n	n	n/a
446.973	0.075	893946	keystroke_d	d	n/a
447.168	0.09	894336	keystroke_s	s	n/a
447.288	0.105	894576	keystroke_Key.space	Key.space	n/a
448.038	0.075	896076	keystroke_s	s	n/a
448.128	0.075	896256	keystroke_o	o	n/a
448.308	0.075	896616	keystroke_u	u	n/a
448.518	0.06	897036	keystroke_n	n	n/a
448.638	0.06	897276	keystroke_d	d	n/a
449.043	0.06	898086	keystroke_Key.enter	Key.enter	n/a
449.108	7.8415	898216	prompt	n/a	perfectly janet byte prot\n
449.898	0.075	899796	keystroke_p	p	n/a
450.153	0.135	900306	keystroke_e	e	n/a
450.303	0.09	900606	keystroke_r	r	n/a
450.513	0.09	901026	keystroke_f	f	n/a
450.633	0.075	901266	keystroke_e	e	n/a
450.843	0.075	901686	keystroke_c	c	n/a
451.008	0.075	902016	keystroke_t	t	n/a
451.248	0.06	902496	keystroke_l	l	n/a
451.503	0.06	903006	keystroke_y	y	n/a
451.668	0.105	903336	keystroke_Key.space	Key.space	n/a
452.298	0.045	904596	keystroke_j	j	n/a
452.823	0.105	905646	keystroke_a	a	n/a
452.943	0.075	905886	keystroke_n	n	n/a
453.123	0.09	906246	keystroke_e	e	n/a
453.348	0.09	906696	keystroke_t	t	n/a
453.498	0.12	906996	keystroke_Key.space	Key.space	n/a
453.813	0.075	907626	keystroke_b	b	n/a
454.743	0.075	909486	keystroke_y	y	n/a
454.938	0.06	909876	keystroke_t	t	n/a
455.043	0.12	910086	keystroke_e	e	n/a
455.118	0.15	910236	keystroke_Key.space	Key.space	n/a
455.703	0.075	911406	keystroke_p	p	n/a
455.958	0.075	911916	keystroke_r	r	n/a
456.048	0.105	912096	keystroke_o	o	n/a
456.168	0.105	912336	keystroke_t	t	n/a
456.888	0.06	913776	keystroke_Key.enter	Key.enter	n/a
456.952	15.0575	913904	prompt	n/a	appointments imported twist boulevard\n
457.835	0.088	915670	keystroke_a	a	n/a
457.983	0.075	915966	keystroke_p	p	n/a
458.1475	0.06	916295	keystroke_p	p	n/a
458.2675	0.09	916535	keystroke_o	o	n/a
458.5225	0.075	917045	keystroke_i	i	n/a
458.7325	0.0905	917465	keystroke_n	n	n/a
459.1825	0.075	918365	keystroke_t	t	n/a
459.3175	0.105	918635	keystroke_m	m	n/a
459.4825	0.09	918965	keystroke_e	e	n/a
459.7075	0.075	919415	keystroke_n	n	n/a
460.9835	0.074	921967	keystroke_t	t	n/a
461.2375	0.09	922475	keystroke_s	s	n/a
461.462	0.121	922924	keystroke_Key.space	Key.space	n/a
462.018	0.075	924036	keystroke_i	i	n/a
462.243	0.059	924486	keystroke_m	m	n/a
462.408	0.119	924816	keystroke_p	p	n/a
462.513	0.09	925026	keystroke_o	o	n/a
462.573	0.06	925146	keystroke_r	r	n/a
462.768	0.09	925536	keystroke_t	t	n/a
463.083	0.06	926166	keystroke_e	e	n/a
463.263	0.12	926526	keystroke_d	d	n/a
463.353	0.135	926706	keystroke_Key.space	Key.space	n/a
464.253	0.09	928506	keystroke_t	t	n/a
464.358	0.09	928716	keystroke_w	w	n/a
464.658	0.075	929316	keystroke_i	i	n/a
464.793	0.075	929586	keystroke_s	s	n/a
464.973	0.075	929946	keystroke_t	t	n/a
465.078	0.135	930156	keystroke_e	e	n/a
465.198	0.135	930396	keystroke_Key.space	Key.space	n/a
465.588	0.075	931176	keystroke_Key.backspace	Key.backspace	n/a
465.783	0.09	931566	keystroke_Key.backspace	Key.backspace	n/a
465.993	0.105	931986	keystroke_Key.space	Key.space	n/a
466.998	0.075	933996	keystroke_b	b	n/a
467.193	0.105	934386	keystroke_o	o	n/a
467.3875	0.075	934775	keystroke_u	u	n/a
467.6125	0.075	935225	keystroke_l	l	n/a
467.9425	0.091	935885	keystroke_e	e	n/a
468.0775	0.06	936155	keystroke_v	v	n/a
468.2875	0.075	936575	keystroke_r	r	n/a
468.9625	0.09	937925	keystroke_Key.backspace	Key.backspace	n/a
469.1725	0.06	938345	keystroke_Key.backspace	Key.backspace	n/a
470.9425	0.075	941885	keystroke_v	v	n/a
471.0625	0.09	942125	keystroke_a	a	n/a
471.1975	0.045	942395	keystroke_r	r	n/a
471.3025	0.075	942605	keystroke_d	d	n/a
471.9475	0.06	943895	keystroke_Key.enter	Key.enter	n/a
472.0125	12.6265	944025	prompt	n/a	detector differential elsewhere outlook\n
472.9525	0.075	945905	keystroke_d	d	n/a
473.0425	0.091	946085	keystroke_e	e	n/a
473.568	0.075	947136	keystroke_t	t	n/a
473.808	0.075	947616	keystroke_e	e	n/a
473.913	0.075	947826	keystroke_c	c	n/a
474.663	0.105	949326	keystroke_t	t	n/a
474.783	0.015	949566	keystroke_o	o	n/a
474.843	0.075	949686	keystroke_r	r	n/a
474.903	0.12	949806	keystroke_Key.space	Key.space	n/a
475.818	0.045	951636	keystroke_f	f	n/a
476.088	0.09	952176	keystroke_Key.backspace	Key.backspace	n/a
476.193	0.09	952386	keystroke_d	d	n/a
476.328	0.09	952656	keystroke_i	i	n/a
476.628	0.06	953256	keystroke_f	f	n/a
476.763	0.09	953526	keystroke_f	f	n/a
477.348	0.12	954696	keystroke_e	e	n/a
477.528	0.105	955056	keystroke_r	r	n/a
477.708	0.09	955416	keystroke_e	e	n/a
477.963	0.105	955926	keystroke_n	n	n/a
478.143	0.075	956286	keystroke_t	t	n/a
478.263	0.06	956526	keystroke_i	i	n/a
478.818	0.09	957636	keystroke_a	a	n/a
479.028	0.075	958056	keystroke_l	l	n/a
479.133	0.09	958266	keystroke_Key.space	Key.space	n/a
479.538	0.075	959076	keystroke_l	l	n/a
479.868	0.09	959736	keystroke_Key.backspace	Key.backspace	n/a
479.973	0.075	959946	keystroke_e	e	n/a
480.093	0.09	960186	keystroke_l	l	n/a
480.303	0.075	960606	keystroke_s	s	n/a
480.513	0.075	961026	keystroke_e	e	n/a
481.083	0.09	962166	keystroke_w	w	n/a
481.248	0.105	962496	keystroke_h	h	n/a
481.353	0.09	962706	keystroke_e	e	n/a
481.533	0.06	963066	keystroke_r	r	n/a
481.713	0.12	963426	keystroke_e	e	n/a
481.818	0.12	963636	keystroke_Key.space	Key.space	n/a
482.403	0.105	964806	keystroke_o	o	n/a
482.673	0.105	965346	keystroke_u	u	n/a
482.823	0.075	965646	keystroke_t	t	n/a
483.018	0.09	966036	keystroke_l	l	n/a
483.468	0.075	966936	keystroke_o	o	n/a
483.603	0.075	967206	keystroke_o	o	n/a
483.753	0.105	967506	keystroke_k	k	n/a
484.578	0.06	969156	keystroke_Key.enter	Key.enter	n/a
484.644	13.2735	969288	prompt	n/a	excessive speed infrastructure duncan\n
485.508	0.06	971016	keystroke_e	e	n/a
485.763	0.075	971526	keystroke_x	x	n/a
487.6375	0.075	975275	keystroke_c	c	n/a
487.7425	0.075	975485	keystroke_e	e	n/a
488.0125	0.06	976025	keystroke_s	s	n/a
488.1625	0.09	976325	keystroke_s	s	n/a
488.2825	0.105	976565	keystroke_i	i	n/a
488.5825	0.045	977165	keystroke_v	v	n/a
488.6725	0.165	977345	keystroke_e	e	n/a
488.8525	0.15	977705	keystroke_Key.space	Key.space	n/a
489.5125	0.09	979025	keystroke_s	s	n/a
489.6175	0.075	979235	keystroke_p	p	n/a
489.7975	0.06	979595	keystroke_e	e	n/a
489.9625	0.075	979925	keystroke_e	e	n/a
490.1725	0.105	980345	keystroke_d	d	n/a
490.2925	0.09	980585	keystroke_Key.space	Key.space	n/a
490.8925	0.075	981785	keystroke_i	i	n/a
491.0425	0.105	982085	keystroke_n	n	n/a
491.4325	0.075	982865	keystroke_f	f	n/a
491.6125	0.105	983225	keystroke_r	r	n/a
491.7475	0.105	983495	keystroke_a	a	n/a
492.7825	0.06	985565	keystroke_s	s	n/a
493.0525	0.075	986105	keystroke_t	t	n/a
493.2625	0.015	986525	keystroke_r	r	n/a
493.3075	0.09	986615	keystroke_u	u	n/a
493.7585	0.104	987517	keystroke_c	c	n/a
494.0875	0.075	988175	keystroke_t	t	n/a
494.2075	0.075	988415	keystroke_u	u	n/a
494.3575	0.076	988715	keystroke_r	r	n/a
494.5525	0.06	989105	keystroke_e	e	n/a
495.9925	0.075	991985	keystroke_Key.space	Key.space	n/a
496.2175	0.061	992435	keystroke_d	d	n/a
496.3075	0.09	992615	keystroke_u	u	n/a
496.5175	0.09	993035	keystroke_n	n	n/a
496.7875	0.075	993575	keystroke_c	c	n/a
496.8925	0.075	993785	keystroke_a	a	n/a
497.0725	0.045	994145	keystroke_n	n	n/a
497.8525	0.06	995705	keystroke_Key.enter	Key.enter	n/a
497.923	11.2715	995846	prompt	n/a	simpsons albert path returning\n
498.9485	0.074	997897	keystroke_s	s	n/a
499.0535	0.074	998107	keystroke_i	i	n/a
499.2625	0.075	998525	keystroke_m	m	n/a
500.0425	0.075	1000085	keystroke_p	p	n/a
500.1625	0.075	1000325	keystroke_s	s	n/a
500.2825	0.105	1000565	keystroke_o	o	n/a
500.4925	0.075	1000985	keystroke_n	n	n/a
500.5835	0.119	1001167	keystroke_s	s	n/a
500.7325	0.12	1001465	keystroke_Key.space	Key.space	n/a
502.0675	0.106	1004135	keystroke_a	a	n/a
502.1875	0.06	1004375	keystroke_l	l	n/a
503.5675	0.061	1007135	keystroke_b	b	n/a
503.7175	0.061	1007435	keystroke_e	e	n/a
503.8975	0.075	1007795	keystroke_r	r	n/a
504.0925	0.075	1008185	keystroke_t	t	n/a
504.1975	0.12	1008395	keystroke_Key.space	Key.space	n/a
504.7675	0.061	1009535	keystroke_p	p	n/a
504.8725	0.075	1009745	keystroke_a	a	n/a
505.1875	0.0755	1010375	keystroke_r	r	n/a
505.518	0.075	1011036	keystroke_h	h	n/a
505.833	0.045	1011666	keystroke_Key.backspace	Key.backspace	n/a
505.953	0.09	1011906	keystroke_Key.backspace	Key.backspace	n/a
506.013	0.075	1012026	keystroke_t	t	n/a
506.208	0.09	1012416	keystroke_h	h	n/a
506.328	0.09	1012656	keystroke_Key.space	Key.space	n/a
507.273	0.105	1014546	keystroke_r	r	n/a
507.423	0.09	1014846	keystroke_e	e	n/a
507.603	0.075	1015206	keystroke_t	t	n/a
507.738	0.075	1015476	keystroke_u	u	n/a
508.008	0.06	1016016	keystroke_r	r	n/a
508.128	0.09	1016256	keystroke_n	n	n/a
508.323	0.06	1016646	keystroke_i	i	n/a
508.518	0.09	1017036	keystroke_n	n	n/a
508.653	0.09	1017306	keystroke_g	g	n/a
509.148	0.045	1018296	keystroke_Key.enter	Key.enter	n/a
509.198	11.8775	1018396	prompt	n/a	lawrence served countries boys\n
510.153	0.09	1020306	keystroke_l	l	n/a
510.363	0.105	1020726	keystroke_a	a	n/a
510.603	0.075	1021206	keystroke_w	w	n/a
510.993	0.045	1021986	keystroke_r	r	n/a
511.1425	0.105	1022285	keystroke_e	e	n/a
511.3825	0.075	1022765	keystroke_n	n	n/a
511.6525	0.075	1023305	keystroke_c	c	n/a
511.7575	0.15	1023515	keystroke_e	e	n/a
511.8925	0.12	1023785	keystroke_Key.space	Key.space	n/a
513.3625	0.075	1026725	keystroke_s	s	n/a
513.5575	0.075	1027115	keystroke_e	e	n/a
513.7075	0.09	1027415	keystroke_r	r	n/a
514.2625	0.135	1028525	keystroke_v	v	n/a
514.3825	0.03	1028765	keystroke_e	e	n/a
514.5175	0.135	1029035	keystroke_d	d	n/a
514.6225	0.12	1029245	keystroke_Key.space	Key.space	n/a
514.9525	0.075	1029905	keystroke_c	c	n/a
515.1025	0.075	1030205	keystroke_o	o	n/a
515.2975	0.09	1030595	keystroke_n	n	n/a
515.7475	0.075	1031495	keystroke_Key.backspace	Key.backspace	n/a
515.9575	0.09	1031915	keystroke_u	u	n/a
516.1525	0.09	1032305	keystroke_n	n	n/a
516.2125	0.075	1032425	keystroke_t	t	n/a
516.3325	0.09	1032665	keystroke_i	i	n/a
516.468	0.09	1032936	keystroke_e	e	n/a
516.798	0.09	1033596	keystroke_Key.backspace	Key.backspace	n/a
516.873	0.075	1033746	keystroke_r	r	n/a
517.068	0.045	1034136	keystroke_=	=	n/a
517.233	0.09	1034466	keystroke_Key.backspace	Key.backspace	n/a
517.398	0.06	1034796	keystroke_Key.backspace	Key.backspace	n/a
517.548	0.09	1035096	keystroke_Key.backspace	Key.backspace	n/a
517.653	0.075	1035306	keystroke_r	r	n/a
517.788	0.09	1035576	keystroke_e	e	n/a
518.133	0.06	1036266	keystroke_u	u	n/a
518.343	0.075	1036686	keystroke_Key.backspace	Key.backspace	n/a
518.493	0.09	1036986	keystroke_Key.backspace	Key.backspace	n/a
518.628	0.105	1037256	keystroke_i	i	n/a
518.718	0.06	1037436	keystroke_e	e	n/a
518.913	0.09	1037826	keystroke_s	s	n/a
519.108	0.0895	1038216	keystroke_Key.space	Key.space	n/a
519.6625	0.06	1039325	keystroke_b	b	n/a
519.8275	0.09	1039655	keystroke_o	o	n/a
520.0375	0.075	1040075	keystroke_y	y	n/a
520.1575	0.105	1040315	keystroke_s	s	n/a
521.0125	0.06	1042025	keystroke_Key.enter	Key.enter	n/a
521.081	9.3835	1042162	prompt	n/a	belize east nvidia goods\n
522.3625	0.075	1044725	keystroke_b	b	n/a
522.4525	0.076	1044905	keystroke_e	e	n/a
522.6025	0.09	1045205	keystroke_l	l	n/a
522.8125	0.06	1045625	keystroke_i	i	n/a
523.0225	0.09	1046045	keystroke_z	z	n/a
523.308	0.12	1046616	keystroke_e	e	n/a
523.383	0.12	1046766	keystroke_Key.space	Key.space	n/a
523.863	0.045	1047726	keystroke_e	e	n/a
524.538	0.105	1049076	keystroke_a	a	n/a
524.658	0.12	1049316	keystroke_s	s	n/a
524.823	0.075	1049646	keystroke_t	t	n/a
524.988	0.075	1049976	keystroke_Key.space	Key.space	n/a
525.168	0.075	1050336	keystroke_i	i	n/a
525.648	0.045	1051296	keystroke_Key.backspace	Key.backspace	n/a
526.158	0.12	1052316	keystroke_n	n	n/a
526.293	0.06	1052586	keystroke_d	d	n/a
526.713	0.09	1053426	keystroke_Key.backspace	Key.backspace	n/a
526.998	0.075	1053996	keystroke_v	v	n/a
527.133	0.09	1054266	keystroke_i	i	n/a
527.253	0.105	1054506	keystroke_d	d	n/a
527.358	0.105	1054716	keystroke_i	i	n/a
527.493	0.15	1054986	keystroke_a	a	n/a
527.613	0.135	1055226	keystroke_Key.space	Key.space	n/a
528.918	0.06	1057836	keystroke_g	g	n/a
529.038	0.06	1058076	keystroke_o	o	n/a
529.203	0.075	1058406	keystroke_o	o	n/a
529.3525	0.09	1058705	keystroke_d	d	n/a
529.7125	0.075	1059425	keystroke_s	s	n/a
530.4175	0.045	1060835	keystroke_Key.enter	Key.enter	n/a
530.4675	10.302	1060935	prompt	n/a	segments authority function craps\n
531.467	0.045	1062934	keystroke_s	s	n/a
531.632	0.06	1063264	keystroke_e	e	n/a
531.707	0.075	1063414	keystroke_g	g	n/a
531.917	0.09	1063834	keystroke_m	m	n/a
531.978	0.089	1063956	keystroke_e	e	n/a
532.128	0.075	1064256	keystroke_n	n	n/a
532.248	0.089	1064496	keystroke_t	t	n/a
532.923	0.12	1065846	keystroke_s	s	n/a
533.028	0.089	1066056	keystroke_Key.space	Key.space	n/a
533.178	0.134	1066356	keystroke_a	a	n/a
533.328	0.09	1066656	keystroke_u	u	n/a
533.523	0.059	1067046	keystroke_t	t	n/a
533.748	0.089	1067496	keystroke_h	h	n/a
533.973	0.104	1067946	keystroke_o	o	n/a
535.188	0.09	1070376	keystroke_r	r	n/a
535.293	0.075	1070586	keystroke_i	i	n/a
535.428	0.09	1070856	keystroke_t	t	n/a
535.773	0.105	1071546	keystroke_y	y	n/a
536.057	0.091	1072114	keystroke_Key.space	Key.space	n/a
537.108	0.075	1074216	keystroke_f	f	n/a
537.228	0.075	1074456	keystroke_u	u	n/a
537.873	0.09	1075746	keystroke_n	n	n/a
537.948	0.09	1075896	keystroke_c	c	n/a
538.278	0.075	1076556	keystroke_t	t	n/a
538.398	0.09	1076796	keystroke_i	i	n/a
538.577	0.091	1077154	keystroke_o	o	n/a
538.758	0.09	1077516	keystroke_n	n	n/a
538.893	0.09	1077786	keystroke_Key.space	Key.space	n/a
539.268	0.09	1078536	keystroke_c	c	n/a
539.478	0.105	1078956	keystroke_r	r	n/a
539.613	0.105	1079226	keystroke_a	a	n/a
539.928	0.06	1079856	keystroke_p	p	n/a
540.033	0.09	1080066	keystroke_s	s	n/a
540.708	0.06	1081416	keystroke_Key.enter	Key.enter	n/a
540.7725	7.5725	1081545	prompt	n/a	conclusion shopper excited toys\n
541.683	0.045	1083366	keystroke_c	c	n/a
541.773	0.03	1083546	keystroke_o	o	n/a
541.908	0.075	1083816	keystroke_n	n	n/a
542.043	0.075	1084086	keystroke_c	c	n/a
542.133	0.09	1084266	keystroke_l	l	n/a
542.388	0.06	1084776	keystroke_u	u	n/a
542.478	0.09	1084956	keystroke_s	s	n/a
542.658	0.06	1085316	keystroke_i	i	n/a
542.838	0.075	1085676	keystroke_o	o	n/a
543.078	0.075	1086156	keystroke_n	n	n/a
543.198	0.105	1086396	keystroke_Key.space	Key.space	n/a
543.738	0.09	1087476	keystroke_s	s	n/a
543.888	0.075	1087776	keystroke_h	h	n/a
544.098	0.06	1088196	keystroke_o	o	n/a
544.338	0.03	1088676	keystroke_p	p	n/a
544.473	0.06	1088946	keystroke_p	p	n/a
544.548	0.06	1089096	keystroke_e	e	n/a
544.713	0.15	1089426	keystroke_r	r	n/a
544.848	0.09	1089696	keystroke_Key.space	Key.space	n/a
545.2075	0.075	1090415	keystroke_e	e	n/a
545.8375	0.06	1091675	keystroke_x	x	n/a
546.0325	0.075	1092065	keystroke_c	c	n/a
546.1675	0.075	1092335	keystroke_i	i	n/a
546.4825	0.075	1092965	keystroke_t	t	n/a
546.5725	0.076	1093145	keystroke_e	e	n/a
546.7825	0.135	1093565	keystroke_d	d	n/a
546.9325	0.075	1093865	keystroke_Key.space	Key.space	n/a
547.1275	0.075	1094255	keystroke_t	t	n/a
547.2325	0.075	1094465	keystroke_o	o	n/a
547.5625	0.075	1095125	keystroke_y	y	n/a
547.6985	0.104	1095397	keystroke_s	s	n/a
548.2825	0.06	1096565	keystroke_Key.enter	Key.enter	n/a
548.3475	13.8565	1096695	prompt	n/a	samoa copyrighted kills nomination\n
549.1225	0.09	1098245	keystroke_s	s	n/a
549.3025	0.105	1098605	keystroke_a	a	n/a
549.4225	0.075	1098845	keystroke_m	m	n/a
549.5875	0.09	1099175	keystroke_o	o	n/a
549.7675	0.135	1099535	keystroke_a	a	n/a
549.9175	0.12	1099835	keystroke_Key.space	Key.space	n/a
550.9825	0.09	1101965	keystroke_c	c	n/a
551.1025	0.105	1102205	keystroke_o	o	n/a
551.3575	0.091	1102715	keystroke_p	p	n/a
552.4235	0.059	1104847	keystroke_y	y	n/a
553.1275	0.06	1106255	keystroke_r	r	n/a
553.2325	0.06	1106465	keystroke_i	i	n/a
555.0485	0.059	1110097	keystroke_g	g	n/a
555.1675	0.09	1110335	keystroke_h	h	n/a
555.4075	0.075	1110815	keystroke_t	t	n/a
555.4985	0.075	1110997	keystroke_e	e	n/a
555.6775	0.196	1111355	keystroke_d	d	n/a
555.7675	0.12	1111535	keystroke_Key.space	Key.space	n/a
556.3375	0.061	1112675	keystroke_k	k	n/a
556.6075	0.075	1113215	keystroke_i	i	n/a
556.9075	0.061	1113815	keystroke_l	l	n/a
557.2075	0.061	1114415	keystroke_l	l	n/a
557.3575	0.09	1114715	keystroke_l	l	n/a
557.4485	0.134	1114897	keystroke_s	s	n/a
557.5675	0.12	1115135	keystroke_Key.space	Key.space	n/a
557.8375	0.06	1115675	keystroke_n	n	n/a
558.0025	0.075	1116005	keystroke_o	o	n/a
558.1975	0.09	1116395	keystroke_m	m	n/a
558.4075	0.09	1116815	keystroke_r	r	n/a
558.9175	0.09	1117835	keystroke_Key.backspace	Key.backspace	n/a
559.1575	0.075	1118315	keystroke_i	i	n/a
559.4435	0.089	1118887	keystroke_n	n	n/a
559.577	0.091	1119154	keystroke_a	a	n/a
559.848	0.089	1119696	keystroke_t	t	n/a
559.907	0.075	1119814	keystroke_i	i	n/a
560.072	0.076	1120144	keystroke_o	o	n/a
560.268	0.059	1120536	keystroke_n	n	n/a
560.343	0.089	1120686	keystroke_s	s	n/a
560.717	0.076	1121434	keystroke_Key.backspace	Key.backspace	n/a
562.127	0.075	1124254	keystroke_Key.enter	Key.enter	n/a
562.2075	16.092	1124415	prompt	n/a	supreme educated cambridge hosted\n
563.223	0.104	1126446	keystroke_s	s	n/a
563.328	0.09	1126656	keystroke_u	u	n/a
563.568	0.075	1127136	keystroke_p	p	n/a
563.643	0.105	1127286	keystroke_r	r	n/a
563.823	0.105	1127646	keystroke_e	e	n/a
564.093	0.06	1128186	keystroke_m	m	n/a
564.168	0.09	1128336	keystroke_e	e	n/a
564.318	0.105	1128636	keystroke_Key.space	Key.space	n/a
564.557	0.091	1129114	keystroke_e	e	n/a
564.783	0.105	1129566	keystroke_d	d	n/a
564.903	0.075	1129806	keystroke_u	u	n/a
565.233	0.075	1130466	keystroke_c	c	n/a
565.323	0.09	1130646	keystroke_a	a	n/a
565.533	0.09	1131066	keystroke_t	t	n/a
565.668	0.09	1131336	keystroke_e	e	n/a
565.923	0.135	1131846	keystroke_d	d	n/a
566.028	0.12	1132056	keystroke_Key.space	Key.space	n/a
566.508	0.12	1133016	keystroke_c	c	n/a
566.703	0.045	1133406	keystroke_m	m	n/a
566.793	0.135	1133586	keystroke_a	a	n/a
567.603	0.06	1135206	keystroke_Key.backspace	Key.backspace	n/a
567.768	0.03	1135536	keystroke_Key.backspace	Key.backspace	n/a
567.843	0.105	1135686	keystroke_a	a	n/a
567.963	0.09	1135926	keystroke_m	m	n/a
568.593	0.105	1137186	keystroke_b	b	n/a
568.788	0.06	1137576	keystroke_r	r	n/a
568.908	0.09	1137816	keystroke_i	i	n/a
569.163	0.075	1138326	keystroke_g	g	n/a
569.493	0.09	1138986	keystroke_Key.backspace	Key.backspace	n/a
569.568	0.075	1139136	keystroke_d	d	n/a
569.748	0.075	1139496	keystroke_g	g	n/a
569.853	0.165	1139706	keystroke_e	e	n/a
569.988	0.135	1139976	keystroke_Key.space	Key.space	n/a
570.468	0.09	1140936	keystroke_h	h	n/a
571.008	0.06	1142016	keystroke_Key.backspace	Key.backspace	n/a
576.575	0.001	1153150	keystroke_h	h	n/a
576.663	0.09	1153326	keystroke_o	o	n/a
576.768	0.09	1153536	keystroke_s	s	n/a
577.338	0.075	1154676	keystroke_t	t	n/a
577.398	0.075	1154796	keystroke_e	e	n/a
577.578	0.09	1155156	keystroke_d	d	n/a
578.253	0.045	1156506	keystroke_Key.enter	Key.enter	n/a
578.3025	10.092	1156605	prompt	n/a	montana combines historical spokesman\n
579.318	0.15	1158636	keystroke_m	m	n/a
579.483	0.03	1158966	keystroke_o	o	n/a
579.603	0.06	1159206	keystroke_n	n	n/a
579.813	0.075	1159626	keystroke_t	t	n/a
579.963	0.09	1159926	keystroke_a	a	n/a
580.068	0.09	1160136	keystroke_n	n	n/a
580.173	0.1055	1160346	keystroke_a	a	n/a
580.2325	0.106	1160465	keystroke_Key.space	Key.space	n/a
580.4435	0.12	1160887	keystroke_c	c	n/a
580.5335	0.09	1161067	keystroke_o	o	n/a
580.6985	0.075	1161397	keystroke_m	m	n/a
580.9385	0.075	1161877	keystroke_b	b	n/a
581.1335	0.09	1162267	keystroke_i	i	n/a
581.2535	0.075	1162507	keystroke_e	e	n/a
581.3735	0.0745	1162747	keystroke_n	n	n/a
581.762	0.031	1163524	keystroke_Key.backspace	Key.backspace	n/a
581.883	0.06	1163766	keystroke_Key.backspace	Key.backspace	n/a
582.123	0.06	1164246	keystroke_n	n	n/a
582.198	0.105	1164396	keystroke_e	e	n/a
582.453	0.105	1164906	keystroke_s	s	n/a
582.513	0.12	1165026	keystroke_Key.space	Key.space	n/a
582.993	0.06	1165986	keystroke_h	h	n/a
583.113	0.105	1166226	keystroke_i	i	n/a
583.173	0.09	1166346	keystroke_s	s	n/a
583.413	0.075	1166826	keystroke_t	t	n/a
583.533	0.09	1167066	keystroke_o	o	n/a
583.638	0.075	1167276	keystroke_r	r	n/a
583.743	0.09	1167486	keystroke_i	i	n/a
583.848	0.075	1167696	keystroke_c	c	n/a
584.043	0.105	1168086	keystroke_a	a	n/a
584.238	0.075	1168476	keystroke_l	l	n/a
584.433	0.09	1168866	keystroke_Key.space	Key.space	n/a
584.868	0.09	1169736	keystroke_s	s	n/a
585.048	0.06	1170096	keystroke_p	p	n/a
585.243	0.075	1170486	keystroke_o	o	n/a
585.528	0.09	1171056	keystroke_k	k	n/a
585.633	0.075	1171266	keystroke_e	e	n/a
586.398	0.06	1172796	keystroke_s	s	n/a
586.518	0.075	1173036	keystroke_m	m	n/a
586.623	0.09	1173246	keystroke_a	a	n/a
586.728	0.09	1173456	keystroke_n	n	n/a
588.348	0.045	1176696	keystroke_Key.enter	Key.enter	n/a
588.3975	7.1515	1176795	prompt	n/a	laid tool removal utilization\n
589.383	0.015	1178766	keystroke_l	l	n/a
589.458	0.12	1178916	keystroke_a	a	n/a
589.563	0.06	1179126	keystroke_i	i	n/a
589.698	0.15	1179396	keystroke_d	d	n/a
589.893	0.12	1179786	keystroke_Key.space	Key.space	n/a
590.103	0.075	1180206	keystroke_t	t	n/a
590.223	0.075	1180446	keystroke_o	o	n/a
590.373	0.075	1180746	keystroke_o	o	n/a
590.598	0.075	1181196	keystroke_l	l	n/a
590.688	0.105	1181376	keystroke_Key.space	Key.space	n/a
590.913	0.045	1181826	keystroke_a	a	n/a
591.258	0.06	1182516	keystroke_Key.backspace	Key.backspace	n/a
591.288	0.09	1182576	keystroke_r	r	n/a
591.483	0.09	1182966	keystroke_e	e	n/a
591.603	0.09	1183206	keystroke_m	m	n/a
591.753	0.075	1183506	keystroke_o	o	n/a
592.053	0.075	1184106	keystroke_v	v	n/a
592.203	0.09	1184406	keystroke_a	a	n/a
592.368	0.06	1184736	keystroke_l	l	n/a
592.503	0.105	1185006	keystroke_Key.space	Key.space	n/a
592.923	0.075	1185846	keystroke_u	u	n/a
593.1325	0.045	1186265	keystroke_t	t	n/a
593.2675	0.06	1186535	keystroke_i	i	n/a
593.4925	0.09	1186985	keystroke_l	l	n/a
593.7025	0.06	1187405	keystroke_i	i	n/a
593.8075	0.12	1187615	keystroke_z	z	n/a
593.9885	0.104	1187977	keystroke_a	a	n/a
594.2725	0.075	1188545	keystroke_t	t	n/a
594.3325	0.09	1188665	keystroke_i	i	n/a
594.5125	0.09	1189025	keystroke_o	o	n/a
594.6925	0.075	1189385	keystroke_n	n	n/a
595.4875	0.06	1190975	keystroke_Key.enter	Key.enter	n/a
595.552	11.9225	1191104	prompt	n/a	describes delivers deaths remedies\n
596.4935	0.089	1192987	keystroke_d	d	n/a
596.6725	0.105	1193345	keystroke_e	e	n/a
596.9425	0.09	1193885	keystroke_s	s	n/a
597.0775	0.061	1194155	keystroke_c	c	n/a
597.5575	0.06	1195115	keystroke_r	r	n/a
597.6475	0.075	1195295	keystroke_i	i	n/a
597.8575	0.031	1195715	keystroke_v	v	n/a
597.9475	0.091	1195895	keystroke_e	e	n/a
598.2325	0.06	1196465	keystroke_Key.backspace	Key.backspace	n/a
598.3525	0.09	1196705	keystroke_Key.backspace	Key.backspace	n/a
598.5925	0.09	1197185	keystroke_b	b	n/a
598.6525	0.106	1197305	keystroke_e	e	n/a
598.8635	0.179	1197727	keystroke_s	s	n/a
599.0125	0.09	1198025	keystroke_Key.space	Key.space	n/a
599.3575	0.076	1198715	keystroke_d	d	n/a
599.5225	0.091	1199045	keystroke_e	e	n/a
599.6275	0.075	1199255	keystroke_l	l	n/a
599.8085	0.075	1199617	keystroke_i	i	n/a
600.0335	0.075	1200067	keystroke_v	v	n/a
600.1825	0.075	1200365	keystroke_e	e	n/a
600.4385	0.014	1200877	keystroke_r	r	n/a
600.6325	0.151	1201265	keystroke_s	s	n/a
601.622	0.091	1203244	keystroke_Key.space	Key.space	n/a
601.788	0.089	1203576	keystroke_d	d	n/a
601.982	0.091	1203964	keystroke_e	e	n/a
602.253	0.12	1204506	keystroke_a	a	n/a
602.823	0.045	1205646	keystroke_t	t	n/a
602.928	0.075	1205856	keystroke_h	h	n/a
603.633	0.15	1207266	keystroke_s	s	n/a
603.767	0.105	1207534	keystroke_Key.space	Key.space	n/a
604.053	0.06	1208106	keystroke_r	r	n/a
604.218	0.075	1208436	keystroke_e	e	n/a
604.353	0.105	1208706	keystroke_m	m	n/a
604.563	0.045	1209126	keystroke_e	e	n/a
605.238	0.075	1210476	keystroke_d	d	n/a
605.328	0.075	1210656	keystroke_i	i	n/a
605.673	0.09	1211346	keystroke_e	e	n/a
605.913	0.045	1211826	keystroke_s	s	n/a
607.428	0.045	1214856	keystroke_Key.enter	Key.enter	n/a
607.4775	11.412	1214955	prompt	n/a	frame thumbs their graphics\n
608.448	0.06	1216896	keystroke_f	f	n/a
608.568	0.09	1217136	keystroke_a	a	n/a
608.628	0.09	1217256	keystroke_r	r	n/a
609.018	0.06	1218036	keystroke_Key.backspace	Key.backspace	n/a
609.138	0.105	1218276	keystroke_Key.backspace	Key.backspace	n/a
609.198	0.09	1218396	keystroke_r	r	n/a
609.408	0.105	1218816	keystroke_a	a	n/a
609.483	0.105	1218966	keystroke_m	m	n/a
610.008	0.135	1220016	keystroke_e	e	n/a
610.098	0.135	1220196	keystroke_Key.space	Key.space	n/a
610.548	0.075	1221096	keystroke_t	t	n/a
610.638	0.09	1221276	keystroke_h	h	n/a
610.788	0.09	1221576	keystroke_i	i	n/a
611.1625	0.06	1222325	keystroke_Key.backspace	Key.backspace	n/a
611.3575	0.075	1222715	keystroke_u	u	n/a
611.5675	0.09	1223135	keystroke_m	m	n/a
611.6725	0.135	1223345	keystroke_s	s	n/a
612.1225	0.075	1224245	keystroke_Key.backspace	Key.backspace	n/a
612.3625	0.09	1224725	keystroke_b	b	n/a
612.4375	0.12	1224875	keystroke_s	s	n/a
612.5125	0.135	1225025	keystroke_Key.space	Key.space	n/a
613.4575	0.075	1226915	keystroke_t	t	n/a
613.6225	0.105	1227245	keystroke_h	h	n/a
613.8325	0.075	1227665	keystroke_e	e	n/a
613.9525	0.09	1227905	keystroke_i	i	n/a
614.3725	0.06	1228745	keystroke_r	r	n/a
614.6425	0.09	1229285	keystroke_Key.space	Key.space	n/a
615.4525	0.075	1230905	keystroke_g	g	n/a
615.6475	0.105	1231295	keystroke_r	r	n/a
615.7825	0.135	1231565	keystroke_a	a	n/a
616.5475	0.075	1233095	keystroke_p	p	n/a
616.7725	0.091	1233545	keystroke_h	h	n/a
616.9385	0.089	1233877	keystroke_i	i	n/a
617.7925	0.105	1235585	keystroke_c	c	n/a
617.9885	0.119	1235977	keystroke_s	s	n/a
618.8125	0.075	1237625	keystroke_Key.enter	Key.enter	n/a
618.893	13.467	1237786	prompt	n/a	stewart interaction situation fridge\n
619.8485	0.089	1239697	keystroke_s	s	n/a
620.0125	0.12	1240025	keystroke_t	t	n/a
620.1775	0.106	1240355	keystroke_e	e	n/a
621.0325	0.06	1242065	keystroke_w	w	n/a
621.1985	0.149	1242397	keystroke_a	a	n/a
621.468	0.105	1242936	keystroke_r	r	n/a
621.678	0.105	1243356	keystroke_t	t	n/a
622.293	0.105	1244586	keystroke_Key.space	Key.space	n/a
622.668	0.075	1245336	keystroke_i	i	n/a
622.863	0.09	1245726	keystroke_n	n	n/a
623.238	0.075	1246476	keystroke_t	t	n/a
624.468	0.075	1248936	keystroke_e	e	n/a
624.633	0.12	1249266	keystroke_r	r	n/a
624.903	0.135	1249806	keystroke_a	a	n/a
625.188	0.09	1250376	keystroke_c	c	n/a
625.503	0.09	1251006	keystroke_t	t	n/a
625.608	0.075	1251216	keystroke_i	i	n/a
625.758	0.09	1251516	keystroke_o	o	n/a
625.908	0.105	1251816	keystroke_n	n	n/a
626.058	0.1495	1252116	keystroke_Key.space	Key.space	n/a
626.4625	0.09	1252925	keystroke_s	s	n/a
626.6575	0.09	1253315	keystroke_i	i	n/a
626.8675	0.105	1253735	keystroke_t	t	n/a
627.8425	0.09	1255685	keystroke_u	u	n/a
627.9475	0.09	1255895	keystroke_a	a	n/a
628.2625	0.075	1256525	keystroke_t	t	n/a
628.3825	0.09	1256765	keystroke_i	i	n/a
629.0575	0.09	1258115	keystroke_o	o	n/a
629.2375	0.09	1258475	keystroke_n	n	n/a
629.7925	0.12	1259585	keystroke_Key.space	Key.space	n/a
630.3325	0.105	1260665	keystroke_f	f	n/a
630.5275	0.09	1261055	keystroke_r	r	n/a
630.6325	0.09	1261265	keystroke_i	i	n/a
630.9775	0.09	1261955	keystroke_d	d	n/a
631.2475	0.075	1262495	keystroke_g	g	n/a
631.3525	0.09	1262705	keystroke_e	e	n/a
632.2975	0.06	1264595	keystroke_Key.enter	Key.enter	n/a
632.3645	13.5105	1264729	prompt	n/a	counter pleasant identify ground\n
633.2125	0.09	1266425	keystroke_c	c	n/a
633.3175	0.09	1266635	keystroke_o	o	n/a
633.4825	0.105	1266965	keystroke_u	u	n/a
633.8125	0.09	1267625	keystroke_n	n	n/a
634.0675	0.09	1268135	keystroke_t	t	n/a
634.2775	0.075	1268555	keystroke_e	e	n/a
634.7275	0.06	1269455	keystroke_r	r	n/a
634.8775	0.12	1269755	keystroke_Key.space	Key.space	n/a
635.4175	0.105	1270835	keystroke_p	p	n/a
635.7925	0.105	1271585	keystroke_r	r	n/a
636.1225	0.075	1272245	keystroke_Key.backspace	Key.backspace	n/a
636.3025	0.105	1272605	keystroke_l	l	n/a
636.3775	0.105	1272755	keystroke_e	e	n/a
636.7225	0.135	1273445	keystroke_a	a	n/a
636.9475	0.15	1273895	keystroke_s	s	n/a
638.4175	0.15	1276835	keystroke_a	a	n/a
638.9585	0.074	1277917	keystroke_n	n	n/a
639.0625	0.09	1278125	keystroke_t	t	n/a
640.0225	0.105	1280045	keystroke_Key.space	Key.space	n/a
640.2625	0.06	1280525	keystroke_i	i	n/a
640.4125	0.105	1280825	keystroke_n	n	n/a
641.0875	0.075	1282175	keystroke_Key.backspace	Key.backspace	n/a
641.3125	0.105	1282625	keystroke_d	d	n/a
641.4335	0.134	1282867	keystroke_e	e	n/a
641.5525	0.106	1283105	keystroke_n	n	n/a
641.7175	0.105	1283435	keystroke_t	t	n/a
641.8375	0.09	1283675	keystroke_i	i	n/a
642.3175	0.06	1284635	keystroke_f	f	n/a
642.4975	0.12	1284995	keystroke_y	y	n/a
642.7375	0.12	1285475	keystroke_Key.space	Key.space	n/a
643.7425	0.135	1287485	keystroke_g	g	n/a
643.9225	0.045	1287845	keystroke_r	r	n/a
644.0585	0.104	1288117	keystroke_o	o	n/a
644.2375	0.09	1288475	keystroke_u	u	n/a
644.4475	0.105	1288895	keystroke_n	n	n/a
644.5375	0.12	1289075	keystroke_d	d	n/a
645.8125	0.06	1291625	keystroke_Key.enter	Key.enter	n/a
645.878	10.1815	1291756	prompt	n/a	secret comfortable lisa memphis\n
646.8035	0.089	1293607	keystroke_s	s	n/a
647.0125	0.076	1294025	keystroke_e	e	n/a
647.2085	0.105	1294417	keystroke_c	c	n/a
647.4775	0.106	1294955	keystroke_r	r	n/a
647.7185	0.09	1295437	keystroke_e	e	n/a
647.8225	0.076	1295645	keystroke_t	t	n/a
648.0335	0.119	1296067	keystroke_Key.space	Key.space	n/a
648.7675	0.076	1297535	keystroke_c	c	n/a
648.8125	0.075	1297625	keystroke_o	o	n/a
648.9625	0.106	1297925	keystroke_m	m	n/a
649.9535	0.06	1299907	keystroke_f	f	n/a
650.0285	0.09	1300057	keystroke_o	o	n/a
650.1485	0.105	1300297	keystroke_r	r	n/a
650.4035	0.09	1300807	keystroke_t	t	n/a
650.6885	0.09	1301377	keystroke_a	a	n/a
650.7935	0.09	1301587	keystroke_b	b	n/a
651.0035	0.105	1302007	keystroke_l	l	n/a
651.0635	0.135	1302127	keystroke_e	e	n/a
651.1535	0.12	1302307	keystroke_Key.space	Key.space	n/a
651.3935	0.075	1302787	keystroke_l	l	n/a
651.6035	0.075	1303207	keystroke_i	i	n/a
651.7085	0.165	1303417	keystroke_s	s	n/a
651.8885	0.165	1303777	keystroke_a	a	n/a
652.0685	0.12	1304137	keystroke_Key.space	Key.space	n/a
652.3985	0.06	1304797	keystroke_m	m	n/a
652.9685	0.09	1305937	keystroke_e	e	n/a
653.8985	0.09	1307797	keystroke_m	m	n/a
654.6785	0.06	1309357	keystroke_p	p	n/a
654.9185	0.075	1309837	keystroke_h	h	n/a
655.0685	0.075	1310137	keystroke_i	i	n/a
655.2185	0.105	1310437	keystroke_s	s	n/a
656.0135	0.045	1312027	keystroke_Key.enter	Key.enter	n/a
656.063	10.1965	1312126	prompt	n/a	dominant transition price seattle\n
656.9885	0.09	1313977	keystroke_d	d	n/a
657.0485	0.09	1314097	keystroke_o	o	n/a
657.1835	0.12	1314367	keystroke_m	m	n/a
657.3785	0.0895	1314757	keystroke_i	i	n/a
657.513	0.135	1315026	keystroke_n	n	n/a
657.633	0.105	1315266	keystroke_a	a	n/a
657.813	0.105	1315626	keystroke_n	n	n/a
657.963	0.135	1315926	keystroke_t	t	n/a
658.113	0.09	1316226	keystroke_Key.space	Key.space	n/a
658.368	0.1055	1316736	keystroke_r	r	n/a
659.043	0.12	1318086	keystroke_a	a	n/a
659.598	0.045	1319196	keystroke_Key.backspace	Key.backspace	n/a
659.658	0.045	1319316	keystroke_Key.backspace	Key.backspace	n/a
659.673	0.06	1319346	keystroke_t	t	n/a
659.838	0.09	1319676	keystroke_r	r	n/a
660.093	0.12	1320186	keystroke_a	a	n/a
660.243	0.06	1320486	keystroke_n	n	n/a
660.423	0.105	1320846	keystroke_s	s	n/a
660.693	0.12	1321386	keystroke_i	i	n/a
660.903	0.0745	1321806	keystroke_t	t	n/a
660.9925	0.075	1321985	keystroke_i	i	n/a
661.1725	0.09	1322345	keystroke_o	o	n/a
661.5025	0.075	1323005	keystroke_n	n	n/a
661.5925	0.09	1323185	keystroke_Key.space	Key.space	n/a
661.9375	0.075	1323875	keystroke_p	p	n/a
662.0275	0.06	1324055	keystroke_r	r	n/a
662.1475	0.075	1324295	keystroke_i	i	n/a
662.4775	0.09	1324955	keystroke_c	c	n/a
662.7785	0.089	1325557	keystroke_e	e	n/a
662.9575	0.12	1325915	keystroke_Key.space	Key.space	n/a
663.3625	0.105	1326725	keystroke_s	s	n/a
663.6035	0.089	1327207	keystroke_e	e	n/a
663.8275	0.105	1327655	keystroke_a	a	n/a
663.9475	0.105	1327895	keystroke_t	t	n/a
665.0125	0.06	1330025	keystroke_t	t	n/a
665.1175	0.091	1330235	keystroke_l	l	n/a
665.2675	0.09	1330535	keystroke_e	e	n/a
666.2125	0.045	1332425	keystroke_Key.enter	Key.enter	n/a
666.2625	12.582	1332525	prompt	n/a	imagination attend chapter stands\n
667.188	0.075	1334376	keystroke_i	i	n/a
667.353	0.12	1334706	keystroke_m	m	n/a
667.458	0.12	1334916	keystroke_a	a	n/a
667.938	0.06	1335876	keystroke_g	g	n/a
668.058	0.075	1336116	keystroke_i	i	n/a
668.238	0.12	1336476	keystroke_n	n	n/a
668.373	0.075	1336746	keystroke_a	a	n/a
668.718	0.06	1337436	keystroke_t	t	n/a
668.793	0.075	1337586	keystroke_i	i	n/a
668.958	0.09	1337916	keystroke_o	o	n/a
669.153	0.075	1338306	keystroke_n	n	n/a
669.258	0.12	1338516	keystroke_Key.space	Key.space	n/a
669.708	0.135	1339416	keystroke_a	a	n/a
669.933	0.045	1339866	keystroke_t	t	n/a
670.053	0.09	1340106	keystroke_t	t	n/a
670.158	0.09	1340316	keystroke_e	e	n/a
670.383	0.06	1340766	keystroke_d	d	n/a
670.443	0.105	1340886	keystroke_n	n	n/a
670.593	0.105	1341186	keystroke_Key.space	Key.space	n/a
671.5075	0.06	1343015	keystroke_Key.backspace	Key.backspace	n/a
671.6425	0.09	1343285	keystroke_Key.backspace	Key.backspace	n/a
672.0175	0.09	1344035	keystroke_Key.backspace	Key.backspace	n/a
672.2575	0.075	1344515	keystroke_n	n	n/a
672.5725	0.09	1345145	keystroke_d	d	n/a
672.7535	0.074	1345507	keystroke_Key.space	Key.space	n/a
672.9035	0.134	1345807	keystroke_c	c	n/a
673.0535	0.059	1346107	keystroke_h	h	n/a
673.1425	0.12	1346285	keystroke_a	a	n/a
673.2785	0.075	1346557	keystroke_o	o	n/a
673.6675	0.075	1347335	keystroke_Key.backspace	Key.backspace	n/a
673.8335	0.045	1347667	keystroke_p	p	n/a
673.8475	0.015	1347695	keystroke_o	o	n/a
674.5975	0.09	1349195	keystroke_Key.backspace	Key.backspace	n/a
674.8375	0.06	1349675	keystroke_t	t	n/a
674.8985	0.074	1349797	keystroke_e	e	n/a
675.0785	0.105	1350157	keystroke_r	r	n/a
675.1535	0.104	1350307	keystroke_Key.space	Key.space	n/a
675.6485	0.09	1351297	keystroke_s	s	n/a
675.9175	0.061	1351835	keystroke_t	t	n/a
675.9625	0.091	1351925	keystroke_a	a	n/a
676.2185	0.09	1352437	keystroke_b	b	n/a
676.8625	0.091	1353725	keystroke_Key.backspace	Key.backspace	n/a
677.1785	0.075	1354357	keystroke_n	n	n/a
677.6285	0.0885	1355257	keystroke_d	d	n/a
677.913	0.12	1355826	keystroke_s	s	n/a
678.813	0.03	1357626	keystroke_Key.enter	Key.enter	n/a
678.8475	14.937	1357695	prompt	n/a	discretion integrity grammar sufficiently\n
679.848	0.09	1359696	keystroke_d	d	n/a
679.983	0.075	1359966	keystroke_i	i	n/a
680.073	0.105	1360146	keystroke_s	s	n/a
680.328	0.165	1360656	keystroke_c	c	n/a
680.448	0.15	1360896	keystroke_r	r	n/a
680.613	0.105	1361226	keystroke_e	e	n/a
680.868	0.09	1361736	keystroke_t	t	n/a
680.973	0.075	1361946	keystroke_i	i	n/a
681.138	0.09	1362276	keystroke_o	o	n/a
681.303	0.135	1362606	keystroke_n	n	n/a
681.453	0.105	1362906	keystroke_Key.space	Key.space	n/a
681.693	0.075	1363386	keystroke_i	i	n/a
681.843	0.12	1363686	keystroke_n	n	n/a
681.978	0.105	1363956	keystroke_t	t	n/a
682.218	0.105	1364436	keystroke_e	e	n/a
682.848	0.075	1365696	keystroke_g	g	n/a
682.923	0.075	1365846	keystroke_r	r	n/a
683.088	0.12	1366176	keystroke_i	i	n/a
683.223	0.075	1366446	keystroke_t	t	n/a
683.373	0.09	1366746	keystroke_y	y	n/a
683.988	0.12	1367976	keystroke_Key.space	Key.space	n/a
684.678	0.15	1369356	keystroke_g	g	n/a
684.918	0.045	1369836	keystroke_r	r	n/a
685.158	0.105	1370316	keystroke_a	a	n/a
685.698	0.045	1371396	keystroke_m	m	n/a
685.833	0.075	1371666	keystroke_m	m	n/a
685.923	0.09	1371846	keystroke_a	a	n/a
686.133	0.12	1372266	keystroke_r	r	n/a
686.313	0.105	1372626	keystroke_Key.space	Key.space	n/a
687.633	0.075	1375266	keystroke_s	s	n/a
687.723	0.09	1375446	keystroke_u	u	n/a
687.858	0.075	1375716	keystroke_f	f	n/a
688.008	0.09	1376016	keystroke_f	f	n/a
688.158	0.09	1376316	keystroke_i	i	n/a
688.833	0.075	1377666	keystroke_c	c	n/a
688.953	0.09	1377906	keystroke_i	i	n/a
689.493	0.06	1378986	keystroke_n	n	n/a
689.808	0.09	1379616	keystroke_Key.backspace	Key.backspace	n/a
689.943	0.09	1379886	keystroke_e	e	n/a
690.078	0.09	1380156	keystroke_n	n	n/a
690.228	0.09	1380456	keystroke_t	t	n/a
690.423	0.12	1380846	keystroke_l	l	n/a
690.558	0.06	1381116	keystroke_r	r	n/a
690.993	0.075	1381986	keystroke_Key.backspace	Key.backspace	n/a
691.623	0.06	1383246	keystroke_y	y	n/a
693.678	0.105	1387356	keystroke_Key.enter	Key.enter	n/a
