onset	duration	sample	value	key	prompt_text
5.0685	10.595	10137	prompt	n/a	the quick brown fox jumps over a lazy dog\n
6.417	0.028	12834	keystroke_t	t	n/a
6.505	0.09	13010	keystroke_h	h	n/a
6.6245	0.09	13249	keystroke_e	e	n/a
6.774	0.0905	13548	keystroke_Key.space	Key.space	n/a
6.8345	0.105	13669	keystroke_q	q	n/a
6.9695	0.135	13939	keystroke_u	u	n/a
7.0745	0.09	14149	keystroke_i	i	n/a
7.1945	0.105	14389	keystroke_c	c	n/a
7.3145	0.12	14629	keystroke_k	k	n/a
7.3745	0.09	14749	keystroke_Key.space	Key.space	n/a
7.5245	0.0905	15049	keystroke_b	b	n/a
7.63	0.105	15260	keystroke_r	r	n/a
7.72	0.12	15440	keystroke_o	o	n/a
7.8845	0.045	15769	keystroke_w	w	n/a
7.9445	0.165	15889	keystroke_n	n	n/a
8.0195	0.015	16039	keystroke_w	w	n/a
8.0495	0.12	16099	keystroke_Key.space	Key.space	n/a
8.1845	0.105	16369	keystroke_f	f	n/a
8.3045	0.075	16609	keystroke_o	o	n/a
8.4395	0.105	16879	keystroke_x	x	n/a
8.5595	0.1045	17119	keystroke_Key.space	Key.space	n/a
8.724	0.12	17448	keystroke_j	j	n/a
9.144	0.045	18288	keystroke_Key.backspace	Key.backspace	n/a
9.309	0.06	18618	keystroke_Key.backspace	Key.backspace	n/a
9.489	0.045	18978	keystroke_Key.backspace	Key.backspace	n/a
9.6545	0.06	19309	keystroke_Key.backspace	Key.backspace	n/a
9.819	0.061	19638	keystroke_Key.backspace	Key.backspace	n/a
10	0.06	20000	keystroke_Key.backspace	Key.backspace	n/a
10.18	0.045	20360	keystroke_Key.backspace	Key.backspace	n/a
10.54	0.0895	21080	keystroke_Key.space	Key.space	n/a
10.84	0.09	21680	keystroke_f	f	n/a
10.96	0.104	21920	keystroke_o	o	n/a
11.08	0.12	22160	keystroke_x	x	n/a
11.155	0.09	22310	keystroke_Key.space	Key.space	n/a
11.29	0.075	22580	keystroke_j	j	n/a
11.425	0.09	22850	keystroke_u	u	n/a
11.635	0.15	23270	keystroke_m	m	n/a
11.77	0.1195	23540	keystroke_p	p	n/a
11.9045	0.09	23809	keystroke_s	s	n/a
11.9945	0.09	23989	keystroke_Key.space	Key.space	n/a
12.1445	0.105	24289	keystroke_o	o	n/a
12.2345	0.1495	24469	keystroke_v	v	n/a
12.504	0.136	25008	keystroke_e	e	n/a
12.58	0.15	25160	keystroke_r	r	n/a
12.97	0.135	25940	keystroke_Key.space	Key.space	n/a
13.09	0.105	26180	keystroke_a	a	n/a
13.21	0.15	26420	keystroke_Key.space	Key.space	n/a
13.405	0.12	26810	keystroke_l	l	n/a
13.495	0.045	26990	keystroke_a	a	n/a
13.69	0.135	27380	keystroke_z	z	n/a
13.81	0.1345	27620	keystroke_y	y	n/a
13.87	0.1345	27740	keystroke_Key.space	Key.space	n/a
14.724	0.105	29448	keystroke_d	d	n/a
14.844	0.12	29688	keystroke_o	o	n/a
14.949	0.09	29898	keystroke_g	g	n/a
15.549	0.105	31098	keystroke_Key.enter	Key.enter	n/a
15.669	7.457	31338	prompt	n/a	presents claim lebanon myers\n
16.5395	0.06	33079	keystroke_p	p	n/a
16.63	0.1645	33260	keystroke_r	r	n/a
16.72	0.2095	33440	keystroke_e	e	n/a
16.8245	0.24	33649	keystroke_s	s	n/a
16.9895	0.1655	33979	keystroke_e	e	n/a
17.14	0.09	34280	keystroke_n	n	n/a
17.245	0.165	34490	keystroke_t	t	n/a
17.365	0.15	34730	keystroke_s	s	n/a
17.485	0.12	34970	keystroke_Key.space	Key.space	n/a
17.695	0.09	35390	keystroke_c	c	n/a
17.77	0.09	35540	keystroke_l	l	n/a
17.905	0.1045	35810	keystroke_a	a	n/a
18.0105	0.164	36021	keystroke_i	i	n/a
18.0995	0.15	36199	keystroke_m	m	n/a
18.2195	0.06	36439	keystroke_Key.space	Key.space	n/a
18.3995	0.18	36799	keystroke_l	l	n/a
18.4745	0.12	36949	keystroke_e	e	n/a
18.64	0.075	37280	keystroke_b	b	n/a
18.7	0.12	37400	keystroke_a	a	n/a
18.85	0.105	37700	keystroke_n	n	n/a
18.94	0.195	37880	keystroke_o	o	n/a
19.09	0.164	38180	keystroke_n	n	n/a
19.224	0.12	38448	keystroke_Key.space	Key.space	n/a
19.705	0.074	39410	keystroke_n	n	n/a
20.049	0.0905	40098	keystroke_Key.backspace	Key.backspace	n/a
20.289	0.075	40578	keystroke_m	m	n/a
20.515	0.075	41030	keystroke_y	y	n/a
20.68	0.1945	41360	keystroke_e	e	n/a
20.7995	0.195	41599	keystroke_r	r	n/a
20.8895	0.135	41779	keystroke_s	s	n/a
23.097	0.027	46194	keystroke_Key.enter	Key.enter	n/a
23.1285	5.9225	46257	prompt	n/a	bedrooms employee dial best\n
23.8445	0.15	47689	keystroke_b	b	n/a
23.9495	0.09	47899	keystroke_e	e	n/a
24.1445	0.045	48289	keystroke_f	f	n/a
24.4295	0.075	48859	keystroke_Key.backspace	Key.backspace	n/a
24.5655	0.059	49131	keystroke_d	d	n/a
24.7595	0.09	49519	keystroke_r	r	n/a
24.8345	0.075	49669	keystroke_o	o	n/a
24.9995	0.135	49999	keystroke_o	o	n/a
25.0745	0.15	50149	keystroke_m	m	n/a
25.2395	0.12	50479	keystroke_s	s	n/a
25.3445	0.09	50689	keystroke_Key.space	Key.space	n/a
25.5845	0.12	51169	keystroke_e	e	n/a
25.7195	0.105	51439	keystroke_m	m	n/a
25.7945	0.165	51589	keystroke_p	p	n/a
25.9155	0.119	51831	keystroke_l	l	n/a
26.125	0.09	52250	keystroke_o	o	n/a
26.35	0.105	52700	keystroke_y	y	n/a
26.515	0.075	53030	keystroke_e	e	n/a
26.695	0.1195	53390	keystroke_e	e	n/a
26.8295	0.09	53659	keystroke_Key.space	Key.space	n/a
27.3245	0.1195	54649	keystroke_d	d	n/a
27.399	0.121	54798	keystroke_i	i	n/a
27.535	0.105	55070	keystroke_a	a	n/a
27.88	0.119	55760	keystroke_l	l	n/a
27.97	0.089	55940	keystroke_Key.space	Key.space	n/a
28.224	0.075	56448	keystroke_b	b	n/a
28.269	0.285	56538	keystroke_e	e	n/a
28.374	0.226	56748	keystroke_s	s	n/a
28.569	0.135	57138	keystroke_t	t	n/a
28.945	0.104	57890	keystroke_Key.enter	Key.enter	n/a
29.0625	6.679	58125	prompt	n/a	blood surround votes leadership\n
29.784	0.1205	59568	keystroke_b	b	n/a
29.935	0.074	59870	keystroke_l	l	n/a
30.249	0.045	60498	keystroke_o	o	n/a
30.399	0.076	60798	keystroke_o	o	n/a
30.535	0.09	61070	keystroke_d	d	n/a
30.655	0.105	61310	keystroke_Key.space	Key.space	n/a
31.105	0.105	62210	keystroke_s	s	n/a
31.225	0.06	62450	keystroke_u	u	n/a
31.36	0.0595	62720	keystroke_r	r	n/a
31.495	0.09	62990	keystroke_r	r	n/a
31.57	0.225	63140	keystroke_o	o	n/a
31.675	0.225	63350	keystroke_u	u	n/a
31.78	0.195	63560	keystroke_n	n	n/a
31.885	0.165	63770	keystroke_d	d	n/a
32.035	0.105	64070	keystroke_s	s	n/a
32.455	0.075	64910	keystroke_Key.backspace	Key.backspace	n/a
32.68	0.135	65360	keystroke_Key.space	Key.space	n/a
32.935	0.105	65870	keystroke_v	v	n/a
33.055	0.15	66110	keystroke_o	o	n/a
33.265	0.195	66530	keystroke_t	t	n/a
33.4	0.24	66800	keystroke_e	e	n/a
33.565	0.135	67130	keystroke_s	s	n/a
33.655	0.09	67310	keystroke_Key.space	Key.space	n/a
33.805	0.12	67610	keystroke_l	l	n/a
33.91	0.1795	67820	keystroke_e	e	n/a
34.1045	0.1505	68209	keystroke_a	a	n/a
34.3	0.09	68600	keystroke_d	d	n/a
34.57	0.21	69140	keystroke_e	e	n/a
34.69	0.15	69380	keystroke_r	r	n/a
34.885	0.135	69770	keystroke_s	s	n/a
35.05	0.165	70100	keystroke_h	h	n/a
35.155	0.15	70310	keystroke_i	i	n/a
35.23	0.135	70460	keystroke_p	p	n/a
35.65	0.09	71300	keystroke_Key.enter	Key.enter	n/a
35.744	8.3605	71488	prompt	n/a	filter menus auckland seven\n
36.6095	0.105	73219	keystroke_f	f	n/a
36.6995	0.09	73399	keystroke_i	i	n/a
36.9245	0.12	73849	keystroke_l	l	n/a
37.0745	0.09	74149	keystroke_t	t	n/a
37.2545	0.135	74509	keystroke_e	e	n/a
37.3445	0.135	74689	keystroke_r	r	n/a
37.4645	0.075	74929	keystroke_Key.space	Key.space	n/a
37.5845	0.105	75169	keystroke_m	m	n/a
37.8695	0.105	75739	keystroke_e	e	n/a
38.1095	0.105	76219	keystroke_n	n	n/a
38.3645	0.105	76729	keystroke_u	u	n/a
38.4545	0.09	76909	keystroke_s	s	n/a
38.5895	0.105	77179	keystroke_Key.space	Key.space	n/a
38.9045	0.12	77809	keystroke_a	a	n/a
39.2045	0.105	78409	keystroke_u	u	n/a
39.6395	0.135	79279	keystroke_c	c	n/a
40.21	0.12	80420	keystroke_k	k	n/a
40.405	0.105	80810	keystroke_l	l	n/a
40.495	0.12	80990	keystroke_a	a	n/a
40.63	0.15	81260	keystroke_n	n	n/a
40.72	0.105	81440	keystroke_d	d	n/a
40.81	0.105	81620	keystroke_Key.space	Key.space	n/a
40.945	0.15	81890	keystroke_s	s	n/a
41.05	0.12	82100	keystroke_e	e	n/a
41.305	0.195	82610	keystroke_v	v	n/a
41.425	0.15	82850	keystroke_e	e	n/a
41.65	0.105	83300	keystroke_n	n	n/a
44.067	0.028	88134	keystroke_Key.enter	Key.enter	n/a
44.112	6.2395	88224	prompt	n/a	amend arms adventures desired\n
44.74	0.12	89480	keystroke_a	a	n/a
44.89	0.135	89780	keystroke_m	m	n/a
45.055	0.12	90110	keystroke_e	e	n/a
45.865	0.1045	91730	keystroke_n	n	n/a
45.9855	0.089	91971	keystroke_d	d	n/a
46.0895	0.09	92179	keystroke_Key.space	Key.space	n/a
46.1645	0.105	92329	keystroke_a	a	n/a
46.3745	0.105	92749	keystroke_r	r	n/a
46.4945	0.091	92989	keystroke_m	m	n/a
46.5695	0.075	93139	keystroke_s	s	n/a
46.6595	0.12	93319	keystroke_Key.space	Key.space	n/a
46.7945	0.09	93589	keystroke_a	a	n/a
46.9445	0.106	93889	keystroke_d	d	n/a
47.6195	0.09	95239	keystroke_v	v	n/a
47.8145	0.105	95629	keystroke_e	e	n/a
47.9345	0.105	95869	keystroke_n	n	n/a
48.0245	0.12	96049	keystroke_t	t	n/a
48.1595	0.15	96319	keystroke_u	u	n/a
48.2345	0.21	96469	keystroke_r	r	n/a
48.3245	0.24	96649	keystroke_e	e	n/a
48.4595	0.1655	96919	keystroke_s	s	n/a
48.6395	0.075	97279	keystroke_Key.space	Key.space	n/a
48.8495	0.15	97699	keystroke_d	d	n/a
48.9545	0.24	97909	keystroke_e	e	n/a
49.1645	0.165	98329	keystroke_s	s	n/a
49.4945	0.165	98989	keystroke_i	i	n/a
49.6445	0.15	99289	keystroke_r	r	n/a
49.7645	0.105	99529	keystroke_e	e	n/a
49.9745	0.12	99949	keystroke_d	d	n/a
50.2745	0.075	100549	keystroke_Key.enter	Key.enter	n/a
50.354	9.204	100708	prompt	n/a	recommended browsers odds highway\n
52.2845	0.12	104569	keystroke_r	r	n/a
52.3595	0.105	104719	keystroke_e	e	n/a
52.5995	0.09	105199	keystroke_c	c	n/a
52.7045	0.12	105409	keystroke_o	o	n/a
52.9295	0.015	105859	keystroke_m	m	n/a
53.0795	0.358	106159	keystroke_m	m	n/a
53.229	0.281	106458	keystroke_e	e	n/a
53.519	0.015	107038	keystroke_n	n	n/a
53.549	0.03	107098	keystroke_d	d	n/a
53.564	0.03	107128	keystroke_s	s	n/a
53.8035	0.1355	107607	keystroke_Key.backspace	Key.backspace	n/a
54.119	0.075	108238	keystroke_e	e	n/a
54.329	0.105	108658	keystroke_d	d	n/a
54.419	0.06	108838	keystroke_Key.space	Key.space	n/a
54.584	0.1495	109168	keystroke_b	b	n/a
54.869	0.015	109738	keystroke_r	r	n/a
54.899	0.1195	109798	keystroke_o	o	n/a
55.034	0.09	110068	keystroke_w	w	n/a
55.604	0.105	111208	keystroke_s	s	n/a
55.889	0.195	111778	keystroke_e	e	n/a
55.994	0.195	111988	keystroke_r	r	n/a
56.144	0.12	112288	keystroke_s	s	n/a
56.249	0.1055	112498	keystroke_Key.space	Key.space	n/a
56.3995	0.09	112799	keystroke_o	o	n/a
56.4745	0.075	112949	keystroke_r	r	n/a
57.1035	0.0755	114207	keystroke_Key.backspace	Key.backspace	n/a
57.21	0.075	114420	keystroke_d	d	n/a
57.375	0.134	114750	keystroke_d	d	n/a
57.465	0.134	114930	keystroke_s	s	n/a
57.585	0.119	115170	keystroke_Key.space	Key.space	n/a
57.794	0.105	115588	keystroke_h	h	n/a
57.884	0.121	115768	keystroke_i	i	n/a
58.02	0.104	116040	keystroke_g	g	n/a
58.139	0.106	116278	keystroke_h	h	n/a
58.53	0.164	117060	keystroke_w	w	n/a
58.634	0.135	117268	keystroke_a	a	n/a
58.829	0.075	117658	keystroke_y	y	n/a
59.414	0.135	118828	keystroke_Key.enter	Key.enter	n/a
59.5635	10.434	119127	prompt	n/a	credits toolkit drinking beijing\n
60.255	0.104	120510	keystroke_c	c	n/a
60.569	0.12	121138	keystroke_r	r	n/a
60.63	0.179	121260	keystroke_e	e	n/a
61.064	0.12	122128	keystroke_d	d	n/a
61.319	0.15	122638	keystroke_i	i	n/a
61.439	0.15	122878	keystroke_t	t	n/a
61.619	0.12	123238	keystroke_s	s	n/a
61.814	0.135	123628	keystroke_Key.space	Key.space	n/a
62.339	0.105	124678	keystroke_t	t	n/a
62.4595	0.0445	124919	keystroke_o	o	n/a
62.594	0.165	125188	keystroke_o	o	n/a
62.699	0.105	125398	keystroke_k	k	n/a
63.044	0.09	126088	keystroke_Key.backspace	Key.backspace	n/a
63.314	0.165	126628	keystroke_l	l	n/a
63.464	0.09	126928	keystroke_Key.space	Key.space	n/a
63.644	0.09	127288	keystroke_k	k	n/a
63.9895	0.0895	127979	keystroke_Key.backspace	Key.backspace	n/a
64.184	0.075	128368	keystroke_Key.backspace	Key.backspace	n/a
64.409	0.135	128818	keystroke_k	k	n/a
64.634	0.105	129268	keystroke_i	i	n/a
64.74	0.059	129480	keystroke_t	t	n/a
64.814	0.12	129628	keystroke_Key.space	Key.space	n/a
65.024	0.09	130048	keystroke_d	d	n/a
65.249	0.1055	130498	keystroke_r	r	n/a
65.309	0.1355	130618	keystroke_i	i	n/a
65.4295	0.18	130859	keystroke_n	n	n/a
65.5945	0.105	131189	keystroke_k	k	n/a
65.8045	0.135	131609	keystroke_i	i	n/a
65.8795	0.105	131759	keystroke_n	n	n/a
65.9545	0.09	131909	keystroke_g	g	n/a
66.0595	0.12	132119	keystroke_Key.space	Key.space	n/a
66.2395	0.12	132479	keystroke_b	b	n/a
66.3895	0.105	132779	keystroke_e	e	n/a
66.7945	0.075	133589	keystroke_i	i	n/a
67.95	0.105	135900	keystroke_j	j	n/a
68.04	0.224	136080	keystroke_i	i	n/a
68.235	0.135	136470	keystroke_n	n	n/a
68.535	0.15	137070	keystroke_g	g	n/a
69.8245	0.165	139649	keystroke_Key.enter	Key.enter	n/a
70.0015	8.455	140003	prompt	n/a	router modules money ross\n
70.7545	0.12	141509	keystroke_r	r	n/a
70.8895	0.165	141779	keystroke_o	o	n/a
71.0095	0.135	142019	keystroke_u	u	n/a
71.0845	0.09	142169	keystroke_t	t	n/a
71.2495	0.15	142499	keystroke_e	e	n/a
71.3545	0.15	142709	keystroke_r	r	n/a
71.4445	0.075	142889	keystroke_Key.space	Key.space	n/a
71.7295	0.0905	143459	keystroke_m	m	n/a
71.805	0.074	143610	keystroke_o	o	n/a
71.969	0.016	143938	keystroke_d	d	n/a
72	0.045	144000	keystroke_u	u	n/a
72.164	0.0905	144328	keystroke_l	l	n/a
72.2395	0.18	144479	keystroke_e	e	n/a
72.3895	0.06	144779	keystroke_Key.space	Key.space	n/a
72.4045	0.15	144809	keystroke_s	s	n/a
73.1395	0.045	146279	keystroke_Key.backspace	Key.backspace	n/a
73.2745	0.075	146549	keystroke_Key.backspace	Key.backspace	n/a
73.3645	0.105	146729	keystroke_s	s	n/a
73.5145	0.15	147029	keystroke_m	m	n/a
73.6195	0.18	147239	keystroke_o	o	n/a
73.7845	0.105	147569	keystroke_n	n	n/a
74.2945	0.03	148589	keystroke_Key.backspace	Key.backspace	n/a
74.4295	0.06	148859	keystroke_Key.backspace	Key.backspace	n/a
74.5795	0.105	149159	keystroke_Key.backspace	Key.backspace	n/a
74.834	0.09	149668	keystroke_Key.space	Key.space	n/a
74.9695	0.12	149939	keystroke_m	m	n/a
75.0445	0.21	150089	keystroke_o	o	n/a
75.2095	0.09	150419	keystroke_n	n	n/a
75.3895	0.105	150779	keystroke_e	e	n/a
75.5395	0.12	151079	keystroke_y	y	n/a
75.6145	0.12	151229	keystroke_Key.space	Key.space	n/a
76.095	0.09	152190	keystroke_r	r	n/a
76.215	0.105	152430	keystroke_o	o	n/a
76.38	0.15	152760	keystroke_s	s	n/a
76.665	0.105	153330	keystroke_s	s	n/a
78.2995	0.1495	156599	keystroke_Key.enter	Key.enter	n/a
78.4605	6.3705	156921	prompt	n/a	playing navigation oils event\n
78.673	0.0855	157346	keystroke_p	p	n/a
78.7285	0.106	157457	keystroke_l	l	n/a
78.8345	0.1075	157669	keystroke_a	a	n/a
79.2265	0.121	158453	keystroke_y	y	n/a
79.3625	0.15	158725	keystroke_i	i	n/a
79.4825	0.105	158965	keystroke_n	n	n/a
79.5725	0.12	159145	keystroke_g	g	n/a
79.6775	0.15	159355	keystroke_Key.space	Key.space	n/a
79.902	0.1055	159804	keystroke_a	a	n/a
80.2325	0.075	160465	keystroke_Key.backspace	Key.backspace	n/a
80.4575	0.12	160915	keystroke_n	n	n/a
80.5325	0.09	161065	keystroke_a	a	n/a
81.2975	0.165	162595	keystroke_v	v	n/a
81.5825	0.12	163165	keystroke_i	i	n/a
81.8375	0.165	163675	keystroke_g	g	n/a
81.9425	0.135	163885	keystroke_a	a	n/a
82.1975	0.12	164395	keystroke_t	t	n/a
82.3325	0.195	164665	keystroke_i	i	n/a
82.4525	0.269	164905	keystroke_o	o	n/a
82.5875	0.21	165175	keystroke_n	n	n/a
82.7525	0.12	165505	keystroke_Key.space	Key.space	n/a
82.9325	0.165	165865	keystroke_o	o	n/a
83.0375	0.105	166075	keystroke_i	i	n/a
83.2775	0.09	166555	keystroke_l	l	n/a
83.3825	0.105	166765	keystroke_s	s	n/a
83.5475	0.09	167095	keystroke_Key.space	Key.space	n/a
83.6675	0.135	167335	keystroke_e	e	n/a
83.9375	0.15	167875	keystroke_v	v	n/a
84.0565	0.135	168113	keystroke_e	e	n/a
84.2665	0.1205	168533	keystroke_n	n	n/a
84.432	0.09	168864	keystroke_t	t	n/a
84.732	0.0905	169464	keystroke_Key.enter	Key.enter	n/a
84.8355	5.0585	169671	prompt	n/a	sudden chair tales influence\n
85.587	0.0905	171174	keystroke_s	s	n/a
85.6925	0.1195	171385	keystroke_u	u	n/a
85.827	0.075	171654	keystroke_d	d	n/a
85.992	0.1505	171984	keystroke_d	d	n/a
86.0975	0.12	172195	keystroke_e	e	n/a
86.2775	0.15	172555	keystroke_n	n	n/a
86.3825	0.105	172765	keystroke_Key.space	Key.space	n/a
86.5775	0.1205	173155	keystroke_c	c	n/a
86.6825	0.105	173365	keystroke_h	h	n/a
86.7725	0.105	173545	keystroke_a	a	n/a
86.9075	0.135	173815	keystroke_i	i	n/a
87.0575	0.12	174115	keystroke_r	r	n/a
87.1775	0.09	174355	keystroke_Key.space	Key.space	n/a
87.3875	0.09	174775	keystroke_t	t	n/a
87.6125	0.09	175225	keystroke_a	a	n/a
87.7625	0.075	175525	keystroke_l	l	n/a
87.9125	0.195	175825	keystroke_e	e	n/a
87.9875	0.15	175975	keystroke_s	s	n/a
88.1825	0.12	176365	keystroke_Key.space	Key.space	n/a
88.3475	0.195	176695	keystroke_i	i	n/a
88.4825	0.195	176965	keystroke_n	n	n/a
88.7675	0.015	177535	keystroke_f	f	n/a
88.8125	0.09	177625	keystroke_l	l	n/a
89.0225	0.105	178045	keystroke_u	u	n/a
89.0825	0.105	178165	keystroke_e	e	n/a
89.2625	0.135	178525	keystroke_n	n	n/a
89.3375	0.195	178675	keystroke_c	c	n/a
89.4725	0.135	178945	keystroke_e	e	n/a
89.8175	0.075	179635	keystroke_Key.enter	Key.enter	n/a
89.8975	8.3355	179795	prompt	n/a	generation pleased became bought\n
90.927	0.15	181854	keystroke_g	g	n/a
91.002	0.135	182004	keystroke_e	e	n/a
91.152	0.12	182304	keystroke_n	n	n/a
91.287	0.225	182574	keystroke_e	e	n/a
91.452	0.12	182904	keystroke_r	r	n/a
91.542	0.1195	183084	keystroke_a	a	n/a
91.737	0.12	183474	keystroke_t	t	n/a
91.858	0.1645	183716	keystroke_i	i	n/a
91.962	0.1945	183924	keystroke_o	o	n/a
92.0675	0.134	184135	keystroke_n	n	n/a
92.1715	0.09	184343	keystroke_Key.space	Key.space	n/a
92.3215	0.196	184643	keystroke_p	p	n/a
92.4565	0.165	184913	keystroke_l	l	n/a
92.5915	0.136	185183	keystroke_a	a	n/a
92.6815	0.1355	185363	keystroke_e	e	n/a
93.1165	0.06	186233	keystroke_Key.backspace	Key.backspace	n/a
93.2515	0.075	186503	keystroke_Key.backspace	Key.backspace	n/a
93.3275	0.104	186655	keystroke_e	e	n/a
93.4165	0.1805	186833	keystroke_a	a	n/a
93.552	0.105	187104	keystroke_s	s	n/a
93.807	0.0745	187614	keystroke_e	e	n/a
94.077	0.105	188154	keystroke_d	d	n/a
94.2715	0.015	188543	keystroke_Key.space	Key.space	n/a
94.4215	0.075	188843	keystroke_e	e	n/a
94.797	0.075	189594	keystroke_Key.backspace	Key.backspace	n/a
95.067	0.105	190134	keystroke_b	b	n/a
95.157	0.12	190314	keystroke_e	e	n/a
95.337	0.165	190674	keystroke_c	c	n/a
95.442	0.135	190884	keystroke_a	a	n/a
95.652	0.105	191304	keystroke_m	m	n/a
95.802	0.09	191604	keystroke_e	e	n/a
95.982	0.105	191964	keystroke_Key.space	Key.space	n/a
96.447	0.12	192894	keystroke_b	b	n/a
96.522	0.21	193044	keystroke_o	o	n/a
96.672	0.21	193344	keystroke_u	u	n/a
96.867	0.03	193734	keystroke_n	n	n/a
97.152	0.09	194304	keystroke_Key.backspace	Key.backspace	n/a
97.392	0.075	194784	keystroke_g	g	n/a
97.512	0.195	195024	keystroke_h	h	n/a
97.722	0.0295	195444	keystroke_t	t	n/a
98.2205	0.004	196441	keystroke_Key.enter	Key.enter	n/a
98.237	13.1635	196474	prompt	n/a	powerpoint wife wheat newsletters\n
98.503	0.0455	197006	keystroke_o	o	n/a
98.518	0.097	197036	keystroke_w	w	n/a
98.565	0.0665	197130	keystroke_e	e	n/a
98.648	0.015	197296	keystroke_r	r	n/a
98.678	0.045	197356	keystroke_p	p	n/a
98.693	0.06	197386	keystroke_o	o	n/a
98.873	0.1655	197746	keystroke_i	i	n/a
98.9635	0.15	197927	keystroke_n	n	n/a
99.1285	0.09	198257	keystroke_t	t	n/a
99.2625	0.106	198525	keystroke_Key.space	Key.space	n/a
99.5925	0.106	199185	keystroke_w	w	n/a
100.1785	0.089	200357	keystroke_Key.backspace	Key.backspace	n/a
100.3725	0.075	200745	keystroke_Key.backspace	Key.backspace	n/a
100.553	0.045	201106	keystroke_Key.backspace	Key.backspace	n/a
100.7775	0.015	201555	keystroke_Key.backspace	Key.backspace	n/a
100.8675	0.075	201735	keystroke_Key.backspace	Key.backspace	n/a
101.0775	0.03	202155	keystroke_Key.backspace	Key.backspace	n/a
101.1975	0.06	202395	keystroke_Key.backspace	Key.backspace	n/a
101.3925	0.105	202785	keystroke_Key.backspace	Key.backspace	n/a
101.5425	0.09	203085	keystroke_Key.backspace	Key.backspace	n/a
101.797	0.0745	203594	keystroke_Key.backspace	Key.backspace	n/a
101.8865	0.0295	203773	keystroke_Key.backspace	Key.backspace	n/a
102.042	0.1785	204084	keystroke_Key.backspace	Key.backspace	n/a
102.2355	0.0605	204471	keystroke_Key.backspace	Key.backspace	n/a
102.842	0.135	205684	keystroke_o	o	n/a
102.992	0.1195	205984	keystroke_w	w	n/a
103.0515	0.135	206103	keystroke_e	e	n/a
103.367	0.075	206734	keystroke_r	r	n/a
103.562	0.18	207124	keystroke_p	p	n/a
103.682	0.105	207364	keystroke_o	o	n/a
103.922	0.12	207844	keystroke_i	i	n/a
104.012	0.1355	208024	keystroke_n	n	n/a
104.1175	0.104	208235	keystroke_t	t	n/a
104.2965	0.09	208593	keystroke_Key.space	Key.space	n/a
104.702	0.09	209404	keystroke_w	w	n/a
105.287	0.105	210574	keystroke_i	i	n/a
105.437	0.15	210874	keystroke_f	f	n/a
105.542	0.105	211084	keystroke_e	e	n/a
107.0275	0.105	214055	keystroke_Key.space	Key.space	n/a
107.1175	0.135	214235	keystroke_w	w	n/a
107.2375	0.09	214475	keystroke_h	h	n/a
107.3725	0.105	214745	keystroke_e	e	n/a
107.5375	0.105	215075	keystroke_a	a	n/a
107.7925	0.06	215585	keystroke_t	t	n/a
107.8375	0.09	215675	keystroke_Key.space	Key.space	n/a
108.0475	0.105	216095	keystroke_n	n	n/a
108.1375	0.15	216275	keystroke_e	e	n/a
108.2425	0.09	216485	keystroke_w	w	n/a
108.4825	0.075	216965	keystroke_s	s	n/a
108.6625	0.075	217325	keystroke_l	l	n/a
108.7825	0.12	217565	keystroke_e	e	n/a
109.307	0.075	218614	keystroke_t	t	n/a
109.472	0.075	218944	keystroke_t	t	n/a
109.592	0.1355	219184	keystroke_e	e	n/a
109.6975	0.1945	219395	keystroke_r	r	n/a
109.893	0.059	219786	keystroke_s	s	n/a
111.347	0.045	222694	keystroke_Key.enter	Key.enter	n/a
111.4045	8.786	222809	prompt	n/a	railway identifying guru router\n
112.052	0.2105	224104	keystroke_r	r	n/a
112.187	0.1355	224374	keystroke_a	a	n/a
112.3675	0.0595	224735	keystroke_i	i	n/a
112.547	0.1355	225094	keystroke_l	l	n/a
112.6975	0.075	225395	keystroke_y	y	n/a
113.042	0.075	226084	keystroke_Key.backspace	Key.backspace	n/a
113.132	0.165	226264	keystroke_w	w	n/a
113.267	0.135	226534	keystroke_a	a	n/a
113.4625	0.105	226925	keystroke_y	y	n/a
113.7025	0.09	227405	keystroke_Key.space	Key.space	n/a
114.017	0.1805	228034	keystroke_i	i	n/a
114.1225	0.15	228245	keystroke_n	n	n/a
114.8875	0.06	229775	keystroke_Key.backspace	Key.backspace	n/a
115.0375	0.15	230075	keystroke_d	d	n/a
115.0825	0.165	230165	keystroke_e	e	n/a
115.2775	0.165	230555	keystroke_n	n	n/a
115.968	0.12	231936	keystroke_t	t	n/a
116.103	0.105	232206	keystroke_i	i	n/a
116.3275	0.1055	232655	keystroke_f	f	n/a
116.523	0.09	233046	keystroke_y	y	n/a
116.658	0.27	233316	keystroke_i	i	n/a
116.763	0.18	233526	keystroke_n	n	n/a
117.018	0.03	234036	keystroke_g	g	n/a
117.423	0.089	234846	keystroke_Key.space	Key.space	n/a
118.278	0.09	236556	keystroke_g	g	n/a
118.383	0.12	236766	keystroke_u	u	n/a
118.488	0.105	236976	keystroke_r	r	n/a
118.653	0.135	237306	keystroke_u	u	n/a
118.758	0.105	237516	keystroke_Key.space	Key.space	n/a
118.938	0.09	237876	keystroke_r	r	n/a
119.013	0.2095	238026	keystroke_o	o	n/a
119.1775	0.1645	238355	keystroke_u	u	n/a
119.327	0.1505	238654	keystroke_t	t	n/a
119.4785	0.194	238957	keystroke_e	e	n/a
119.5975	0.12	239195	keystroke_r	r	n/a
120.0775	0.105	240155	keystroke_Key.enter	Key.enter	n/a
120.199	5.2505	240398	prompt	n/a	declined until tier holes\n
120.8575	0.135	241715	keystroke_d	d	n/a
120.9625	0.12	241925	keystroke_e	e	n/a
121.1575	0.135	242315	keystroke_c	c	n/a
121.3225	0.105	242645	keystroke_l	l	n/a
121.5625	0.135	243125	keystroke_i	i	n/a
121.6675	0.1955	243335	keystroke_n	n	n/a
121.803	0.09	243606	keystroke_e	e	n/a
121.998	0.09	243996	keystroke_d	d	n/a
122.073	0.09	244146	keystroke_Key.space	Key.space	n/a
122.238	0.12	244476	keystroke_u	u	n/a
122.283	0.135	244566	keystroke_n	n	n/a
122.463	0.09	244926	keystroke_t	t	n/a
122.883	0.075	245766	keystroke_i	i	n/a
123.078	0.18	246156	keystroke_l	l	n/a
123.213	0.15	246426	keystroke_Key.space	Key.space	n/a
123.618	0.135	247236	keystroke_t	t	n/a
123.798	0.15	247596	keystroke_i	i	n/a
123.963	0.135	247926	keystroke_e	e	n/a
124.023	0.165	248046	keystroke_r	r	n/a
124.143	0.12	248286	keystroke_Key.space	Key.space	n/a
124.308	0.12	248616	keystroke_h	h	n/a
124.353	0.105	248706	keystroke_o	o	n/a
124.608	0.1355	249216	keystroke_l	l	n/a
124.653	0.2105	249306	keystroke_e	e	n/a
124.8185	0.1185	249637	keystroke_s	s	n/a
125.358	0.09	250716	keystroke_Key.enter	Key.enter	n/a
125.4525	7.1285	250905	prompt	n/a	projection clock incident newark\n
126.0635	0.1045	252127	keystroke_p	p	n/a
126.183	0.105	252366	keystroke_r	r	n/a
126.273	0.06	252546	keystroke_o	o	n/a
126.423	0.135	252846	keystroke_j	j	n/a
126.513	0.09	253026	keystroke_e	e	n/a
126.573	0.18	253146	keystroke_c	c	n/a
126.873	0.105	253746	keystroke_t	t	n/a
126.933	0.18	253866	keystroke_i	i	n/a
127.053	0.15	254106	keystroke_o	o	n/a
127.128	0.15	254256	keystroke_n	n	n/a
127.218	0.105	254436	keystroke_Key.space	Key.space	n/a
127.368	0.135	254736	keystroke_c	c	n/a
127.488	0.075	254976	keystroke_l	l	n/a
127.668	0.075	255336	keystroke_o	o	n/a
127.803	0.15	255606	keystroke_c	c	n/a
127.863	0.18	255726	keystroke_k	k	n/a
128.028	0.105	256056	keystroke_Key.space	Key.space	n/a
128.2825	0.21	256565	keystroke_i	i	n/a
128.4175	0.12	256835	keystroke_n	n	n/a
128.6275	0.105	257255	keystroke_d	d	n/a
128.9275	0.075	257855	keystroke_Key.backspace	Key.backspace	n/a
129.0625	0.0905	258125	keystroke_c	c	n/a
129.1675	0.12	258335	keystroke_i	i	n/a
129.333	0.15	258666	keystroke_d	d	n/a
129.423	0.135	258846	keystroke_e	e	n/a
129.588	0.15	259176	keystroke_n	n	n/a
129.693	0.12	259386	keystroke_t	t	n/a
129.828	0.09	259656	keystroke_Key.space	Key.space	n/a
130.008	0.12	260016	keystroke_n	n	n/a
130.158	0.1645	260316	keystroke_e	e	n/a
130.3525	0.195	260705	keystroke_w	w	n/a
130.4875	0.165	260975	keystroke_a	a	n/a
130.6675	0.105	261335	keystroke_r	r	n/a
131.0275	0.045	262055	keystroke_d	d	n/a
131.5375	0.09	263075	keystroke_Key.backspace	Key.backspace	n/a
131.7925	0.09	263585	keystroke_k	k	n/a
132.4685	0.1045	264937	keystroke_Key.enter	Key.enter	n/a
132.5855	7.369	265171	prompt	n/a	comfort mens abilities willow\n
133.2635	0.135	266527	keystroke_c	c	n/a
133.3835	0.15	266767	keystroke_o	o	n/a
133.4585	0.12	266917	keystroke_m	m	n/a
133.5635	0.105	267127	keystroke_f	f	n/a
133.6685	0.135	267337	keystroke_o	o	n/a
133.7885	0.1495	267577	keystroke_r	r	n/a
133.893	0.135	267786	keystroke_t	t	n/a
134.013	0.075	268026	keystroke_Key.space	Key.space	n/a
134.133	0.105	268266	keystroke_m	m	n/a
134.193	0.18	268386	keystroke_e	e	n/a
134.448	0.135	268896	keystroke_n	n	n/a
134.568	0.12	269136	keystroke_s	s	n/a
134.703	0.12	269406	keystroke_Key.space	Key.space	n/a
134.988	0.105	269976	keystroke_a	a	n/a
135.378	0.0755	270756	keystroke_b	b	n/a
135.5735	0.1045	271147	keystroke_i	i	n/a
135.783	0.09	271566	keystroke_l	l	n/a
135.933	0.0905	271866	keystroke_i	i	n/a
136.0685	0.0895	272137	keystroke_t	t	n/a
136.173	0.12	272346	keystroke_i	i	n/a
136.278	0.2105	272556	keystroke_e	e	n/a
136.398	0.1355	272796	keystroke_s	s	n/a
136.548	0.105	273096	keystroke_Key.space	Key.space	n/a
136.8935	0.1045	273787	keystroke_w	w	n/a
137.013	0.105	274026	keystroke_i	i	n/a
137.238	0.075	274476	keystroke_l	l	n/a
137.373	0.09	274746	keystroke_l	l	n/a
138.393	0.15	276786	keystroke_o	o	n/a
138.678	0.015	277356	keystroke_w	w	n/a
139.8035	0.15	279607	keystroke_Key.enter	Key.enter	n/a
139.9595	6.422	279919	prompt	n/a	ringtone commissions delivered chronic\n
140.808	0.225	281616	keystroke_r	r	n/a
140.943	0.15	281886	keystroke_i	i	n/a
141.048	0.12	282096	keystroke_n	n	n/a
141.123	0.075	282246	keystroke_g	g	n/a
141.288	0.0905	282576	keystroke_t	t	n/a
141.348	0.1805	282696	keystroke_o	o	n/a
141.4385	0.165	282877	keystroke_n	n	n/a
141.5885	0.1045	283177	keystroke_e	e	n/a
141.723	0.0905	283446	keystroke_Key.space	Key.space	n/a
142.0085	0.105	284017	keystroke_c	c	n/a
142.0835	0.24	284167	keystroke_o	o	n/a
142.2485	0.105	284497	keystroke_m	m	n/a
142.4735	0.105	284947	keystroke_m	m	n/a
142.5635	0.15	285127	keystroke_i	i	n/a
142.7585	0.045	285517	keystroke_s	s	n/a
142.9085	0.113	285817	keystroke_s	s	n/a
142.9985	0.134	285997	keystroke_i	i	n/a
143.0885	0.195	286177	keystroke_o	o	n/a
143.1935	0.104	286387	keystroke_n	n	n/a
143.3735	0.029	286747	keystroke_s	s	n/a
143.4335	0.075	286867	keystroke_Key.space	Key.space	n/a
143.613	0.075	287226	keystroke_d	d	n/a
143.658	0.09	287316	keystroke_e	e	n/a
143.763	0.06	287526	keystroke_l	l	n/a
143.928	0.09	287856	keystroke_i	i	n/a
143.973	0.0905	287946	keystroke_v	v	n/a
144.1685	0.135	288337	keystroke_e	e	n/a
144.2885	0.18	288577	keystroke_r	r	n/a
144.4085	0.12	288817	keystroke_e	e	n/a
144.6335	0.09	289267	keystroke_d	d	n/a
144.7085	0.105	289417	keystroke_Key.space	Key.space	n/a
144.8885	0.075	289777	keystroke_c	c	n/a
144.9485	0.09	289897	keystroke_h	h	n/a
145.0685	0.09	290137	keystroke_r	r	n/a
145.1885	0.165	290377	keystroke_o	o	n/a
145.3085	0.12	290617	keystroke_n	n	n/a
145.4585	0.15	290917	keystroke_i	i	n/a
145.6835	0.09	291367	keystroke_c	c	n/a
146.1935	0.18	292387	keystroke_Key.enter	Key.enter	n/a
146.3865	7.4285	292773	prompt	n/a	joseph considers reduces parliament\n
147.3785	0.15	294757	keystroke_j	j	n/a
147.4685	0.15	294937	keystroke_o	o	n/a
147.5735	0.24	295147	keystroke_s	s	n/a
147.7385	0.165	295477	keystroke_e	e	n/a
147.9035	0.225	295807	keystroke_p	p	n/a
148.0535	0.21	296107	keystroke_h	h	n/a
148.1885	0.12	296377	keystroke_Key.space	Key.space	n/a
148.3535	0.105	296707	keystroke_c	c	n/a
148.4735	0.21	296947	keystroke_o	o	n/a
148.5485	0.165	297097	keystroke_n	n	n/a
148.7285	0.09	297457	keystroke_s	s	n/a
148.8485	0.135	297697	keystroke_i	i	n/a
148.9685	0.1195	297937	keystroke_d	d	n/a
149.103	0.36	298206	keystroke_e	e	n/a
149.268	0.24	298536	keystroke_r	r	n/a
149.403	0.225	298806	keystroke_s	s	n/a
149.629	0.044	299258	keystroke_Key.space	Key.space	n/a
149.748	0.075	299496	keystroke_r	r	n/a
149.778	0.12	299556	keystroke_e	e	n/a
150.003	0.09	300006	keystroke_d	d	n/a
150.123	0.18	300246	keystroke_u	u	n/a
150.243	0.075	300486	keystroke_c	c	n/a
150.453	0.2105	300906	keystroke_e	e	n/a
150.5885	0.135	301177	keystroke_s	s	n/a
150.7085	0.12	301417	keystroke_Key.space	Key.space	n/a
151.1585	0.165	302317	keystroke_p	p	n/a
151.2485	0.24	302497	keystroke_a	a	n/a
151.3985	0.135	302797	keystroke_r	r	n/a
152.328	0.225	304656	keystroke_l	l	n/a
152.478	0.165	304956	keystroke_i	i	n/a
152.613	0.105	305226	keystroke_a	a	n/a
152.8235	0.0895	305647	keystroke_m	m	n/a
152.883	0.105	305766	keystroke_e	e	n/a
153.003	0.12	306006	keystroke_n	n	n/a
153.093	0.105	306186	keystroke_t	t	n/a
153.693	0.12	307386	keystroke_Key.enter	Key.enter	n/a
153.8175	8.015	307635	prompt	n/a	asus grounds year keith\n
154.368	0.105	308736	keystroke_a	a	n/a
154.563	0.09	309126	keystroke_s	s	n/a
154.698	0.12	309396	keystroke_u	u	n/a
154.788	0.075	309576	keystroke_s	s	n/a
154.908	0.105	309816	keystroke_Key.space	Key.space	n/a
155.178	0.15	310356	keystroke_g	g	n/a
155.268	0.15	310536	keystroke_r	r	n/a
155.508	0.24	311016	keystroke_o	o	n/a
155.673	0.21	311346	keystroke_u	u	n/a
155.808	0.195	311616	keystroke_p	p	n/a
156.2285	0.09	312457	keystroke_Key.backspace	Key.backspace	n/a
156.8135	0.15	313627	keystroke_n	n	n/a
156.9485	0.12	313897	keystroke_d	d	n/a
156.9785	0.195	313957	keystroke_s	s	n/a
157.234	0.105	314468	keystroke_Key.space	Key.space	n/a
158.044	0.12	316088	keystroke_y	y	n/a
158.074	0.255	316148	keystroke_e	e	n/a
158.1935	0.2405	316387	keystroke_a	a	n/a
158.404	0.135	316808	keystroke_r	r	n/a
158.524	0.09	317048	keystroke_Key.space	Key.space	n/a
158.929	0.105	317858	keystroke_k	k	n/a
159.004	0.105	318008	keystroke_e	e	n/a
159.139	0.105	318278	keystroke_i	i	n/a
159.244	0.09	318488	keystroke_t	t	n/a
159.409	0.105	318818	keystroke_h	h	n/a
161.766	0.057	323532	keystroke_Key.enter	Key.enter	n/a
161.837	6.13	323674	prompt	n/a	edited bonds bhutan generic\n
162.4385	0.075	324877	keystroke_e	e	n/a
162.6035	0.09	325207	keystroke_d	d	n/a
162.7685	0.045	325537	keystroke_i	i	n/a
162.8885	0.15	325777	keystroke_t	t	n/a
162.9935	0.105	325987	keystroke_e	e	n/a
163.2035	0.105	326407	keystroke_d	d	n/a
163.2935	0.09	326587	keystroke_Key.space	Key.space	n/a
163.4735	0.105	326947	keystroke_b	b	n/a
163.5635	0.21	327127	keystroke_o	o	n/a
163.7285	0.105	327457	keystroke_n	n	n/a
163.7745	0.209	327549	keystroke_d	d	n/a
163.8635	0.195	327727	keystroke_s	s	n/a
164.1935	0.09	328387	keystroke_Key.space	Key.space	n/a
164.4035	0.09	328807	keystroke_b	b	n/a
165.2435	0.135	330487	keystroke_h	h	n/a
165.3335	0.18	330667	keystroke_u	u	n/a
165.4985	0.165	330997	keystroke_t	t	n/a
165.6335	0.135	331267	keystroke_a	a	n/a
165.7985	0.1505	331597	keystroke_n	n	n/a
165.9035	0.105	331807	keystroke_Key.space	Key.space	n/a
166.279	0.1195	332558	keystroke_g	g	n/a
166.518	0.105	333036	keystroke_e	e	n/a
166.6835	0.09	333367	keystroke_n	n	n/a
166.7435	0.2245	333487	keystroke_e	e	n/a
166.878	0.1355	333756	keystroke_r	r	n/a
167.0285	0.12	334057	keystroke_i	i	n/a
167.2085	0.1045	334417	keystroke_c	c	n/a
167.868	0.0905	335736	keystroke_Key.enter	Key.enter	n/a
167.971	7.624	335942	prompt	n/a	closely applicants repeat division\n
168.603	0.09	337206	keystroke_c	c	n/a
168.7095	0.074	337419	keystroke_l	l	n/a
168.9035	0.09	337807	keystroke_o	o	n/a
168.9485	0.225	337897	keystroke_s	s	n/a
169.1135	0.135	338227	keystroke_e	e	n/a
169.2785	0.09	338557	keystroke_l	l	n/a
169.3985	0.09	338797	keystroke_y	y	n/a
169.5335	0.06	339067	keystroke_Key.space	Key.space	n/a
169.6235	0.12	339247	keystroke_a	a	n/a
169.7135	0.09	339427	keystroke_p	p	n/a
169.8785	0.255	339757	keystroke_p	p	n/a
170.0285	0.15	340057	keystroke_l	l	n/a
170.2835	0.1345	340567	keystroke_i	i	n/a
170.3135	0.1795	340627	keystroke_c	c	n/a
170.419	0.149	340838	keystroke_a	a	n/a
170.643	0.0915	341286	keystroke_n	n	n/a
170.7485	0.18	341497	keystroke_t	t	n/a
170.8535	0.15	341707	keystroke_s	s	n/a
171.1535	0.12	342307	keystroke_Key.space	Key.space	n/a
171.3485	0.135	342697	keystroke_r	r	n/a
171.4385	0.105	342877	keystroke_e	e	n/a
171.9785	0.09	343957	keystroke_p	p	n/a
172.0835	0.15	344167	keystroke_e	e	n/a
172.1885	0.135	344377	keystroke_a	a	n/a
172.4285	0.12	344857	keystroke_t	t	n/a
172.5935	0.135	345187	keystroke_Key.space	Key.space	n/a
172.7735	0.09	345547	keystroke_d	d	n/a
172.8785	0.105	345757	keystroke_i	i	n/a
173.0885	0.15	346177	keystroke_v	v	n/a
173.4335	0.015	346867	keystroke_i	i	n/a
173.4635	0.12	346927	keystroke_d	d	n/a
174.0785	0.075	348157	keystroke_Key.backspace	Key.backspace	n/a
174.2885	0.105	348577	keystroke_s	s	n/a
174.4535	0.21	348907	keystroke_i	i	n/a
174.5285	0.21	349057	keystroke_o	o	n/a
174.7085	0.165	349417	keystroke_n	n	n/a
175.4885	0.105	350977	keystroke_Key.enter	Key.enter	n/a
175.5995	4.421	351199	prompt	n/a	wake dealer cream sally\n
176.2085	0.195	352417	keystroke_w	w	n/a
176.3285	0.15	352657	keystroke_a	a	n/a
176.4635	0.105	352927	keystroke_k	k	n/a
176.5535	0.135	353107	keystroke_e	e	n/a
176.6735	0.06	353347	keystroke_Key.space	Key.space	n/a
176.7935	0.15	353587	keystroke_d	d	n/a
176.8835	0.225	353767	keystroke_e	e	n/a
177.0185	0.165	354037	keystroke_a	a	n/a
177.1685	0.105	354337	keystroke_l	l	n/a
177.4385	0.165	354877	keystroke_e	e	n/a
177.5285	0.135	355057	keystroke_r	r	n/a
177.6935	0.09	355387	keystroke_Key.space	Key.space	n/a
177.8735	0.09	355747	keystroke_c	c	n/a
178.1285	0.15	356257	keystroke_r	r	n/a
178.2035	0.165	356407	keystroke_e	e	n/a
178.4285	0.15	356857	keystroke_a	a	n/a
178.5335	0.225	357067	keystroke_m	m	n/a
178.6685	0.12	357337	keystroke_Key.space	Key.space	n/a
178.8335	0.18	357667	keystroke_s	s	n/a
178.9235	0.1505	357847	keystroke_a	a	n/a
179.104	0.06	358208	keystroke_l	l	n/a
179.224	0.09	358448	keystroke_l	l	n/a
179.344	0.09	358688	keystroke_y	y	n/a
179.914	0.105	359828	keystroke_Key.enter	Key.enter	n/a
180.023	5.2025	360046	prompt	n/a	crossing role nutten life\n
180.694	0.12	361388	keystroke_c	c	n/a
180.919	0.105	361838	keystroke_r	r	n/a
181.039	0.075	362078	keystroke_o	o	n/a
181.129	0.09	362258	keystroke_s	s	n/a
181.2795	0.12	362559	keystroke_s	s	n/a
181.3695	0.21	362739	keystroke_i	i	n/a
181.459	0.1655	362918	keystroke_n	n	n/a
181.564	0.0905	363128	keystroke_g	g	n/a
181.6695	0.09	363339	keystroke_Key.space	Key.space	n/a
181.7445	0.104	363489	keystroke_r	r	n/a
181.8945	0.119	363789	keystroke_o	o	n/a
182.0585	0.09	364117	keystroke_l	l	n/a
182.164	0.075	364328	keystroke_e	e	n/a
182.254	0.075	364508	keystroke_Key.space	Key.space	n/a
182.389	0.135	364778	keystroke_n	n	n/a
182.494	0.18	364988	keystroke_u	u	n/a
182.629	0.06	365258	keystroke_t	t	n/a
182.764	0.15	365528	keystroke_t	t	n/a
182.899	0.09	365798	keystroke_e	e	n/a
182.974	0.135	365948	keystroke_n	n	n/a
183.049	0.09	366098	keystroke_Key.space	Key.space	n/a
183.214	0.075	366428	keystroke_l	l	n/a
183.394	0.09	366788	keystroke_i	i	n/a
183.469	0.165	366938	keystroke_f	f	n/a
183.574	0.105	367148	keystroke_e	e	n/a
185.059	0.165	370118	keystroke_Key.enter	Key.enter	n/a
185.229	10.2225	370458	prompt	n/a	panasonic geographic making army\n
185.8695	0.105	371739	keystroke_p	p	n/a
185.9595	0.09	371919	keystroke_a	a	n/a
186.0795	0.075	372159	keystroke_n	n	n/a
186.1695	0.12	372339	keystroke_a	a	n/a
186.5895	0.09	373179	keystroke_s	s	n/a
186.7685	0.181	373537	keystroke_o	o	n/a
186.8445	0.195	373689	keystroke_n	n	n/a
186.9945	0.195	373989	keystroke_i	i	n/a
187.1745	0.089	374349	keystroke_c	c	n/a
187.2785	0.12	374557	keystroke_Key.space	Key.space	n/a
187.5635	0.15	375127	keystroke_g	g	n/a
187.6395	0.135	375279	keystroke_e	e	n/a
188.1045	0.1345	376209	keystroke_o	o	n/a
188.524	0.135	377048	keystroke_g	g	n/a
188.614	0.135	377228	keystroke_r	r	n/a
188.854	0.135	377708	keystroke_a	a	n/a
188.929	0.21	377858	keystroke_p	p	n/a
189.079	0.21	378158	keystroke_h	h	n/a
189.199	0.18	378398	keystroke_i	i	n/a
189.364	0.12	378728	keystroke_c	c	n/a
189.469	0.09	378938	keystroke_Key.space	Key.space	n/a
189.664	0.15	379328	keystroke_m	m	n/a
189.799	0.045	379598	keystroke_a	a	n/a
189.844	0.105	379688	keystroke_k	k	n/a
190.009	0.195	380018	keystroke_i	i	n/a
190.099	0.135	380198	keystroke_n	n	n/a
190.219	0.12	380438	keystroke_g	g	n/a
190.324	0.1795	380648	keystroke_Key.space	Key.space	n/a
190.5185	0.09	381037	keystroke_a	a	n/a
190.5785	0.1055	381157	keystroke_r	r	n/a
190.7285	0.12	381457	keystroke_m	m	n/a
190.8635	0.09	381727	keystroke_y	y	n/a
195.4415	0.001	390883	keystroke_Key.enter	Key.enter	n/a
195.4555	8.2875	390911	prompt	n/a	active creations millennium statistical\n
196.1145	0.12	392229	keystroke_a	a	n/a
196.2795	0.105	392559	keystroke_c	c	n/a
196.5345	0.045	393069	keystroke_t	t	n/a
196.6245	0.165	393249	keystroke_i	i	n/a
196.7445	0.225	393489	keystroke_v	v	n/a
196.8495	0.18	393699	keystroke_e	e	n/a
197.0595	0.105	394119	keystroke_Key.space	Key.space	n/a
197.3445	0.075	394689	keystroke_c	c	n/a
197.5695	0.15	395139	keystroke_r	r	n/a
197.6295	0.255	395259	keystroke_e	e	n/a
197.7945	0.165	395589	keystroke_a	a	n/a
197.9445	0.135	395889	keystroke_t	t	n/a
198.0345	0.24	396069	keystroke_i	i	n/a
198.1695	0.18	396339	keystroke_o	o	n/a
198.2895	0.12	396579	keystroke_n	n	n/a
198.3945	0.105	396789	keystroke_s	s	n/a
198.4695	0.1045	396939	keystroke_Key.space	Key.space	n/a
198.634	0.075	397268	keystroke_m	m	n/a
198.754	0.09	397508	keystroke_i	i	n/a
198.994	0.03	397988	keystroke_l	l	n/a
199.099	0.1205	398198	keystroke_l	l	n/a
199.2645	0.09	398529	keystroke_e	e	n/a
199.3985	0.151	398797	keystroke_n	n	n/a
199.5045	0.074	399009	keystroke_i	i	n/a
199.8485	0.075	399697	keystroke_Key.backspace	Key.backspace	n/a
200.09	0.135	400180	keystroke_n	n	n/a
200.194	0.225	400388	keystroke_i	i	n/a
200.434	0.075	400868	keystroke_u	u	n/a
200.674	0.165	401348	keystroke_m	m	n/a
200.794	0.105	401588	keystroke_Key.space	Key.space	n/a
201.079	0.076	402158	keystroke_s	s	n/a
201.304	0.105	402608	keystroke_t	t	n/a
201.53	0.09	403060	keystroke_a	a	n/a
201.725	0.09	403450	keystroke_t	t	n/a
201.844	0.135	403688	keystroke_i	i	n/a
202.1135	0.03	404227	keystroke_s	s	n/a
202.3235	0.0605	404647	keystroke_t	t	n/a
202.429	0.105	404858	keystroke_i	i	n/a
202.579	0.225	405158	keystroke_c	c	n/a
202.729	0.151	405458	keystroke_a	a	n/a
202.865	0.104	405730	keystroke_l	l	n/a
203.629	0.105	407258	keystroke_Key.enter	Key.enter	n/a
203.747	7.594	407494	prompt	n/a	modelling bestsellers structured threats\n
204.319	0.15	408638	keystroke_m	m	n/a
204.409	0.135	408818	keystroke_o	o	n/a
204.5	0.149	409000	keystroke_d	d	n/a
204.589	0.15	409178	keystroke_e	e	n/a
204.754	0.03	409508	keystroke_l	l	n/a
204.904	0.06	409808	keystroke_l	l	n/a
205.174	0.24	410348	keystroke_i	i	n/a
205.249	0.195	410498	keystroke_n	n	n/a
205.429	0.031	410858	keystroke_g	g	n/a
205.504	0.075	411008	keystroke_Key.space	Key.space	n/a
205.744	0.06	411488	keystroke_b	b	n/a
205.819	0.12	411638	keystroke_e	e	n/a
206.014	0.09	412028	keystroke_s	s	n/a
206.224	0.1055	412448	keystroke_t	t	n/a
206.4495	0.105	412899	keystroke_e	e	n/a
206.8245	0.09	413649	keystroke_Key.backspace	Key.backspace	n/a
206.8995	0.165	413799	keystroke_s	s	n/a
207.0045	0.12	414009	keystroke_e	e	n/a
207.1695	0.045	414339	keystroke_l	l	n/a
207.3195	0.06	414639	keystroke_l	l	n/a
207.3945	0.21	414789	keystroke_e	e	n/a
207.5295	0.225	415059	keystroke_r	r	n/a
207.6645	0.15	415329	keystroke_s	s	n/a
207.8895	0.135	415779	keystroke_Key.space	Key.space	n/a
208.1295	0.09	416259	keystroke_s	s	n/a
208.3695	0.165	416739	keystroke_t	t	n/a
208.4745	0.135	416949	keystroke_r	r	n/a
208.6695	0.135	417339	keystroke_u	u	n/a
208.8195	0.135	417639	keystroke_c	c	n/a
209.0745	0.105	418149	keystroke_t	t	n/a
209.2545	0.09	418509	keystroke_u	u	n/a
209.2845	0.165	418569	keystroke_r	r	n/a
209.3895	0.15	418779	keystroke_e	e	n/a
209.7045	0.105	419409	keystroke_d	d	n/a
209.8245	0.105	419649	keystroke_Key.space	Key.space	n/a
209.9445	0.12	419889	keystroke_t	t	n/a
210.0795	0.09	420159	keystroke_h	h	n/a
210.2295	0.1795	420459	keystroke_r	r	n/a
210.3345	0.1945	420669	keystroke_e	e	n/a
210.604	0.045	421208	keystroke_a	a	n/a
210.784	0.12	421568	keystroke_t	t	n/a
210.979	0.09	421958	keystroke_s	s	n/a
211.234	0.105	422468	keystroke_Key.enter	Key.enter	n/a
211.3455	7.1875	422691	prompt	n/a	epson rehab modified broke\n
212.104	0.1655	424208	keystroke_e	e	n/a
212.4795	0.165	424959	keystroke_p	p	n/a
212.6895	0.075	425379	keystroke_s	s	n/a
212.7795	0.195	425559	keystroke_o	o	n/a
212.8995	0.195	425799	keystroke_n	n	n/a
213.1095	0.0895	426219	keystroke_Key.space	Key.space	n/a
213.214	0.1055	426428	keystroke_r	r	n/a
213.289	0.0905	426578	keystroke_e	e	n/a
214.774	0.09	429548	keystroke_h	h	n/a
214.894	0.12	429788	keystroke_a	a	n/a
215.044	0.105	430088	keystroke_b	b	n/a
215.119	0.09	430238	keystroke_Key.space	Key.space	n/a
215.359	0.18	430718	keystroke_m	m	n/a
215.479	0.135	430958	keystroke_o	o	n/a
215.6445	0.1345	431289	keystroke_d	d	n/a
215.794	0.0905	431588	keystroke_i	i	n/a
215.8995	0.075	431799	keystroke_f	f	n/a
216.0345	0.12	432069	keystroke_i	i	n/a
216.1555	0.074	432311	keystroke_e	e	n/a
216.3645	0.1495	432729	keystroke_d	d	n/a
216.515	0.0445	433030	keystroke_Key.space	Key.space	n/a
216.6345	0.075	433269	keystroke_b	b	n/a
216.7395	0.075	433479	keystroke_r	r	n/a
216.9195	0.15	433839	keystroke_o	o	n/a
216.9645	0.15	433929	keystroke_k	k	n/a
217.1295	0.0755	434259	keystroke_e	e	n/a
218.3895	0.135	436779	keystroke_Key.enter	Key.enter	n/a
218.5385	7.149	437077	prompt	n/a	eclipse friday parker doll\n
219.1095	0.12	438219	keystroke_e	e	n/a
219.3345	0.06	438669	keystroke_c	c	n/a
219.4095	0.12	438819	keystroke_l	l	n/a
219.6795	0.165	439359	keystroke_i	i	n/a
219.7995	0.1645	439599	keystroke_p	p	n/a
220.039	0.105	440078	keystroke_e	e	n/a
220.4145	0.09	440829	keystroke_Key.backspace	Key.backspace	n/a
220.5645	0.165	441129	keystroke_s	s	n/a
220.6545	0.15	441309	keystroke_e	e	n/a
220.7895	0.1205	441579	keystroke_Key.space	Key.space	n/a
220.97	0.09	441940	keystroke_f	f	n/a
221.12	0.075	442240	keystroke_i	i	n/a
221.18	0.045	442360	keystroke_r	r	n/a
221.525	0.06	443050	keystroke_Key.backspace	Key.backspace	n/a
221.645	0.09	443290	keystroke_Key.backspace	Key.backspace	n/a
221.75	0.0895	443500	keystroke_r	r	n/a
221.8845	0.09	443769	keystroke_i	i	n/a
222.0495	0.1795	444099	keystroke_d	d	n/a
222.1395	0.1645	444279	keystroke_a	a	n/a
222.409	0.12	444818	keystroke_y	y	n/a
222.499	0.1205	444998	keystroke_Key.space	Key.space	n/a
222.77	0.104	445540	keystroke_p	p	n/a
222.979	0.165	445958	keystroke_a	a	n/a
223.174	0.12	446348	keystroke_r	r	n/a
223.369	0.105	446738	keystroke_k	k	n/a
223.865	0.18	447730	keystroke_e	e	n/a
223.999	0.105	447998	keystroke_r	r	n/a
224.089	0.12	448178	keystroke_Key.space	Key.space	n/a
224.269	0.135	448538	keystroke_d	d	n/a
224.419	0.03	448838	keystroke_o	o	n/a
224.554	0.075	449108	keystroke_l	l	n/a
224.705	0.074	449410	keystroke_l	l	n/a
225.529	0.15	451058	keystroke_Key.enter	Key.enter	n/a
225.6915	6.7095	451383	prompt	n/a	list she'd somebody's passport\n
226.309	0.09	452618	keystroke_l	l	n/a
226.489	0.105	452978	keystroke_i	i	n/a
226.564	0.24	453128	keystroke_s	s	n/a
226.729	0.165	453458	keystroke_t	t	n/a
226.909	0.09	453818	keystroke_Key.space	Key.space	n/a
227.1195	0.1195	454239	keystroke_s	s	n/a
227.194	0.09	454388	keystroke_h	h	n/a
227.299	0.09	454598	keystroke_e	e	n/a
227.404	0.105	454808	keystroke_'	'	n/a
227.689	0.1505	455378	keystroke_d	d	n/a
228.17	0.075	456340	keystroke_Key.space	Key.space	n/a
228.275	0.105	456550	keystroke_s	s	n/a
228.365	0.18	456730	keystroke_o	o	n/a
228.455	0.165	456910	keystroke_m	m	n/a
228.575	0.105	457150	keystroke_e	e	n/a
228.965	0.105	457930	keystroke_b	b	n/a
229.025	0.12	458050	keystroke_o	o	n/a
229.16	0.105	458320	keystroke_d	d	n/a
229.325	0.09	458650	keystroke_y	y	n/a
229.55	0.105	459100	keystroke_'	'	n/a
229.67	0.12	459340	keystroke_s	s	n/a
229.805	0.105	459610	keystroke_Key.space	Key.space	n/a
230.015	0.15	460030	keystroke_p	p	n/a
230.09	0.15	460180	keystroke_a	a	n/a
230.21	0.12	460420	keystroke_s	s	n/a
230.39	0.105	460780	keystroke_s	s	n/a
230.705	0.12	461410	keystroke_w	w	n/a
231.17	0.075	462340	keystroke_Key.backspace	Key.backspace	n/a
231.425	0.195	462850	keystroke_p	p	n/a
231.545	0.165	463090	keystroke_o	o	n/a
231.605	0.195	463210	keystroke_r	r	n/a
231.74	0.12	463480	keystroke_t	t	n/a
232.295	0.105	464590	keystroke_Key.enter	Key.enter	n/a
232.4045	8.0455	464809	prompt	n/a	scenarios criminal overseas exceed\n
233.105	0.15	466210	keystroke_s	s	n/a
233.42	0.075	466840	keystroke_c	c	n/a
233.6	0.09	467200	keystroke_e	e	n/a
233.705	0.12	467410	keystroke_n	n	n/a
233.795	0.12	467590	keystroke_a	a	n/a
233.9455	0.1345	467891	keystroke_r	r	n/a
234.065	0.12	468130	keystroke_i	i	n/a
234.14	0.179	468280	keystroke_o	o	n/a
234.305	0.09	468610	keystroke_s	s	n/a
234.364	0.121	468728	keystroke_Key.space	Key.space	n/a
234.605	0.03	469210	keystroke_m	m	n/a
234.904	0.076	469808	keystroke_Key.backspace	Key.backspace	n/a
235.024	0.076	470048	keystroke_c	c	n/a
235.234	0.09	470468	keystroke_r	r	n/a
235.295	0.21	470590	keystroke_i	i	n/a
235.52	0.1045	471040	keystroke_m	m	n/a
235.5945	0.2405	471189	keystroke_i	i	n/a
235.745	0.12	471490	keystroke_n	n	n/a
235.835	0.1045	471670	keystroke_a	a	n/a
235.9995	0.1205	471999	keystroke_l	l	n/a
236.27	0.0595	472540	keystroke_Key.space	Key.space	n/a
236.4195	0.135	472839	keystroke_o	o	n/a
236.5855	0.074	473171	keystroke_v	v	n/a
236.8255	0.2245	473651	keystroke_e	e	n/a
236.9445	0.1355	473889	keystroke_r	r	n/a
237.154	0.12	474308	keystroke_s	s	n/a
237.364	0.1055	474728	keystroke_e	e	n/a
237.5895	0.181	475179	keystroke_a	a	n/a
237.7395	0.12	475479	keystroke_s	s	n/a
238.1145	0.12	476229	keystroke_Key.space	Key.space	n/a
238.3395	0.075	476679	keystroke_e	e	n/a
238.5945	0.105	477189	keystroke_c	c	n/a
239.1495	0.09	478299	keystroke_Key.backspace	Key.backspace	n/a
239.3905	0.059	478781	keystroke_x	x	n/a
239.5695	0.075	479139	keystroke_c	c	n/a
239.7495	0.061	479499	keystroke_e	e	n/a
239.8995	0.061	479799	keystroke_e	e	n/a
240.0795	0.045	480159	keystroke_d	d	n/a
240.3345	0.1055	480669	keystroke_Key.enter	Key.enter	n/a
240.455	11.438	480910	prompt	n/a	consoles minneapolis exists cons\n
241.28	0.09	482560	keystroke_c	c	n/a
241.4	0.18	482800	keystroke_o	o	n/a
241.52	0.12	483040	keystroke_n	n	n/a
241.7	0.105	483400	keystroke_s	s	n/a
241.82	0.06	483640	keystroke_o	o	n/a
242.015	0.09	484030	keystroke_l	l	n/a
242.3895	0.18	484779	keystroke_e	e	n/a
242.5245	0.12	485049	keystroke_s	s	n/a
242.6745	0.09	485349	keystroke_Key.space	Key.space	n/a
242.8245	0.105	485649	keystroke_m	m	n/a
242.9145	0.105	485829	keystroke_i	i	n/a
243.1245	0.06	486249	keystroke_n	n	n/a
243.2595	0.09	486519	keystroke_n	n	n/a
243.3645	0.255	486729	keystroke_e	e	n/a
243.5145	0.15	487029	keystroke_a	a	n/a
243.6945	0.2105	487389	keystroke_p	p	n/a
243.83	0.135	487660	keystroke_o	o	n/a
244.1	0.1045	488200	keystroke_l	l	n/a
244.3695	0.135	488739	keystroke_i	i	n/a
244.5495	0.09	489099	keystroke_s	s	n/a
244.6695	0.09	489339	keystroke_Key.space	Key.space	n/a
244.8345	0.045	489669	keystroke_e	e	n/a
245.0295	0.105	490059	keystroke_x	x	n/a
245.2545	0.045	490509	keystroke_i	i	n/a
245.8695	0.0905	491739	keystroke_s	s	n/a
246.08	0.1495	492160	keystroke_t	t	n/a
246.2005	0.12	492401	keystroke_s	s	n/a
246.7705	0.105	493541	keystroke_Key.space	Key.space	n/a
246.9055	0.089	493811	keystroke_c	c	n/a
246.9795	0.195	493959	keystroke_o	o	n/a
247.0995	0.091	494199	keystroke_n	n	n/a
247.2045	0.091	494409	keystroke_s	s	n/a
249.2305	0.09	498461	keystroke_s	s	n/a
249.7695	0.075	499539	keystroke_Key.backspace	Key.backspace	n/a
251.81	0.075	503620	keystroke_Key.enter	Key.enter	n/a
251.8975	5.119	503795	prompt	n/a	computers layers drawn laos\n
252.62	0.075	505240	keystroke_c	c	n/a
252.74	0.135	505480	keystroke_o	o	n/a
252.8	0.135	505600	keystroke_m	m	n/a
252.905	0.09	505810	keystroke_p	p	n/a
253.085	0.12	506170	keystroke_u	u	n/a
253.16	0.105	506320	keystroke_t	t	n/a
253.355	0.165	506710	keystroke_e	e	n/a
253.43	0.225	506860	keystroke_r	r	n/a
253.58	0.12	507160	keystroke_s	s	n/a
253.685	0.09	507370	keystroke_Key.space	Key.space	n/a
253.85	0.09	507700	keystroke_l	l	n/a
253.955	0.075	507910	keystroke_a	a	n/a
254.09	0.105	508180	keystroke_y	y	n/a
254.21	0.27	508420	keystroke_e	e	n/a
254.345	0.21	508690	keystroke_r	r	n/a
254.495	0.12	508990	keystroke_s	s	n/a
254.6	0.12	509200	keystroke_Key.space	Key.space	n/a
254.795	0.12	509590	keystroke_d	d	n/a
255.125	0.24	510250	keystroke_r	r	n/a
255.32	0.195	510640	keystroke_a	a	n/a
255.425	0.165	510850	keystroke_w	w	n/a
255.62	0.135	511240	keystroke_n	n	n/a
255.725	0.15	511450	keystroke_Key.space	Key.space	n/a
256.01	0.075	512020	keystroke_l	l	n/a
256.22	0.15	512440	keystroke_a	a	n/a
256.46	0.105	512920	keystroke_o	o	n/a
256.61	0.06	513220	keystroke_s	s	n/a
256.91	0.105	513820	keystroke_Key.enter	Key.enter	n/a
257.0195	5.5615	514039	prompt	n/a	investing comparative album carpet\n
257.69	0.165	515380	keystroke_i	i	n/a
257.78	0.18	515560	keystroke_n	n	n/a
257.93	0.165	515860	keystroke_v	v	n/a
258.065	0.24	516130	keystroke_e	e	n/a
258.2	0.18	516400	keystroke_s	s	n/a
258.335	0.12	516670	keystroke_t	t	n/a
258.47	0.12	516940	keystroke_i	i	n/a
258.53	0.135	517060	keystroke_n	n	n/a
258.68	0.075	517360	keystroke_g	g	n/a
258.77	0.075	517540	keystroke_Key.space	Key.space	n/a
258.935	0.105	517870	keystroke_c	c	n/a
259.025	0.18	518050	keystroke_o	o	n/a
259.115	0.12	518230	keystroke_m	m	n/a
259.19	0.195	518380	keystroke_p	p	n/a
259.295	0.091	518590	keystroke_a	a	n/a
259.475	0.18	518950	keystroke_r	r	n/a
259.61	0.12	519220	keystroke_a	a	n/a
259.895	0.075	519790	keystroke_t	t	n/a
260	0.135	520000	keystroke_i	i	n/a
260.12	0.165	520240	keystroke_v	v	n/a
260.24	0.12	520480	keystroke_e	e	n/a
260.345	0.105	520690	keystroke_Key.space	Key.space	n/a
260.465	0.12	520930	keystroke_a	a	n/a
260.555	0.075	521110	keystroke_l	l	n/a
260.735	0.15	521470	keystroke_b	b	n/a
260.8255	0.1195	521651	keystroke_u	u	n/a
261.05	0.165	522100	keystroke_m	m	n/a
261.2	0.105	522400	keystroke_Key.space	Key.space	n/a
261.32	0.21	522640	keystroke_c	c	n/a
261.455	0.135	522910	keystroke_a	a	n/a
261.755	0.105	523510	keystroke_r	r	n/a
261.905	0.12	523810	keystroke_p	p	n/a
262.0105	0.2095	524021	keystroke_e	e	n/a
262.16	0.105	524320	keystroke_t	t	n/a
262.52	0.06	525040	keystroke_Key.enter	Key.enter	n/a
262.5845	6.229	525169	prompt	n/a	smooth earned features griffin\n
263.195	0.105	526390	keystroke_s	s	n/a
263.315	0.105	526630	keystroke_m	m	n/a
263.405	0.105	526810	keystroke_o	o	n/a
263.615	0.105	527230	keystroke_o	o	n/a
263.78	0.075	527560	keystroke_t	t	n/a
263.885	0.135	527770	keystroke_h	h	n/a
263.96	0.135	527920	keystroke_Key.space	Key.space	n/a
264.05	0.225	528100	keystroke_e	e	n/a
264.2	0.18	528400	keystroke_a	a	n/a
264.335	0.135	528670	keystroke_r	r	n/a
264.47	0.105	528940	keystroke_n	n	n/a
264.56	0.105	529120	keystroke_e	e	n/a
264.8	0.045	529600	keystroke_d	d	n/a
264.89	0.06	529780	keystroke_Key.space	Key.space	n/a
264.995	0.165	529990	keystroke_f	f	n/a
265.085	0.15	530170	keystroke_e	e	n/a
265.4	0.06	530800	keystroke_a	a	n/a
265.6095	0.0905	531219	keystroke_t	t	n/a
265.745	0.165	531490	keystroke_u	u	n/a
265.865	0.18	531730	keystroke_r	r	n/a
265.955	0.225	531910	keystroke_e	e	n/a
266.105	0.12	532210	keystroke_s	s	n/a
266.24	0.105	532480	keystroke_Key.space	Key.space	n/a
266.495	0.09	532990	keystroke_d	d	n/a
267.065	0.075	534130	keystroke_Key.backspace	Key.backspace	n/a
267.26	0.15	534520	keystroke_g	g	n/a
267.38	0.09	534760	keystroke_r	r	n/a
267.5	0.135	535000	keystroke_i	i	n/a
267.665	0.09	535330	keystroke_f	f	n/a
267.815	0.105	535630	keystroke_f	f	n/a
268.025	0.09	536050	keystroke_i	i	n/a
268.19	0.075	536380	keystroke_n	n	n/a
268.685	0.12	537370	keystroke_Key.enter	Key.enter	n/a
268.8175	7.7805	537635	prompt	n/a	basement preservation horses realtor\n
269.57	0.105	539140	keystroke_b	b	n/a
269.645	0.165	539290	keystroke_a	a	n/a
269.795	0.075	539590	keystroke_s	s	n/a
269.975	0.09	539950	keystroke_e	e	n/a
270.11	0.045	540220	keystroke_m	m	n/a
270.215	0.075	540430	keystroke_e	e	n/a
270.305	0.105	540610	keystroke_n	n	n/a
270.62	0.105	541240	keystroke_t	t	n/a
270.95	0.105	541900	keystroke_Key.space	Key.space	n/a
271.745	0.105	543490	keystroke_p	p	n/a
271.865	0.15	543730	keystroke_r	r	n/a
271.97	0.12	543940	keystroke_e	e	n/a
272.075	0.2245	544150	keystroke_s	s	n/a
272.2545	0.165	544509	keystroke_e	e	n/a
272.3455	0.12	544691	keystroke_r	r	n/a
272.6595	0.135	545319	keystroke_v	v	n/a
272.7645	0.105	545529	keystroke_a	a	n/a
273.0505	0.074	546101	keystroke_t	t	n/a
273.1395	0.18	546279	keystroke_i	i	n/a
273.2595	0.27	546519	keystroke_o	o	n/a
273.3955	0.194	546791	keystroke_n	n	n/a
273.5145	0.12	547029	keystroke_Key.space	Key.space	n/a
273.7855	0.149	547571	keystroke_h	h	n/a
273.9195	0.135	547839	keystroke_o	o	n/a
274.0105	0.2095	548021	keystroke_r	r	n/a
274.1445	0.1955	548289	keystroke_s	s	n/a
274.295	0.2405	548590	keystroke_e	e	n/a
274.4605	0.1345	548921	keystroke_s	s	n/a
274.67	0.09	549340	keystroke_Key.space	Key.space	n/a
274.82	0.1355	549640	keystroke_r	r	n/a
274.91	0.09	549820	keystroke_e	e	n/a
275.12	0.09	550240	keystroke_a	a	n/a
275.27	0.09	550540	keystroke_l	l	n/a
275.54	0.09	551080	keystroke_t	t	n/a
275.6755	0.1645	551351	keystroke_o	o	n/a
276.1255	0.1195	552251	keystroke_r	r	n/a
276.485	0.105	552970	keystroke_Key.enter	Key.enter	n/a
276.602	15.6115	553204	prompt	n/a	collar compliance pharmaceuticals packages\n
277.28	0.09	554560	keystroke_c	c	n/a
277.385	0.045	554770	keystroke_o	o	n/a
277.535	0.045	555070	keystroke_l	l	n/a
277.655	0.105	555310	keystroke_l	l	n/a
277.73	0.195	555460	keystroke_a	a	n/a
277.895	0.09	555790	keystroke_r	r	n/a
278	0.075	556000	keystroke_Key.space	Key.space	n/a
278.18	0.1195	556360	keystroke_c	c	n/a
278.21	0.2105	556420	keystroke_o	o	n/a
278.3595	0.21	556719	keystroke_p	p	n/a
278.4355	0.045	556871	keystroke_m	m	n/a
278.5545	0.09	557109	keystroke_l	l	n/a
278.7645	0.105	557529	keystroke_i	i	n/a
278.8395	0.075	557679	keystroke_s	s	n/a
279.1545	0.09	558309	keystroke_Key.backspace	Key.backspace	n/a
279.2895	0.075	558579	keystroke_a	a	n/a
279.4545	0.105	558909	keystroke_n	n	n/a
279.5895	0.165	559179	keystroke_c	c	n/a
279.7245	0.12	559449	keystroke_e	e	n/a
279.8595	0.09	559719	keystroke_Key.space	Key.space	n/a
279.9795	0.21	559959	keystroke_p	p	n/a
280.1595	0.09	560319	keystroke_h	h	n/a
280.985	0.045	561970	keystroke_Key.backspace	Key.backspace	n/a
281.165	0.06	562330	keystroke_Key.backspace	Key.backspace	n/a
281.375	0.06	562750	keystroke_Key.backspace	Key.backspace	n/a
281.57	0.045	563140	keystroke_Key.backspace	Key.backspace	n/a
281.78	0.075	563560	keystroke_Key.backspace	Key.backspace	n/a
281.99	0.06	563980	keystroke_Key.backspace	Key.backspace	n/a
282.215	0.0305	564430	keystroke_Key.backspace	Key.backspace	n/a
282.3955	0.06	564791	keystroke_Key.backspace	Key.backspace	n/a
282.5905	0.06	565181	keystroke_Key.backspace	Key.backspace	n/a
282.7855	0.06	565571	keystroke_Key.backspace	Key.backspace	n/a
283.0105	0.044	566021	keystroke_Key.backspace	Key.backspace	n/a
283.7455	0.105	567491	keystroke_m	m	n/a
283.7905	0.135	567581	keystroke_p	p	n/a
284.0155	0.06	568031	keystroke_l	l	n/a
284.1795	0.061	568359	keystroke_i	i	n/a
284.2705	0.06	568541	keystroke_a	a	n/a
284.3455	0.104	568691	keystroke_n	n	n/a
284.5105	0.225	569021	keystroke_c	c	n/a
284.6005	0.15	569201	keystroke_e	e	n/a
284.7505	0.089	569501	keystroke_Key.space	Key.space	n/a
284.9755	0.209	569951	keystroke_p	p	n/a
285.1255	0.135	570251	keystroke_h	h	n/a
285.2305	0.1945	570461	keystroke_a	a	n/a
285.395	0.105	570790	keystroke_r	r	n/a
285.545	0.105	571090	keystroke_m	m	n/a
285.695	0.135	571390	keystroke_a	a	n/a
286.145	0.135	572290	keystroke_c	c	n/a
286.325	0.105	572650	keystroke_e	e	n/a
286.46	0.135	572920	keystroke_u	u	n/a
286.64	0.06	573280	keystroke_t	t	n/a
286.745	0.075	573490	keystroke_i	i	n/a
286.925	0.12	573850	keystroke_c	c	n/a
287	0.12	574000	keystroke_a	a	n/a
287.105	0.12	574210	keystroke_l	l	n/a
287.255	0.075	574510	keystroke_s	s	n/a
287.345	0.075	574690	keystroke_Key.space	Key.space	n/a
287.465	0.12	574930	keystroke_p	p	n/a
287.54	0.18	575080	keystroke_a	a	n/a
287.66	0.165	575320	keystroke_c	c	n/a
287.84	0.105	575680	keystroke_k	k	n/a
287.915	0.075	575830	keystroke_a	a	n/a
288.1255	0.1795	576251	keystroke_g	g	n/a
288.17	0.045	576340	keystroke_e	e	n/a
288.29	0.09	576580	keystroke_e	e	n/a
288.6505	0.0745	577301	keystroke_Key.backspace	Key.backspace	n/a
288.8005	0.09	577601	keystroke_s	s	n/a
292.117	0.088	584234	keystroke_Key.enter	Key.enter	n/a
292.2205	4.591	584441	prompt	n/a	prime technical strip weed\n
293.165	0.09	586330	keystroke_p	p	n/a
293.27	0.075	586540	keystroke_r	r	n/a
293.39	0.15	586780	keystroke_i	i	n/a
293.48	0.135	586960	keystroke_m	m	n/a
293.57	0.09	587140	keystroke_e	e	n/a
293.675	0.105	587350	keystroke_Key.space	Key.space	n/a
293.81	0.15	587620	keystroke_t	t	n/a
293.885	0.12	587770	keystroke_e	e	n/a
294.185	0.09	588370	keystroke_c	c	n/a
294.35	0.075	588700	keystroke_h	h	n/a
294.59	0.09	589180	keystroke_n	n	n/a
294.665	0.12	589330	keystroke_i	i	n/a
294.755	0.15	589510	keystroke_c	c	n/a
294.845	0.165	589690	keystroke_a	a	n/a
294.995	0.09	589990	keystroke_l	l	n/a
295.055	0.12	590110	keystroke_Key.space	Key.space	n/a
295.22	0.06	590440	keystroke_s	s	n/a
295.43	0.165	590860	keystroke_t	t	n/a
295.52	0.135	591040	keystroke_r	r	n/a
295.625	0.09	591250	keystroke_i	i	n/a
295.685	0.165	591370	keystroke_p	p	n/a
295.835	0.09	591670	keystroke_Key.space	Key.space	n/a
295.91	0.135	591820	keystroke_w	w	n/a
296.03	0.105	592060	keystroke_e	e	n/a
296.21	0.09	592420	keystroke_e	e	n/a
296.465	0.045	592930	keystroke_d	d	n/a
296.75	0.06	593500	keystroke_Key.enter	Key.enter	n/a
296.8155	7.7285	593631	prompt	n/a	unsubscribe workshops actors train\n
297.59	0.15	595180	keystroke_u	u	n/a
297.68	0.15	595360	keystroke_n	n	n/a
297.89	0.09	595780	keystroke_s	s	n/a
297.98	0.21	595960	keystroke_u	u	n/a
298.1	0.12	596200	keystroke_b	b	n/a
298.31	0.105	596620	keystroke_s	s	n/a
298.46	0.09	596920	keystroke_c	c	n/a
298.685	0.075	597370	keystroke_r	r	n/a
298.775	0.165	597550	keystroke_i	i	n/a
298.865	0.135	597730	keystroke_b	b	n/a
298.955	0.09	597910	keystroke_e	e	n/a
299.09	0.075	598180	keystroke_Key.space	Key.space	n/a
299.225	0.0745	598450	keystroke_w	w	n/a
299.315	0.075	598630	keystroke_o	o	n/a
299.45	0.075	598900	keystroke_r	r	n/a
299.795	0.105	599590	keystroke_k	k	n/a
300.4105	0.075	600821	keystroke_s	s	n/a
300.5755	0.12	601151	keystroke_h	h	n/a
300.6505	0.2845	601301	keystroke_o	o	n/a
300.845	0.165	601690	keystroke_p	p	n/a
301.0855	0.105	602171	keystroke_s	s	n/a
301.3405	0.045	602681	keystroke_Key.space	Key.space	n/a
301.4005	0.09	602801	keystroke_a	a	n/a
301.5805	0.075	603161	keystroke_c	c	n/a
301.8355	0.09	603671	keystroke_t	t	n/a
301.9705	0.12	603941	keystroke_o	o	n/a
302.0755	0.1945	604151	keystroke_r	r	n/a
302.195	0.135	604390	keystroke_s	s	n/a
302.435	0.075	604870	keystroke_Key.space	Key.space	n/a
302.84	0.2105	605680	keystroke_t	t	n/a
302.9905	0.135	605981	keystroke_r	r	n/a
303.3055	0.09	606611	keystroke_a	a	n/a
303.3805	0.21	606761	keystroke_i	i	n/a
303.5455	0.105	607091	keystroke_n	n	n/a
304.43	0.105	608860	keystroke_Key.enter	Key.enter	n/a
304.548	4.7135	609096	prompt	n/a	gather alias wild archives\n
305.33	0.165	610660	keystroke_g	g	n/a
305.435	0.105	610870	keystroke_a	a	n/a
305.645	0.09	611290	keystroke_t	t	n/a
305.75	0.135	611500	keystroke_h	h	n/a
305.87	0.09	611740	keystroke_e	e	n/a
305.915	0.12	611830	keystroke_r	r	n/a
306.005	0.075	612010	keystroke_Key.space	Key.space	n/a
306.11	0.105	612220	keystroke_a	a	n/a
306.23	0.06	612460	keystroke_l	l	n/a
306.365	0.12	612730	keystroke_i	i	n/a
306.47	0.195	612940	keystroke_a	a	n/a
306.59	0.15	613180	keystroke_s	s	n/a
306.77	0.075	613540	keystroke_Key.space	Key.space	n/a
306.965	0.12	613930	keystroke_w	w	n/a
307.07	0.045	614140	keystroke_i	i	n/a
307.235	0.075	614470	keystroke_l	l	n/a
307.325	0.09	614650	keystroke_d	d	n/a
307.475	0.075	614950	keystroke_Key.space	Key.space	n/a
307.52	0.105	615040	keystroke_a	a	n/a
307.7	0.075	615400	keystroke_r	r	n/a
307.97	0.121	615940	keystroke_c	c	n/a
308.045	0.135	616090	keystroke_h	h	n/a
308.135	0.165	616270	keystroke_i	i	n/a
308.24	0.225	616480	keystroke_v	v	n/a
308.39	0.255	616780	keystroke_e	e	n/a
308.54	0.165	617080	keystroke_s	s	n/a
309.125	0.135	618250	keystroke_Key.enter	Key.enter	n/a
309.264	6.5295	618528	prompt	n/a	preventing hottest reserve normal\n
309.8755	0.1495	619751	keystroke_p	p	n/a
310.055	0.15	620110	keystroke_r	r	n/a
310.145	0.1205	620290	keystroke_e	e	n/a
310.4455	0.075	620891	keystroke_e	e	n/a
310.8655	0.1495	621731	keystroke_Key.backspace	Key.backspace	n/a
310.94	0.165	621880	keystroke_v	v	n/a
311.075	0.105	622150	keystroke_e	e	n/a
311.24	0.165	622480	keystroke_n	n	n/a
311.42	0.075	622840	keystroke_t	t	n/a
311.48	0.135	622960	keystroke_i	i	n/a
311.6	0.12	623200	keystroke_n	n	n/a
311.735	0.075	623470	keystroke_g	g	n/a
311.825	0.06	623650	keystroke_Key.space	Key.space	n/a
311.96	0.165	623920	keystroke_h	h	n/a
312.035	0.135	624070	keystroke_o	o	n/a
312.14	0.0755	624280	keystroke_t	t	n/a
312.29	0.15	624580	keystroke_t	t	n/a
312.38	0.2705	624760	keystroke_e	e	n/a
312.515	0.2105	625030	keystroke_s	s	n/a
312.6805	0.15	625361	keystroke_t	t	n/a
312.8745	0.106	625749	keystroke_Key.space	Key.space	n/a
313.0255	0.15	626051	keystroke_r	r	n/a
313.1155	0.18	626231	keystroke_e	e	n/a
313.2355	0.254	626471	keystroke_s	s	n/a
313.4	0.2995	626800	keystroke_e	e	n/a
313.6545	0.18	627309	keystroke_r	r	n/a
313.9395	0.1515	627879	keystroke_v	v	n/a
314.075	0.091	628150	keystroke_e	e	n/a
314.21	0.09	628420	keystroke_Key.space	Key.space	n/a
314.435	0.121	628870	keystroke_n	n	n/a
314.511	0.119	629022	keystroke_o	o	n/a
314.585	0.105	629170	keystroke_r	r	n/a
314.72	0.0895	629440	keystroke_m	m	n/a
314.8395	0.0915	629679	keystroke_a	a	n/a
314.976	0.089	629952	keystroke_l	l	n/a
315.6645	0.12	631329	keystroke_Key.enter	Key.enter	n/a
315.7975	9.582	631595	prompt	n/a	denver dish wedding wesley\n
316.4745	0.225	632949	keystroke_d	d	n/a
316.5945	0.135	633189	keystroke_e	e	n/a
316.9245	0.075	633849	keystroke_n	n	n/a
317.4495	0.105	634899	keystroke_v	v	n/a
317.6145	0.195	635229	keystroke_e	e	n/a
317.7495	0.12	635499	keystroke_r	r	n/a
317.8705	0.104	635741	keystroke_Key.space	Key.space	n/a
318.0945	0.105	636189	keystroke_d	d	n/a
318.1695	0.105	636339	keystroke_i	i	n/a
318.3195	0.09	636639	keystroke_s	s	n/a
318.4245	0.135	636849	keystroke_h	h	n/a
318.5145	0.12	637029	keystroke_Key.space	Key.space	n/a
318.6645	0.09	637329	keystroke_w	w	n/a
318.7995	0.09	637599	keystroke_i	i	n/a
319.0395	0.09	638079	keystroke_s	s	n/a
319.4445	0.09	638889	keystroke_Key.backspace	Key.backspace	n/a
319.6095	0.06	639219	keystroke_Key.backspace	Key.backspace	n/a
319.6545	0.105	639309	keystroke_e	e	n/a
319.8795	0.075	639759	keystroke_d	d	n/a
320.0595	0.075	640119	keystroke_d	d	n/a
320.1645	0.15	640329	keystroke_i	i	n/a
320.2395	0.105	640479	keystroke_n	n	n/a
320.5395	0.15	641079	keystroke_g	g	n/a
320.8395	0.06	641679	keystroke_Key.space	Key.space	n/a
321.125	0.18	642250	keystroke_w	w	n/a
321.245	0.105	642490	keystroke_e	e	n/a
321.59	0.105	643180	keystroke_s	s	n/a
321.77	0.12	643540	keystroke_l	l	n/a
321.905	0.06	643810	keystroke_y	y	n/a
322.205	0.075	644410	keystroke_Key.backspace	Key.backspace	n/a
322.295	0.1055	644590	keystroke_e	e	n/a
322.4905	0.105	644981	keystroke_y	y	n/a
325.3125	0.058	650625	keystroke_Key.enter	Key.enter	n/a
325.3835	5.868	650767	prompt	n/a	dryer misc phantom homeland\n
326.3755	0.09	652751	keystroke_d	d	n/a
326.6155	0.105	653231	keystroke_r	r	n/a
326.7355	0.12	653471	keystroke_y	y	n/a
326.8705	0.12	653741	keystroke_e	e	n/a
326.9295	0.135	653859	keystroke_r	r	n/a
327.0355	0.09	654071	keystroke_Key.space	Key.space	n/a
327.1855	0.164	654371	keystroke_m	m	n/a
327.2905	0.195	654581	keystroke_i	i	n/a
327.3945	0.151	654789	keystroke_s	s	n/a
327.4545	0.196	654909	keystroke_c	c	n/a
327.6645	0.076	655329	keystroke_Key.space	Key.space	n/a
327.8155	0.105	655631	keystroke_p	p	n/a
327.9955	0.09	655991	keystroke_h	h	n/a
328.1455	0.074	656291	keystroke_a	a	n/a
328.2355	0.135	656471	keystroke_n	n	n/a
328.6255	0.119	657251	keystroke_t	t	n/a
328.7305	0.179	657461	keystroke_o	o	n/a
328.8505	0.09	657701	keystroke_n	n	n/a
329.1945	0.06	658389	keystroke_Key.backspace	Key.backspace	n/a
329.4505	0.165	658901	keystroke_m	m	n/a
329.5545	0.135	659109	keystroke_Key.space	Key.space	n/a
329.8095	0.121	659619	keystroke_h	h	n/a
329.9445	0.165	659889	keystroke_o	o	n/a
330.0505	0.134	660101	keystroke_m	m	n/a
330.1995	0.076	660399	keystroke_e	e	n/a
330.4845	0.09	660969	keystroke_l	l	n/a
330.5895	0.09	661179	keystroke_a	a	n/a
330.7255	0.104	661451	keystroke_n	n	n/a
330.8145	0.12	661629	keystroke_d	d	n/a
331.1595	0.09	662319	keystroke_Key.enter	Key.enter	n/a
331.255	6.5215	662510	prompt	n/a	consultation descriptions brunette laura\n
331.9845	0.105	663969	keystroke_c	c	n/a
332.0595	0.1505	664119	keystroke_o	o	n/a
332.165	0.1055	664330	keystroke_n	n	n/a
332.255	0.105	664510	keystroke_s	s	n/a
332.375	0.06	664750	keystroke_u	u	n/a
332.555	0.12	665110	keystroke_l	l	n/a
332.69	0.12	665380	keystroke_t	t	n/a
332.825	0.1655	665650	keystroke_a	a	n/a
332.9445	0.135	665889	keystroke_t	t	n/a
333.0655	0.1945	666131	keystroke_i	i	n/a
333.2	0.225	666400	keystroke_o	o	n/a
333.305	0.18	666610	keystroke_n	n	n/a
333.44	0.12	666880	keystroke_Key.space	Key.space	n/a
333.62	0.165	667240	keystroke_d	d	n/a
333.725	0.18	667450	keystroke_e	e	n/a
333.92	0.15	667840	keystroke_s	s	n/a
334.071	0.104	668142	keystroke_c	c	n/a
334.28	0.09	668560	keystroke_r	r	n/a
334.385	0.15	668770	keystroke_i	i	n/a
334.461	0.119	668922	keystroke_p	p	n/a
334.5945	0.24	669189	keystroke_t	t	n/a
334.6845	0.255	669369	keystroke_i	i	n/a
334.8795	0.255	669759	keystroke_o	o	n/a
334.9095	0.24	669819	keystroke_n	n	n/a
335.0445	0.12	670089	keystroke_s	s	n/a
335.1795	0.045	670359	keystroke_Key.space	Key.space	n/a
335.3295	0.105	670659	keystroke_b	b	n/a
335.5395	0.075	671079	keystroke_r	r	n/a
335.749	0.031	671498	keystroke_u	u	n/a
335.9595	0.105	671919	keystroke_n	n	n/a
336.0495	0.06	672099	keystroke_e	e	n/a
336.2295	0.045	672459	keystroke_t	t	n/a
336.3645	0.135	672729	keystroke_t	t	n/a
336.4695	0.12	672939	keystroke_e	e	n/a
336.5905	0.134	673181	keystroke_Key.space	Key.space	n/a
336.7995	0.105	673599	keystroke_l	l	n/a
336.8745	0.1055	673749	keystroke_a	a	n/a
337.055	0.09	674110	keystroke_u	u	n/a
337.19	0.195	674380	keystroke_r	r	n/a
337.31	0.135	674620	keystroke_a	a	n/a
337.7	0.075	675400	keystroke_Key.enter	Key.enter	n/a
337.779	7.4895	675558	prompt	n/a	hosted huntington audit welfare\n
338.405	0.105	676810	keystroke_h	h	n/a
338.465	0.18	676930	keystroke_o	o	n/a
338.57	0.18	677140	keystroke_s	s	n/a
338.72	0.15	677440	keystroke_t	t	n/a
338.825	0.105	677650	keystroke_e	e	n/a
339.035	0.12	678070	keystroke_d	d	n/a
339.11	0.12	678220	keystroke_Key.space	Key.space	n/a
339.965	0.12	679930	keystroke_h	h	n/a
340.04	0.2095	680080	keystroke_u	u	n/a
340.205	0.1645	680410	keystroke_n	n	n/a
340.3545	0.09	680709	keystroke_t	t	n/a
340.4895	0.165	680979	keystroke_i	i	n/a
340.5945	0.12	681189	keystroke_n	n	n/a
340.7445	0.105	681489	keystroke_g	g	n/a
341.0145	0.075	682029	keystroke_t	t	n/a
341.1045	0.18	682209	keystroke_o	o	n/a
341.2395	0.15	682479	keystroke_n	n	n/a
341.3445	0.09	682689	keystroke_Key.space	Key.space	n/a
341.6295	0.09	683259	keystroke_a	a	n/a
341.7945	0.0905	683589	keystroke_u	u	n/a
341.9	0.075	683800	keystroke_d	d	n/a
342.005	0.105	684010	keystroke_i	i	n/a
342.14	0.1055	684280	keystroke_t	t	n/a
342.2605	0.18	684521	keystroke_Key.space	Key.space	n/a
342.5305	0.1495	685061	keystroke_w	w	n/a
342.59	0.135	685180	keystroke_e	e	n/a
342.77	0.0905	685540	keystroke_l	l	n/a
343.1455	0.195	686291	keystroke_f	f	n/a
343.2955	0.135	686591	keystroke_a	a	n/a
343.7005	0.15	687401	keystroke_r	r	n/a
343.8205	0.134	687641	keystroke_e	e	n/a
345.1395	0.12	690279	keystroke_Key.enter	Key.enter	n/a
345.2725	7.4505	690545	prompt	n/a	specializing society breath uniform\n
345.8895	0.105	691779	keystroke_s	s	n/a
346.0545	0.195	692109	keystroke_p	p	n/a
346.2645	0.105	692529	keystroke_e	e	n/a
346.5345	0.1355	693069	keystroke_c	c	n/a
346.67	0.0595	693340	keystroke_i	i	n/a
346.7895	0.1355	693579	keystroke_a	a	n/a
346.9095	0.06	693819	keystroke_l	l	n/a
347.0445	0.105	694089	keystroke_i	i	n/a
347.1645	0.075	694329	keystroke_s	s	n/a
347.5845	0.09	695169	keystroke_Key.backspace	Key.backspace	n/a
347.7195	0.09	695439	keystroke_z	z	n/a
347.8545	0.24	695709	keystroke_i	i	n/a
347.9595	0.165	695919	keystroke_n	n	n/a
348.1095	0.105	696219	keystroke_g	g	n/a
348.2295	0.075	696459	keystroke_Key.space	Key.space	n/a
348.3795	0.135	696759	keystroke_s	s	n/a
348.4695	0.15	696939	keystroke_o	o	n/a
348.6795	0.12	697359	keystroke_c	c	n/a
348.7845	0.09	697569	keystroke_i	i	n/a
348.9045	0.135	697809	keystroke_e	e	n/a
349.0545	0.18	698109	keystroke_t	t	n/a
349.3095	0.15	698619	keystroke_y	y	n/a
349.4145	0.12	698829	keystroke_Key.space	Key.space	n/a
349.8345	0.195	699669	keystroke_b	b	n/a
349.9395	0.165	699879	keystroke_r	r	n/a
350.0445	0.135	700089	keystroke_e	e	n/a
350.2095	0.195	700419	keystroke_a	a	n/a
350.3445	0.135	700689	keystroke_t	t	n/a
350.4945	0.135	700989	keystroke_h	h	n/a
350.7045	0.12	701409	keystroke_Key.space	Key.space	n/a
351.0345	0.165	702069	keystroke_u	u	n/a
351.155	0.2095	702310	keystroke_n	n	n/a
351.3045	0.165	702609	keystroke_i	i	n/a
351.62	0.105	703240	keystroke_f	f	n/a
351.74	0.15	703480	keystroke_o	o	n/a
351.9345	0.1055	703869	keystroke_r	r	n/a
352.055	0.075	704110	keystroke_m	m	n/a
352.61	0.105	705220	keystroke_Key.enter	Key.enter	n/a
352.7275	5.029	705455	prompt	n/a	possess point legends meter\n
353.24	0.18	706480	keystroke_p	p	n/a
353.36	0.165	706720	keystroke_o	o	n/a
353.495	0.09	706990	keystroke_s	s	n/a
353.675	0.09	707350	keystroke_s	s	n/a
353.84	0.09	707680	keystroke_e	e	n/a
354.005	0.09	708010	keystroke_s	s	n/a
354.17	0.12	708340	keystroke_s	s	n/a
354.35	0.03	708700	keystroke_Key.space	Key.space	n/a
354.44	0.165	708880	keystroke_p	p	n/a
354.53	0.135	709060	keystroke_o	o	n/a
354.755	0.15	709510	keystroke_i	i	n/a
354.89	0.12	709780	keystroke_n	n	n/a
355.025	0.105	710050	keystroke_t	t	n/a
355.115	0.09	710230	keystroke_Key.space	Key.space	n/a
355.28	0.165	710560	keystroke_l	l	n/a
355.37	0.09	710740	keystroke_e	e	n/a
355.535	0.15	711070	keystroke_g	g	n/a
355.625	0.135	711250	keystroke_e	e	n/a
355.865	0.105	711730	keystroke_n	n	n/a
355.985	0.18	711970	keystroke_d	d	n/a
356.105	0.1505	712210	keystroke_s	s	n/a
356.24	0.0605	712480	keystroke_Key.space	Key.space	n/a
356.3755	0.105	712751	keystroke_m	m	n/a
356.4655	0.105	712931	keystroke_e	e	n/a
356.6005	0.135	713201	keystroke_t	t	n/a
356.7945	0.165	713589	keystroke_e	e	n/a
356.9445	0.12	713889	keystroke_r	r	n/a
357.6345	0.12	715269	keystroke_Key.enter	Key.enter	n/a
357.764	6.2475	715528	prompt	n/a	chassis duplicate heading muscle\n
358.6395	0.105	717279	keystroke_c	c	n/a
358.7595	0.105	717519	keystroke_h	h	n/a
358.8795	0.12	717759	keystroke_a	a	n/a
359.0745	0.09	718149	keystroke_s	s	n/a
359.2395	0.105	718479	keystroke_s	s	n/a
359.4045	0.105	718809	keystroke_i	i	n/a
359.5545	0.09	719109	keystroke_s	s	n/a
359.7345	0.09	719469	keystroke_Key.space	Key.space	n/a
360.0345	0.09	720069	keystroke_d	d	n/a
360.1545	0.105	720309	keystroke_u	u	n/a
360.2445	0.1205	720489	keystroke_p	p	n/a
360.47	0.09	720940	keystroke_l	l	n/a
360.65	0.105	721300	keystroke_i	i	n/a
360.71	0.135	721420	keystroke_c	c	n/a
360.785	0.12	721570	keystroke_a	a	n/a
361.07	0.135	722140	keystroke_t	t	n/a
361.145	0.15	722290	keystroke_e	e	n/a
361.235	0.105	722470	keystroke_Key.space	Key.space	n/a
361.37	0.105	722740	keystroke_h	h	n/a
361.505	0.18	723010	keystroke_e	e	n/a
361.655	0.2095	723310	keystroke_a	a	n/a
361.7895	0.15	723579	keystroke_d	d	n/a
361.9245	0.15	723849	keystroke_i	i	n/a
362.0295	0.135	724059	keystroke_n	n	n/a
362.1795	0.1205	724359	keystroke_g	g	n/a
362.33	0.075	724660	keystroke_Key.space	Key.space	n/a
362.495	0.075	724990	keystroke_m	m	n/a
362.645	0.135	725290	keystroke_u	u	n/a
362.75	0.15	725500	keystroke_s	s	n/a
362.855	0.165	725710	keystroke_c	c	n/a
363.035	0.09	726070	keystroke_l	l	n/a
363.17	0.105	726340	keystroke_e	e	n/a
363.875	0.135	727750	keystroke_Key.enter	Key.enter	n/a
364.015	7.1885	728030	prompt	n/a	counters circular conspiracy tiles\n
364.655	0.09	729310	keystroke_c	c	n/a
364.76	0.255	729520	keystroke_o	o	n/a
364.895	0.21	729790	keystroke_u	u	n/a
365	0.165	730000	keystroke_n	n	n/a
365.09	0.09	730180	keystroke_t	t	n/a
365.27	0.27	730540	keystroke_e	e	n/a
365.39	0.18	730780	keystroke_r	r	n/a
365.495	0.165	730990	keystroke_s	s	n/a
365.63	0.075	731260	keystroke_Key.space	Key.space	n/a
365.8255	0.09	731651	keystroke_c	c	n/a
365.93	0.09	731860	keystroke_i	i	n/a
366.02	0.09	732040	keystroke_r	r	n/a
366.2	0.1655	732400	keystroke_c	c	n/a
366.305	0.075	732610	keystroke_u	u	n/a
366.5	0.165	733000	keystroke_l	l	n/a
366.59	0.195	733180	keystroke_a	a	n/a
366.725	0.105	733450	keystroke_r	r	n/a
366.86	0.12	733720	keystroke_Key.space	Key.space	n/a
367.055	0.075	734110	keystroke_c	c	n/a
367.085	0.18	734170	keystroke_o	o	n/a
367.22	0.12	734440	keystroke_n	n	n/a
367.385	0.165	734770	keystroke_s	s	n/a
367.46	0.21	734920	keystroke_p	p	n/a
367.61	0.18	735220	keystroke_i	i	n/a
367.73	0.225	735460	keystroke_r	r	n/a
367.88	0.105	735760	keystroke_a	a	n/a
369.2005	0.105	738401	keystroke_c	c	n/a
369.3645	0.135	738729	keystroke_y	y	n/a
369.4545	0.105	738909	keystroke_Key.space	Key.space	n/a
370.0395	0.106	740079	keystroke_t	t	n/a
370.1755	0.044	740351	keystroke_i	i	n/a
370.3245	0.0905	740649	keystroke_l	l	n/a
370.445	0.2245	740890	keystroke_e	e	n/a
370.6245	0.1505	741249	keystroke_s	s	n/a
371.105	0.09	742210	keystroke_Key.enter	Key.enter	n/a
371.2075	9.536	742415	prompt	n/a	tripadvisor expo visa banners\n
371.9295	0.15	743859	keystroke_t	t	n/a
372.0045	0.12	744009	keystroke_r	r	n/a
372.2895	0.136	744579	keystroke_i	i	n/a
372.365	0.179	744730	keystroke_p	p	n/a
372.529	0.075	745058	keystroke_a	a	n/a
372.92	0.075	745840	keystroke_d	d	n/a
373.1295	0.105	746259	keystroke_v	v	n/a
373.28	0.075	746560	keystroke_i	i	n/a
373.52	0.105	747040	keystroke_s	s	n/a
373.64	0.105	747280	keystroke_o	o	n/a
373.775	0.105	747550	keystroke_r	r	n/a
373.865	0.105	747730	keystroke_Key.space	Key.space	n/a
374.06	0.09	748120	keystroke_e	e	n/a
374.33	0.135	748660	keystroke_x	x	n/a
374.4945	0.18	748989	keystroke_[	[	n/a
374.6895	0.15	749379	keystroke_;	;	n/a
375.065	0.075	750130	keystroke_Key.backspace	Key.backspace	n/a
375.215	0.09	750430	keystroke_Key.backspace	Key.backspace	n/a
375.95	0.24	751900	keystroke_p	p	n/a
376.1	0.15	752200	keystroke_o	o	n/a
376.205	0.135	752410	keystroke_Key.space	Key.space	n/a
379.0875	0.012	758175	keystroke_v	v	n/a
379.1595	0.105	758319	keystroke_i	i	n/a
379.2345	0.21	758469	keystroke_s	s	n/a
379.3695	0.15	758739	keystroke_a	a	n/a
379.5045	0.075	759009	keystroke_Key.space	Key.space	n/a
379.6845	0.06	759369	keystroke_b	b	n/a
379.7595	0.105	759519	keystroke_a	a	n/a
379.8795	0.06	759759	keystroke_n	n	n/a
379.9995	0.105	759999	keystroke_n	n	n/a
380.0745	0.225	760149	keystroke_e	e	n/a
380.1945	0.195	760389	keystroke_r	r	n/a
380.3295	0.12	760659	keystroke_s	s	n/a
380.6295	0.105	761259	keystroke_Key.enter	Key.enter	n/a
380.747	11.6705	761494	prompt	n/a	webshots luxury oughtn't evaluation\n
381.89	0.195	763780	keystroke_w	w	n/a
381.995	0.18	763990	keystroke_e	e	n/a
382.25	0.105	764500	keystroke_b	b	n/a
382.37	0.105	764740	keystroke_s	s	n/a
382.52	0.15	765040	keystroke_h	h	n/a
382.64	0.165	765280	keystroke_o	o	n/a
382.82	0.24	765640	keystroke_t	t	n/a
382.985	0.18	765970	keystroke_s	s	n/a
383.24	0.135	766480	keystroke_Key.space	Key.space	n/a
383.9	0.105	767800	keystroke_l	l	n/a
384.59	0.12	769180	keystroke_u	u	n/a
384.92	0.075	769840	keystroke_x	x	n/a
385.025	0.105	770050	keystroke_u	u	n/a
385.58	0.12	771160	keystroke_r	r	n/a
385.685	0.12	771370	keystroke_y	y	n/a
385.775	0.09	771550	keystroke_Key.space	Key.space	n/a
386.165	0.195	772330	keystroke_o	o	n/a
386.285	0.135	772570	keystroke_u	u	n/a
386.405	0.09	772810	keystroke_g	g	n/a
386.54	0.105	773080	keystroke_h	h	n/a
386.66	0.12	773320	keystroke_t	t	n/a
387.05	0.135	774100	keystroke_n	n	n/a
387.245	0.105	774490	keystroke_'	'	n/a
387.395	0.12	774790	keystroke_t	t	n/a
387.68	0.075	775360	keystroke_Key.space	Key.space	n/a
387.875	0.09	775750	keystroke_e	e	n/a
388.7295	0.195	777459	keystroke_v	v	n/a
388.8495	0.135	777699	keystroke_a	a	n/a
389.1195	0.045	778239	keystroke_l	l	n/a
389.2995	0.105	778599	keystroke_u	u	n/a
389.6445	0.12	779289	keystroke_a	a	n/a
389.8845	0.09	779769	keystroke_t	t	n/a
389.9445	0.21	779889	keystroke_i	i	n/a
390.0645	0.195	780129	keystroke_o	o	n/a
390.1395	0.135	780279	keystroke_n	n	n/a
392.2695	0.135	784539	keystroke_Key.enter	Key.enter	n/a
392.4215	7.4465	784843	prompt	n/a	several jose mario baptist\n
393.005	0.18	786010	keystroke_s	s	n/a
393.125	0.12	786250	keystroke_e	e	n/a
393.38	0.12	786760	keystroke_v	v	n/a
393.635	0.165	787270	keystroke_e	e	n/a
393.695	0.225	787390	keystroke_r	r	n/a
393.905	0.18	787810	keystroke_a	a	n/a
394.115	0.1795	788230	keystroke_;	;	n/a
394.4145	0.15	788829	keystroke_Key.space	Key.space	n/a
394.7295	0.045	789459	keystroke_j	j	n/a
395.0145	0.06	790029	keystroke_Key.backspace	Key.backspace	n/a
395.1795	0.075	790359	keystroke_Key.backspace	Key.backspace	n/a
395.3895	0.06	790779	keystroke_Key.backspace	Key.backspace	n/a
396.155	0.1345	792310	keystroke_l	l	n/a
396.2445	0.12	792489	keystroke_Key.space	Key.space	n/a
396.4845	0.12	792969	keystroke_j	j	n/a
396.515	0.1795	793030	keystroke_o	o	n/a
396.6795	0.21	793359	keystroke_s	s	n/a
396.8145	0.15	793629	keystroke_e	e	n/a
396.9495	0.105	793899	keystroke_Key.space	Key.space	n/a
397.4305	0.105	794861	keystroke_m	m	n/a
397.5055	0.225	795011	keystroke_a	a	n/a
397.7005	0.1945	795401	keystroke_r	r	n/a
397.865	0.1655	795730	keystroke_i	i	n/a
398	0.1505	796000	keystroke_o	o	n/a
398.0605	0.134	796121	keystroke_Key.space	Key.space	n/a
398.3145	0.09	796629	keystroke_b	b	n/a
398.4195	0.105	796839	keystroke_a	a	n/a
398.5395	0.135	797079	keystroke_p	p	n/a
398.8395	0.09	797679	keystroke_t	t	n/a
399.0045	0.135	798009	keystroke_i	i	n/a
399.0945	0.225	798189	keystroke_s	s	n/a
399.2595	0.165	798519	keystroke_t	t	n/a
399.7695	0.09	799539	keystroke_Key.enter	Key.enter	n/a
399.872	9.7165	799744	prompt	n/a	elements negotiations edgar opposition\n
400.5055	0.09	801011	keystroke_e	e	n/a
400.6405	0.105	801281	keystroke_l	l	n/a
400.7155	0.09	801431	keystroke_e	e	n/a
400.8655	0.0745	801731	keystroke_m	m	n/a
400.925	0.105	801850	keystroke_e	e	n/a
401.06	0.09	802120	keystroke_n	n	n/a
401.165	0.18	802330	keystroke_t	t	n/a
401.285	0.12	802570	keystroke_s	s	n/a
401.42	0.09	802840	keystroke_Key.space	Key.space	n/a
401.615	0.075	803230	keystroke_n	n	n/a
401.705	0.15	803410	keystroke_e	e	n/a
402.4845	0.136	804969	keystroke_g	g	n/a
402.6045	0.165	805209	keystroke_o	o	n/a
403.16	0.135	806320	keystroke_t	t	n/a
403.325	0.12	806650	keystroke_i	i	n/a
403.46	0.075	806920	keystroke_a	a	n/a
403.64	0.105	807280	keystroke_t	t	n/a
403.715	0.18	807430	keystroke_i	i	n/a
403.85	0.2395	807700	keystroke_o	o	n/a
404.0595	0.135	808119	keystroke_n	n	n/a
404.2095	0.09	808419	keystroke_s	s	n/a
404.3145	0.12	808629	keystroke_Key.space	Key.space	n/a
404.5545	0.12	809109	keystroke_e	e	n/a
405.005	0.1045	810010	keystroke_d	d	n/a
405.2295	0.06	810459	keystroke_g	g	n/a
405.3345	0.1815	810669	keystroke_a	a	n/a
405.485	0.135	810970	keystroke_r	r	n/a
405.635	0.105	811270	keystroke_Key.space	Key.space	n/a
405.86	0.135	811720	keystroke_o	o	n/a
405.95	0.105	811900	keystroke_p	p	n/a
406.16	0.105	812320	keystroke_o	o	n/a
407.03	0.06	814060	keystroke_Key.backspace	Key.backspace	n/a
407.285	0.18	814570	keystroke_p	p	n/a
407.42	0.1945	814840	keystroke_o	o	n/a
407.6295	0.045	815259	keystroke_s	s	n/a
407.7345	0.06	815469	keystroke_i	i	n/a
407.8395	0.09	815679	keystroke_t	t	n/a
407.9445	0.1355	815889	keystroke_i	i	n/a
408.0505	0.1645	816101	keystroke_o	o	n/a
408.17	0.12	816340	keystroke_n	n	n/a
409.445	0.135	818890	keystroke_Key.enter	Key.enter	n/a
409.5925	6.694	819185	prompt	n/a	milwaukee won't artistic needle\n
410.21	0.105	820420	keystroke_m	m	n/a
410.375	0.09	820750	keystroke_i	i	n/a
410.63	0.12	821260	keystroke_l	l	n/a
410.975	0.24	821950	keystroke_w	w	n/a
411.11	0.15	822220	keystroke_a	a	n/a
411.425	0.105	822850	keystroke_u	u	n/a
411.68	0.105	823360	keystroke_k	k	n/a
411.83	0.075	823660	keystroke_e	e	n/a
411.995	0.09	823990	keystroke_e	e	n/a
412.1	0.12	824200	keystroke_Key.space	Key.space	n/a
412.37	0.12	824740	keystroke_w	w	n/a
412.445	0.12	824890	keystroke_o	o	n/a
412.55	0.15	825100	keystroke_n	n	n/a
412.67	0.06	825340	keystroke_'	'	n/a
412.805	0.105	825610	keystroke_t	t	n/a
412.985	0.09	825970	keystroke_Key.space	Key.space	n/a
413.615	0.09	827230	keystroke_a	a	n/a
413.795	0.09	827590	keystroke_r	r	n/a
413.975	0.105	827950	keystroke_t	t	n/a
414.125	0.12	828250	keystroke_i	i	n/a
414.23	0.105	828460	keystroke_s	s	n/a
414.59	0.09	829180	keystroke_t	t	n/a
414.725	0.12	829450	keystroke_i	i	n/a
414.98	0.09	829960	keystroke_c	c	n/a
415.055	0.06	830110	keystroke_Key.space	Key.space	n/a
415.175	0.135	830350	keystroke_n	n	n/a
415.265	0.09	830530	keystroke_e	e	n/a
415.445	0.09	830890	keystroke_e	e	n/a
415.655	0.09	831310	keystroke_d	d	n/a
415.775	0.12	831550	keystroke_l	l	n/a
415.955	0.075	831910	keystroke_e	e	n/a
416.195	0.0905	832390	keystroke_Key.enter	Key.enter	n/a
416.2915	10.3535	832583	prompt	n/a	swimming majority occurring referral\n
417.0205	0.105	834041	keystroke_s	s	n/a
417.2455	0.105	834491	keystroke_w	w	n/a
417.4105	0.12	834821	keystroke_i	i	n/a
417.5755	0.0595	835151	keystroke_m	m	n/a
417.725	0.165	835450	keystroke_m	m	n/a
417.845	0.285	835690	keystroke_i	i	n/a
418.085	0.165	836170	keystroke_n	n	n/a
418.265	0.12	836530	keystroke_g	g	n/a
418.4	0.075	836800	keystroke_Key.space	Key.space	n/a
418.595	0.09	837190	keystroke_m	m	n/a
418.7	0.075	837400	keystroke_a	a	n/a
418.76	0.15	837520	keystroke_j	j	n/a
418.895	0.12	837790	keystroke_o	o	n/a
419	0.105	838000	keystroke_r	r	n/a
419.12	0.105	838240	keystroke_i	i	n/a
419.24	0.09	838480	keystroke_t	t	n/a
419.36	0.12	838720	keystroke_y	y	n/a
419.45	0.075	838900	keystroke_Key.space	Key.space	n/a
419.63	0.135	839260	keystroke_o	o	n/a
419.87	0.105	839740	keystroke_c	c	n/a
420.065	0.105	840130	keystroke_c	c	n/a
420.2	0.105	840400	keystroke_u	u	n/a
420.335	0.15	840670	keystroke_r	r	n/a
420.455	0.15	840910	keystroke_i	i	n/a
420.56	0.12	841120	keystroke_n	n	n/a
420.755	0.03	841510	keystroke_g	g	n/a
420.845	0.06	841690	keystroke_Key.space	Key.space	n/a
422.255	0.09	844510	keystroke_Key.backspace	Key.backspace	n/a
422.78	0.09	845560	keystroke_Key.backspace	Key.backspace	n/a
423.005	0.1345	846010	keystroke_Key.backspace	Key.backspace	n/a
423.2895	0.105	846579	keystroke_Key.backspace	Key.backspace	n/a
423.9795	0.075	847959	keystroke_r	r	n/a
424.0845	0.15	848169	keystroke_i	i	n/a
424.1745	0.12	848349	keystroke_n	n	n/a
424.2645	0.09	848529	keystroke_g	g	n/a
424.3845	0.09	848769	keystroke_Key.space	Key.space	n/a
424.5195	0.165	849039	keystroke_r	r	n/a
424.6245	0.15	849249	keystroke_e	e	n/a
424.9095	0.12	849819	keystroke_f	f	n/a
425.1495	0.165	850299	keystroke_e	e	n/a
425.2395	0.12	850479	keystroke_r	r	n/a
425.6145	0.105	851229	keystroke_r	r	n/a
425.84	0.105	851680	keystroke_a	a	n/a
425.93	0.15	851860	keystroke_l	l	n/a
426.53	0.105	853060	keystroke_Key.enter	Key.enter	n/a
426.6505	6.4575	853301	prompt	n/a	worked underground belle interview\n
427.2055	0.135	854411	keystroke_w	w	n/a
427.3105	0.104	854621	keystroke_o	o	n/a
427.4755	0.075	854951	keystroke_r	r	n/a
427.5355	0.119	855071	keystroke_k	k	n/a
427.6405	0.09	855281	keystroke_e	e	n/a
427.8355	0.09	855671	keystroke_d	d	n/a
427.9105	0.135	855821	keystroke_Key.space	Key.space	n/a
428.0595	0.121	856119	keystroke_u	u	n/a
428.1355	0.119	856271	keystroke_n	n	n/a
428.7195	0.06	857439	keystroke_d	d	n/a
428.915	0.135	857830	keystroke_e	e	n/a
429.005	0.105	858010	keystroke_r	r	n/a
429.2305	0.1195	858461	keystroke_g	g	n/a
429.29	0.1945	858580	keystroke_r	r	n/a
429.4695	0.21	858939	keystroke_o	o	n/a
429.5295	0.225	859059	keystroke_u	u	n/a
429.6495	0.1655	859299	keystroke_n	n	n/a
429.8	0.105	859600	keystroke_d	d	n/a
429.89	0.075	859780	keystroke_Key.space	Key.space	n/a
430.04	0.06	860080	keystroke_b	b	n/a
430.13	0.105	860260	keystroke_e	e	n/a
430.295	0.06	860590	keystroke_l	l	n/a
430.475	0.045	860950	keystroke_l	l	n/a
430.565	0.075	861130	keystroke_e	e	n/a
430.67	0.06	861340	keystroke_Key.space	Key.space	n/a
430.775	0.12	861550	keystroke_i	i	n/a
430.85	0.135	861700	keystroke_n	n	n/a
430.97	0.09	861940	keystroke_t	t	n/a
431.105	0.15	862210	keystroke_e	e	n/a
431.195	0.12	862390	keystroke_r	r	n/a
432.035	0.135	864070	keystroke_v	v	n/a
432.2895	0.12	864579	keystroke_i	i	n/a
432.4255	0.164	864851	keystroke_e	e	n/a
432.5145	0.136	865029	keystroke_w	w	n/a
433.0095	0.09	866019	keystroke_Key.enter	Key.enter	n/a
433.1155	8.333	866231	prompt	n/a	patch tide mexican latina\n
433.6245	0.15	867249	keystroke_p	p	n/a
433.6845	0.105	867369	keystroke_a	a	n/a
433.8645	0.09	867729	keystroke_t	t	n/a
434.1195	0.105	868239	keystroke_c	c	n/a
434.2095	0.18	868419	keystroke_h	h	n/a
434.3145	0.105	868629	keystroke_Key.space	Key.space	n/a
434.4495	0.09	868899	keystroke_t	t	n/a
434.5695	0.09	869139	keystroke_i	i	n/a
434.7655	0.119	869531	keystroke_d	d	n/a
434.8695	0.12	869739	keystroke_e	e	n/a
434.9445	0.09	869889	keystroke_Key.space	Key.space	n/a
435.0945	0.12	870189	keystroke_m	m	n/a
435.1695	0.075	870339	keystroke_e	e	n/a
435.4995	0.18	870999	keystroke_x	x	n/a
435.7095	0.12	871419	keystroke_i	i	n/a
435.8445	0.255	871689	keystroke_c	c	n/a
435.9645	0.195	871929	keystroke_a	a	n/a
436.145	0.18	872290	keystroke_n	n	n/a
436.2645	0.105	872529	keystroke_Key.space	Key.space	n/a
436.4745	0.075	872949	keystroke_l	l	n/a
436.5345	0.105	873069	keystroke_a	a	n/a
436.805	0.105	873610	keystroke_t	t	n/a
436.925	0.165	873850	keystroke_i	i	n/a
437	0.1205	874000	keystroke_n	n	n/a
437.255	0.105	874510	keystroke_a	a	n/a
441.338	0.102	882676	keystroke_Key.enter	Key.enter	n/a
441.453	7.81	882906	prompt	n/a	stick ports meeting contribution\n
442.235	0.105	884470	keystroke_s	s	n/a
442.475	0.075	884950	keystroke_t	t	n/a
442.565	0.09	885130	keystroke_i	i	n/a
442.7	0.12	885400	keystroke_c	c	n/a
442.775	0.195	885550	keystroke_k	k	n/a
442.94	0.105	885880	keystroke_Key.space	Key.space	n/a
443.09	0.225	886180	keystroke_p	p	n/a
443.1805	0.209	886361	keystroke_o	o	n/a
443.3	0.1195	886600	keystroke_r	r	n/a
443.3745	0.121	886749	keystroke_t	t	n/a
443.5705	0.12	887141	keystroke_s	s	n/a
443.6755	0.09	887351	keystroke_Key.space	Key.space	n/a
443.8705	0.09	887741	keystroke_m	m	n/a
443.9155	0.06	887831	keystroke_e	e	n/a
444.0655	0.15	888131	keystroke_e	e	n/a
444.2005	0.12	888401	keystroke_t	t	n/a
444.3045	0.151	888609	keystroke_i	i	n/a
444.4405	0.1045	888881	keystroke_n	n	n/a
444.53	0.06	889060	keystroke_g	g	n/a
444.634	0.046	889268	keystroke_Key.space	Key.space	n/a
444.785	0.1205	889570	keystroke_c	c	n/a
444.8605	0.18	889721	keystroke_o	o	n/a
444.9505	0.105	889901	keystroke_n	n	n/a
445.1305	0.15	890261	keystroke_t	t	n/a
445.2205	0.12	890441	keystroke_r	r	n/a
445.3555	0.09	890711	keystroke_i	i	n/a
445.5805	0.105	891161	keystroke_b	b	n/a
445.6405	0.12	891281	keystroke_u	u	n/a
445.8355	0.03	891671	keystroke_t	t	n/a
445.8655	0.21	891731	keystroke_i	i	n/a
446.0155	0.18	892031	keystroke_o	o	n/a
446.0905	0.045	892181	keystroke_i	i	n/a
446.1505	0.119	892301	keystroke_n	n	n/a
447.0195	0.06	894039	keystroke_Key.backspace	Key.backspace	n/a
447.2595	0.06	894519	keystroke_Key.backspace	Key.backspace	n/a
447.575	0.0745	895150	keystroke_n	n	n/a
449.1495	0.105	898299	keystroke_Key.enter	Key.enter	n/a
449.2685	10.9895	898537	prompt	n/a	ticket palestine kills uganda\n
450.0195	0.076	900039	keystroke_t	t	n/a
450.1245	0.075	900249	keystroke_i	i	n/a
450.2445	0.135	900489	keystroke_c	c	n/a
450.3945	0.09	900789	keystroke_k	k	n/a
450.4995	0.18	900999	keystroke_e	e	n/a
450.5905	0.149	901181	keystroke_t	t	n/a
450.6945	0.075	901389	keystroke_Key.space	Key.space	n/a
450.7995	0.136	901599	keystroke_p	p	n/a
450.9045	0.105	901809	keystroke_a	a	n/a
451.0545	0.105	902109	keystroke_l	l	n/a
451.1745	0.075	902349	keystroke_e	e	n/a
451.8945	0.09	903789	keystroke_s	s	n/a
452.0745	0.105	904149	keystroke_t	t	n/a
452.1645	0.15	904329	keystroke_i	i	n/a
452.2695	0.135	904539	keystroke_n	n	n/a
452.3745	0.09	904749	keystroke_e	e	n/a
452.4795	0.075	904959	keystroke_Key.space	Key.space	n/a
452.6295	0.075	905259	keystroke_k	k	n/a
452.7945	0.06	905589	keystroke_i	i	n/a
453.0045	0.045	906009	keystroke_l	l	n/a
453.1245	0.0905	906249	keystroke_l	l	n/a
453.26	0.09	906520	keystroke_s	s	n/a
453.395	0.09	906790	keystroke_Key.space	Key.space	n/a
453.725	0.135	907450	keystroke_u	u	n/a
453.92	0.18	907840	keystroke_g	g	n/a
454.04	0.135	908080	keystroke_a	a	n/a
454.205	0.12	908410	keystroke_n	n	n/a
454.385	0.12	908770	keystroke_g	g	n/a
454.67	0.09	909340	keystroke_a	a	n/a
455.15	0.09	910300	keystroke_Key.backspace	Key.backspace	n/a
455.315	0.09	910630	keystroke_Key.backspace	Key.backspace	n/a
455.9	0.12	911800	keystroke_d	d	n/a
455.99	0.105	911980	keystroke_a	a	n/a
460.1775	0.0725	920355	keystroke_Key.enter	Key.enter	n/a
460.262	14.171	920524	prompt	n/a	newsletter subjective start examination\n
461	0.12	922000	keystroke_m	m	n/a
461.105	0.21	922210	keystroke_e	e	n/a
461.24	0.12	922480	keystroke_w	w	n/a
461.465	0.12	922930	keystroke_s	s	n/a
461.57	0.09	923140	keystroke_l	l	n/a
461.661	0.089	923322	keystroke_e	e	n/a
461.855	0.075	923710	keystroke_t	t	n/a
461.99	0.09	923980	keystroke_t	t	n/a
462.14	0.1495	924280	keystroke_e	e	n/a
462.2595	0.165	924519	keystroke_r	r	n/a
462.3495	0.105	924699	keystroke_Key.space	Key.space	n/a
462.5145	0.1355	925029	keystroke_s	s	n/a
462.635	0.135	925270	keystroke_u	u	n/a
462.74	0.105	925480	keystroke_b	b	n/a
462.92	0.105	925840	keystroke_j	j	n/a
462.98	0.09	925960	keystroke_e	e	n/a
463.13	0.12	926260	keystroke_c	c	n/a
463.685	0.075	927370	keystroke_Key.backspace	Key.backspace	n/a
463.88	0.0595	927760	keystroke_Key.backspace	Key.backspace	n/a
464.045	0.06	928090	keystroke_Key.backspace	Key.backspace	n/a
464.24	0.06	928480	keystroke_Key.backspace	Key.backspace	n/a
464.42	0.045	928840	keystroke_Key.backspace	Key.backspace	n/a
464.63	0.015	929260	keystroke_Key.backspace	Key.backspace	n/a
464.78	0.045	929560	keystroke_Key.backspace	Key.backspace	n/a
464.9455	0.06	929891	keystroke_Key.backspace	Key.backspace	n/a
465.1255	0.06	930251	keystroke_Key.backspace	Key.backspace	n/a
465.3055	0.075	930611	keystroke_Key.backspace	Key.backspace	n/a
465.4855	0.06	930971	keystroke_Key.backspace	Key.backspace	n/a
465.6505	0.06	931301	keystroke_Key.backspace	Key.backspace	n/a
465.8455	0.045	931691	keystroke_Key.backspace	Key.backspace	n/a
466.0105	0.045	932021	keystroke_Key.backspace	Key.backspace	n/a
466.2205	0.045	932441	keystroke_Key.backspace	Key.backspace	n/a
466.4455	0.075	932891	keystroke_Key.backspace	Key.backspace	n/a
466.7005	0.045	933401	keystroke_Key.backspace	Key.backspace	n/a
467.2405	0.09	934481	keystroke_n	n	n/a
467.3755	0.135	934751	keystroke_e	e	n/a
467.4505	0.105	934901	keystroke_w	w	n/a
467.6755	0.075	935351	keystroke_s	s	n/a
467.7505	0.06	935501	keystroke_l	l	n/a
467.8855	0.09	935771	keystroke_e	e	n/a
468.0505	0.075	936101	keystroke_t	t	n/a
468.2155	0.089	936431	keystroke_t	t	n/a
468.4105	0.12	936821	keystroke_e	e	n/a
468.4855	0.12	936971	keystroke_r	r	n/a
468.5895	0.06	937179	keystroke_Key.space	Key.space	n/a
468.9495	0.151	937899	keystroke_s	s	n/a
469.0705	0.165	938141	keystroke_u	u	n/a
469.1745	0.136	938349	keystroke_b	b	n/a
469.6845	0.105	939369	keystroke_j	j	n/a
469.7305	0.09	939461	keystroke_e	e	n/a
469.9255	0.09	939851	keystroke_c	c	n/a
470.1195	0.06	940239	keystroke_t	t	n/a
470.3145	0.12	940629	keystroke_i	i	n/a
470.3745	0.136	940749	keystroke_v	v	n/a
470.4645	0.106	940929	keystroke_e	e	n/a
470.5845	0.09	941169	keystroke_Key.space	Key.space	n/a
470.6605	0.074	941321	keystroke_s	s	n/a
470.8255	0.089	941651	keystroke_t	t	n/a
470.9455	0.134	941891	keystroke_a	a	n/a
471.0645	0.09	942129	keystroke_r	r	n/a
471.2595	0.075	942519	keystroke_t	t	n/a
471.3945	0.075	942789	keystroke_Key.space	Key.space	n/a
471.7395	0.075	943479	keystroke_e	e	n/a
472.0095	0.06	944019	keystroke_x	x	n/a
472.0995	0.075	944199	keystroke_x	x	n/a
472.6245	0.091	945249	keystroke_Key.backspace	Key.backspace	n/a
472.7745	0.09	945549	keystroke_a	a	n/a
472.955	0.18	945910	keystroke_m	m	n/a
473.09	0.21	946180	keystroke_i	i	n/a
473.24	0.15	946480	keystroke_n	n	n/a
473.375	0.09	946750	keystroke_a	a	n/a
473.54	0.105	947080	keystroke_t	t	n/a
473.63	0.15	947260	keystroke_i	i	n/a
473.75	0.135	947500	keystroke_o	o	n/a
473.825	0.09	947650	keystroke_n	n	n/a
474.335	0.09	948670	keystroke_Key.enter	Key.enter	n/a
474.437	7.751	948874	prompt	n/a	appreciated relating integrated incorrect\n
475.055	0.105	950110	keystroke_a	a	n/a
475.175	0.045	950350	keystroke_p	p	n/a
475.31	0.09	950620	keystroke_p	p	n/a
475.385	0.12	950770	keystroke_r	r	n/a
475.46	0.09	950920	keystroke_e	e	n/a
475.73	0.045	951460	keystroke_c	c	n/a
475.835	0.135	951670	keystroke_i	i	n/a
475.955	0.06	951910	keystroke_a	a	n/a
476.15	0.15	952300	keystroke_t	t	n/a
476.255	0.105	952510	keystroke_e	e	n/a
476.465	0.12	952930	keystroke_d	d	n/a
476.6	0.105	953200	keystroke_Key.space	Key.space	n/a
477.5	0.15	955000	keystroke_r	r	n/a
477.56	0.135	955120	keystroke_e	e	n/a
477.725	0.105	955450	keystroke_l	l	n/a
477.815	0.06	955630	keystroke_a	a	n/a
477.98	0.12	955960	keystroke_t	t	n/a
478.085	0.135	956170	keystroke_i	i	n/a
478.175	0.12	956350	keystroke_n	n	n/a
478.28	0.09	956560	keystroke_g	g	n/a
478.355	0.075	956710	keystroke_Key.space	Key.space	n/a
478.46	0.135	956920	keystroke_i	i	n/a
478.55	0.15	957100	keystroke_n	n	n/a
478.775	0.15	957550	keystroke_t	t	n/a
478.955	0.105	957910	keystroke_e	e	n/a
479.21	0.135	958420	keystroke_g	g	n/a
479.285	0.12	958570	keystroke_r	r	n/a
479.525	0.09	959050	keystroke_a	a	n/a
479.75	0.15	959500	keystroke_t	t	n/a
479.855	0.09	959710	keystroke_e	e	n/a
480.08	0.06	960160	keystroke_d	d	n/a
480.155	0.075	960310	keystroke_Key.space	Key.space	n/a
480.245	0.195	960490	keystroke_i	i	n/a
480.335	0.18	960670	keystroke_n	n	n/a
480.845	0.105	961690	keystroke_c	c	n/a
481.025	0.09	962050	keystroke_o	o	n/a
481.145	0.06	962290	keystroke_r	r	n/a
481.28	0.105	962560	keystroke_r	r	n/a
481.355	0.105	962710	keystroke_e	e	n/a
481.61	0.09	963220	keystroke_c	c	n/a
481.895	0.06	963790	keystroke_t	t	n/a
482.105	0.075	964210	keystroke_Key.enter	Key.enter	n/a
482.192	7.07	964384	prompt	n/a	advancement world stylish monitors\n
482.615	0.135	965230	keystroke_a	a	n/a
482.96	0.18	965920	keystroke_d	d	n/a
483.245	0.135	966490	keystroke_v	v	n/a
483.455	0.015	966910	keystroke_a	a	n/a
483.485	0.12	966970	keystroke_n	n	n/a
483.59	0.18	967180	keystroke_c	c	n/a
483.74	0.15	967480	keystroke_a	a	n/a
484.4145	0.075	968829	keystroke_Key.backspace	Key.backspace	n/a
484.5645	0.105	969129	keystroke_e	e	n/a
484.7595	0.061	969519	keystroke_m	m	n/a
484.8345	0.06	969669	keystroke_e	e	n/a
484.9095	0.12	969819	keystroke_n	n	n/a
485.0745	0.045	970149	keystroke_t	t	n/a
485.1645	0.06	970329	keystroke_Key.space	Key.space	n/a
485.2845	0.1205	970569	keystroke_w	w	n/a
485.405	0.1045	970810	keystroke_o	o	n/a
485.6895	0.12	971379	keystroke_r	r	n/a
485.8695	0.06	971739	keystroke_l	l	n/a
485.9745	0.075	971949	keystroke_d	d	n/a
486.0945	0.0905	972189	keystroke_Key.space	Key.space	n/a
486.1395	0.09	972279	keystroke_s	s	n/a
486.32	0.0895	972640	keystroke_t	t	n/a
486.5145	0.075	973029	keystroke_y	y	n/a
486.6495	0.075	973299	keystroke_l	l	n/a
486.8145	0.106	973629	keystroke_i	i	n/a
486.9045	0.1055	973809	keystroke_s	s	n/a
487.055	0.09	974110	keystroke_h	h	n/a
487.115	0.075	974230	keystroke_Key.space	Key.space	n/a
487.31	0.15	974620	keystroke_m	m	n/a
487.43	0.105	974860	keystroke_o	o	n/a
487.595	0.135	975190	keystroke_n	n	n/a
487.67	0.165	975340	keystroke_i	i	n/a
487.85	0.1055	975700	keystroke_t	t	n/a
487.985	0.1205	975970	keystroke_o	o	n/a
488.1205	0.0745	976241	keystroke_r	r	n/a
488.6	0.165	977200	keystroke_s	s	n/a
489.17	0.0895	978340	keystroke_Key.enter	Key.enter	n/a
489.2645	6.484	978529	prompt	n/a	coming navigator complex cartoon\n
489.905	0.09	979810	keystroke_c	c	n/a
489.98	0.18	979960	keystroke_o	o	n/a
490.1	0.1655	980200	keystroke_m	m	n/a
490.2805	0.165	980561	keystroke_i	i	n/a
490.3705	0.135	980741	keystroke_n	n	n/a
490.4905	0.075	980981	keystroke_g	g	n/a
490.6105	0.09	981221	keystroke_Key.space	Key.space	n/a
490.9555	0.105	981911	keystroke_n	n	n/a
491.1055	0.06	982211	keystroke_a	a	n/a
491.3595	0.106	982719	keystroke_v	v	n/a
491.5245	0.091	983049	keystroke_i	i	n/a
491.7655	0.09	983531	keystroke_g	g	n/a
491.8855	0.15	983771	keystroke_a	a	n/a
492.0955	0.075	984191	keystroke_t	t	n/a
492.1855	0.0745	984371	keystroke_o	o	n/a
492.275	0.075	984550	keystroke_r	r	n/a
492.335	0.105	984670	keystroke_Key.space	Key.space	n/a
492.56	0.135	985120	keystroke_c	c	n/a
492.635	0.12	985270	keystroke_o	o	n/a
492.71	0.12	985420	keystroke_m	m	n/a
492.77	0.18	985540	keystroke_p	p	n/a
492.92	0.165	985840	keystroke_l	l	n/a
493.04	0.09	986080	keystroke_e	e	n/a
493.28	0.18	986560	keystroke_x	x	n/a
493.415	0.105	986830	keystroke_Key.space	Key.space	n/a
493.7745	0.1505	987549	keystroke_c	c	n/a
493.8795	0.1355	987759	keystroke_a	a	n/a
494.15	0.0595	988300	keystroke_r	r	n/a
494.3895	0.1055	988779	keystroke_t	t	n/a
494.51	0.09	989020	keystroke_o	o	n/a
494.675	0.165	989350	keystroke_o	o	n/a
494.885	0.075	989770	keystroke_m	m	n/a
495.23	0.06	990460	keystroke_Key.backspace	Key.backspace	n/a
495.44	0.09	990880	keystroke_n	n	n/a
495.65	0.09	991300	keystroke_Key.enter	Key.enter	n/a
495.759	9.1995	991518	prompt	n/a	gateway advertisements concrete preceding\n
496.595	0.135	993190	keystroke_g	g	n/a
496.715	0.09	993430	keystroke_a	a	n/a
496.925	0.135	993850	keystroke_t	t	n/a
496.985	0.12	993970	keystroke_e	e	n/a
497.225	0.165	994450	keystroke_w	w	n/a
497.33	0.12	994660	keystroke_a	a	n/a
497.435	0.1655	994870	keystroke_y	y	n/a
497.54	0.15	995080	keystroke_Key.space	Key.space	n/a
497.705	0.105	995410	keystroke_a	a	n/a
497.855	0.105	995710	keystroke_d	d	n/a
498.3045	0.1205	996609	keystroke_e	e	n/a
498.68	0.105	997360	keystroke_Key.backspace	Key.backspace	n/a
498.8	0.09	997600	keystroke_v	v	n/a
499.01	0.195	998020	keystroke_e	e	n/a
499.1	0.165	998200	keystroke_r	r	n/a
499.475	0.09	998950	keystroke_s	s	n/a
499.865	0.09	999730	keystroke_Key.backspace	Key.backspace	n/a
500.12	0.12	1000240	keystroke_t	t	n/a
500.255	0.165	1000510	keystroke_i	i	n/a
500.405	0.165	1000810	keystroke_s	s	n/a
500.525	0.12	1001050	keystroke_e	e	n/a
500.705	0.075	1001410	keystroke_m	m	n/a
500.765	0.09	1001530	keystroke_e	e	n/a
500.885	0.09	1001770	keystroke_n	n	n/a
500.975	0.105	1001950	keystroke_t	t	n/a
501.125	0.1205	1002250	keystroke_s	s	n/a
501.215	0.1055	1002430	keystroke_Key.space	Key.space	n/a
501.4405	0.165	1002881	keystroke_c	c	n/a
501.5305	0.15	1003061	keystroke_o	o	n/a
501.6355	0.12	1003271	keystroke_n	n	n/a
501.7105	0.105	1003421	keystroke_c	c	n/a
501.9955	0.135	1003991	keystroke_r	r	n/a
502.0855	0.18	1004171	keystroke_e	e	n/a
502.2505	0.1645	1004501	keystroke_t	t	n/a
502.3405	0.1345	1004681	keystroke_e	e	n/a
502.476	0.089	1004952	keystroke_Key.space	Key.space	n/a
502.595	0.12	1005190	keystroke_p	p	n/a
502.835	0.15	1005670	keystroke_r	r	n/a
502.925	0.105	1005850	keystroke_e	e	n/a
503.18	0.165	1006360	keystroke_c	c	n/a
503.3	0.12	1006600	keystroke_e	e	n/a
503.705	0.105	1007410	keystroke_d	d	n/a
503.825	0.12	1007650	keystroke_i	i	n/a
