onset	duration	sample	value	key	prompt_text
13.7085	0.1045	27417	keystroke_n	n	n/a
13.858	0.075	27716	keystroke_a	a	n/a
14.008	0.09	28016	keystroke_l	l	n/a
14.113	0.075	28226	keystroke_a	a	n/a
14.263	0.075	28526	keystroke_p	p	n/a
14.293	0.075	28586	keystroke_a	a	n/a
14.563	0.09	29126	keystroke_t	t	n/a
14.683	0.075	29366	keystroke_i	i	n/a
19.093	0.2555	38186	keystroke_Key.cmd	Key.cmd	n/a
19.258	0.075	38516	keystroke_v	v	n/a
23.6225	13.1125	47245	prompt	n/a	the quick brown fox jumps over a lazy dog\n
26.608	0.105	53216	keystroke_t	t	n/a
26.743	0.09	53486	keystroke_h	h	n/a
26.863	0.135	53726	keystroke_e	e	n/a
27.133	0.1055	54266	keystroke_Key.space	Key.space	n/a
27.583	0.09	55166	keystroke_q	q	n/a
27.823	0.165	55646	keystroke_u	u	n/a
27.928	0.15	55856	keystroke_i	i	n/a
28.363	0.075	56726	keystroke_c	c	n/a
28.483	0.15	56966	keystroke_k	k	n/a
28.648	0.12	57296	keystroke_Key.space	Key.space	n/a
29.443	0.135	58886	keystroke_b	b	n/a
29.893	0.12	59786	keystroke_r	r	n/a
30.0735	0.0895	60147	keystroke_o	o	n/a
30.178	0.075	60356	keystroke_w	w	n/a
30.418	0.15	60836	keystroke_n	n	n/a
30.538	0.12	61076	keystroke_Key.space	Key.space	n/a
30.7635	0.1045	61527	keystroke_f	f	n/a
30.883	0.075	61766	keystroke_o	o	n/a
31.198	0.03	62396	keystroke_x	x	n/a
31.303	0.105	62606	keystroke_Key.space	Key.space	n/a
31.903	0.135	63806	keystroke_j	j	n/a
32.1435	0.0895	64287	keystroke_u	u	n/a
32.413	0.15	64826	keystroke_m	m	n/a
32.638	0.09	65276	keystroke_p	p	n/a
32.863	0.105	65726	keystroke_s	s	n/a
33.013	0.135	66026	keystroke_Key.space	Key.space	n/a
33.208	0.09	66416	keystroke_o	o	n/a
33.343	0.12	66686	keystroke_v	v	n/a
33.598	0.135	67196	keystroke_e	e	n/a
33.688	0.09	67376	keystroke_r	r	n/a
33.838	0.15	67676	keystroke_Key.space	Key.space	n/a
34.033	0.105	68066	keystroke_a	a	n/a
34.153	0.165	68306	keystroke_Key.space	Key.space	n/a
34.498	0.075	68996	keystroke_l	l	n/a
34.6045	0.0885	69209	keystroke_a	a	n/a
34.948	0.06	69896	keystroke_z	z	n/a
35.338	0.075	70676	keystroke_y	y	n/a
35.548	0.105	71096	keystroke_Key.space	Key.space	n/a
35.698	0.105	71396	keystroke_d	d	n/a
36.193	0.135	72386	keystroke_o	o	n/a
36.358	0.09	72716	keystroke_g	g	n/a
36.628	0.105	73256	keystroke_Key.enter	Key.enter	n/a
36.738	9.375	73476	prompt	n/a	recorders version monitoring rounds\n
37.558	0.12	75116	keystroke_r	r	n/a
37.633	0.12	75266	keystroke_e	e	n/a
37.978	0.045	75956	keystroke_v	v	n/a
38.083	0.075	76166	keystroke_o	o	n/a
38.263	0.12	76526	keystroke_r	r	n/a
39.028	0.03	78056	keystroke_Key.backspace	Key.backspace	n/a
39.193	0.075	78386	keystroke_Key.backspace	Key.backspace	n/a
39.388	0.06	78776	keystroke_Key.backspace	Key.backspace	n/a
39.583	0.09	79166	keystroke_c	c	n/a
39.898	0.09	79796	keystroke_o	o	n/a
40.093	0.09	80186	keystroke_r	r	n/a
40.423	0.105	80846	keystroke_d	d	n/a
40.754	0.104	81508	keystroke_e	e	n/a
40.828	0.105	81656	keystroke_r	r	n/a
41.173	0.165	82346	keystroke_s	s	n/a
41.368	0.15	82736	keystroke_Key.space	Key.space	n/a
41.668	0.165	83336	keystroke_v	v	n/a
41.983	0.135	83966	keystroke_e	e	n/a
42.058	0.105	84116	keystroke_r	r	n/a
42.253	0.1655	84506	keystroke_s	s	n/a
42.404	0.1645	84808	keystroke_i	i	n/a
42.5085	0.15	85017	keystroke_o	o	n/a
42.5985	0.18	85197	keystroke_n	n	n/a
42.7635	0.105	85527	keystroke_Key.space	Key.space	n/a
43.034	0.121	86068	keystroke_m	m	n/a
43.244	0.105	86488	keystroke_o	o	n/a
43.4555	0.0885	86911	keystroke_n	n	n/a
43.6495	0.105	87299	keystroke_i	i	n/a
43.8595	0.075	87719	keystroke_t	t	n/a
43.9645	0.06	87929	keystroke_o	o	n/a
44.1145	0.1055	88229	keystroke_r	r	n/a
44.2495	0.1355	88499	keystroke_i	i	n/a
44.34	0.12	88680	keystroke_n	n	n/a
44.475	0.075	88950	keystroke_g	g	n/a
44.58	0.135	89160	keystroke_Key.space	Key.space	n/a
44.925	0.1055	89850	keystroke_r	r	n/a
45.0455	0.135	90091	keystroke_o	o	n/a
45.1355	0.105	90271	keystroke_u	u	n/a
45.3755	0.12	90751	keystroke_n	n	n/a
45.5705	0.1655	91141	keystroke_d	d	n/a
45.706	0.12	91412	keystroke_s	s	n/a
45.991	0.1205	91982	keystroke_Key.enter	Key.enter	n/a
46.116	11.251	92232	prompt	n/a	fifth insight fragrances magical\n
47.0585	0.088	94117	keystroke_f	f	n/a
47.1925	0.1045	94385	keystroke_i	i	n/a
47.312	0.12	94624	keystroke_f	f	n/a
48.0625	0.09	96125	keystroke_t	t	n/a
48.258	0.0595	96516	keystroke_h	h	n/a
48.4525	0.12	96905	keystroke_Key.space	Key.space	n/a
48.7225	0.1205	97445	keystroke_i	i	n/a
48.798	0.12	97596	keystroke_n	n	n/a
48.888	0.1205	97776	keystroke_s	s	n/a
49.053	0.09	98106	keystroke_i	i	n/a
49.2485	0.0745	98497	keystroke_g	g	n/a
49.383	0.076	98766	keystroke_h	h	n/a
49.518	0.075	99036	keystroke_t	t	n/a
49.668	0.12	99336	keystroke_Key.space	Key.space	n/a
50.1035	0.12	100207	keystroke_f	f	n/a
50.3735	0.165	100747	keystroke_r	r	n/a
50.4935	0.12	100987	keystroke_a	a	n/a
50.8095	0.1345	101619	keystroke_g	g	n/a
51.034	0.15	102068	keystroke_r	r	n/a
51.124	0.12	102248	keystroke_a	a	n/a
51.334	0.12	102668	keystroke_n	n	n/a
51.514	0.105	103028	keystroke_c	c	n/a
51.56	0.104	103120	keystroke_e	e	n/a
51.754	0.09	103508	keystroke_s	s	n/a
51.874	0.105	103748	keystroke_Key.space	Key.space	n/a
52.1295	0.12	104259	keystroke_m	m	n/a
52.2345	0.0755	104469	keystroke_a	a	n/a
52.4745	0.09	104949	keystroke_g	g	n/a
52.6245	0.06	105249	keystroke_i	i	n/a
52.8195	0.135	105639	keystroke_v	v	n/a
52.9395	0.105	105879	keystroke_a	a	n/a
53.0605	0.104	106121	keystroke_l	l	n/a
53.705	0.075	107410	keystroke_Key.backspace	Key.backspace	n/a
53.9	0.061	107800	keystroke_Key.backspace	Key.backspace	n/a
54.065	0.06	108130	keystroke_Key.backspace	Key.backspace	n/a
54.29	0.195	108580	keystroke_a	a	n/a
54.3055	0.1055	108611	keystroke_c	c	n/a
54.861	0.0295	109722	keystroke_l	l	n/a
55.2805	0.06	110561	keystroke_Key.backspace	Key.backspace	n/a
55.4615	0.059	110923	keystroke_Key.backspace	Key.backspace	n/a
55.6405	0.06	111281	keystroke_Key.backspace	Key.backspace	n/a
56.601	0.195	113202	keystroke_c	c	n/a
56.7515	0.1345	113503	keystroke_a	a	n/a
56.9465	0.0895	113893	keystroke_l	l	n/a
57.262	0.104	114524	keystroke_Key.enter	Key.enter	n/a
57.3705	9.1185	114741	prompt	n/a	gene javascript partly depot\n
58.2065	0.135	116413	keystroke_g	g	n/a
58.3265	0.105	116653	keystroke_e	e	n/a
58.5065	0.1055	117013	keystroke_n	n	n/a
58.5965	0.12	117193	keystroke_e	e	n/a
59.1815	0.135	118363	keystroke_Key.space	Key.space	n/a
59.797	0.1345	119594	keystroke_j	j	n/a
60.142	0.09	120284	keystroke_a	a	n/a
60.517	0.105	121034	keystroke_c	c	n/a
61.1625	0.0595	122325	keystroke_Key.backspace	Key.backspace	n/a
61.342	0.09	122684	keystroke_v	v	n/a
61.613	0.104	123226	keystroke_a	a	n/a
62.063	0.104	124126	keystroke_s	s	n/a
62.377	0.0905	124754	keystroke_c	c	n/a
62.663	0.1045	125326	keystroke_r	r	n/a
62.813	0.0895	125626	keystroke_i	i	n/a
63.0525	0.0605	126105	keystroke_p	p	n/a
63.1575	0.075	126315	keystroke_t	t	n/a
63.3825	0.12	126765	keystroke_Key.space	Key.space	n/a
63.6975	0.06	127395	keystroke_p	p	n/a
63.8025	0.09	127605	keystroke_a	a	n/a
63.9225	0.091	127845	keystroke_r	r	n/a
64.1325	0.105	128265	keystroke_t	t	n/a
64.3425	0.09	128685	keystroke_l	l	n/a
64.6425	0.135	129285	keystroke_y	y	n/a
64.8535	0.104	129707	keystroke_Key.space	Key.space	n/a
65.303	0.0895	130606	keystroke_d	d	n/a
65.528	0.075	131056	keystroke_e	e	n/a
65.6635	0.074	131327	keystroke_p	p	n/a
65.918	0.06	131836	keystroke_o	o	n/a
66.098	0.06	132196	keystroke_t	t	n/a
66.383	0.105	132766	keystroke_Key.enter	Key.enter	n/a
66.492	8.7875	132984	prompt	n/a	cases driver canadian announce\n
67.253	0.285	134506	keystroke_c	c	n/a
67.523	0.12	135046	keystroke_a	a	n/a
67.823	0.0905	135646	keystroke_s	s	n/a
68.048	0.12	136096	keystroke_e	e	n/a
68.288	0.12	136576	keystroke_s	s	n/a
68.453	0.0755	136906	keystroke_Key.space	Key.space	n/a
68.618	0.09	137236	keystroke_d	d	n/a
68.888	0.105	137776	keystroke_r	r	n/a
69.038	0.076	138076	keystroke_i	i	n/a
69.218	0.09	138436	keystroke_v	v	n/a
69.488	0.165	138976	keystroke_e	e	n/a
69.638	0.09	139276	keystroke_r	r	n/a
69.878	0.12	139756	keystroke_Key.space	Key.space	n/a
70.178	0.136	140356	keystroke_c	c	n/a
70.268	0.135	140536	keystroke_a	a	n/a
70.5235	0.0905	141047	keystroke_c	c	n/a
70.973	0.015	141946	keystroke_Key.backspace	Key.backspace	n/a
71.2435	0.105	142487	keystroke_n	n	n/a
71.393	0.0755	142786	keystroke_a	a	n/a
71.664	0.089	143328	keystroke_d	d	n/a
71.9185	0.0745	143837	keystroke_i	i	n/a
72.4285	0.1045	144857	keystroke_a	a	n/a
72.5485	0.135	145097	keystroke_n	n	n/a
72.9235	0.075	145847	keystroke_a	a	n/a
73.3585	0.0745	146717	keystroke_Key.backspace	Key.backspace	n/a
73.5685	0.105	147137	keystroke_Key.space	Key.space	n/a
73.7335	0.075	147467	keystroke_a	a	n/a
73.8235	0.06	147647	keystroke_n	n	n/a
73.9885	0.0895	147977	keystroke_n	n	n/a
74.243	0.1355	148486	keystroke_o	o	n/a
74.3335	0.105	148667	keystroke_u	u	n/a
74.6035	0.0895	149207	keystroke_n	n	n/a
74.753	0.1205	149506	keystroke_c	c	n/a
74.8435	0.105	149687	keystroke_e	e	n/a
75.1585	0.12	150317	keystroke_Key.enter	Key.enter	n/a
75.283	7.5245	150566	prompt	n/a	pleasant wright letters booty\n
76.253	0.1955	152506	keystroke_p	p	n/a
76.358	0.1655	152716	keystroke_l	l	n/a
76.628	0.165	153256	keystroke_e	e	n/a
76.7485	0.1495	153497	keystroke_a	a	n/a
76.914	0.1495	153828	keystroke_s	s	n/a
77.1835	0.12	154367	keystroke_a	a	n/a
77.318	0.135	154636	keystroke_n	n	n/a
77.4985	0.1045	154997	keystroke_t	t	n/a
77.618	0.135	155236	keystroke_Key.space	Key.space	n/a
77.918	0.105	155836	keystroke_w	w	n/a
78.458	0.12	156916	keystroke_r	r	n/a
78.773	0.075	157546	keystroke_i	i	n/a
79.238	0.105	158476	keystroke_g	g	n/a
79.4335	0.0595	158867	keystroke_h	h	n/a
79.508	0.1055	159016	keystroke_t	t	n/a
79.643	0.135	159286	keystroke_Key.space	Key.space	n/a
80.048	0.075	160096	keystroke_l	l	n/a
80.153	0.09	160306	keystroke_e	e	n/a
80.348	0.0745	160696	keystroke_t	t	n/a
80.5275	0.105	161055	keystroke_t	t	n/a
80.6025	0.1955	161205	keystroke_e	e	n/a
80.7675	0.09	161535	keystroke_r	r	n/a
80.9325	0.105	161865	keystroke_s	s	n/a
81.0675	0.135	162135	keystroke_Key.space	Key.space	n/a
81.4575	0.1055	162915	keystroke_b	b	n/a
81.667	0.075	163334	keystroke_o	o	n/a
81.8325	0.0895	163665	keystroke_o	o	n/a
82.027	0.075	164054	keystroke_t	t	n/a
82.357	0.0895	164714	keystroke_y	y	n/a
82.7315	0.075	165463	keystroke_Key.enter	Key.enter	n/a
82.8125	7.9555	165625	prompt	n/a	vids ideas challenged depending\n
83.766	0.105	167532	keystroke_v	v	n/a
84.3055	0.075	168611	keystroke_i	i	n/a
84.6055	0.1345	169211	keystroke_d	d	n/a
84.77	0.105	169540	keystroke_s	s	n/a
84.9205	0.1345	169841	keystroke_Key.space	Key.space	n/a
85.145	0.0745	170290	keystroke_i	i	n/a
85.205	0.1345	170410	keystroke_d	d	n/a
85.4895	0.15	170979	keystroke_e	e	n/a
85.5795	0.12	171159	keystroke_a	a	n/a
85.9245	0.1495	171849	keystroke_s	s	n/a
85.9395	0.015	171879	keystroke_d	d	n/a
86.644	0.06	173288	keystroke_Key.backspace	Key.backspace	n/a
86.9435	0.12	173887	keystroke_Key.space	Key.space	n/a
87.4535	0.105	174907	keystroke_c	c	n/a
87.603	0.075	175206	keystroke_h	h	n/a
87.7085	0.1045	175417	keystroke_a	a	n/a
87.933	0.06	175866	keystroke_l	l	n/a
88.098	0.075	176196	keystroke_l	l	n/a
88.188	0.075	176376	keystroke_e	e	n/a
88.308	0.1045	176616	keystroke_n	n	n/a
88.5925	0.12	177185	keystroke_g	g	n/a
88.6825	0.1055	177365	keystroke_e	e	n/a
88.9525	0.12	177905	keystroke_d	d	n/a
89.1175	0.1195	178235	keystroke_Key.space	Key.space	n/a
89.3425	0.0895	178685	keystroke_d	d	n/a
89.5675	0.09	179135	keystroke_e	e	n/a
89.717	0.075	179434	keystroke_p	p	n/a
89.8075	0.0745	179615	keystroke_e	e	n/a
89.987	0.09	179974	keystroke_n	n	n/a
90.092	0.105	180184	keystroke_d	d	n/a
90.287	0.1205	180574	keystroke_i	i	n/a
90.347	0.1345	180694	keystroke_n	n	n/a
90.4965	0.09	180993	keystroke_g	g	n/a
90.6765	0.09	181353	keystroke_Key.enter	Key.enter	n/a
90.7705	8.9045	181541	prompt	n/a	associations label disposition argentina\n
91.5315	0.1345	183063	keystroke_a	a	n/a
91.681	0.0905	183362	keystroke_s	s	n/a
91.876	0.09	183752	keystroke_s	s	n/a
92.0265	0.0895	184053	keystroke_o	o	n/a
92.161	0.09	184322	keystroke_c	c	n/a
92.2965	0.0745	184593	keystroke_i	i	n/a
92.386	0.1055	184772	keystroke_a	a	n/a
92.791	0.09	185582	keystroke_t	t	n/a
92.926	0.1345	185852	keystroke_i	i	n/a
92.9705	0.15	185941	keystroke_o	o	n/a
93.0755	0.12	186151	keystroke_n	n	n/a
93.3005	0.09	186601	keystroke_s	s	n/a
93.4805	0.105	186961	keystroke_Key.space	Key.space	n/a
93.7355	0.075	187471	keystroke_l	l	n/a
93.7955	0.12	187591	keystroke_a	a	n/a
94.0955	0.075	188191	keystroke_b	b	n/a
94.3205	0.075	188641	keystroke_e	e	n/a
94.425	0.0755	188850	keystroke_l	l	n/a
94.6055	0.1195	189211	keystroke_Key.space	Key.space	n/a
95.1455	0.0895	190291	keystroke_d	d	n/a
95.265	0.075	190530	keystroke_i	i	n/a
95.415	0.075	190830	keystroke_s	s	n/a
95.6105	0.1645	191221	keystroke_p	p	n/a
95.73	0.105	191460	keystroke_o	o	n/a
96.03	0.075	192060	keystroke_s	s	n/a
96.1345	0.09	192269	keystroke_i	i	n/a
96.3295	0.06	192659	keystroke_t	t	n/a
96.4345	0.1205	192869	keystroke_i	i	n/a
96.4645	0.165	192929	keystroke_o	o	n/a
96.5995	0.15	193199	keystroke_n	n	n/a
96.7645	0.0905	193529	keystroke_Key.space	Key.space	n/a
97.0345	0.03	194069	keystroke_a	a	n/a
97.4995	0.106	194999	keystroke_r	r	n/a
97.9045	0.0895	195809	keystroke_g	g	n/a
98.084	0.1055	196168	keystroke_e	e	n/a
98.2495	0.1195	196499	keystroke_n	n	n/a
98.399	0.09	196798	keystroke_t	t	n/a
98.534	0.06	197068	keystroke_i	i	n/a
98.744	0.12	197488	keystroke_n	n	n/a
98.849	0.09	197698	keystroke_e	e	n/a
99.239	0.09	198478	keystroke_Key.backspace	Key.backspace	n/a
99.344	0.075	198688	keystroke_a	a	n/a
99.5545	0.1195	199109	keystroke_Key.enter	Key.enter	n/a
99.6785	7.526	199357	prompt	n/a	separated theater gamespot expect\n
100.409	0.1045	200818	keystroke_s	s	n/a
100.6635	0.075	201327	keystroke_e	e	n/a
100.7545	0.074	201509	keystroke_p	p	n/a
100.8435	0.105	201687	keystroke_a	a	n/a
101.0685	0.12	202137	keystroke_r	r	n/a
101.1585	0.12	202317	keystroke_a	a	n/a
101.3985	0.09	202797	keystroke_t	t	n/a
101.459	0.0895	202918	keystroke_e	e	n/a
101.7135	0.0755	203427	keystroke_d	d	n/a
101.8185	0.15	203637	keystroke_Key.space	Key.space	n/a
102.1635	0.0905	204327	keystroke_t	t	n/a
102.3435	0.03	204687	keystroke_h	h	n/a
102.3885	0.075	204777	keystroke_e	e	n/a
102.6135	0.09	205227	keystroke_a	a	n/a
102.8835	0.09	205767	keystroke_t	t	n/a
102.9885	0.165	205977	keystroke_e	e	n/a
103.1235	0.105	206247	keystroke_r	r	n/a
103.2885	0.1345	206577	keystroke_Key.space	Key.space	n/a
103.723	0.121	207446	keystroke_g	g	n/a
103.8435	0.0895	207687	keystroke_a	a	n/a
103.963	0.12	207926	keystroke_m	m	n/a
104.0685	0.105	208137	keystroke_e	e	n/a
104.3085	0.1195	208617	keystroke_s	s	n/a
104.518	0.1355	209036	keystroke_p	p	n/a
104.623	0.1355	209246	keystroke_o	o	n/a
104.863	0.0915	209726	keystroke_t	t	n/a
105.478	0.09	210956	keystroke_Key.space	Key.space	n/a
105.613	0.0905	211226	keystroke_e	e	n/a
105.898	0.1055	211796	keystroke_x	x	n/a
106.033	0.09	212066	keystroke_p	p	n/a
106.258	0.075	212516	keystroke_e	e	n/a
106.558	0.12	213116	keystroke_c	c	n/a
106.873	0.075	213746	keystroke_t	t	n/a
107.098	0.1055	214196	keystroke_Key.enter	Key.enter	n/a
107.207	6.657	214414	prompt	n/a	stripes pack attitude implement\n
107.893	0.09	215786	keystroke_s	s	n/a
108.193	0.105	216386	keystroke_t	t	n/a
108.268	0.12	216536	keystroke_r	r	n/a
108.433	0.1205	216866	keystroke_i	i	n/a
108.658	0.06	217316	keystroke_p	p	n/a
108.733	0.09	217466	keystroke_e	e	n/a
108.898	0.105	217796	keystroke_s	s	n/a
109.018	0.135	218036	keystroke_Key.space	Key.space	n/a
109.228	0.09	218456	keystroke_p	p	n/a
109.288	0.105	218576	keystroke_a	a	n/a
109.543	0.12	219086	keystroke_c	c	n/a
109.678	0.09	219356	keystroke_k	k	n/a
109.858	0.135	219716	keystroke_Key.space	Key.space	n/a
110.293	0.105	220586	keystroke_a	a	n/a
110.548	0.075	221096	keystroke_t	t	n/a
110.683	0.12	221366	keystroke_t	t	n/a
110.878	0.075	221756	keystroke_i	i	n/a
111.028	0.09	222056	keystroke_t	t	n/a
111.463	0.09	222926	keystroke_u	u	n/a
111.5825	0.09	223165	keystroke_d	d	n/a
111.823	0.1045	223646	keystroke_e	e	n/a
112.033	0.1045	224066	keystroke_Key.space	Key.space	n/a
112.513	0.165	225026	keystroke_i	i	n/a
112.633	0.1045	225266	keystroke_m	m	n/a
112.888	0.1345	225776	keystroke_p	p	n/a
112.9775	0.1205	225955	keystroke_l	l	n/a
113.1125	0.06	226225	keystroke_e	e	n/a
113.2475	0.1205	226495	keystroke_m	m	n/a
113.3535	0.089	226707	keystroke_e	e	n/a
113.473	0.075	226946	keystroke_n	n	n/a
113.578	0.09	227156	keystroke_t	t	n/a
113.7875	0.075	227575	keystroke_Key.enter	Key.enter	n/a
113.867	9.8215	227734	prompt	n/a	constitutional university travels italic\n
114.6425	0.105	229285	keystroke_c	c	n/a
114.763	0.1345	229526	keystroke_o	o	n/a
114.838	0.1345	229676	keystroke_n	n	n/a
114.9575	0.105	229915	keystroke_s	s	n/a
115.753	0.0595	231506	keystroke_t	t	n/a
115.9925	0.0305	231985	keystroke_i	i	n/a
116.323	0.09	232646	keystroke_t	t	n/a
116.563	0.045	233126	keystroke_u	u	n/a
117.118	0.0745	234236	keystroke_t	t	n/a
117.253	0.15	234506	keystroke_i	i	n/a
117.373	0.135	234746	keystroke_o	o	n/a
117.568	0.135	235136	keystroke_n	n	n/a
117.748	0.09	235496	keystroke_a	a	n/a
117.883	0.075	235766	keystroke_l	l	n/a
117.9725	0.1355	235945	keystroke_Key.space	Key.space	n/a
118.438	0.135	236876	keystroke_u	u	n/a
118.543	0.0895	237086	keystroke_n	n	n/a
118.753	0.075	237506	keystroke_i	i	n/a
119.083	0.0145	238166	keystroke_v	v	n/a
119.563	0.15	239126	keystroke_e	e	n/a
119.668	0.09	239336	keystroke_r	r	n/a
119.8775	0.0905	239755	keystroke_s	s	n/a
120.0125	0.0755	240025	keystroke_i	i	n/a
120.1475	0.09	240295	keystroke_t	t	n/a
120.313	0.0745	240626	keystroke_y	y	n/a
120.523	0.0895	241046	keystroke_Key.space	Key.space	n/a
120.6875	0.15	241375	keystroke_t	t	n/a
120.808	0.1195	241616	keystroke_r	r	n/a
120.868	0.1355	241736	keystroke_a	a	n/a
121.1975	0.09	242395	keystroke_v	v	n/a
121.3175	0.105	242635	keystroke_e	e	n/a
121.468	0.0895	242936	keystroke_l	l	n/a
121.588	0.0895	243176	keystroke_s	s	n/a
121.708	0.1195	243416	keystroke_Key.space	Key.space	n/a
122.0825	0.06	244165	keystroke_i	i	n/a
122.2175	0.0905	244435	keystroke_t	t	n/a
122.4425	0.09	244885	keystroke_a	a	n/a
122.6075	0.15	245215	keystroke_l	l	n/a
122.7275	0.12	245455	keystroke_i	i	n/a
123.2225	0.1055	246445	keystroke_c	c	n/a
123.5825	0.105	247165	keystroke_Key.enter	Key.enter	n/a
123.6915	7.452	247383	prompt	n/a	creative setting realty elliott\n
124.3925	0.135	248785	keystroke_c	c	n/a
124.828	0.1645	249656	keystroke_r	r	n/a
124.903	0.1645	249806	keystroke_e	e	n/a
124.9775	0.1055	249955	keystroke_a	a	n/a
125.2035	0.1045	250407	keystroke_t	t	n/a
125.3975	0.09	250795	keystroke_i	i	n/a
125.533	0.1345	251066	keystroke_v	v	n/a
125.6225	0.105	251245	keystroke_e	e	n/a
125.7875	0.135	251575	keystroke_Key.space	Key.space	n/a
126.2075	0.12	252415	keystroke_s	s	n/a
126.4775	0.135	252955	keystroke_e	e	n/a
126.568	0.0895	253136	keystroke_t	t	n/a
126.7625	0.0905	253525	keystroke_t	t	n/a
126.8675	0.12	253735	keystroke_i	i	n/a
126.9425	0.1205	253885	keystroke_n	n	n/a
127.063	0.09	254126	keystroke_g	g	n/a
127.168	0.135	254336	keystroke_Key.space	Key.space	n/a
127.408	0.1195	254816	keystroke_r	r	n/a
127.4825	0.1955	254965	keystroke_e	e	n/a
127.6325	0.1205	255265	keystroke_a	a	n/a
127.7975	0.09	255595	keystroke_l	l	n/a
128.008	0.0895	256016	keystroke_t	t	n/a
128.3075	0.09	256615	keystroke_y	y	n/a
128.533	0.12	257066	keystroke_Key.space	Key.space	n/a
128.8625	0.105	257725	keystroke_e	e	n/a
129.0725	0.0605	258145	keystroke_l	l	n/a
129.253	0.075	258506	keystroke_l	l	n/a
129.3875	0.1205	258775	keystroke_i	i	n/a
129.703	0.0595	259406	keystroke_o	o	n/a
130.018	0.0745	260036	keystroke_t	t	n/a
130.753	0.0895	261506	keystroke_t	t	n/a
131.053	0.0895	262106	keystroke_Key.enter	Key.enter	n/a
131.1465	6.432	262293	prompt	n/a	mate passed input frontier\n
131.983	0.0895	263966	keystroke_m	m	n/a
132.2225	0.105	264445	keystroke_a	a	n/a
132.538	0.0745	265076	keystroke_t	t	n/a
132.5825	0.09	265165	keystroke_e	e	n/a
132.8075	0.12	265615	keystroke_Key.space	Key.space	n/a
133.1375	0.045	266275	keystroke_p	p	n/a
133.1675	0.135	266335	keystroke_a	a	n/a
133.453	0.0595	266906	keystroke_s	s	n/a
133.6175	0.0905	267235	keystroke_s	s	n/a
133.933	0.0745	267866	keystroke_e	e	n/a
134.158	0.1195	268316	keystroke_d	d	n/a
134.2925	0.12	268585	keystroke_Key.space	Key.space	n/a
134.5475	0.15	269095	keystroke_i	i	n/a
134.638	0.1045	269276	keystroke_n	n	n/a
134.8625	0.0905	269725	keystroke_p	p	n/a
135.1325	0.06	270265	keystroke_u	u	n/a
135.2375	0.09	270475	keystroke_t	t	n/a
135.358	0.1345	270716	keystroke_Key.space	Key.space	n/a
135.9125	0.105	271825	keystroke_f	f	n/a
136.1825	0.09	272365	keystroke_r	r	n/a
136.3475	0.135	272695	keystroke_o	o	n/a
136.3775	0.165	272755	keystroke_n	n	n/a
136.6175	0.06	273235	keystroke_t	t	n/a
136.813	0.075	273626	keystroke_i	i	n/a
136.9325	0.1055	273865	keystroke_e	e	n/a
137.2475	0.09	274495	keystroke_r	r	n/a
137.4425	0.135	274885	keystroke_Key.enter	Key.enter	n/a
137.5815	7.467	275163	prompt	n/a	occurs perry vulnerable it\n
138.3125	0.03	276625	keystroke_a	a	n/a
138.688	0.0595	277376	keystroke_Key.backspace	Key.backspace	n/a
139.018	0.0895	278036	keystroke_o	o	n/a
139.1825	0.09	278365	keystroke_c	c	n/a
139.513	0.1345	279026	keystroke_c	c	n/a
139.7975	0.06	279595	keystroke_u	u	n/a
140.0075	0.075	280015	keystroke_r	r	n/a
140.263	0.1045	280526	keystroke_s	s	n/a
140.4125	0.135	280825	keystroke_Key.space	Key.space	n/a
140.6825	0.06	281365	keystroke_p	p	n/a
140.7275	0.15	281455	keystroke_e	e	n/a
140.818	0.0895	281636	keystroke_r	r	n/a
141.013	0.105	282026	keystroke_r	r	n/a
141.283	0.0745	282566	keystroke_y	y	n/a
141.508	0.1195	283016	keystroke_Key.space	Key.space	n/a
141.8825	0.1205	283765	keystroke_v	v	n/a
142.4675	0.06	284935	keystroke_u	u	n/a
142.7675	0.075	285535	keystroke_l	l	n/a
143.3375	0.09	286675	keystroke_n	n	n/a
143.413	0.105	286826	keystroke_e	e	n/a
143.7275	0.12	287455	keystroke_r	r	n/a
143.818	0.1195	287636	keystroke_a	a	n/a
144.0875	0.105	288175	keystroke_b	b	n/a
144.2825	0.045	288565	keystroke_l	l	n/a
144.3425	0.09	288685	keystroke_e	e	n/a
144.4625	0.105	288925	keystroke_Key.space	Key.space	n/a
144.658	0.0895	289316	keystroke_i	i	n/a
144.748	0.0745	289496	keystroke_t	t	n/a
144.9425	0.105	289885	keystroke_Key.enter	Key.enter	n/a
145.052	8.9965	290104	prompt	n/a	rendered kodak doubt stations\n
145.7975	0.09	291595	keystroke_r	r	n/a
145.8575	0.12	291715	keystroke_e	e	n/a
146.0075	0.105	292015	keystroke_n	n	n/a
146.203	0.12	292406	keystroke_d	d	n/a
146.4575	0.03	292915	keystroke_e	e	n/a
146.5325	0.1055	293065	keystroke_e	e	n/a
147.1775	0.06	294355	keystroke_Key.backspace	Key.backspace	n/a
147.2675	0.12	294535	keystroke_r	r	n/a
147.3725	0.105	294745	keystroke_e	e	n/a
147.673	0.1195	295346	keystroke_d	d	n/a
148.3475	0.15	296695	keystroke_Key.space	Key.space	n/a
148.888	0.0445	297776	keystroke_k	k	n/a
149.1575	0.0605	298315	keystroke_o	o	n/a
149.5175	0.1655	299035	keystroke_d	d	n/a
149.6675	0.105	299335	keystroke_a	a	n/a
150.1625	0.06	300325	keystroke_k	k	n/a
150.6725	0.165	301345	keystroke_Key.space	Key.space	n/a
151.0325	0.15	302065	keystroke_d	d	n/a
151.2125	0.135	302425	keystroke_o	o	n/a
151.2875	0.12	302575	keystroke_u	u	n/a
151.6175	0.105	303235	keystroke_b	b	n/a
151.9175	0.075	303835	keystroke_t	t	n/a
152.1125	0.15	304225	keystroke_Key.space	Key.space	n/a
152.4575	0.135	304915	keystroke_s	s	n/a
152.683	0.1045	305366	keystroke_t	t	n/a
152.803	0.0895	305606	keystroke_a	a	n/a
152.878	0.1195	305756	keystroke_t	t	n/a
153.2225	0.135	306445	keystroke_i	i	n/a
153.3425	0.165	306685	keystroke_o	o	n/a
153.4625	0.135	306925	keystroke_n	n	n/a
153.5685	0.104	307137	keystroke_s	s	n/a
153.9275	0.12	307855	keystroke_Key.enter	Key.enter	n/a
154.0515	6.4475	308103	prompt	n/a	brands hammer websites sought\n
154.873	0.1045	309746	keystroke_b	b	n/a
155.3375	0.12	310675	keystroke_r	r	n/a
155.4425	0.105	310885	keystroke_a	a	n/a
155.6075	0.105	311215	keystroke_n	n	n/a
155.8175	0.135	311635	keystroke_d	d	n/a
155.953	0.105	311906	keystroke_s	s	n/a
156.1025	0.1205	312205	keystroke_Key.space	Key.space	n/a
156.388	0.075	312776	keystroke_h	h	n/a
156.4775	0.105	312955	keystroke_a	a	n/a
156.6875	0.06	313375	keystroke_m	m	n/a
156.868	0.075	313736	keystroke_m	m	n/a
156.958	0.1645	313916	keystroke_e	e	n/a
157.0625	0.09	314125	keystroke_r	r	n/a
157.3775	0.0155	314755	keystroke_Key.space	Key.space	n/a
157.483	0.135	314966	keystroke_w	w	n/a
157.588	0.09	315176	keystroke_e	e	n/a
158.143	0.0745	316286	keystroke_b	b	n/a
158.518	0.12	317036	keystroke_s	s	n/a
158.668	0.075	317336	keystroke_i	i	n/a
158.923	0.1345	317846	keystroke_t	t	n/a
158.968	0.1195	317936	keystroke_e	e	n/a
159.193	0.075	318386	keystroke_s	s	n/a
159.328	0.135	318656	keystroke_Key.space	Key.space	n/a
159.493	0.1045	318986	keystroke_s	s	n/a
159.613	0.105	319226	keystroke_o	o	n/a
159.703	0.075	319406	keystroke_u	u	n/a
159.928	0.105	319856	keystroke_g	g	n/a
160.078	0.12	320156	keystroke_h	h	n/a
160.2125	0.0755	320425	keystroke_t	t	n/a
160.408	0.09	320816	keystroke_Key.enter	Key.enter	n/a
160.502	10.332	321004	prompt	n/a	helped compressed discipline sick\n
161.323	0.09	322646	keystroke_h	h	n/a
161.428	0.075	322856	keystroke_e	e	n/a
161.578	0.06	323156	keystroke_l	l	n/a
161.803	0.075	323606	keystroke_p	p	n/a
162.013	0.075	324026	keystroke_e	e	n/a
162.283	0.105	324566	keystroke_d	d	n/a
162.508	0.12	325016	keystroke_Key.space	Key.space	n/a
162.988	0.105	325976	keystroke_c	c	n/a
163.108	0.15	326216	keystroke_o	o	n/a
163.183	0.135	326366	keystroke_m	m	n/a
163.408	0.105	326816	keystroke_p	p	n/a
163.588	0.12	327176	keystroke_r	r	n/a
163.678	0.1205	327356	keystroke_e	e	n/a
163.933	0.045	327866	keystroke_s	s	n/a
164.083	0.09	328166	keystroke_s	s	n/a
164.263	0.09	328526	keystroke_e	e	n/a
164.473	0.12	328946	keystroke_d	d	n/a
164.608	0.12	329216	keystroke_Key.space	Key.space	n/a
164.803	0.12	329606	keystroke_d	d	n/a
164.998	0.075	329996	keystroke_i	i	n/a
165.193	0.075	330386	keystroke_s	s	n/a
165.523	0.09	331046	keystroke_c	c	n/a
166.153	0.12	332306	keystroke_i	i	n/a
166.528	0.15	333056	keystroke_p	p	n/a
166.633	0.105	333266	keystroke_l	l	n/a
166.903	0.15	333806	keystroke_i	i	n/a
167.023	0.105	334046	keystroke_n	n	n/a
167.113	0.09	334226	keystroke_e	e	n/a
167.338	0.105	334676	keystroke_Key.space	Key.space	n/a
167.593	0.09	335186	keystroke_s	s	n/a
167.713	0.0905	335426	keystroke_i	i	n/a
168.028	0.03	336056	keystroke_v	v	n/a
168.418	0.105	336836	keystroke_k	k	n/a
168.823	0.03	337646	keystroke_Key.backspace	Key.backspace	n/a
168.958	0.075	337916	keystroke_Key.backspace	Key.backspace	n/a
169.048	0.09	338096	keystroke_v	v	n/a
169.243	0.12	338486	keystroke_k	k	n/a
169.768	0.06	339536	keystroke_Key.backspace	Key.backspace	n/a
169.948	0.045	339896	keystroke_Key.backspace	Key.backspace	n/a
170.008	0.09	340016	keystroke_c	c	n/a
170.4285	0.1195	340857	keystroke_k	k	n/a
170.713	0.12	341426	keystroke_Key.enter	Key.enter	n/a
170.837	8.217	341674	prompt	n/a	wines procedures specialists planner\n
171.598	0.12	343196	keystroke_w	w	n/a
171.733	0.135	343466	keystroke_i	i	n/a
171.853	0.09	343706	keystroke_n	n	n/a
171.958	0.09	343916	keystroke_e	e	n/a
172.153	0.105	344306	keystroke_s	s	n/a
172.273	0.105	344546	keystroke_Key.space	Key.space	n/a
172.483	0.075	344966	keystroke_p	p	n/a
172.603	0.1045	345206	keystroke_r	r	n/a
172.828	0.06	345656	keystroke_o	o	n/a
173.008	0.1345	346016	keystroke_c	c	n/a
173.158	0.0745	346316	keystroke_e	e	n/a
173.548	0.165	347096	keystroke_d	d	n/a
173.803	0.075	347606	keystroke_u	u	n/a
173.968	0.09	347936	keystroke_r	r	n/a
174.013	0.12	348026	keystroke_e	e	n/a
174.253	0.0895	348506	keystroke_s	s	n/a
174.463	0.12	348926	keystroke_Key.space	Key.space	n/a
174.913	0.105	349826	keystroke_s	s	n/a
175.033	0.075	350066	keystroke_p	p	n/a
175.153	0.0895	350306	keystroke_e	e	n/a
175.498	0.135	350996	keystroke_c	c	n/a
175.768	0.09	351536	keystroke_i	i	n/a
175.963	0.09	351926	keystroke_a	a	n/a
176.098	0.1495	352196	keystroke_l	l	n/a
176.233	0.075	352466	keystroke_i	i	n/a
176.353	0.135	352706	keystroke_s	s	n/a
176.623	0.105	353246	keystroke_t	t	n/a
176.788	0.135	353576	keystroke_s	s	n/a
177.058	0.15	354116	keystroke_Key.space	Key.space	n/a
177.493	0.15	354986	keystroke_p	p	n/a
177.598	0.12	355196	keystroke_l	l	n/a
177.733	0.105	355466	keystroke_a	a	n/a
177.958	0.075	355916	keystroke_n	n	n/a
178.138	0.09	356276	keystroke_n	n	n/a
178.213	0.15	356426	keystroke_e	e	n/a
178.288	0.105	356576	keystroke_r	r	n/a
178.9185	0.1345	357837	keystroke_Key.enter	Key.enter	n/a
179.059	8.215	358118	prompt	n/a	prayers chain thailand billy\n
180.553	0.12	361106	keystroke_p	p	n/a
181.243	0.15	362486	keystroke_r	r	n/a
181.423	0.105	362846	keystroke_a	a	n/a
181.813	0.06	363626	keystroke_e	e	n/a
182.233	0.06	364466	keystroke_Key.backspace	Key.backspace	n/a
182.518	0.06	365036	keystroke_y	y	n/a
182.608	0.1645	365216	keystroke_e	e	n/a
182.713	0.12	365426	keystroke_r	r	n/a
183.028	0.105	366056	keystroke_s	s	n/a
183.328	0.165	366656	keystroke_Key.space	Key.space	n/a
183.643	0.09	367286	keystroke_c	c	n/a
183.763	0.09	367526	keystroke_h	h	n/a
183.883	0.09	367766	keystroke_a	a	n/a
184.018	0.135	368036	keystroke_i	i	n/a
184.123	0.135	368246	keystroke_n	n	n/a
184.243	0.105	368486	keystroke_Key.space	Key.space	n/a
184.513	0.075	369026	keystroke_t	t	n/a
184.603	0.075	369206	keystroke_h	h	n/a
184.723	0.12	369446	keystroke_a	a	n/a
184.933	0.09	369866	keystroke_i	i	n/a
185.143	0.09	370286	keystroke_l	l	n/a
185.368	0.105	370736	keystroke_a	a	n/a
185.4885	0.0895	370977	keystroke_n	n	n/a
185.608	0.09	371216	keystroke_d	d	n/a
185.728	0.135	371456	keystroke_Key.space	Key.space	n/a
186.043	0.105	372086	keystroke_b	b	n/a
186.253	0.045	372506	keystroke_i	i	n/a
186.478	0.06	372956	keystroke_l	l	n/a
186.628	0.09	373256	keystroke_l	l	n/a
186.823	0.12	373646	keystroke_y	y	n/a
187.198	0.075	374396	keystroke_Key.enter	Key.enter	n/a
187.2775	12.0715	374555	prompt	n/a	offset accreditation chapel listings\n
187.963	0.09	375926	keystroke_o	o	n/a
188.128	0.09	376256	keystroke_f	f	n/a
188.293	0.09	376586	keystroke_f	f	n/a
188.488	0.15	376976	keystroke_e	e	n/a
188.743	0.135	377486	keystroke_t	t	n/a
189.043	0.12	378086	keystroke_Key.space	Key.space	n/a
189.418	0.12	378836	keystroke_a	a	n/a
189.973	0.075	379946	keystroke_c	c	n/a
190.498	0.12	380996	keystroke_c	c	n/a
191.0235	0.0595	382047	keystroke_Key.backspace	Key.backspace	n/a
191.203	0.06	382406	keystroke_Key.backspace	Key.backspace	n/a
191.383	0.045	382766	keystroke_Key.backspace	Key.backspace	n/a
191.548	0.045	383096	keystroke_Key.backspace	Key.backspace	n/a
191.713	0.06	383426	keystroke_Key.backspace	Key.backspace	n/a
191.908	0.06	383816	keystroke_Key.backspace	Key.backspace	n/a
192.058	0.105	384116	keystroke_s	s	n/a
192.463	0.09	384926	keystroke_e	e	n/a
192.628	0.105	385256	keystroke_t	t	n/a
192.778	0.105	385556	keystroke_Key.space	Key.space	n/a
192.943	0.12	385886	keystroke_a	a	n/a
193.378	0.12	386756	keystroke_c	c	n/a
193.588	0.105	387176	keystroke_c	c	n/a
193.993	0.135	387986	keystroke_r	r	n/a
194.0695	0.1185	388139	keystroke_e	e	n/a
194.323	0.09	388646	keystroke_d	d	n/a
194.488	0.06	388976	keystroke_i	i	n/a
194.668	0.045	389336	keystroke_c	c	n/a
195.118	0.075	390236	keystroke_Key.backspace	Key.backspace	n/a
195.2385	0.0895	390477	keystroke_t	t	n/a
195.358	0.12	390716	keystroke_a	a	n/a
195.673	0.06	391346	keystroke_t	t	n/a
195.718	0.195	391436	keystroke_i	i	n/a
195.823	0.135	391646	keystroke_o	o	n/a
195.943	0.135	391886	keystroke_n	n	n/a
196.063	0.12	392126	keystroke_Key.space	Key.space	n/a
196.483	0.105	392966	keystroke_c	c	n/a
196.633	0.06	393266	keystroke_h	h	n/a
196.708	0.09	393416	keystroke_a	a	n/a
196.888	0.09	393776	keystroke_p	p	n/a
197.068	0.105	394136	keystroke_e	e	n/a
197.323	0.09	394646	keystroke_l	l	n/a
197.548	0.12	395096	keystroke_Key.space	Key.space	n/a
198.028	0.18	396056	keystroke_l	l	n/a
198.148	0.12	396296	keystroke_i	i	n/a
198.283	0.105	396566	keystroke_s	s	n/a
198.463	0.105	396926	keystroke_t	t	n/a
198.628	0.15	397256	keystroke_i	i	n/a
198.688	0.165	397376	keystroke_n	n	n/a
198.883	0.12	397766	keystroke_g	g	n/a
199.063	0.09	398126	keystroke_s	s	n/a
199.258	0.09	398516	keystroke_Key.enter	Key.enter	n/a
199.352	10.287	398704	prompt	n/a	successfully joyce trails surprise\n
200.158	0.12	400316	keystroke_s	s	n/a
200.398	0.06	400796	keystroke_u	u	n/a
200.758	0.135	401516	keystroke_c	c	n/a
200.968	0.12	401936	keystroke_c	c	n/a
201.223	0.105	402446	keystroke_e	e	n/a
201.433	0.09	402866	keystroke_s	s	n/a
201.643	0.09	403286	keystroke_s	s	n/a
201.823	0.12	403646	keystroke_f	f	n/a
202.018	0.105	404036	keystroke_u	u	n/a
202.288	0.09	404576	keystroke_l	l	n/a
202.483	0.06	404966	keystroke_l	l	n/a
202.708	0.09	405416	keystroke_y	y	n/a
202.933	0.0755	405866	keystroke_Key.space	Key.space	n/a
203.218	0.135	406436	keystroke_j	j	n/a
203.413	0.12	406826	keystroke_o	o	n/a
203.818	0.09	407636	keystroke_y	y	n/a
204.673	0.15	409346	keystroke_s	s	n/a
205.243	0.06	410486	keystroke_Key.backspace	Key.backspace	n/a
205.363	0.12	410726	keystroke_c	c	n/a
205.603	0.105	411206	keystroke_e	e	n/a
205.888	0.135	411776	keystroke_Key.space	Key.space	n/a
206.518	0.15	413036	keystroke_t	t	n/a
206.593	0.165	413186	keystroke_r	r	n/a
206.683	0.135	413366	keystroke_a	a	n/a
206.833	0.165	413666	keystroke_i	i	n/a
206.968	0.075	413936	keystroke_l	l	n/a
207.118	0.09	414236	keystroke_s	s	n/a
207.238	0.135	414476	keystroke_Key.space	Key.space	n/a
207.673	0.105	415346	keystroke_s	s	n/a
207.838	0.09	415676	keystroke_u	u	n/a
208.1385	0.0745	416277	keystroke_p	p	n/a
208.303	0.075	416606	keystroke_r	r	n/a
208.813	0.075	417626	keystroke_i	i	n/a
209.083	0.195	418166	keystroke_s	s	n/a
209.218	0.135	418436	keystroke_e	e	n/a
209.548	0.09	419096	keystroke_Key.enter	Key.enter	n/a
209.642	9.297	419284	prompt	n/a	physical surgical wisdom virgin\n
210.358	0.12	420716	keystroke_p	p	n/a
210.673	0.075	421346	keystroke_h	h	n/a
211.048	0.135	422096	keystroke_y	y	n/a
211.573	0.075	423146	keystroke_s	s	n/a
211.708	0.105	423416	keystroke_i	i	n/a
212.008	0.165	424016	keystroke_c	c	n/a
212.188	0.105	424376	keystroke_a	a	n/a
212.338	0.105	424676	keystroke_l	l	n/a
212.473	0.15	424946	keystroke_Key.space	Key.space	n/a
212.878	0.105	425756	keystroke_s	s	n/a
213.073	0.075	426146	keystroke_u	u	n/a
213.313	0.075	426626	keystroke_r	r	n/a
213.703	0.06	427406	keystroke_g	g	n/a
213.778	0.09	427556	keystroke_i	i	n/a
214.138	0.135	428276	keystroke_c	c	n/a
214.198	0.18	428396	keystroke_a	a	n/a
214.378	0.09	428756	keystroke_l	l	n/a
214.573	0.12	429146	keystroke_Key.space	Key.space	n/a
214.918	0.135	429836	keystroke_w	w	n/a
215.443	0.09	430886	keystroke_i	i	n/a
215.593	0.105	431186	keystroke_s	s	n/a
216.058	0.12	432116	keystroke_d	d	n/a
216.163	0.165	432326	keystroke_o	o	n/a
216.268	0.105	432536	keystroke_m	m	n/a
216.493	0.12	432986	keystroke_Key.space	Key.space	n/a
217.123	0.15	434246	keystroke_v	v	n/a
217.543	0.105	435086	keystroke_i	i	n/a
217.753	0.105	435506	keystroke_r	r	n/a
218.188	0.09	436376	keystroke_g	g	n/a
218.338	0.15	436676	keystroke_i	i	n/a
218.458	0.135	436916	keystroke_n	n	n/a
218.818	0.12	437636	keystroke_Key.enter	Key.enter	n/a
218.942	9.778	437884	prompt	n/a	weddings calcium massachusetts currencies\n
219.808	0.15	439616	keystroke_w	w	n/a
219.8985	0.1045	439797	keystroke_e	e	n/a
220.258	0.075	440516	keystroke_d	d	n/a
220.528	0.015	441056	keystroke_d	d	n/a
220.603	0.12	441206	keystroke_i	i	n/a
220.663	0.135	441326	keystroke_n	n	n/a
220.828	0.105	441656	keystroke_g	g	n/a
221.023	0.12	442046	keystroke_s	s	n/a
221.398	0.122	442796	keystroke_Key.space	Key.space	n/a
221.998	0.165	443996	keystroke_c	c	n/a
222.103	0.12	444206	keystroke_a	a	n/a
222.268	0.09	444536	keystroke_l	l	n/a
222.433	0.12	444866	keystroke_c	c	n/a
222.958	0.06	445916	keystroke_i	i	n/a
223.198	0.075	446396	keystroke_u	u	n/a
223.483	0.105	446966	keystroke_m	m	n/a
223.738	0.12	447476	keystroke_Key.space	Key.space	n/a
224.128	0.105	448256	keystroke_m	m	n/a
224.203	0.1505	448406	keystroke_a	a	n/a
224.323	0.075	448646	keystroke_s	s	n/a
224.503	0.09	449006	keystroke_s	s	n/a
224.848	0.135	449696	keystroke_c	c	n/a
225.028	0.09	450056	keystroke_h	h	n/a
225.269	0.074	450538	keystroke_u	u	n/a
225.463	0.075	450926	keystroke_s	s	n/a
226.003	0.075	452006	keystroke_e	e	n/a
226.198	0.09	452396	keystroke_t	t	n/a
226.363	0.105	452726	keystroke_t	t	n/a
226.588	0.105	453176	keystroke_s	s	n/a
226.738	0.15	453476	keystroke_Key.space	Key.space	n/a
226.963	0.15	453926	keystroke_c	c	n/a
227.143	0.075	454286	keystroke_u	u	n/a
227.428	0.045	454856	keystroke_r	r	n/a
227.563	0.1065	455126	keystroke_r	r	n/a
227.638	0.12	455276	keystroke_e	e	n/a
227.818	0.12	455636	keystroke_n	n	n/a
228.073	0.09	456146	keystroke_c	c	n/a
228.193	0.0605	456386	keystroke_i	i	n/a
228.298	0.0905	456596	keystroke_e	e	n/a
228.463	0.0905	456926	keystroke_s	s	n/a
228.628	0.091	457256	keystroke_Key.enter	Key.enter	n/a
228.723	6.5365	457446	prompt	n/a	organisms fear orange exception\n
229.513	0.075	459026	keystroke_o	o	n/a
229.663	0.0905	459326	keystroke_r	r	n/a
230.053	0.0755	460106	keystroke_g	g	n/a
230.188	0.135	460376	keystroke_a	a	n/a
230.338	0.12	460676	keystroke_n	n	n/a
230.578	0.075	461156	keystroke_i	i	n/a
230.638	0.135	461276	keystroke_s	s	n/a
230.833	0.136	461666	keystroke_m	m	n/a
230.953	0.12	461906	keystroke_s	s	n/a
231.133	0.09	462266	keystroke_Key.space	Key.space	n/a
231.403	0.15	462806	keystroke_f	f	n/a
231.478	0.18	462956	keystroke_e	e	n/a
231.613	0.12	463226	keystroke_a	a	n/a
231.869	0.104	463738	keystroke_r	r	n/a
232.108	0.12	464216	keystroke_Key.space	Key.space	n/a
232.393	0.09	464786	keystroke_o	o	n/a
232.513	0.135	465026	keystroke_r	r	n/a
232.633	0.12	465266	keystroke_a	a	n/a
232.769	0.089	465538	keystroke_n	n	n/a
232.963	0.105	465926	keystroke_g	g	n/a
233.023	0.12	466046	keystroke_e	e	n/a
233.203	0.135	466406	keystroke_Key.space	Key.space	n/a
233.5485	0.0895	467097	keystroke_e	e	n/a
233.833	0.135	467666	keystroke_x	x	n/a
234.119	0.134	468238	keystroke_c	c	n/a
234.208	0.135	468416	keystroke_e	e	n/a
234.3735	0.1045	468747	keystroke_p	p	n/a
234.553	0.0905	469106	keystroke_t	t	n/a
234.6585	0.1345	469317	keystroke_i	i	n/a
234.733	0.136	469466	keystroke_o	o	n/a
234.838	0.135	469676	keystroke_n	n	n/a
235.169	0.089	470338	keystroke_Key.enter	Key.enter	n/a
235.263	9.058	470526	prompt	n/a	celebration but windsor forth\n
236.023	0.18	472046	keystroke_c	c	n/a
236.219	0.104	472438	keystroke_e	e	n/a
236.368	0.105	472736	keystroke_l	l	n/a
236.488	0.12	472976	keystroke_e	e	n/a
236.773	0.1205	473546	keystroke_v	v	n/a
237.1785	0.075	474357	keystroke_r	r	n/a
237.523	0.046	475046	keystroke_Key.backspace	Key.backspace	n/a
237.673	0.06	475346	keystroke_Key.backspace	Key.backspace	n/a
237.748	0.105	475496	keystroke_b	b	n/a
238.093	0.12	476186	keystroke_r	r	n/a
238.169	0.1045	476338	keystroke_a	a	n/a
238.3785	0.0905	476757	keystroke_t	t	n/a
238.4835	0.1195	476967	keystroke_i	i	n/a
238.5585	0.1345	477117	keystroke_o	o	n/a
238.6485	0.1345	477297	keystroke_n	n	n/a
238.738	0.1205	477476	keystroke_Key.space	Key.space	n/a
239.008	0.075	478016	keystroke_b	b	n/a
239.2485	0.105	478497	keystroke_u	u	n/a
239.458	0.075	478916	keystroke_t	t	n/a
239.578	0.12	479156	keystroke_Key.space	Key.space	n/a
239.969	0.044	479938	keystroke_w	w	n/a
240.238	0.182	480476	keystroke_i	i	n/a
240.3885	0.12	480777	keystroke_n	n	n/a
240.553	0.09	481106	keystroke_d	d	n/a
241.078	0.0755	482156	keystroke_Key.backspace	Key.backspace	n/a
241.648	0.105	483296	keystroke_d	d	n/a
241.963	0.075	483926	keystroke_o	o	n/a
242.443	0.045	484886	keystroke_Key.backspace	Key.backspace	n/a
242.519	0.089	485038	keystroke_s	s	n/a
242.698	0.105	485396	keystroke_o	o	n/a
242.878	0.0915	485756	keystroke_r	r	n/a
243.043	0.12	486086	keystroke_Key.space	Key.space	n/a
243.269	0.089	486538	keystroke_f	f	n/a
243.373	0.075	486746	keystroke_o	o	n/a
243.5235	0.0895	487047	keystroke_r	r	n/a
243.7485	0.0745	487497	keystroke_t	t	n/a
243.853	0.09	487706	keystroke_h	h	n/a
244.228	0.091	488456	keystroke_Key.enter	Key.enter	n/a
244.3245	8.65	488649	prompt	n/a	childhood county collaborative systematic\n
245.158	0.165	490316	keystroke_c	c	n/a
245.3385	0.1345	490677	keystroke_h	h	n/a
245.428	0.12	490856	keystroke_i	i	n/a
245.683	0.06	491366	keystroke_l	l	n/a
245.8035	0.1045	491607	keystroke_d	d	n/a
246.163	0.075	492326	keystroke_h	h	n/a
246.328	0.105	492656	keystroke_o	o	n/a
246.5085	0.1045	493017	keystroke_o	o	n/a
246.703	0.075	493406	keystroke_d	d	n/a
246.943	0.12	493886	keystroke_Key.space	Key.space	n/a
247.288	0.135	494576	keystroke_c	c	n/a
247.363	0.106	494726	keystroke_o	o	n/a
247.438	0.09	494876	keystroke_u	u	n/a
247.678	0.12	495356	keystroke_n	n	n/a
247.783	0.0905	495566	keystroke_t	t	n/a
248.0085	0.0745	496017	keystroke_y	y	n/a
248.2035	0.09	496407	keystroke_Key.space	Key.space	n/a
248.383	0.136	496766	keystroke_c	c	n/a
248.5035	0.0595	497007	keystroke_o	o	n/a
248.788	0.075	497576	keystroke_l	l	n/a
248.969	0.059	497938	keystroke_l	l	n/a
249.058	0.075	498116	keystroke_a	a	n/a
249.448	0.09	498896	keystroke_b	b	n/a
249.703	0.0605	499406	keystroke_o	o	n/a
249.913	0.106	499826	keystroke_r	r	n/a
250.033	0.105	500066	keystroke_a	a	n/a
250.2585	0.0745	500517	keystroke_t	t	n/a
250.4535	0.0595	500907	keystroke_i	i	n/a
250.543	0.135	501086	keystroke_v	v	n/a
250.648	0.09	501296	keystroke_e	e	n/a
250.7835	0.12	501567	keystroke_Key.space	Key.space	n/a
251.203	0.09	502406	keystroke_s	s	n/a
251.369	0.089	502738	keystroke_y	y	n/a
251.5035	0.0745	503007	keystroke_s	s	n/a
251.728	0.105	503456	keystroke_t	t	n/a
251.788	0.12	503576	keystroke_e	e	n/a
251.938	0.09	503876	keystroke_m	m	n/a
252.088	0.12	504176	keystroke_a	a	n/a
252.313	0.09	504626	keystroke_t	t	n/a
252.448	0.075	504896	keystroke_i	i	n/a
252.583	0.136	505166	keystroke_c	c	n/a
252.883	0.0905	505766	keystroke_Key.enter	Key.enter	n/a
252.9775	8.3665	505955	prompt	n/a	greenhouse cookies holocaust cradle\n
253.769	0.134	507538	keystroke_g	g	n/a
254.038	0.105	508076	keystroke_r	r	n/a
254.0985	0.1045	508197	keystroke_e	e	n/a
254.293	0.076	508586	keystroke_e	e	n/a
254.4135	0.1345	508827	keystroke_n	n	n/a
254.8635	0.0745	509727	keystroke_h	h	n/a
255.0135	0.1495	510027	keystroke_o	o	n/a
255.119	0.089	510238	keystroke_u	u	n/a
255.2235	0.0895	510447	keystroke_s	s	n/a
255.4335	0.1045	510867	keystroke_e	e	n/a
255.553	0.105	511106	keystroke_Key.space	Key.space	n/a
255.719	0.12	511438	keystroke_c	c	n/a
255.839	0.089	511678	keystroke_o	o	n/a
255.988	0.0905	511976	keystroke_o	o	n/a
256.2435	0.1195	512487	keystroke_k	k	n/a
256.513	0.0455	513026	keystroke_i	i	n/a
256.6195	0.104	513239	keystroke_e	e	n/a
256.8285	0.105	513657	keystroke_s	s	n/a
256.9635	0.12	513927	keystroke_Key.space	Key.space	n/a
257.5335	0.075	515067	keystroke_h	h	n/a
257.7135	0.09	515427	keystroke_o	o	n/a
257.9385	0.075	515877	keystroke_l	l	n/a
258.1335	0.0745	516267	keystroke_o	o	n/a
258.373	0.1355	516746	keystroke_c	c	n/a
258.4635	0.1055	516927	keystroke_a	a	n/a
258.7785	0.0905	517557	keystroke_u	u	n/a
258.8985	0.18	517797	keystroke_s	s	n/a
259.1985	0.105	518397	keystroke_t	t	n/a
259.378	0.1505	518756	keystroke_Key.space	Key.space	n/a
259.9035	0.105	519807	keystroke_c	c	n/a
260.219	0.1505	520438	keystroke_r	r	n/a
260.3235	0.135	520647	keystroke_a	a	n/a
260.6835	0.105	521367	keystroke_d	d	n/a
260.8935	0.09	521787	keystroke_l	l	n/a
261.0285	0.1045	522057	keystroke_e	e	n/a
261.269	0.074	522538	keystroke_Key.enter	Key.enter	n/a
261.347	8.562	522694	prompt	n/a	winter wisconsin twin orbit\n
262.093	0.09	524186	keystroke_w	w	n/a
262.169	0.15	524338	keystroke_i	i	n/a
262.2735	0.135	524547	keystroke_n	n	n/a
262.5585	0.12	525117	keystroke_t	t	n/a
262.6485	0.195	525297	keystroke_e	e	n/a
262.7985	0.09	525597	keystroke_r	r	n/a
263.0985	0.135	526197	keystroke_Key.space	Key.space	n/a
263.4735	0.09	526947	keystroke_w	w	n/a
263.5785	0.0905	527157	keystroke_i	i	n/a
264.133	0.0905	528266	keystroke_s	s	n/a
264.4635	0.1195	528927	keystroke_c	c	n/a
264.5985	0.1345	529197	keystroke_o	o	n/a
264.719	0.0895	529438	keystroke_n	n	n/a
265.3785	0.105	530757	keystroke_v	v	n/a
265.6485	0.135	531297	keystroke_i	i	n/a
265.7385	0.1045	531477	keystroke_n	n	n/a
266.1435	0.045	532287	keystroke_Key.backspace	Key.backspace	n/a
266.293	0.0605	532586	keystroke_Key.backspace	Key.backspace	n/a
266.458	0.075	532916	keystroke_Key.backspace	Key.backspace	n/a
266.5935	0.1045	533187	keystroke_c	c	n/a
266.9085	0.1045	533817	keystroke_i	i	n/a
266.9835	0.1045	533967	keystroke_n	n	n/a
267.2235	0.1345	534447	keystroke_Key.space	Key.space	n/a
267.569	0.089	535138	keystroke_t	t	n/a
267.7785	0.12	535557	keystroke_w	w	n/a
267.9285	0.0595	535857	keystroke_i	i	n/a
268.1535	0.135	536307	keystroke_n	n	n/a
268.2435	0.105	536487	keystroke_Key.space	Key.space	n/a
268.469	0.0895	536938	keystroke_o	o	n/a
268.5585	0.0745	537117	keystroke_r	r	n/a
268.8585	0.0895	537717	keystroke_b	b	n/a
268.9785	0.165	537957	keystroke_i	i	n/a
269.0835	0.12	538167	keystroke_n	n	n/a
269.488	0.09	538976	keystroke_Key.backspace	Key.backspace	n/a
269.593	0.06	539186	keystroke_t	t	n/a
269.7735	0.1345	539547	keystroke_Key.enter	Key.enter	n/a
269.912	6.5525	539824	prompt	n/a	closing remedies pressure things\n
270.5985	0.1645	541197	keystroke_c	c	n/a
270.778	0.091	541556	keystroke_l	l	n/a
271.019	0.089	542038	keystroke_o	o	n/a
271.2435	0.1345	542487	keystroke_s	s	n/a
271.4985	0.15	542997	keystroke_i	i	n/a
271.5885	0.135	543177	keystroke_n	n	n/a
271.7085	0.075	543417	keystroke_g	g	n/a
271.8885	0.135	543777	keystroke_Key.space	Key.space	n/a
272.1735	0.105	544347	keystroke_r	r	n/a
272.2485	0.1205	544497	keystroke_e	e	n/a
272.3835	0.12	544767	keystroke_m	m	n/a
272.519	0.0745	545038	keystroke_e	e	n/a
272.8035	0.0895	545607	keystroke_d	d	n/a
272.9535	0.075	545907	keystroke_i	i	n/a
273.2385	0.09	546477	keystroke_e	e	n/a
273.4335	0.15	546867	keystroke_s	s	n/a
273.6585	0.135	547317	keystroke_Key.space	Key.space	n/a
274.169	0.0745	548338	keystroke_p	p	n/a
274.2735	0.135	548547	keystroke_r	r	n/a
274.3785	0.12	548757	keystroke_e	e	n/a
274.619	0.0745	549238	keystroke_s	s	n/a
274.7985	0.09	549597	keystroke_s	s	n/a
274.9785	0.091	549957	keystroke_u	u	n/a
275.1135	0.1055	550227	keystroke_r	r	n/a
275.1885	0.12	550377	keystroke_e	e	n/a
275.2785	0.135	550557	keystroke_Key.space	Key.space	n/a
275.4435	0.09	550887	keystroke_t	t	n/a
275.5485	0.1055	551097	keystroke_h	h	n/a
275.8035	0.09	551607	keystroke_i	i	n/a
275.9985	0.105	551997	keystroke_n	n	n/a
276.1035	0.12	552207	keystroke_g	g	n/a
276.1785	0.12	552357	keystroke_s	s	n/a
276.3435	0.12	552687	keystroke_Key.enter	Key.enter	n/a
276.4675	14.232	552935	prompt	n/a	victor residential documented famous\n
277.3785	0.03	554757	keystroke_v	v	n/a
277.8435	0.0765	555687	keystroke_i	i	n/a
278.1885	0.15	556377	keystroke_c	c	n/a
278.5485	0.105	557097	keystroke_t	t	n/a
278.6835	0.06	557367	keystroke_o	o	n/a
278.8035	0.12	557607	keystroke_r	r	n/a
279.0885	0.09	558177	keystroke_Key.space	Key.space	n/a
279.3285	0.12	558657	keystroke_r	r	n/a
279.4195	0.104	558839	keystroke_e	e	n/a
279.6585	0.12	559317	keystroke_s	s	n/a
279.7935	0.0605	559587	keystroke_i	i	n/a
280.1385	0.06	560277	keystroke_f	f	n/a
280.1535	0.12	560307	keystroke_e	e	n/a
280.8585	0.0605	561717	keystroke_Key.backspace	Key.backspace	n/a
281.0235	0.06	562047	keystroke_Key.backspace	Key.backspace	n/a
281.0985	0.1205	562197	keystroke_d	d	n/a
281.369	0.0895	562738	keystroke_e	e	n/a
281.6535	0.09	563307	keystroke_n	n	n/a
281.819	0.0895	563638	keystroke_t	t	n/a
281.969	0.0595	563938	keystroke_i	i	n/a
282.0735	0.09	564147	keystroke_a	a	n/a
282.1935	0.0755	564387	keystroke_l	l	n/a
282.8235	0.09	565647	keystroke_d	d	n/a
282.9735	0.09	565947	keystroke_o	o	n/a
283.1235	0.12	566247	keystroke_c	c	n/a
283.4235	0.09	566847	keystroke_u	u	n/a
283.769	0.1345	567538	keystroke_m	m	n/a
284.2935	0.045	568587	keystroke_Key.backspace	Key.backspace	n/a
284.4585	0.0605	568917	keystroke_Key.backspace	Key.backspace	n/a
284.6235	0.0455	569247	keystroke_Key.backspace	Key.backspace	n/a
284.7735	0.075	569547	keystroke_Key.backspace	Key.backspace	n/a
284.9385	0.06	569877	keystroke_Key.backspace	Key.backspace	n/a
285.1635	0.09	570327	keystroke_Key.space	Key.space	n/a
285.3735	0.09	570747	keystroke_d	d	n/a
285.5085	0.075	571017	keystroke_o	o	n/a
285.7035	0.09	571407	keystroke_c	c	n/a
286.1385	0.105	572277	keystroke_u	u	n/a
286.5285	0.0915	573057	keystroke_m	m	n/a
286.6335	0.075	573267	keystroke_e	e	n/a
286.754	0.0595	573508	keystroke_n	n	n/a
286.8885	0.09	573777	keystroke_t	t	n/a
286.9635	0.1055	573927	keystroke_e	e	n/a
287.2035	0.075	574407	keystroke_d	d	n/a
287.3985	0.105	574797	keystroke_Key.space	Key.space	n/a
287.8335	0.1355	575667	keystroke_g	g	n/a
287.9385	0.105	575877	keystroke_a	a	n/a
288.2085	0.09	576417	keystroke_m	m	n/a
288.419	0.0895	576838	keystroke_o	o	n/a
288.8385	0.045	577677	keystroke_Key.backspace	Key.backspace	n/a
288.9885	0.075	577977	keystroke_Key.backspace	Key.backspace	n/a
289.169	0.0445	578338	keystroke_Key.backspace	Key.backspace	n/a
289.3335	0.06	578667	keystroke_Key.backspace	Key.backspace	n/a
289.4835	0.1205	578967	keystroke_f	f	n/a
289.5585	0.12	579117	keystroke_a	a	n/a
289.8435	0.135	579687	keystroke_m	m	n/a
290.069	0.1795	580138	keystroke_o	o	n/a
290.1735	0.12	580347	keystroke_u	u	n/a
290.4135	0.09	580827	keystroke_s	s	n/a
290.5935	0.105	581187	keystroke_Key.enter	Key.enter	n/a
290.7045	6.91	581409	prompt	n/a	marriott award grave today\n
291.4485	0.15	582897	keystroke_m	m	n/a
291.5835	0.105	583167	keystroke_a	a	n/a
291.8235	0.06	583647	keystroke_r	r	n/a
291.9435	0.06	583887	keystroke_i	i	n/a
292.3485	0.06	584697	keystroke_Key.backspace	Key.backspace	n/a
292.5435	0.0755	585087	keystroke_r	r	n/a
292.7235	0.105	585447	keystroke_i	i	n/a
292.9485	0.105	585897	keystroke_o	o	n/a
293.1285	0.105	586257	keystroke_t	t	n/a
293.3235	0.09	586647	keystroke_t	t	n/a
293.5335	0.12	587067	keystroke_Key.space	Key.space	n/a
293.7885	0.12	587577	keystroke_a	a	n/a
293.9535	0.09	587907	keystroke_w	w	n/a
294.119	0.1345	588238	keystroke_a	a	n/a
294.3585	0.09	588717	keystroke_r	r	n/a
294.5835	0.12	589167	keystroke_d	d	n/a
294.7785	0.12	589557	keystroke_Key.space	Key.space	n/a
295.1985	0.105	590397	keystroke_g	g	n/a
295.4985	0.1205	590997	keystroke_r	r	n/a
295.7085	0.105	591417	keystroke_a	a	n/a
295.9635	0.135	591927	keystroke_v	v	n/a
296.0835	0.09	592167	keystroke_e	e	n/a
296.3085	0.09	592617	keystroke_Key.space	Key.space	n/a
296.5935	0.09	593187	keystroke_t	t	n/a
296.6985	0.075	593397	keystroke_o	o	n/a
296.8935	0.15	593787	keystroke_d	d	n/a
296.969	0.1345	593938	keystroke_a	a	n/a
297.2085	0.09	594417	keystroke_y	y	n/a
297.5235	0.09	595047	keystroke_Key.enter	Key.enter	n/a
297.6175	7.782	595235	prompt	n/a	decrease organizer improving saves\n
298.3785	0.12	596757	keystroke_d	d	n/a
298.6335	0.09	597267	keystroke_e	e	n/a
298.8585	0.12	597717	keystroke_c	c	n/a
299.1735	0.165	598347	keystroke_r	r	n/a
299.2635	0.18	598527	keystroke_e	e	n/a
299.369	0.15	598738	keystroke_a	a	n/a
299.6385	0.12	599277	keystroke_s	s	n/a
299.8785	0.075	599757	keystroke_e	e	n/a
300.0435	0.12	600087	keystroke_Key.space	Key.space	n/a
300.2835	0.09	600567	keystroke_o	o	n/a
300.3585	0.09	600717	keystroke_r	r	n/a
300.5985	0.105	601197	keystroke_g	g	n/a
300.6885	0.12	601377	keystroke_a	a	n/a
300.8385	0.09	601677	keystroke_n	n	n/a
301.0785	0.06	602157	keystroke_i	i	n/a
301.1835	0.09	602367	keystroke_z	z	n/a
301.4385	0.105	602877	keystroke_e	e	n/a
301.6635	0.1055	603327	keystroke_r	r	n/a
301.8585	0.12	603717	keystroke_Key.space	Key.space	n/a
302.1435	0.15	604287	keystroke_i	i	n/a
302.2335	0.12	604467	keystroke_m	m	n/a
302.4135	0.135	604827	keystroke_p	p	n/a
302.5935	0.09	605187	keystroke_r	r	n/a
302.789	0.0895	605578	keystroke_o	o	n/a
303.4335	0.1355	606867	keystroke_v	v	n/a
303.7035	0.12	607407	keystroke_i	i	n/a
303.7935	0.12	607587	keystroke_n	n	n/a
303.8695	0.104	607739	keystroke_g	g	n/a
304.0485	0.1205	608097	keystroke_Key.space	Key.space	n/a
304.454	0.1495	608908	keystroke_s	s	n/a
304.5585	0.135	609117	keystroke_a	a	n/a
304.8285	0.12	609657	keystroke_v	v	n/a
304.904	0.135	609808	keystroke_e	e	n/a
305.1135	0.1055	610227	keystroke_s	s	n/a
305.2785	0.12	610557	keystroke_Key.enter	Key.enter	n/a
305.4025	6.102	610805	prompt	n/a	country donna morris rapid\n
306.5835	0.1205	613167	keystroke_c	c	n/a
306.8985	0.121	613797	keystroke_o	o	n/a
306.9885	0.09	613977	keystroke_u	u	n/a
307.1985	0.135	614397	keystroke_n	n	n/a
307.3635	0.1055	614727	keystroke_t	t	n/a
307.4385	0.105	614877	keystroke_r	r	n/a
307.5585	0.09	615117	keystroke_y	y	n/a
307.769	0.0895	615538	keystroke_Key.space	Key.space	n/a
308.1885	0.09	616377	keystroke_d	d	n/a
308.3385	0.06	616677	keystroke_o	o	n/a
308.5335	0.06	617067	keystroke_n	n	n/a
308.6835	0.09	617367	keystroke_n	n	n/a
308.7885	0.12	617577	keystroke_a	a	n/a
308.9235	0.105	617847	keystroke_Key.space	Key.space	n/a
309.1785	0.075	618357	keystroke_m	m	n/a
309.3885	0.06	618777	keystroke_o	o	n/a
309.4935	0.09	618987	keystroke_r	r	n/a
309.6585	0.105	619317	keystroke_r	r	n/a
309.7785	0.075	619557	keystroke_i	i	n/a
309.8985	0.09	619797	keystroke_s	s	n/a
310.019	0.0895	620038	keystroke_Key.space	Key.space	n/a
310.5285	0.135	621057	keystroke_r	r	n/a
310.619	0.1195	621238	keystroke_a	a	n/a
310.8585	0.075	621717	keystroke_p	p	n/a
311.069	0.0895	622138	keystroke_i	i	n/a
311.1735	0.09	622347	keystroke_d	d	n/a
311.3985	0.105	622797	keystroke_Key.enter	Key.enter	n/a
311.5075	6.057	623015	prompt	n/a	cuts surprised martha print\n
312.2085	0.12	624417	keystroke_c	c	n/a
312.5835	0.06	625167	keystroke_u	u	n/a
312.8535	0.09	625707	keystroke_t	t	n/a
313.019	0.1045	626038	keystroke_s	s	n/a
313.1695	0.119	626339	keystroke_Key.space	Key.space	n/a
313.5885	0.105	627177	keystroke_s	s	n/a
313.7535	0.075	627507	keystroke_u	u	n/a
313.8585	0.105	627717	keystroke_r	r	n/a
314.0685	0.075	628137	keystroke_p	p	n/a
314.2335	0.09	628467	keystroke_r	r	n/a
314.3535	0.06	628707	keystroke_i	i	n/a
314.4735	0.105	628947	keystroke_s	s	n/a
314.6985	0.075	629397	keystroke_e	e	n/a
314.9235	0.09	629847	keystroke_d	d	n/a
315.0435	0.105	630087	keystroke_Key.space	Key.space	n/a
315.284	0.1045	630568	keystroke_m	m	n/a
315.4035	0.09	630807	keystroke_a	a	n/a
315.5535	0.105	631107	keystroke_r	r	n/a
315.7635	0.09	631527	keystroke_t	t	n/a
315.8835	0.06	631767	keystroke_h	h	n/a
315.9885	0.12	631977	keystroke_a	a	n/a
316.1385	0.135	632277	keystroke_Key.space	Key.space	n/a
316.6035	0.12	633207	keystroke_p	p	n/a
316.7085	0.105	633417	keystroke_r	r	n/a
316.9035	0.18	633807	keystroke_i	i	n/a
317.0085	0.18	634017	keystroke_n	n	n/a
317.1735	0.105	634347	keystroke_t	t	n/a
317.444	0.1195	634888	keystroke_Key.enter	Key.enter	n/a
317.5675	6.4025	635135	prompt	n/a	implementing spine inspection globe\n
318.284	0.1495	636568	keystroke_i	i	n/a
318.3735	0.135	636747	keystroke_m	m	n/a
318.6135	0.15	637227	keystroke_p	p	n/a
318.7035	0.1655	637407	keystroke_l	l	n/a
318.8535	0.09	637707	keystroke_e	e	n/a
319.0335	0.135	638067	keystroke_m	m	n/a
319.1535	0.09	638307	keystroke_e	e	n/a
319.2885	0.075	638577	keystroke_n	n	n/a
319.3785	0.105	638757	keystroke_t	t	n/a
319.5585	0.15	639117	keystroke_i	i	n/a
319.6635	0.12	639327	keystroke_n	n	n/a
319.7985	0.0605	639597	keystroke_g	g	n/a
319.8885	0.12	639777	keystroke_Key.space	Key.space	n/a
320.0385	0.165	640077	keystroke_s	s	n/a
320.1585	0.1055	640317	keystroke_p	p	n/a
320.219	0.0895	640438	keystroke_i	i	n/a
320.4735	0.135	640947	keystroke_n	n	n/a
320.5935	0.09	641187	keystroke_e	e	n/a
320.7435	0.105	641487	keystroke_Key.space	Key.space	n/a
321.0585	0.12	642117	keystroke_i	i	n/a
321.104	0.1655	642208	keystroke_n	n	n/a
321.2235	0.12	642447	keystroke_s	s	n/a
321.4335	0.075	642867	keystroke_p	p	n/a
321.5835	0.075	643167	keystroke_e	e	n/a
321.8535	0.135	643707	keystroke_c	c	n/a
322.1685	0.09	644337	keystroke_t	t	n/a
322.2735	0.15	644547	keystroke_i	i	n/a
322.2885	0.15	644577	keystroke_o	o	n/a
322.3935	0.12	644787	keystroke_n	n	n/a
322.4985	0.105	644997	keystroke_Key.space	Key.space	n/a
322.8435	0.105	645687	keystroke_g	g	n/a
323.0385	0.0755	646077	keystroke_l	l	n/a
323.2635	0.075	646527	keystroke_o	o	n/a
323.4135	0.1055	646827	keystroke_b	b	n/a
323.669	0.0895	647338	keystroke_e	e	n/a
323.8635	0.1055	647727	keystroke_Key.enter	Key.enter	n/a
323.973	7.647	647946	prompt	n/a	eric consolidated loud opposed\n
324.7935	0.15	649587	keystroke_e	e	n/a
324.8835	0.1205	649767	keystroke_r	r	n/a
325.1235	0.075	650247	keystroke_i	i	n/a
325.3035	0.105	650607	keystroke_c	c	n/a
325.6785	0.12	651357	keystroke_Key.space	Key.space	n/a
326.2935	0.15	652587	keystroke_c	c	n/a
326.4285	0.15	652857	keystroke_o	o	n/a
326.5635	0.12	653127	keystroke_n	n	n/a
326.7435	0.105	653487	keystroke_s	s	n/a
326.8785	0.075	653757	keystroke_o	o	n/a
327.1035	0.09	654207	keystroke_l	l	n/a
327.3585	0.0305	654717	keystroke_u	u	n/a
327.8385	0.045	655677	keystroke_Key.backspace	Key.backspace	n/a
328.0935	0.0605	656187	keystroke_i	i	n/a
328.1985	0.15	656397	keystroke_d	d	n/a
328.2885	0.12	656577	keystroke_a	a	n/a
328.5435	0.105	657087	keystroke_t	t	n/a
328.6035	0.105	657207	keystroke_e	e	n/a
328.844	0.12	657688	keystroke_d	d	n/a
329.009	0.1195	658018	keystroke_Key.space	Key.space	n/a
329.2335	0.075	658467	keystroke_l	l	n/a
329.4585	0.18	658917	keystroke_o	o	n/a
329.5785	0.09	659157	keystroke_u	u	n/a
329.7135	0.1055	659427	keystroke_d	d	n/a
329.8335	0.15	659667	keystroke_Key.space	Key.space	n/a
330.3435	0.105	660687	keystroke_o	o	n/a
330.5985	0.06	661197	keystroke_p	p	n/a
330.7635	0.105	661527	keystroke_p	p	n/a
330.8835	0.09	661767	keystroke_o	o	n/a
330.9585	0.12	661917	keystroke_s	s	n/a
331.1985	0.075	662397	keystroke_e	e	n/a
331.409	0.1045	662818	keystroke_d	d	n/a
331.5285	0.09	663057	keystroke_Key.enter	Key.enter	n/a
331.623	7.8415	663246	prompt	n/a	listed announcements missouri incorrect\n
332.3985	0.105	664797	keystroke_l	l	n/a
332.7135	0.045	665427	keystroke_i	i	n/a
332.8035	0.105	665607	keystroke_s	s	n/a
333.089	0.1045	666178	keystroke_t	t	n/a
333.1635	0.105	666327	keystroke_e	e	n/a
333.3885	0.09	666777	keystroke_d	d	n/a
333.5385	0.135	667077	keystroke_Key.space	Key.space	n/a
333.7335	0.075	667467	keystroke_a	a	n/a
333.8535	0.075	667707	keystroke_n	n	n/a
334.019	0.1045	668038	keystroke_n	n	n/a
334.2135	0.12	668427	keystroke_o	o	n/a
334.3035	0.09	668607	keystroke_u	u	n/a
334.5135	0.12	669027	keystroke_n	n	n/a
334.769	0.09	669538	keystroke_c	c	n/a
334.8135	0.12	669627	keystroke_e	e	n/a
334.9785	0.105	669957	keystroke_m	m	n/a
335.1285	0.12	670257	keystroke_e	e	n/a
335.1885	0.09	670377	keystroke_n	n	n/a
335.3385	0.105	670677	keystroke_t	t	n/a
335.4885	0.105	670977	keystroke_s	s	n/a
335.6235	0.09	671247	keystroke_Key.space	Key.space	n/a
335.8035	0.135	671607	keystroke_m	m	n/a
336.0435	0.06	672087	keystroke_i	i	n/a
336.1485	0.09	672297	keystroke_s	s	n/a
336.3435	0.09	672687	keystroke_s	s	n/a
336.419	0.1045	672838	keystroke_o	o	n/a
336.4935	0.105	672987	keystroke_u	u	n/a
336.7035	0.09	673407	keystroke_r	r	n/a
336.8685	0.06	673737	keystroke_i	i	n/a
337.1385	0.12	674277	keystroke_Key.space	Key.space	n/a
337.619	0.0745	675238	keystroke_i	i	n/a
337.8285	0.105	675657	keystroke_n	n	n/a
338.1435	0.135	676287	keystroke_c	c	n/a
338.309	0.0745	676618	keystroke_o	o	n/a
338.4885	0.09	676977	keystroke_r	r	n/a
338.6385	0.12	677277	keystroke_r	r	n/a
338.7135	0.135	677427	keystroke_e	e	n/a
338.969	0.1195	677938	keystroke_c	c	n/a
339.2235	0.075	678447	keystroke_t	t	n/a
339.3735	0.09	678747	keystroke_Key.enter	Key.enter	n/a
339.4675	7.692	678935	prompt	n/a	showcase hear islands tables\n
341.1885	0.045	682377	keystroke_s	s	n/a
341.714	0.0895	683428	keystroke_h	h	n/a
341.969	0.2845	683938	keystroke_o	o	n/a
342.0735	0.06	684147	keystroke_u	u	n/a
342.7035	0.06	685407	keystroke_Key.backspace	Key.backspace	n/a
342.7785	0.075	685557	keystroke_w	w	n/a
343.1985	0.135	686397	keystroke_c	c	n/a
343.2585	0.15	686517	keystroke_a	a	n/a
343.5135	0.1055	687027	keystroke_s	s	n/a
343.7235	0.09	687447	keystroke_e	e	n/a
343.829	0.1345	687658	keystroke_Key.space	Key.space	n/a
344.0385	0.09	688077	keystroke_h	h	n/a
344.0985	0.15	688197	keystroke_e	e	n/a
344.1735	0.135	688347	keystroke_a	a	n/a
344.3535	0.09	688707	keystroke_r	r	n/a
344.4735	0.12	688947	keystroke_Key.space	Key.space	n/a
344.6985	0.105	689397	keystroke_i	i	n/a
344.7885	0.105	689577	keystroke_s	s	n/a
344.9695	0.074	689939	keystroke_l	l	n/a
345.119	0.0895	690238	keystroke_a	a	n/a
345.224	0.0595	690448	keystroke_n	n	n/a
345.4035	0.1655	690807	keystroke_d	d	n/a
345.5385	0.1505	691077	keystroke_s	s	n/a
345.7185	0.12	691437	keystroke_Key.space	Key.space	n/a
345.9735	0.1205	691947	keystroke_t	t	n/a
346.0935	0.105	692187	keystroke_a	a	n/a
346.1835	0.09	692367	keystroke_b	b	n/a
346.3785	0.06	692757	keystroke_l	l	n/a
346.4835	0.09	692967	keystroke_e	e	n/a
346.6785	0.0905	693357	keystroke_s	s	n/a
347.054	0.1045	694108	keystroke_Key.enter	Key.enter	n/a
347.1625	5.8025	694325	prompt	n/a	homepage april sure closed\n
347.9235	0.075	695847	keystroke_h	h	n/a
348.0885	0.12	696177	keystroke_o	o	n/a
348.3285	0.0905	696657	keystroke_m	m	n/a
348.4485	0.09	696897	keystroke_e	e	n/a
348.6435	0.09	697287	keystroke_p	p	n/a
348.7635	0.1055	697527	keystroke_a	a	n/a
349.0035	0.105	698007	keystroke_g	g	n/a
349.0785	0.12	698157	keystroke_e	e	n/a
349.2435	0.135	698487	keystroke_Key.space	Key.space	n/a
349.6335	0.1355	699267	keystroke_a	a	n/a
349.784	0.0895	699568	keystroke_p	p	n/a
350.0235	0.105	700047	keystroke_r	r	n/a
350.1735	0.075	700347	keystroke_i	i	n/a
350.3985	0.09	700797	keystroke_l	l	n/a
350.624	0.0895	701248	keystroke_Key.space	Key.space	n/a
350.9085	0.12	701817	keystroke_s	s	n/a
351.074	0.1345	702148	keystroke_u	u	n/a
351.314	0.105	702628	keystroke_r	r	n/a
351.3735	0.135	702747	keystroke_e	e	n/a
351.524	0.15	703048	keystroke_Key.space	Key.space	n/a
351.8085	0.15	703617	keystroke_c	c	n/a
351.9735	0.075	703947	keystroke_l	l	n/a
352.199	0.06	704398	keystroke_o	o	n/a
352.2735	0.105	704547	keystroke_s	s	n/a
352.4985	0.09	704997	keystroke_e	e	n/a
352.724	0.1195	705448	keystroke_d	d	n/a
352.844	0.1195	705688	keystroke_Key.enter	Key.enter	n/a
352.9675	10.0175	705935	prompt	n/a	nutrition duplicate minerals deutsch\n
353.729	0.1345	707458	keystroke_n	n	n/a
354.2985	0.09	708597	keystroke_u	u	n/a
354.7335	0.09	709467	keystroke_t	t	n/a
355.1085	0.105	710217	keystroke_r	r	n/a
355.2735	0.0605	710547	keystroke_i	i	n/a
355.454	0.0745	710908	keystroke_t	t	n/a
355.5435	0.135	711087	keystroke_i	i	n/a
355.6485	0.165	711297	keystroke_o	o	n/a
355.754	0.1495	711508	keystroke_n	n	n/a
355.9485	0.105	711897	keystroke_Key.space	Key.space	n/a
356.2035	0.15	712407	keystroke_d	d	n/a
356.4285	0.075	712857	keystroke_u	u	n/a
356.7135	0.15	713427	keystroke_p	p	n/a
356.819	0.1345	713638	keystroke_l	l	n/a
357.0885	0.075	714177	keystroke_i	i	n/a
357.179	0.1345	714358	keystroke_c	c	n/a
357.2685	0.12	714537	keystroke_a	a	n/a
357.479	0.1195	714958	keystroke_t	t	n/a
357.5535	0.105	715107	keystroke_e	e	n/a
357.704	0.135	715408	keystroke_Key.space	Key.space	n/a
357.989	0.1495	715978	keystroke_m	m	n/a
358.169	0.0895	716338	keystroke_i	i	n/a
358.3335	0.12	716667	keystroke_n	n	n/a
358.7535	0.09	717507	keystroke_e	e	n/a
359.0535	0.12	718107	keystroke_r	r	n/a
359.129	0.1045	718258	keystroke_a	a	n/a
359.2485	0.075	718497	keystroke_l	l	n/a
359.3835	0.105	718767	keystroke_s	s	n/a
359.519	0.1195	719038	keystroke_Key.space	Key.space	n/a
359.8635	0.015	719727	keystroke_d	d	n/a
360.2835	0.075	720567	keystroke_e	e	n/a
360.614	0.06	721228	keystroke_u	u	n/a
360.899	0.1045	721798	keystroke_t	t	n/a
362.0085	0.09	724017	keystroke_s	s	n/a
362.2195	0.1195	724439	keystroke_c	c	n/a
362.4135	0.1055	724827	keystroke_h	h	n/a
362.879	0.1045	725758	keystroke_Key.enter	Key.enter	n/a
362.988	10.647	725976	prompt	n/a	habits searched tiffany jenny\n
363.7935	0.06	727587	keystroke_h	h	n/a
363.8685	0.1055	727737	keystroke_a	a	n/a
364.1835	0.09	728367	keystroke_b	b	n/a
364.4535	0.075	728907	keystroke_i	i	n/a
364.574	0.135	729148	keystroke_t	t	n/a
364.694	0.09	729388	keystroke_s	s	n/a
364.8285	0.12	729657	keystroke_Key.space	Key.space	n/a
365.189	0.0895	730378	keystroke_s	s	n/a
365.4135	0.195	730827	keystroke_e	e	n/a
365.5185	0.165	731037	keystroke_a	a	n/a
365.7435	0.1055	731487	keystroke_r	r	n/a
366.014	0.105	732028	keystroke_c	c	n/a
366.1635	0.075	732327	keystroke_h	h	n/a
366.2985	0.105	732597	keystroke_e	e	n/a
366.539	0.105	733078	keystroke_d	d	n/a
366.6585	0.1355	733317	keystroke_Key.space	Key.space	n/a
366.9285	0.0755	733857	keystroke_t	t	n/a
367.0635	0.0605	734127	keystroke_i	i	n/a
367.259	0.1045	734518	keystroke_f	f	n/a
367.454	0.1645	734908	keystroke_f	f	n/a
367.6035	0.1355	735207	keystroke_a	a	n/a
367.7535	0.1205	735507	keystroke_n	n	n/a
368.069	0.0595	736138	keystroke_y	y	n/a
368.3085	0.1055	736617	keystroke_Key.space	Key.space	n/a
368.774	0.075	737548	keystroke_k	k	n/a
369.1935	0.045	738387	keystroke_e	e	n/a
369.479	0.0595	738958	keystroke_Key.backspace	Key.backspace	n/a
369.644	0.045	739288	keystroke_Key.backspace	Key.backspace	n/a
370.2585	0.0755	740517	keystroke_h	h	n/a
371.564	0.045	743128	keystroke_Key.backspace	Key.backspace	n/a
372.164	0.12	744328	keystroke_j	j	n/a
372.359	0.0745	744718	keystroke_e	e	n/a
372.734	0.0745	745468	keystroke_n	n	n/a
372.989	0.015	745978	keystroke_n	n	n/a
373.139	0.12	746278	keystroke_y	y	n/a
373.544	0.09	747088	keystroke_Key.enter	Key.enter	n/a
373.638	7.632	747276	prompt	n/a	status region prison contacted\n
374.369	0.1195	748738	keystroke_s	s	n/a
374.609	0.1195	749218	keystroke_t	t	n/a
374.699	0.1495	749398	keystroke_a	a	n/a
374.8195	0.1195	749639	keystroke_t	t	n/a
375.029	0.075	750058	keystroke_u	u	n/a
375.119	0.12	750238	keystroke_s	s	n/a
375.269	0.1195	750538	keystroke_Key.space	Key.space	n/a
375.584	0.105	751168	keystroke_r	r	n/a
375.629	0.135	751258	keystroke_e	e	n/a
376.049	0.09	752098	keystroke_g	g	n/a
376.259	0.1195	752518	keystroke_u	u	n/a
376.364	0.105	752728	keystroke_i	i	n/a
376.424	0.15	752848	keystroke_o	o	n/a
376.934	0.045	753868	keystroke_Key.backspace	Key.backspace	n/a
377.084	0.0745	754168	keystroke_Key.backspace	Key.backspace	n/a
377.249	0.09	754498	keystroke_Key.backspace	Key.backspace	n/a
377.579	0.135	755158	keystroke_i	i	n/a
377.654	0.18	755308	keystroke_o	o	n/a
377.789	0.165	755578	keystroke_n	n	n/a
378.014	0.12	756028	keystroke_Key.space	Key.space	n/a
378.479	0.09	756958	keystroke_p	p	n/a
378.614	0.105	757228	keystroke_r	r	n/a
378.734	0.105	757468	keystroke_i	i	n/a
378.974	0.12	757948	keystroke_s	s	n/a
379.064	0.165	758128	keystroke_o	o	n/a
379.154	0.15	758308	keystroke_n	n	n/a
379.334	0.075	758668	keystroke_Key.space	Key.space	n/a
379.649	0.15	759298	keystroke_c	c	n/a
379.769	0.165	759538	keystroke_o	o	n/a
379.889	0.105	759778	keystroke_n	n	n/a
380.0695	0.1195	760139	keystroke_t	t	n/a
380.159	0.135	760318	keystroke_a	a	n/a
380.369	0.12	760738	keystroke_c	c	n/a
380.654	0.165	761308	keystroke_t	t	n/a
380.789	0.09	761578	keystroke_e	e	n/a
381.014	0.105	762028	keystroke_d	d	n/a
381.179	0.09	762358	keystroke_Key.enter	Key.enter	n/a
381.2745	7.8705	762549	prompt	n/a	trinidad economic samples deep\n
382.079	0.15	764158	keystroke_t	t	n/a
382.199	0.105	764398	keystroke_r	r	n/a
382.349	0.09	764698	keystroke_i	i	n/a
382.559	0.09	765118	keystroke_n	n	n/a
382.784	0.06	765568	keystroke_i	i	n/a
383.039	0.135	766078	keystroke_d	d	n/a
383.159	0.12	766318	keystroke_a	a	n/a
383.744	0.09	767488	keystroke_d	d	n/a
383.939	0.165	767878	keystroke_Key.space	Key.space	n/a
384.224	0.075	768448	keystroke_e	e	n/a
384.659	0.135	769318	keystroke_c	c	n/a
385.154	0.075	770308	keystroke_o	o	n/a
385.364	0.12	770728	keystroke_n	n	n/a
385.604	0.075	771208	keystroke_o	o	n/a
385.844	0.105	771688	keystroke_m	m	n/a
386.084	0.06	772168	keystroke_i	i	n/a
386.264	0.06	772528	keystroke_c	c	n/a
386.369	0.135	772738	keystroke_Key.space	Key.space	n/a
386.999	0.15	773998	keystroke_s	s	n/a
387.104	0.12	774208	keystroke_a	a	n/a
387.254	0.12	774508	keystroke_m	m	n/a
387.359	0.18	774718	keystroke_p	p	n/a
387.479	0.105	774958	keystroke_l	l	n/a
387.539	0.105	775078	keystroke_e	e	n/a
387.689	0.12	775378	keystroke_s	s	n/a
387.809	0.12	775618	keystroke_Key.space	Key.space	n/a
387.974	0.105	775948	keystroke_d	d	n/a
388.184	0.0605	776368	keystroke_e	e	n/a
388.604	0.06	777208	keystroke_e	e	n/a
388.769	0.1055	777538	keystroke_p	p	n/a
389.054	0.09	778108	keystroke_Key.enter	Key.enter	n/a
389.148	5.247	778296	prompt	n/a	want short forbes hoped\n
389.9095	0.1645	779819	keystroke_w	w	n/a
390.059	0.12	780118	keystroke_a	a	n/a
390.194	0.12	780388	keystroke_n	n	n/a
390.329	0.09	780658	keystroke_t	t	n/a
390.434	0.12	780868	keystroke_Key.space	Key.space	n/a
390.584	0.135	781168	keystroke_s	s	n/a
390.734	0.06	781468	keystroke_h	h	n/a
390.899	0.075	781798	keystroke_o	o	n/a
390.929	0.12	781858	keystroke_r	r	n/a
391.169	0.105	782338	keystroke_t	t	n/a
391.289	0.12	782578	keystroke_Key.space	Key.space	n/a
391.514	0.12	783028	keystroke_f	f	n/a
391.679	0.075	783358	keystroke_o	o	n/a
391.814	0.105	783628	keystroke_r	r	n/a
392.219	0.06	784438	keystroke_b	b	n/a
392.324	0.105	784648	keystroke_e	e	n/a
392.6395	0.0895	785279	keystroke_s	s	n/a
392.744	0.12	785488	keystroke_Key.space	Key.space	n/a
393.284	0.06	786568	keystroke_h	h	n/a
393.434	0.09	786868	keystroke_o	o	n/a
393.749	0.06	787498	keystroke_p	p	n/a
393.884	0.105	787768	keystroke_e	e	n/a
394.109	0.135	788218	keystroke_d	d	n/a
394.304	0.09	788608	keystroke_Key.enter	Key.enter	n/a
394.3975	7.4825	788795	prompt	n/a	pink strategies motivation delivered\n
395.279	0.165	790558	keystroke_p	p	n/a
395.369	0.12	790738	keystroke_i	i	n/a
395.624	0.105	791248	keystroke_n	n	n/a
395.849	0.075	791698	keystroke_k	k	n/a
395.9995	0.1045	791999	keystroke_Key.space	Key.space	n/a
396.119	0.135	792238	keystroke_s	s	n/a
396.359	0.18	792718	keystroke_t	t	n/a
396.464	0.18	792928	keystroke_r	r	n/a
396.794	0.12	793588	keystroke_a	a	n/a
397.079	0.105	794158	keystroke_t	t	n/a
397.139	0.105	794278	keystroke_e	e	n/a
397.499	0.105	794998	keystroke_g	g	n/a
397.649	0.075	795298	keystroke_i	i	n/a
397.7545	0.1045	795509	keystroke_e	e	n/a
397.934	0.075	795868	keystroke_s	s	n/a
398.054	0.135	796108	keystroke_Key.space	Key.space	n/a
398.369	0.12	796738	keystroke_m	m	n/a
398.579	0.09	797158	keystroke_o	o	n/a
398.774	0.105	797548	keystroke_t	t	n/a
398.894	0.045	797788	keystroke_i	i	n/a
399.104	0.15	798208	keystroke_v	v	n/a
399.209	0.135	798418	keystroke_a	a	n/a
399.479	0.075	798958	keystroke_t	t	n/a
399.569	0.12	799138	keystroke_i	i	n/a
399.629	0.18	799258	keystroke_o	o	n/a
399.734	0.1805	799468	keystroke_n	n	n/a
399.869	0.09	799738	keystroke_Key.space	Key.space	n/a
400.154	0.09	800308	keystroke_d	d	n/a
400.364	0.075	800728	keystroke_e	e	n/a
400.499	0.15	800998	keystroke_l	l	n/a
400.589	0.09	801178	keystroke_i	i	n/a
400.919	0.12	801838	keystroke_v	v	n/a
401.159	0.12	802318	keystroke_e	e	n/a
401.234	0.12	802468	keystroke_r	r	n/a
401.399	0.105	802798	keystroke_e	e	n/a
401.624	0.12	803248	keystroke_d	d	n/a
401.789	0.09	803578	keystroke_Key.enter	Key.enter	n/a
401.883	7.287	803766	prompt	n/a	lightweight crude leslie grove\n
402.554	0.195	805108	keystroke_l	l	n/a
402.689	0.12	805378	keystroke_i	i	n/a
402.884	0.09	805768	keystroke_g	g	n/a
403.004	0.075	806008	keystroke_h	h	n/a
403.1095	0.0895	806219	keystroke_t	t	n/a
403.334	0.15	806668	keystroke_w	w	n/a
403.424	0.12	806848	keystroke_e	e	n/a
403.589	0.09	807178	keystroke_i	i	n/a
403.724	0.09	807448	keystroke_g	g	n/a
403.859	0.075	807718	keystroke_h	h	n/a
403.979	0.075	807958	keystroke_t	t	n/a
404.099	0.12	808198	keystroke_Key.space	Key.space	n/a
404.294	0.135	808588	keystroke_c	c	n/a
404.609	0.09	809218	keystroke_r	r	n/a
404.804	0.06	809608	keystroke_u	u	n/a
404.999	0.09	809998	keystroke_d	d	n/a
405.224	0.09	810448	keystroke_e	e	n/a
405.359	0.105	810718	keystroke_Key.space	Key.space	n/a
405.599	0.165	811198	keystroke_l	l	n/a
406.004	0.09	812008	keystroke_e	e	n/a
406.394	0.105	812788	keystroke_s	s	n/a
406.619	0.165	813238	keystroke_l	l	n/a
406.904	0.09	813808	keystroke_e	e	n/a
407.399	0.075	814798	keystroke_Key.backspace	Key.backspace	n/a
407.684	0.09	815368	keystroke_i	i	n/a
407.759	0.09	815518	keystroke_e	e	n/a
407.939	0.12	815878	keystroke_Key.space	Key.space	n/a
408.1495	0.1345	816299	keystroke_g	g	n/a
408.2245	0.1645	816449	keystroke_r	r	n/a
408.419	0.075	816838	keystroke_o	o	n/a
408.614	0.12	817228	keystroke_v	v	n/a
408.839	0.09	817678	keystroke_e	e	n/a
409.094	0.075	818188	keystroke_Key.enter	Key.enter	n/a
409.173	7.332	818346	prompt	n/a	describe rosa assurance wrap\n
410.129	0.09	820258	keystroke_d	d	n/a
410.3395	0.0895	820679	keystroke_e	e	n/a
410.594	0.12	821188	keystroke_s	s	n/a
410.819	0.135	821638	keystroke_c	c	n/a
411.1195	0.1195	822239	keystroke_r	r	n/a
411.329	0.06	822658	keystroke_i	i	n/a
411.479	0.105	822958	keystroke_b	b	n/a
411.7045	0.0895	823409	keystroke_e	e	n/a
411.869	0.15	823738	keystroke_Key.space	Key.space	n/a
412.454	0.09	824908	keystroke_r	r	n/a
412.574	0.075	825148	keystroke_o	o	n/a
412.709	0.12	825418	keystroke_s	s	n/a
413.084	0.135	826168	keystroke_a	a	n/a
413.279	0.15	826558	keystroke_Key.space	Key.space	n/a
413.624	0.09	827248	keystroke_a	a	n/a
413.819	0.075	827638	keystroke_s	s	n/a
413.969	0.105	827938	keystroke_s	s	n/a
414.224	0.06	828448	keystroke_u	u	n/a
414.389	0.135	828778	keystroke_r	r	n/a
414.494	0.105	828988	keystroke_a	a	n/a
414.7195	0.1045	829439	keystroke_n	n	n/a
414.839	0.12	829678	keystroke_c	c	n/a
414.899	0.12	829798	keystroke_e	e	n/a
415.064	0.15	830128	keystroke_Key.space	Key.space	n/a
415.454	0.12	830908	keystroke_w	w	n/a
415.7395	0.1045	831479	keystroke_r	r	n/a
415.919	0.135	831838	keystroke_a	a	n/a
416.099	0.075	832198	keystroke_p	p	n/a
416.399	0.105	832798	keystroke_Key.enter	Key.enter	n/a
416.508	8.217	833016	prompt	n/a	journey twenty willow disk\n
417.344	0.105	834688	keystroke_j	j	n/a
417.914	0.18	835828	keystroke_o	o	n/a
418.4845	0.0595	836969	keystroke_u	u	n/a
418.649	0.105	837298	keystroke_r	r	n/a
418.979	0.12	837958	keystroke_n	n	n/a
419.084	0.09	838168	keystroke_e	e	n/a
419.399	0.09	838798	keystroke_y	y	n/a
419.609	0.09	839218	keystroke_Key.space	Key.space	n/a
419.864	0.09	839728	keystroke_t	t	n/a
420.524	0.105	841048	keystroke_w	w	n/a
420.764	0.075	841528	keystroke_n	n	n/a
420.914	0.12	841828	keystroke_e	e	n/a
421.469	0.06	842938	keystroke_Key.backspace	Key.backspace	n/a
421.619	0.075	843238	keystroke_Key.backspace	Key.backspace	n/a
421.724	0.075	843448	keystroke_e	e	n/a
421.889	0.09	843778	keystroke_n	n	n/a
422.039	0.09	844078	keystroke_t	t	n/a
422.234	0.0605	844468	keystroke_y	y	n/a
422.504	0.135	845008	keystroke_Key.space	Key.space	n/a
422.699	0.09	845398	keystroke_w	w	n/a
422.8195	0.0445	845639	keystroke_i	i	n/a
423.014	0.045	846028	keystroke_l	l	n/a
423.164	0.075	846328	keystroke_l	l	n/a
423.374	0.06	846748	keystroke_o	o	n/a
423.4495	0.1045	846899	keystroke_w	w	n/a
423.599	0.135	847198	keystroke_Key.space	Key.space	n/a
423.959	0.06	847918	keystroke_d	d	n/a
424.064	0.06	848128	keystroke_i	i	n/a
424.214	0.09	848428	keystroke_s	s	n/a
424.334	0.12	848668	keystroke_k	k	n/a
424.604	0.12	849208	keystroke_Key.enter	Key.enter	n/a
424.728	7.272	849456	prompt	n/a	running candidate voice leone\n
425.534	0.09	851068	keystroke_r	r	n/a
425.639	0.06	851278	keystroke_u	u	n/a
425.849	0.076	851698	keystroke_n	n	n/a
426.014	0.075	852028	keystroke_n	n	n/a
426.209	0.135	852418	keystroke_i	i	n/a
426.299	0.12	852598	keystroke_n	n	n/a
426.434	0.09	852868	keystroke_g	g	n/a
426.539	0.135	853078	keystroke_Key.space	Key.space	n/a
426.809	0.165	853618	keystroke_c	c	n/a
426.929	0.12	853858	keystroke_a	a	n/a
427.094	0.105	854188	keystroke_n	n	n/a
427.259	0.135	854518	keystroke_d	d	n/a
427.439	0.0605	854878	keystroke_i	i	n/a
427.544	0.135	855088	keystroke_d	d	n/a
427.709	0.12	855418	keystroke_a	a	n/a
427.934	0.12	855868	keystroke_t	t	n/a
428.0245	0.1045	856049	keystroke_e	e	n/a
428.264	0.12	856528	keystroke_Key.space	Key.space	n/a
428.669	0.165	857338	keystroke_v	v	n/a
429.134	0.135	858268	keystroke_o	o	n/a
429.209	0.105	858418	keystroke_i	i	n/a
429.674	0.18	859348	keystroke_c	c	n/a
429.794	0.135	859588	keystroke_e	e	n/a
430.079	0.105	860158	keystroke_Key.space	Key.space	n/a
430.439	0.075	860878	keystroke_l	l	n/a
430.544	0.09	861088	keystroke_e	e	n/a
431.174	0.09	862348	keystroke_o	o	n/a
431.429	0.12	862858	keystroke_n	n	n/a
431.504	0.09	863008	keystroke_e	e	n/a
431.879	0.12	863758	keystroke_Key.enter	Key.enter	n/a
432.003	12.162	864006	prompt	n/a	immediate wednesday inclusion beverages\n
432.8545	0.0745	865709	keystroke_i	i	n/a
433.139	0.075	866278	keystroke_m	m	n/a
433.3045	0.1045	866609	keystroke_m	m	n/a
433.454	0.09	866908	keystroke_e	e	n/a
433.724	0.1055	867448	keystroke_d	d	n/a
433.844	0.06	867688	keystroke_i	i	n/a
434.009	0.09	868018	keystroke_a	a	n/a
434.234	0.09	868468	keystroke_t	t	n/a
434.279	0.12	868558	keystroke_e	e	n/a
434.819	0.135	869638	keystroke_Key.space	Key.space	n/a
435.914	0.135	871828	keystroke_w	w	n/a
435.989	0.12	871978	keystroke_e	e	n/a
436.4845	0.0895	872969	keystroke_d	d	n/a
436.754	0.015	873508	keystroke_n	n	n/a
436.829	0.105	873658	keystroke_e	e	n/a
437.039	0.12	874078	keystroke_s	s	n/a
437.849	0.15	875698	keystroke_d	d	n/a
437.954	0.12	875908	keystroke_a	a	n/a
438.314	0.06	876628	keystroke_y	y	n/a
438.584	0.1355	877168	keystroke_Key.space	Key.space	n/a
438.885	0.119	877770	keystroke_i	i	n/a
438.959	0.1355	877918	keystroke_n	n	n/a
439.094	0.105	878188	keystroke_c	c	n/a
439.2445	0.0915	878489	keystroke_l	l	n/a
439.469	0.075	878938	keystroke_u	u	n/a
439.604	0.075	879208	keystroke_d	d	n/a
440.444	0.075	880888	keystroke_Key.backspace	Key.backspace	n/a
440.534	0.105	881068	keystroke_s	s	n/a
440.759	0.12	881518	keystroke_i	i	n/a
440.834	0.1505	881668	keystroke_o	o	n/a
440.9245	0.195	881849	keystroke_n	n	n/a
441.194	0.135	882388	keystroke_Key.space	Key.space	n/a
441.794	0.105	883588	keystroke_b	b	n/a
442.0945	0.1045	884189	keystroke_e	e	n/a
442.4695	0.0745	884939	keystroke_v	v	n/a
442.964	0.12	885928	keystroke_e	e	n/a
443.189	0.12	886378	keystroke_r	r	n/a
443.324	0.105	886648	keystroke_a	a	n/a
443.6245	0.135	887249	keystroke_g	g	n/a
443.6845	0.1045	887369	keystroke_e	e	n/a
443.849	0.135	887698	keystroke_s	s	n/a
444.089	0.075	888178	keystroke_Key.enter	Key.enter	n/a
444.168	6.027	888336	prompt	n/a	global checkout aimed today\n
445.049	0.12	890098	keystroke_g	g	n/a
445.214	0.075	890428	keystroke_l	l	n/a
445.469	0.075	890938	keystroke_o	o	n/a
445.709	0.105	891418	keystroke_b	b	n/a
445.9345	0.1045	891869	keystroke_a	a	n/a
446.0395	0.1045	892079	keystroke_l	l	n/a
446.189	0.15	892378	keystroke_Key.space	Key.space	n/a
446.714	0.1205	893428	keystroke_c	c	n/a
446.879	0.0755	893758	keystroke_h	h	n/a
447.014	0.075	894028	keystroke_e	e	n/a
447.299	0.09	894598	keystroke_c	c	n/a
447.464	0.0755	894928	keystroke_k	k	n/a
447.704	0.09	895408	keystroke_o	o	n/a
447.7355	0.1185	895471	keystroke_u	u	n/a
447.884	0.105	895768	keystroke_t	t	n/a
448.004	0.165	896008	keystroke_Key.space	Key.space	n/a
448.304	0.09	896608	keystroke_a	a	n/a
448.4395	0.0595	896879	keystroke_i	i	n/a
448.649	0.12	897298	keystroke_m	m	n/a
448.739	0.105	897478	keystroke_e	e	n/a
449.009	0.105	898018	keystroke_d	d	n/a
449.129	0.135	898258	keystroke_Key.space	Key.space	n/a
449.324	0.09	898648	keystroke_t	t	n/a
449.399	0.1055	898798	keystroke_o	o	n/a
449.594	0.15	899188	keystroke_d	d	n/a
449.6845	0.1495	899369	keystroke_a	a	n/a
449.8195	0.0895	899639	keystroke_y	y	n/a
450.119	0.075	900238	keystroke_Key.enter	Key.enter	n/a
450.198	8.697	900396	prompt	n/a	funeral promote volunteer attending\n
451.17	0.149	902340	keystroke_f	f	n/a
451.499	0.09	902998	keystroke_u	u	n/a
451.769	0.105	903538	keystroke_n	n	n/a
451.889	0.1205	903778	keystroke_e	e	n/a
452.459	0.15	904918	keystroke_r	r	n/a
452.549	0.1205	905098	keystroke_a	a	n/a
452.714	0.09	905428	keystroke_l	l	n/a
452.939	0.105	905878	keystroke_Key.space	Key.space	n/a
453.1795	0.0895	906359	keystroke_p	p	n/a
453.284	0.09	906568	keystroke_r	r	n/a
453.404	0.09	906808	keystroke_o	o	n/a
453.704	0.09	907408	keystroke_m	m	n/a
453.899	0.09	907798	keystroke_o	o	n/a
454.049	0.12	908098	keystroke_t	t	n/a
454.124	0.135	908248	keystroke_e	e	n/a
454.2895	0.1345	908579	keystroke_Key.space	Key.space	n/a
454.679	0.135	909358	keystroke_v	v	n/a
454.8745	0.0895	909749	keystroke_o	o	n/a
455.099	0.105	910198	keystroke_l	l	n/a
455.414	0.09	910828	keystroke_u	u	n/a
455.744	0.0915	911488	keystroke_m	m	n/a
456.2855	0.0435	912571	keystroke_Key.backspace	Key.backspace	n/a
456.554	0.075	913108	keystroke_n	n	n/a
456.7045	0.0895	913409	keystroke_t	t	n/a
456.7645	0.105	913529	keystroke_e	e	n/a
457.049	0.15	914098	keystroke_e	e	n/a
457.184	0.12	914368	keystroke_r	r	n/a
457.439	0.12	914878	keystroke_Key.space	Key.space	n/a
457.5895	0.09	915179	keystroke_a	a	n/a
457.814	0.06	915628	keystroke_t	t	n/a
457.934	0.1205	915868	keystroke_t	t	n/a
458.009	0.1055	916018	keystroke_e	e	n/a
458.115	0.104	916230	keystroke_n	n	n/a
458.2495	0.15	916499	keystroke_d	d	n/a
458.429	0.12	916858	keystroke_i	i	n/a
458.474	0.165	916948	keystroke_n	n	n/a
458.609	0.105	917218	keystroke_g	g	n/a
458.774	0.12	917548	keystroke_Key.enter	Key.enter	n/a
458.898	8.8475	917796	prompt	n/a	problems displays recordings specify\n
459.689	0.075	919378	keystroke_p	p	n/a
459.794	0.105	919588	keystroke_r	r	n/a
459.914	0.09	919828	keystroke_o	o	n/a
460.469	0.1205	920938	keystroke_b	b	n/a
460.785	0.059	921570	keystroke_l	l	n/a
461.009	0.075	922018	keystroke_e	e	n/a
461.159	0.0905	922318	keystroke_m	m	n/a
461.2795	0.09	922559	keystroke_s	s	n/a
461.459	0.1055	922918	keystroke_Key.space	Key.space	n/a
461.684	0.105	923368	keystroke_d	d	n/a
461.82	0.059	923640	keystroke_i	i	n/a
461.969	0.135	923938	keystroke_s	s	n/a
462.254	0.1505	924508	keystroke_p	p	n/a
462.359	0.12	924718	keystroke_l	l	n/a
462.4645	0.09	924929	keystroke_a	a	n/a
462.749	0.09	925498	keystroke_y	y	n/a
462.899	0.1205	925798	keystroke_s	s	n/a
463.049	0.12	926098	keystroke_Key.space	Key.space	n/a
463.3645	0.105	926729	keystroke_r	r	n/a
463.4245	0.135	926849	keystroke_e	e	n/a
463.635	0.1195	927270	keystroke_c	c	n/a
463.786	0.088	927572	keystroke_o	o	n/a
463.949	0.0905	927898	keystroke_r	r	n/a
464.429	0.105	928858	keystroke_d	d	n/a
464.579	0.1505	929158	keystroke_i	i	n/a
464.685	0.104	929370	keystroke_n	n	n/a
464.7745	0.0895	929549	keystroke_g	g	n/a
465.014	0.12	930028	keystroke_s	s	n/a
465.254	0.135	930508	keystroke_Key.space	Key.space	n/a
465.735	0.089	931470	keystroke_s	s	n/a
465.8545	0.0895	931709	keystroke_p	p	n/a
466.0195	0.075	932039	keystroke_e	e	n/a
466.469	0.135	932938	keystroke_c	c	n/a
466.709	0.0605	933418	keystroke_i	i	n/a
467.0545	0.105	934109	keystroke_f	f	n/a
467.264	0.121	934528	keystroke_y	y	n/a
467.6695	0.0745	935339	keystroke_Key.enter	Key.enter	n/a
467.748	7.077	935496	prompt	n/a	hence needle textbooks fiction\n
468.479	0.09	936958	keystroke_h	h	n/a
468.5545	0.09	937109	keystroke_e	e	n/a
468.8095	0.015	937619	keystroke_n	n	n/a
468.8395	0.1195	937679	keystroke_c	c	n/a
468.9145	0.1205	937829	keystroke_e	e	n/a
469.049	0.105	938098	keystroke_Key.space	Key.space	n/a
469.2745	0.0745	938549	keystroke_n	n	n/a
469.336	0.0735	938672	keystroke_e	e	n/a
469.4995	0.075	938999	keystroke_e	e	n/a
469.709	0.1055	939418	keystroke_d	d	n/a
469.829	0.0755	939658	keystroke_l	l	n/a
469.9795	0.1045	939959	keystroke_e	e	n/a
470.1145	0.0895	940229	keystroke_Key.space	Key.space	n/a
470.5645	0.1495	941129	keystroke_t	t	n/a
470.6695	0.105	941339	keystroke_e	e	n/a
471.2245	0.1795	942449	keystroke_x	x	n/a
471.6595	0.09	943319	keystroke_t	t	n/a
472.019	0.0605	944038	keystroke_b	b	n/a
472.2145	0.075	944429	keystroke_o	o	n/a
472.409	0.1355	944818	keystroke_o	o	n/a
472.559	0.1055	945118	keystroke_k	k	n/a
472.6795	0.0745	945359	keystroke_s	s	n/a
472.8595	0.1195	945719	keystroke_Key.space	Key.space	n/a
473.2795	0.1055	946559	keystroke_f	f	n/a
473.5795	0.06	947159	keystroke_i	i	n/a
473.8195	0.12	947639	keystroke_c	c	n/a
474.1495	0.09	948299	keystroke_t	t	n/a
474.2545	0.0895	948509	keystroke_i	i	n/a
474.2995	0.1495	948599	keystroke_o	o	n/a
474.4195	0.105	948839	keystroke_n	n	n/a
474.7045	0.1195	949409	keystroke_Key.enter	Key.enter	n/a
474.828	8.1875	949656	prompt	n/a	jelsoft butter andreas mongolia\n
475.6195	0.0895	951239	keystroke_j	j	n/a
475.7695	0.09	951539	keystroke_e	e	n/a
475.9355	0.0735	951871	keystroke_l	l	n/a
476.2195	0.0895	952439	keystroke_s	s	n/a
476.324	0.061	952648	keystroke_o	o	n/a
476.4295	0.12	952859	keystroke_f	f	n/a
476.685	0.119	953370	keystroke_t	t	n/a
476.8645	0.15	953729	keystroke_Key.space	Key.space	n/a
477.2395	0.09	954479	keystroke_b	b	n/a
477.4945	0.0905	954989	keystroke_u	u	n/a
477.7795	0.0445	955559	keystroke_t	t	n/a
477.9145	0.121	955829	keystroke_t	t	n/a
478.0045	0.195	956009	keystroke_e	e	n/a
478.1545	0.1045	956309	keystroke_r	r	n/a
478.3195	0.105	956639	keystroke_Key.space	Key.space	n/a
478.4695	0.1345	956939	keystroke_a	a	n/a
478.6495	0.09	957299	keystroke_n	n	n/a
478.8595	0.09	957719	keystroke_d	d	n/a
479.1895	0.1345	958379	keystroke_r	r	n/a
479.2495	0.18	958499	keystroke_e	e	n/a
479.385	0.119	958770	keystroke_a	a	n/a
479.6245	0.09	959249	keystroke_s	s	n/a
479.835	0.1345	959670	keystroke_Key.space	Key.space	n/a
480.3745	0.1195	960749	keystroke_m	m	n/a
480.554	0.1655	961108	keystroke_o	o	n/a
480.7495	0.09	961499	keystroke_n	n	n/a
481.0645	0.0745	962129	keystroke_g	g	n/a
481.1695	0.0745	962339	keystroke_o	o	n/a
481.394	0.1955	962788	keystroke_l	l	n/a
481.6645	0.1345	963329	keystroke_a	a	n/a
482.3095	0.09	964619	keystroke_Key.backspace	Key.backspace	n/a
482.5945	0.075	965189	keystroke_i	i	n/a
482.685	0.1045	965370	keystroke_a	a	n/a
482.8945	0.1195	965789	keystroke_Key.enter	Key.enter	n/a
483.0185	6.5675	966037	prompt	n/a	clara illness extreme nick\n
484.035	0.1345	968070	keystroke_c	c	n/a
484.3195	0.0745	968639	keystroke_l	l	n/a
484.4545	0.12	968909	keystroke_a	a	n/a
484.8445	0.12	969689	keystroke_r	r	n/a
484.936	0.1335	969872	keystroke_a	a	n/a
485.159	0.1505	970318	keystroke_Key.space	Key.space	n/a
485.385	0.0745	970770	keystroke_i	i	n/a
485.5795	0.06	971159	keystroke_l	l	n/a
485.7295	0.075	971459	keystroke_l	l	n/a
485.8795	0.12	971759	keystroke_n	n	n/a
485.985	0.1045	971970	keystroke_e	e	n/a
486.2095	0.06	972419	keystroke_s	s	n/a
486.3895	0.09	972779	keystroke_s	s	n/a
486.5095	0.12	973019	keystroke_Key.space	Key.space	n/a
486.7495	0.075	973499	keystroke_e	e	n/a
487.0045	0.12	974009	keystroke_x	x	n/a
487.3795	0.106	974759	keystroke_t	t	n/a
487.5895	0.165	975179	keystroke_r	r	n/a
487.6945	0.135	975389	keystroke_e	e	n/a
487.9795	0.12	975959	keystroke_m	m	n/a
488.0545	0.105	976109	keystroke_e	e	n/a
488.2795	0.1055	976559	keystroke_Key.space	Key.space	n/a
488.685	0.1045	977370	keystroke_n	n	n/a
488.9245	0.09	977849	keystroke_i	i	n/a
489.0745	0.12	978149	keystroke_c	c	n/a
489.2095	0.105	978419	keystroke_k	k	n/a
489.4795	0.1055	978959	keystroke_Key.enter	Key.enter	n/a
489.589	5.666	979178	prompt	n/a	commands essay listing thesis\n
490.2295	0.12	980459	keystroke_c	c	n/a
490.394	0.1055	980788	keystroke_o	o	n/a
490.6495	0.0595	981299	keystroke_m	m	n/a
490.8145	0.075	981629	keystroke_m	m	n/a
490.92	0.0895	981840	keystroke_a	a	n/a
491.0395	0.105	982079	keystroke_n	n	n/a
491.1295	0.195	982259	keystroke_d	d	n/a
491.2495	0.12	982499	keystroke_s	s	n/a
491.4145	0.1205	982829	keystroke_Key.space	Key.space	n/a
491.6545	0.09	983309	keystroke_e	e	n/a
491.9245	0.135	983849	keystroke_s	s	n/a
492.2395	0.015	984479	keystroke_s	s	n/a
492.3595	0.135	984719	keystroke_a	a	n/a
492.7355	0.089	985471	keystroke_y	y	n/a
492.9595	0.12	985919	keystroke_Key.space	Key.space	n/a
493.2445	0.15	986489	keystroke_l	l	n/a
493.3495	0.105	986699	keystroke_i	i	n/a
493.4395	0.105	986879	keystroke_s	s	n/a
493.6195	0.09	987239	keystroke_t	t	n/a
493.7245	0.135	987449	keystroke_i	i	n/a
493.8295	0.107	987659	keystroke_n	n	n/a
493.905	0.1045	987810	keystroke_g	g	n/a
494.0695	0.12	988139	keystroke_Key.space	Key.space	n/a
494.2945	0.0905	988589	keystroke_t	t	n/a
494.3995	0.045	988799	keystroke_h	h	n/a
494.4895	0.105	988979	keystroke_e	e	n/a
494.6995	0.09	989399	keystroke_s	s	n/a
494.8195	0.12	989639	keystroke_i	i	n/a
494.9095	0.09	989819	keystroke_s	s	n/a
495.1495	0.105	990299	keystroke_Key.enter	Key.enter	n/a
495.258	8.8475	990516	prompt	n/a	blackjack admit applications nokia\n
496.3195	0.105	992639	keystroke_b	b	n/a
496.68	0.0595	993360	keystroke_l	l	n/a
496.8895	0.105	993779	keystroke_a	a	n/a
497.1145	0.105	994229	keystroke_c	c	n/a
497.235	0.1045	994470	keystroke_k	k	n/a
497.5645	0.075	995129	keystroke_h	h	n/a
497.7145	0.105	995429	keystroke_a	a	n/a
498.3445	0.075	996689	keystroke_Key.backspace	Key.backspace	n/a
498.5245	0.0605	997049	keystroke_Key.backspace	Key.backspace	n/a
498.7795	0.09	997559	keystroke_j	j	n/a
498.9145	0.135	997829	keystroke_a	a	n/a
499.1395	0.12	998279	keystroke_c	c	n/a
499.5145	0.09	999029	keystroke_k	k	n/a
499.7695	0.12	999539	keystroke_Key.space	Key.space	n/a
500.1595	0.03	1000319	keystroke_a	a	n/a
500.5195	0.0895	1001039	keystroke_d	d	n/a
500.685	0.1345	1001370	keystroke_m	m	n/a
500.9245	0.09	1001849	keystroke_i	i	n/a
501.0445	0.075	1002089	keystroke_t	t	n/a
501.1495	0.12	1002299	keystroke_Key.space	Key.space	n/a
501.3745	0.075	1002749	keystroke_a	a	n/a
501.4945	0.075	1002989	keystroke_p	p	n/a
501.6595	0.06	1003319	keystroke_p	p	n/a
501.8545	0.15	1003709	keystroke_l	l	n/a
501.9595	0.12	1003919	keystroke_i	i	n/a
502.1095	0.12	1004219	keystroke_c	c	n/a
502.185	0.1195	1004370	keystroke_a	a	n/a
502.4395	0.105	1004879	keystroke_t	t	n/a
502.5295	0.12	1005059	keystroke_i	i	n/a
502.5445	0.18	1005089	keystroke_o	o	n/a
502.6645	0.135	1005329	keystroke_n	n	n/a
502.7695	0.12	1005539	keystroke_s	s	n/a
502.9045	0.105	1005809	keystroke_Key.space	Key.space	n/a
503.1295	0.075	1006259	keystroke_n	n	n/a
503.3095	0.1055	1006619	keystroke_o	o	n/a
503.5495	0.075	1007099	keystroke_k	k	n/a
503.7595	0.076	1007519	keystroke_i	i	n/a
503.8195	0.12	1007639	keystroke_a	a	n/a
503.9995	0.105	1007999	keystroke_Key.enter	Key.enter	n/a
504.109	7.4665	1008218	prompt	n/a	platforms evaluate crafts touring\n
504.8695	0.18	1009739	keystroke_p	p	n/a
504.974	0.135	1009948	keystroke_l	l	n/a
505.124	0.0905	1010248	keystroke_a	a	n/a
505.3195	0.105	1010639	keystroke_t	t	n/a
505.6045	0.105	1011209	keystroke_f	f	n/a
505.6795	0.1055	1011359	keystroke_o	o	n/a
505.8295	0.09	1011659	keystroke_r	r	n/a
505.9355	0.119	1011871	keystroke_m	m	n/a
506.1895	0.09	1012379	keystroke_s	s	n/a
506.385	0.1195	1012770	keystroke_Key.space	Key.space	n/a
506.5795	0.12	1013159	keystroke_e	e	n/a
506.8495	0.1355	1013699	keystroke_v	v	n/a
506.9545	0.105	1013909	keystroke_a	a	n/a
507.0745	0.12	1014149	keystroke_l	l	n/a
507.1495	0.12	1014299	keystroke_u	u	n/a
507.2545	0.09	1014509	keystroke_a	a	n/a
507.4795	0.135	1014959	keystroke_t	t	n/a
507.5695	0.105	1015139	keystroke_e	e	n/a
507.735	0.1345	1015470	keystroke_Key.space	Key.space	n/a
508.4545	0.15	1016909	keystroke_c	c	n/a
508.8745	0.12	1017749	keystroke_r	r	n/a
508.9495	0.12	1017899	keystroke_a	a	n/a
509.3545	0.09	1018709	keystroke_f	f	n/a
509.685	0.0745	1019370	keystroke_t	t	n/a
509.9095	0.135	1019819	keystroke_s	s	n/a
510.1045	0.1355	1020209	keystroke_Key.space	Key.space	n/a
510.4795	0.1055	1020959	keystroke_t	t	n/a
510.57	0.1345	1021140	keystroke_o	o	n/a
510.6595	0.105	1021319	keystroke_u	u	n/a
510.8095	0.0755	1021619	keystroke_r	r	n/a
510.9595	0.2255	1021919	keystroke_i	i	n/a
511.0645	0.21	1022129	keystroke_n	n	n/a
511.23	0.105	1022460	keystroke_g	g	n/a
511.4395	0.135	1022879	keystroke_Key.enter	Key.enter	n/a
511.578	7.0925	1023156	prompt	n/a	variables sterling hire regarding\n
512.4145	0.105	1024829	keystroke_v	v	n/a
512.6545	0.075	1025309	keystroke_a	a	n/a
512.9095	0.09	1025819	keystroke_r	r	n/a
513.1195	0.075	1026239	keystroke_i	i	n/a
513.2095	0.12	1026419	keystroke_a	a	n/a
513.4945	0.075	1026989	keystroke_b	b	n/a
513.8695	0.075	1027739	keystroke_l	l	n/a
513.9895	0.105	1027979	keystroke_e	e	n/a
514.2295	0.12	1028459	keystroke_s	s	n/a
514.3645	0.1205	1028729	keystroke_Key.space	Key.space	n/a
514.6045	0.12	1029209	keystroke_s	s	n/a
514.8295	0.0905	1029659	keystroke_t	t	n/a
515.0395	0.165	1030079	keystroke_e	e	n/a
515.175	0.0895	1030350	keystroke_r	r	n/a
515.3995	0.165	1030799	keystroke_l	l	n/a
515.5195	0.105	1031039	keystroke_i	i	n/a
515.7445	0.0905	1031489	keystroke_n	n	n/a
515.8645	0.105	1031729	keystroke_g	g	n/a
516.0595	0.12	1032119	keystroke_Key.space	Key.space	n/a
516.3445	0.105	1032689	keystroke_h	h	n/a
516.5395	0.09	1033079	keystroke_i	i	n/a
516.6595	0.12	1033319	keystroke_r	r	n/a
516.735	0.135	1033470	keystroke_e	e	n/a
516.8545	0.12	1033709	keystroke_Key.space	Key.space	n/a
517.1095	0.135	1034219	keystroke_r	r	n/a
517.185	0.1195	1034370	keystroke_e	e	n/a
517.5145	0.105	1035029	keystroke_g	g	n/a
517.6645	0.165	1035329	keystroke_a	a	n/a
517.8145	0.1055	1035629	keystroke_r	r	n/a
518.0245	0.12	1036049	keystroke_d	d	n/a
518.1595	0.12	1036319	keystroke_i	i	n/a
518.2045	0.165	1036409	keystroke_n	n	n/a
518.3545	0.075	1036709	keystroke_g	g	n/a
518.535	0.1345	1037070	keystroke_Key.enter	Key.enter	n/a
518.674	5.8765	1037348	prompt	n/a	subaru where mission mixture\n
519.4795	0.09	1038959	keystroke_s	s	n/a
519.6745	0.075	1039349	keystroke_u	u	n/a
519.9745	0.075	1039949	keystroke_b	b	n/a
520.1695	0.12	1040339	keystroke_a	a	n/a
520.335	0.1045	1040670	keystroke_r	r	n/a
520.5895	0.06	1041179	keystroke_u	u	n/a
520.9645	0.09	1041929	keystroke_Key.space	Key.space	n/a
521.1145	0.1205	1042229	keystroke_w	w	n/a
521.3545	0.075	1042709	keystroke_h	h	n/a
521.4145	0.121	1042829	keystroke_e	e	n/a
521.5045	0.135	1043009	keystroke_r	r	n/a
521.6245	0.105	1043249	keystroke_e	e	n/a
521.7445	0.12	1043489	keystroke_Key.space	Key.space	n/a
522.0145	0.075	1044029	keystroke_m	m	n/a
522.2095	0.06	1044419	keystroke_i	i	n/a
522.2395	0.105	1044479	keystroke_s	s	n/a
522.4195	0.105	1044839	keystroke_s	s	n/a
522.5395	0.15	1045079	keystroke_i	i	n/a
522.6295	0.135	1045259	keystroke_o	o	n/a
522.7045	0.135	1045409	keystroke_n	n	n/a
522.7945	0.135	1045589	keystroke_Key.space	Key.space	n/a
523.0355	0.104	1046071	keystroke_m	m	n/a
523.2895	0.09	1046579	keystroke_i	i	n/a
523.485	0.15	1046970	keystroke_x	x	n/a
523.8895	0.105	1047779	keystroke_t	t	n/a
524.0395	0.06	1048079	keystroke_u	u	n/a
524.1895	0.105	1048379	keystroke_r	r	n/a
524.2495	0.1355	1048499	keystroke_e	e	n/a
524.4745	0.075	1048949	keystroke_Key.enter	Key.enter	n/a
524.5535	7.8725	1049107	prompt	n/a	metropolitan eagles anytime pokemon\n
525.2095	0.135	1050419	keystroke_m	m	n/a
525.6295	0.1055	1051259	keystroke_e	e	n/a
525.8995	0.09	1051799	keystroke_t	t	n/a
525.9445	0.135	1051889	keystroke_r	r	n/a
526.1545	0.09	1052309	keystroke_o	o	n/a
526.6795	0.15	1053359	keystroke_p	p	n/a
526.7995	0.09	1053599	keystroke_o	o	n/a
527.085	0.1505	1054170	keystroke_l	l	n/a
527.2045	0.105	1054409	keystroke_i	i	n/a
527.6095	0.12	1055219	keystroke_t	t	n/a
527.7445	0.12	1055489	keystroke_a	a	n/a
527.9095	0.1655	1055819	keystroke_n	n	n/a
528.0895	0.09	1056179	keystroke_Key.space	Key.space	n/a
528.285	0.1345	1056570	keystroke_e	e	n/a
528.3745	0.105	1056749	keystroke_a	a	n/a
528.6895	0.105	1057379	keystroke_g	g	n/a
528.885	0.0745	1057770	keystroke_l	l	n/a
528.9745	0.105	1057949	keystroke_e	e	n/a
529.1545	0.09	1058309	keystroke_s	s	n/a
529.2895	0.105	1058579	keystroke_Key.space	Key.space	n/a
529.575	0.0895	1059150	keystroke_a	a	n/a
529.6795	0.12	1059359	keystroke_n	n	n/a
529.9495	0.06	1059899	keystroke_y	y	n/a
530.1145	0.09	1060229	keystroke_t	t	n/a
530.2795	0.135	1060559	keystroke_i	i	n/a
530.3395	0.135	1060679	keystroke_m	m	n/a
530.4295	0.1055	1060859	keystroke_e	e	n/a
530.5795	0.1055	1061159	keystroke_Key.space	Key.space	n/a
530.7445	0.165	1061489	keystroke_p	p	n/a
530.835	0.15	1061670	keystroke_o	o	n/a
531.1195	0.105	1062239	keystroke_k	k	n/a
531.2095	0.0755	1062419	keystroke_e	e	n/a
531.7945	0.105	1063589	keystroke_m	m	n/a
531.9445	0.15	1063889	keystroke_o	o	n/a
532.0195	0.15	1064039	keystroke_n	n	n/a
532.3045	0.1205	1064609	keystroke_Key.enter	Key.enter	n/a
532.4305	8.44	1064861	prompt	n/a	sold licking pose ships\n
533.2045	0.105	1066409	keystroke_s	s	n/a
533.2945	0.075	1066589	keystroke_o	o	n/a
533.535	0.1045	1067070	keystroke_l	l	n/a
533.685	0.0445	1067370	keystroke_k	k	n/a
534.3145	0.06	1068629	keystroke_Key.backspace	Key.backspace	n/a
534.3895	0.12	1068779	keystroke_d	d	n/a
534.6595	0.12	1069319	keystroke_Key.space	Key.space	n/a
534.9745	0.15	1069949	keystroke_l	l	n/a
535.0945	0.12	1070189	keystroke_i	i	n/a
535.3495	0.1205	1070699	keystroke_c	c	n/a
535.5295	0.1055	1071059	keystroke_k	k	n/a
535.8295	0.135	1071659	keystroke_i	i	n/a
535.92	0.1195	1071840	keystroke_n	n	n/a
536.0545	0.075	1072109	keystroke_g	g	n/a
536.235	0.1045	1072470	keystroke_Key.space	Key.space	n/a
536.6545	0.12	1073309	keystroke_p	p	n/a
536.7295	0.1065	1073459	keystroke_o	o	n/a
536.8045	0.09	1073609	keystroke_s	s	n/a
537.0295	0.12	1074059	keystroke_e	e	n/a
537.1645	0.105	1074329	keystroke_Key.space	Key.space	n/a
537.3745	0.135	1074749	keystroke_s	s	n/a
537.5245	0.12	1075049	keystroke_h	h	n/a
537.8995	0.12	1075799	keystroke_p	p	n/a
538.32	0.0745	1076640	keystroke_Key.backspace	Key.backspace	n/a
538.6195	0.105	1077239	keystroke_o	o	n/a
538.6645	0.165	1077329	keystroke_p	p	n/a
539.2495	0.09	1078499	keystroke_Key.backspace	Key.backspace	n/a
539.3995	0.09	1078799	keystroke_Key.backspace	Key.backspace	n/a
539.7745	0.2105	1079549	keystroke_i	i	n/a
540.2995	0.105	1080599	keystroke_p	p	n/a
540.5545	0.09	1081109	keystroke_s	s	n/a
540.7495	0.12	1081499	keystroke_Key.enter	Key.enter	n/a
540.874	9.5215	1081748	prompt	n/a	strongly christianity successful owen\n
541.9045	0.12	1083809	keystroke_s	s	n/a
542.1745	0.12	1084349	keystroke_t	t	n/a
542.235	0.1195	1084470	keystroke_r	r	n/a
542.4295	0.15	1084859	keystroke_o	o	n/a
542.5195	0.135	1085039	keystroke_n	n	n/a
542.685	0.1345	1085370	keystroke_g	g	n/a
542.8645	0.12	1085729	keystroke_l	l	n/a
543.1645	0.075	1086329	keystroke_y	y	n/a
543.3745	0.09	1086749	keystroke_Key.space	Key.space	n/a
543.585	0.1195	1087170	keystroke_c	c	n/a
543.7945	0.105	1087589	keystroke_h	h	n/a
544.1695	0.0905	1088339	keystroke_r	r	n/a
544.3795	0.075	1088759	keystroke_i	i	n/a
544.4995	0.075	1088999	keystroke_s	s	n/a
544.7695	0.06	1089539	keystroke_t	t	n/a
544.8445	0.075	1089689	keystroke_i	i	n/a
545.0545	0.105	1090109	keystroke_a	a	n/a
545.1745	0.105	1090349	keystroke_n	n	n/a
545.4145	0.075	1090829	keystroke_i	i	n/a
545.5495	0.075	1091099	keystroke_t	t	n/a
545.6995	0.075	1091399	keystroke_y	y	n/a
545.8645	0.1055	1091729	keystroke_Key.space	Key.space	n/a
546.0745	0.09	1092149	keystroke_s	s	n/a
546.2695	0.075	1092539	keystroke_u	u	n/a
546.42	0.0895	1092840	keystroke_c	c	n/a
546.6145	0.165	1093229	keystroke_c	c	n/a
546.7495	0.105	1093499	keystroke_e	e	n/a
546.9595	0.0755	1093919	keystroke_s	s	n/a
547.1395	0.12	1094279	keystroke_s	s	n/a
547.3795	0.12	1094759	keystroke_f	f	n/a
547.635	0.0895	1095270	keystroke_u	u	n/a
547.9645	0.09	1095929	keystroke_l	l	n/a
548.4895	0.09	1096979	keystroke_Key.space	Key.space	n/a
548.6995	0.075	1097399	keystroke_o	o	n/a
548.7895	0.075	1097579	keystroke_w	w	n/a
548.9695	0.105	1097939	keystroke_n	n	n/a
549.7795	0.075	1099559	keystroke_Key.backspace	Key.backspace	n/a
549.9595	0.0755	1099919	keystroke_e	e	n/a
550.0645	0.105	1100129	keystroke_n	n	n/a
550.2895	0.105	1100579	keystroke_Key.enter	Key.enter	n/a
550.399	13.9315	1100798	prompt	n/a	disclosure luxembourg integrating rendered\n
551.07	0.1045	1102140	keystroke_s	s	n/a
551.4295	0.045	1102859	keystroke_i	i	n/a
551.535	0.0895	1103070	keystroke_d	d	n/a
551.985	0.0595	1103970	keystroke_Key.backspace	Key.backspace	n/a
552.1495	0.06	1104299	keystroke_Key.backspace	Key.backspace	n/a
552.2995	0.09	1104599	keystroke_Key.backspace	Key.backspace	n/a
552.436	0.0735	1104872	keystroke_d	d	n/a
552.5995	0.045	1105199	keystroke_i	i	n/a
552.7045	0.1805	1105409	keystroke_s	s	n/a
552.8995	0.1355	1105799	keystroke_c	c	n/a
553.2145	0.075	1106429	keystroke_l	l	n/a
553.4545	0.06	1106909	keystroke_o	o	n/a
553.6195	0.105	1107239	keystroke_s	s	n/a
553.8895	0.03	1107779	keystroke_u	u	n/a
554.0395	0.12	1108079	keystroke_r	r	n/a
554.1295	0.12	1108259	keystroke_e	e	n/a
554.4595	0.105	1108919	keystroke_Key.space	Key.space	n/a
555.1195	0.09	1110239	keystroke_l	l	n/a
555.7495	0.09	1111499	keystroke_u	u	n/a
556.3945	0.12	1112789	keystroke_x	x	n/a
556.6945	0.075	1113389	keystroke_e	e	n/a
557.3245	0.12	1114649	keystroke_m	m	n/a
558.1195	0.12	1116239	keystroke_b	b	n/a
558.6745	0.18	1117349	keystroke_o	o	n/a
558.8095	0.09	1117619	keystroke_u	u	n/a
559.1545	0.09	1118309	keystroke_r	r	n/a
559.6045	0.105	1119209	keystroke_g	g	n/a
560.145	0.1045	1120290	keystroke_Key.space	Key.space	n/a
560.685	0.1645	1121370	keystroke_i	i	n/a
560.7595	0.15	1121519	keystroke_n	n	n/a
561.135	0.1045	1122270	keystroke_t	t	n/a
561.1795	0.12	1122359	keystroke_e	e	n/a
561.4645	0.15	1122929	keystroke_g	g	n/a
561.51	0.1495	1123020	keystroke_r	r	n/a
561.5995	0.1355	1123199	keystroke_a	a	n/a
561.7795	0.12	1123559	keystroke_t	t	n/a
562.0355	0.134	1124071	keystroke_i	i	n/a
562.095	0.1645	1124190	keystroke_n	n	n/a
562.2295	0.1055	1124459	keystroke_g	g	n/a
562.365	0.12	1124730	keystroke_Key.space	Key.space	n/a
562.6045	0.165	1125209	keystroke_r	r	n/a
562.7095	0.135	1125419	keystroke_e	e	n/a
