onset	duration	sample	value	key	prompt_text
1.1515	13.0125	2303	prompt	n/a	the quick brown fox jumps over a lazy dog\n
4.636	0	9272	keystroke_t	t	n/a
4.65	0.083	9300	keystroke_h	h	n/a
4.7665	0.084	9533	keystroke_e	e	n/a
4.833	0.133	9666	keystroke_Key.space	Key.space	n/a
5.851	0.0895	11702	keystroke_q	q	n/a
5.985	0.061	11970	keystroke_u	u	n/a
6.121	0.075	12242	keystroke_i	i	n/a
6.316	0.0605	12632	keystroke_c	c	n/a
6.4215	0.0895	12843	keystroke_k	k	n/a
6.526	0.0905	13052	keystroke_Key.space	Key.space	n/a
6.691	0.09	13382	keystroke_b	b	n/a
6.706	0.015	13412	keystroke_Key.space	Key.space	n/a
6.916	0.09	13832	keystroke_r	r	n/a
7.201	0.015	14402	keystroke_w	w	n/a
7.366	0.03	14732	keystroke_o	o	n/a
7.606	0.0605	15212	keystroke_Key.backspace	Key.backspace	n/a
7.7415	0.075	15483	keystroke_Key.backspace	Key.backspace	n/a
7.891	0.06	15782	keystroke_Key.backspace	Key.backspace	n/a
8.011	0.0455	16022	keystroke_Key.backspace	Key.backspace	n/a
8.4615	0.0895	16923	keystroke_r	r	n/a
8.597	0.0895	17194	keystroke_o	o	n/a
8.7315	0.0595	17463	keystroke_w	w	n/a
8.836	0.15	17672	keystroke_n	n	n/a
8.911	0.1355	17822	keystroke_Key.space	Key.space	n/a
9.107	0.089	18214	keystroke_f	f	n/a
9.2115	0.06	18423	keystroke_o	o	n/a
9.3465	0.075	18693	keystroke_x	x	n/a
9.4815	0.1045	18963	keystroke_Key.space	Key.space	n/a
10.157	0.0745	20314	keystroke_j	j	n/a
10.336	0.0755	20672	keystroke_u	u	n/a
10.4715	0.1345	20943	keystroke_m	m	n/a
10.6515	0.0905	21303	keystroke_p	p	n/a
10.8165	0.0745	21633	keystroke_s	s	n/a
10.876	0.09	21752	keystroke_Key.space	Key.space	n/a
11.7165	0.075	23433	keystroke_o	o	n/a
12.017	0.059	24034	keystroke_v	v	n/a
12.121	0.06	24242	keystroke_e	e	n/a
12.2565	0.0895	24513	keystroke_r	r	n/a
12.3605	0.091	24721	keystroke_Key.space	Key.space	n/a
12.4815	0.0745	24963	keystroke_a	a	n/a
12.571	0.06	25142	keystroke_Key.space	Key.space	n/a
12.736	0.06	25472	keystroke_l	l	n/a
12.811	0.0595	25622	keystroke_a	a	n/a
12.991	0.09	25982	keystroke_z	z	n/a
13.156	0.09	26312	keystroke_y	y	n/a
13.291	0.1055	26582	keystroke_Key.space	Key.space	n/a
13.3805	0.0905	26761	keystroke_d	d	n/a
13.5315	0.09	27063	keystroke_o	o	n/a
13.636	0.09	27272	keystroke_g	g	n/a
14.116	0.045	28232	keystroke_Key.enter	Key.enter	n/a
14.1705	11.3795	28341	prompt	n/a	limitations tournaments final notion\n
15.136	0.105	30272	keystroke_l	l	n/a
15.331	0.121	30662	keystroke_i	i	n/a
15.4365	0.1045	30873	keystroke_m	m	n/a
16.487	0.0745	32974	keystroke_i	i	n/a
16.6965	0.075	33393	keystroke_t	t	n/a
16.831	0.075	33662	keystroke_a	a	n/a
17.071	0.0605	34142	keystroke_t	t	n/a
17.1915	0.0595	34383	keystroke_i	i	n/a
17.356	0.135	34712	keystroke_o	o	n/a
17.416	0.1205	34832	keystroke_n	n	n/a
17.521	0.1055	35042	keystroke_s	s	n/a
17.6415	0.1045	35283	keystroke_Key.space	Key.space	n/a
18.0765	0.0595	36153	keystroke_t	t	n/a
18.1655	0.0605	36331	keystroke_o	o	n/a
18.3315	0.074	36663	keystroke_u	u	n/a
18.4205	0.09	36841	keystroke_r	r	n/a
18.5555	0.0755	37111	keystroke_n	n	n/a
18.662	0.089	37324	keystroke_a	a	n/a
18.781	0.06	37562	keystroke_m	m	n/a
18.9015	0.09	37803	keystroke_e	e	n/a
19.1115	0.0595	38223	keystroke_t	t	n/a
19.321	0.075	38642	keystroke_s	s	n/a
19.426	0.105	38852	keystroke_Key.space	Key.space	n/a
19.7415	0.0595	39483	keystroke_t	t	n/a
20.1005	0.0605	40201	keystroke_Key.backspace	Key.backspace	n/a
20.2515	0.0595	40503	keystroke_Key.backspace	Key.backspace	n/a
20.386	0.0905	40772	keystroke_Key.backspace	Key.backspace	n/a
21.211	0.075	42422	keystroke_n	n	n/a
21.3315	0.0745	42663	keystroke_t	t	n/a
21.6165	0.0595	43233	keystroke_Key.backspace	Key.backspace	n/a
21.751	0.06	43502	keystroke_Key.backspace	Key.backspace	n/a
21.916	0.0755	43832	keystroke_Key.backspace	Key.backspace	n/a
22.2165	0.0605	44433	keystroke_n	n	n/a
22.2915	0.0745	44583	keystroke_t	t	n/a
22.5015	0.075	45003	keystroke_s	s	n/a
22.6365	0.06	45273	keystroke_Key.space	Key.space	n/a
23.5815	0.09	47163	keystroke_f	f	n/a
23.7165	0.12	47433	keystroke_i	i	n/a
23.7765	0.15	47553	keystroke_n	n	n/a
23.8965	0.0755	47793	keystroke_a	a	n/a
24.0315	0.105	48063	keystroke_l	l	n/a
24.1815	0.0895	48363	keystroke_Key.space	Key.space	n/a
24.377	0.1345	48754	keystroke_n	n	n/a
24.4365	0.149	48873	keystroke_o	o	n/a
24.5715	0.09	49143	keystroke_t	t	n/a
24.7065	0.0755	49413	keystroke_i	i	n/a
24.886	0.1495	49772	keystroke_o	o	n/a
24.947	0.1185	49894	keystroke_n	n	n/a
25.4415	0.1045	50883	keystroke_Key.enter	Key.enter	n/a
25.571	5.392	51142	prompt	n/a	trans guys doll threaded\n
26.4615	0.075	52923	keystroke_t	t	n/a
26.6265	0.09	53253	keystroke_r	r	n/a
26.8665	0.06	53733	keystroke_a	a	n/a
27.0165	0.075	54033	keystroke_n	n	n/a
27.0765	0.03	54153	keystroke_s	s	n/a
27.871	0.09	55742	keystroke_Key.space	Key.space	n/a
28.0215	0.089	56043	keystroke_g	g	n/a
28.1565	0.0745	56313	keystroke_u	u	n/a
28.291	0.0905	56582	keystroke_y	y	n/a
28.3965	0.06	56793	keystroke_s	s	n/a
28.5165	0.105	57033	keystroke_Key.space	Key.space	n/a
28.756	0.105	57512	keystroke_d	d	n/a
28.921	0.075	57842	keystroke_o	o	n/a
29.101	0.06	58202	keystroke_l	l	n/a
29.251	0.0905	58502	keystroke_l	l	n/a
29.4165	0.105	58833	keystroke_Key.space	Key.space	n/a
29.5655	0.09	59131	keystroke_t	t	n/a
29.6415	0.0895	59283	keystroke_h	h	n/a
29.776	0.091	59552	keystroke_r	r	n/a
29.942	0.1045	59884	keystroke_e	e	n/a
30.197	0.089	60394	keystroke_a	a	n/a
30.437	0.089	60874	keystroke_d	d	n/a
30.632	0.074	61264	keystroke_e	e	n/a
30.767	0.09	61534	keystroke_d	d	n/a
30.8865	0.0745	61773	keystroke_Key.enter	Key.enter	n/a
30.971	6.322	61942	prompt	n/a	empirical faces suffer automobiles\n
31.742	0.075	63484	keystroke_e	e	n/a
31.9815	0.0745	63963	keystroke_m	m	n/a
32.161	0.0755	64322	keystroke_p	p	n/a
32.3565	0.09	64713	keystroke_i	i	n/a
32.4915	0.09	64983	keystroke_r	r	n/a
32.6115	0.06	65223	keystroke_i	i	n/a
32.7465	0.09	65493	keystroke_c	c	n/a
33.0015	0.075	66003	keystroke_a	a	n/a
33.0915	0.075	66183	keystroke_l	l	n/a
33.2565	0.09	66513	keystroke_Key.space	Key.space	n/a
33.5265	0.09	67053	keystroke_f	f	n/a
33.6315	0.09	67263	keystroke_a	a	n/a
33.7215	0.075	67443	keystroke_c	c	n/a
33.8415	0.075	67683	keystroke_e	e	n/a
34.0215	0.09	68043	keystroke_s	s	n/a
34.0815	0.1045	68163	keystroke_Key.space	Key.space	n/a
34.231	0.09	68462	keystroke_s	s	n/a
34.337	0.059	68674	keystroke_u	u	n/a
34.5615	0.06	69123	keystroke_f	f	n/a
34.6815	0.09	69363	keystroke_f	f	n/a
34.847	0.075	69694	keystroke_e	e	n/a
34.997	0.12	69994	keystroke_r	r	n/a
35.146	0.1195	70292	keystroke_Key.space	Key.space	n/a
35.5965	0.105	71193	keystroke_a	a	n/a
35.762	0.1045	71524	keystroke_u	u	n/a
35.8965	0.075	71793	keystroke_t	t	n/a
36.0165	0.1505	72033	keystroke_o	o	n/a
36.1515	0.165	72303	keystroke_m	m	n/a
36.3315	0.1055	72663	keystroke_o	o	n/a
36.497	0.09	72994	keystroke_b	b	n/a
36.587	0.09	73174	keystroke_i	i	n/a
36.767	0.105	73534	keystroke_l	l	n/a
36.887	0.06	73774	keystroke_e	e	n/a
37.066	0.076	74132	keystroke_s	s	n/a
37.2465	0.0445	74493	keystroke_Key.enter	Key.enter	n/a
37.297	5.5015	74594	prompt	n/a	vienna doors before congress\n
38.221	0.061	76442	keystroke_v	v	n/a
38.341	0.0755	76682	keystroke_i	i	n/a
38.4615	0.0595	76923	keystroke_e	e	n/a
38.611	0.0455	77222	keystroke_n	n	n/a
38.746	0.0905	77492	keystroke_n	n	n/a
38.881	0.075	77762	keystroke_a	a	n/a
39.031	0.105	78062	keystroke_Key.space	Key.space	n/a
39.331	0.061	78662	keystroke_d	d	n/a
39.452	0.06	78904	keystroke_o	o	n/a
39.586	0.106	79172	keystroke_o	o	n/a
39.752	0.105	79504	keystroke_r	r	n/a
39.962	0.105	79924	keystroke_s	s	n/a
40.096	0.105	80192	keystroke_Key.space	Key.space	n/a
40.367	0.089	80734	keystroke_b	b	n/a
40.471	0.076	80942	keystroke_e	e	n/a
40.666	0.105	81332	keystroke_f	f	n/a
40.801	0.0755	81602	keystroke_o	o	n/a
40.891	0.075	81782	keystroke_r	r	n/a
41.056	0.09	82112	keystroke_e	e	n/a
41.1765	0.0755	82353	keystroke_Key.space	Key.space	n/a
41.281	0.075	82562	keystroke_c	c	n/a
41.387	0.12	82774	keystroke_o	o	n/a
41.477	0.105	82954	keystroke_n	n	n/a
41.702	0.105	83404	keystroke_g	g	n/a
41.8215	0.0605	83643	keystroke_r	r	n/a
42.001	0.091	84002	keystroke_e	e	n/a
42.2115	0.0595	84423	keystroke_s	s	n/a
42.3915	0.0745	84783	keystroke_s	s	n/a
42.691	0.105	85382	keystroke_Key.enter	Key.enter	n/a
42.8035	9.67	85607	prompt	n/a	declare pockets develops certain\n
43.576	0.0455	87152	keystroke_d	d	n/a
43.6965	0.09	87393	keystroke_e	e	n/a
43.8915	0.0905	87783	keystroke_c	c	n/a
44.027	0.0895	88054	keystroke_l	l	n/a
44.162	0.0445	88324	keystroke_a	a	n/a
44.3715	0.045	88743	keystroke_r	r	n/a
44.5065	0.09	89013	keystroke_e	e	n/a
44.6265	0.075	89253	keystroke_Key.space	Key.space	n/a
45.061	0.0615	90122	keystroke_p	p	n/a
45.227	0.075	90454	keystroke_o	o	n/a
45.317	0.075	90634	keystroke_c	c	n/a
45.422	0.075	90844	keystroke_k	k	n/a
45.527	0.075	91054	keystroke_e	e	n/a
45.7215	0.06	91443	keystroke_t	t	n/a
45.8865	0.0605	91773	keystroke_s	s	n/a
46.006	0.1055	92012	keystroke_Key.space	Key.space	n/a
46.5465	0.09	93093	keystroke_d	d	n/a
46.7265	0.075	93453	keystroke_e	e	n/a
46.937	0.0445	93874	keystroke_v	v	n/a
47.1015	0.0755	94203	keystroke_e	e	n/a
47.2065	0.0895	94413	keystroke_l	l	n/a
47.386	0.0905	94772	keystroke_o	o	n/a
47.6565	0.045	95313	keystroke_Key.backspace	Key.backspace	n/a
47.672	0.014	95344	keystroke_=	=	n/a
47.7915	0.06	95583	keystroke_Key.backspace	Key.backspace	n/a
47.956	0.0455	95912	keystroke_Key.backspace	Key.backspace	n/a
48.632	0.075	97264	keystroke_l	l	n/a
48.797	0.075	97594	keystroke_o	o	n/a
49.8915	0.0605	99783	keystroke_p	p	n/a
50.042	0.0745	100084	keystroke_s	s	n/a
50.1015	0.09	100203	keystroke_Key.space	Key.space	n/a
50.237	0.075	100474	keystroke_c	c	n/a
50.4165	0.075	100833	keystroke_e	e	n/a
50.5965	0.06	101193	keystroke_r	r	n/a
51.557	0.09	103114	keystroke_t	t	n/a
51.902	0.06	103804	keystroke_a	a	n/a
52.022	0.135	104044	keystroke_i	i	n/a
52.082	0.135	104164	keystroke_n	n	n/a
52.382	0.0895	104764	keystroke_Key.enter	Key.enter	n/a
52.4795	11.1995	104959	prompt	n/a	flip tables while acquisition\n
53.342	0.06	106684	keystroke_f	f	n/a
53.417	0.09	106834	keystroke_l	l	n/a
53.597	0.09	107194	keystroke_i	i	n/a
53.807	0.0745	107614	keystroke_p	p	n/a
54.0015	0.09	108003	keystroke_Key.space	Key.space	n/a
54.482	0.0745	108964	keystroke_t	t	n/a
54.707	0.0745	109414	keystroke_a	a	n/a
54.7815	0.09	109563	keystroke_b	b	n/a
55.0065	0.0755	110013	keystroke_l	l	n/a
55.111	0.075	110222	keystroke_e	e	n/a
55.277	0.0895	110554	keystroke_s	s	n/a
55.3815	0.09	110763	keystroke_Key.space	Key.space	n/a
55.6215	0.09	111243	keystroke_w	w	n/a
55.847	0.09	111694	keystroke_h	h	n/a
56.057	0.06	112114	keystroke_i	i	n/a
56.236	0.06	112472	keystroke_l	l	n/a
56.341	0.091	112682	keystroke_e	e	n/a
56.4765	0.075	112953	keystroke_Key.space	Key.space	n/a
56.582	0.0745	113164	keystroke_a	a	n/a
56.7765	0.075	113553	keystroke_c	c	n/a
57.002	0.0595	114004	keystroke_q	q	n/a
57.2265	0.09	114453	keystroke_u	u	n/a
57.3915	0.1045	114783	keystroke_i	i	n/a
57.556	0.091	115112	keystroke_s	s	n/a
57.841	0.076	115682	keystroke_t	t	n/a
57.947	0.074	115894	keystroke_i	i	n/a
58.127	0.135	116254	keystroke_o	o	n/a
58.202	0.12	116404	keystroke_n	n	n/a
58.3665	0.15	116733	keystroke_Key.space	Key.space	n/a
58.772	0.0895	117544	keystroke_Key.backspace	Key.backspace	n/a
61.8335	0.001	123667	keystroke_Key.backspace	Key.backspace	n/a
62.042	0.1045	124084	keystroke_Key.backspace	Key.backspace	n/a
62.2065	0.0905	124413	keystroke_Key.backspace	Key.backspace	n/a
62.3565	0.09	124713	keystroke_Key.backspace	Key.backspace	n/a
62.9725	0.06	125945	keystroke_i	i	n/a
63.0765	0.09	126153	keystroke_t	t	n/a
63.182	0.0445	126364	keystroke_i	i	n/a
63.3015	0.151	126603	keystroke_o	o	n/a
63.3925	0.1195	126785	keystroke_n	n	n/a
63.587	0.089	127174	keystroke_Key.enter	Key.enter	n/a
63.686	9.082	127372	prompt	n/a	journalists strand chick flat\n
64.8925	0.104	129785	keystroke_j	j	n/a
65.0115	0.105	130023	keystroke_o	o	n/a
65.2365	0.0905	130473	keystroke_u	u	n/a
65.387	0.075	130774	keystroke_r	r	n/a
65.4465	0.106	130893	keystroke_n	n	n/a
65.657	0.075	131314	keystroke_a	a	n/a
65.747	0.06	131494	keystroke_l	l	n/a
65.912	0.0745	131824	keystroke_i	i	n/a
65.971	0.106	131942	keystroke_s	s	n/a
66.2275	0.0745	132455	keystroke_t	t	n/a
66.3615	0.075	132723	keystroke_Key.space	Key.space	n/a
66.6325	0.105	133265	keystroke_s	s	n/a
66.8875	0.074	133775	keystroke_t	t	n/a
67.0365	0.091	134073	keystroke_r	r	n/a
67.2625	0.059	134525	keystroke_a	a	n/a
67.3815	0.06	134763	keystroke_n	n	n/a
67.4865	0.076	134973	keystroke_d	d	n/a
67.622	0.0895	135244	keystroke_Key.space	Key.space	n/a
68.672	0.075	137344	keystroke_c	c	n/a
68.912	0.075	137824	keystroke_k	k	n/a
69.0625	0.0895	138125	keystroke_i	i	n/a
69.212	0.075	138424	keystroke_c	c	n/a
69.332	0.105	138664	keystroke_k	k	n/a
69.557	0.105	139114	keystroke_Key.space	Key.space	n/a
69.947	0.075	139894	keystroke_Key.backspace	Key.backspace	n/a
70.097	0.075	140194	keystroke_Key.backspace	Key.backspace	n/a
70.262	0.0595	140524	keystroke_Key.backspace	Key.backspace	n/a
70.3975	0.0745	140795	keystroke_Key.backspace	Key.backspace	n/a
70.5015	0.09	141003	keystroke_Key.backspace	Key.backspace	n/a
71.1765	0.091	142353	keystroke_h	h	n/a
71.3865	0.09	142773	keystroke_i	i	n/a
71.5375	0.1045	143075	keystroke_c	c	n/a
71.6575	0.104	143315	keystroke_k	k	n/a
71.8065	0.1205	143613	keystroke_Key.space	Key.space	n/a
71.9565	0.09	143913	keystroke_f	f	n/a
72.092	0.105	144184	keystroke_l	l	n/a
72.272	0.0755	144544	keystroke_a	a	n/a
72.5575	0.059	145115	keystroke_t	t	n/a
72.6765	0.0905	145353	keystroke_Key.enter	Key.enter	n/a
72.7715	7.8275	145543	prompt	n/a	seven owner neighbor disaster\n
73.5015	0.061	147003	keystroke_s	s	n/a
73.6675	0.059	147335	keystroke_e	e	n/a
73.7725	0.089	147545	keystroke_v	v	n/a
73.8775	0.059	147755	keystroke_e	e	n/a
74.0565	0.12	148113	keystroke_n	n	n/a
74.162	0.1355	148324	keystroke_Key.space	Key.space	n/a
74.582	0.0905	149164	keystroke_o	o	n/a
74.7315	0.076	149463	keystroke_w	w	n/a
74.8515	0.075	149703	keystroke_n	n	n/a
74.957	0.0895	149914	keystroke_e	e	n/a
75.1215	0.105	150243	keystroke_r	r	n/a
75.2115	0.075	150423	keystroke_Key.space	Key.space	n/a
75.3625	0.089	150725	keystroke_n	n	n/a
75.4365	0.09	150873	keystroke_e	e	n/a
75.5875	0.105	151175	keystroke_i	i	n/a
75.707	0.0745	151414	keystroke_g	g	n/a
75.8265	0.0755	151653	keystroke_h	h	n/a
75.887	0.06	151774	keystroke_t	t	n/a
76.037	0.06	152074	keystroke_Key.space	Key.space	n/a
76.3815	0.045	152763	keystroke_Key.backspace	Key.backspace	n/a
77.117	0.0745	154234	keystroke_Key.backspace	Key.backspace	n/a
77.432	0.0595	154864	keystroke_b	b	n/a
77.5815	0.075	155163	keystroke_o	o	n/a
77.7175	0.074	155435	keystroke_r	r	n/a
77.8515	0.0905	155703	keystroke_Key.space	Key.space	n/a
78.7675	0.0745	157535	keystroke_d	d	n/a
78.887	0.06	157774	keystroke_i	i	n/a
79.0675	0.074	158135	keystroke_s	s	n/a
79.7725	0.059	159545	keystroke_a	a	n/a
79.9515	0.076	159903	keystroke_s	s	n/a
80.1175	0.089	160235	keystroke_t	t	n/a
80.2225	0.104	160445	keystroke_e	e	n/a
80.4015	0.09	160803	keystroke_r	r	n/a
80.5215	0.075	161043	keystroke_Key.enter	Key.enter	n/a
80.605	7.9135	161210	prompt	n/a	disposition flights ratios anne\n
81.362	0.075	162724	keystroke_d	d	n/a
81.5275	0.0895	163055	keystroke_i	i	n/a
81.6615	0.075	163323	keystroke_s	s	n/a
81.7675	0.044	163535	keystroke_p	p	n/a
81.9165	0.0605	163833	keystroke_o	o	n/a
82.0825	0.0445	164165	keystroke_t	t	n/a
82.2615	0.0905	164523	keystroke_i	i	n/a
82.4565	0.151	164913	keystroke_o	o	n/a
82.562	0.12	165124	keystroke_n	n	n/a
82.757	0.12	165514	keystroke_Key.space	Key.space	n/a
83.461	0.076	166922	keystroke_Key.backspace	Key.backspace	n/a
83.582	0.045	167164	keystroke_Key.backspace	Key.backspace	n/a
83.717	0.075	167434	keystroke_Key.backspace	Key.backspace	n/a
83.837	0.0895	167674	keystroke_Key.backspace	Key.backspace	n/a
84.017	0.059	168034	keystroke_Key.backspace	Key.backspace	n/a
84.4815	0.0755	168963	keystroke_s	s	n/a
84.6015	0.076	169203	keystroke_i	i	n/a
84.797	0.075	169594	keystroke_t	t	n/a
84.857	0.075	169714	keystroke_i	i	n/a
85.0225	0.1345	170045	keystroke_o	o	n/a
85.097	0.105	170194	keystroke_n	n	n/a
85.2765	0.1355	170553	keystroke_Key.space	Key.space	n/a
85.6075	0.074	171215	keystroke_f	f	n/a
85.6965	0.0905	171393	keystroke_l	l	n/a
85.877	0.074	171754	keystroke_i	i	n/a
85.996	0.06	171992	keystroke_g	g	n/a
86.071	0.091	172142	keystroke_h	h	n/a
86.1915	0.061	172383	keystroke_t	t	n/a
86.402	0.0745	172804	keystroke_s	s	n/a
86.5215	0.09	173043	keystroke_Key.space	Key.space	n/a
86.8815	0.075	173763	keystroke_r	r	n/a
87.1075	0.075	174215	keystroke_a	a	n/a
87.3475	0.045	174695	keystroke_t	t	n/a
87.4375	0.06	174875	keystroke_i	i	n/a
87.5875	0.104	175175	keystroke_o	o	n/a
87.677	0.0745	175354	keystroke_s	s	n/a
87.767	0.09	175534	keystroke_Key.space	Key.space	n/a
87.932	0.0745	175864	keystroke_a	a	n/a
88.0215	0.06	176043	keystroke_n	n	n/a
88.142	0.105	176284	keystroke_n	n	n/a
88.321	0.0905	176642	keystroke_e	e	n/a
88.442	0.075	176884	keystroke_Key.enter	Key.enter	n/a
88.533	5.7005	177066	prompt	n/a	warrior appears nowhere across\n
89.207	0.09	178414	keystroke_w	w	n/a
89.417	0.075	178834	keystroke_a	a	n/a
89.657	0.0595	179314	keystroke_r	r	n/a
89.7915	0.106	179583	keystroke_r	r	n/a
89.9575	0.06	179915	keystroke_i	i	n/a
90.1375	0.06	180275	keystroke_o	o	n/a
90.2865	0.076	180573	keystroke_r	r	n/a
90.4065	0.105	180813	keystroke_Key.space	Key.space	n/a
90.6765	0.075	181353	keystroke_a	a	n/a
90.857	0.0445	181714	keystroke_p	p	n/a
91.0065	0.091	182013	keystroke_p	p	n/a
91.142	0.0595	182284	keystroke_e	e	n/a
91.3215	0.075	182643	keystroke_a	a	n/a
91.5475	0.0895	183095	keystroke_r	r	n/a
91.7575	0.0745	183515	keystroke_s	s	n/a
91.862	0.1045	183724	keystroke_Key.space	Key.space	n/a
92.147	0.135	184294	keystroke_n	n	n/a
92.297	0.1055	184594	keystroke_o	o	n/a
92.417	0.06	184834	keystroke_w	w	n/a
92.567	0.06	185134	keystroke_h	h	n/a
92.5975	0.0895	185195	keystroke_e	e	n/a
92.792	0.075	185584	keystroke_r	r	n/a
92.957	0.075	185914	keystroke_e	e	n/a
93.047	0.09	186094	keystroke_Key.space	Key.space	n/a
93.1665	0.076	186333	keystroke_a	a	n/a
93.377	0.0905	186754	keystroke_c	c	n/a
93.572	0.075	187144	keystroke_r	r	n/a
93.692	0.105	187384	keystroke_o	o	n/a
93.812	0.075	187624	keystroke_s	s	n/a
93.992	0.09	187984	keystroke_s	s	n/a
94.141	0.09	188282	keystroke_Key.enter	Key.enter	n/a
94.237	6.2815	188474	prompt	n/a	cleared intent corporate announced\n
94.982	0.075	189964	keystroke_c	c	n/a
95.087	0.09	190174	keystroke_l	l	n/a
95.1925	0.0745	190385	keystroke_e	e	n/a
95.402	0.075	190804	keystroke_a	a	n/a
95.627	0.06	191254	keystroke_r	r	n/a
95.777	0.09	191554	keystroke_e	e	n/a
95.957	0.1195	191914	keystroke_d	d	n/a
96.0315	0.075	192063	keystroke_Key.space	Key.space	n/a
96.182	0.135	192364	keystroke_i	i	n/a
96.272	0.12	192544	keystroke_n	n	n/a
96.347	0.09	192694	keystroke_t	t	n/a
96.557	0.09	193114	keystroke_e	e	n/a
96.662	0.09	193324	keystroke_n	n	n/a
96.782	0.09	193564	keystroke_t	t	n/a
96.857	0.105	193714	keystroke_Key.space	Key.space	n/a
97.127	0.09	194254	keystroke_c	c	n/a
97.262	0.0755	194524	keystroke_o	o	n/a
97.607	0.06	195214	keystroke_r	r	n/a
97.772	0.0755	195544	keystroke_p	p	n/a
97.922	0.0755	195844	keystroke_o	o	n/a
98.0265	0.075	196053	keystroke_r	r	n/a
98.2375	0.104	196475	keystroke_a	a	n/a
98.357	0.075	196714	keystroke_t	t	n/a
98.4925	0.075	196985	keystroke_e	e	n/a
98.597	0.105	197194	keystroke_Key.space	Key.space	n/a
98.807	0.105	197614	keystroke_a	a	n/a
98.942	0.074	197884	keystroke_n	n	n/a
99.107	0.09	198214	keystroke_n	n	n/a
99.332	0.105	198664	keystroke_o	o	n/a
99.587	0.12	199174	keystroke_u	u	n/a
99.677	0.135	199354	keystroke_n	n	n/a
99.827	0.105	199654	keystroke_c	c	n/a
100.052	0.0755	200104	keystroke_e	e	n/a
100.217	0.09	200434	keystroke_d	d	n/a
100.427	0.09	200854	keystroke_Key.enter	Key.enter	n/a
100.5225	13.4355	201045	prompt	n/a	reseller surface strips possibility\n
101.3415	0.0755	202683	keystroke_r	r	n/a
101.492	0.09	202984	keystroke_e	e	n/a
101.6865	0.0605	203373	keystroke_s	s	n/a
101.822	0.075	203644	keystroke_e	e	n/a
101.957	0.06	203914	keystroke_l	l	n/a
102.197	0.014	204394	keystroke_l	l	n/a
102.227	0.09	204454	keystroke_e	e	n/a
102.4225	0.089	204845	keystroke_r	r	n/a
102.5125	0.104	205025	keystroke_Key.space	Key.space	n/a
102.677	0.1045	205354	keystroke_s	s	n/a
102.9315	0.0755	205863	keystroke_u	u	n/a
103.112	0.075	206224	keystroke_r	r	n/a
103.217	0.09	206434	keystroke_f	f	n/a
103.382	0.09	206764	keystroke_a	a	n/a
103.457	0.09	206914	keystroke_c	c	n/a
103.653	0.074	207306	keystroke_e	e	n/a
103.967	0.0745	207934	keystroke_s	s	n/a
104.657	0.0895	209314	keystroke_Key.backspace	Key.backspace	n/a
104.9565	0.0905	209913	keystroke_Key.space	Key.space	n/a
105.348	0.089	210696	keystroke_s	s	n/a
105.6175	0.044	211235	keystroke_t	t	n/a
105.7365	0.091	211473	keystroke_r	r	n/a
105.8275	0.075	211655	keystroke_i	i	n/a
106.0065	0.075	212013	keystroke_p	p	n/a
106.1275	0.06	212255	keystroke_s	s	n/a
106.2165	0.075	212433	keystroke_Key.space	Key.space	n/a
106.697	0.0745	213394	keystroke_Key.backspace	Key.backspace	n/a
107.1465	0.075	214293	keystroke_p	p	n/a
107.326	0.046	214652	keystroke_o	o	n/a
107.4475	0.0595	214895	keystroke_s	s	n/a
107.612	0.105	215224	keystroke_s	s	n/a
107.8525	0.075	215705	keystroke_i	i	n/a
107.986	0.09	215972	keystroke_b	b	n/a
108.122	0.09	216244	keystroke_i	i	n/a
108.302	0.1055	216604	keystroke_l	l	n/a
108.4975	0.074	216995	keystroke_i	i	n/a
108.6325	0.06	217265	keystroke_t	t	n/a
108.7215	0.09	217443	keystroke_y	y	n/a
110.7015	0.06	221403	keystroke_Key.backspace	Key.backspace	n/a
110.8515	0.06	221703	keystroke_Key.backspace	Key.backspace	n/a
110.9865	0.0755	221973	keystroke_Key.backspace	Key.backspace	n/a
111.3615	0.09	222723	keystroke_Key.space	Key.space	n/a
111.677	0.045	223354	keystroke_p	p	n/a
111.9915	0.0755	223983	keystroke_o	o	n/a
112.292	0.045	224584	keystroke_s	s	n/a
112.4275	0.104	224855	keystroke_s	s	n/a
112.5775	0.0895	225155	keystroke_i	i	n/a
112.7565	0.075	225513	keystroke_b	b	n/a
112.8465	0.09	225693	keystroke_i	i	n/a
113.057	0.074	226114	keystroke_l	l	n/a
113.192	0.089	226384	keystroke_i	i	n/a
113.342	0.0605	226684	keystroke_t	t	n/a
113.432	0.105	226864	keystroke_y	y	n/a
113.9115	0.045	227823	keystroke_Key.enter	Key.enter	n/a
113.9635	11.86	227927	prompt	n/a	effectively popular inquiries massive\n
114.7525	0.0745	229505	keystroke_e	e	n/a
114.947	0.06	229894	keystroke_f	f	n/a
115.067	0.075	230134	keystroke_f	f	n/a
115.202	0.075	230404	keystroke_e	e	n/a
115.382	0.105	230764	keystroke_c	c	n/a
115.6225	0.045	231245	keystroke_t	t	n/a
115.682	0.0745	231364	keystroke_i	i	n/a
115.907	0.09	231814	keystroke_v	v	n/a
116.027	0.09	232054	keystroke_e	e	n/a
116.207	0.06	232414	keystroke_l	l	n/a
116.357	0.06	232714	keystroke_y	y	n/a
116.507	0.0895	233014	keystroke_Key.space	Key.space	n/a
117.018	0.029	234036	keystroke_p	p	n/a
117.827	0.06	235654	keystroke_Key.backspace	Key.backspace	n/a
118.4575	0.0745	236915	keystroke_p	p	n/a
118.622	0.09	237244	keystroke_o	o	n/a
118.802	0.0895	237604	keystroke_p	p	n/a
119.0565	0.045	238113	keystroke_y	y	n/a
119.0725	0.0145	238145	keystroke_u	u	n/a
119.312	0.09	238624	keystroke_l	l	n/a
119.5075	0.06	239015	keystroke_a	a	n/a
119.777	0.0605	239554	keystroke_r	r	n/a
119.927	0.075	239854	keystroke_Key.space	Key.space	n/a
120.3315	0.0605	240663	keystroke_Key.backspace	Key.backspace	n/a
120.467	0.09	240934	keystroke_Key.backspace	Key.backspace	n/a
120.6325	0.164	241265	keystroke_Key.backspace	Key.backspace	n/a
120.9915	0.0155	241983	keystroke_Key.backspace	Key.backspace	n/a
121.037	0.1045	242074	keystroke_Key.backspace	Key.backspace	n/a
121.3965	0.06	242793	keystroke_Key.backspace	Key.backspace	n/a
121.7865	0.06	243573	keystroke_u	u	n/a
122.0715	0.03	244143	keystroke_l	l	n/a
122.1925	0.0745	244385	keystroke_a	a	n/a
122.447	0.0605	244894	keystroke_r	r	n/a
122.552	0.09	245104	keystroke_Key.space	Key.space	n/a
123.332	0.1805	246664	keystroke_i	i	n/a
123.392	0.15	246784	keystroke_n	n	n/a
123.527	0.09	247054	keystroke_q	q	n/a
123.663	0.074	247326	keystroke_u	u	n/a
123.812	0.09	247624	keystroke_i	i	n/a
123.9475	0.0895	247895	keystroke_r	r	n/a
124.083	0.074	248166	keystroke_i	i	n/a
124.172	0.09	248344	keystroke_e	e	n/a
124.3525	0.089	248705	keystroke_s	s	n/a
124.4865	0.091	248973	keystroke_Key.space	Key.space	n/a
124.652	0.09	249304	keystroke_m	m	n/a
124.7575	0.09	249515	keystroke_a	a	n/a
124.9525	0.0595	249905	keystroke_s	s	n/a
125.0725	0.12	250145	keystroke_s	s	n/a
125.2225	0.06	250445	keystroke_i	i	n/a
125.447	0.105	250894	keystroke_v	v	n/a
125.612	0.0755	251224	keystroke_e	e	n/a
125.762	0.06	251524	keystroke_Key.enter	Key.enter	n/a
125.828	7.705	251656	prompt	n/a	potter length substances trouble\n
126.7825	0.074	253565	keystroke_p	p	n/a
126.9325	0.074	253865	keystroke_o	o	n/a
127.2465	0.061	254493	keystroke_t	t	n/a
127.3825	0.104	254765	keystroke_t	t	n/a
127.5165	0.076	255033	keystroke_e	e	n/a
127.6965	0.091	255393	keystroke_r	r	n/a
127.8025	0.075	255605	keystroke_Key.space	Key.space	n/a
128.072	0.075	256144	keystroke_l	l	n/a
128.1925	0.0895	256385	keystroke_e	e	n/a
128.327	0.09	256654	keystroke_n	n	n/a
128.462	0.075	256924	keystroke_g	g	n/a
128.672	0.06	257344	keystroke_t	t	n/a
128.792	0.135	257584	keystroke_h	h	n/a
128.897	0.12	257794	keystroke_Key.space	Key.space	n/a
129.198	0.089	258396	keystroke_s	s	n/a
129.422	0.06	258844	keystroke_u	u	n/a
129.617	0.075	259234	keystroke_b	b	n/a
129.707	0.0755	259414	keystroke_s	s	n/a
130.2015	0.06	260403	keystroke_Key.backspace	Key.backspace	n/a
130.3665	0.0755	260733	keystroke_Key.backspace	Key.backspace	n/a
131.1325	0.074	262265	keystroke_b	b	n/a
131.222	0.0905	262444	keystroke_s	s	n/a
131.3725	0.06	262745	keystroke_t	t	n/a
131.4625	0.075	262925	keystroke_a	a	n/a
131.6415	0.03	263283	keystroke_n	n	n/a
131.7025	0.09	263405	keystroke_c	c	n/a
131.9125	0.059	263825	keystroke_e	e	n/a
132.0775	0.09	264155	keystroke_s	s	n/a
132.1815	0.091	264363	keystroke_Key.space	Key.space	n/a
132.557	0.06	265114	keystroke_t	t	n/a
132.722	0.075	265444	keystroke_r	r	n/a
132.782	0.0745	265564	keystroke_o	o	n/a
132.9465	0.1205	265893	keystroke_u	u	n/a
133.0525	0.0445	266105	keystroke_b	b	n/a
133.2025	0.074	266405	keystroke_l	l	n/a
133.2925	0.044	266585	keystroke_e	e	n/a
133.4565	0.075	266913	keystroke_Key.enter	Key.enter	n/a
133.5365	8.7575	267073	prompt	n/a	acre hebrew compared celebration\n
134.2965	0.091	268593	keystroke_a	a	n/a
134.5365	0.0905	269073	keystroke_c	c	n/a
134.762	0.0755	269524	keystroke_r	r	n/a
134.9275	0.075	269855	keystroke_e	e	n/a
135.062	0.0745	270124	keystroke_Key.space	Key.space	n/a
135.497	0.09	270994	keystroke_h	h	n/a
135.5715	0.09	271143	keystroke_e	e	n/a
135.678	0.089	271356	keystroke_b	b	n/a
135.8425	0.0745	271685	keystroke_r	r	n/a
136.0075	0.09	272015	keystroke_e	e	n/a
136.217	0.0605	272434	keystroke_w	w	n/a
136.3665	0.09	272733	keystroke_Key.space	Key.space	n/a
136.6675	0.0745	273335	keystroke_c	c	n/a
136.9375	0.18	273875	keystroke_o	o	n/a
137.0425	0.21	274085	keystroke_m	m	n/a
137.1775	0.135	274355	keystroke_p	p	n/a
137.3875	0.075	274775	keystroke_a	a	n/a
137.6115	0.061	275223	keystroke_r	r	n/a
137.7925	0.09	275585	keystroke_e	e	n/a
137.957	0.105	275914	keystroke_d	d	n/a
138.077	0.075	276154	keystroke_Key.space	Key.space	n/a
138.4375	0.2245	276875	keystroke_Key.backspace	Key.backspace	n/a
139.8915	0.075	279783	keystroke_Key.space	Key.space	n/a
140.0575	0.074	280115	keystroke_c	c	n/a
140.267	0.061	280534	keystroke_e	e	n/a
140.3875	0.0745	280775	keystroke_l	l	n/a
140.6425	0.075	281285	keystroke_e	e	n/a
140.867	0.075	281734	keystroke_b	b	n/a
141.077	0.0595	282154	keystroke_r	r	n/a
141.2865	0.0605	282573	keystroke_a	a	n/a
141.5425	0.0445	283085	keystroke_t	t	n/a
141.632	0.09	283264	keystroke_i	i	n/a
141.842	0.165	283684	keystroke_o	o	n/a
141.932	0.15	283864	keystroke_n	n	n/a
142.187	0.105	284374	keystroke_Key.enter	Key.enter	n/a
142.3085	7.215	284617	prompt	n/a	moore wishlist convert march\n
143.177	0.06	286354	keystroke_m	m	n/a
143.327	0.075	286654	keystroke_o	o	n/a
143.492	0.075	286984	keystroke_o	o	n/a
143.627	0.075	287254	keystroke_r	r	n/a
143.792	0.0745	287584	keystroke_e	e	n/a
143.8815	0.09	287763	keystroke_Key.space	Key.space	n/a
144.122	0.0755	288244	keystroke_w	w	n/a
144.302	0.0595	288604	keystroke_i	i	n/a
144.392	0.075	288784	keystroke_s	s	n/a
144.4975	0.104	288995	keystroke_h	h	n/a
144.737	0.075	289474	keystroke_l	l	n/a
144.902	0.0755	289804	keystroke_i	i	n/a
144.992	0.0755	289984	keystroke_s	s	n/a
145.217	0.075	290434	keystroke_t	t	n/a
145.352	0.09	290704	keystroke_Key.space	Key.space	n/a
145.757	0.075	291514	keystroke_c	c	n/a
145.877	0.15	291754	keystroke_o	o	n/a
145.952	0.12	291904	keystroke_n	n	n/a
146.8525	0.059	293705	keystroke_v	v	n/a
146.942	0.0745	293884	keystroke_e	e	n/a
147.1065	0.09	294213	keystroke_r	r	n/a
147.2415	0.1205	294483	keystroke_t	t	n/a
147.4365	0.135	294873	keystroke_Key.space	Key.space	n/a
148.3065	0.075	296613	keystroke_m	m	n/a
148.4125	0.1055	296825	keystroke_a	a	n/a
148.667	0.06	297334	keystroke_r	r	n/a
148.847	0.09	297694	keystroke_c	c	n/a
148.952	0.09	297904	keystroke_h	h	n/a
149.416	0.106	298832	keystroke_Key.enter	Key.enter	n/a
149.5275	6.236	299055	prompt	n/a	asset cited perfectly lauren\n
150.167	0.0895	300334	keystroke_a	a	n/a
150.4975	0.09	300995	keystroke_s	s	n/a
150.707	0.105	301414	keystroke_s	s	n/a
150.962	0.06	301924	keystroke_e	e	n/a
151.052	0.105	302104	keystroke_t	t	n/a
151.232	0.1195	302464	keystroke_Key.space	Key.space	n/a
151.5925	0.0905	303185	keystroke_c	c	n/a
151.727	0.015	303454	keystroke_i	i	n/a
151.862	0.075	303724	keystroke_t	t	n/a
152.042	0.074	304084	keystroke_e	e	n/a
152.222	0.0895	304444	keystroke_d	d	n/a
152.342	0.105	304684	keystroke_Key.space	Key.space	n/a
152.9275	0.0895	305855	keystroke_p	p	n/a
153.047	0.09	306094	keystroke_e	e	n/a
153.2275	0.0895	306455	keystroke_r	r	n/a
153.437	0.075	306874	keystroke_f	f	n/a
153.632	0.075	307264	keystroke_e	e	n/a
153.812	0.09	307624	keystroke_c	c	n/a
154.022	0.09	308044	keystroke_t	t	n/a
154.157	0.075	308314	keystroke_l	l	n/a
154.277	0.06	308554	keystroke_y	y	n/a
154.382	0.104	308764	keystroke_Key.space	Key.space	n/a
154.7565	0.0905	309513	keystroke_l	l	n/a
154.8615	0.075	309723	keystroke_a	a	n/a
155.027	0.0745	310054	keystroke_u	u	n/a
155.1615	0.075	310323	keystroke_r	r	n/a
155.2965	0.121	310593	keystroke_e	e	n/a
155.4315	0.12	310863	keystroke_n	n	n/a
155.6865	0.075	311373	keystroke_Key.enter	Key.enter	n/a
155.769	8.1395	311538	prompt	n/a	passed apparent zope dimensional\n
156.5725	0.044	313145	keystroke_a	a	n/a
156.8715	0.075	313743	keystroke_Key.backspace	Key.backspace	n/a
157.1275	0.0745	314255	keystroke_p	p	n/a
157.292	0.06	314584	keystroke_a	a	n/a
157.5165	0.0605	315033	keystroke_s	s	n/a
157.667	0.09	315334	keystroke_s	s	n/a
157.862	0.045	315724	keystroke_e	e	n/a
158.027	0.06	316054	keystroke_d	d	n/a
158.102	0.09	316204	keystroke_Key.space	Key.space	n/a
158.282	0.045	316564	keystroke_a	a	n/a
158.342	0.0605	316684	keystroke_p	p	n/a
158.477	0.089	316954	keystroke_p	p	n/a
158.581	0.091	317162	keystroke_a	a	n/a
158.807	0.075	317614	keystroke_r	r	n/a
158.972	0.075	317944	keystroke_e	e	n/a
159.047	0.075	318094	keystroke_n	n	n/a
159.197	0.075	318394	keystroke_t	t	n/a
159.3025	0.1195	318605	keystroke_Key.space	Key.space	n/a
159.797	0.075	319594	keystroke_z	z	n/a
159.962	0.0755	319924	keystroke_o	o	n/a
160.157	0.06	320314	keystroke_p	p	n/a
160.292	0.0895	320584	keystroke_p	p	n/a
160.412	0.09	320824	keystroke_e	e	n/a
160.5315	0.12	321063	keystroke_Key.space	Key.space	n/a
160.7115	0.0905	321423	keystroke_d	d	n/a
160.8615	0.0605	321723	keystroke_i	i	n/a
161.1015	0.06	322203	keystroke_m	m	n/a
161.987	0.0745	323974	keystroke_e	e	n/a
162.1215	0.09	324243	keystroke_n	n	n/a
162.287	0.0905	324574	keystroke_s	s	n/a
162.5275	0.044	325055	keystroke_i	i	n/a
163.337	0.1655	326674	keystroke_o	o	n/a
163.3975	0.18	326795	keystroke_n	n	n/a
163.5325	0.075	327065	keystroke_a	a	n/a
163.6085	0.133	327217	keystroke_l	l	n/a
163.832	0.075	327664	keystroke_Key.enter	Key.enter	n/a
163.9135	8.4995	327827	prompt	n/a	ships boss hampshire cape\n
164.7165	0.0605	329433	keystroke_s	s	n/a
164.8215	0.0755	329643	keystroke_j	j	n/a
165.197	0.105	330394	keystroke_Key.backspace	Key.backspace	n/a
165.4525	0.0895	330905	keystroke_h	h	n/a
165.632	0.06	331264	keystroke_i	i	n/a
165.812	0.074	331624	keystroke_p	p	n/a
165.9925	0.074	331985	keystroke_s	s	n/a
166.1115	0.105	332223	keystroke_Key.space	Key.space	n/a
166.652	0.0755	333304	keystroke_b	b	n/a
166.757	0.075	333514	keystroke_o	o	n/a
166.937	0.0595	333874	keystroke_s	s	n/a
167.117	0.09	334234	keystroke_s	s	n/a
167.252	0.075	334504	keystroke_Key.space	Key.space	n/a
167.732	0.075	335464	keystroke_h	h	n/a
167.882	0.06	335764	keystroke_a	a	n/a
167.987	0.09	335974	keystroke_m	m	n/a
168.212	0.045	336424	keystroke_s	s	n/a
168.3765	0.105	336753	keystroke_h	h	n/a
169.0515	0.075	338103	keystroke_Key.backspace	Key.backspace	n/a
169.2315	0.045	338463	keystroke_Key.backspace	Key.backspace	n/a
169.982	0.06	339964	keystroke_p	p	n/a
170.177	0.09	340354	keystroke_s	s	n/a
170.282	0.061	340564	keystroke_h	h	n/a
170.4615	0.06	340923	keystroke_i	i	n/a
170.567	0.059	341134	keystroke_r	r	n/a
170.7325	0.0745	341465	keystroke_e	e	n/a
170.852	0.105	341704	keystroke_Key.space	Key.space	n/a
171.7075	0.06	343415	keystroke_c	c	n/a
171.9165	0.0745	343833	keystroke_a	a	n/a
172.037	0.075	344074	keystroke_p	p	n/a
172.1875	0.0595	344375	keystroke_e	e	n/a
172.322	0.0895	344644	keystroke_Key.enter	Key.enter	n/a
172.4165	10.1515	344833	prompt	n/a	survivor signs burst include\n
173.2215	0.015	346443	keystroke_s	s	n/a
173.2665	0.075	346533	keystroke_u	u	n/a
173.4315	0.06	346863	keystroke_r	r	n/a
173.6715	0.061	347343	keystroke_v	v	n/a
173.777	0.074	347554	keystroke_i	i	n/a
173.897	0.075	347794	keystroke_v	v	n/a
175.0675	0.0745	350135	keystroke_o	o	n/a
175.3065	0.1055	350613	keystroke_r	r	n/a
175.937	0.06	351874	keystroke_Key.space	Key.space	n/a
176.447	0.09	352894	keystroke_s	s	n/a
176.582	0.09	353164	keystroke_i	i	n/a
176.777	0.0445	353554	keystroke_g	g	n/a
176.8815	0.0755	353763	keystroke_n	n	n/a
177.017	0.0745	354034	keystroke_s	s	n/a
177.1215	0.105	354243	keystroke_Key.space	Key.space	n/a
177.707	0.15	355414	keystroke_b	b	n/a
177.797	0.1345	355594	keystroke_u	u	n/a
177.9465	0.09	355893	keystroke_r	r	n/a
178.096	0.076	356192	keystroke_t	t	n/a
178.187	0.075	356374	keystroke_s	s	n/a
178.3515	0.1055	356703	keystroke_Key.space	Key.space	n/a
178.952	0.1505	357904	keystroke_i	i	n/a
179.027	0.135	358054	keystroke_n	n	n/a
179.4025	0.059	358805	keystroke_Key.backspace	Key.backspace	n/a
179.552	0.0755	359104	keystroke_Key.backspace	Key.backspace	n/a
179.7165	0.0455	359433	keystroke_Key.backspace	Key.backspace	n/a
179.7765	0.09	359553	keystroke_Key.backspace	Key.backspace	n/a
180.272	0.0895	360544	keystroke_Key.backspace	Key.backspace	n/a
180.6475	0.0895	361295	keystroke_s	s	n/a
180.917	0.06	361834	keystroke_t	t	n/a
181.112	0.06	362224	keystroke_s	s	n/a
181.157	0.06	362314	keystroke_Key.space	Key.space	n/a
181.337	0.12	362674	keystroke_i	i	n/a
181.382	0.1355	362764	keystroke_n	n	n/a
181.487	0.09	362974	keystroke_c	c	n/a
181.592	0.075	363184	keystroke_l	l	n/a
181.802	0.075	363604	keystroke_u	u	n/a
181.878	0.074	363756	keystroke_d	d	n/a
182.057	0.09	364114	keystroke_e	e	n/a
182.507	0.06	365014	keystroke_Key.enter	Key.enter	n/a
182.5725	9.7605	365145	prompt	n/a	compiler greenhouse comics nvidia\n
183.9475	0.075	367895	keystroke_c	c	n/a
184.0075	0.194	368015	keystroke_o	o	n/a
184.0815	0.135	368163	keystroke_m	m	n/a
184.3215	0.1205	368643	keystroke_p	p	n/a
184.592	0.075	369184	keystroke_i	i	n/a
184.8325	0.0745	369665	keystroke_l	l	n/a
185.5225	0.0895	371045	keystroke_e	e	n/a
185.702	0.0745	371404	keystroke_r	r	n/a
185.822	0.1045	371644	keystroke_Key.space	Key.space	n/a
186.1075	0.045	372215	keystroke_g	g	n/a
186.1225	0.045	372245	keystroke_h	h	n/a
186.527	0.105	373054	keystroke_Key.backspace	Key.backspace	n/a
186.722	0.09	373444	keystroke_Key.backspace	Key.backspace	n/a
187.3375	0.06	374675	keystroke_g	g	n/a
187.4425	0.09	374885	keystroke_r	r	n/a
187.637	0.0595	375274	keystroke_e	e	n/a
187.7715	0.1045	375543	keystroke_e	e	n/a
187.891	0.076	375782	keystroke_n	n	n/a
188.087	0.074	376174	keystroke_h	h	n/a
188.297	0.06	376594	keystroke_o	o	n/a
188.4625	0.0745	376925	keystroke_u	u	n/a
188.552	0.0755	377104	keystroke_s	s	n/a
188.7175	0.059	377435	keystroke_e	e	n/a
188.8665	0.076	377733	keystroke_Key.space	Key.space	n/a
189.1675	0.06	378335	keystroke_c	c	n/a
189.2575	0.1195	378515	keystroke_o	o	n/a
189.3325	0.164	378665	keystroke_m	m	n/a
189.5265	0.12	379053	keystroke_i	i	n/a
189.6625	0.089	379325	keystroke_c	c	n/a
189.8875	0.06	379775	keystroke_s	s	n/a
190.052	0.1045	380104	keystroke_Key.space	Key.space	n/a
191.237	0.09	382474	keystroke_n	n	n/a
191.387	0.075	382774	keystroke_v	v	n/a
191.612	0.075	383224	keystroke_i	i	n/a
191.762	0.0745	383524	keystroke_d	d	n/a
191.8815	0.0905	383763	keystroke_i	i	n/a
192.047	0.045	384094	keystroke_a	a	n/a
192.2565	0.0755	384513	keystroke_Key.enter	Key.enter	n/a
192.3415	6.862	384683	prompt	n/a	victoria collar searching aged\n
193.262	0.074	386524	keystroke_v	v	n/a
193.3965	0.1055	386793	keystroke_i	i	n/a
193.487	0.105	386974	keystroke_c	c	n/a
193.727	0.06	387454	keystroke_t	t	n/a
193.787	0.105	387574	keystroke_o	o	n/a
193.907	0.075	387814	keystroke_r	r	n/a
193.997	0.0745	387994	keystroke_i	i	n/a
194.177	0.075	388354	keystroke_a	a	n/a
194.297	0.1045	388594	keystroke_Key.space	Key.space	n/a
194.6565	0.045	389313	keystroke_c	c	n/a
194.7615	0.076	389523	keystroke_o	o	n/a
195.737	0.06	391474	keystroke_l	l	n/a
195.857	0.105	391714	keystroke_l	l	n/a
196.007	0.075	392014	keystroke_a	a	n/a
196.232	0.0605	392464	keystroke_r	r	n/a
196.3815	0.0755	392763	keystroke_Key.space	Key.space	n/a
196.937	0.0905	393874	keystroke_s	s	n/a
197.1625	0.059	394325	keystroke_e	e	n/a
197.3565	0.076	394713	keystroke_a	a	n/a
197.5965	0.076	395193	keystroke_r	r	n/a
197.7765	0.106	395553	keystroke_c	c	n/a
197.8675	0.09	395735	keystroke_h	h	n/a
198.0625	0.149	396125	keystroke_i	i	n/a
198.1365	0.106	396273	keystroke_n	n	n/a
198.1965	0.076	396393	keystroke_g	g	n/a
198.3465	0.1205	396693	keystroke_Key.space	Key.space	n/a
198.4815	0.0905	396963	keystroke_a	a	n/a
198.723	0.074	397446	keystroke_g	g	n/a
198.8415	0.0755	397683	keystroke_e	e	n/a
199.0065	0.09	398013	keystroke_d	d	n/a
199.1265	0.075	398253	keystroke_Key.enter	Key.enter	n/a
199.2075	10.346	398415	prompt	n/a	publications exclusion greetings cleared\n
200.132	0.075	400264	keystroke_p	p	n/a
200.357	0.0745	400714	keystroke_u	u	n/a
200.5365	0.0755	401073	keystroke_b	b	n/a
200.6265	0.0755	401253	keystroke_l	l	n/a
200.7915	0.076	401583	keystroke_i	i	n/a
200.988	0.074	401976	keystroke_c	c	n/a
201.212	0.0595	402424	keystroke_a	a	n/a
201.467	0.075	402934	keystroke_t	t	n/a
201.617	0.0445	403234	keystroke_i	i	n/a
201.7965	0.106	403593	keystroke_o	o	n/a
201.872	0.12	403744	keystroke_n	n	n/a
201.9315	0.0905	403863	keystroke_s	s	n/a
202.097	0.1195	404194	keystroke_Key.space	Key.space	n/a
202.292	0.09	404584	keystroke_e	e	n/a
202.5015	0.0755	405003	keystroke_x	x	n/a
202.712	0.0605	405424	keystroke_c	c	n/a
202.832	0.075	405664	keystroke_l	l	n/a
203.0425	0.0745	406085	keystroke_u	u	n/a
203.3565	0.045	406713	keystroke_Key.backspace	Key.backspace	n/a
203.492	0.09	406984	keystroke_Key.backspace	Key.backspace	n/a
204.0765	0.0895	408153	keystroke_l	l	n/a
204.302	0.074	408604	keystroke_u	u	n/a
204.452	0.045	408904	keystroke_s	s	n/a
204.707	0.075	409414	keystroke_i	i	n/a
204.887	0.165	409774	keystroke_o	o	n/a
204.992	0.12	409984	keystroke_n	n	n/a
205.142	0.0595	410284	keystroke_s	s	n/a
205.2765	0.135	410553	keystroke_Key.space	Key.space	n/a
205.7415	0.03	411483	keystroke_Key.backspace	Key.backspace	n/a
205.8615	0.105	411723	keystroke_Key.backspace	Key.backspace	n/a
206.147	0.06	412294	keystroke_Key.space	Key.space	n/a
206.7025	0.0595	413405	keystroke_g	g	n/a
206.8365	0.09	413673	keystroke_r	r	n/a
207.047	0.0295	414094	keystroke_e	e	n/a
207.182	0.0895	414364	keystroke_e	e	n/a
207.437	0.0745	414874	keystroke_t	t	n/a
207.5565	0.135	415113	keystroke_i	i	n/a
207.6315	0.105	415263	keystroke_n	n	n/a
207.7065	0.0605	415413	keystroke_g	g	n/a
207.962	0.075	415924	keystroke_s	s	n/a
208.142	0.0905	416284	keystroke_Key.space	Key.space	n/a
208.2625	0.1045	416525	keystroke_c	c	n/a
208.412	0.075	416824	keystroke_l	l	n/a
208.517	0.09	417034	keystroke_e	e	n/a
208.757	0.0755	417514	keystroke_a	a	n/a
208.997	0.075	417994	keystroke_r	r	n/a
209.177	0.09	418354	keystroke_e	e	n/a
209.372	0.0595	418744	keystroke_d	d	n/a
209.4765	0.075	418953	keystroke_Key.enter	Key.enter	n/a
209.558	9.629	419116	prompt	n/a	nascar mexico prev devoted\n
210.4225	0.0295	420845	keystroke_n	n	n/a
210.842	0.06	421684	keystroke_a	a	n/a
211.022	0.0595	422044	keystroke_s	s	n/a
211.1115	0.09	422223	keystroke_c	c	n/a
211.2315	0.075	422463	keystroke_a	a	n/a
211.3215	0.0755	422643	keystroke_r	r	n/a
211.502	0.0895	423004	keystroke_Key.space	Key.space	n/a
213.002	0.06	426004	keystroke_m	m	n/a
213.107	0.09	426214	keystroke_e	e	n/a
213.332	0.0745	426664	keystroke_x	x	n/a
213.4675	0.0745	426935	keystroke_i	i	n/a
213.6615	0.076	427323	keystroke_c	c	n/a
213.7675	0.119	427535	keystroke_o	o	n/a
213.9465	0.1345	427893	keystroke_Key.space	Key.space	n/a
214.4115	0.105	428823	keystroke_p	p	n/a
214.592	0.0895	429184	keystroke_r	r	n/a
214.757	0.09	429514	keystroke_e	e	n/a
214.892	0.18	429784	keystroke_v	v	n/a
215.087	0.1645	430174	keystroke_Key.space	Key.space	n/a
215.4175	0.074	430835	keystroke_d	d	n/a
215.567	0.0745	431134	keystroke_e	e	n/a
215.8065	0.075	431613	keystroke_v	v	n/a
215.927	0.09	431854	keystroke_o	o	n/a
216.227	0.0595	432454	keystroke_t	t	n/a
216.317	0.0745	432634	keystroke_e	e	n/a
216.512	0.105	433024	keystroke_d	d	n/a
219.1845	0	438369	keystroke_Key.enter	Key.enter	n/a
219.191	7.1925	438382	prompt	n/a	particular suse fruit united\n
220.0675	0.06	440135	keystroke_p	p	n/a
220.1575	0.0895	440315	keystroke_a	a	n/a
220.3675	0.075	440735	keystroke_r	r	n/a
220.5315	0.076	441063	keystroke_t	t	n/a
220.623	0.0885	441246	keystroke_i	i	n/a
220.7415	0.075	441483	keystroke_c	c	n/a
220.8315	0.06	441663	keystroke_u	u	n/a
221.0265	0.06	442053	keystroke_l	l	n/a
221.1325	0.074	442265	keystroke_a	a	n/a
221.3565	0.061	442713	keystroke_r	r	n/a
221.492	0.105	442984	keystroke_Key.space	Key.space	n/a
221.6425	0.0745	443285	keystroke_s	s	n/a
221.792	0.06	443584	keystroke_u	u	n/a
221.9725	0.09	443945	keystroke_s	s	n/a
222.167	0.075	444334	keystroke_e	e	n/a
222.272	0.1045	444544	keystroke_Key.space	Key.space	n/a
222.572	0.075	445144	keystroke_f	f	n/a
222.7375	0.0745	445475	keystroke_r	r	n/a
222.917	0.09	445834	keystroke_u	u	n/a
223.0965	0.09	446193	keystroke_i	i	n/a
223.1715	0.091	446343	keystroke_t	t	n/a
223.2915	0.12	446583	keystroke_Key.space	Key.space	n/a
223.3965	0.166	446793	keystroke_n	n	n/a
223.833	0.089	447666	keystroke_e	e	n/a
224.0275	0.0595	448055	keystroke_e	e	n/a
224.312	0.0595	448624	keystroke_Key.backspace	Key.backspace	n/a
224.4475	0.0745	448895	keystroke_Key.backspace	Key.backspace	n/a
224.597	0.0745	449194	keystroke_Key.backspace	Key.backspace	n/a
224.7765	0.045	449553	keystroke_Key.backspace	Key.backspace	n/a
225.2125	0.09	450425	keystroke_Key.space	Key.space	n/a
225.5115	0.136	451023	keystroke_u	u	n/a
225.6025	0.2095	451205	keystroke_n	n	n/a
225.7225	0.15	451445	keystroke_i	i	n/a
225.7965	0.121	451593	keystroke_t	t	n/a
226.0065	0.076	452013	keystroke_e	e	n/a
226.1725	0.075	452345	keystroke_d	d	n/a
226.277	0.1045	452554	keystroke_Key.enter	Key.enter	n/a
226.389	16.1505	452778	prompt	n/a	knowledgestorm leaf appointments sisters\n
229.7135	0.1035	459427	keystroke_k	k	n/a
229.742	0.1655	459484	keystroke_n	n	n/a
229.9665	0.105	459933	keystroke_o	o	n/a
230.147	0.105	460294	keystroke_w	w	n/a
230.297	0.0595	460594	keystroke_l	l	n/a
230.417	0.075	460834	keystroke_e	e	n/a
230.567	0.1055	461134	keystroke_d	d	n/a
230.6875	0.105	461375	keystroke_g	g	n/a
230.9725	0.075	461945	keystroke_e	e	n/a
231.1965	0.0755	462393	keystroke_s	s	n/a
231.4375	0.06	462875	keystroke_t	t	n/a
231.5875	0.06	463175	keystroke_r	r	n/a
231.6615	0.0765	463323	keystroke_o	o	n/a
231.903	0.1645	463806	keystroke_m	m	n/a
232.0225	0.135	464045	keystroke_Key.space	Key.space	n/a
234.3935	0	468787	keystroke_Key.backspace	Key.backspace	n/a
234.497	0.045	468994	keystroke_Key.backspace	Key.backspace	n/a
234.6325	0.0595	469265	keystroke_Key.backspace	Key.backspace	n/a
235.1275	0.105	470255	keystroke_Key.backspace	Key.backspace	n/a
235.4875	0.06	470975	keystroke_o	o	n/a
235.6825	0.06	471365	keystroke_r	r	n/a
235.8175	0.12	471635	keystroke_m	m	n/a
235.9065	0.121	471813	keystroke_Key.space	Key.space	n/a
238.67	0.012	477340	keystroke_l	l	n/a
238.743	0.074	477486	keystroke_e	e	n/a
238.952	0.061	477904	keystroke_a	a	n/a
238.997	0.09	477994	keystroke_f	f	n/a
239.117	0.12	478234	keystroke_Key.space	Key.space	n/a
239.252	0.09	478504	keystroke_a	a	n/a
239.417	0.046	478834	keystroke_p	p	n/a
239.5675	0.0895	479135	keystroke_p	p	n/a
239.732	0.105	479464	keystroke_o	o	n/a
239.987	0.151	479974	keystroke_i	i	n/a
240.0775	0.1645	480155	keystroke_n	n	n/a
240.1975	0.0745	480395	keystroke_t	t	n/a
240.4835	0.1185	480967	keystroke_m	m	n/a
240.632	0.075	481264	keystroke_e	e	n/a
240.722	0.0745	481444	keystroke_n	n	n/a
240.8275	0.0905	481655	keystroke_t	t	n/a
241.0365	0.0905	482073	keystroke_s	s	n/a
241.157	0.0755	482314	keystroke_Key.space	Key.space	n/a
241.487	0.075	482974	keystroke_s	s	n/a
241.577	0.075	483154	keystroke_i	i	n/a
241.727	0.09	483454	keystroke_s	s	n/a
241.9075	0.06	483815	keystroke_t	t	n/a
241.997	0.0905	483994	keystroke_e	e	n/a
242.1625	0.1055	484325	keystroke_r	r	n/a
242.372	0.075	484744	keystroke_s	s	n/a
242.4625	0.0745	484925	keystroke_Key.enter	Key.enter	n/a
242.5555	9.553	485111	prompt	n/a	edinburgh certain boulevard fleet\n
243.467	0.0755	486934	keystroke_e	e	n/a
243.767	0.075	487534	keystroke_d	d	n/a
243.947	0.06	487894	keystroke_i	i	n/a
244.1125	0.0745	488225	keystroke_g	g	n/a
244.232	0.09	488464	keystroke_n	n	n/a
244.427	0.075	488854	keystroke_b	b	n/a
244.6075	0.0745	489215	keystroke_u	u	n/a
244.7125	0.074	489425	keystroke_r	r	n/a
245.1625	0.059	490325	keystroke_s	s	n/a
245.3125	0.12	490625	keystroke_h	h	n/a
245.4475	0.134	490895	keystroke_Key.space	Key.space	n/a
245.8075	0.06	491615	keystroke_Key.backspace	Key.backspace	n/a
245.957	0.0605	491914	keystroke_Key.backspace	Key.backspace	n/a
246.0925	0.09	492185	keystroke_Key.backspace	Key.backspace	n/a
246.768	0.06	493536	keystroke_g	g	n/a
246.8725	0.15	493745	keystroke_h	h	n/a
246.992	0.105	493984	keystroke_Key.space	Key.space	n/a
247.3225	0.03	494645	keystroke_e	e	n/a
247.6815	0.075	495363	keystroke_Key.backspace	Key.backspace	n/a
247.8015	0.09	495603	keystroke_c	c	n/a
247.9825	0.09	495965	keystroke_e	e	n/a
248.177	0.1045	496354	keystroke_r	r	n/a
248.387	0.06	496774	keystroke_t	t	n/a
248.6565	0.061	497313	keystroke_a	a	n/a
248.7465	0.1205	497493	keystroke_i	i	n/a
248.807	0.105	497614	keystroke_n	n	n/a
248.987	0.105	497974	keystroke_Key.space	Key.space	n/a
249.303	0.059	498606	keystroke_b	b	n/a
249.3925	0.09	498785	keystroke_o	o	n/a
249.603	0.0745	499206	keystroke_u	u	n/a
249.812	0.09	499624	keystroke_l	l	n/a
249.977	0.06	499954	keystroke_e	e	n/a
250.232	0.075	500464	keystroke_v	v	n/a
250.3675	0.089	500735	keystroke_a	a	n/a
250.6075	0.0755	501215	keystroke_r	r	n/a
250.7875	0.105	501575	keystroke_d	d	n/a
250.9075	0.0595	501815	keystroke_Key.space	Key.space	n/a
251.207	0.0895	502414	keystroke_f	f	n/a
251.3275	0.0895	502655	keystroke_l	l	n/a
251.492	0.06	502984	keystroke_e	e	n/a
251.642	0.075	503284	keystroke_e	e	n/a
251.867	0.075	503734	keystroke_t	t	n/a
252.017	0.09	504034	keystroke_Key.enter	Key.enter	n/a
252.115	6.459	504230	prompt	n/a	optimum camp hotel possibilities\n
252.9775	0.0755	505955	keystroke_o	o	n/a
253.143	0.0745	506286	keystroke_p	p	n/a
253.2475	0.06	506495	keystroke_t	t	n/a
253.4125	0.045	506825	keystroke_i	i	n/a
253.6375	0.09	507275	keystroke_m	m	n/a
253.8465	0.045	507693	keystroke_u	u	n/a
254.0275	0.1195	508055	keystroke_m	m	n/a
254.162	0.105	508324	keystroke_Key.space	Key.space	n/a
254.3275	0.075	508655	keystroke_c	c	n/a
254.6265	0.016	509253	keystroke_a	a	n/a
254.6715	0.166	509343	keystroke_m	m	n/a
254.822	0.1055	509644	keystroke_p	p	n/a
255.032	0.075	510064	keystroke_Key.space	Key.space	n/a
255.557	0.0745	511114	keystroke_h	h	n/a
255.7825	0.075	511565	keystroke_o	o	n/a
255.9325	0.074	511865	keystroke_t	t	n/a
256.127	0.075	512254	keystroke_e	e	n/a
256.2025	0.104	512405	keystroke_l	l	n/a
256.382	0.0895	512764	keystroke_Key.space	Key.space	n/a
256.6075	0.0895	513215	keystroke_p	p	n/a
256.787	0.06	513574	keystroke_o	o	n/a
256.8915	0.06	513783	keystroke_s	s	n/a
257.0575	0.0895	514115	keystroke_s	s	n/a
257.2365	0.0755	514473	keystroke_i	i	n/a
257.387	0.075	514774	keystroke_b	b	n/a
257.476	0.091	514952	keystroke_i	i	n/a
257.687	0.075	515374	keystroke_l	l	n/a
257.867	0.075	515734	keystroke_i	i	n/a
257.972	0.09	515944	keystroke_t	t	n/a
258.0775	0.075	516155	keystroke_i	i	n/a
258.197	0.091	516394	keystroke_e	e	n/a
258.3625	0.104	516725	keystroke_s	s	n/a
258.482	0.0905	516964	keystroke_Key.enter	Key.enter	n/a
258.5795	8.8145	517159	prompt	n/a	rebate carlo hourly ultimate\n
259.442	0.06	518884	keystroke_r	r	n/a
259.5765	0.0755	519153	keystroke_e	e	n/a
259.697	0.075	519394	keystroke_b	b	n/a
259.802	0.075	519604	keystroke_a	a	n/a
259.922	0.075	519844	keystroke_t	t	n/a
260.0275	0.075	520055	keystroke_e	e	n/a
260.162	0.105	520324	keystroke_Key.space	Key.space	n/a
260.402	0.075	520804	keystroke_c	c	n/a
260.657	0.076	521314	keystroke_a	a	n/a
260.882	0.075	521764	keystroke_r	r	n/a
260.987	0.09	521974	keystroke_l	l	n/a
261.137	0.105	522274	keystroke_o	o	n/a
261.317	0.12	522634	keystroke_Key.space	Key.space	n/a
261.6625	0.105	523325	keystroke_h	h	n/a
261.8875	0.075	523775	keystroke_o	o	n/a
262.0825	0.075	524165	keystroke_u	u	n/a
262.1715	0.075	524343	keystroke_r	r	n/a
262.3075	0.075	524615	keystroke_l	l	n/a
262.442	0.075	524884	keystroke_y	y	n/a
262.5615	0.0905	525123	keystroke_Key.space	Key.space	n/a
264.392	0.015	528784	keystroke_u	u	n/a
264.542	0.075	529084	keystroke_l	l	n/a
264.632	0.06	529264	keystroke_t	t	n/a
264.737	0.09	529474	keystroke_i	i	n/a
264.767	0.135	529534	keystroke_m	m	n/a
264.932	0.09	529864	keystroke_a	a	n/a
265.1725	0.0745	530345	keystroke_e	e	n/a
265.787	0.09	531574	keystroke_Key.backspace	Key.backspace	n/a
265.892	0.09	531784	keystroke_t	t	n/a
266.087	0.075	532174	keystroke_e	e	n/a
267.317	0.075	534634	keystroke_Key.enter	Key.enter	n/a
267.4095	6.044	534819	prompt	n/a	individuals leave knowledge reset\n
268.2925	0.1495	536585	keystroke_i	i	n/a
268.3525	0.135	536705	keystroke_n	n	n/a
268.5025	0.075	537005	keystroke_d	d	n/a
268.5915	0.105	537183	keystroke_i	i	n/a
268.742	0.09	537484	keystroke_v	v	n/a
268.877	0.09	537754	keystroke_i	i	n/a
269.012	0.0755	538024	keystroke_d	d	n/a
269.117	0.0905	538234	keystroke_u	u	n/a
269.267	0.06	538534	keystroke_a	a	n/a
269.417	0.0605	538834	keystroke_l	l	n/a
269.522	0.0605	539044	keystroke_s	s	n/a
269.657	0.105	539314	keystroke_Key.space	Key.space	n/a
269.852	0.0605	539704	keystroke_l	l	n/a
269.927	0.06	539854	keystroke_e	e	n/a
270.1215	0.105	540243	keystroke_a	a	n/a
270.2565	0.09	540513	keystroke_v	v	n/a
270.377	0.075	540754	keystroke_e	e	n/a
270.4965	0.105	540993	keystroke_Key.space	Key.space	n/a
270.842	0.195	541684	keystroke_k	k	n/a
270.932	0.1345	541864	keystroke_n	n	n/a
271.142	0.1055	542284	keystroke_o	o	n/a
271.262	0.09	542524	keystroke_w	w	n/a
271.382	0.0905	542764	keystroke_l	l	n/a
271.5325	0.0745	543065	keystroke_e	e	n/a
271.7125	0.074	543425	keystroke_d	d	n/a
271.8465	0.06	543693	keystroke_g	g	n/a
271.9525	0.074	543905	keystroke_e	e	n/a
272.1015	0.076	544203	keystroke_Key.space	Key.space	n/a
272.342	0.0745	544684	keystroke_r	r	n/a
272.5215	0.046	545043	keystroke_e	e	n/a
272.7025	0.074	545405	keystroke_s	s	n/a
272.867	0.1055	545734	keystroke_e	e	n/a
273.1665	0.0605	546333	keystroke_t	t	n/a
273.377	0.0745	546754	keystroke_Key.enter	Key.enter	n/a
273.457	6.9715	546914	prompt	n/a	values african inspired barbados\n
274.277	0.075	548554	keystroke_v	v	n/a
274.5465	0.0605	549093	keystroke_a	a	n/a
274.6225	0.0895	549245	keystroke_l	l	n/a
274.877	0.075	549754	keystroke_u	u	n/a
275.012	0.09	550024	keystroke_e	e	n/a
275.4025	0.1045	550805	keystroke_s	s	n/a
275.5365	0.0905	551073	keystroke_Key.space	Key.space	n/a
275.7915	0.075	551583	keystroke_a	a	n/a
276.0325	0.06	552065	keystroke_f	f	n/a
276.152	0.09	552304	keystroke_r	r	n/a
276.302	0.075	552604	keystroke_i	i	n/a
276.408	0.0595	552816	keystroke_c	c	n/a
276.617	0.0755	553234	keystroke_a	a	n/a
276.7525	0.135	553505	keystroke_n	n	n/a
276.8115	0.12	553623	keystroke_Key.space	Key.space	n/a
277.037	0.164	554074	keystroke_i	i	n/a
277.112	0.149	554224	keystroke_n	n	n/a
277.7115	0.0755	555423	keystroke_s	s	n/a
277.8925	0.075	555785	keystroke_p	p	n/a
278.102	0.0595	556204	keystroke_i	i	n/a
278.2065	0.106	556413	keystroke_r	r	n/a
278.4025	0.074	556805	keystroke_e	e	n/a
278.582	0.0905	557164	keystroke_d	d	n/a
278.6865	0.075	557373	keystroke_Key.space	Key.space	n/a
279.107	0.0895	558214	keystroke_b	b	n/a
279.181	0.075	558362	keystroke_a	a	n/a
279.392	0.0595	558784	keystroke_r	r	n/a
279.5125	0.0895	559025	keystroke_b	b	n/a
279.6315	0.06	559263	keystroke_a	a	n/a
279.8275	0.074	559655	keystroke_d	d	n/a
279.9315	0.1055	559863	keystroke_o	o	n/a
280.0825	0.059	560165	keystroke_s	s	n/a
280.351	0.0755	560702	keystroke_Key.enter	Key.enter	n/a
280.433	6.4455	560866	prompt	n/a	granted hero wildlife original\n
281.237	0.0745	562474	keystroke_g	g	n/a
281.357	0.0895	562714	keystroke_r	r	n/a
281.567	0.0745	563134	keystroke_a	a	n/a
281.672	0.0745	563344	keystroke_n	n	n/a
281.8825	0.044	563765	keystroke_t	t	n/a
281.9415	0.061	563883	keystroke_e	e	n/a
282.077	0.1045	564154	keystroke_d	d	n/a
282.196	0.106	564392	keystroke_Key.space	Key.space	n/a
282.4365	0.0605	564873	keystroke_h	h	n/a
282.5565	0.076	565113	keystroke_e	e	n/a
282.7215	0.09	565443	keystroke_r	r	n/a
282.827	0.045	565654	keystroke_o	o	n/a
282.962	0.075	565924	keystroke_Key.space	Key.space	n/a
283.007	0.075	566014	keystroke_w	w	n/a
283.127	0.0895	566254	keystroke_i	i	n/a
283.3065	0.0905	566613	keystroke_l	l	n/a
283.412	0.075	566824	keystroke_d	d	n/a
283.607	0.0605	567214	keystroke_f	f	n/a
283.727	0.044	567454	keystroke_i	i	n/a
283.9965	0.075	567993	keystroke_Key.backspace	Key.backspace	n/a
284.1765	0.045	568353	keystroke_Key.backspace	Key.backspace	n/a
284.792	0.075	569584	keystroke_l	l	n/a
284.9725	0.0595	569945	keystroke_i	i	n/a
285.047	0.075	570094	keystroke_f	f	n/a
285.227	0.09	570454	keystroke_e	e	n/a
285.362	0.105	570724	keystroke_Key.space	Key.space	n/a
285.7065	0.09	571413	keystroke_o	o	n/a
285.8425	0.074	571685	keystroke_r	r	n/a
285.9775	0.104	571955	keystroke_i	i	n/a
286.1715	0.0755	572343	keystroke_g	g	n/a
286.2915	0.1355	572583	keystroke_i	i	n/a
286.3525	0.1195	572705	keystroke_n	n	n/a
286.502	0.075	573004	keystroke_a	a	n/a
286.592	0.105	573184	keystroke_l	l	n/a
286.8015	0.0755	573603	keystroke_Key.enter	Key.enter	n/a
286.882	5.157	573764	prompt	n/a	convenience adding saving offer\n
287.672	0.045	575344	keystroke_c	c	n/a
287.687	0.135	575374	keystroke_o	o	n/a
287.762	0.09	575524	keystroke_n	n	n/a
288.002	0.0745	576004	keystroke_v	v	n/a
288.122	0.045	576244	keystroke_e	e	n/a
288.242	0.075	576484	keystroke_n	n	n/a
288.377	0.12	576754	keystroke_i	i	n/a
288.572	0.06	577144	keystroke_e	e	n/a
288.6625	0.0745	577325	keystroke_n	n	n/a
288.782	0.105	577564	keystroke_c	c	n/a
288.962	0.09	577924	keystroke_e	e	n/a
289.097	0.09	578194	keystroke_Key.space	Key.space	n/a
289.262	0.03	578524	keystroke_a	a	n/a
289.487	0.0595	578974	keystroke_d	d	n/a
289.6375	0.1045	579275	keystroke_d	d	n/a
289.7865	0.15	579573	keystroke_i	i	n/a
289.8765	0.105	579753	keystroke_n	n	n/a
289.952	0.075	579904	keystroke_g	g	n/a
290.1015	0.09	580203	keystroke_Key.space	Key.space	n/a
290.2365	0.09	580473	keystroke_s	s	n/a
290.447	0.075	580894	keystroke_a	a	n/a
290.492	0.09	580984	keystroke_v	v	n/a
290.7175	0.1495	581435	keystroke_i	i	n/a
290.8065	0.12	581613	keystroke_n	n	n/a
290.867	0.0745	581734	keystroke_g	g	n/a
291.017	0.09	582034	keystroke_Key.space	Key.space	n/a
291.1965	0.076	582393	keystroke_o	o	n/a
291.2865	0.0755	582573	keystroke_f	f	n/a
291.437	0.12	582874	keystroke_f	f	n/a
291.6625	0.1035	583325	keystroke_e	e	n/a
291.842	0.105	583684	keystroke_r	r	n/a
291.931	0.105	583862	keystroke_Key.enter	Key.enter	n/a
292.043	8.71	584086	prompt	n/a	intro unsubscribe recall bryan\n
292.832	0.1955	585664	keystroke_i	i	n/a
292.8765	0.181	585753	keystroke_n	n	n/a
293.012	0.0905	586024	keystroke_t	t	n/a
293.1625	0.104	586325	keystroke_r	r	n/a
293.2365	0.12	586473	keystroke_o	o	n/a
293.4015	0.105	586803	keystroke_Key.space	Key.space	n/a
293.9415	0.1205	587883	keystroke_u	u	n/a
294.0165	0.1205	588033	keystroke_b	b	n/a
295.0515	0.1055	590103	keystroke_Key.backspace	Key.backspace	n/a
295.3975	0.06	590795	keystroke_n	n	n/a
295.6075	0.045	591215	keystroke_s	s	n/a
296.6265	0.1205	593253	keystroke_u	u	n/a
296.6865	0.1205	593373	keystroke_b	b	n/a
296.957	0.075	593914	keystroke_s	s	n/a
297.2725	0.0745	594545	keystroke_c	c	n/a
297.467	0.06	594934	keystroke_r	r	n/a
297.542	0.075	595084	keystroke_i	i	n/a
297.737	0.0745	595474	keystroke_b	b	n/a
297.872	0.075	595744	keystroke_e	e	n/a
297.992	0.075	595984	keystroke_Key.space	Key.space	n/a
298.3515	0.0755	596703	keystroke_r	r	n/a
298.5315	0.075	597063	keystroke_e	e	n/a
298.7415	0.06	597483	keystroke_c	c	n/a
298.9515	0.06	597903	keystroke_a	a	n/a
299.027	0.0595	598054	keystroke_l	l	n/a
299.1615	0.106	598323	keystroke_l	l	n/a
299.3415	0.121	598683	keystroke_Key.space	Key.space	n/a
299.4765	0.1055	598953	keystroke_b	b	n/a
299.5965	0.075	599193	keystroke_r	r	n/a
299.7165	0.09	599433	keystroke_y	y	n/a
299.8515	0.0755	599703	keystroke_a	a	n/a
299.9565	0.09	599913	keystroke_n	n	n/a
300.6615	0.09	601323	keystroke_Key.enter	Key.enter	n/a
300.757	9.5065	601514	prompt	n/a	mastercard counties life luck\n
301.5915	0.0905	603183	keystroke_m	m	n/a
301.696	0.091	603392	keystroke_a	a	n/a
301.862	0.105	603724	keystroke_s	s	n/a
301.982	0.06	603964	keystroke_t	t	n/a
302.2515	0.0755	604503	keystroke_e	e	n/a
302.402	0.0745	604804	keystroke_r	r	n/a
302.6115	0.045	605223	keystroke_c	c	n/a
302.687	0.1045	605374	keystroke_a	a	n/a
302.9415	0.0755	605883	keystroke_r	r	n/a
303.1065	0.09	606213	keystroke_d	d	n/a
303.1975	0.0895	606395	keystroke_Key.space	Key.space	n/a
303.376	0.105	606752	keystroke_c	c	n/a
303.497	0.09	606994	keystroke_o	o	n/a
303.7225	0.1345	607445	keystroke_u	u	n/a
303.781	0.151	607562	keystroke_n	n	n/a
303.917	0.0755	607834	keystroke_t	t	n/a
304.036	0.1515	608072	keystroke_i	i	n/a
304.111	0.121	608222	keystroke_n	n	n/a
304.172	0.089	608344	keystroke_e	e	n/a
304.3525	0.104	608705	keystroke_s	s	n/a
304.4715	0.12	608943	keystroke_Key.space	Key.space	n/a
305.6415	0.045	611283	keystroke_Key.backspace	Key.backspace	n/a
305.777	0.075	611554	keystroke_Key.backspace	Key.backspace	n/a
305.9265	0.0595	611853	keystroke_Key.backspace	Key.backspace	n/a
306.077	0.06	612154	keystroke_Key.backspace	Key.backspace	n/a
306.227	0.09	612454	keystroke_Key.backspace	Key.backspace	n/a
306.362	0.0745	612724	keystroke_Key.backspace	Key.backspace	n/a
306.5265	0.0605	613053	keystroke_Key.backspace	Key.backspace	n/a
307.682	0.09	615364	keystroke_n	n	n/a
307.787	0.09	615574	keystroke_t	t	n/a
307.907	0.06	615814	keystroke_i	i	n/a
307.997	0.09	615994	keystroke_e	e	n/a
308.177	0.09	616354	keystroke_s	s	n/a
308.252	0.09	616504	keystroke_Key.space	Key.space	n/a
308.4765	0.0755	616953	keystroke_l	l	n/a
308.657	0.06	617314	keystroke_i	i	n/a
308.9125	0.0735	617825	keystroke_f	f	n/a
309.106	0.075	618212	keystroke_e	e	n/a
309.1965	0.09	618393	keystroke_Key.space	Key.space	n/a
309.3925	0.075	618785	keystroke_l	l	n/a
309.602	0.06	619204	keystroke_u	u	n/a
309.722	0.0895	619444	keystroke_c	c	n/a
309.8725	0.059	619745	keystroke_k	k	n/a
310.187	0.075	620374	keystroke_Key.enter	Key.enter	n/a
310.267	4.7515	620534	prompt	n/a	his texas manor buck\n
311.1615	0.075	622323	keystroke_h	h	n/a
311.342	0.0745	622684	keystroke_i	i	n/a
311.4315	0.09	622863	keystroke_s	s	n/a
311.492	0.0895	622984	keystroke_Key.space	Key.space	n/a
311.6565	0.105	623313	keystroke_t	t	n/a
311.837	0.09	623674	keystroke_e	e	n/a
312.002	0.074	624004	keystroke_x	x	n/a
312.137	0.09	624274	keystroke_a	a	n/a
312.347	0.075	624694	keystroke_s	s	n/a
312.4965	0.1045	624993	keystroke_Key.space	Key.space	n/a
312.9925	0.104	625985	keystroke_m	m	n/a
313.1415	0.09	626283	keystroke_a	a	n/a
313.262	0.1795	626524	keystroke_n	n	n/a
313.3965	0.12	626793	keystroke_o	o	n/a
313.4865	0.06	626973	keystroke_r	r	n/a
313.592	0.12	627184	keystroke_Key.space	Key.space	n/a
314.057	0.15	628114	keystroke_b	b	n/a
314.1925	0.089	628385	keystroke_u	u	n/a
314.3415	0.09	628683	keystroke_c	c	n/a
314.4165	0.12	628833	keystroke_k	k	n/a
314.927	0.09	629854	keystroke_Key.enter	Key.enter	n/a
315.022	5.996	630044	prompt	n/a	cheese andrew casio clan\n
315.707	0.0895	631414	keystroke_c	c	n/a
315.8415	0.0455	631683	keystroke_h	h	n/a
315.947	0.045	631894	keystroke_e	e	n/a
316.097	0.1055	632194	keystroke_e	e	n/a
316.2915	0.1055	632583	keystroke_s	s	n/a
316.472	0.075	632944	keystroke_e	e	n/a
316.592	0.09	633184	keystroke_Key.space	Key.space	n/a
316.697	0.075	633394	keystroke_a	a	n/a
316.787	0.09	633574	keystroke_n	n	n/a
316.922	0.0895	633844	keystroke_d	d	n/a
317.116	0.0755	634232	keystroke_r	r	n/a
317.2965	0.09	634593	keystroke_e	e	n/a
317.5225	0.059	635045	keystroke_w	w	n/a
317.687	0.0895	635374	keystroke_Key.space	Key.space	n/a
318.2265	0.075	636453	keystroke_c	c	n/a
318.3625	0.0745	636725	keystroke_a	a	n/a
318.5565	0.0905	637113	keystroke_s	s	n/a
318.692	0.074	637384	keystroke_i	i	n/a
318.856	0.0915	637712	keystroke_o	o	n/a
319.0215	0.075	638043	keystroke_Key.space	Key.space	n/a
319.171	0.1065	638342	keystroke_b	b	n/a
319.3075	0.1045	638615	keystroke_a	a	n/a
319.472	0.1195	638944	keystroke_m	m	n/a
320.2515	0.1055	640503	keystroke_Key.backspace	Key.backspace	n/a
320.582	0.06	641164	keystroke_n	n	n/a
320.942	0.075	641884	keystroke_Key.enter	Key.enter	n/a
321.023	10.7055	642046	prompt	n/a	paying merchants creating underground\n
323.1645	0.043	646329	keystroke_p	p	n/a
323.2965	0.1055	646593	keystroke_a	a	n/a
323.4765	0.06	646953	keystroke_y	y	n/a
323.5665	0.03	647133	keystroke_s	s	n/a
323.6565	0.1355	647313	keystroke_i	i	n/a
323.7465	0.09	647493	keystroke_n	n	n/a
323.807	0.0595	647614	keystroke_g	g	n/a
323.9265	0.1355	647853	keystroke_Key.space	Key.space	n/a
324.0465	0.1355	648093	keystroke_m	m	n/a
324.2865	0.0905	648573	keystroke_e	e	n/a
324.4365	0.091	648873	keystroke_r	r	n/a
324.6765	0.045	649353	keystroke_c	c	n/a
324.7815	0.09	649563	keystroke_h	h	n/a
324.917	0.0595	649834	keystroke_a	a	n/a
325.0375	0.089	650075	keystroke_n	n	n/a
325.2015	0.045	650403	keystroke_t	t	n/a
325.4575	0.074	650915	keystroke_s	s	n/a
326.222	0.0745	652444	keystroke_Key.space	Key.space	n/a
326.732	0.15	653464	keystroke_c	c	n/a
326.807	0.12	653614	keystroke_r	r	n/a
326.942	0.074	653884	keystroke_e	e	n/a
327.1365	0.0905	654273	keystroke_a	a	n/a
327.4065	0.06	654813	keystroke_t	t	n/a
327.5265	0.1355	655053	keystroke_i	i	n/a
327.572	0.1345	655144	keystroke_n	n	n/a
327.6465	0.106	655293	keystroke_g	g	n/a
327.7815	0.135	655563	keystroke_Key.space	Key.space	n/a
328.3065	0.1205	656613	keystroke_u	u	n/a
328.352	0.1505	656704	keystroke_n	n	n/a
328.457	0.105	656914	keystroke_d	d	n/a
328.637	0.06	657274	keystroke_e	e	n/a
328.802	0.075	657604	keystroke_r	r	n/a
329.192	0.0745	658384	keystroke_g	g	n/a
329.3715	0.0755	658743	keystroke_r	r	n/a
329.4915	0.06	658983	keystroke_o	o	n/a
329.687	0.1355	659374	keystroke_u	u	n/a
329.762	0.1345	659524	keystroke_n	n	n/a
329.8815	0.091	659763	keystroke_d	d	n/a
331.667	0.0595	663334	keystroke_Key.enter	Key.enter	n/a
331.7445	6.9735	663489	prompt	n/a	portuguese kurt paint proposals\n
332.6715	0.1205	665343	keystroke_p	p	n/a
333.197	0.06	666394	keystroke_o	o	n/a
333.317	0.0895	666634	keystroke_r	r	n/a
333.5125	0.059	667025	keystroke_t	t	n/a
333.602	0.075	667204	keystroke_u	u	n/a
333.9315	0.0905	667863	keystroke_g	g	n/a
334.096	0.1065	668192	keystroke_e	e	n/a
334.2925	0.0895	668585	keystroke_s	s	n/a
334.472	0.0895	668944	keystroke_e	e	n/a
334.577	0.075	669154	keystroke_Key.space	Key.space	n/a
335.027	0.045	670054	keystroke_k	k	n/a
335.732	0.075	671464	keystroke_u	u	n/a
335.897	0.075	671794	keystroke_r	r	n/a
336.077	0.06	672154	keystroke_t	t	n/a
336.152	0.09	672304	keystroke_Key.space	Key.space	n/a
336.4975	0.09	672995	keystroke_p	p	n/a
336.707	0.0905	673414	keystroke_a	a	n/a
336.8875	0.12	673775	keystroke_i	i	n/a
336.9325	0.12	673865	keystroke_n	n	n/a
337.0525	0.074	674105	keystroke_t	t	n/a
337.157	0.1045	674314	keystroke_Key.space	Key.space	n/a
337.3825	0.1045	674765	keystroke_p	p	n/a
337.5475	0.0895	675095	keystroke_r	r	n/a
337.622	0.075	675244	keystroke_o	o	n/a
337.802	0.06	675604	keystroke_p	p	n/a
337.952	0.09	675904	keystroke_o	o	n/a
338.087	0.075	676174	keystroke_s	s	n/a
338.267	0.075	676534	keystroke_a	a	n/a
338.387	0.075	676774	keystroke_l	l	n/a
338.4925	0.0895	676985	keystroke_s	s	n/a
338.657	0.0595	677314	keystroke_Key.enter	Key.enter	n/a
338.723	8.608	677446	prompt	n/a	mustang initial chef albany\n
339.5425	0.074	679085	keystroke_m	m	n/a
339.7375	0.06	679475	keystroke_u	u	n/a
339.8275	0.119	679655	keystroke_s	s	n/a
340.0675	0.059	680135	keystroke_t	t	n/a
340.2765	0.0745	680553	keystroke_a	a	n/a
340.382	0.0755	680764	keystroke_n	n	n/a
340.562	0.0905	681124	keystroke_g	g	n/a
340.727	0.105	681454	keystroke_Key.space	Key.space	n/a
341.132	0.12	682264	keystroke_i	i	n/a
341.192	0.15	682384	keystroke_n	n	n/a
341.372	0.12	682744	keystroke_i	i	n/a
341.507	0.1045	683014	keystroke_t	t	n/a
341.6725	0.074	683345	keystroke_i	i	n/a
341.8365	0.0755	683673	keystroke_a	a	n/a
341.927	0.075	683854	keystroke_l	l	n/a
342.1065	0.09	684213	keystroke_Key.space	Key.space	n/a
342.3325	0.1045	684665	keystroke_c	c	n/a
342.4515	0.076	684903	keystroke_h	h	n/a
342.4675	0.03	684935	keystroke_g	g	n/a
342.5875	0.09	685175	keystroke_e	e	n/a
343.007	0.0595	686014	keystroke_Key.backspace	Key.backspace	n/a
343.157	0.1345	686314	keystroke_Key.backspace	Key.backspace	n/a
343.3665	0.105	686733	keystroke_e	e	n/a
343.6215	0.0605	687243	keystroke_f	f	n/a
343.742	0.1045	687484	keystroke_Key.space	Key.space	n/a
344.612	0.075	689224	keystroke_a	a	n/a
344.717	0.09	689434	keystroke_l	l	n/a
344.8825	0.0595	689765	keystroke_a	a	n/a
345.032	0.061	690064	keystroke_b	b	n/a
345.482	0.045	690964	keystroke_Key.backspace	Key.backspace	n/a
345.6475	0.075	691295	keystroke_Key.backspace	Key.backspace	n/a
346.1865	0.046	692373	keystroke_b	b	n/a
346.547	0.09	693094	keystroke_a	a	n/a
346.6975	0.0745	693395	keystroke_n	n	n/a
346.8475	0.06	693695	keystroke_y	y	n/a
347.282	0.045	694564	keystroke_Key.enter	Key.enter	n/a
347.3355	5.243	694671	prompt	n/a	poems bomb exec dates\n
348.137	0.075	696274	keystroke_p	p	n/a
348.287	0.09	696574	keystroke_o	o	n/a
348.437	0.075	696874	keystroke_e	e	n/a
348.557	0.075	697114	keystroke_m	m	n/a
348.692	0.075	697384	keystroke_s	s	n/a
348.842	0.075	697684	keystroke_Key.space	Key.space	n/a
349.4865	0.0605	698973	keystroke_b	b	n/a
349.592	0.12	699184	keystroke_o	o	n/a
349.667	0.105	699334	keystroke_m	m	n/a
349.847	0.075	699694	keystroke_b	b	n/a
350.327	0.0755	700654	keystroke_Key.space	Key.space	n/a
350.567	0.0745	701134	keystroke_e	e	n/a
350.7615	0.0905	701523	keystroke_x	x	n/a
350.9565	0.0605	701913	keystroke_e	e	n/a
351.1525	0.074	702305	keystroke_c	c	n/a
351.4065	0.09	702813	keystroke_Key.space	Key.space	n/a
351.7965	0.075	703593	keystroke_d	d	n/a
351.992	0.0745	703984	keystroke_a	a	n/a
352.1125	0.074	704225	keystroke_t	t	n/a
352.2315	0.09	704463	keystroke_e	e	n/a
352.3965	0.1205	704793	keystroke_s	s	n/a
352.4865	0.0905	704973	keystroke_Key.enter	Key.enter	n/a
352.5825	7.631	705165	prompt	n/a	complicated referenced bits holocaust\n
353.402	0.075	706804	keystroke_c	c	n/a
353.537	0.165	707074	keystroke_o	o	n/a
353.627	0.12	707254	keystroke_m	m	n/a
353.8075	0.12	707615	keystroke_p	p	n/a
353.8525	0.12	707705	keystroke_l	l	n/a
354.0775	0.075	708155	keystroke_i	i	n/a
354.1675	0.074	708335	keystroke_c	c	n/a
354.377	0.075	708754	keystroke_a	a	n/a
354.482	0.076	708964	keystroke_t	t	n/a
354.602	0.075	709204	keystroke_e	e	n/a
354.737	0.1055	709474	keystroke_d	d	n/a
354.8565	0.1055	709713	keystroke_Key.space	Key.space	n/a
355.232	0.06	710464	keystroke_r	r	n/a
355.367	0.09	710734	keystroke_e	e	n/a
355.487	0.061	710974	keystroke_f	f	n/a
355.577	0.075	711154	keystroke_e	e	n/a
355.757	0.075	711514	keystroke_r	r	n/a
355.922	0.075	711844	keystroke_e	e	n/a
356.072	0.075	712144	keystroke_n	n	n/a
356.162	0.0905	712324	keystroke_c	c	n/a
356.3715	0.106	712743	keystroke_e	e	n/a
356.522	0.1055	713044	keystroke_d	d	n/a
356.642	0.06	713284	keystroke_Key.space	Key.space	n/a
356.9265	0.075	713853	keystroke_b	b	n/a
357.0625	0.0745	714125	keystroke_i	i	n/a
357.1675	0.075	714335	keystroke_t	t	n/a
357.4065	0.0755	714813	keystroke_s	s	n/a
357.5115	0.091	715023	keystroke_Key.space	Key.space	n/a
358.1425	0.0745	716285	keystroke_h	h	n/a
358.262	0.075	716524	keystroke_o	o	n/a
358.412	0.0745	716824	keystroke_l	l	n/a
358.5475	0.06	717095	keystroke_o	o	n/a
358.6375	0.075	717275	keystroke_c	c	n/a
358.8475	0.075	717695	keystroke_a	a	n/a
358.9665	0.076	717933	keystroke_u	u	n/a
359.1165	0.075	718233	keystroke_s	s	n/a
359.3865	0.0605	718773	keystroke_t	t	n/a
360.152	0.06	720304	keystroke_Key.enter	Key.enter	n/a
360.219	7.7045	720438	prompt	n/a	pope classification annex contacted\n
361.0515	0.075	722103	keystroke_p	p	n/a
361.2315	0.06	722463	keystroke_o	o	n/a
361.367	0.0895	722734	keystroke_p	p	n/a
361.561	0.045	723122	keystroke_e	e	n/a
361.681	0.105	723362	keystroke_Key.space	Key.space	n/a
362.177	0.09	724354	keystroke_c	c	n/a
362.312	0.09	724624	keystroke_l	l	n/a
362.417	0.075	724834	keystroke_a	a	n/a
362.612	0.045	725224	keystroke_s	s	n/a
362.762	0.09	725524	keystroke_s	s	n/a
362.897	0.0905	725794	keystroke_i	i	n/a
363.1675	0.0595	726335	keystroke_f	f	n/a
363.318	0.0745	726636	keystroke_i	i	n/a
363.4065	0.06	726813	keystroke_c	c	n/a
363.6165	0.075	727233	keystroke_a	a	n/a
363.9165	0.045	727833	keystroke_t	t	n/a
364.0215	0.075	728043	keystroke_i	i	n/a
364.2015	0.135	728403	keystroke_o	o	n/a
364.2765	0.1055	728553	keystroke_n	n	n/a
364.487	0.09	728974	keystroke_Key.space	Key.space	n/a
364.667	0.105	729334	keystroke_a	a	n/a
364.788	0.044	729576	keystroke_n	n	n/a
364.922	0.075	729844	keystroke_n	n	n/a
365.117	0.09	730234	keystroke_e	e	n/a
365.357	0.075	730714	keystroke_x	x	n/a
365.507	0.09	731014	keystroke_Key.space	Key.space	n/a
366.017	0.0755	732034	keystroke_c	c	n/a
366.1065	0.1205	732213	keystroke_o	o	n/a
366.1665	0.1205	732333	keystroke_n	n	n/a
366.482	0.015	732964	keystroke_t	t	n/a
366.557	0.045	733114	keystroke_a	a	n/a
366.767	0.045	733534	keystroke_c	c	n/a
367.3825	0.0895	734765	keystroke_t	t	n/a
367.532	0.075	735064	keystroke_e	e	n/a
367.7115	0.0905	735423	keystroke_d	d	n/a
367.847	0.075	735694	keystroke_Key.enter	Key.enter	n/a
367.928	9.3255	735856	prompt	n/a	tunisia proceeding translate confirmed\n
368.747	0.06	737494	keystroke_t	t	n/a
368.913	0.134	737826	keystroke_u	u	n/a
369.002	0.2545	738004	keystroke_n	n	n/a
369.1665	0.15	738333	keystroke_i	i	n/a
369.7815	0.0605	739563	keystroke_s	s	n/a
369.856	0.091	739712	keystroke_i	i	n/a
369.9925	0.0735	739985	keystroke_a	a	n/a
370.096	0.091	740192	keystroke_Key.space	Key.space	n/a
370.307	0.1195	740614	keystroke_p	p	n/a
370.472	0.075	740944	keystroke_r	r	n/a
370.5625	0.1045	741125	keystroke_o	o	n/a
370.907	0.09	741814	keystroke_c	c	n/a
371.117	0.059	742234	keystroke_e	e	n/a
371.252	0.1045	742504	keystroke_e	e	n/a
371.4765	0.09	742953	keystroke_d	d	n/a
371.627	0.119	743254	keystroke_i	i	n/a
371.687	0.119	743374	keystroke_n	n	n/a
371.777	0.074	743554	keystroke_g	g	n/a
372.016	0.075	744032	keystroke_s	s	n/a
372.152	0.089	744304	keystroke_Key.space	Key.space	n/a
373.382	0.0745	746764	keystroke_t	t	n/a
373.5465	0.09	747093	keystroke_r	r	n/a
373.742	0.0755	747484	keystroke_n	n	n/a
374.1915	0.0745	748383	keystroke_Key.backspace	Key.backspace	n/a
374.372	0.075	748744	keystroke_a	a	n/a
374.492	0.09	748984	keystroke_n	n	n/a
374.612	0.09	749224	keystroke_s	s	n/a
374.747	0.075	749494	keystroke_l	l	n/a
374.882	0.09	749764	keystroke_a	a	n/a
375.422	0.06	750844	keystroke_t	t	n/a
375.542	0.0595	751084	keystroke_e	e	n/a
375.647	0.089	751294	keystroke_Key.space	Key.space	n/a
376.0365	0.0895	752073	keystroke_c	c	n/a
376.141	0.181	752282	keystroke_o	o	n/a
376.261	0.151	752522	keystroke_n	n	n/a
376.426	0.091	752852	keystroke_f	f	n/a
376.5465	0.091	753093	keystroke_i	i	n/a
376.6665	0.06	753333	keystroke_r	r	n/a
376.7715	0.1055	753543	keystroke_m	m	n/a
376.907	0.0755	753814	keystroke_e	e	n/a
377.072	0.09	754144	keystroke_d	d	n/a
377.177	0.075	754354	keystroke_Key.enter	Key.enter	n/a
377.259	6.5795	754518	prompt	n/a	usda venture letter camping\n
378.1225	0.059	756245	keystroke_u	u	n/a
378.242	0.0905	756484	keystroke_s	s	n/a
378.5265	0.075	757053	keystroke_d	d	n/a
378.7675	0.044	757535	keystroke_a	a	n/a
378.9165	0.075	757833	keystroke_Key.space	Key.space	n/a
379.262	0.075	758524	keystroke_v	v	n/a
379.352	0.075	758704	keystroke_e	e	n/a
379.472	0.09	758944	keystroke_n	n	n/a
379.607	0.075	759214	keystroke_t	t	n/a
379.712	0.075	759424	keystroke_u	u	n/a
379.8025	0.0745	759605	keystroke_r	r	n/a
379.982	0.0745	759964	keystroke_e	e	n/a
380.1015	0.0755	760203	keystroke_Key.space	Key.space	n/a
380.2825	0.044	760565	keystroke_l	l	n/a
380.4315	0.061	760863	keystroke_e	e	n/a
380.807	0.06	761614	keystroke_t	t	n/a
381.031	0.091	762062	keystroke_e	e	n/a
381.737	0.06	763474	keystroke_Key.backspace	Key.backspace	n/a
382.067	0.06	764134	keystroke_t	t	n/a
382.157	0.075	764314	keystroke_e	e	n/a
382.337	0.059	764674	keystroke_r	r	n/a
382.4265	0.075	764853	keystroke_Key.space	Key.space	n/a
382.607	0.09	765214	keystroke_c	c	n/a
382.877	0.045	765754	keystroke_a	a	n/a
382.982	0.0755	765964	keystroke_m	m	n/a
383.162	0.0895	766324	keystroke_p	p	n/a
383.3875	0.1185	766775	keystroke_i	i	n/a
383.4175	0.1495	766835	keystroke_n	n	n/a
383.5525	0.059	767105	keystroke_g	g	n/a
383.777	0.0595	767554	keystroke_Key.enter	Key.enter	n/a
383.8445	7.0735	767689	prompt	n/a	fioricet cisco growing drama\n
384.8115	0.061	769623	keystroke_f	f	n/a
384.9175	0.074	769835	keystroke_l	l	n/a
385.0815	0.09	770163	keystroke_o	o	n/a
385.3965	0.076	770793	keystroke_r	r	n/a
385.5165	0.0755	771033	keystroke_i	i	n/a
385.667	0.0895	771334	keystroke_c	c	n/a
385.8765	0.076	771753	keystroke_e	e	n/a
386.882	0.06	773764	keystroke_t	t	n/a
386.987	0.0895	773974	keystroke_Key.space	Key.space	n/a
387.257	0.0895	774514	keystroke_c	c	n/a
387.4065	0.075	774813	keystroke_i	i	n/a
387.5115	0.09	775023	keystroke_s	s	n/a
387.7215	0.06	775443	keystroke_c	c	n/a
387.827	0.089	775654	keystroke_o	o	n/a
387.9765	0.1055	775953	keystroke_Key.space	Key.space	n/a
388.577	0.09	777154	keystroke_g	g	n/a
388.727	0.0755	777454	keystroke_r	r	n/a
388.846	0.076	777692	keystroke_o	o	n/a
389.012	0.03	778024	keystroke_w	w	n/a
389.102	0.1655	778204	keystroke_i	i	n/a
389.192	0.1495	778384	keystroke_n	n	n/a
389.327	0.0905	778654	keystroke_g	g	n/a
389.447	0.1195	778894	keystroke_Key.space	Key.space	n/a
390.1215	0.06	780243	keystroke_d	d	n/a
390.2575	0.075	780515	keystroke_r	r	n/a
390.4675	0.075	780935	keystroke_a	a	n/a
390.587	0.075	781174	keystroke_m	m	n/a
390.677	0.075	781354	keystroke_a	a	n/a
390.857	0.06	781714	keystroke_Key.enter	Key.enter	n/a
390.925	7.493	781850	prompt	n/a	tracks potato nikon bunny\n
391.8625	0.044	783725	keystroke_t	t	n/a
391.9825	0.09	783965	keystroke_r	r	n/a
392.0865	0.075	784173	keystroke_a	a	n/a
392.2815	0.1055	784563	keystroke_c	c	n/a
392.4165	0.075	784833	keystroke_k	k	n/a
392.537	0.075	785074	keystroke_s	s	n/a
392.627	0.0745	785254	keystroke_Key.space	Key.space	n/a
393.1375	0.089	786275	keystroke_p	p	n/a
393.332	0.06	786664	keystroke_o	o	n/a
393.437	0.075	786874	keystroke_t	t	n/a
393.707	0.06	787414	keystroke_s	s	n/a
394.232	0.105	788464	keystroke_Key.backspace	Key.backspace	n/a
394.381	0.0915	788762	keystroke_a	a	n/a
394.6825	0.059	789365	keystroke_t	t	n/a
394.8015	0.091	789603	keystroke_o	o	n/a
394.952	0.105	789904	keystroke_Key.space	Key.space	n/a
395.522	0.09	791044	keystroke_n	n	n/a
395.672	0.1055	791344	keystroke_i	i	n/a
395.867	0.09	791734	keystroke_k	k	n/a
396.017	0.1505	792034	keystroke_o	o	n/a
396.0775	0.1645	792155	keystroke_n	n	n/a
396.286	0.136	792572	keystroke_Key.space	Key.space	n/a
397.187	0.06	794374	keystroke_b	b	n/a
397.292	0.09	794584	keystroke_u	u	n/a
397.6975	0.029	795395	keystroke_n	n	n/a
397.8315	0.075	795663	keystroke_n	n	n/a
398.0725	0.075	796145	keystroke_y	y	n/a
398.312	0.105	796624	keystroke_Key.enter	Key.enter	n/a
398.4235	6.625	796847	prompt	n/a	french worm acer expectations\n
399.2875	0.0745	798575	keystroke_f	f	n/a
399.4525	0.089	798905	keystroke_r	r	n/a
399.617	0.09	799234	keystroke_e	e	n/a
399.737	0.075	799474	keystroke_n	n	n/a
399.857	0.075	799714	keystroke_c	c	n/a
399.9615	0.106	799923	keystroke_h	h	n/a
400.0365	0.165	800073	keystroke_Key.space	Key.space	n/a
400.2325	0.089	800465	keystroke_w	w	n/a
400.367	0.0745	800734	keystroke_o	o	n/a
400.5015	0.0595	801003	keystroke_r	r	n/a
400.622	0.12	801244	keystroke_m	m	n/a
400.711	0.105	801422	keystroke_Key.space	Key.space	n/a
400.832	0.075	801664	keystroke_a	a	n/a
401.071	0.091	802142	keystroke_c	c	n/a
401.252	0.075	802504	keystroke_e	e	n/a
401.432	0.074	802864	keystroke_r	r	n/a
401.5525	0.0895	803105	keystroke_Key.space	Key.space	n/a
401.807	0.09	803614	keystroke_e	e	n/a
402.032	0.06	804064	keystroke_x	x	n/a
402.1525	0.0895	804305	keystroke_p	p	n/a
402.676	0.076	805352	keystroke_Key.backspace	Key.backspace	n/a
403.4425	0.0735	806885	keystroke_p	p	n/a
403.547	0.089	807094	keystroke_e	e	n/a
403.727	0.105	807454	keystroke_c	c	n/a
403.937	0.0605	807874	keystroke_t	t	n/a
404.117	0.06	808234	keystroke_a	a	n/a
404.387	0.045	808774	keystroke_t	t	n/a
404.477	0.075	808954	keystroke_i	i	n/a
404.6565	0.1355	809313	keystroke_o	o	n/a
404.716	0.121	809432	keystroke_n	n	n/a
404.8225	0.0735	809645	keystroke_s	s	n/a
404.956	0.0905	809912	keystroke_Key.enter	Key.enter	n/a
405.052	5.7565	810104	prompt	n/a	knows optics pork humor\n
406.0065	0.1355	812013	keystroke_k	k	n/a
406.082	0.21	812164	keystroke_n	n	n/a
406.2315	0.1505	812463	keystroke_o	o	n/a
406.457	0.074	812914	keystroke_w	w	n/a
406.817	0.0905	813634	keystroke_s	s	n/a
406.997	0.0895	813994	keystroke_Key.space	Key.space	n/a
407.4625	0.0745	814925	keystroke_o	o	n/a
407.6115	0.09	815223	keystroke_p	p	n/a
407.7165	0.075	815433	keystroke_t	t	n/a
407.8365	0.09	815673	keystroke_i	i	n/a
407.957	0.09	815914	keystroke_c	c	n/a
408.1665	0.075	816333	keystroke_s	s	n/a
408.2565	0.075	816513	keystroke_Key.space	Key.space	n/a
408.4515	0.09	816903	keystroke_p	p	n/a
408.6315	0.0755	817263	keystroke_o	o	n/a
408.767	0.0745	817534	keystroke_r	r	n/a
408.887	0.1645	817774	keystroke_k	k	n/a
409.0215	0.1355	818043	keystroke_Key.space	Key.space	n/a
409.982	0.0595	819964	keystroke_h	h	n/a
410.1465	0.075	820293	keystroke_u	u	n/a
410.3415	0.165	820683	keystroke_m	m	n/a
410.447	0.1195	820894	keystroke_o	o	n/a
410.6115	0.075	821223	keystroke_r	r	n/a
410.732	0.075	821464	keystroke_Key.enter	Key.enter	n/a
410.8145	12.3695	821629	prompt	n/a	yard characteristic martial transformation\n
411.692	0.075	823384	keystroke_y	y	n/a
411.7975	0.0745	823595	keystroke_a	a	n/a
412.022	0.061	824044	keystroke_r	r	n/a
412.187	0.0895	824374	keystroke_d	d	n/a
412.2915	0.091	824583	keystroke_Key.space	Key.space	n/a
412.3965	0.075	824793	keystroke_c	c	n/a
412.502	0.09	825004	keystroke_h	h	n/a
412.6365	0.061	825273	keystroke_a	a	n/a
412.7575	0.075	825515	keystroke_r	r	n/a
412.8625	0.06	825725	keystroke_a	a	n/a
413.0725	0.0895	826145	keystroke_c	c	n/a
413.192	0.0605	826384	keystroke_t	t	n/a
413.297	0.06	826594	keystroke_e	e	n/a
413.432	0.105	826864	keystroke_r	r	n/a
413.612	0.074	827224	keystroke_i	i	n/a
413.702	0.075	827404	keystroke_s	s	n/a
413.9265	0.06	827853	keystroke_t	t	n/a
414.032	0.06	828064	keystroke_i	i	n/a
414.1515	0.0755	828303	keystroke_c	c	n/a
414.3775	0.045	828755	keystroke_s	s	n/a
414.4965	0.0755	828993	keystroke_Key.space	Key.space	n/a
414.6315	0.1055	829263	keystroke_m	m	n/a
414.8715	0.09	829743	keystroke_a	a	n/a
415.157	0.0745	830314	keystroke_r	r	n/a
415.3215	0.0455	830643	keystroke_y	y	n/a
415.427	0.0905	830854	keystroke_i	i	n/a
415.877	0.075	831754	keystroke_Key.backspace	Key.backspace	n/a
416.4915	0.1055	832983	keystroke_Key.backspace	Key.backspace	n/a
416.7625	0.074	833525	keystroke_t	t	n/a
416.8975	0.075	833795	keystroke_i	i	n/a
417.1375	0.09	834275	keystroke_l	l	n/a
417.3015	0.0905	834603	keystroke_Key.space	Key.space	n/a
417.6615	0.0605	835323	keystroke_Key.backspace	Key.backspace	n/a
417.8115	0.075	835623	keystroke_Key.backspace	Key.backspace	n/a
417.9615	0.09	835923	keystroke_a	a	n/a
418.112	0.1205	836224	keystroke_l	l	n/a
418.2615	0.135	836523	keystroke_Key.space	Key.space	n/a
418.997	0.075	837994	keystroke_t	t	n/a
419.102	0.09	838204	keystroke_r	r	n/a
419.357	0.06	838714	keystroke_a	a	n/a
419.537	0.06	839074	keystroke_n	n	n/a
419.732	0.015	839464	keystroke_s	s	n/a
420.932	0.06	841864	keystroke_f	f	n/a
421.067	0.059	842134	keystroke_o	o	n/a
421.097	0.059	842194	keystroke_r	r	n/a
422.1165	0.075	844233	keystroke_m	m	n/a
422.2215	0.09	844443	keystroke_a	a	n/a
422.5065	0.0605	845013	keystroke_t	t	n/a
422.6115	0.091	845223	keystroke_i	i	n/a
422.7915	0.15	845583	keystroke_o	o	n/a
422.8965	0.105	845793	keystroke_n	n	n/a
423.1065	0.0745	846213	keystroke_Key.enter	Key.enter	n/a
423.198	7.2455	846396	prompt	n/a	attacks our protocols cheap\n
423.902	0.0445	847804	keystroke_a	a	n/a
423.9915	0.0605	847983	keystroke_t	t	n/a
424.1265	0.09	848253	keystroke_t	t	n/a
424.2465	0.0755	848493	keystroke_a	a	n/a
424.4865	0.075	848973	keystroke_c	c	n/a
424.5765	0.06	849153	keystroke_k	k	n/a
424.6965	0.0755	849393	keystroke_s	s	n/a
424.7415	0.0905	849483	keystroke_Key.space	Key.space	n/a
424.967	0.06	849934	keystroke_o	o	n/a
425.147	0.075	850294	keystroke_u	u	n/a
425.282	0.0755	850564	keystroke_t	t	n/a
425.401	0.105	850802	keystroke_Key.space	Key.space	n/a
426.1215	0.0605	852243	keystroke_Key.backspace	Key.backspace	n/a
426.2865	0.0605	852573	keystroke_Key.backspace	Key.backspace	n/a
426.422	0.06	852844	keystroke_r	r	n/a
426.542	0.119	853084	keystroke_Key.space	Key.space	n/a
426.9615	0.09	853923	keystroke_p	p	n/a
427.127	0.075	854254	keystroke_r	r	n/a
427.217	0.09	854434	keystroke_o	o	n/a
427.352	0.075	854704	keystroke_t	t	n/a
427.442	0.1055	854884	keystroke_o	o	n/a
427.607	0.09	855214	keystroke_c	c	n/a
427.7725	0.045	855545	keystroke_o	o	n/a
427.9075	0.089	855815	keystroke_l	l	n/a
428.402	0.0745	856804	keystroke_s	s	n/a
428.9265	0.105	857853	keystroke_Key.space	Key.space	n/a
429.1975	0.0895	858395	keystroke_c	c	n/a
429.3165	0.075	858633	keystroke_h	h	n/a
429.4515	0.09	858903	keystroke_e	e	n/a
429.6775	0.074	859355	keystroke_a	a	n/a
429.8115	0.075	859623	keystroke_p	p	n/a
430.3515	0.0905	860703	keystroke_Key.enter	Key.enter	n/a
430.4475	11.577	860895	prompt	n/a	names hopefully filters claim\n
431.4625	0.0755	862925	keystroke_n	n	n/a
431.583	0.089	863166	keystroke_a	a	n/a
431.6875	0.075	863375	keystroke_m	m	n/a
431.807	0.075	863614	keystroke_e	e	n/a
431.9865	0.0905	863973	keystroke_s	s	n/a
432.1215	0.09	864243	keystroke_Key.space	Key.space	n/a
432.8125	0.1195	865625	keystroke_j	j	n/a
433.127	0.0755	866254	keystroke_o	o	n/a
433.307	0.06	866614	keystroke_p	p	n/a
433.456	0.076	866912	keystroke_e	e	n/a
433.6825	0.0745	867365	keystroke_f	f	n/a
433.786	0.06	867572	keystroke_u	u	n/a
433.982	0.044	867964	keystroke_l	l	n/a
434.102	0.075	868204	keystroke_l	l	n/a
434.3715	0.105	868743	keystroke_Key.space	Key.space	n/a
436.007	0.045	872014	keystroke_Key.backspace	Key.backspace	n/a
436.127	0.06	872254	keystroke_Key.backspace	Key.backspace	n/a
436.247	0.06	872494	keystroke_Key.backspace	Key.backspace	n/a
436.351	0.0455	872702	keystroke_Key.backspace	Key.backspace	n/a
436.426	0.061	872852	keystroke_Key.backspace	Key.backspace	n/a
436.5315	0.18	873063	keystroke_Key.backspace	Key.backspace	n/a
436.7415	0.09	873483	keystroke_Key.backspace	Key.backspace	n/a
436.9065	0.0755	873813	keystroke_Key.backspace	Key.backspace	n/a
437.042	0.06	874084	keystroke_Key.backspace	Key.backspace	n/a
438.002	0.09	876004	keystroke_h	h	n/a
438.212	0.074	876424	keystroke_o	o	n/a
438.377	0.06	876754	keystroke_p	p	n/a
438.482	0.09	876964	keystroke_e	e	n/a
438.722	0.075	877444	keystroke_f	f	n/a
438.812	0.075	877624	keystroke_u	u	n/a
439.022	0.06	878044	keystroke_l	l	n/a
439.157	0.075	878314	keystroke_l	l	n/a
439.234	0.088	878468	keystroke_y	y	n/a
439.367	0.075	878734	keystroke_Key.space	Key.space	n/a
439.967	0.09	879934	keystroke_f	f	n/a
440.132	0.09	880264	keystroke_i	i	n/a
440.297	0.075	880594	keystroke_l	l	n/a
440.387	0.0895	880774	keystroke_t	t	n/a
440.5825	0.1045	881165	keystroke_e	e	n/a
440.7465	0.09	881493	keystroke_r	r	n/a
440.9565	0.076	881913	keystroke_s	s	n/a
441.077	0.09	882154	keystroke_Key.space	Key.space	n/a
441.242	0.06	882484	keystroke_c	c	n/a
441.347	0.0745	882694	keystroke_l	l	n/a
441.482	0.0595	882964	keystroke_a	a	n/a
441.6015	0.1505	883203	keystroke_i	i	n/a
441.692	0.135	883384	keystroke_m	m	n/a
441.947	0.0745	883894	keystroke_Key.enter	Key.enter	n/a
442.0365	5.6865	884073	prompt	n/a	points senator language classics\n
442.8175	0.0895	885635	keystroke_p	p	n/a
442.997	0.089	885994	keystroke_o	o	n/a
443.192	0.15	886384	keystroke_i	i	n/a
443.2825	0.1345	886565	keystroke_n	n	n/a
443.357	0.075	886714	keystroke_t	t	n/a
443.567	0.09	887134	keystroke_s	s	n/a
443.687	0.0745	887374	keystroke_Key.space	Key.space	n/a
444.062	0.09	888124	keystroke_s	s	n/a
444.2275	0.0895	888455	keystroke_e	e	n/a
444.332	0.0755	888664	keystroke_n	n	n/a
444.467	0.06	888934	keystroke_a	a	n/a
444.722	0.06	889444	keystroke_t	t	n/a
444.856	0.09	889712	keystroke_o	o	n/a
444.931	0.076	889862	keystroke_r	r	n/a
445.037	0.09	890074	keystroke_Key.space	Key.space	n/a
445.2175	0.06	890435	keystroke_l	l	n/a
445.322	0.0755	890644	keystroke_a	a	n/a
445.4565	0.0755	890913	keystroke_n	n	n/a
445.682	0.0745	891364	keystroke_g	g	n/a
445.8765	0.06	891753	keystroke_u	u	n/a
446.0265	0.0905	892053	keystroke_a	a	n/a
446.1015	0.0605	892203	keystroke_g	g	n/a
446.2665	0.0755	892533	keystroke_e	e	n/a
446.357	0.0895	892714	keystroke_Key.space	Key.space	n/a
446.5065	0.0755	893013	keystroke_c	c	n/a
446.597	0.09	893194	keystroke_l	l	n/a
446.7615	0.0605	893523	keystroke_a	a	n/a
446.957	0.0445	893914	keystroke_s	s	n/a
447.1075	0.075	894215	keystroke_s	s	n/a
447.1965	0.075	894393	keystroke_i	i	n/a
447.332	0.0755	894664	keystroke_c	c	n/a
447.5265	0.046	895053	keystroke_s	s	n/a
447.6765	0.045	895353	keystroke_Key.enter	Key.enter	n/a
447.7265	7.7965	895453	prompt	n/a	operating translations gone reflects\n
448.562	0.06	897124	keystroke_o	o	n/a
448.712	0.075	897424	keystroke_p	p	n/a
448.8175	0.075	897635	keystroke_e	e	n/a
448.9825	0.0895	897965	keystroke_r	r	n/a
449.1915	0.0905	898383	keystroke_a	a	n/a
449.4775	0.045	898955	keystroke_t	t	n/a
449.5815	0.1205	899163	keystroke_i	i	n/a
449.642	0.09	899284	keystroke_n	n	n/a
449.6875	0.0745	899375	keystroke_g	g	n/a
449.837	0.1045	899674	keystroke_Key.space	Key.space	n/a
450.2115	0.0755	900423	keystroke_t	t	n/a
450.392	0.074	900784	keystroke_r	r	n/a
451.022	0.075	902044	keystroke_a	a	n/a
451.1865	0.075	902373	keystroke_n	n	n/a
451.4565	0.091	902913	keystroke_s	s	n/a
451.6815	0.075	903363	keystroke_l	l	n/a
451.787	0.09	903574	keystroke_a	a	n/a
452.0575	0.075	904115	keystroke_t	t	n/a
452.177	0.0895	904354	keystroke_i	i	n/a
452.3575	0.1495	904715	keystroke_o	o	n/a
452.447	0.1345	904894	keystroke_n	n	n/a
452.6115	0.1195	905223	keystroke_s	s	n/a
452.761	0.091	905522	keystroke_Key.space	Key.space	n/a
453.2425	0.089	906485	keystroke_g	g	n/a
453.3615	0.165	906723	keystroke_o	o	n/a
453.4515	0.136	906903	keystroke_n	n	n/a
453.5115	0.09	907023	keystroke_e	e	n/a
453.677	0.1495	907354	keystroke_Key.space	Key.space	n/a
453.857	0.09	907714	keystroke_r	r	n/a
454.0365	0.0905	908073	keystroke_e	e	n/a
454.2315	0.0905	908463	keystroke_f	f	n/a
454.337	0.06	908674	keystroke_l	l	n/a
454.427	0.075	908854	keystroke_e	e	n/a
454.5925	0.09	909185	keystroke_c	c	n/a
454.7415	0.046	909483	keystroke_t	t	n/a
454.8465	0.076	909693	keystroke_s	s	n/a
455.4615	0.06	910923	keystroke_Key.enter	Key.enter	n/a
455.531	10.2675	911062	prompt	n/a	vocals should've worse beads\n
456.452	0.075	912904	keystroke_v	v	n/a
456.542	0.075	913084	keystroke_o	o	n/a
456.647	0.075	913294	keystroke_c	c	n/a
456.902	0.06	913804	keystroke_a	a	n/a
457.021	0.06	914042	keystroke_l	l	n/a
457.1565	0.1205	914313	keystroke_Key.space	Key.space	n/a
457.306	0.0905	914612	keystroke_s	s	n/a
457.427	0.09	914854	keystroke_h	h	n/a
457.6515	0.075	915303	keystroke_o	o	n/a
457.8315	0.075	915663	keystroke_u	u	n/a
458.0565	0.06	916113	keystroke_l	l	n/a
458.507	0.045	917014	keystroke_d	d	n/a
458.687	0.06	917374	keystroke_'	'	n/a
459.047	0.06	918094	keystroke_v	v	n/a
459.1675	0.0745	918335	keystroke_e	e	n/a
459.302	0.09	918604	keystroke_Key.space	Key.space	n/a
460.142	0.09	920284	keystroke_w	w	n/a
460.262	0.0745	920524	keystroke_o	o	n/a
460.381	0.06	920762	keystroke_r	r	n/a
460.397	0.029	920794	keystroke_t	t	n/a
460.6065	0.105	921213	keystroke_s	s	n/a
460.802	0.0755	921604	keystroke_e	e	n/a
460.9515	0.09	921903	keystroke_Key.space	Key.space	n/a
461.2965	0.0605	922593	keystroke_b	b	n/a
461.3715	0.0755	922743	keystroke_e	e	n/a
461.5675	0.075	923135	keystroke_a	a	n/a
461.7925	0.0735	923585	keystroke_d	d	n/a
461.941	0.091	923882	keystroke_s	s	n/a
462.5565	0.06	925113	keystroke_Key.backspace	Key.backspace	n/a
462.6915	0.0905	925383	keystroke_Key.backspace	Key.backspace	n/a
462.8415	0.075	925683	keystroke_Key.backspace	Key.backspace	n/a
463.1865	0.06	926373	keystroke_Key.backspace	Key.backspace	n/a
463.427	0.075	926854	keystroke_Key.backspace	Key.backspace	n/a
463.592	0.06	927184	keystroke_Key.backspace	Key.backspace	n/a
463.7565	0.06	927513	keystroke_Key.backspace	Key.backspace	n/a
463.9065	0.091	927813	keystroke_Key.backspace	Key.backspace	n/a
464.3425	0.0745	928685	keystroke_Key.backspace	Key.backspace	n/a
464.477	0.075	928954	keystroke_s	s	n/a
464.628	0.089	929256	keystroke_e	e	n/a
464.762	0.075	929524	keystroke_Key.space	Key.space	n/a
464.942	0.075	929884	keystroke_b	b	n/a
465.047	0.075	930094	keystroke_e	e	n/a
465.242	0.09	930484	keystroke_a	a	n/a
465.467	0.075	930934	keystroke_d	d	n/a
465.6175	0.09	931235	keystroke_s	s	n/a
465.7365	0.06	931473	keystroke_Key.enter	Key.enter	n/a
465.8115	7.502	931623	prompt	n/a	scenario other oliver listprice\n
466.532	0.0745	933064	keystroke_s	s	n/a
466.772	0.075	933544	keystroke_c	c	n/a
466.9525	0.0745	933905	keystroke_e	e	n/a
467.042	0.0755	934084	keystroke_n	n	n/a
467.207	0.075	934414	keystroke_a	a	n/a
467.432	0.045	934864	keystroke_r	r	n/a
467.537	0.075	935074	keystroke_i	i	n/a
467.672	0.091	935344	keystroke_o	o	n/a
467.822	0.1195	935644	keystroke_Key.space	Key.space	n/a
468.016	0.091	936032	keystroke_o	o	n/a
468.182	0.075	936364	keystroke_t	t	n/a
468.272	0.09	936544	keystroke_h	h	n/a
468.407	0.0755	936814	keystroke_e	e	n/a
468.572	0.075	937144	keystroke_r	r	n/a
468.677	0.089	937354	keystroke_Key.space	Key.space	n/a
470.3115	0.076	940623	keystroke_o	o	n/a
470.477	0.0895	940954	keystroke_l	l	n/a
470.687	0.0745	941374	keystroke_i	i	n/a
470.9415	0.0605	941883	keystroke_v	v	n/a
471.062	0.075	942124	keystroke_e	e	n/a
471.226	0.1055	942452	keystroke_r	r	n/a
471.347	0.075	942694	keystroke_Key.space	Key.space	n/a
471.7665	0.0605	943533	keystroke_l	l	n/a
472.022	0.104	944044	keystroke_i	i	n/a
472.202	0.0755	944404	keystroke_s	s	n/a
472.4415	0.0755	944883	keystroke_t	t	n/a
472.5325	0.075	945065	keystroke_p	p	n/a
472.652	0.075	945304	keystroke_r	r	n/a
472.7565	0.0905	945513	keystroke_i	i	n/a
472.8615	0.091	945723	keystroke_c	c	n/a
473.072	0.0745	946144	keystroke_e	e	n/a
473.2365	0.075	946473	keystroke_Key.enter	Key.enter	n/a
473.3185	7.7795	946637	prompt	n/a	catalogs fountain tissue fiscal\n
474.2425	0.075	948485	keystroke_c	c	n/a
474.3315	0.075	948663	keystroke_a	a	n/a
474.452	0.0755	948904	keystroke_t	t	n/a
474.542	0.075	949084	keystroke_a	a	n/a
474.737	0.0745	949474	keystroke_l	l	n/a
475.127	0.09	950254	keystroke_o	o	n/a
475.3965	0.046	950793	keystroke_g	g	n/a
475.4115	0.015	950823	keystroke_f	f	n/a
475.5315	0.075	951063	keystroke_s	s	n/a
475.6665	0.1355	951333	keystroke_Key.space	Key.space	n/a
476.027	0.06	952054	keystroke_Key.backspace	Key.backspace	n/a
476.162	0.06	952324	keystroke_Key.backspace	Key.backspace	n/a
476.297	0.09	952594	keystroke_Key.backspace	Key.backspace	n/a
476.658	0.074	953316	keystroke_s	s	n/a
476.747	0.09	953494	keystroke_Key.space	Key.space	n/a
477.002	0.0745	954004	keystroke_c	c	n/a
477.317	0.09	954634	keystroke_Key.backspace	Key.backspace	n/a
477.5125	0.074	955025	keystroke_f	f	n/a
477.6165	0.075	955233	keystroke_o	o	n/a
477.8115	0.121	955623	keystroke_u	u	n/a
477.902	0.1345	955804	keystroke_n	n	n/a
478.022	0.0745	956044	keystroke_t	t	n/a
478.306	0.091	956612	keystroke_a	a	n/a
478.382	0.1355	956764	keystroke_i	i	n/a
478.4425	0.0895	956885	keystroke_n	n	n/a
478.606	0.121	957212	keystroke_Key.space	Key.space	n/a
478.7865	0.0745	957573	keystroke_t	t	n/a
478.8915	0.09	957783	keystroke_i	i	n/a
479.0265	0.0605	958053	keystroke_s	s	n/a
479.192	0.1045	958384	keystroke_s	s	n/a
479.447	0.0905	958894	keystroke_u	u	n/a
479.567	0.06	959134	keystroke_e	e	n/a
479.672	0.09	959344	keystroke_Key.space	Key.space	n/a
480.047	0.075	960094	keystroke_f	f	n/a
480.182	0.074	960364	keystroke_i	i	n/a
480.317	0.0605	960634	keystroke_s	s	n/a
480.512	0.0595	961024	keystroke_c	c	n/a
480.7215	0.075	961443	keystroke_a	a	n/a
480.8425	0.1045	961685	keystroke_l	l	n/a
481.022	0.0745	962044	keystroke_Key.enter	Key.enter	n/a
481.105	12.729	962210	prompt	n/a	spouse incl capabilities auburn\n
481.8925	0.06	963785	keystroke_s	s	n/a
481.9675	0.074	963935	keystroke_p	p	n/a
482.1465	0.075	964293	keystroke_o	o	n/a
482.3565	0.0605	964713	keystroke_u	u	n/a
482.4765	0.09	964953	keystroke_s	s	n/a
482.6715	0.075	965343	keystroke_e	e	n/a
482.7765	0.105	965553	keystroke_Key.space	Key.space	n/a
483.122	0.1345	966244	keystroke_i	i	n/a
483.1825	0.1345	966365	keystroke_n	n	n/a
483.302	0.105	966604	keystroke_c	c	n/a
483.5275	0.075	967055	keystroke_l	l	n/a
483.662	0.135	967324	keystroke_Key.space	Key.space	n/a
484.5625	0.075	969125	keystroke_c	c	n/a
484.8775	0.074	969755	keystroke_p	p	n/a
485.042	0.0745	970084	keystroke_a	a	n/a
485.3575	0.0595	970715	keystroke_b	b	n/a
485.477	0.075	970954	keystroke_i	i	n/a
485.642	0.0895	971284	keystroke_l	l	n/a
485.8365	0.06	971673	keystroke_i	i	n/a
485.942	0.0605	971884	keystroke_t	t	n/a
486.032	0.075	972064	keystroke_i	i	n/a
486.151	0.091	972302	keystroke_e	e	n/a
486.347	0.075	972694	keystroke_s	s	n/a
486.467	0.075	972934	keystroke_Key.space	Key.space	n/a
488.6275	0.0745	977255	keystroke_Key.backspace	Key.backspace	n/a
489.3465	0.0755	978693	keystroke_a	a	n/a
489.4665	0.0605	978933	keystroke_p	p	n/a
489.617	0.06	979234	keystroke_a	a	n/a
489.737	0.09	979474	keystroke_b	b	n/a
490.007	0.075	980014	keystroke_i	i	n/a
490.1725	0.059	980345	keystroke_l	l	n/a
490.3375	0.0595	980675	keystroke_i	i	n/a
490.4275	0.0745	980855	keystroke_t	t	n/a
490.5165	0.0755	981033	keystroke_i	i	n/a
490.622	0.09	981244	keystroke_e	e	n/a
490.8025	0.09	981605	keystroke_s	s	n/a
490.9065	0.09	981813	keystroke_Key.space	Key.space	n/a
491.0275	0.0895	982055	keystroke_a	a	n/a
491.1625	0.0745	982325	keystroke_u	u	n/a
491.327	0.06	982654	keystroke_r	r	n/a
491.567	0.09	983134	keystroke_b	b	n/a
491.732	0.075	983464	keystroke_u	u	n/a
492.0315	0.045	984063	keystroke_Key.backspace	Key.backspace	n/a
492.1815	0.0605	984363	keystroke_Key.backspace	Key.backspace	n/a
492.347	0.06	984694	keystroke_Key.backspace	Key.backspace	n/a
493.052	0.075	986104	keystroke_b	b	n/a
493.187	0.075	986374	keystroke_u	u	n/a
493.292	0.0455	986584	keystroke_r	r	n/a
493.397	0.0905	986794	keystroke_n	n	n/a
493.772	0.059	987544	keystroke_Key.enter	Key.enter	n/a
493.848	8.7455	987696	prompt	n/a	meyer yellow popularity fraction\n
494.5975	0.0895	989195	keystroke_m	m	n/a
494.7615	0.0605	989523	keystroke_e	e	n/a
494.8815	0.06	989763	keystroke_y	y	n/a
495.0015	0.075	990003	keystroke_e	e	n/a
495.197	0.0605	990394	keystroke_r	r	n/a
495.3015	0.09	990603	keystroke_Key.space	Key.space	n/a
495.5425	0.104	991085	keystroke_y	y	n/a
495.6765	0.0605	991353	keystroke_e	e	n/a
495.797	0.06	991594	keystroke_l	l	n/a
495.962	0.075	991924	keystroke_l	l	n/a
496.112	0.09	992224	keystroke_o	o	n/a
496.232	0.075	992464	keystroke_w	w	n/a
496.321	0.091	992642	keystroke_Key.space	Key.space	n/a
496.7115	0.0755	993423	keystroke_o	o	n/a
496.921	0.045	993842	keystroke_p	p	n/a
497.2065	0.0605	994413	keystroke_Key.backspace	Key.backspace	n/a
497.4465	0.0145	994893	keystroke_Key.backspace	Key.backspace	n/a
498.1075	0.06	996215	keystroke_p	p	n/a
498.2715	0.06	996543	keystroke_o	o	n/a
498.422	0.0745	996844	keystroke_p	p	n/a
498.6625	0.075	997325	keystroke_u	u	n/a
498.8575	0.059	997715	keystroke_l	l	n/a
499.0365	0.046	998073	keystroke_a	a	n/a
499.2315	0.076	998463	keystroke_r	r	n/a
499.3365	0.076	998673	keystroke_i	i	n/a
499.4725	0.03	998945	keystroke_t	t	n/a
499.5765	0.0755	999153	keystroke_y	y	n/a
499.712	0.12	999424	keystroke_Key.space	Key.space	n/a
500.882	0.06	1001764	keystroke_f	f	n/a
501.032	0.06	1002064	keystroke_r	r	n/a
501.1225	0.074	1002245	keystroke_a	a	n/a
501.3315	0.076	1002663	keystroke_c	c	n/a
501.5865	0.0455	1003173	keystroke_t	t	n/a
501.647	0.0745	1003294	keystroke_i	i	n/a
501.812	0.135	1003624	keystroke_o	o	n/a
501.8725	0.1495	1003745	keystroke_n	n	n/a
502.547	0.0445	1005094	keystroke_Key.enter	Key.enter	n/a
502.601	4.088	1005202	prompt	n/a	healing msie throw made\n
503.4025	0.075	1006805	keystroke_h	h	n/a
503.4915	0.09	1006983	keystroke_e	e	n/a
503.6875	0.0745	1007375	keystroke_a	a	n/a
503.792	0.06	1007584	keystroke_l	l	n/a
503.972	0.1345	1007944	keystroke_i	i	n/a
504.062	0.1055	1008124	keystroke_n	n	n/a
504.122	0.0745	1008244	keystroke_g	g	n/a
504.2715	0.09	1008543	keystroke_Key.space	Key.space	n/a
504.437	0.105	1008874	keystroke_m	m	n/a
504.677	0.0905	1009354	keystroke_s	s	n/a
504.9625	0.0745	1009925	keystroke_i	i	n/a
505.0965	0.09	1010193	keystroke_e	e	n/a
505.2015	0.0905	1010403	keystroke_Key.space	Key.space	n/a
505.3515	0.09	1010703	keystroke_t	t	n/a
505.4415	0.0755	1010883	keystroke_h	h	n/a
505.5465	0.0755	1011093	keystroke_r	r	n/a
505.667	0.0745	1011334	keystroke_o	o	n/a
505.7865	0.0605	1011573	keystroke_w	w	n/a
505.8765	0.12	1011753	keystroke_Key.space	Key.space	n/a
505.9675	0.134	1011935	keystroke_m	m	n/a
506.087	0.0745	1012174	keystroke_a	a	n/a
506.327	0.0905	1012654	keystroke_d	d	n/a
506.4915	0.075	1012983	keystroke_e	e	n/a
506.6265	0.0605	1013253	keystroke_Key.enter	Key.enter	n/a
506.693	9.3405	1013386	prompt	n/a	mixer permanent computation visitors\n
507.4365	0.076	1014873	keystroke_m	m	n/a
507.632	0.0595	1015264	keystroke_i	i	n/a
507.7975	0.0745	1015595	keystroke_x	x	n/a
507.992	0.076	1015984	keystroke_e	e	n/a
508.172	0.09	1016344	keystroke_r	r	n/a
508.277	0.0895	1016554	keystroke_Key.space	Key.space	n/a
508.457	0.075	1016914	keystroke_p	p	n/a
509.0565	0.09	1018113	keystroke_e	e	n/a
509.2515	0.061	1018503	keystroke_r	r	n/a
509.3575	0.074	1018715	keystroke_m	m	n/a
509.4915	0.076	1018983	keystroke_a	a	n/a
509.597	0.0745	1019194	keystroke_n	n	n/a
509.7775	0.0595	1019555	keystroke_e	e	n/a
509.8815	0.0755	1019763	keystroke_n	n	n/a
510.047	0.075	1020094	keystroke_t	t	n/a
510.1665	0.09	1020333	keystroke_Key.space	Key.space	n/a
510.6765	0.075	1021353	keystroke_c	c	n/a
510.7975	0.1345	1021595	keystroke_o	o	n/a
510.872	0.1805	1021744	keystroke_m	m	n/a
511.007	0.09	1022014	keystroke_p	p	n/a
511.232	0.0745	1022464	keystroke_u	u	n/a
511.3365	0.075	1022673	keystroke_t	t	n/a
511.5615	0.0905	1023123	keystroke_a	a	n/a
511.802	0.0755	1023604	keystroke_t	t	n/a
511.892	0.0895	1023784	keystroke_i	i	n/a
512.0575	0.164	1024115	keystroke_o	o	n/a
512.1325	0.1345	1024265	keystroke_n	n	n/a
512.3715	0.105	1024743	keystroke_Key.space	Key.space	n/a
513.002	0.0895	1026004	keystroke_v	v	n/a
513.1515	0.0905	1026303	keystroke_i	i	n/a
513.2565	0.0905	1026513	keystroke_s	s	n/a
513.4515	0.09	1026903	keystroke_i	i	n/a
514.0075	0.1195	1028015	keystroke_t	t	n/a
514.142	0.03	1028284	keystroke_o	o	n/a
514.3515	0.0155	1028703	keystroke_r	r	n/a
514.952	0.09	1029904	keystroke_s	s	n/a
515.9415	0.0905	1031883	keystroke_Key.enter	Key.enter	n/a
516.037	7.811	1032074	prompt	n/a	office restore physician mods\n
516.797	0.0605	1033594	keystroke_o	o	n/a
516.9325	0.0895	1033865	keystroke_f	f	n/a
517.112	0.09	1034224	keystroke_f	f	n/a
517.307	0.089	1034614	keystroke_i	i	n/a
517.367	0.0745	1034734	keystroke_c	c	n/a
517.546	0.076	1035092	keystroke_e	e	n/a
