onset	duration	sample	value	key	prompt_text
1.287	11.626	2574	prompt	n/a	the quick brown fox jumps over a lazy dog\n
5.2065	0.088	10413	keystroke_t	t	n/a
5.6945	0.104	11389	keystroke_h	h	n/a
5.8305	0.08	11661	keystroke_e	e	n/a
5.9425	0.112	11885	keystroke_Key.space	Key.space	n/a
6.1985	0.112	12397	keystroke_q	q	n/a
6.3665	0.136	12733	keystroke_u	u	n/a
6.4545	0.088	12909	keystroke_i	i	n/a
6.6225	0.08	13245	keystroke_c	c	n/a
6.7345	0.072	13469	keystroke_k	k	n/a
6.8545	0.096	13709	keystroke_Key.space	Key.space	n/a
7.2065	0.096	14413	keystroke_b	b	n/a
7.3345	0.12	14669	keystroke_r	r	n/a
7.4625	0.096	14925	keystroke_o	o	n/a
7.5985	0.08	15197	keystroke_w	w	n/a
7.7185	0.096	15437	keystroke_n	n	n/a
7.8625	0.096	15725	keystroke_Key.space	Key.space	n/a
8.0865	0.096	16173	keystroke_f	f	n/a
8.3025	0.048	16605	keystroke_o	o	n/a
8.519	0.056	17038	keystroke_x	x	n/a
8.719	0.096	17438	keystroke_Key.space	Key.space	n/a
8.935	0.096	17870	keystroke_j	j	n/a
9.111	0.064	18222	keystroke_u	u	n/a
9.399	0.104	18798	keystroke_p	p	n/a
9.895	0.08	19790	keystroke_Key.backspace	Key.backspace	n/a
10.2385	0.144	20477	keystroke_m	m	n/a
10.3505	0.088	20701	keystroke_p	p	n/a
10.5025	0.073	21005	keystroke_s	s	n/a
10.6305	0.096	21261	keystroke_Key.space	Key.space	n/a
10.8225	0.056	21645	keystroke_o	o	n/a
10.9265	0.096	21853	keystroke_v	v	n/a
11.1265	0.136	22253	keystroke_e	e	n/a
11.1905	0.12	22381	keystroke_r	r	n/a
11.3025	0.088	22605	keystroke_Key.space	Key.space	n/a
11.4465	0.08	22893	keystroke_a	a	n/a
11.5185	0.1125	23037	keystroke_Key.space	Key.space	n/a
11.679	0.088	23358	keystroke_l	l	n/a
11.775	0.072	23550	keystroke_a	a	n/a
11.951	0.088	23902	keystroke_z	z	n/a
12.183	0.096	24366	keystroke_y	y	n/a
12.335	0.112	24670	keystroke_Key.space	Key.space	n/a
12.455	0.08	24910	keystroke_d	d	n/a
12.559	0.0875	25118	keystroke_o	o	n/a
12.6945	0.072	25389	keystroke_g	g	n/a
12.8305	0.08	25661	keystroke_Key.enter	Key.enter	n/a
12.917	8.7395	25834	prompt	n/a	agents thoroughly considers neighborhood\n
13.6385	0.08	27277	keystroke_a	a	n/a
13.7905	0.104	27581	keystroke_g	g	n/a
13.9595	0.071	27919	keystroke_e	e	n/a
14.0555	0.0955	28111	keystroke_n	n	n/a
14.159	0.128	28318	keystroke_t	t	n/a
14.239	0.096	28478	keystroke_s	s	n/a
14.359	0.104	28718	keystroke_Key.space	Key.space	n/a
14.463	0.096	28926	keystroke_t	t	n/a
14.559	0.096	29118	keystroke_h	h	n/a
14.727	0.096	29454	keystroke_o	o	n/a
14.903	0.072	29806	keystroke_r	r	n/a
15.359	0.1685	30718	keystroke_o	o	n/a
15.4635	0.096	30927	keystroke_u	u	n/a
15.5915	0.072	31183	keystroke_g	g	n/a
15.6875	0.088	31375	keystroke_h	h	n/a
15.8465	0.073	31693	keystroke_l	l	n/a
16.055	0.0875	32110	keystroke_y	y	n/a
16.1825	0.104	32365	keystroke_Key.space	Key.space	n/a
16.3745	0.088	32749	keystroke_a	a	n/a
16.7505	0.072	33501	keystroke_Key.backspace	Key.backspace	n/a
16.8545	0.096	33709	keystroke_c	c	n/a
16.9915	0.056	33983	keystroke_o	o	n/a
17.1665	0.073	34333	keystroke_n	n	n/a
17.2625	0.081	34525	keystroke_s	s	n/a
17.4635	0.08	34927	keystroke_i	i	n/a
17.5755	0.079	35151	keystroke_d	d	n/a
17.7905	0.128	35581	keystroke_e	e	n/a
17.9025	0.088	35805	keystroke_r	r	n/a
18.1665	0.088	36333	keystroke_s	s	n/a
18.3345	0.08	36669	keystroke_Key.space	Key.space	n/a
18.7915	0.08	37583	keystroke_n	n	n/a
18.8875	0.072	37775	keystroke_e	e	n/a
19.0235	0.087	38047	keystroke_i	i	n/a
19.6315	0.072	39263	keystroke_g	g	n/a
19.7835	0.072	39567	keystroke_h	h	n/a
20.0795	0.0715	40159	keystroke_b	b	n/a
20.2705	0.056	40541	keystroke_o	o	n/a
20.3905	0.072	40781	keystroke_r	r	n/a
20.6865	0.08	41373	keystroke_h	h	n/a
20.8945	0.056	41789	keystroke_o	o	n/a
21.0555	0.08	42111	keystroke_o	o	n/a
21.2065	0.136	42413	keystroke_d	d	n/a
21.2635	0.111	42527	keystroke_s	s	n/a
21.5905	0.064	43181	keystroke_Key.enter	Key.enter	n/a
21.6595	7.0055	43319	prompt	n/a	supervisors dispatched volt knights\n
22.263	0.104	44526	keystroke_s	s	n/a
22.463	0.088	44926	keystroke_u	u	n/a
22.6625	0.08	45325	keystroke_p	p	n/a
22.8385	0.136	45677	keystroke_e	e	n/a
22.9185	0.072	45837	keystroke_r	r	n/a
23.1505	0.112	46301	keystroke_v	v	n/a
23.2705	0.072	46541	keystroke_i	i	n/a
23.391	0.104	46782	keystroke_s	s	n/a
23.511	0.072	47022	keystroke_o	o	n/a
23.639	0.072	47278	keystroke_r	r	n/a
23.823	0.088	47646	keystroke_s	s	n/a
23.975	0.072	47950	keystroke_Key.space	Key.space	n/a
24.2635	0.032	48527	keystroke_d	d	n/a
24.4225	0.113	48845	keystroke_i	i	n/a
24.6395	0.064	49279	keystroke_s	s	n/a
24.8235	0.056	49647	keystroke_p	p	n/a
25.0705	0.137	50141	keystroke_a	a	n/a
25.2875	0.064	50575	keystroke_t	t	n/a
25.639	0.1195	51278	keystroke_c	c	n/a
25.7825	0.096	51565	keystroke_h	h	n/a
25.9025	0.04	51805	keystroke_e	e	n/a
26.0785	0.088	52157	keystroke_d	d	n/a
26.2385	0.104	52477	keystroke_Key.space	Key.space	n/a
26.5835	0.088	53167	keystroke_v	v	n/a
26.6715	0.08	53343	keystroke_o	o	n/a
26.8715	0.079	53743	keystroke_l	l	n/a
26.9755	0.095	53951	keystroke_t	t	n/a
27.0945	0.088	54189	keystroke_Key.space	Key.space	n/a
27.2315	0.055	54463	keystroke_k	k	n/a
27.4235	0.184	54847	keystroke_n	n	n/a
27.5825	0.0805	55165	keystroke_i	i	n/a
27.7825	0.112	55565	keystroke_g	g	n/a
27.9585	0.08	55917	keystroke_h	h	n/a
28.1185	0.1605	56237	keystroke_t	t	n/a
28.215	0.104	56430	keystroke_s	s	n/a
28.543	0.12	57086	keystroke_Key.enter	Key.enter	n/a
28.668	6.9005	57336	prompt	n/a	catch maps cult underground\n
30.912	0.104	61824	keystroke_c	c	n/a
31.112	0.112	62224	keystroke_a	a	n/a
31.192	0.072	62384	keystroke_t	t	n/a
31.376	0.112	62752	keystroke_c	c	n/a
31.576	0.08	63152	keystroke_h	h	n/a
31.695	0.097	63390	keystroke_Key.space	Key.space	n/a
31.92	0.096	63840	keystroke_m	m	n/a
32.079	0.097	64158	keystroke_a	a	n/a
32.207	0.089	64414	keystroke_p	p	n/a
32.351	0.089	64702	keystroke_s	s	n/a
32.496	0.095	64992	keystroke_Key.space	Key.space	n/a
32.7825	0.12	65565	keystroke_c	c	n/a
32.9505	0.072	65901	keystroke_u	u	n/a
33.1505	0.064	66301	keystroke_l	l	n/a
33.2785	0.08	66557	keystroke_t	t	n/a
33.399	0.064	66798	keystroke_Key.space	Key.space	n/a
33.599	0.048	67198	keystroke_u	u	n/a
33.823	0.104	67646	keystroke_n	n	n/a
33.951	0.088	67902	keystroke_d	d	n/a
34.167	0.144	68334	keystroke_e	e	n/a
34.215	0.12	68430	keystroke_r	r	n/a
34.495	0.096	68990	keystroke_g	g	n/a
34.687	0.088	69374	keystroke_r	r	n/a
34.815	0.144	69630	keystroke_o	o	n/a
34.879	0.088	69758	keystroke_u	u	n/a
35.087	0.096	70174	keystroke_n	n	n/a
35.207	0.096	70414	keystroke_d	d	n/a
35.471	0.096	70942	keystroke_Key.enter	Key.enter	n/a
35.572	12.6795	71144	prompt	n/a	reveals amanda simultaneously permissions\n
36.279	0.056	72558	keystroke_n	n	n/a
36.5745	0.064	73149	keystroke_Key.backspace	Key.backspace	n/a
36.6625	0.112	73325	keystroke_r	r	n/a
36.7265	0.072	73453	keystroke_e	e	n/a
36.9105	0.112	73821	keystroke_v	v	n/a
37.0945	0.088	74189	keystroke_e	e	n/a
37.4065	0.072	74813	keystroke_l	l	n/a
37.911	0.072	75822	keystroke_Key.backspace	Key.backspace	n/a
38.023	0.112	76046	keystroke_a	a	n/a
38.183	0.0795	76366	keystroke_l	l	n/a
38.3105	0.089	76621	keystroke_s	s	n/a
38.4385	0.104	76877	keystroke_Key.space	Key.space	n/a
38.6385	0.088	77277	keystroke_a	a	n/a
38.7425	0.088	77485	keystroke_m	m	n/a
38.8945	0.056	77789	keystroke_a	a	n/a
38.9825	0.088	77965	keystroke_n	n	n/a
39.1025	0.088	78205	keystroke_d	d	n/a
39.3025	0.096	78605	keystroke_a	a	n/a
39.4145	0.096	78829	keystroke_Key.space	Key.space	n/a
39.9595	0.087	79919	keystroke_s	s	n/a
40.455	0.088	80910	keystroke_i	i	n/a
41.263	0.072	82526	keystroke_m	m	n/a
41.5985	0.08	83197	keystroke_u	u	n/a
41.8225	0.088	83645	keystroke_l	l	n/a
41.9985	0.096	83997	keystroke_t	t	n/a
42.247	0.112	84494	keystroke_a	a	n/a
42.631	0.1115	85262	keystroke_n	n	n/a
42.9825	0.072	85965	keystroke_e	e	n/a
43.415	0.2	86830	keystroke_o	o	n/a
43.607	0.056	87214	keystroke_u	u	n/a
44.4305	0.112	88861	keystroke_s	s	n/a
44.8385	0.096	89677	keystroke_l	l	n/a
45.0715	0.087	90143	keystroke_y	y	n/a
45.2545	0.104	90509	keystroke_Key.space	Key.space	n/a
46.0945	0.08	92189	keystroke_p	p	n/a
46.263	0.272	92526	keystroke_e	e	n/a
46.487	0.1515	92974	keystroke_r	r	n/a
46.9345	0.08	93869	keystroke_m	m	n/a
47.1265	0.072	94253	keystroke_i	i	n/a
47.2225	0.072	94445	keystroke_s	s	n/a
47.3905	0.096	94781	keystroke_s	s	n/a
47.4625	0.168	94925	keystroke_i	i	n/a
47.5825	0.104	95165	keystroke_o	o	n/a
47.7505	0.089	95501	keystroke_n	n	n/a
47.8465	0.08	95693	keystroke_s	s	n/a
48.1585	0.088	96317	keystroke_Key.enter	Key.enter	n/a
48.255	8.8615	96510	prompt	n/a	margin petroleum mechanical simon\n
48.8875	0.079	97775	keystroke_n	n	n/a
49.0385	0.096	98077	keystroke_a	a	n/a
49.1505	0.112	98301	keystroke_g	g	n/a
49.3425	0.08	98685	keystroke_u	u	n/a
49.5185	0.112	99037	keystroke_b	b	n/a
49.9185	0.08	99837	keystroke_Key.backspace	Key.backspace	n/a
50.1105	0.048	100221	keystroke_Key.backspace	Key.backspace	n/a
50.2785	0.073	100557	keystroke_Key.backspace	Key.backspace	n/a
50.4545	0.064	100909	keystroke_Key.backspace	Key.backspace	n/a
50.6145	0.072	101229	keystroke_Key.backspace	Key.backspace	n/a
50.7665	0.088	101533	keystroke_Key.backspace	Key.backspace	n/a
50.9505	0.056	101901	keystroke_Key.backspace	Key.backspace	n/a
51.0865	0.072	102173	keystroke_Key.backspace	Key.backspace	n/a
51.3825	0.088	102765	keystroke_m	m	n/a
51.559	0.12	103118	keystroke_a	a	n/a
51.647	0.096	103294	keystroke_r	r	n/a
51.847	0.088	103694	keystroke_g	g	n/a
51.951	0.072	103902	keystroke_i	i	n/a
52.127	0.112	104254	keystroke_n	n	n/a
52.255	0.1115	104510	keystroke_Key.space	Key.space	n/a
52.4385	0.088	104877	keystroke_p	p	n/a
52.5585	0.072	105117	keystroke_e	e	n/a
52.751	0.072	105502	keystroke_t	t	n/a
52.903	0.088	105806	keystroke_r	r	n/a
53.007	0.08	106014	keystroke_o	o	n/a
53.175	0.088	106350	keystroke_l	l	n/a
53.4065	0.072	106813	keystroke_e	e	n/a
53.6225	0.072	107245	keystroke_u	u	n/a
53.8385	0.072	107677	keystroke_m	m	n/a
54.0225	0.088	108045	keystroke_Key.space	Key.space	n/a
54.5345	0.088	109069	keystroke_m	m	n/a
54.6545	0.08	109309	keystroke_e	e	n/a
54.8865	0.104	109773	keystroke_c	c	n/a
55.0785	0.072	110157	keystroke_h	h	n/a
55.2145	0.096	110429	keystroke_a	a	n/a
55.3265	0.056	110653	keystroke_n	n	n/a
55.4945	0.072	110989	keystroke_i	i	n/a
55.5905	0.0965	111181	keystroke_c	c	n/a
55.743	0.1195	111486	keystroke_a	a	n/a
55.8545	0.08	111709	keystroke_l	l	n/a
56.0225	0.08	112045	keystroke_Key.space	Key.space	n/a
56.2305	0.0885	112461	keystroke_s	s	n/a
56.375	0.072	112750	keystroke_i	i	n/a
56.5585	0.104	113117	keystroke_m	m	n/a
56.6785	0.088	113357	keystroke_o	o	n/a
56.8465	0.064	113693	keystroke_n	n	n/a
57.0225	0.088	114045	keystroke_Key.enter	Key.enter	n/a
57.12	6.752	114240	prompt	n/a	university television issn cnet\n
57.7505	0.064	115501	keystroke_u	u	n/a
57.9425	0.064	115885	keystroke_n	n	n/a
58.1025	0.08	116205	keystroke_i	i	n/a
58.1905	0.072	116381	keystroke_v	v	n/a
58.358	0.121	116716	keystroke_e	e	n/a
58.439	0.096	116878	keystroke_r	r	n/a
58.583	0.096	117166	keystroke_s	s	n/a
58.727	0.072	117454	keystroke_i	i	n/a
58.847	0.08	117694	keystroke_t	t	n/a
59.023	0.096	118046	keystroke_y	y	n/a
59.167	0.088	118334	keystroke_Key.space	Key.space	n/a
59.415	0.08	118830	keystroke_e	e	n/a
59.623	0.12	119246	keystroke_t	t	n/a
59.982	0.073	119964	keystroke_Key.backspace	Key.backspace	n/a
60.143	0.064	120286	keystroke_Key.backspace	Key.backspace	n/a
60.191	0.127	120382	keystroke_t	t	n/a
60.263	0.071	120526	keystroke_e	e	n/a
60.398	0.08	120796	keystroke_l	l	n/a
60.527	0.071	121054	keystroke_e	e	n/a
60.718	0.097	121436	keystroke_v	v	n/a
60.927	0.071	121854	keystroke_i	i	n/a
61.046	0.089	122092	keystroke_s	s	n/a
61.15	0.16	122300	keystroke_i	i	n/a
61.238	0.112	122476	keystroke_o	o	n/a
61.414	0.08	122828	keystroke_n	n	n/a
61.6305	0.0965	123261	keystroke_Key.space	Key.space	n/a
62.127	0.064	124254	keystroke_i	i	n/a
62.231	0.056	124462	keystroke_s	s	n/a
62.358	0.08	124716	keystroke_s	s	n/a
62.502	0.08	125004	keystroke_n	n	n/a
62.63	0.1045	125260	keystroke_Key.space	Key.space	n/a
63.1585	0.096	126317	keystroke_c	c	n/a
63.3505	0.0795	126701	keystroke_n	n	n/a
63.454	0.072	126908	keystroke_e	e	n/a
63.622	0.072	127244	keystroke_t	t	n/a
63.791	0.08	127582	keystroke_Key.enter	Key.enter	n/a
63.8765	8.803	127753	prompt	n/a	organizations lonely theatre cottage\n
64.5425	0.08	129085	keystroke_o	o	n/a
64.6545	0.064	129309	keystroke_r	r	n/a
64.8225	0.088	129645	keystroke_g	g	n/a
64.9505	0.096	129901	keystroke_a	a	n/a
65.0545	0.056	130109	keystroke_n	n	n/a
65.2145	0.072	130429	keystroke_i	i	n/a
65.6305	0.112	131261	keystroke_z	z	n/a
65.878	0.088	131756	keystroke_a	a	n/a
66.006	0.104	132012	keystroke_t	t	n/a
66.118	0.1125	132236	keystroke_i	i	n/a
66.198	0.088	132396	keystroke_o	o	n/a
66.4065	0.088	132813	keystroke_n	n	n/a
66.5185	0.0555	133037	keystroke_s	s	n/a
67.35	0.088	134700	keystroke_Key.space	Key.space	n/a
67.543	0.055	135086	keystroke_l	l	n/a
67.7105	0.056	135421	keystroke_o	o	n/a
67.8865	0.096	135773	keystroke_n	n	n/a
68.0465	0.064	136093	keystroke_e	e	n/a
68.2145	0.072	136429	keystroke_l	l	n/a
68.4225	0.08	136845	keystroke_y	y	n/a
68.6065	0.096	137213	keystroke_Key.space	Key.space	n/a
68.9745	0.104	137949	keystroke_t	t	n/a
69.1345	0.088	138269	keystroke_h	h	n/a
69.2065	0.08	138413	keystroke_e	e	n/a
69.4865	0.08	138973	keystroke_a	a	n/a
69.7105	0.096	139421	keystroke_t	t	n/a
70.0145	0.128	140029	keystroke_r	r	n/a
70.0945	0.08	140189	keystroke_e	e	n/a
70.782	0.104	141564	keystroke_Key.space	Key.space	n/a
70.958	0.096	141916	keystroke_c	c	n/a
71.118	0.08	142236	keystroke_o	o	n/a
71.431	0.055	142862	keystroke_t	t	n/a
71.5905	0.096	143181	keystroke_t	t	n/a
71.7345	0.12	143469	keystroke_a	a	n/a
72.1505	0.088	144301	keystroke_g	g	n/a
72.3905	0.072	144781	keystroke_e	e	n/a
72.6055	0.073	145211	keystroke_Key.enter	Key.enter	n/a
72.683	6.8365	145366	prompt	n/a	continent invoice dennis loved\n
73.3185	0.0955	146637	keystroke_c	c	n/a
73.43	0.056	146860	keystroke_o	o	n/a
73.566	0.088	147132	keystroke_n	n	n/a
73.71	0.056	147420	keystroke_t	t	n/a
73.814	0.056	147628	keystroke_i	i	n/a
74.214	0.096	148428	keystroke_n	n	n/a
74.398	0.08	148796	keystroke_e	e	n/a
74.566	0.088	149132	keystroke_n	n	n/a
74.702	0.08	149404	keystroke_t	t	n/a
74.862	0.112	149724	keystroke_Key.space	Key.space	n/a
75.334	0.056	150668	keystroke_i	i	n/a
75.486	0.096	150972	keystroke_n	n	n/a
75.622	0.08	151244	keystroke_v	v	n/a
75.718	0.161	151436	keystroke_o	o	n/a
75.774	0.105	151548	keystroke_i	i	n/a
75.855	0.111	151710	keystroke_c	c	n/a
75.926	0.081	151852	keystroke_e	e	n/a
76.102	0.088	152204	keystroke_Key.space	Key.space	n/a
76.7025	0.08	153405	keystroke_d	d	n/a
76.8785	0.072	153757	keystroke_e	e	n/a
77.014	0.056	154028	keystroke_n	n	n/a
77.374	0.056	154748	keystroke_i	i	n/a
77.566	0.032	155132	keystroke_i	i	n/a
77.8375	0.048	155675	keystroke_Key.backspace	Key.backspace	n/a
77.99	0.0635	155980	keystroke_Key.backspace	Key.backspace	n/a
78.2145	0.056	156429	keystroke_n	n	n/a
78.3665	0.08	156733	keystroke_i	i	n/a
78.4625	0.08	156925	keystroke_s	s	n/a
78.5745	0.12	157149	keystroke_Key.space	Key.space	n/a
78.7025	0.072	157405	keystroke_l	l	n/a
78.8625	0.096	157725	keystroke_o	o	n/a
78.9825	0.096	157965	keystroke_v	v	n/a
79.1025	0.064	158205	keystroke_e	e	n/a
79.2705	0.08	158541	keystroke_d	d	n/a
79.4465	0.072	158893	keystroke_Key.enter	Key.enter	n/a
79.5235	7.3	159047	prompt	n/a	monitors wrap envelope curves\n
80.1025	0.056	160205	keystroke_m	m	n/a
80.2545	0.064	160509	keystroke_o	o	n/a
80.43	0.032	160860	keystroke_n	n	n/a
80.558	0.096	161116	keystroke_i	i	n/a
80.726	0.096	161452	keystroke_t	t	n/a
80.862	0.088	161724	keystroke_o	o	n/a
80.966	0.136	161932	keystroke_r	r	n/a
81.07	0.072	162140	keystroke_s	s	n/a
81.246	0.088	162492	keystroke_Key.space	Key.space	n/a
81.702	0.104	163404	keystroke_w	w	n/a
81.878	0.096	163756	keystroke_r	r	n/a
82.047	0.111	164094	keystroke_a	a	n/a
82.159	0.079	164318	keystroke_p	p	n/a
82.302	0.0965	164604	keystroke_Key.space	Key.space	n/a
82.4625	0.072	164925	keystroke_e	e	n/a
82.5825	0.0795	165165	keystroke_n	n	n/a
82.702	0.096	165404	keystroke_v	v	n/a
82.902	0.064	165804	keystroke_e	e	n/a
83.07	0.08	166140	keystroke_l	l	n/a
83.318	0.1845	166636	keystroke_o	o	n/a
83.4465	0.112	166893	keystroke_p	p	n/a
83.6785	0.072	167357	keystroke_e	e	n/a
84.934	0.088	169868	keystroke_Key.space	Key.space	n/a
85.7665	0.104	171533	keystroke_c	c	n/a
85.9255	0.08	171851	keystroke_u	u	n/a
86.0375	0.057	172075	keystroke_r	r	n/a
86.2375	0.096	172475	keystroke_v	v	n/a
86.3815	0.0725	172763	keystroke_e	e	n/a
86.534	0.0885	173068	keystroke_s	s	n/a
86.7345	0.087	173469	keystroke_Key.enter	Key.enter	n/a
86.8295	8.962	173659	prompt	n/a	starter josh pursuit execute\n
87.4305	0.088	174861	keystroke_s	s	n/a
87.6145	0.0715	175229	keystroke_t	t	n/a
87.774	0.12	175548	keystroke_a	a	n/a
87.838	0.104	175676	keystroke_r	r	n/a
88.054	0.088	176108	keystroke_t	t	n/a
88.23	0.12	176460	keystroke_e	e	n/a
88.278	0.1195	176556	keystroke_r	r	n/a
88.382	0.096	176764	keystroke_Key.space	Key.space	n/a
88.542	0.088	177084	keystroke_j	j	n/a
88.758	0.04	177516	keystroke_o	o	n/a
88.998	0.064	177996	keystroke_s	s	n/a
89.262	0.064	178524	keystroke_h	h	n/a
89.374	0.112	178748	keystroke_Key.space	Key.space	n/a
89.5345	0.08	179069	keystroke_p	p	n/a
89.7345	0.096	179469	keystroke_u	u	n/a
89.8785	0.08	179757	keystroke_r	r	n/a
90.3985	0.087	180797	keystroke_u	u	n/a
90.4215	0.056	180843	keystroke_s	s	n/a
90.8375	0.056	181675	keystroke_Key.backspace	Key.backspace	n/a
90.9895	0.064	181979	keystroke_Key.backspace	Key.backspace	n/a
91.0775	0.08	182155	keystroke_s	s	n/a
91.2775	0.12	182555	keystroke_i	i	n/a
91.4455	0.097	182891	keystroke_t	t	n/a
92.23	0.088	184460	keystroke_Key.backspace	Key.backspace	n/a
92.414	0.072	184828	keystroke_Key.backspace	Key.backspace	n/a
92.7985	0.095	185597	keystroke_u	u	n/a
92.8465	0.087	185693	keystroke_i	i	n/a
92.9575	0.08	185915	keystroke_t	t	n/a
93.1815	0.072	186363	keystroke_Key.space	Key.space	n/a
94.038	0.072	188076	keystroke_e	e	n/a
94.294	0.0795	188588	keystroke_x	x	n/a
94.5335	0.073	189067	keystroke_e	e	n/a
94.7415	0.089	189483	keystroke_c	c	n/a
95.0295	0.088	190059	keystroke_u	u	n/a
95.1975	0.152	190395	keystroke_t	t	n/a
95.2935	0.088	190587	keystroke_e	e	n/a
95.7015	0.0885	191403	keystroke_Key.enter	Key.enter	n/a
95.796	6.7075	191592	prompt	n/a	accessory nashville party champions\n
96.4695	0.113	192939	keystroke_a	a	n/a
96.6865	0.088	193373	keystroke_c	c	n/a
96.8865	0.08	193773	keystroke_c	c	n/a
97.0545	0.064	194109	keystroke_e	e	n/a
97.2225	0.071	194445	keystroke_s	s	n/a
97.3905	0.087	194781	keystroke_s	s	n/a
97.5025	0.08	195005	keystroke_o	o	n/a
97.6215	0.0885	195243	keystroke_r	r	n/a
97.838	0.088	195676	keystroke_y	y	n/a
97.958	0.088	195916	keystroke_Key.space	Key.space	n/a
98.174	0.088	196348	keystroke_n	n	n/a
98.358	0.184	196716	keystroke_a	a	n/a
98.478	0.152	196956	keystroke_s	s	n/a
98.6775	0.08	197355	keystroke_h	h	n/a
98.8615	0.088	197723	keystroke_v	v	n/a
99.0135	0.08	198027	keystroke_i	i	n/a
99.2215	0.064	198443	keystroke_l	l	n/a
99.3975	0.088	198795	keystroke_l	l	n/a
99.5415	0.072	199083	keystroke_e	e	n/a
99.7335	0.088	199467	keystroke_Key.space	Key.space	n/a
100.1895	0.088	200379	keystroke_p	p	n/a
100.3335	0.112	200667	keystroke_a	a	n/a
100.4135	0.0885	200827	keystroke_r	r	n/a
100.606	0.088	201212	keystroke_t	t	n/a
100.782	0.088	201564	keystroke_y	y	n/a
100.886	0.096	201772	keystroke_Key.space	Key.space	n/a
100.99	0.112	201980	keystroke_c	c	n/a
101.15	0.088	202300	keystroke_h	h	n/a
101.246	0.096	202492	keystroke_a	a	n/a
101.406	0.112	202812	keystroke_m	m	n/a
101.5575	0.112	203115	keystroke_p	p	n/a
101.8935	0.168	203787	keystroke_i	i	n/a
102.0055	0.104	204011	keystroke_o	o	n/a
102.1895	0.08	204379	keystroke_n	n	n/a
102.2855	0.072	204571	keystroke_s	s	n/a
102.4215	0.0795	204843	keystroke_Key.enter	Key.enter	n/a
102.506	4.3575	205012	prompt	n/a	trunk glance all available\n
103.214	0.088	206428	keystroke_t	t	n/a
103.4615	0.096	206923	keystroke_r	r	n/a
103.5655	0.064	207131	keystroke_u	u	n/a
103.7655	0.104	207531	keystroke_n	n	n/a
103.8295	0.112	207659	keystroke_k	k	n/a
103.9895	0.104	207979	keystroke_Key.space	Key.space	n/a
104.0855	0.104	208171	keystroke_g	g	n/a
104.2055	0.096	208411	keystroke_l	l	n/a
104.2855	0.104	208571	keystroke_a	a	n/a
104.4375	0.088	208875	keystroke_n	n	n/a
104.5415	0.152	209083	keystroke_c	c	n/a
104.6775	0.096	209355	keystroke_e	e	n/a
104.8295	0.104	209659	keystroke_Key.space	Key.space	n/a
105.0055	0.088	210011	keystroke_a	a	n/a
105.1655	0.08	210331	keystroke_l	l	n/a
105.3255	0.088	210651	keystroke_l	l	n/a
105.4455	0.104	210891	keystroke_Key.space	Key.space	n/a
105.5175	0.096	211035	keystroke_a	a	n/a
105.6535	0.12	211307	keystroke_v	v	n/a
105.7975	0.113	211595	keystroke_a	a	n/a
105.9575	0.064	211915	keystroke_i	i	n/a
106.1335	0.08	212267	keystroke_l	l	n/a
106.2855	0.104	212571	keystroke_a	a	n/a
106.3905	0.063	212781	keystroke_b	b	n/a
106.5335	0.08	213067	keystroke_l	l	n/a
106.6535	0.064	213307	keystroke_e	e	n/a
106.7655	0.096	213531	keystroke_Key.enter	Key.enter	n/a
106.866	5.429	213732	prompt	n/a	numerous surgical lane change\n
107.5575	0.08	215115	keystroke_n	n	n/a
107.75	0.072	215500	keystroke_u	u	n/a
107.95	0.096	215900	keystroke_m	m	n/a
108.07	0.136	216140	keystroke_e	e	n/a
108.15	0.12	216300	keystroke_r	r	n/a
108.286	0.1355	216572	keystroke_o	o	n/a
108.358	0.1195	216716	keystroke_u	u	n/a
108.542	0.096	217084	keystroke_s	s	n/a
108.646	0.096	217292	keystroke_Key.space	Key.space	n/a
108.854	0.096	217708	keystroke_s	s	n/a
108.974	0.104	217948	keystroke_u	u	n/a
109.086	0.08	218172	keystroke_r	r	n/a
109.27	0.088	218540	keystroke_g	g	n/a
109.414	0.08	218828	keystroke_i	i	n/a
109.518	0.104	219036	keystroke_c	c	n/a
109.662	0.12	219324	keystroke_a	a	n/a
109.79	0.08	219580	keystroke_l	l	n/a
109.918	0.08	219836	keystroke_Key.space	Key.space	n/a
110.086	0.088	220172	keystroke_l	l	n/a
110.206	0.072	220412	keystroke_a	a	n/a
110.406	0.0955	220812	keystroke_n	n	n/a
110.5735	0.072	221147	keystroke_e	e	n/a
110.7895	0.112	221579	keystroke_Key.space	Key.space	n/a
111.2775	0.128	222555	keystroke_c	c	n/a
111.5015	0.0955	223003	keystroke_h	h	n/a
111.646	0.095	223292	keystroke_a	a	n/a
111.797	0.096	223594	keystroke_n	n	n/a
111.917	0.152	223834	keystroke_g	g	n/a
111.997	0.12	223994	keystroke_e	e	n/a
112.181	0.112	224362	keystroke_Key.enter	Key.enter	n/a
112.298	6.981	224596	prompt	n/a	pencil pale cisco researcher\n
112.886	0.08	225772	keystroke_p	p	n/a
113.014	0.08	226028	keystroke_e	e	n/a
113.15	0.072	226300	keystroke_n	n	n/a
113.238	0.096	226476	keystroke_c	c	n/a
113.358	0.0715	226716	keystroke_i	i	n/a
113.5415	0.08	227083	keystroke_l	l	n/a
113.6455	0.096	227291	keystroke_Key.space	Key.space	n/a
113.8695	0.08	227739	keystroke_p	p	n/a
114.0055	0.08	228011	keystroke_a	a	n/a
114.1975	0.096	228395	keystroke_l	l	n/a
114.5655	0.08	229131	keystroke_e	e	n/a
114.7975	0.12	229595	keystroke_Key.space	Key.space	n/a
115.0455	0.112	230091	keystroke_c	c	n/a
115.2055	0.072	230411	keystroke_i	i	n/a
115.3015	0.064	230603	keystroke_s	s	n/a
115.4775	0.08	230955	keystroke_c	c	n/a
115.6295	0.0635	231259	keystroke_o	o	n/a
115.797	0.08	231594	keystroke_Key.space	Key.space	n/a
116.533	0.16	233066	keystroke_r	r	n/a
116.629	0.088	233258	keystroke_e	e	n/a
116.837	0.113	233674	keystroke_s	s	n/a
117.054	0.095	234108	keystroke_e	e	n/a
117.269	0.096	234538	keystroke_a	a	n/a
117.309	0.104	234618	keystroke_r	r	n/a
117.6535	0.12	235307	keystroke_c	c	n/a
117.9815	0.096	235963	keystroke_t	t	n/a
118.2455	0.088	236491	keystroke_h	h	n/a
118.518	0.0635	237036	keystroke_Key.backspace	Key.backspace	n/a
118.6855	0.048	237371	keystroke_Key.backspace	Key.backspace	n/a
118.8935	0.088	237787	keystroke_h	h	n/a
118.9735	0.136	237947	keystroke_e	e	n/a
119.0215	0.12	238043	keystroke_r	r	n/a
119.1815	0.096	238363	keystroke_Key.enter	Key.enter	n/a
119.285	3.754	238570	prompt	n/a	solve southern shown derek\n
119.941	0.096	239882	keystroke_s	s	n/a
120.093	0.064	240186	keystroke_o	o	n/a
120.261	0.104	240522	keystroke_l	l	n/a
120.357	0.12	240714	keystroke_v	v	n/a
120.461	0.056	240922	keystroke_e	e	n/a
120.565	0.104	241130	keystroke_Key.space	Key.space	n/a
120.661	0.112	241322	keystroke_s	s	n/a
120.765	0.129	241530	keystroke_o	o	n/a
120.838	0.087	241676	keystroke_u	u	n/a
120.966	0.111	241932	keystroke_t	t	n/a
121.11	0.087	242220	keystroke_h	h	n/a
121.222	0.136	242444	keystroke_e	e	n/a
121.31	0.071	242620	keystroke_r	r	n/a
121.429	0.089	242858	keystroke_n	n	n/a
121.5495	0.088	243099	keystroke_Key.space	Key.space	n/a
121.6615	0.104	243323	keystroke_s	s	n/a
121.7975	0.104	243595	keystroke_h	h	n/a
121.8855	0.096	243771	keystroke_o	o	n/a
121.9975	0.072	243995	keystroke_w	w	n/a
122.1335	0.104	244267	keystroke_n	n	n/a
122.2455	0.056	244491	keystroke_Key.space	Key.space	n/a
122.2775	0.08	244555	keystroke_d	d	n/a
122.4775	0.0965	244955	keystroke_e	e	n/a
122.557	0.1445	245114	keystroke_r	r	n/a
122.6855	0.08	245371	keystroke_e	e	n/a
122.7735	0.08	245547	keystroke_k	k	n/a
122.9575	0.08	245915	keystroke_Key.enter	Key.enter	n/a
123.043	7.964	246086	prompt	n/a	norwegian perth water malaysia\n
123.7335	0.088	247467	keystroke_n	n	n/a
124.0455	0.104	248091	keystroke_o	o	n/a
124.1815	0.08	248363	keystroke_r	r	n/a
124.4695	0.0955	248939	keystroke_w	w	n/a
124.677	0.064	249354	keystroke_e	e	n/a
124.957	0.088	249914	keystroke_g	g	n/a
125.093	0.072	250186	keystroke_i	i	n/a
125.253	0.072	250506	keystroke_a	a	n/a
125.389	0.088	250778	keystroke_n	n	n/a
125.549	0.112	251098	keystroke_Key.space	Key.space	n/a
125.677	0.0965	251354	keystroke_p	p	n/a
125.7815	0.112	251563	keystroke_e	e	n/a
125.8455	0.088	251691	keystroke_r	r	n/a
126.0295	0.088	252059	keystroke_t	t	n/a
126.2055	0.096	252411	keystroke_h	h	n/a
126.3575	0.128	252715	keystroke_Key.space	Key.space	n/a
126.7735	0.088	253547	keystroke_w	w	n/a
126.9975	0.12	253995	keystroke_a	a	n/a
127.1015	0.112	254203	keystroke_t	t	n/a
127.2695	0.16	254539	keystroke_e	e	n/a
127.3575	0.12	254715	keystroke_r	r	n/a
127.4135	0.088	254827	keystroke_Key.space	Key.space	n/a
127.6135	0.0875	255227	keystroke_m	m	n/a
127.725	0.112	255450	keystroke_a	a	n/a
127.869	0.088	255738	keystroke_l	l	n/a
127.989	0.088	255978	keystroke_a	a	n/a
128.197	0.088	256394	keystroke_s	s	n/a
128.446	0.096	256892	keystroke_y	y	n/a
129.877	0.072	259754	keystroke_Key.backspace	Key.backspace	n/a
130.053	0.056	260106	keystroke_Key.backspace	Key.backspace	n/a
130.293	0.08	260586	keystroke_y	y	n/a
130.429	0.088	260858	keystroke_s	s	n/a
130.557	0.0805	261114	keystroke_i	i	n/a
130.6935	0.056	261387	keystroke_a	a	n/a
130.9175	0.088	261835	keystroke_Key.enter	Key.enter	n/a
131.0125	6.354	262025	prompt	n/a	consensus fleet worldcat josh\n
131.773	0.12	263546	keystroke_c	c	n/a
131.885	0.072	263770	keystroke_o	o	n/a
132.078	0.079	264156	keystroke_n	n	n/a
132.229	0.088	264458	keystroke_s	s	n/a
132.381	0.112	264762	keystroke_e	e	n/a
132.541	0.072	265082	keystroke_n	n	n/a
132.678	0.087	265356	keystroke_s	s	n/a
132.782	0.088	265564	keystroke_u	u	n/a
133.166	0.072	266332	keystroke_s	s	n/a
133.309	0.1045	266618	keystroke_Key.space	Key.space	n/a
133.8535	0.112	267707	keystroke_f	f	n/a
133.9975	0.088	267995	keystroke_l	l	n/a
134.0935	0.056	268187	keystroke_e	e	n/a
134.2455	0.144	268491	keystroke_e	e	n/a
134.3815	0.128	268763	keystroke_t	t	n/a
134.5015	0.1115	269003	keystroke_Key.space	Key.space	n/a
134.5895	0.104	269179	keystroke_w	w	n/a
134.7255	0.0715	269451	keystroke_o	o	n/a
134.8055	0.088	269611	keystroke_r	r	n/a
134.9575	0.08	269915	keystroke_l	l	n/a
135.0455	0.0635	270091	keystroke_d	d	n/a
135.189	0.12	270378	keystroke_c	c	n/a
135.5815	0.088	271163	keystroke_t	t	n/a
135.965	0.064	271930	keystroke_Key.backspace	Key.backspace	n/a
136.045	0.12	272090	keystroke_a	a	n/a
136.1095	0.1035	272219	keystroke_t	t	n/a
136.237	0.088	272474	keystroke_Key.space	Key.space	n/a
136.525	0.1045	273050	keystroke_j	j	n/a
136.7495	0.088	273499	keystroke_o	o	n/a
136.8455	0.072	273691	keystroke_s	s	n/a
136.9975	0.08	273995	keystroke_h	h	n/a
137.2695	0.096	274539	keystroke_Key.enter	Key.enter	n/a
137.372	6.9225	274744	prompt	n/a	arbitrary notes projection desperate\n
138.166	0.135	276332	keystroke_a	a	n/a
138.334	0.095	276668	keystroke_r	r	n/a
138.6775	0.072	277355	keystroke_b	b	n/a
138.8855	0.072	277771	keystroke_i	i	n/a
139.0855	0.08	278171	keystroke_t	t	n/a
139.2695	0.112	278539	keystroke_r	r	n/a
139.4615	0.136	278923	keystroke_a	a	n/a
139.5895	0.088	279179	keystroke_r	r	n/a
139.7735	0.072	279547	keystroke_y	y	n/a
139.9815	0.104	279963	keystroke_Key.space	Key.space	n/a
140.1975	0.08	280395	keystroke_n	n	n/a
140.3175	0.096	280635	keystroke_o	o	n/a
140.4215	0.128	280843	keystroke_t	t	n/a
140.5735	0.072	281147	keystroke_e	e	n/a
140.7575	0.112	281515	keystroke_s	s	n/a
140.8775	0.136	281755	keystroke_Key.space	Key.space	n/a
140.9975	0.08	281995	keystroke_p	p	n/a
141.1175	0.096	282235	keystroke_r	r	n/a
141.2455	0.088	282491	keystroke_o	o	n/a
141.4535	0.0875	282907	keystroke_j	j	n/a
141.573	0.144	283146	keystroke_e	e	n/a
141.637	0.088	283274	keystroke_c	c	n/a
141.885	0.08	283770	keystroke_t	t	n/a
141.997	0.12	283994	keystroke_i	i	n/a
142.077	0.08	284154	keystroke_o	o	n/a
142.293	0.112	284586	keystroke_n	n	n/a
142.381	0.08	284762	keystroke_Key.space	Key.space	n/a
142.469	0.072	284938	keystroke_d	d	n/a
142.6695	0.064	285339	keystroke_e	e	n/a
142.8455	0.096	285691	keystroke_s	s	n/a
142.9975	0.096	285995	keystroke_p	p	n/a
143.2855	0.088	286571	keystroke_e	e	n/a
143.5095	0.12	287019	keystroke_r	r	n/a
143.7575	0.104	287515	keystroke_a	a	n/a
143.8455	0.176	287691	keystroke_t	t	n/a
143.9575	0.104	287915	keystroke_e	e	n/a
144.2135	0.08	288427	keystroke_Key.enter	Key.enter	n/a
144.2975	7.685	288595	prompt	n/a	fuel celebration program delaware\n
145.0775	0.111	290155	keystroke_f	f	n/a
145.2855	0.08	290571	keystroke_u	u	n/a
145.4205	0.072	290841	keystroke_e	e	n/a
145.5335	0.088	291067	keystroke_l	l	n/a
145.725	0.1115	291450	keystroke_Key.space	Key.space	n/a
145.8445	0.089	291689	keystroke_c	c	n/a
146.0045	0.072	292009	keystroke_e	e	n/a
146.1005	0.08	292201	keystroke_l	l	n/a
146.1965	0.088	292393	keystroke_e	e	n/a
146.3565	0.08	292713	keystroke_b	b	n/a
146.4525	0.064	292905	keystroke_r	r	n/a
146.6215	0.128	293243	keystroke_a	a	n/a
146.7495	0.104	293499	keystroke_t	t	n/a
146.8775	0.112	293755	keystroke_i	i	n/a
146.9415	0.08	293883	keystroke_o	o	n/a
147.1495	0.088	294299	keystroke_n	n	n/a
147.3415	0.096	294683	keystroke_Key.space	Key.space	n/a
147.5975	0.088	295195	keystroke_p	p	n/a
147.7255	0.096	295451	keystroke_r	r	n/a
147.8375	0.071	295675	keystroke_o	o	n/a
147.9655	0.08	295931	keystroke_g	g	n/a
148.1495	0.088	296299	keystroke_r	r	n/a
148.2855	0.112	296571	keystroke_a	a	n/a
148.4535	0.064	296907	keystroke_m	m	n/a
148.6055	0.095	297211	keystroke_Key.space	Key.space	n/a
149.3405	0.04	298681	keystroke_d	d	n/a
149.685	0.088	299370	keystroke_e	e	n/a
149.973	0.104	299946	keystroke_l	l	n/a
150.117	0.096	300234	keystroke_a	a	n/a
150.317	0.056	300634	keystroke_w	w	n/a
150.757	0.192	301514	keystroke_r	r	n/a
150.829	0.128	301658	keystroke_e	e	n/a
151.253	0.072	302506	keystroke_Key.backspace	Key.backspace	n/a
151.421	0.072	302842	keystroke_Key.backspace	Key.backspace	n/a
151.453	0.1035	302906	keystroke_a	a	n/a
151.501	0.1445	303002	keystroke_r	r	n/a
151.5805	0.072	303161	keystroke_e	e	n/a
151.893	0.088	303786	keystroke_Key.enter	Key.enter	n/a
151.986	9.1885	303972	prompt	n/a	maximum locks animated cinema\n
152.773	0.096	305546	keystroke_m	m	n/a
152.909	0.08	305818	keystroke_a	a	n/a
153.141	0.096	306282	keystroke_x	x	n/a
153.461	0.112	306922	keystroke_i	i	n/a
153.693	0.096	307386	keystroke_u	u	n/a
153.9575	0.087	307915	keystroke_m	m	n/a
154.2925	0.048	308585	keystroke_Key.backspace	Key.backspace	n/a
154.4535	0.048	308907	keystroke_Key.backspace	Key.backspace	n/a
154.6695	0.08	309339	keystroke_m	m	n/a
154.8775	0.064	309755	keystroke_u	u	n/a
155.1175	0.072	310235	keystroke_m	m	n/a
155.3095	0.072	310619	keystroke_Key.space	Key.space	n/a
156.229	0.08	312458	keystroke_l	l	n/a
156.437	0.072	312874	keystroke_o	o	n/a
156.5485	0.08	313097	keystroke_c	c	n/a
156.6685	0.0565	313337	keystroke_k	k	n/a
156.789	0.064	313578	keystroke_s	s	n/a
156.869	0.096	313738	keystroke_Key.space	Key.space	n/a
157.381	0.072	314762	keystroke_a	a	n/a
157.461	0.08	314922	keystroke_n	n	n/a
157.605	0.064	315210	keystroke_i	i	n/a
157.757	0.104	315514	keystroke_m	m	n/a
157.869	0.104	315738	keystroke_a	a	n/a
157.974	0.143	315948	keystroke_t	t	n/a
158.085	0.056	316170	keystroke_e	e	n/a
158.261	0.064	316522	keystroke_d	d	n/a
158.381	0.12	316762	keystroke_Key.space	Key.space	n/a
158.565	0.096	317130	keystroke_c	c	n/a
158.693	0.056	317386	keystroke_i	i	n/a
158.845	0.08	317690	keystroke_n	n	n/a
158.989	0.064	317978	keystroke_e	e	n/a
159.173	0.064	318346	keystroke_m	m	n/a
159.389	0.088	318778	keystroke_a	a	n/a
161.1015	0.072	322203	keystroke_Key.enter	Key.enter	n/a
161.1775	9.085	322355	prompt	n/a	beginning ownership nepal worldcat\n
162.165	0.088	324330	keystroke_g	g	n/a
162.333	0.056	324666	keystroke_e	e	n/a
162.477	0.064	324954	keystroke_n	n	n/a
162.8125	0.032	325625	keystroke_Key.backspace	Key.backspace	n/a
162.9565	0.049	325913	keystroke_Key.backspace	Key.backspace	n/a
163.1165	0.064	326233	keystroke_Key.backspace	Key.backspace	n/a
163.2845	0.064	326569	keystroke_Key.backspace	Key.backspace	n/a
163.5885	0.081	327177	keystroke_b	b	n/a
163.7405	0.064	327481	keystroke_e	e	n/a
163.9095	0.088	327819	keystroke_g	g	n/a
164.3645	0.064	328729	keystroke_i	i	n/a
164.6445	0.056	329289	keystroke_n	n	n/a
164.7965	0.072	329593	keystroke_n	n	n/a
164.9655	0.055	329931	keystroke_i	i	n/a
165.1005	0.096	330201	keystroke_n	n	n/a
165.2605	0.072	330521	keystroke_g	g	n/a
165.3335	0.111	330667	keystroke_Key.space	Key.space	n/a
165.5245	0.088	331049	keystroke_o	o	n/a
165.6525	0.088	331305	keystroke_w	w	n/a
165.7965	0.08	331593	keystroke_n	n	n/a
165.9645	0.168	331929	keystroke_e	e	n/a
166.0845	0.072	332169	keystroke_r	r	n/a
166.3645	0.08	332729	keystroke_s	s	n/a
166.5245	0.081	333049	keystroke_h	h	n/a
166.6205	0.104	333241	keystroke_i	i	n/a
166.8365	0.072	333673	keystroke_p	p	n/a
167.0205	0.088	334041	keystroke_Key.space	Key.space	n/a
167.8525	0.08	335705	keystroke_n	n	n/a
167.9725	0.072	335945	keystroke_e	e	n/a
168.1085	0.072	336217	keystroke_p	p	n/a
168.2765	0.104	336553	keystroke_a	a	n/a
168.4205	0.072	336841	keystroke_l	l	n/a
168.5645	0.088	337129	keystroke_Key.space	Key.space	n/a
169.053	0.088	338106	keystroke_w	w	n/a
169.173	0.072	338346	keystroke_o	o	n/a
169.277	0.096	338554	keystroke_r	r	n/a
169.389	0.088	338778	keystroke_l	l	n/a
169.492	0.073	338984	keystroke_d	d	n/a
169.693	0.104	339386	keystroke_c	c	n/a
169.908	0.105	339816	keystroke_a	a	n/a
170.029	0.064	340058	keystroke_t	t	n/a
170.181	0.08	340362	keystroke_Key.enter	Key.enter	n/a
170.266	7.532	340532	prompt	n/a	networking left blank mainly\n
171.6525	0.08	343305	keystroke_n	n	n/a
171.7645	0.064	343529	keystroke_e	e	n/a
171.9485	0.096	343897	keystroke_t	t	n/a
172.1885	0.097	344377	keystroke_w	w	n/a
172.3245	0.08	344649	keystroke_o	o	n/a
172.4365	0.08	344873	keystroke_r	r	n/a
172.5565	0.064	345113	keystroke_k	k	n/a
172.7405	0.048	345481	keystroke_i	i	n/a
172.9085	0.08	345817	keystroke_n	n	n/a
173.0045	0.088	346009	keystroke_g	g	n/a
173.1085	0.088	346217	keystroke_Key.space	Key.space	n/a
173.2605	0.088	346521	keystroke_l	l	n/a
173.3725	0.088	346745	keystroke_e	e	n/a
173.5165	0.08	347033	keystroke_f	f	n/a
173.7165	0.072	347433	keystroke_t	t	n/a
173.8455	0.079	347691	keystroke_Key.space	Key.space	n/a
174.1815	0.087	348363	keystroke_a	a	n/a
175.221	0.08	350442	keystroke_Key.backspace	Key.backspace	n/a
175.581	0.0795	351162	keystroke_b	b	n/a
175.7165	0.096	351433	keystroke_a	a	n/a
175.8365	0.12	351673	keystroke_n	n	n/a
175.9165	0.088	351833	keystroke_k	k	n/a
176.1245	0.08	352249	keystroke_Key.space	Key.space	n/a
176.6695	0.08	353339	keystroke_m	m	n/a
176.8045	0.104	353609	keystroke_a	a	n/a
176.9165	0.048	353833	keystroke_i	i	n/a
177.0525	0.072	354105	keystroke_n	n	n/a
177.2045	0.072	354409	keystroke_l	l	n/a
177.3885	0.072	354777	keystroke_y	y	n/a
177.7165	0.08	355433	keystroke_Key.enter	Key.enter	n/a
177.8015	5.6525	355603	prompt	n/a	news samples he'll unix\n
178.885	0.096	357770	keystroke_n	n	n/a
179.029	0.184	358058	keystroke_e	e	n/a
179.157	0.08	358314	keystroke_w	w	n/a
179.341	0.088	358682	keystroke_s	s	n/a
179.477	0.112	358954	keystroke_Key.space	Key.space	n/a
179.8605	0.088	359721	keystroke_s	s	n/a
180.0445	0.112	360089	keystroke_a	a	n/a
180.1725	0.128	360345	keystroke_m	m	n/a
180.2525	0.072	360505	keystroke_p	p	n/a
180.4365	0.104	360873	keystroke_l	l	n/a
180.5325	0.056	361065	keystroke_e	e	n/a
180.6685	0.08	361337	keystroke_s	s	n/a
180.8365	0.0965	361673	keystroke_Key.space	Key.space	n/a
181.4445	0.096	362889	keystroke_h	h	n/a
181.5965	0.072	363193	keystroke_e	e	n/a
181.781	0.104	363562	keystroke_'	'	n/a
181.981	0.056	363962	keystroke_l	l	n/a
182.125	0.08	364250	keystroke_l	l	n/a
182.277	0.096	364554	keystroke_Key.space	Key.space	n/a
182.645	0.072	365290	keystroke_u	u	n/a
182.868	0.04	365736	keystroke_n	n	n/a
182.997	0.072	365994	keystroke_i	i	n/a
183.108	0.072	366216	keystroke_x	x	n/a
183.372	0.08	366744	keystroke_Key.enter	Key.enter	n/a
183.4565	6.6695	366913	prompt	n/a	actor sustained employ photographic\n
184.101	0.12	368202	keystroke_a	a	n/a
184.269	0.104	368538	keystroke_c	c	n/a
184.493	0.08	368986	keystroke_t	t	n/a
184.621	0.08	369242	keystroke_o	o	n/a
184.741	0.072	369482	keystroke_r	r	n/a
184.861	0.096	369722	keystroke_Key.space	Key.space	n/a
184.941	0.08	369882	keystroke_s	s	n/a
185.085	0.08	370170	keystroke_u	u	n/a
185.149	0.072	370298	keystroke_s	s	n/a
185.325	0.072	370650	keystroke_t	t	n/a
185.461	0.12	370922	keystroke_a	a	n/a
185.605	0.064	371210	keystroke_i	i	n/a
185.7645	0.088	371529	keystroke_n	n	n/a
185.8925	0.048	371785	keystroke_e	e	n/a
186.0685	0.072	372137	keystroke_d	d	n/a
186.2125	0.08	372425	keystroke_Key.space	Key.space	n/a
186.629	0.079	373258	keystroke_e	e	n/a
186.733	0.1435	373466	keystroke_m	m	n/a
186.8605	0.048	373721	keystroke_p	p	n/a
187.0205	0.08	374041	keystroke_l	l	n/a
187.2285	0.064	374457	keystroke_o	o	n/a
187.4605	0.064	374921	keystroke_y	y	n/a
187.7005	0.064	375401	keystroke_Key.space	Key.space	n/a
188.3165	0.072	376633	keystroke_p	p	n/a
188.5245	0.112	377049	keystroke_h	h	n/a
188.6285	0.08	377257	keystroke_o	o	n/a
188.7645	0.08	377529	keystroke_t	t	n/a
188.8525	0.064	377705	keystroke_o	o	n/a
189.0205	0.08	378041	keystroke_g	g	n/a
189.2045	0.08	378409	keystroke_r	r	n/a
189.3325	0.112	378665	keystroke_a	a	n/a
189.4765	0.064	378953	keystroke_p	p	n/a
189.6605	0.088	379321	keystroke_h	h	n/a
189.7565	0.072	379513	keystroke_i	i	n/a
189.8525	0.08	379705	keystroke_c	c	n/a
190.0445	0.08	380089	keystroke_Key.enter	Key.enter	n/a
190.1295	11.972	380259	prompt	n/a	string bunny there's eligibility\n
190.829	0.088	381658	keystroke_s	s	n/a
191.021	0.072	382042	keystroke_t	t	n/a
191.157	0.08	382314	keystroke_r	r	n/a
191.301	0.048	382602	keystroke_i	i	n/a
191.445	0.0875	382890	keystroke_n	n	n/a
191.5645	0.072	383129	keystroke_g	g	n/a
191.6685	0.096	383337	keystroke_Key.space	Key.space	n/a
191.8525	0.056	383705	keystroke_b	b	n/a
192.0205	0.08	384041	keystroke_u	u	n/a
192.1565	0.072	384313	keystroke_b	b	n/a
192.3245	0.088	384649	keystroke_b	b	n/a
192.4685	0.072	384937	keystroke_y	y	n/a
192.5885	0.088	385177	keystroke_Key.space	Key.space	n/a
192.901	0.064	385802	keystroke_Key.backspace	Key.backspace	n/a
193.069	0.056	386138	keystroke_Key.backspace	Key.backspace	n/a
193.229	0.056	386458	keystroke_Key.backspace	Key.backspace	n/a
193.405	0.047	386810	keystroke_Key.backspace	Key.backspace	n/a
193.621	0.064	387242	keystroke_n	n	n/a
193.773	0.072	387546	keystroke_n	n	n/a
193.973	0.063	387946	keystroke_y	y	n/a
194.109	0.104	388218	keystroke_Key.space	Key.space	n/a
196.8845	0.1045	393769	keystroke_t	t	n/a
197.1485	0.096	394297	keystroke_h	h	n/a
197.3245	0.096	394649	keystroke_e	e	n/a
197.4365	0.128	394873	keystroke_r	r	n/a
197.5085	0.072	395017	keystroke_e	e	n/a
197.6845	0.096	395369	keystroke_'	'	n/a
197.8045	0.064	395609	keystroke_s	s	n/a
197.9405	0.088	395881	keystroke_Key.space	Key.space	n/a
198.4125	0.08	396825	keystroke_e	e	n/a
198.5485	0.096	397097	keystroke_l	l	n/a
198.6685	0.056	397337	keystroke_e	e	n/a
199.284	0.048	398568	keystroke_Key.backspace	Key.backspace	n/a
199.557	0.072	399114	keystroke_i	i	n/a
199.677	0.08	399354	keystroke_g	g	n/a
199.829	0.071	399658	keystroke_i	i	n/a
200.045	0.064	400090	keystroke_b	b	n/a
200.22	0.088	400440	keystroke_i	i	n/a
200.541	0.095	401082	keystroke_i	i	n/a
200.972	0.056	401944	keystroke_Key.backspace	Key.backspace	n/a
201.204	0.08	402408	keystroke_l	l	n/a
201.396	0.072	402792	keystroke_i	i	n/a
201.5405	0.064	403081	keystroke_t	t	n/a
201.6605	0.08	403321	keystroke_y	y	n/a
202.0285	0.072	404057	keystroke_Key.enter	Key.enter	n/a
202.1045	7.501	404209	prompt	n/a	industry celebs triumph causing\n
202.7885	0.0635	405577	keystroke_i	i	n/a
202.948	0.08	405896	keystroke_n	n	n/a
203.044	0.096	406088	keystroke_d	d	n/a
203.204	0.073	406408	keystroke_u	u	n/a
203.284	0.073	406568	keystroke_s	s	n/a
203.468	0.072	406936	keystroke_t	t	n/a
203.62	0.08	407240	keystroke_r	r	n/a
203.796	0.088	407592	keystroke_y	y	n/a
203.972	0.104	407944	keystroke_Key.space	Key.space	n/a
204.324	0.112	408648	keystroke_c	c	n/a
204.5	0.072	409000	keystroke_e	e	n/a
204.596	0.08	409192	keystroke_l	l	n/a
204.693	0.079	409386	keystroke_e	e	n/a
204.844	0.088	409688	keystroke_b	b	n/a
204.996	0.08	409992	keystroke_s	s	n/a
205.148	0.096	410296	keystroke_Key.space	Key.space	n/a
205.868	0.064	411736	keystroke_t	t	n/a
206.228	0.104	412456	keystroke_r	r	n/a
206.532	0.096	413064	keystroke_i	i	n/a
206.732	0.064	413464	keystroke_u	u	n/a
206.9965	0.072	413993	keystroke_m	m	n/a
207.2445	0.088	414489	keystroke_p	p	n/a
207.5645	0.071	415129	keystroke_h	h	n/a
207.7725	0.088	415545	keystroke_Key.space	Key.space	n/a
208.2765	0.112	416553	keystroke_c	c	n/a
208.4765	0.111	416953	keystroke_a	a	n/a
208.6605	0.071	417321	keystroke_u	u	n/a
208.8365	0.0875	417673	keystroke_s	s	n/a
208.996	0.048	417992	keystroke_i	i	n/a
209.156	0.072	418312	keystroke_n	n	n/a
209.252	0.096	418504	keystroke_g	g	n/a
209.508	0.0965	419016	keystroke_Key.enter	Key.enter	n/a
209.608	12.3815	419216	prompt	n/a	trials metals encouraging antique\n
211.004	0.104	422008	keystroke_t	t	n/a
211.172	0.128	422344	keystroke_r	r	n/a
211.34	0.08	422680	keystroke_i	i	n/a
211.572	0.032	423144	keystroke_a	a	n/a
212.3085	0.088	424617	keystroke_l	l	n/a
212.4205	0.08	424841	keystroke_s	s	n/a
212.5725	0.088	425145	keystroke_Key.space	Key.space	n/a
212.8125	0.0955	425625	keystroke_m	m	n/a
212.94	0.08	425880	keystroke_e	e	n/a
213.18	0.088	426360	keystroke_t	t	n/a
213.372	0.08	426744	keystroke_a	a	n/a
214.012	0.096	428024	keystroke_l	l	n/a
214.156	0.08	428312	keystroke_s	s	n/a
214.308	0.088	428616	keystroke_Key.space	Key.space	n/a
214.78	0.0885	429560	keystroke_e	e	n/a
214.924	0.088	429848	keystroke_n	n	n/a
215.0525	0.1035	430105	keystroke_c	c	n/a
215.164	0.152	430328	keystroke_o	o	n/a
215.252	0.104	430504	keystroke_u	u	n/a
215.484	0.0645	430968	keystroke_r	r	n/a
215.844	0.088	431688	keystroke_a	a	n/a
216.004	0.104	432008	keystroke_g	g	n/a
216.076	0.096	432152	keystroke_a	a	n/a
216.212	0.056	432424	keystroke_i	i	n/a
216.8765	0.0395	433753	keystroke_Key.backspace	Key.backspace	n/a
217.028	0.048	434056	keystroke_Key.backspace	Key.backspace	n/a
217.396	0.088	434792	keystroke_n	n	n/a
217.54	0.072	435080	keystroke_g	g	n/a
217.644	0.096	435288	keystroke_Key.space	Key.space	n/a
218.148	0.064	436296	keystroke_Key.backspace	Key.backspace	n/a
218.324	0.04	436648	keystroke_Key.backspace	Key.backspace	n/a
218.46	0.056	436920	keystroke_Key.backspace	Key.backspace	n/a
218.7	0.048	437400	keystroke_i	i	n/a
218.852	0.08	437704	keystroke_n	n	n/a
218.996	0.072	437992	keystroke_g	g	n/a
219.084	0.088	438168	keystroke_Key.space	Key.space	n/a
219.716	0.112	439432	keystroke_a	a	n/a
219.908	0.064	439816	keystroke_n	n	n/a
220.348	0.04	440696	keystroke_i	i	n/a
220.716	0.04	441432	keystroke_Key.backspace	Key.backspace	n/a
220.828	0.0795	441656	keystroke_t	t	n/a
220.9715	0.072	441943	keystroke_i	i	n/a
221.0995	0.064	442199	keystroke_q	q	n/a
221.2515	0.072	442503	keystroke_u	u	n/a
221.3715	0.072	442743	keystroke_e	e	n/a
221.892	0.096	443784	keystroke_Key.enter	Key.enter	n/a
221.998	8.1435	443996	prompt	n/a	central affiliate coaches thomson\n
223.204	0.096	446408	keystroke_c	c	n/a
223.388	0.08	446776	keystroke_e	e	n/a
223.524	0.088	447048	keystroke_n	n	n/a
223.604	0.064	447208	keystroke_t	t	n/a
223.732	0.096	447464	keystroke_r	r	n/a
223.884	0.12	447768	keystroke_a	a	n/a
224.012	0.08	448024	keystroke_l	l	n/a
224.164	0.088	448328	keystroke_Key.space	Key.space	n/a
224.644	0.112	449288	keystroke_a	a	n/a
224.836	0.064	449672	keystroke_f	f	n/a
225.004	0.088	450008	keystroke_f	f	n/a
225.108	0.064	450216	keystroke_i	i	n/a
225.428	0.096	450856	keystroke_l	l	n/a
225.652	0.08	451304	keystroke_i	i	n/a
225.836	0.072	451672	keystroke_a	a	n/a
226.02	0.16	452040	keystroke_t	t	n/a
226.132	0.072	452264	keystroke_e	e	n/a
226.236	0.08	452472	keystroke_Key.space	Key.space	n/a
226.7875	0.096	453575	keystroke_c	c	n/a
226.94	0.088	453880	keystroke_o	o	n/a
227.1	0.04	454200	keystroke_a	a	n/a
227.284	0.08	454568	keystroke_c	c	n/a
227.452	0.088	454904	keystroke_h	h	n/a
227.556	0.056	455112	keystroke_e	e	n/a
227.724	0.064	455448	keystroke_s	s	n/a
227.86	0.096	455720	keystroke_Key.space	Key.space	n/a
228.652	0.08	457304	keystroke_t	t	n/a
228.82	0.088	457640	keystroke_h	h	n/a
228.9715	0.104	457943	keystroke_o	o	n/a
229.2275	0.08	458455	keystroke_m	m	n/a
229.4435	0.064	458887	keystroke_s	s	n/a
229.5715	0.072	459143	keystroke_o	o	n/a
229.7555	0.064	459511	keystroke_n	n	n/a
230.0195	0.12	460039	keystroke_Key.enter	Key.enter	n/a
230.145	8.6205	460290	prompt	n/a	injuries operations johns compliant\n
231.876	0.096	463752	keystroke_i	i	n/a
232.092	0.064	464184	keystroke_n	n	n/a
232.3	0.064	464600	keystroke_j	j	n/a
232.476	0.08	464952	keystroke_u	u	n/a
232.628	0.088	465256	keystroke_r	r	n/a
232.788	0.08	465576	keystroke_i	i	n/a
232.884	0.0725	465768	keystroke_e	e	n/a
233.0595	0.072	466119	keystroke_s	s	n/a
233.2195	0.089	466439	keystroke_Key.space	Key.space	n/a
233.5955	0.096	467191	keystroke_o	o	n/a
233.7885	0.071	467577	keystroke_p	p	n/a
233.8995	0.12	467799	keystroke_e	e	n/a
233.9715	0.089	467943	keystroke_r	r	n/a
234.1715	0.12	468343	keystroke_a	a	n/a
234.2595	0.113	468519	keystroke_t	t	n/a
234.3795	0.096	468759	keystroke_i	i	n/a
234.4435	0.065	468887	keystroke_o	o	n/a
234.6435	0.088	469287	keystroke_n	n	n/a
234.7555	0.08	469511	keystroke_s	s	n/a
235.0995	0.104	470199	keystroke_Key.space	Key.space	n/a
235.3155	0.096	470631	keystroke_j	j	n/a
235.4675	0.072	470935	keystroke_o	o	n/a
235.644	0.056	471288	keystroke_h	h	n/a
235.82	0.072	471640	keystroke_n	n	n/a
235.948	0.064	471896	keystroke_s	s	n/a
236.084	0.088	472168	keystroke_Key.space	Key.space	n/a
236.6755	0.128	473351	keystroke_c	c	n/a
237.172	0.056	474344	keystroke_o	o	n/a
237.532	0.096	475064	keystroke_m	m	n/a
237.748	0.0715	475496	keystroke_p	p	n/a
237.9315	0.0725	475863	keystroke_l	l	n/a
238.132	0.064	476264	keystroke_i	i	n/a
238.244	0.0795	476488	keystroke_a	a	n/a
238.3555	0.08	476711	keystroke_n	n	n/a
238.4835	0.08	476967	keystroke_t	t	n/a
238.6755	0.0885	477351	keystroke_Key.enter	Key.enter	n/a
238.768	5.557	477536	prompt	n/a	milk although piece pressure\n
239.388	0.08	478776	keystroke_m	m	n/a
239.54	0.056	479080	keystroke_i	i	n/a
239.716	0.152	479432	keystroke_l	l	n/a
239.812	0.096	479624	keystroke_k	k	n/a
240.012	0.104	480024	keystroke_Key.space	Key.space	n/a
240.268	0.064	480536	keystroke_a	a	n/a
240.356	0.088	480712	keystroke_l	l	n/a
240.492	0.104	480984	keystroke_t	t	n/a
240.636	0.095	481272	keystroke_h	h	n/a
240.771	0.137	481542	keystroke_o	o	n/a
240.844	0.096	481688	keystroke_u	u	n/a
240.972	0.088	481944	keystroke_g	g	n/a
241.124	0.08	482248	keystroke_h	h	n/a
241.5	0.0955	483000	keystroke_Key.space	Key.space	n/a
241.884	0.104	483768	keystroke_p	p	n/a
242.108	0.088	484216	keystroke_i	i	n/a
242.22	0.136	484440	keystroke_e	e	n/a
242.3	0.128	484600	keystroke_c	c	n/a
242.476	0.08	484952	keystroke_e	e	n/a
242.772	0.088	485544	keystroke_Key.space	Key.space	n/a
243.0115	0.096	486023	keystroke_p	p	n/a
243.3555	0.136	486711	keystroke_r	r	n/a
243.4755	0.064	486951	keystroke_e	e	n/a
243.6595	0.072	487319	keystroke_s	s	n/a
243.8195	0.072	487639	keystroke_s	s	n/a
243.9075	0.088	487815	keystroke_u	u	n/a
244.0195	0.12	488039	keystroke_r	r	n/a
244.0835	0.072	488167	keystroke_e	e	n/a
244.2355	0.088	488471	keystroke_Key.enter	Key.enter	n/a
244.328	7.901	488656	prompt	n/a	listening kingston designer deserve\n
244.948	0.0715	489896	keystroke_l	l	n/a
245.1555	0.064	490311	keystroke_i	i	n/a
245.2275	0.072	490455	keystroke_s	s	n/a
245.3955	0.088	490791	keystroke_t	t	n/a
245.5315	0.072	491063	keystroke_e	e	n/a
245.6755	0.056	491351	keystroke_n	n	n/a
245.828	0.064	491656	keystroke_i	i	n/a
245.988	0.088	491976	keystroke_n	n	n/a
246.124	0.08	492248	keystroke_g	g	n/a
246.244	0.088	492488	keystroke_Key.space	Key.space	n/a
246.5555	0.064	493111	keystroke_k	k	n/a
246.7635	0.024	493527	keystroke_i	i	n/a
246.8835	0.088	493767	keystroke_n	n	n/a
247.036	0.096	494072	keystroke_g	g	n/a
247.388	0.08	494776	keystroke_s	s	n/a
247.548	0.088	495096	keystroke_t	t	n/a
247.684	0.072	495368	keystroke_o	o	n/a
247.86	0.072	495720	keystroke_n	n	n/a
248.004	0.096	496008	keystroke_Key.space	Key.space	n/a
248.564	0.096	497128	keystroke_d	d	n/a
248.756	0.064	497512	keystroke_e	e	n/a
248.916	0.088	497832	keystroke_s	s	n/a
249.091	0.057	498182	keystroke_i	i	n/a
249.388	0.079	498776	keystroke_n	n	n/a
249.772	0.055	499544	keystroke_Key.backspace	Key.backspace	n/a
249.883	0.072	499766	keystroke_g	g	n/a
250.06	0.079	500120	keystroke_n	n	n/a
250.195	0.136	500390	keystroke_e	e	n/a
250.284	0.087	500568	keystroke_r	r	n/a
250.419	0.072	500838	keystroke_Key.space	Key.space	n/a
250.971	0.0805	501942	keystroke_d	d	n/a
251.1635	0.064	502327	keystroke_e	e	n/a
251.3235	0.136	502647	keystroke_s	s	n/a
251.4915	0.1525	502983	keystroke_e	e	n/a
251.572	0.096	503144	keystroke_r	r	n/a
251.803	0.12	503606	keystroke_v	v	n/a
251.956	0.088	503912	keystroke_e	e	n/a
252.132	0.096	504264	keystroke_Key.enter	Key.enter	n/a
252.233	6.7	504466	prompt	n/a	hills marcus medical volt\n
252.868	0.088	505736	keystroke_h	h	n/a
253.0355	0.08	506071	keystroke_i	i	n/a
253.2275	0.072	506455	keystroke_l	l	n/a
253.4035	0.072	506807	keystroke_l	l	n/a
253.4835	0.064	506967	keystroke_s	s	n/a
253.6195	0.08	507239	keystroke_Key.space	Key.space	n/a
253.8035	0.088	507607	keystroke_m	m	n/a
254.0035	0.12	508007	keystroke_a	a	n/a
254.0915	0.064	508183	keystroke_r	r	n/a
254.2995	0.096	508599	keystroke_c	c	n/a
254.4915	0.08	508983	keystroke_u	u	n/a
254.6275	0.056	509255	keystroke_s	s	n/a
254.7555	0.08	509511	keystroke_Key.space	Key.space	n/a
255.4355	0.08	510871	keystroke_m	m	n/a
255.5875	0.032	511175	keystroke_e	e	n/a
255.7475	0.064	511495	keystroke_d	d	n/a
255.8995	0.056	511799	keystroke_i	i	n/a
255.9715	0.096	511943	keystroke_c	c	n/a
256.0835	0.072	512167	keystroke_a	a	n/a
256.1635	0.096	512327	keystroke_l	l	n/a
256.2755	0.104	512551	keystroke_Key.space	Key.space	n/a
256.4675	0.0885	512935	keystroke_b	b	n/a
256.548	0.071	513096	keystroke_o	o	n/a
256.732	0.08	513464	keystroke_l	l	n/a
257.0835	0.056	514167	keystroke_Key.backspace	Key.backspace	n/a
257.2675	0.024	514535	keystroke_Key.backspace	Key.backspace	n/a
257.3955	0.072	514791	keystroke_Key.backspace	Key.backspace	n/a
257.9875	0.096	515975	keystroke_v	v	n/a
258.1395	0.072	516279	keystroke_o	o	n/a
258.3075	0.088	516615	keystroke_l	l	n/a
258.4275	0.088	516855	keystroke_t	t	n/a
258.8355	0.096	517671	keystroke_Key.enter	Key.enter	n/a
258.936	8.0045	517872	prompt	n/a	skip money metres announce\n
259.6755	0.096	519351	keystroke_s	s	n/a
259.8195	0.064	519639	keystroke_k	k	n/a
259.9875	0.064	519975	keystroke_i	i	n/a
260.3715	0.072	520743	keystroke_p	p	n/a
260.5555	0.064	521111	keystroke_Key.space	Key.space	n/a
260.7155	0.08	521431	keystroke_m	m	n/a
260.8275	0.072	521655	keystroke_o	o	n/a
260.9955	0.072	521991	keystroke_n	n	n/a
261.1315	0.056	522263	keystroke_e	e	n/a
261.2675	0.072	522535	keystroke_y	y	n/a
261.3635	0.096	522727	keystroke_Key.space	Key.space	n/a
261.899	0.088	523798	keystroke_m	m	n/a
262.203	0.0725	524406	keystroke_e	e	n/a
262.411	0.096	524822	keystroke_t	t	n/a
262.651	0.176	525302	keystroke_r	r	n/a
262.779	0.088	525558	keystroke_e	e	n/a
262.979	0.0805	525958	keystroke_s	s	n/a
263.0915	0.096	526183	keystroke_Key.space	Key.space	n/a
265.467	0.056	530934	keystroke_a	a	n/a
265.651	0.032	531302	keystroke_n	n	n/a
265.811	0.048	531622	keystroke_n	n	n/a
266.003	0.152	532006	keystroke_o	o	n/a
266.044	0.112	532088	keystroke_u	u	n/a
266.379	0.105	532758	keystroke_n	n	n/a
266.499	0.1125	532998	keystroke_c	c	n/a
266.5875	0.104	533175	keystroke_e	e	n/a
266.8675	0.072	533735	keystroke_Key.enter	Key.enter	n/a
266.9435	4.3895	533887	prompt	n/a	cell goes coal female\n
267.5715	0.104	535143	keystroke_c	c	n/a
267.755	0.056	535510	keystroke_e	e	n/a
267.851	0.056	535702	keystroke_l	l	n/a
267.995	0.088	535990	keystroke_l	l	n/a
268.107	0.12	536214	keystroke_Key.space	Key.space	n/a
268.235	0.096	536470	keystroke_g	g	n/a
268.299	0.112	536598	keystroke_o	o	n/a
268.42	0.055	536840	keystroke_e	e	n/a
268.587	0.08	537174	keystroke_s	s	n/a
268.675	0.104	537350	keystroke_Key.space	Key.space	n/a
268.811	0.136	537622	keystroke_c	c	n/a
268.939	0.08	537878	keystroke_o	o	n/a
269.083	0.064	538166	keystroke_a	a	n/a
269.1715	0.0715	538343	keystroke_l	l	n/a
269.315	0.08	538630	keystroke_Key.space	Key.space	n/a
270.0035	0.096	540007	keystroke_f	f	n/a
270.1155	0.096	540231	keystroke_e	e	n/a
270.2675	0.048	540535	keystroke_m	m	n/a
270.5235	0.08	541047	keystroke_a	a	n/a
270.6915	0.104	541383	keystroke_l	l	n/a
271.0915	0.08	542183	keystroke_e	e	n/a
271.2515	0.08	542503	keystroke_Key.enter	Key.enter	n/a
271.338	9.227	542676	prompt	n/a	lucky mathematics bath special\n
272.0435	0.0795	544087	keystroke_l	l	n/a
272.283	0.104	544566	keystroke_u	u	n/a
272.435	0.072	544870	keystroke_c	c	n/a
272.547	0.057	545094	keystroke_k	k	n/a
272.771	0.041	545542	keystroke_y	y	n/a
272.883	0.096	545766	keystroke_Key.space	Key.space	n/a
273.843	0.136	547686	keystroke_m	m	n/a
274.019	0.0965	548038	keystroke_a	a	n/a
274.2115	0.072	548423	keystroke_t	t	n/a
274.5795	0.0965	549159	keystroke_h	h	n/a
274.971	0.072	549942	keystroke_e	e	n/a
275.691	0.112	551382	keystroke_m	m	n/a
275.859	0.08	551718	keystroke_a	a	n/a
275.931	0.088	551862	keystroke_t	t	n/a
276.1395	0.088	552279	keystroke_i	i	n/a
276.2755	0.08	552551	keystroke_c	c	n/a
277.1635	0.072	554327	keystroke_s	s	n/a
277.3475	0.096	554695	keystroke_Key.space	Key.space	n/a
278.1315	0.088	556263	keystroke_b	b	n/a
278.2835	0.072	556567	keystroke_a	a	n/a
278.3555	0.112	556711	keystroke_t	t	n/a
278.4515	0.128	556903	keystroke_h	h	n/a
278.5635	0.136	557127	keystroke_Key.space	Key.space	n/a
278.8195	0.096	557639	keystroke_s	s	n/a
278.9555	0.104	557911	keystroke_p	p	n/a
279.0435	0.048	558087	keystroke_e	e	n/a
279.1635	0.136	558327	keystroke_c	c	n/a
279.3155	0.072	558631	keystroke_i	i	n/a
279.5315	0.104	559063	keystroke_a	a	n/a
279.6835	0.096	559367	keystroke_l	l	n/a
280.4835	0.08	560967	keystroke_Key.enter	Key.enter	n/a
280.5725	17.1995	561145	prompt	n/a	become reservoir chose why'd\n
290.235	0.08	580470	keystroke_b	b	n/a
290.363	0.056	580726	keystroke_e	e	n/a
290.547	0.096	581094	keystroke_c	c	n/a
290.635	0.064	581270	keystroke_o	o	n/a
290.795	0.08	581590	keystroke_m	m	n/a
290.923	0.072	581846	keystroke_e	e	n/a
291.011	0.096	582022	keystroke_Key.space	Key.space	n/a
291.2915	0.16	582583	keystroke_r	r	n/a
291.555	0.217	583110	keystroke_s	s	n/a
291.659	0.192	583318	keystroke_e	e	n/a
291.787	0.104	583574	keystroke_r	r	n/a
292.267	0.056	584534	keystroke_=	=	n/a
292.435	0.048	584870	keystroke_Key.backspace	Key.backspace	n/a
293.083	0.072	586166	keystroke_Key.backspace	Key.backspace	n/a
293.235	0.08	586470	keystroke_Key.backspace	Key.backspace	n/a
293.411	0.072	586822	keystroke_Key.backspace	Key.backspace	n/a
293.723	0.072	587446	keystroke_e	e	n/a
293.979	0.12	587958	keystroke_s	s	n/a
294.267	0.152	588534	keystroke_e	e	n/a
294.363	0.072	588726	keystroke_r	r	n/a
294.611	0.104	589222	keystroke_v	v	n/a
294.763	0.2	589526	keystroke_o	o	n/a
294.859	0.112	589718	keystroke_i	i	n/a
295.2835	0.088	590567	keystroke_r	r	n/a
295.4275	0.112	590855	keystroke_Key.space	Key.space	n/a
296.2595	0.12	592519	keystroke_c	c	n/a
296.3875	0.112	592775	keystroke_h	h	n/a
296.4675	0.0955	592935	keystroke_o	o	n/a
296.595	0.136	593190	keystroke_s	s	n/a
296.659	0.104	593318	keystroke_e	e	n/a
296.755	0.12	593510	keystroke_Key.space	Key.space	n/a
296.907	0.096	593814	keystroke_w	w	n/a
297.027	0.088	594054	keystroke_h	h	n/a
297.2105	0.08	594421	keystroke_y	y	n/a
297.4025	0.096	594805	keystroke_'	'	n/a
297.5225	0.056	595045	keystroke_d	d	n/a
297.691	0.08	595382	keystroke_Key.enter	Key.enter	n/a
297.7755	8.957	595551	prompt	n/a	inside frequency stability passwords\n
298.483	0.056	596966	keystroke_i	i	n/a
298.659	0.072	597318	keystroke_n	n	n/a
298.771	0.088	597542	keystroke_s	s	n/a
298.875	0.088	597750	keystroke_i	i	n/a
298.971	0.056	597942	keystroke_d	d	n/a
299.139	0.0485	598278	keystroke_e	e	n/a
299.2355	0.112	598471	keystroke_Key.space	Key.space	n/a
299.5145	0.081	599029	keystroke_f	f	n/a
299.683	0.128	599366	keystroke_r	r	n/a
299.763	0.064	599526	keystroke_e	e	n/a
299.923	0.088	599846	keystroke_q	q	n/a
300.051	0.072	600102	keystroke_u	u	n/a
300.187	0.064	600374	keystroke_e	e	n/a
300.315	0.112	600630	keystroke_n	n	n/a
300.435	0.128	600870	keystroke_c	c	n/a
300.643	0.088	601286	keystroke_y	y	n/a
300.795	0.12	601590	keystroke_Key.space	Key.space	n/a
301.347	0.08	602694	keystroke_s	s	n/a
301.531	0.072	603062	keystroke_t	t	n/a
301.691	0.0875	603382	keystroke_a	a	n/a
301.7945	0.088	603589	keystroke_b	b	n/a
302.0505	0.024	604101	keystroke_9	9	n/a
302.0665	0.056	604133	keystroke_i	i	n/a
302.2345	0.136	604469	keystroke_l	l	n/a
302.3305	0.088	604661	keystroke_i	i	n/a
302.6505	0.04	605301	keystroke_=	=	n/a
302.7945	0.048	605589	keystroke_Key.backspace	Key.backspace	n/a
302.9625	0.056	605925	keystroke_Key.backspace	Key.backspace	n/a
303.1145	0.064	606229	keystroke_Key.backspace	Key.backspace	n/a
303.267	0.064	606534	keystroke_Key.backspace	Key.backspace	n/a
303.419	0.072	606838	keystroke_Key.backspace	Key.backspace	n/a
303.643	0.08	607286	keystroke_i	i	n/a
303.8265	0.104	607653	keystroke_l	l	n/a
303.9795	0.112	607959	keystroke_i	i	n/a
304.1305	0.088	608261	keystroke_t	t	n/a
304.2665	0.08	608533	keystroke_y	y	n/a
304.3785	0.096	608757	keystroke_Key.space	Key.space	n/a
304.9945	0.073	609989	keystroke_p	p	n/a
305.2425	0.104	610485	keystroke_a	a	n/a
305.4185	0.088	610837	keystroke_s	s	n/a
305.5945	0.08	611189	keystroke_s	s	n/a
305.7555	0.12	611511	keystroke_w	w	n/a
305.9235	0.128	611847	keystroke_o	o	n/a
306.0435	0.08	612087	keystroke_r	r	n/a
306.2595	0.16	612519	keystroke_d	d	n/a
306.3795	0.1515	612759	keystroke_s	s	n/a
306.619	0.112	613238	keystroke_Key.enter	Key.enter	n/a
306.736	4.964	613472	prompt	n/a	baths mats bulk dell\n
308.131	0.08	616262	keystroke_b	b	n/a
308.267	0.08	616534	keystroke_a	a	n/a
308.323	0.08	616646	keystroke_t	t	n/a
308.403	0.088	616806	keystroke_h	h	n/a
308.515	0.08	617030	keystroke_s	s	n/a
308.811	0.096	617622	keystroke_Key.space	Key.space	n/a
309.187	0.12	618374	keystroke_m	m	n/a
309.315	0.072	618630	keystroke_a	a	n/a
309.403	0.072	618806	keystroke_t	t	n/a
309.603	0.08	619206	keystroke_s	s	n/a
309.771	0.088	619542	keystroke_Key.space	Key.space	n/a
310.291	0.064	620582	keystroke_b	b	n/a
310.475	0.088	620950	keystroke_u	u	n/a
310.659	0.192	621318	keystroke_l	l	n/a
310.715	0.16	621430	keystroke_k	k	n/a
310.867	0.12	621734	keystroke_Key.space	Key.space	n/a
311.003	0.072	622006	keystroke_d	d	n/a
311.179	0.0485	622358	keystroke_e	e	n/a
311.2835	0.04	622567	keystroke_l	l	n/a
311.4275	0.064	622855	keystroke_l	l	n/a
311.611	0.088	623222	keystroke_Key.enter	Key.enter	n/a
311.704	5.3755	623408	prompt	n/a	coffee tulsa flag paste\n
312.283	0.104	624566	keystroke_c	c	n/a
312.371	0.08	624742	keystroke_o	o	n/a
312.531	0.136	625062	keystroke_f	f	n/a
312.827	0.088	625654	keystroke_f	f	n/a
313.059	0.056	626118	keystroke_e	e	n/a
313.203	0.08	626406	keystroke_e	e	n/a
313.443	0.128	626886	keystroke_Key.space	Key.space	n/a
314.115	0.08	628230	keystroke_t	t	n/a
314.251	0.08	628502	keystroke_u	u	n/a
314.459	0.08	628918	keystroke_l	l	n/a
314.603	0.056	629206	keystroke_s	s	n/a
314.803	0.096	629606	keystroke_a	a	n/a
314.931	0.08	629862	keystroke_Key.space	Key.space	n/a
315.259	0.112	630518	keystroke_f	f	n/a
315.387	0.112	630774	keystroke_l	l	n/a
315.531	0.12	631062	keystroke_a	a	n/a
315.635	0.104	631270	keystroke_g	g	n/a
315.819	0.12	631638	keystroke_Key.space	Key.space	n/a
316.331	0.072	632662	keystroke_p	p	n/a
316.443	0.136	632886	keystroke_a	a	n/a
316.507	0.136	633014	keystroke_s	s	n/a
316.644	0.159	633288	keystroke_t	t	n/a
316.747	0.08	633494	keystroke_e	e	n/a
316.9625	0.112	633925	keystroke_Key.enter	Key.enter	n/a
317.0825	8.3375	634165	prompt	n/a	julian copyrights marshall assuming\n
317.907	0.088	635814	keystroke_j	j	n/a
318.115	0.048	636230	keystroke_u	u	n/a
318.387	0.104	636774	keystroke_l	l	n/a
318.555	0.088	637110	keystroke_i	i	n/a
318.819	0.104	637638	keystroke_a	a	n/a
318.963	0.064	637926	keystroke_n	n	n/a
319.139	0.08	638278	keystroke_Key.space	Key.space	n/a
319.675	0.064	639350	keystroke_c	c	n/a
319.755	0.08	639510	keystroke_o	o	n/a
319.939	0.072	639878	keystroke_p	p	n/a
320.443	0.048	640886	keystroke_y	y	n/a
320.907	0.08	641814	keystroke_r	r	n/a
321.043	0.08	642086	keystroke_i	i	n/a
321.139	0.088	642278	keystroke_g	g	n/a
321.2585	0.088	642517	keystroke_h	h	n/a
321.3475	0.071	642695	keystroke_t	t	n/a
321.4985	0.088	642997	keystroke_s	s	n/a
322.1145	0.08	644229	keystroke_Key.space	Key.space	n/a
322.3225	0.112	644645	keystroke_m	m	n/a
322.4425	0.12	644885	keystroke_a	a	n/a
322.5545	0.112	645109	keystroke_r	r	n/a
322.7865	0.096	645573	keystroke_s	s	n/a
322.9075	0.079	645815	keystroke_h	h	n/a
323.0105	0.104	646021	keystroke_a	a	n/a
323.1305	0.072	646261	keystroke_l	l	n/a
323.2825	0.08	646565	keystroke_l	l	n/a
323.4505	0.104	646901	keystroke_Key.space	Key.space	n/a
323.7705	0.088	647541	keystroke_a	a	n/a
323.9305	0.088	647861	keystroke_s	s	n/a
324.1145	0.08	648229	keystroke_s	s	n/a
324.2025	0.072	648405	keystroke_u	u	n/a
324.4185	0.104	648837	keystroke_m	m	n/a
324.5145	0.08	649029	keystroke_i	i	n/a
324.6985	0.064	649397	keystroke_n	n	n/a
324.7785	0.104	649557	keystroke_g	g	n/a
325.323	0.095	650646	keystroke_Key.enter	Key.enter	n/a
325.423	6.453	650846	prompt	n/a	differ cardiac rebound modern\n
326.3385	0.088	652677	keystroke_d	d	n/a
326.4665	0.0885	652933	keystroke_i	i	n/a
326.595	0.04	653190	keystroke_f	f	n/a
326.747	0.072	653494	keystroke_f	f	n/a
326.931	0.112	653862	keystroke_e	e	n/a
326.995	0.136	653990	keystroke_r	r	n/a
327.147	0.144	654294	keystroke_Key.space	Key.space	n/a
327.355	0.12	654710	keystroke_c	c	n/a
327.611	0.12	655222	keystroke_a	a	n/a
327.699	0.088	655398	keystroke_r	r	n/a
327.891	0.08	655782	keystroke_d	d	n/a
328.019	0.072	656038	keystroke_i	i	n/a
328.115	0.072	656230	keystroke_a	a	n/a
328.283	0.112	656566	keystroke_c	c	n/a
328.435	0.112	656870	keystroke_Key.space	Key.space	n/a
329.195	0.152	658390	keystroke_r	r	n/a
329.29	0.072	658580	keystroke_e	e	n/a
329.594	0.088	659188	keystroke_b	b	n/a
329.762	0.16	659524	keystroke_o	o	n/a
329.834	0.096	659668	keystroke_u	u	n/a
330.042	0.104	660084	keystroke_n	n	n/a
330.155	0.063	660310	keystroke_d	d	n/a
330.45	0.073	660900	keystroke_Key.space	Key.space	n/a
330.747	0.088	661494	keystroke_m	m	n/a
330.915	0.128	661830	keystroke_o	o	n/a
331.003	0.096	662006	keystroke_d	d	n/a
331.267	0.168	662534	keystroke_e	e	n/a
331.371	0.112	662742	keystroke_r	r	n/a
331.475	0.1035	662950	keystroke_n	n	n/a
331.778	0.096	663556	keystroke_Key.enter	Key.enter	n/a
331.8805	9.0995	663761	prompt	n/a	wednesday moment discuss baghdad\n
332.515	0.079	665030	keystroke_w	w	n/a
332.698	0.08	665396	keystroke_e	e	n/a
332.85	0.12	665700	keystroke_n	n	n/a
333.5465	0.072	667093	keystroke_Key.backspace	Key.backspace	n/a
333.6585	0.072	667317	keystroke_d	d	n/a
333.842	0.089	667684	keystroke_n	n	n/a
334.019	0.04	668038	keystroke_e	e	n/a
334.195	0.056	668390	keystroke_s	s	n/a
334.403	0.071	668806	keystroke_d	d	n/a
334.587	0.103	669174	keystroke_a	a	n/a
334.731	0.0795	669462	keystroke_y	y	n/a
335.0105	0.112	670021	keystroke_Key.space	Key.space	n/a
335.811	0.088	671622	keystroke_m	m	n/a
335.939	0.08	671878	keystroke_o	o	n/a
336.131	0.072	672262	keystroke_m	m	n/a
336.282	0.064	672564	keystroke_e	e	n/a
336.378	0.08	672756	keystroke_n	n	n/a
336.691	0.096	673382	keystroke_t	t	n/a
336.851	0.088	673702	keystroke_Key.space	Key.space	n/a
337.587	0.096	675174	keystroke_d	d	n/a
337.715	0.096	675430	keystroke_i	i	n/a
337.931	0.104	675862	keystroke_s	s	n/a
338.171	0.104	676342	keystroke_c	c	n/a
338.331	0.08	676662	keystroke_u	u	n/a
338.45	0.049	676900	keystroke_s	s	n/a
338.595	0.072	677190	keystroke_s	s	n/a
338.722	0.096	677444	keystroke_Key.space	Key.space	n/a
339.211	0.08	678422	keystroke_b	b	n/a
339.378	0.08	678756	keystroke_a	a	n/a
339.834	0.136	679668	keystroke_g	g	n/a
340.05	0.12	680100	keystroke_h	h	n/a
340.394	0.16	680788	keystroke_d	d	n/a
340.602	0.096	681204	keystroke_a	a	n/a
340.666	0.12	681332	keystroke_d	d	n/a
340.858	0.12	681716	keystroke_Key.enter	Key.enter	n/a
340.983	8.357	681966	prompt	n/a	radar duncan celebrate binary\n
341.955	0.104	683910	keystroke_r	r	n/a
342.155	0.088	684310	keystroke_a	a	n/a
342.323	0.072	684646	keystroke_d	d	n/a
342.475	0.136	684950	keystroke_a	a	n/a
342.579	0.128	685158	keystroke_r	r	n/a
342.683	0.096	685366	keystroke_Key.space	Key.space	n/a
343.299	0.0875	686598	keystroke_d	d	n/a
343.4265	0.08	686853	keystroke_u	u	n/a
343.6345	0.08	687269	keystroke_n	n	n/a
343.7065	0.104	687413	keystroke_c	c	n/a
343.8265	0.12	687653	keystroke_a	a	n/a
343.9705	0.064	687941	keystroke_n	n	n/a
344.1225	0.096	688245	keystroke_Key.space	Key.space	n/a
344.6585	0.08	689317	keystroke_d	d	n/a
345.0105	0.056	690021	keystroke_Key.backspace	Key.backspace	n/a
345.0665	0.128	690133	keystroke_c	c	n/a
345.1625	0.104	690325	keystroke_e	e	n/a
345.2745	0.0875	690549	keystroke_l	l	n/a
345.386	0.088	690772	keystroke_e	e	n/a
345.554	0.096	691108	keystroke_b	b	n/a
345.658	0.096	691316	keystroke_r	r	n/a
345.834	0.096	691668	keystroke_a	a	n/a
345.898	0.144	691796	keystroke_t	t	n/a
346.002	0.088	692004	keystroke_e	e	n/a
346.466	0.1125	692932	keystroke_Key.space	Key.space	n/a
346.9705	0.08	693941	keystroke_g	g	n/a
347.386	0.056	694772	keystroke_Key.backspace	Key.backspace	n/a
347.675	0.096	695350	keystroke_b	b	n/a
347.875	0.064	695750	keystroke_i	i	n/a
348.027	0.088	696054	keystroke_n	n	n/a
348.146	0.089	696292	keystroke_e	e	n/a
348.675	0.063	697350	keystroke_Key.backspace	Key.backspace	n/a
348.779	0.096	697558	keystroke_a	a	n/a
348.883	0.12	697766	keystroke_r	r	n/a
349.003	0.08	698006	keystroke_y	y	n/a
349.266	0.0725	698532	keystroke_Key.enter	Key.enter	n/a
349.343	8.3805	698686	prompt	n/a	protocol further settled baptist\n
350.05	0.08	700100	keystroke_p	p	n/a
350.17	0.088	700340	keystroke_r	r	n/a
350.282	0.064	700564	keystroke_o	o	n/a
350.394	0.072	700788	keystroke_t	t	n/a
350.482	0.072	700964	keystroke_o	o	n/a
350.626	0.064	701252	keystroke_c	c	n/a
350.866	0.064	701732	keystroke_o	o	n/a
351.034	0.072	702068	keystroke_l	l	n/a
351.154	0.08	702308	keystroke_Key.space	Key.space	n/a
351.618	0.112	703236	keystroke_f	f	n/a
351.746	0.064	703492	keystroke_i	i	n/a
351.826	0.088	703652	keystroke_r	r	n/a
352.002	0.104	704004	keystroke_t	t	n/a
352.322	0.056	704644	keystroke_Key.backspace	Key.backspace	n/a
352.474	0.056	704948	keystroke_Key.backspace	Key.backspace	n/a
352.634	0.064	705268	keystroke_Key.backspace	Key.backspace	n/a
352.85	0.088	705700	keystroke_u	u	n/a
352.97	0.088	705940	keystroke_r	r	n/a
353.146	0.104	706292	keystroke_t	t	n/a
353.234	0.088	706468	keystroke_h	h	n/a
353.338	0.112	706676	keystroke_e	e	n/a
353.418	0.088	706836	keystroke_r	r	n/a
353.474	0.096	706948	keystroke_Key.space	Key.space	n/a
354.13	0.064	708260	keystroke_s	s	n/a
354.274	0.088	708548	keystroke_e	e	n/a
354.442	0.096	708884	keystroke_t	t	n/a
354.618	0.128	709236	keystroke_t	t	n/a
354.714	0.088	709428	keystroke_l	l	n/a
354.818	0.064	709636	keystroke_e	e	n/a
354.986	0.072	709972	keystroke_d	d	n/a
355.106	0.104	710212	keystroke_Key.space	Key.space	n/a
356.018	0.088	712036	keystroke_b	b	n/a
356.186	0.104	712372	keystroke_a	a	n/a
356.386	0.096	712772	keystroke_p	p	n/a
356.5945	0.08	713189	keystroke_t	t	n/a
356.9705	0.08	713941	keystroke_i	i	n/a
357.0985	0.208	714197	keystroke_s	s	n/a
357.2905	0.136	714581	keystroke_t	t	n/a
357.6025	0.1195	715205	keystroke_Key.enter	Key.enter	n/a
357.7265	7.837	715453	prompt	n/a	bread pakistan warning peterson\n
358.49	0.096	716980	keystroke_b	b	n/a
358.57	0.128	717140	keystroke_r	r	n/a
358.642	0.048	717284	keystroke_e	e	n/a
358.786	0.12	717572	keystroke_a	a	n/a
358.93	0.064	717860	keystroke_k	k	n/a
359.138	0.104	718276	keystroke_Key.space	Key.space	n/a
359.6425	0.0955	719285	keystroke_p	p	n/a
359.994	0.056	719988	keystroke_Key.backspace	Key.backspace	n/a
360.154	0.056	720308	keystroke_Key.backspace	Key.backspace	n/a
360.33	0.064	720660	keystroke_Key.backspace	Key.backspace	n/a
360.45	0.072	720900	keystroke_d	d	n/a
360.53	0.112	721060	keystroke_Key.space	Key.space	n/a
360.69	0.112	721380	keystroke_p	p	n/a
360.85	0.064	721700	keystroke_a	a	n/a
361.194	0.08	722388	keystroke_k	k	n/a
361.402	0.072	722804	keystroke_i	i	n/a
361.514	0.088	723028	keystroke_s	s	n/a
361.7065	0.0875	723413	keystroke_t	t	n/a
361.874	0.112	723748	keystroke_a	a	n/a
361.978	0.08	723956	keystroke_n	n	n/a
362.154	0.12	724308	keystroke_Key.space	Key.space	n/a
362.73	0.112	725460	keystroke_w	w	n/a
362.962	0.112	725924	keystroke_a	a	n/a
363.034	0.12	726068	keystroke_r	r	n/a
363.186	0.072	726372	keystroke_n	n	n/a
363.386	0.072	726772	keystroke_i	i	n/a
363.562	0.08	727124	keystroke_n	n	n/a
363.698	0.0885	727396	keystroke_g	g	n/a
363.8025	0.104	727605	keystroke_Key.space	Key.space	n/a
364.1065	0.104	728213	keystroke_p	p	n/a
364.2265	0.08	728453	keystroke_e	e	n/a
364.3945	0.112	728789	keystroke_t	t	n/a
364.5465	0.112	729093	keystroke_e	e	n/a
364.6265	0.096	729253	keystroke_r	r	n/a
364.7945	0.104	729589	keystroke_s	s	n/a
364.9065	0.072	729813	keystroke_o	o	n/a
365.0825	0.04	730165	keystroke_n	n	n/a
365.482	0.08	730964	keystroke_Key.enter	Key.enter	n/a
365.566	5.621	731132	prompt	n/a	once papua bright festival\n
366.2335	0.064	732467	keystroke_o	o	n/a
366.4095	0.088	732819	keystroke_n	n	n/a
366.5135	0.145	733027	keystroke_c	c	n/a
366.6105	0.088	733221	keystroke_e	e	n/a
366.714	0.12	733428	keystroke_Key.space	Key.space	n/a
366.874	0.096	733748	keystroke_p	p	n/a
366.986	0.088	733972	keystroke_a	a	n/a
367.106	0.08	734212	keystroke_p	p	n/a
367.306	0.1285	734612	keystroke_u	u	n/a
367.5065	0.08	735013	keystroke_a	a	n/a
367.6825	0.112	735365	keystroke_Key.space	Key.space	n/a
368.1465	0.096	736293	keystroke_b	b	n/a
368.2425	0.08	736485	keystroke_r	r	n/a
368.3545	0.088	736709	keystroke_i	i	n/a
368.4505	0.096	736901	keystroke_g	g	n/a
368.5625	0.104	737125	keystroke_h	h	n/a
368.6585	0.088	737317	keystroke_t	t	n/a
368.7625	0.112	737525	keystroke_Key.space	Key.space	n/a
369.0505	0.144	738101	keystroke_f	f	n/a
369.1625	0.112	738325	keystroke_e	e	n/a
369.3465	0.1275	738693	keystroke_s	s	n/a
369.434	0.12	738868	keystroke_t	t	n/a
369.57	0.096	739140	keystroke_i	i	n/a
369.858	0.112	739716	keystroke_b	b	n/a
370.098	0.104	740196	keystroke_v	v	n/a
370.378	0.056	740756	keystroke_Key.backspace	Key.backspace	n/a
370.538	0.056	741076	keystroke_Key.backspace	Key.backspace	n/a
370.61	0.096	741220	keystroke_v	v	n/a
370.658	0.136	741316	keystroke_a	a	n/a
370.778	0.096	741556	keystroke_l	l	n/a
371.082	0.104	742164	keystroke_Key.enter	Key.enter	n/a
371.1955	16.592	742391	prompt	n/a	sunshine southern companies expansys\n
373.882	0.08	747764	keystroke_s	s	n/a
374.002	0.08	748004	keystroke_u	u	n/a
374.21	0.072	748420	keystroke_n	n	n/a
374.33	0.08	748660	keystroke_s	s	n/a
374.474	0.104	748948	keystroke_h	h	n/a
374.546	0.072	749092	keystroke_i	i	n/a
374.706	0.072	749412	keystroke_n	n	n/a
374.834	0.104	749668	keystroke_Key.space	Key.space	n/a
375.5295	0.08	751059	keystroke_s	s	n/a
375.8495	0.056	751699	keystroke_Key.backspace	Key.backspace	n/a
376.0015	0.064	752003	keystroke_Key.backspace	Key.backspace	n/a
376.0975	0.056	752195	keystroke_e	e	n/a
376.2095	0.072	752419	keystroke_Key.space	Key.space	n/a
376.3135	0.096	752627	keystroke_s	s	n/a
377.202	0.096	754404	keystroke_u	u	n/a
377.5465	0.064	755093	keystroke_=	=	n/a
378.3945	0.072	756789	keystroke_Key.backspace	Key.backspace	n/a
378.7785	0.064	757557	keystroke_Key.backspace	Key.backspace	n/a
378.9385	0.064	757877	keystroke_Key.backspace	Key.backspace	n/a
379.2905	0.1675	758581	keystroke_o	o	n/a
379.4185	0.1035	758837	keystroke_u	u	n/a
379.554	0.096	759108	keystroke_t	t	n/a
379.658	0.112	759316	keystroke_h	h	n/a
380.322	0.064	760644	keystroke_Key.backspace	Key.backspace	n/a
380.482	0.064	760964	keystroke_Key.backspace	Key.backspace	n/a
380.634	0.064	761268	keystroke_Key.backspace	Key.backspace	n/a
380.794	0.064	761588	keystroke_Key.backspace	Key.backspace	n/a
380.874	0.072	761748	keystroke_s	s	n/a
381.074	0.16	762148	keystroke_o	o	n/a
381.154	0.112	762308	keystroke_u	u	n/a
381.282	0.12	762564	keystroke_t	t	n/a
381.458	0.1035	762916	keystroke_h	h	n/a
381.5775	0.128	763155	keystroke_e	e	n/a
381.6575	0.096	763315	keystroke_r	r	n/a
381.7935	0.088	763587	keystroke_n	n	n/a
381.9375	0.112	763875	keystroke_Key.space	Key.space	n/a
382.5775	0.128	765155	keystroke_c	c	n/a
382.6895	0.056	765379	keystroke_o	o	n/a
382.8575	0.104	765715	keystroke_m	m	n/a
382.9535	0.08	765907	keystroke_p	p	n/a
383.0735	0.104	766147	keystroke_a	a	n/a
383.1695	0.056	766339	keystroke_n	n	n/a
383.442	0.072	766884	keystroke_i	i	n/a
383.57	0.056	767140	keystroke_e	e	n/a
383.73	0.056	767460	keystroke_s	s	n/a
383.826	0.112	767652	keystroke_Key.space	Key.space	n/a
384.282	0.056	768564	keystroke_e	e	n/a
384.482	0.104	768964	keystroke_x	x	n/a
384.722	0.128	769444	keystroke_a	a	n/a
385.13	0.08	770260	keystroke_p	p	n/a
385.5615	0.016	771123	keystroke_Key.backspace	Key.backspace	n/a
385.6975	0.048	771395	keystroke_Key.backspace	Key.backspace	n/a
385.9215	0.072	771843	keystroke_p	p	n/a
386.0655	0.12	772131	keystroke_a	a	n/a
386.2095	0.08	772419	keystroke_n	n	n/a
386.954	0.136	773908	keystroke_s	s	n/a
387.242	0.088	774484	keystroke_y	y	n/a
387.37	0.096	774740	keystroke_s	s	n/a
387.6975	0.088	775395	keystroke_Key.enter	Key.enter	n/a
387.791	7.108	775582	prompt	n/a	stops copyrights connectors laptop\n
388.3215	0.08	776643	keystroke_s	s	n/a
388.4975	0.128	776995	keystroke_t	t	n/a
388.7615	0.072	777523	keystroke_o	o	n/a
388.9535	0.08	777907	keystroke_p	p	n/a
389.0495	0.088	778099	keystroke_s	s	n/a
389.1855	0.104	778371	keystroke_Key.space	Key.space	n/a
389.4255	0.112	778851	keystroke_c	c	n/a
389.5055	0.08	779011	keystroke_o	o	n/a
389.6815	0.0805	779363	keystroke_p	p	n/a
389.89	0.064	779780	keystroke_y	y	n/a
390.13	0.096	780260	keystroke_r	r	n/a
390.306	0.088	780612	keystroke_i	i	n/a
390.402	0.12	780804	keystroke_g	g	n/a
390.5375	0.096	781075	keystroke_h	h	n/a
390.6495	0.152	781299	keystroke_t	t	n/a
390.7935	0.072	781587	keystroke_s	s	n/a
390.9135	0.088	781827	keystroke_Key.space	Key.space	n/a
391.4895	0.1205	782979	keystroke_c	c	n/a
391.626	0.064	783252	keystroke_o	o	n/a
391.81	0.04	783620	keystroke_n	n	n/a
391.962	0.08	783924	keystroke_n	n	n/a
392.034	0.152	784068	keystroke_e	e	n/a
392.09	0.104	784180	keystroke_c	c	n/a
392.314	0.096	784628	keystroke_t	t	n/a
392.474	0.08	784948	keystroke_o	o	n/a
392.602	0.144	785204	keystroke_r	r	n/a
392.69	0.096	785380	keystroke_s	s	n/a
393.138	0.096	786276	keystroke_Key.space	Key.space	n/a
393.7055	0.0965	787411	keystroke_l	l	n/a
393.841	0.097	787682	keystroke_a	a	n/a
393.946	0.088	787892	keystroke_p	p	n/a
394.154	0.096	788308	keystroke_t	t	n/a
394.385	0.176	788770	keystroke_o	o	n/a
394.474	0.112	788948	keystroke_p	p	n/a
394.833	0.064	789666	keystroke_Key.enter	Key.enter	n/a
394.903	8.004	789806	prompt	n/a	divisions legal armenia graphs\n
395.5535	0.096	791107	keystroke_d	d	n/a
395.6575	0.08	791315	keystroke_i	i	n/a
395.794	0.08	791588	keystroke_v	v	n/a
395.874	0.064	791748	keystroke_i	i	n/a
396.018	0.104	792036	keystroke_s	s	n/a
396.114	0.184	792228	keystroke_i	i	n/a
396.234	0.136	792468	keystroke_o	o	n/a
396.426	0.096	792852	keystroke_n	n	n/a
396.5695	0.096	793139	keystroke_s	s	n/a
396.7615	0.112	793523	keystroke_Key.space	Key.space	n/a
397.1535	0.112	794307	keystroke_l	l	n/a
397.3055	0.088	794611	keystroke_e	e	n/a
397.578	0.088	795156	keystroke_g	g	n/a
397.81	0.112	795620	keystroke_a	a	n/a
397.946	0.08	795892	keystroke_l	l	n/a
398.098	0.104	796196	keystroke_Key.space	Key.space	n/a
398.298	0.112	796596	keystroke_a	a	n/a
398.442	0.096	796884	keystroke_r	r	n/a
398.69	0.104	797380	keystroke_m	m	n/a
398.882	0.096	797764	keystroke_e	e	n/a
398.986	0.088	797972	keystroke_n	n	n/a
399.194	0.088	798388	keystroke_i	i	n/a
399.33	0.096	798660	keystroke_a	a	n/a
399.466	0.087	798932	keystroke_Key.space	Key.space	n/a
400.009	0.089	800018	keystroke_p	p	n/a
400.521	0.121	801042	keystroke_r	r	n/a
401.009	0.056	802018	keystroke_Key.backspace	Key.backspace	n/a
401.169	0.08	802338	keystroke_Key.backspace	Key.backspace	n/a
401.345	0.112	802690	keystroke_g	g	n/a
401.634	0.08	803268	keystroke_r	r	n/a
401.938	0.128	803876	keystroke_a	a	n/a
402.162	0.072	804324	keystroke_p	p	n/a
402.402	0.072	804804	keystroke_h	h	n/a
402.522	0.08	805044	keystroke_s	s	n/a
402.8495	0.056	805699	keystroke_Key.enter	Key.enter	n/a
402.9095	6.3975	805819	prompt	n/a	tanks network initial another\n
403.5215	0.0955	807043	keystroke_t	t	n/a
403.69	0.127	807380	keystroke_a	a	n/a
403.777	0.129	807554	keystroke_n	n	n/a
403.849	0.08	807698	keystroke_k	k	n/a
403.945	0.104	807890	keystroke_s	s	n/a
404.065	0.104	808130	keystroke_Key.space	Key.space	n/a
404.497	0.136	808994	keystroke_t	t	n/a
404.586	0.087	809172	keystroke_e	e	n/a
405.017	0.056	810034	keystroke_Key.backspace	Key.backspace	n/a
405.177	0.064	810354	keystroke_Key.backspace	Key.backspace	n/a
405.393	0.096	810786	keystroke_n	n	n/a
405.521	0.136	811042	keystroke_e	e	n/a
405.601	0.128	811202	keystroke_t	t	n/a
405.906	0.111	811812	keystroke_w	w	n/a
406.033	0.072	812066	keystroke_o	o	n/a
406.121	0.112	812242	keystroke_r	r	n/a
406.241	0.072	812482	keystroke_k	k	n/a
406.425	0.088	812850	keystroke_Key.space	Key.space	n/a
406.882	0.072	813764	keystroke_i	i	n/a
407.05	0.088	814100	keystroke_n	n	n/a
407.146	0.088	814292	keystroke_i	i	n/a
407.242	0.088	814484	keystroke_t	t	n/a
407.394	0.104	814788	keystroke_i	i	n/a
407.593	0.104	815186	keystroke_a	a	n/a
407.753	0.08	815506	keystroke_l	l	n/a
407.937	0.096	815874	keystroke_Key.space	Key.space	n/a
408.241	0.088	816482	keystroke_a	a	n/a
408.393	0.081	816786	keystroke_n	n	n/a
408.561	0.112	817122	keystroke_o	o	n/a
408.681	0.112	817362	keystroke_t	t	n/a
408.809	0.088	817618	keystroke_h	h	n/a
408.889	0.12	817778	keystroke_e	e	n/a
408.961	0.104	817922	keystroke_r	r	n/a
409.209	0.096	818418	keystroke_Key.enter	Key.enter	n/a
409.3095	5.3655	818619	prompt	n/a	worry watson imagine discussed\n
409.9135	0.112	819827	keystroke_w	w	n/a
410.0175	0.104	820035	keystroke_o	o	n/a
410.1225	0.095	820245	keystroke_r	r	n/a
410.2895	0.112	820579	keystroke_r	r	n/a
410.4255	0.128	820851	keystroke_y	y	n/a
410.5215	0.12	821043	keystroke_Key.space	Key.space	n/a
410.7135	0.104	821427	keystroke_w	w	n/a
410.9695	0.104	821939	keystroke_a	a	n/a
411.1695	0.12	822339	keystroke_t	t	n/a
411.4975	0.0875	822995	keystroke_s	s	n/a
411.665	0.072	823330	keystroke_o	o	n/a
411.857	0.12	823714	keystroke_n	n	n/a
411.969	0.112	823938	keystroke_Key.space	Key.space	n/a
412.097	0.064	824194	keystroke_i	i	n/a
412.257	0.096	824514	keystroke_m	m	n/a
412.433	0.08	824866	keystroke_a	a	n/a
412.482	0.135	824964	keystroke_g	g	n/a
412.641	0.072	825282	keystroke_i	i	n/a
412.793	0.088	825586	keystroke_n	n	n/a
412.929	0.096	825858	keystroke_e	e	n/a
413.065	0.096	826130	keystroke_Key.space	Key.space	n/a
413.193	0.096	826386	keystroke_d	d	n/a
413.313	0.088	826626	keystroke_i	i	n/a
413.425	0.064	826850	keystroke_s	s	n/a
413.5695	0.144	827139	keystroke_c	c	n/a
413.7215	0.08	827443	keystroke_u	u	n/a
414.0015	0.064	828003	keystroke_s	s	n/a
414.1535	0.072	828307	keystroke_s	s	n/a
414.3135	0.04	828627	keystroke_e	e	n/a
414.4575	0.096	828915	keystroke_d	d	n/a
414.6015	0.072	829203	keystroke_Key.enter	Key.enter	n/a
414.678	5.701	829356	prompt	n/a	dock drag wishes traditions\n
415.4655	0.096	830931	keystroke_d	d	n/a
415.594	0.071	831188	keystroke_o	o	n/a
415.6975	0.12	831395	keystroke_c	c	n/a
415.8575	0.08	831715	keystroke_k	k	n/a
416.0415	0.096	832083	keystroke_Key.space	Key.space	n/a
416.1775	0.056	832355	keystroke_d	d	n/a
416.3295	0.12	832659	keystroke_r	r	n/a
416.569	0.128	833138	keystroke_a	a	n/a
416.689	0.137	833378	keystroke_g	g	n/a
416.809	0.096	833618	keystroke_Key.space	Key.space	n/a
417.105	0.089	834210	keystroke_w	w	n/a
417.225	0.088	834450	keystroke_i	i	n/a
417.329	0.096	834658	keystroke_s	s	n/a
417.6575	0.096	835315	keystroke_h	h	n/a
417.8335	0.048	835667	keystroke_e	e	n/a
417.9935	0.064	835987	keystroke_s	s	n/a
418.1135	0.104	836227	keystroke_Key.space	Key.space	n/a
418.6255	0.072	837251	keystroke_t	t	n/a
418.7695	0.104	837539	keystroke_r	r	n/a
418.9375	0.08	837875	keystroke_a	a	n/a
419.3535	0.088	838707	keystroke_d	d	n/a
419.5055	0.056	839011	keystroke_i	i	n/a
419.593	0.121	839186	keystroke_t	t	n/a
419.697	0.193	839394	keystroke_i	i	n/a
419.818	0.12	839636	keystroke_o	o	n/a
419.994	0.096	839988	keystroke_n	n	n/a
420.066	0.088	840132	keystroke_s	s	n/a
420.306	0.072	840612	keystroke_Key.enter	Key.enter	n/a
420.3835	7.059	840767	prompt	n/a	franklin entrance somewhere catherine\n
421.042	0.112	842084	keystroke_f	f	n/a
421.25	0.104	842500	keystroke_r	r	n/a
421.394	0.112	842788	keystroke_a	a	n/a
421.498	0.1355	842996	keystroke_n	n	n/a
421.5855	0.088	843171	keystroke_k	k	n/a
421.793	0.104	843586	keystroke_l	l	n/a
422.049	0.081	844098	keystroke_i	i	n/a
422.241	0.073	844482	keystroke_n	n	n/a
422.417	0.088	844834	keystroke_Key.space	Key.space	n/a
422.593	0.097	845186	keystroke_e	e	n/a
422.721	0.072	845442	keystroke_n	n	n/a
422.801	0.096	845602	keystroke_t	t	n/a
422.986	0.055	845972	keystroke_r	r	n/a
423.178	0.103	846356	keystroke_a	a	n/a
423.305	0.088	846610	keystroke_n	n	n/a
423.401	0.145	846802	keystroke_c	c	n/a
423.466	0.1275	846932	keystroke_e	e	n/a
423.5935	0.12	847187	keystroke_Key.space	Key.space	n/a
423.9615	0.0885	847923	keystroke_s	s	n/a
424.05	0.096	848100	keystroke_o	o	n/a
424.242	0.096	848484	keystroke_m	m	n/a
424.37	0.088	848740	keystroke_e	e	n/a
424.594	0.096	849188	keystroke_w	w	n/a
424.882	0.136	849764	keystroke_h	h	n/a
425.098	0.1035	850196	keystroke_e	e	n/a
425.2095	0.152	850419	keystroke_r	r	n/a
425.3055	0.096	850611	keystroke_e	e	n/a
425.4335	0.111	850867	keystroke_Key.space	Key.space	n/a
425.977	0.12	851954	keystroke_c	c	n/a
426.177	0.104	852354	keystroke_a	a	n/a
426.321	0.144	852642	keystroke_t	t	n/a
426.489	0.0885	852978	keystroke_h	h	n/a
426.5855	0.12	853171	keystroke_e	e	n/a
426.6495	0.112	853299	keystroke_r	r	n/a
426.7775	0.072	853555	keystroke_i	i	n/a
426.9135	0.104	853827	keystroke_n	n	n/a
427.0655	0.08	854131	keystroke_e	e	n/a
427.3455	0.096	854691	keystroke_Key.enter	Key.enter	n/a
427.445	15.0295	854890	prompt	n/a	sellers enrollment optimize safety\n
428.057	0.064	856114	keystroke_s	s	n/a
428.209	0.064	856418	keystroke_e	e	n/a
428.321	0.08	856642	keystroke_l	l	n/a
428.497	0.096	856994	keystroke_l	l	n/a
428.626	0.055	857252	keystroke_s	s	n/a
428.865	0.16	857730	keystroke_e	e	n/a
428.945	0.128	857890	keystroke_r	r	n/a
429.249	0.048	858498	keystroke_=	=	n/a
429.5855	0.056	859171	keystroke_Key.backspace	Key.backspace	n/a
429.9215	0.04	859843	keystroke_Key.backspace	Key.backspace	n/a
430.0655	0.072	860131	keystroke_Key.backspace	Key.backspace	n/a
430.2335	0.08	860467	keystroke_Key.backspace	Key.backspace	n/a
430.3055	0.12	860611	keystroke_e	e	n/a
430.3695	0.152	860739	keystroke_r	r	n/a
430.4975	0.104	860995	keystroke_s	s	n/a
430.5935	0.096	861187	keystroke_Key.space	Key.space	n/a
432.8415	0.032	865683	keystroke_e	e	n/a
433.3455	0.112	866691	keystroke_n	n	n/a
433.5375	0.08	867075	keystroke_r	r	n/a
433.69	0.079	867380	keystroke_o	o	n/a
434.081	0.048	868162	keystroke_l	l	n/a
434.226	0.103	868452	keystroke_l	l	n/a
434.41	0.12	868820	keystroke_m	m	n/a
434.538	0.087	869076	keystroke_e	e	n/a
434.617	0.112	869234	keystroke_n	n	n/a
434.769	0.104	869538	keystroke_t	t	n/a
434.849	0.112	869698	keystroke_Key.space	Key.space	n/a
435.497	0.056	870994	keystroke_o	o	n/a
436.041	0.12	872082	keystroke_p	p	n/a
436.193	0.096	872386	keystroke_t	t	n/a
436.6495	0.08	873299	keystroke_i	i	n/a
436.8975	0.088	873795	keystroke_m	m	n/a
437.0975	0.12	874195	keystroke_i	i	n/a
437.2095	0.104	874419	keystroke_z	z	n/a
437.5135	0.096	875027	keystroke_e	e	n/a
437.665	0.08	875330	keystroke_Key.space	Key.space	n/a
438.017	0.096	876034	keystroke_s	s	n/a
438.201	0.128	876402	keystroke_a	a	n/a
438.305	0.144	876610	keystroke_f	f	n/a
438.601	0.112	877202	keystroke_t	t	n/a
439.025	0.112	878050	keystroke_=	=	n/a
439.153	0.088	878306	keystroke_e	e	n/a
439.185	0.136	878370	keystroke_t	t	n/a
439.745	0.04	879490	keystroke_Key.backspace	Key.backspace	n/a
440.393	0.072	880786	keystroke_Key.backspace	Key.backspace	n/a
440.561	0.072	881122	keystroke_Key.backspace	Key.backspace	n/a
440.721	0.08	881442	keystroke_Key.backspace	Key.backspace	n/a
440.905	0.072	881810	keystroke_Key.backspace	Key.backspace	n/a
441.489	0.1045	882978	keystroke_f	f	n/a
441.6965	0.064	883393	keystroke_e	e	n/a
441.8485	0.089	883697	keystroke_t	t	n/a
441.9845	0.096	883969	keystroke_y	y	n/a
442.3925	0.08	884785	keystroke_Key.enter	Key.enter	n/a
442.477	6.5575	884954	prompt	n/a	trance rule size politics\n
443.0565	0.089	886113	keystroke_t	t	n/a
443.2245	0.081	886449	keystroke_r	r	n/a
443.3765	0.056	886753	keystroke_q	q	n/a
443.4725	0.088	886945	keystroke_n	n	n/a
443.905	0.056	887810	keystroke_Key.backspace	Key.backspace	n/a
444.057	0.064	888114	keystroke_Key.backspace	Key.backspace	n/a
444.161	0.096	888322	keystroke_a	a	n/a
444.297	0.064	888594	keystroke_n	n	n/a
444.369	0.136	888738	keystroke_c	c	n/a
444.433	0.12	888866	keystroke_e	e	n/a
444.545	0.104	889090	keystroke_Key.space	Key.space	n/a
444.969	0.128	889938	keystroke_f	f	n/a
445.457	0.064	890914	keystroke_Key.backspace	Key.backspace	n/a
445.529	0.1045	891058	keystroke_r	r	n/a
445.6655	0.0715	891331	keystroke_u	u	n/a
445.8565	0.072	891713	keystroke_l	l	n/a
445.9605	0.072	891921	keystroke_e	e	n/a
446.0805	0.096	892161	keystroke_Key.space	Key.space	n/a
446.217	0.0555	892434	keystroke_s	s	n/a
446.3045	0.088	892609	keystroke_i	i	n/a
446.4725	0.081	892945	keystroke_z	z	n/a
446.6575	0.072	893315	keystroke_e	e	n/a
446.7695	0.112	893539	keystroke_Key.space	Key.space	n/a
446.9615	0.104	893923	keystroke_p	p	n/a
447.1855	0.072	894371	keystroke_o	o	n/a
447.5055	0.096	895011	keystroke_l	l	n/a
447.713	0.072	895426	keystroke_i	i	n/a
447.977	0.04	895954	keystroke_t	t	n/a
448.273	0.0795	896546	keystroke_i	i	n/a
448.4405	0.144	896881	keystroke_c	c	n/a
448.5285	0.105	897057	keystroke_s	s	n/a
448.6885	0.104	897377	keystroke_Key.space	Key.space	n/a
448.969	0.064	897938	keystroke_Key.enter	Key.enter	n/a
449.0395	7.723	898079	prompt	n/a	paintball joined trainers range\n
449.6565	0.1125	899313	keystroke_p	p	n/a
449.801	0.104	899602	keystroke_a	a	n/a
449.921	0.064	899842	keystroke_i	i	n/a
450.081	0.096	900162	keystroke_n	n	n/a
450.193	0.104	900386	keystroke_t	t	n/a
450.497	0.0955	900994	keystroke_b	b	n/a
450.6335	0.088	901267	keystroke_a	a	n/a
450.7455	0.08	901491	keystroke_l	l	n/a
450.8975	0.08	901795	keystroke_l	l	n/a
451.0655	0.103	902131	keystroke_Key.space	Key.space	n/a
451.4565	0.104	902913	keystroke_j	j	n/a
451.6085	0.201	903217	keystroke_o	o	n/a
451.705	0.0965	903410	keystroke_i	i	n/a
451.8975	0.096	903795	keystroke_n	n	n/a
451.9775	0.056	903955	keystroke_e	e	n/a
452.1535	0.104	904307	keystroke_d	d	n/a
452.2495	0.112	904499	keystroke_Key.space	Key.space	n/a
452.4895	0.096	904979	keystroke_t	t	n/a
452.6575	0.104	905315	keystroke_r	r	n/a
452.8095	0.08	905619	keystroke_q	q	n/a
452.9215	0.08	905843	keystroke_i	i	n/a
453.1055	0.112	906211	keystroke_n	n	n/a
453.2095	0.12	906419	keystroke_e	e	n/a
453.4735	0.063	906947	keystroke_Key.backspace	Key.backspace	n/a
453.6415	0.071	907283	keystroke_Key.backspace	Key.backspace	n/a
453.8165	0.08	907633	keystroke_Key.backspace	Key.backspace	n/a
453.9925	0.048	907985	keystroke_Key.backspace	Key.backspace	n/a
454.0245	0.112	908049	keystroke_a	a	n/a
454.4565	0.072	908913	keystroke_i	i	n/a
454.6565	0.096	909313	keystroke_n	n	n/a
454.7605	0.112	909521	keystroke_e	e	n/a
454.8245	0.112	909649	keystroke_r	r	n/a
454.9285	0.097	909857	keystroke_s	s	n/a
455.0485	0.097	910097	keystroke_Key.space	Key.space	n/a
455.6085	0.0805	911217	keystroke_p	p	n/a
455.9045	0.073	911809	keystroke_Key.backspace	Key.backspace	n/a
455.9855	0.064	911971	keystroke_r	r	n/a
456.1295	0.128	912259	keystroke_a	a	n/a
456.2415	0.088	912483	keystroke_n	n	n/a
456.3375	0.12	912675	keystroke_g	g	n/a
456.4575	0.0875	912915	keystroke_e	e	n/a
456.657	0.104	913314	keystroke_Key.enter	Key.enter	n/a
456.765	5.4215	913530	prompt	n/a	girl wishlist nursing channel\n
457.641	0.088	915282	keystroke_g	g	n/a
457.737	0.064	915474	keystroke_i	i	n/a
457.841	0.104	915682	keystroke_r	r	n/a
457.993	0.072	915986	keystroke_l	l	n/a
458.129	0.12	916258	keystroke_Key.space	Key.space	n/a
458.241	0.096	916482	keystroke_w	w	n/a
458.353	0.088	916706	keystroke_i	i	n/a
458.489	0.072	916978	keystroke_s	s	n/a
458.593	0.088	917186	keystroke_h	h	n/a
458.889	0.056	917778	keystroke_l	l	n/a
459.057	0.088	918114	keystroke_i	i	n/a
459.209	0.136	918418	keystroke_s	s	n/a
459.281	0.12	918562	keystroke_t	t	n/a
459.377	0.112	918754	keystroke_Key.space	Key.space	n/a
459.7765	0.072	919553	keystroke_n	n	n/a
459.9695	0.088	919939	keystroke_u	u	n/a
460.0895	0.096	920179	keystroke_r	r	n/a
460.2965	0.097	920593	keystroke_s	s	n/a
460.4725	0.112	920945	keystroke_h	h	n/a
460.5775	0.072	921155	keystroke_i	i	n/a
460.7525	0.096	921505	keystroke_n	n	n/a
460.8895	0.103	921779	keystroke_g	g	n/a
461.0015	0.111	922003	keystroke_Key.space	Key.space	n/a
461.1525	0.105	922305	keystroke_c	c	n/a
461.2645	0.088	922529	keystroke_h	h	n/a
461.3685	0.081	922737	keystroke_a	a	n/a
461.4725	0.0725	922945	keystroke_n	n	n/a
461.641	0.08	923282	keystroke_n	n	n/a
461.761	0.088	923522	keystroke_e	e	n/a
461.865	0.08	923730	keystroke_l	l	n/a
462.113	0.072	924226	keystroke_Key.enter	Key.enter	n/a
462.194	7.48	924388	prompt	n/a	protection pregnancy malta application\n
462.785	0.104	925570	keystroke_p	p	n/a
462.937	0.104	925874	keystroke_r	r	n/a
463.065	0.104	926130	keystroke_o	o	n/a
463.185	0.12	926370	keystroke_t	t	n/a
463.265	0.08	926530	keystroke_e	e	n/a
463.433	0.104	926866	keystroke_c	c	n/a
463.641	0.1205	927282	keystroke_t	t	n/a
463.7205	0.12	927441	keystroke_i	i	n/a
463.7855	0.095	927571	keystroke_o	o	n/a
464.0095	0.095	928019	keystroke_n	n	n/a
464.1295	0.127	928259	keystroke_Key.space	Key.space	n/a
464.2655	0.087	928531	keystroke_p	p	n/a
464.3295	0.144	928659	keystroke_r	r	n/a
464.4085	0.089	928817	keystroke_e	e	n/a
464.6005	0.121	929201	keystroke_g	g	n/a
464.7775	0.096	929555	keystroke_n	n	n/a
464.9695	0.08	929939	keystroke_a	a	n/a
465.1215	0.056	930243	keystroke_n	n	n/a
465.5125	0.065	931025	keystroke_c	c	n/a
465.8725	0.096	931745	keystroke_y	y	n/a
466.0325	0.112	932065	keystroke_Key.space	Key.space	n/a
466.4325	0.1045	932865	keystroke_m	m	n/a
466.593	0.08	933186	keystroke_a	a	n/a
466.849	0.104	933698	keystroke_l	l	n/a
467.001	0.104	934002	keystroke_t	t	n/a
467.169	0.112	934338	keystroke_a	a	n/a
467.273	0.072	934546	keystroke_Key.space	Key.space	n/a
467.9055	0.08	935811	keystroke_a	a	n/a
467.9935	0.072	935987	keystroke_p	p	n/a
468.1615	0.063	936323	keystroke_p	p	n/a
468.3445	0.073	936689	keystroke_l	l	n/a
468.5375	0.096	937075	keystroke_i	i	n/a
468.6255	0.103	937251	keystroke_c	c	n/a
468.8095	0.136	937619	keystroke_a	a	n/a
468.9055	0.144	937811	keystroke_t	t	n/a
469.0085	0.1205	938017	keystroke_i	i	n/a
469.0975	0.0795	938195	keystroke_o	o	n/a
469.281	0.088	938562	keystroke_n	n	n/a
469.601	0.072	939202	keystroke_Key.enter	Key.enter	n/a
469.6795	3.8345	939359	prompt	n/a	warm shopping up future\n
470.2885	0.064	940577	keystroke_w	w	n/a
470.5205	0.112	941041	keystroke_a	a	n/a
470.5855	0.127	941171	keystroke_r	r	n/a
470.6725	0.128	941345	keystroke_m	m	n/a
470.8085	0.088	941617	keystroke_Key.space	Key.space	n/a
470.8885	0.088	941777	keystroke_s	s	n/a
470.9925	0.104	941985	keystroke_h	h	n/a
471.1685	0.144	942337	keystroke_o	o	n/a
471.3445	0.08	942689	keystroke_p	p	n/a
471.5295	0.0715	943059	keystroke_p	p	n/a
471.721	0.0715	943442	keystroke_i	i	n/a
471.8885	0.088	943777	keystroke_n	n	n/a
472.0165	0.12	944033	keystroke_g	g	n/a
472.1045	0.096	944209	keystroke_Key.space	Key.space	n/a
472.2485	0.136	944497	keystroke_u	u	n/a
472.3525	0.12	944705	keystroke_p	p	n/a
472.4405	0.12	944881	keystroke_Key.space	Key.space	n/a
472.7045	0.112	945409	keystroke_f	f	n/a
472.8325	0.104	945665	keystroke_u	u	n/a
472.9525	0.12	945905	keystroke_t	t	n/a
473.0565	0.096	946113	keystroke_u	u	n/a
473.1605	0.16	946321	keystroke_r	r	n/a
473.2485	0.112	946497	keystroke_e	e	n/a
473.4325	0.08	946865	keystroke_Key.enter	Key.enter	n/a
473.518	6.764	947036	prompt	n/a	collector project efforts looks\n
474.137	0.112	948274	keystroke_c	c	n/a
474.233	0.064	948466	keystroke_o	o	n/a
474.417	0.064	948834	keystroke_l	l	n/a
474.585	0.08	949170	keystroke_l	l	n/a
474.673	0.16	949346	keystroke_e	e	n/a
474.713	0.112	949426	keystroke_c	c	n/a
474.961	0.112	949922	keystroke_t	t	n/a
475.089	0.096	950178	keystroke_o	o	n/a
475.225	0.112	950450	keystroke_r	r	n/a
475.353	0.096	950706	keystroke_Key.space	Key.space	n/a
475.713	0.0875	951426	keystroke_p	p	n/a
475.9925	0.096	951985	keystroke_r	r	n/a
476.0965	0.104	952193	keystroke_o	o	n/a
476.3205	0.096	952641	keystroke_j	j	n/a
476.4725	0.152	952945	keystroke_e	e	n/a
476.5285	0.112	953057	keystroke_c	c	n/a
476.7685	0.12	953537	keystroke_t	t	n/a
476.8805	0.088	953761	keystroke_Key.space	Key.space	n/a
477.6565	0.1125	955313	keystroke_e	e	n/a
477.8565	0.104	955713	keystroke_f	f	n/a
478.0485	0.12	956097	keystroke_f	f	n/a
478.1765	0.096	956353	keystroke_o	o	n/a
478.3045	0.12	956609	keystroke_r	r	n/a
478.5125	0.144	957025	keystroke_t	t	n/a
478.6165	0.08	957233	keystroke_s	s	n/a
478.7365	0.096	957473	keystroke_Key.space	Key.space	n/a
479.2005	0.072	958401	keystroke_l	l	n/a
479.3765	0.064	958753	keystroke_o	o	n/a
479.5365	0.064	959073	keystroke_o	o	n/a
479.7525	0.064	959505	keystroke_k	k	n/a
479.8805	0.072	959761	keystroke_s	s	n/a
480.2005	0.08	960401	keystroke_Key.enter	Key.enter	n/a
480.285	6.549	960570	prompt	n/a	smile performances plots impact\n
481.1685	0.088	962337	keystroke_s	s	n/a
481.2725	0.128	962545	keystroke_m	m	n/a
481.3845	0.088	962769	keystroke_i	i	n/a
481.584	0.08	963168	keystroke_l	l	n/a
481.729	0.0475	963458	keystroke_e	e	n/a
481.825	0.08	963650	keystroke_Key.space	Key.space	n/a
482.025	0.112	964050	keystroke_p	p	n/a
482.233	0.128	964466	keystroke_e	e	n/a
482.305	0.08	964610	keystroke_r	r	n/a
482.489	0.12	964978	keystroke_f	f	n/a
482.609	0.088	965218	keystroke_o	o	n/a
482.889	0.136	965778	keystroke_r	r	n/a
483.145	0.104	966290	keystroke_m	m	n/a
483.305	0.128	966610	keystroke_a	a	n/a
483.465	0.088	966930	keystroke_n	n	n/a
483.593	0.1755	967186	keystroke_c	c	n/a
483.705	0.1115	967410	keystroke_e	e	n/a
483.8005	0.112	967601	keystroke_Key.space	Key.space	n/a
484.3365	0.056	968673	keystroke_p	p	n/a
484.5605	0.064	969121	keystroke_l	l	n/a
484.7285	0.104	969457	keystroke_o	o	n/a
484.8645	0.152	969729	keystroke_t	t	n/a
484.9445	0.104	969889	keystroke_s	s	n/a
485.0725	0.12	970145	keystroke_Key.space	Key.space	n/a
485.6245	0.088	971249	keystroke_i	i	n/a
485.809	0.1275	971618	keystroke_m	m	n/a
485.9205	0.136	971841	keystroke_p	p	n/a
486.1125	0.16	972225	keystroke_a	a	n/a
486.1925	0.136	972385	keystroke_c	c	n/a
486.4405	0.1115	972881	keystroke_t	t	n/a
486.744	0.088	973488	keystroke_Key.enter	Key.enter	n/a
486.8365	5.109	973673	prompt	n/a	fall writes retro figure\n
487.464	0.128	974928	keystroke_f	f	n/a
487.632	0.12	975264	keystroke_a	a	n/a
487.696	0.064	975392	keystroke_l	l	n/a
487.8485	0.112	975697	keystroke_l	l	n/a
487.9845	0.104	975969	keystroke_Key.space	Key.space	n/a
488.0965	0.096	976193	keystroke_w	w	n/a
488.2805	0.104	976561	keystroke_r	r	n/a
488.4245	0.104	976849	keystroke_i	i	n/a
488.5365	0.12	977073	keystroke_t	t	n/a
488.5925	0.072	977185	keystroke_e	e	n/a
488.7445	0.104	977489	keystroke_s	s	n/a
488.8565	0.112	977713	keystroke_Key.space	Key.space	n/a
489.897	0.1435	979794	keystroke_r	r	n/a
489.9845	0.1045	979969	keystroke_e	e	n/a
490.153	0.096	980306	keystroke_t	t	n/a
490.345	0.112	980690	keystroke_r	r	n/a
490.4965	0.08	980993	keystroke_o	o	n/a
490.6645	0.112	981329	keystroke_Key.space	Key.space	n/a
491.1445	0.112	982289	keystroke_f	f	n/a
491.2645	0.08	982529	keystroke_i	i	n/a
491.3765	0.088	982753	keystroke_g	g	n/a
491.5285	0.072	983057	keystroke_u	u	n/a
491.5845	0.136	983169	keystroke_r	r	n/a
491.6645	0.096	983329	keystroke_e	e	n/a
491.9045	0.04	983809	keystroke_Key.enter	Key.enter	n/a
491.9485	5.621	983897	prompt	n/a	anxiety sales things stevens\n
492.5685	0.08	985137	keystroke_a	a	n/a
492.6885	0.072	985377	keystroke_n	n	n/a
493.0565	0.08	986113	keystroke_x	x	n/a
493.2485	0.104	986497	keystroke_i	i	n/a
493.3925	0.08	986785	keystroke_e	e	n/a
493.5765	0.104	987153	keystroke_t	t	n/a
493.6965	0.096	987393	keystroke_y	y	n/a
493.8245	0.1115	987649	keystroke_Key.space	Key.space	n/a
494.249	0.064	988498	keystroke_s	s	n/a
494.433	0.088	988866	keystroke_a	a	n/a
494.545	0.088	989090	keystroke_l	l	n/a
494.664	0.056	989328	keystroke_e	e	n/a
494.832	0.073	989664	keystroke_s	s	n/a
494.96	0.096	989920	keystroke_Key.space	Key.space	n/a
495.352	0.104	990704	keystroke_t	t	n/a
495.481	0.112	990962	keystroke_h	h	n/a
495.569	0.079	991138	keystroke_i	i	n/a
495.737	0.103	991474	keystroke_n	n	n/a
495.792	0.144	991584	keystroke_g	g	n/a
495.856	0.096	991712	keystroke_s	s	n/a
496	0.104	992000	keystroke_Key.space	Key.space	n/a
496.264	0.096	992528	keystroke_s	s	n/a
496.488	0.1445	992976	keystroke_t	t	n/a
496.6085	0.112	993217	keystroke_e	e	n/a
496.8085	0.128	993617	keystroke_v	v	n/a
496.9525	0.128	993905	keystroke_e	e	n/a
497.1445	0.064	994289	keystroke_n	n	n/a
497.2645	0.096	994529	keystroke_s	s	n/a
497.4885	0.08	994977	keystroke_Key.enter	Key.enter	n/a
497.572	5.5175	995144	prompt	n/a	tanks indicated imagine router\n
498.184	0.12	996368	keystroke_t	t	n/a
498.36	0.12	996720	keystroke_a	a	n/a
498.448	0.128	996896	keystroke_n	n	n/a
498.552	0.088	997104	keystroke_k	k	n/a
498.624	0.096	997248	keystroke_s	s	n/a
498.768	0.096	997536	keystroke_Key.space	Key.space	n/a
499.04	0.056	998080	keystroke_i	i	n/a
499.2	0.096	998400	keystroke_n	n	n/a
499.336	0.088	998672	keystroke_d	d	n/a
499.552	0.088	999104	keystroke_i	i	n/a
499.744	0.0965	999488	keystroke_c	c	n/a
499.904	0.128	999808	keystroke_a	a	n/a
500	0.144	1000000	keystroke_t	t	n/a
500.136	0.072	1000272	keystroke_e	e	n/a
500.344	0.072	1000688	keystroke_d	d	n/a
500.464	0.104	1000928	keystroke_Key.space	Key.space	n/a
500.944	0.072	1001888	keystroke_i	i	n/a
501.12	0.088	1002240	keystroke_m	m	n/a
501.312	0.088	1002624	keystroke_a	a	n/a
501.376	0.12	1002752	keystroke_g	g	n/a
501.488	0.0565	1002976	keystroke_i	i	n/a
501.6405	0.096	1003281	keystroke_n	n	n/a
501.7445	0.08	1003489	keystroke_e	e	n/a
501.8965	0.096	1003793	keystroke_Key.space	Key.space	n/a
502.2645	0.128	1004529	keystroke_r	r	n/a
502.3935	0.167	1004787	keystroke_o	o	n/a
502.4885	0.088	1004977	keystroke_u	u	n/a
502.5685	0.112	1005137	keystroke_t	t	n/a
502.7125	0.16	1005425	keystroke_e	e	n/a
502.8085	0.096	1005617	keystroke_r	r	n/a
503.0085	0.08	1006017	keystroke_Key.enter	Key.enter	n/a
503.0925	6.397	1006185	prompt	n/a	return newspapers formal kuwait\n
503.7045	0.152	1007409	keystroke_r	r	n/a
503.7925	0.12	1007585	keystroke_e	e	n/a
503.9765	0.12	1007953	keystroke_t	t	n/a
504.0965	0.088	1008193	keystroke_u	u	n/a
504.2005	0.112	1008401	keystroke_r	r	n/a
504.3445	0.096	1008689	keystroke_n	n	n/a
504.4885	0.08	1008977	keystroke_Key.space	Key.space	n/a
504.6965	0.096	1009393	keystroke_n	n	n/a
504.7765	0.168	1009553	keystroke_e	e	n/a
504.8565	0.096	1009713	keystroke_w	w	n/a
505.0725	0.088	1010145	keystroke_s	s	n/a
505.2405	0.08	1010481	keystroke_p	p	n/a
505.4005	0.12	1010801	keystroke_a	a	n/a
505.4565	0.064	1010913	keystroke_p	p	n/a
505.6405	0.1515	1011281	keystroke_e	e	n/a
505.72	0.128	1011440	keystroke_r	r	n/a
505.824	0.08	1011648	keystroke_s	s	n/a
