onset	duration	sample	value	key	prompt_text
6.6895	11.5175	13379	prompt	n/a	the quick brown fox jumps over a lazy dog\n
9.1915	0.088	18383	keystroke_t	t	n/a
9.2645	0.12	18529	keystroke_h	h	n/a
9.3395	0.105	18679	keystroke_e	e	n/a
9.4595	0.15	18919	keystroke_Key.space	Key.space	n/a
9.715	0.165	19430	keystroke_q	q	n/a
9.895	0.12	19790	keystroke_u	u	n/a
9.97	0.135	19940	keystroke_i	i	n/a
10.18	0.12	20360	keystroke_c	c	n/a
10.33	0.179	20660	keystroke_k	k	n/a
10.479	0.12	20958	keystroke_Key.space	Key.space	n/a
11.8745	0.075	23749	keystroke_b	b	n/a
12.1145	0.09	24229	keystroke_r	r	n/a
12.2345	0.135	24469	keystroke_o	o	n/a
12.4145	0.105	24829	keystroke_w	w	n/a
12.5795	0.135	25159	keystroke_n	n	n/a
12.7445	0.1355	25489	keystroke_Key.space	Key.space	n/a
13.0445	0.105	26089	keystroke_f	f	n/a
13.2095	0.1205	26419	keystroke_o	o	n/a
13.4045	0.135	26809	keystroke_x	x	n/a
13.5995	0.105	27199	keystroke_Key.space	Key.space	n/a
13.7345	0.09	27469	keystroke_j	j	n/a
13.9445	0.1045	27889	keystroke_u	u	n/a
14.17	0.134	28340	keystroke_m	m	n/a
14.349	0.075	28698	keystroke_p	p	n/a
14.649	0.105	29298	keystroke_s	s	n/a
14.889	0.0905	29778	keystroke_Key.space	Key.space	n/a
15.2195	0.105	30439	keystroke_o	o	n/a
15.3545	0.09	30709	keystroke_v	v	n/a
15.4895	0.135	30979	keystroke_e	e	n/a
15.5795	0.12	31159	keystroke_r	r	n/a
15.7145	0.105	31429	keystroke_Key.space	Key.space	n/a
15.8345	0.105	31669	keystroke_a	a	n/a
15.9245	0.12	31849	keystroke_Key.space	Key.space	n/a
16.0445	0.105	32089	keystroke_l	l	n/a
16.1945	0.09	32389	keystroke_a	a	n/a
16.4495	0.06	32899	keystroke_z	z	n/a
16.6145	0.12	33229	keystroke_y	y	n/a
16.7795	0.105	33559	keystroke_Key.space	Key.space	n/a
16.9445	0.09	33889	keystroke_d	d	n/a
17.0345	0.12	34069	keystroke_o	o	n/a
17.2145	0.0895	34429	keystroke_g	g	n/a
18.129	0.075	36258	keystroke_Key.enter	Key.enter	n/a
18.211	8.14	36422	prompt	n/a	fake picks cholesterol actress\n
19.344	0.1505	38688	keystroke_f	f	n/a
19.5995	0.12	39199	keystroke_a	a	n/a
19.7795	0.12	39559	keystroke_k	k	n/a
19.9595	0.105	39919	keystroke_e	e	n/a
20.1545	0.135	40309	keystroke_Key.space	Key.space	n/a
20.4545	0.105	40909	keystroke_p	p	n/a
20.6195	0.12	41239	keystroke_i	i	n/a
20.9195	0.105	41839	keystroke_c	c	n/a
21.1745	0.12	42349	keystroke_k	k	n/a
21.3395	0.12	42679	keystroke_s	s	n/a
21.6095	0.135	43219	keystroke_Key.space	Key.space	n/a
22.27	0.075	44540	keystroke_c	c	n/a
22.36	0.12	44720	keystroke_h	h	n/a
22.524	0.106	45048	keystroke_o	o	n/a
22.75	0.105	45500	keystroke_l	l	n/a
22.87	0.1195	45740	keystroke_e	e	n/a
23.0795	0.09	46159	keystroke_s	s	n/a
23.274	0.105	46548	keystroke_t	t	n/a
23.604	0.09	47208	keystroke_e	e	n/a
23.724	0.12	47448	keystroke_r	r	n/a
23.919	0.09	47838	keystroke_o	o	n/a
24.114	0.105	48228	keystroke_l	l	n/a
24.279	0.135	48558	keystroke_Key.space	Key.space	n/a
24.505	0.1195	49010	keystroke_a	a	n/a
24.7145	0.09	49429	keystroke_c	c	n/a
24.9395	0.075	49879	keystroke_t	t	n/a
25.1345	0.105	50269	keystroke_r	r	n/a
25.5695	0.09	51139	keystroke_e	e	n/a
25.8095	0.075	51619	keystroke_s	s	n/a
25.9745	0.075	51949	keystroke_s	s	n/a
26.2595	0.09	52519	keystroke_Key.enter	Key.enter	n/a
26.3545	6.387	52709	prompt	n/a	mustang babes venture hood\n
27.144	0.12	54288	keystroke_m	m	n/a
27.444	0.135	54888	keystroke_u	u	n/a
27.534	0.12	55068	keystroke_s	s	n/a
27.894	0.12	55788	keystroke_t	t	n/a
28.089	0.135	56178	keystroke_a	a	n/a
28.225	0.119	56450	keystroke_n	n	n/a
28.359	0.09	56718	keystroke_g	g	n/a
28.599	0.15	57198	keystroke_Key.space	Key.space	n/a
29.094	0.091	58188	keystroke_b	b	n/a
29.379	0.196	58758	keystroke_a	a	n/a
29.65	0.12	59300	keystroke_b	b	n/a
29.905	0.12	59810	keystroke_e	e	n/a
30.1295	0.105	60259	keystroke_s	s	n/a
30.3245	0.135	60649	keystroke_Key.space	Key.space	n/a
30.654	0.105	61308	keystroke_v	v	n/a
30.8345	0.12	61669	keystroke_e	e	n/a
30.9995	0.105	61999	keystroke_n	n	n/a
31.1195	0.09	62239	keystroke_t	t	n/a
31.2995	0.135	62599	keystroke_u	u	n/a
31.4195	0.09	62839	keystroke_r	r	n/a
31.5395	0.12	63079	keystroke_e	e	n/a
31.6745	0.165	63349	keystroke_Key.space	Key.space	n/a
31.959	0.1055	63918	keystroke_h	h	n/a
32.0795	0.0895	64159	keystroke_o	o	n/a
32.244	0.1355	64488	keystroke_o	o	n/a
32.3945	0.1055	64789	keystroke_d	d	n/a
32.635	0.105	65270	keystroke_Key.enter	Key.enter	n/a
32.7445	9.957	65489	prompt	n/a	projector movers administrative category\n
33.52	0.12	67040	keystroke_p	p	n/a
33.7	0.105	67400	keystroke_r	r	n/a
33.835	0.12	67670	keystroke_o	o	n/a
34.075	0.105	68150	keystroke_j	j	n/a
34.195	0.075	68390	keystroke_e	e	n/a
34.405	0.105	68810	keystroke_c	c	n/a
34.6145	0.09	69229	keystroke_t	t	n/a
34.8095	0.105	69619	keystroke_o	o	n/a
34.9445	0.09	69889	keystroke_r	r	n/a
35.1395	0.105	70279	keystroke_Key.space	Key.space	n/a
35.71	0.15	71420	keystroke_m	m	n/a
35.845	0.15	71690	keystroke_o	o	n/a
36.01	0.09	72020	keystroke_v	v	n/a
36.145	0.12	72290	keystroke_e	e	n/a
36.235	0.12	72470	keystroke_r	r	n/a
36.43	0.09	72860	keystroke_s	s	n/a
36.565	0.105	73130	keystroke_Key.space	Key.space	n/a
36.7	0.105	73400	keystroke_a	a	n/a
36.835	0.1045	73670	keystroke_d	d	n/a
37.54	0.089	75080	keystroke_m	m	n/a
37.645	0.135	75290	keystroke_i	i	n/a
37.765	0.18	75530	keystroke_n	n	n/a
37.9	0.135	75800	keystroke_i	i	n/a
37.99	0.135	75980	keystroke_s	s	n/a
38.095	0.12	76190	keystroke_t	t	n/a
38.275	0.105	76550	keystroke_r	r	n/a
38.5	0.09	77000	keystroke_t	t	n/a
39.1	0.135	78200	keystroke_Key.backspace	Key.backspace	n/a
39.25	0.105	78500	keystroke_a	a	n/a
39.415	0.105	78830	keystroke_t	t	n/a
39.58	0.1345	79160	keystroke_i	i	n/a
39.7595	0.15	79519	keystroke_v	v	n/a
39.8945	0.12	79789	keystroke_e	e	n/a
40.0595	0.135	80119	keystroke_Key.space	Key.space	n/a
40.644	0.075	81288	keystroke_c	c	n/a
40.779	0.1205	81558	keystroke_a	a	n/a
40.9145	0.1045	81829	keystroke_t	t	n/a
41.559	0.105	83118	keystroke_e	e	n/a
41.784	0.12	83568	keystroke_g	g	n/a
42.084	0.121	84168	keystroke_o	o	n/a
42.219	0.09	84438	keystroke_r	r	n/a
42.3695	0.12	84739	keystroke_y	y	n/a
42.5945	0.105	85189	keystroke_Key.enter	Key.enter	n/a
42.7065	7.18	85413	prompt	n/a	issn realm newer devices\n
44.2595	0.0895	88519	keystroke_i	i	n/a
44.364	0.09	88728	keystroke_s	s	n/a
44.529	0.0905	89058	keystroke_s	s	n/a
44.664	0.165	89328	keystroke_n	n	n/a
44.844	0.18	89688	keystroke_Key.space	Key.space	n/a
45.19	0.134	90380	keystroke_r	r	n/a
45.339	0.09	90678	keystroke_e	e	n/a
45.46	0.119	90920	keystroke_a	a	n/a
45.654	0.12	91308	keystroke_l	l	n/a
45.894	0.105	91788	keystroke_m	m	n/a
46.059	0.12	92118	keystroke_Key.space	Key.space	n/a
46.314	0.106	92628	keystroke_n	n	n/a
46.405	0.1345	92810	keystroke_e	e	n/a
46.5245	0.105	93049	keystroke_w	w	n/a
46.6745	0.135	93349	keystroke_e	e	n/a
46.7795	0.105	93559	keystroke_r	r	n/a
46.9295	0.135	93859	keystroke_Key.space	Key.space	n/a
48.2645	0.105	96529	keystroke_d	d	n/a
48.6395	0.105	97279	keystroke_e	e	n/a
48.895	0.12	97790	keystroke_v	v	n/a
49.075	0.12	98150	keystroke_i	i	n/a
49.21	0.06	98420	keystroke_c	c	n/a
49.39	0.075	98780	keystroke_e	e	n/a
49.54	0.0745	99080	keystroke_s	s	n/a
49.7495	0.135	99499	keystroke_Key.enter	Key.enter	n/a
49.8895	5.8325	99779	prompt	n/a	others standard rush hotmail\n
50.8895	0.075	101779	keystroke_o	o	n/a
50.9945	0.135	101989	keystroke_t	t	n/a
51.0845	0.12	102169	keystroke_h	h	n/a
51.1595	0.105	102319	keystroke_e	e	n/a
51.2495	0.09	102499	keystroke_r	r	n/a
51.4145	0.105	102829	keystroke_s	s	n/a
51.5945	0.15	103189	keystroke_Key.space	Key.space	n/a
51.9845	0.09	103969	keystroke_s	s	n/a
52.1345	0.12	104269	keystroke_t	t	n/a
52.2695	0.12	104539	keystroke_a	a	n/a
52.3895	0.1045	104779	keystroke_n	n	n/a
52.509	0.09	105018	keystroke_d	d	n/a
52.689	0.1205	105378	keystroke_a	a	n/a
52.8245	0.105	105649	keystroke_r	r	n/a
52.9745	0.0895	105949	keystroke_d	d	n/a
53.139	0.1355	106278	keystroke_Key.space	Key.space	n/a
53.724	0.105	107448	keystroke_r	r	n/a
53.844	0.135	107688	keystroke_u	u	n/a
53.964	0.09	107928	keystroke_s	s	n/a
54.099	0.12	108198	keystroke_h	h	n/a
54.204	0.135	108408	keystroke_Key.space	Key.space	n/a
54.5645	0.12	109129	keystroke_h	h	n/a
54.6695	0.15	109339	keystroke_o	o	n/a
54.8045	0.105	109609	keystroke_t	t	n/a
54.9245	0.12	109849	keystroke_m	m	n/a
55.1045	0.135	110209	keystroke_a	a	n/a
55.2095	0.135	110419	keystroke_i	i	n/a
55.3595	0.12	110719	keystroke_l	l	n/a
55.6145	0.105	111229	keystroke_Key.enter	Key.enter	n/a
55.726	9.266	111452	prompt	n/a	entries workstation poker commitments\n
56.7545	0.075	113509	keystroke_e	e	n/a
56.8745	0.165	113749	keystroke_n	n	n/a
56.9945	0.075	113989	keystroke_t	t	n/a
57.1745	0.075	114349	keystroke_r	r	n/a
57.2495	0.1195	114499	keystroke_i	i	n/a
57.385	0.059	114770	keystroke_e	e	n/a
57.535	0.09	115070	keystroke_s	s	n/a
57.684	0.135	115368	keystroke_Key.space	Key.space	n/a
58.239	0.031	116478	keystroke_w	w	n/a
58.314	0.136	116628	keystroke_o	o	n/a
58.5845	0.09	117169	keystroke_r	r	n/a
58.7945	0.12	117589	keystroke_k	k	n/a
59.0645	0.135	118129	keystroke_s	s	n/a
59.2445	0.12	118489	keystroke_t	t	n/a
59.5145	0.18	119029	keystroke_a	a	n/a
59.6495	0.12	119299	keystroke_t	t	n/a
59.8145	0.18	119629	keystroke_i	i	n/a
59.9345	0.1505	119869	keystroke_o	o	n/a
60.0395	0.1355	120079	keystroke_n	n	n/a
60.5945	0.165	121189	keystroke_Key.space	Key.space	n/a
60.909	0.12	121818	keystroke_p	p	n/a
61.104	0.0905	122208	keystroke_o	o	n/a
61.2845	0.135	122569	keystroke_k	k	n/a
61.434	0.135	122868	keystroke_e	e	n/a
61.57	0.119	123140	keystroke_r	r	n/a
61.764	0.105	123528	keystroke_Key.space	Key.space	n/a
62.199	0.15	124398	keystroke_c	c	n/a
62.7095	0.135	125419	keystroke_o	o	n/a
62.9195	0.105	125839	keystroke_m	m	n/a
63.0995	0.12	126199	keystroke_m	m	n/a
63.3095	0.135	126619	keystroke_i	i	n/a
63.6395	0.015	127279	keystroke_t	t	n/a
64.0145	0.135	128029	keystroke_m	m	n/a
64.2095	0.0755	128419	keystroke_e	e	n/a
64.36	0.12	128720	keystroke_n	n	n/a
64.45	0.105	128900	keystroke_t	t	n/a
64.6595	0.09	129319	keystroke_s	s	n/a
64.885	0.104	129770	keystroke_Key.enter	Key.enter	n/a
64.997	8.544	129994	prompt	n/a	configuring authentic secured loop\n
66.0245	0.105	132049	keystroke_c	c	n/a
66.1145	0.105	132229	keystroke_o	o	n/a
66.1745	0.15	132349	keystroke_n	n	n/a
66.4145	0.09	132829	keystroke_f	f	n/a
67.074	0.135	134148	keystroke_i	i	n/a
67.255	0.119	134510	keystroke_g	g	n/a
67.5995	0.105	135199	keystroke_u	u	n/a
67.7945	0.135	135589	keystroke_r	r	n/a
68.5445	0.165	137089	keystroke_i	i	n/a
68.6795	0.15	137359	keystroke_n	n	n/a
68.8445	0.075	137689	keystroke_g	g	n/a
68.9645	0.105	137929	keystroke_Key.space	Key.space	n/a
69.1445	0.105	138289	keystroke_a	a	n/a
69.2645	0.12	138529	keystroke_u	u	n/a
69.3995	0.105	138799	keystroke_t	t	n/a
69.5195	0.105	139039	keystroke_h	h	n/a
69.8195	0.075	139639	keystroke_e	e	n/a
69.9245	0.12	139849	keystroke_n	n	n/a
70.1345	0.075	140269	keystroke_t	t	n/a
70.2545	0.12	140509	keystroke_i	i	n/a
70.4345	0.09	140869	keystroke_c	c	n/a
70.6145	0.15	141229	keystroke_Key.space	Key.space	n/a
71.214	0.105	142428	keystroke_s	s	n/a
71.349	0.09	142698	keystroke_e	e	n/a
71.604	0.105	143208	keystroke_c	c	n/a
71.814	0.12	143628	keystroke_u	u	n/a
71.964	0.075	143928	keystroke_r	r	n/a
72.099	0.075	144198	keystroke_e	e	n/a
72.279	0.09	144558	keystroke_d	d	n/a
72.384	0.15	144768	keystroke_Key.space	Key.space	n/a
72.594	0.09	145188	keystroke_l	l	n/a
72.8045	0.105	145609	keystroke_o	o	n/a
72.9845	0.135	145969	keystroke_o	o	n/a
73.1345	0.135	146269	keystroke_p	p	n/a
73.4345	0.1045	146869	keystroke_Key.enter	Key.enter	n/a
73.5455	10.1805	147091	prompt	n/a	architect committee curves sacramento\n
74.875	0.135	149750	keystroke_a	a	n/a
75.1745	0.105	150349	keystroke_r	r	n/a
75.4295	0.09	150859	keystroke_c	c	n/a
75.6095	0.12	151219	keystroke_h	h	n/a
75.7145	0.12	151429	keystroke_i	i	n/a
75.8795	0.09	151759	keystroke_t	t	n/a
76.0295	0.075	152059	keystroke_e	e	n/a
76.2395	0.135	152479	keystroke_c	c	n/a
76.4195	0.09	152839	keystroke_t	t	n/a
76.5545	0.135	153109	keystroke_Key.space	Key.space	n/a
77.2295	0.105	154459	keystroke_c	c	n/a
77.3195	0.105	154639	keystroke_o	o	n/a
77.4695	0.09	154939	keystroke_m	m	n/a
77.6345	0.12	155269	keystroke_m	m	n/a
77.7995	0.12	155599	keystroke_i	i	n/a
77.9345	0.09	155869	keystroke_t	t	n/a
78.1295	0.09	156259	keystroke_e	e	n/a
78.5795	0.135	157159	keystroke_Key.backspace	Key.backspace	n/a
78.6995	0.09	157399	keystroke_t	t	n/a
78.864	0.09	157728	keystroke_e	e	n/a
79.03	0.09	158060	keystroke_e	e	n/a
79.2395	0.12	158479	keystroke_Key.space	Key.space	n/a
79.8995	0.105	159799	keystroke_c	c	n/a
80.1545	0.12	160309	keystroke_u	u	n/a
80.3045	0.105	160609	keystroke_r	r	n/a
80.649	0.12	161298	keystroke_v	v	n/a
80.829	0.06	161658	keystroke_e	e	n/a
80.979	0.105	161958	keystroke_s	s	n/a
81.129	0.12	162258	keystroke_Key.space	Key.space	n/a
81.744	0.09	163488	keystroke_s	s	n/a
81.9395	0.15	163879	keystroke_a	a	n/a
82.2395	0.09	164479	keystroke_c	c	n/a
82.464	0.12	164928	keystroke_r	r	n/a
82.674	0.075	165348	keystroke_a	a	n/a
82.779	0.135	165558	keystroke_m	m	n/a
83.019	0.075	166038	keystroke_e	e	n/a
83.124	0.105	166248	keystroke_n	n	n/a
83.2445	0.09	166489	keystroke_t	t	n/a
83.3795	0.12	166759	keystroke_o	o	n/a
83.6195	0.105	167239	keystroke_Key.enter	Key.enter	n/a
83.729	17.742	167458	prompt	n/a	generate joins infrastructure alexandria\n
84.3545	0.12	168709	keystroke_j	j	n/a
84.5045	0.105	169009	keystroke_e	e	n/a
84.624	0.12	169248	keystroke_n	n	n/a
84.774	0.075	169548	keystroke_t	t	n/a
85.389	0.12	170778	keystroke_Key.backspace	Key.backspace	n/a
85.584	0.09	171168	keystroke_Key.backspace	Key.backspace	n/a
85.749	0.075	171498	keystroke_Key.backspace	Key.backspace	n/a
85.899	0.076	171798	keystroke_Key.backspace	Key.backspace	n/a
86.5295	0.075	173059	keystroke_g	g	n/a
86.7395	0.105	173479	keystroke_e	e	n/a
87.0095	0.105	174019	keystroke_n	n	n/a
87.2045	0.12	174409	keystroke_e	e	n/a
87.4145	0.135	174829	keystroke_r	r	n/a
87.6395	0.12	175279	keystroke_a	a	n/a
87.7895	0.105	175579	keystroke_t	t	n/a
87.9545	0.105	175909	keystroke_e	e	n/a
88.164	0.135	176328	keystroke_Key.space	Key.space	n/a
88.5245	0.09	177049	keystroke_j	j	n/a
88.5845	0.105	177169	keystroke_o	o	n/a
88.734	0.135	177468	keystroke_i	i	n/a
88.84	0.119	177680	keystroke_n	n	n/a
88.944	0.105	177888	keystroke_s	s	n/a
89.109	0.105	178218	keystroke_Key.space	Key.space	n/a
89.229	0.135	178458	keystroke_i	i	n/a
89.319	0.165	178638	keystroke_n	n	n/a
89.9495	0.09	179899	keystroke_f	f	n/a
90.249	0.12	180498	keystroke_r	r	n/a
90.5195	0.135	181039	keystroke_a	a	n/a
90.7145	0.1495	181429	keystroke_s	s	n/a
90.879	0.135	181758	keystroke_t	t	n/a
91.479	0.105	182958	keystroke_r	r	n/a
91.704	0.135	183408	keystroke_u	u	n/a
92.199	0.12	184398	keystroke_c	c	n/a
92.56	0.06	185120	keystroke_t	t	n/a
93.1595	0.12	186319	keystroke_u	u	n/a
93.4745	0.135	186949	keystroke_r	r	n/a
94.644	0.105	189288	keystroke_e	e	n/a
94.914	0.135	189828	keystroke_Key.space	Key.space	n/a
95.394	0.1355	190788	keystroke_a	a	n/a
95.6045	0.15	191209	keystroke_l	l	n/a
95.7845	0.075	191569	keystroke_e	e	n/a
96.549	0.12	193098	keystroke_s	s	n/a
96.954	0.12	193908	keystroke_n	n	n/a
97.389	0.12	194778	keystroke_Key.backspace	Key.backspace	n/a
97.599	0.09	195198	keystroke_Key.backspace	Key.backspace	n/a
99.01	0.165	198020	keystroke_x	x	n/a
99.294	0.135	198588	keystroke_a	a	n/a
99.534	0.135	199068	keystroke_n	n	n/a
99.774	0.12	199548	keystroke_d	d	n/a
100.06	0.134	200120	keystroke_r	r	n/a
100.33	0.134	200660	keystroke_i	i	n/a
100.555	0.119	201110	keystroke_a	a	n/a
101.364	0.105	202728	keystroke_Key.enter	Key.enter	n/a
101.4745	6.0865	202949	prompt	n/a	worship vote junction pierre\n
102.219	0.09	204438	keystroke_w	w	n/a
102.3245	0.12	204649	keystroke_o	o	n/a
102.4745	0.09	204949	keystroke_r	r	n/a
102.6395	0.135	205279	keystroke_s	s	n/a
102.7595	0.165	205519	keystroke_h	h	n/a
102.8495	0.165	205699	keystroke_i	i	n/a
102.9845	0.165	205969	keystroke_p	p	n/a
103.1345	0.1495	206269	keystroke_Key.space	Key.space	n/a
103.5995	0.12	207199	keystroke_v	v	n/a
103.7495	0.12	207499	keystroke_o	o	n/a
103.9145	0.12	207829	keystroke_t	t	n/a
104.0495	0.1195	208099	keystroke_e	e	n/a
104.184	0.165	208368	keystroke_Key.space	Key.space	n/a
104.409	0.12	208818	keystroke_j	j	n/a
104.694	0.105	209388	keystroke_u	u	n/a
104.904	0.105	209808	keystroke_n	n	n/a
105.024	0.0905	210048	keystroke_c	c	n/a
105.2495	0.105	210499	keystroke_t	t	n/a
105.3395	0.12	210679	keystroke_i	i	n/a
105.4445	0.135	210889	keystroke_o	o	n/a
105.5195	0.15	211039	keystroke_n	n	n/a
105.6395	0.225	211279	keystroke_Key.space	Key.space	n/a
106.0445	0.15	212089	keystroke_p	p	n/a
106.3595	0.12	212719	keystroke_i	i	n/a
106.5695	0.09	213139	keystroke_e	e	n/a
106.915	0.075	213830	keystroke_r	r	n/a
107.065	0.105	214130	keystroke_r	r	n/a
107.23	0.0895	214460	keystroke_e	e	n/a
107.4395	0.12	214879	keystroke_Key.enter	Key.enter	n/a
107.564	6.762	215128	prompt	n/a	draft mining michigan website\n
108.5345	0.105	217069	keystroke_d	d	n/a
108.7745	0.1205	217549	keystroke_r	r	n/a
108.925	0.1195	217850	keystroke_a	a	n/a
109.0445	0.104	218089	keystroke_f	f	n/a
109.2545	0.09	218509	keystroke_t	t	n/a
109.4045	0.15	218809	keystroke_Key.space	Key.space	n/a
109.66	0.18	219320	keystroke_m	m	n/a
109.825	0.12	219650	keystroke_i	i	n/a
109.9745	0.21	219949	keystroke_n	n	n/a
110.1695	0.18	220339	keystroke_i	i	n/a
110.305	0.1195	220610	keystroke_n	n	n/a
110.4395	0.105	220879	keystroke_g	g	n/a
110.6345	0.12	221269	keystroke_Key.space	Key.space	n/a
110.9645	0.135	221929	keystroke_m	m	n/a
111.0545	0.135	222109	keystroke_i	i	n/a
111.3095	0.12	222619	keystroke_c	c	n/a
111.4595	0.15	222919	keystroke_h	h	n/a
111.5945	0.15	223189	keystroke_i	i	n/a
112.014	0.106	224028	keystroke_g	g	n/a
112.164	0.135	224328	keystroke_a	a	n/a
112.315	0.1495	224630	keystroke_n	n	n/a
112.4795	0.135	224959	keystroke_Key.space	Key.space	n/a
112.7345	0.0895	225469	keystroke_w	w	n/a
112.84	0.089	225680	keystroke_e	e	n/a
113.094	0.105	226188	keystroke_b	b	n/a
113.3045	0.135	226609	keystroke_s	s	n/a
113.4545	0.15	226909	keystroke_i	i	n/a
113.6345	0.105	227269	keystroke_t	t	n/a
113.7845	0.075	227569	keystroke_e	e	n/a
114.2045	0.12	228409	keystroke_Key.enter	Key.enter	n/a
114.3295	12.0115	228659	prompt	n/a	shoppers electronic rapids databases\n
115.554	0.105	231108	keystroke_s	s	n/a
115.704	0.165	231408	keystroke_h	h	n/a
115.854	0.151	231708	keystroke_o	o	n/a
116.139	0.075	232278	keystroke_p	p	n/a
116.289	0.105	232578	keystroke_p	p	n/a
116.379	0.135	232758	keystroke_e	e	n/a
116.484	0.12	232968	keystroke_r	r	n/a
116.649	0.12	233298	keystroke_s	s	n/a
116.799	0.135	233598	keystroke_Key.space	Key.space	n/a
117.084	0.09	234168	keystroke_e	e	n/a
117.234	0.105	234468	keystroke_l	l	n/a
117.31	0.089	234620	keystroke_e	e	n/a
117.564	0.105	235128	keystroke_c	c	n/a
117.789	0.075	235578	keystroke_t	t	n/a
117.969	0.075	235938	keystroke_r	r	n/a
118.075	0.119	236150	keystroke_o	o	n/a
118.209	0.135	236418	keystroke_n	n	n/a
118.345	0.104	236690	keystroke_i	i	n/a
118.464	0.12	236928	keystroke_c	c	n/a
118.7195	0.12	237439	keystroke_Key.space	Key.space	n/a
119.4695	0.12	238939	keystroke_r	r	n/a
119.6195	0.12	239239	keystroke_a	a	n/a
119.7545	0.09	239509	keystroke_;	;	n/a
119.9945	0.135	239989	keystroke_i	i	n/a
120.1595	0.105	240319	keystroke_d	d	n/a
120.519	0.105	241038	keystroke_Key.backspace	Key.backspace	n/a
120.714	0.075	241428	keystroke_Key.backspace	Key.backspace	n/a
120.849	0.075	241698	keystroke_Key.backspace	Key.backspace	n/a
121.179	0.075	242358	keystroke_p	p	n/a
122.019	0.09	244038	keystroke_i	i	n/a
122.154	0.075	244308	keystroke_d	d	n/a
122.319	0.075	244638	keystroke_s	s	n/a
123.1745	0.15	246349	keystroke_Key.space	Key.space	n/a
123.6845	0.105	247369	keystroke_d	d	n/a
123.8345	0.12	247669	keystroke_a	a	n/a
123.9695	0.105	247939	keystroke_t	t	n/a
124.1195	0.105	248239	keystroke_a	a	n/a
124.5845	0.1195	249169	keystroke_b	b	n/a
125.2445	0.135	250489	keystroke_a	a	n/a
125.4995	0.105	250999	keystroke_s	s	n/a
125.724	0.075	251448	keystroke_e	e	n/a
125.8895	0.09	251779	keystroke_s	s	n/a
126.1895	0.15	252379	keystroke_Key.enter	Key.enter	n/a
126.3445	13.331	252689	prompt	n/a	shall myanmar canberra excluded\n
127.854	0.075	255708	keystroke_s	s	n/a
127.989	0.135	255978	keystroke_a	a	n/a
128.214	0.0905	256428	keystroke_h	h	n/a
128.6195	0.104	257239	keystroke_Key.backspace	Key.backspace	n/a
128.7845	0.09	257569	keystroke_Key.backspace	Key.backspace	n/a
129.0095	0.09	258019	keystroke_h	h	n/a
129.1295	0.105	258259	keystroke_a	a	n/a
129.2495	0.09	258499	keystroke_l	l	n/a
129.4145	0.12	258829	keystroke_l	l	n/a
129.5635	0.181	259127	keystroke_Key.space	Key.space	n/a
129.9395	0.105	259879	keystroke_m	m	n/a
130.2095	0.12	260419	keystroke_y	y	n/a
130.6895	0.15	261379	keystroke_a	a	n/a
130.8995	0.1045	261799	keystroke_n	n	n/a
131.7995	0.135	263599	keystroke_m	m	n/a
131.9195	0.1495	263839	keystroke_a	a	n/a
132.099	0.105	264198	keystroke_r	r	n/a
132.294	0.1345	264588	keystroke_Key.space	Key.space	n/a
133.0285	0.0755	266057	keystroke_c	c	n/a
133.5845	0.135	267169	keystroke_a	a	n/a
133.8245	0.12	267649	keystroke_n	n	n/a
134.934	0.105	269868	keystroke_b	b	n/a
135.144	0.135	270288	keystroke_e	e	n/a
135.264	0.105	270528	keystroke_r	r	n/a
135.459	0.105	270918	keystroke_r	r	n/a
135.624	0.135	271248	keystroke_a	a	n/a
135.819	0.135	271638	keystroke_Key.space	Key.space	n/a
136.1495	0.12	272299	keystroke_e	e	n/a
136.3595	0.1645	272719	keystroke_x	x	n/a
136.809	0.09	273618	keystroke_c	c	n/a
136.959	0.21	273918	keystroke_l	l	n/a
137.109	0.135	274218	keystroke_u	u	n/a
137.274	0.0905	274548	keystroke_d	d	n/a
137.4695	0.09	274939	keystroke_e	e	n/a
138.5195	0.09	277039	keystroke_d	d	n/a
139.539	0.135	279078	keystroke_Key.enter	Key.enter	n/a
139.6785	5.667	279357	prompt	n/a	and anything will existing\n
140.499	0.135	280998	keystroke_a	a	n/a
140.619	0.12	281238	keystroke_n	n	n/a
140.739	0.075	281478	keystroke_d	d	n/a
140.844	0.135	281688	keystroke_Key.space	Key.space	n/a
141.039	0.12	282078	keystroke_a	a	n/a
141.144	0.075	282288	keystroke_n	n	n/a
141.339	0.136	282678	keystroke_y	y	n/a
141.534	0.12	283068	keystroke_t	t	n/a
141.684	0.09	283368	keystroke_h	h	n/a
141.759	0.1355	283518	keystroke_i	i	n/a
141.8645	0.1345	283729	keystroke_n	n	n/a
141.984	0.09	283968	keystroke_g	g	n/a
142.134	0.15	284268	keystroke_Key.space	Key.space	n/a
142.8095	0.015	285619	keystroke_w	w	n/a
142.8695	0.09	285739	keystroke_i	i	n/a
143.049	0.0905	286098	keystroke_l	l	n/a
143.2145	0.18	286429	keystroke_l	l	n/a
143.3345	0.1345	286669	keystroke_Key.space	Key.space	n/a
143.484	0.09	286968	keystroke_e	e	n/a
143.904	0.12	287808	keystroke_x	x	n/a
144.084	0.12	288168	keystroke_i	i	n/a
144.384	0.15	288768	keystroke_s	s	n/a
144.6695	0.09	289339	keystroke_t	t	n/a
144.7595	0.2245	289519	keystroke_i	i	n/a
144.849	0.21	289698	keystroke_n	n	n/a
144.9855	0.0885	289971	keystroke_g	g	n/a
145.224	0.12	290448	keystroke_Key.enter	Key.enter	n/a
145.349	10.6465	290698	prompt	n/a	ward prerequisite technical wanting\n
146.7845	0.015	293569	keystroke_w	w	n/a
146.844	0.1505	293688	keystroke_a	a	n/a
146.9795	0.12	293959	keystroke_r	r	n/a
147.3245	0.09	294649	keystroke_d	d	n/a
148.539	0.15	297078	keystroke_Key.space	Key.space	n/a
148.779	0.15	297558	keystroke_p	p	n/a
148.959	0.1205	297918	keystroke_r	r	n/a
149.0945	0.075	298189	keystroke_e	e	n/a
150.2795	0.134	300559	keystroke_r	r	n/a
150.5495	0.165	301099	keystroke_e	e	n/a
150.9245	0.075	301849	keystroke_q	q	n/a
151.1645	0.12	302329	keystroke_u	u	n/a
151.809	0.12	303618	keystroke_i	i	n/a
151.989	0.09	303978	keystroke_s	s	n/a
152.274	0.135	304548	keystroke_i	i	n/a
152.454	0.12	304908	keystroke_t	t	n/a
152.589	0.09	305178	keystroke_e	e	n/a
152.724	0.15	305448	keystroke_Key.space	Key.space	n/a
152.949	0.105	305898	keystroke_t	t	n/a
153.129	0.075	306258	keystroke_e	e	n/a
153.369	0.105	306738	keystroke_c	c	n/a
153.549	0.12	307098	keystroke_h	h	n/a
153.834	0.165	307668	keystroke_n	n	n/a
153.969	0.135	307938	keystroke_i	i	n/a
154.119	0.09	308238	keystroke_c	c	n/a
154.284	0.09	308568	keystroke_a	a	n/a
154.419	0.165	308838	keystroke_l	l	n/a
154.539	0.12	309078	keystroke_Key.space	Key.space	n/a
154.944	0.105	309888	keystroke_w	w	n/a
155.169	0.09	310338	keystroke_a	a	n/a
155.274	0.135	310548	keystroke_n	n	n/a
155.424	0.1045	310848	keystroke_t	t	n/a
155.5445	0.165	311089	keystroke_i	i	n/a
155.6485	0.136	311297	keystroke_n	n	n/a
155.7245	0.06	311449	keystroke_g	g	n/a
155.9035	0.09	311807	keystroke_Key.enter	Key.enter	n/a
155.9985	7.497	311997	prompt	n/a	sympathy camera colleague ruth\n
157.134	0.075	314268	keystroke_s	s	n/a
157.269	0.135	314538	keystroke_y	y	n/a
158.139	0.1505	316278	keystroke_m	m	n/a
158.3495	0.135	316699	keystroke_p	p	n/a
158.5445	0.12	317089	keystroke_a	a	n/a
158.6795	0.105	317359	keystroke_t	t	n/a
158.7995	0.0895	317599	keystroke_h	h	n/a
159.009	0.12	318018	keystroke_y	y	n/a
159.099	0.18	318198	keystroke_Key.space	Key.space	n/a
159.564	0.1045	319128	keystroke_c	c	n/a
159.6985	0.105	319397	keystroke_a	a	n/a
159.8335	0.135	319667	keystroke_m	m	n/a
159.9835	0.106	319967	keystroke_e	e	n/a
160.0745	0.149	320149	keystroke_r	r	n/a
160.2395	0.104	320479	keystroke_a	a	n/a
160.3735	0.135	320747	keystroke_Key.space	Key.space	n/a
160.8845	0.1195	321769	keystroke_c	c	n/a
160.989	0.1055	321978	keystroke_o	o	n/a
161.1985	0.09	322397	keystroke_l	l	n/a
161.3635	0.105	322727	keystroke_l	l	n/a
161.4985	0.121	322997	keystroke_e	e	n/a
161.6935	0.12	323387	keystroke_a	a	n/a
161.8595	0.165	323719	keystroke_g	g	n/a
162.1285	0.106	324257	keystroke_u	u	n/a
162.2935	0.09	324587	keystroke_e	e	n/a
162.3985	0.135	324797	keystroke_Key.space	Key.space	n/a
162.7585	0.106	325517	keystroke_r	r	n/a
162.9085	0.1055	325817	keystroke_u	u	n/a
163.0285	0.1205	326057	keystroke_t	t	n/a
163.15	0.0895	326300	keystroke_h	h	n/a
163.3735	0.12	326747	keystroke_Key.enter	Key.enter	n/a
163.499	8.367	326998	prompt	n/a	locator officials original skating\n
164.29	0.1035	328580	keystroke_l	l	n/a
164.499	0.1045	328998	keystroke_o	o	n/a
164.6185	0.0905	329237	keystroke_c	c	n/a
164.724	0.1355	329448	keystroke_a	a	n/a
164.8745	0.12	329749	keystroke_t	t	n/a
165.069	0.09	330138	keystroke_o	o	n/a
165.16	0.104	330320	keystroke_r	r	n/a
165.339	0.135	330678	keystroke_Key.space	Key.space	n/a
165.684	0.12	331368	keystroke_o	o	n/a
165.819	0.075	331638	keystroke_f	f	n/a
165.969	0.1055	331938	keystroke_f	f	n/a
166.1195	0.1195	332239	keystroke_i	i	n/a
166.299	0.105	332598	keystroke_c	c	n/a
166.449	0.091	332898	keystroke_i	i	n/a
167.214	0.075	334428	keystroke_a	a	n/a
167.514	0.12	335028	keystroke_l	l	n/a
167.7845	0.105	335569	keystroke_s	s	n/a
167.964	0.135	335928	keystroke_Key.space	Key.space	n/a
168.249	0.135	336498	keystroke_o	o	n/a
168.399	0.09	336798	keystroke_r	r	n/a
168.534	0.12	337068	keystroke_i	i	n/a
169.0745	0.1055	338149	keystroke_g	g	n/a
169.269	0.18	338538	keystroke_i	i	n/a
169.404	0.18	338808	keystroke_n	n	n/a
170.184	0.121	340368	keystroke_a	a	n/a
170.349	0.165	340698	keystroke_l	l	n/a
170.484	0.135	340968	keystroke_Key.space	Key.space	n/a
170.7995	0.09	341599	keystroke_s	s	n/a
170.9645	0.1045	341929	keystroke_k	k	n/a
171.099	0.1205	342198	keystroke_a	a	n/a
171.2495	0.09	342499	keystroke_t	t	n/a
171.3695	0.15	342739	keystroke_i	i	n/a
171.4445	0.15	342889	keystroke_n	n	n/a
171.5645	0.075	343129	keystroke_g	g	n/a
171.7445	0.119	343489	keystroke_Key.enter	Key.enter	n/a
171.8705	9.251	343741	prompt	n/a	rings attorneys heritage bedford\n
172.5995	0.09	345199	keystroke_r	r	n/a
172.69	0.1495	345380	keystroke_i	i	n/a
172.7795	0.1495	345559	keystroke_n	n	n/a
172.8845	0.075	345769	keystroke_g	g	n/a
173.0195	0.1045	346039	keystroke_s	s	n/a
173.139	0.1055	346278	keystroke_Key.space	Key.space	n/a
173.4395	0.12	346879	keystroke_a	a	n/a
173.6345	0.075	347269	keystroke_t	t	n/a
173.7845	0.1195	347569	keystroke_t	t	n/a
174.024	0.12	348048	keystroke_o	o	n/a
174.204	0.09	348408	keystroke_r	r	n/a
174.399	0.1355	348798	keystroke_m	m	n/a
174.8795	0.105	349759	keystroke_Key.backspace	Key.backspace	n/a
175.1195	0.105	350239	keystroke_n	n	n/a
175.2995	0.075	350599	keystroke_e	e	n/a
175.4195	0.105	350839	keystroke_t	t	n/a
175.5695	0.15	351139	keystroke_y	y	n/a
175.8245	0.105	351649	keystroke_s	s	n/a
176.289	0.09	352578	keystroke_Key.backspace	Key.backspace	n/a
176.4695	0.045	352939	keystroke_Key.backspace	Key.backspace	n/a
176.6195	0.06	353239	keystroke_Key.backspace	Key.backspace	n/a
176.8745	0.075	353749	keystroke_y	y	n/a
176.9795	0.09	353959	keystroke_s	s	n/a
177.1295	0.15	354259	keystroke_Key.space	Key.space	n/a
177.4895	0.135	354979	keystroke_h	h	n/a
177.8945	0.105	355789	keystroke_e	e	n/a
178.0895	0.105	356179	keystroke_r	r	n/a
178.2545	0.135	356509	keystroke_i	i	n/a
178.5245	0.12	357049	keystroke_t	t	n/a
178.7795	0.165	357559	keystroke_a	a	n/a
178.914	0.1955	357828	keystroke_g	g	n/a
179.0945	0.09	358189	keystroke_e	e	n/a
179.2595	0.135	358519	keystroke_Key.space	Key.space	n/a
179.4995	0.105	358999	keystroke_b	b	n/a
179.7095	0.09	359419	keystroke_e	e	n/a
180.0995	0.105	360199	keystroke_d	d	n/a
180.3545	0.105	360709	keystroke_f	f	n/a
180.534	0.135	361068	keystroke_o	o	n/a
180.654	0.075	361308	keystroke_r	r	n/a
180.9095	0.015	361819	keystroke_d	d	n/a
181.0145	0.1045	362029	keystroke_Key.enter	Key.enter	n/a
181.124	7.107	362248	prompt	n/a	spend calling javascript severe\n
181.8245	0.104	363649	keystroke_s	s	n/a
181.9595	0.105	363919	keystroke_p	p	n/a
182.0785	0.105	364157	keystroke_e	e	n/a
182.2295	0.105	364459	keystroke_n	n	n/a
182.3635	0.106	364727	keystroke_d	d	n/a
182.5145	0.105	365029	keystroke_Key.space	Key.space	n/a
183.04	0.089	366080	keystroke_c	c	n/a
183.175	0.089	366350	keystroke_a	a	n/a
183.279	0.091	366558	keystroke_l	l	n/a
183.444	0.12	366888	keystroke_l	l	n/a
183.64	0.149	367280	keystroke_i	i	n/a
183.714	0.135	367428	keystroke_n	n	n/a
183.819	0.12	367638	keystroke_g	g	n/a
183.984	0.1355	367968	keystroke_Key.space	Key.space	n/a
184.104	0.1205	368208	keystroke_j	j	n/a
184.2845	0.15	368569	keystroke_a	a	n/a
184.4945	0.135	368989	keystroke_v	v	n/a
184.6895	0.105	369379	keystroke_a	a	n/a
185.1695	0.105	370339	keystroke_s	s	n/a
185.4395	0.105	370879	keystroke_c	c	n/a
185.649	0.1055	371298	keystroke_r	r	n/a
185.7545	0.18	371509	keystroke_i	i	n/a
185.9045	0.1345	371809	keystroke_p	p	n/a
186.054	0.09	372108	keystroke_t	t	n/a
186.204	0.12	372408	keystroke_Key.space	Key.space	n/a
186.579	0.1205	373158	keystroke_s	s	n/a
186.834	0.12	373668	keystroke_e	e	n/a
187.194	0.12	374388	keystroke_v	v	n/a
187.389	0.12	374778	keystroke_e	e	n/a
187.479	0.12	374958	keystroke_r	r	n/a
187.839	0.075	375678	keystroke_e	e	n/a
188.094	0.135	376188	keystroke_Key.enter	Key.enter	n/a
188.234	7.467	376468	prompt	n/a	wave prairie aware boss\n
189.0095	0.12	378019	keystroke_w	w	n/a
189.2645	0.165	378529	keystroke_a	a	n/a
189.624	0.135	379248	keystroke_v	v	n/a
189.744	0.1355	379488	keystroke_e	e	n/a
189.9245	0.135	379849	keystroke_Key.space	Key.space	n/a
190.6595	0.12	381319	keystroke_p	p	n/a
191.1245	0.074	382249	keystroke_r	r	n/a
192.2045	0.165	384409	keystroke_a	a	n/a
192.5495	0.1495	385099	keystroke_i	i	n/a
192.759	0.1055	385518	keystroke_r	r	n/a
192.9835	0.12	385967	keystroke_i	i	n/a
193.1485	0.106	386297	keystroke_e	e	n/a
193.3135	0.15	386627	keystroke_Key.space	Key.space	n/a
193.7935	0.135	387587	keystroke_a	a	n/a
193.9885	0.106	387977	keystroke_w	w	n/a
194.2145	0.134	388429	keystroke_a	a	n/a
194.3645	0.104	388729	keystroke_r	r	n/a
194.4845	0.089	388969	keystroke_e	e	n/a
194.6335	0.15	389267	keystroke_Key.space	Key.space	n/a
194.919	0.0905	389838	keystroke_b	b	n/a
195.069	0.135	390138	keystroke_o	o	n/a
195.189	0.075	390378	keystroke_s	s	n/a
195.369	0.09	390738	keystroke_s	s	n/a
195.594	0.105	391188	keystroke_Key.enter	Key.enter	n/a
195.704	5.8315	391408	prompt	n/a	textbook nutten overhead his\n
196.4945	0.12	392989	keystroke_t	t	n/a
196.5845	0.135	393169	keystroke_e	e	n/a
196.8995	0.105	393799	keystroke_x	x	n/a
197.0645	0.105	394129	keystroke_t	t	n/a
197.3195	0.105	394639	keystroke_b	b	n/a
197.4545	0.09	394909	keystroke_o	o	n/a
197.6345	0.12	395269	keystroke_o	o	n/a
197.8295	0.15	395659	keystroke_k	k	n/a
197.9645	0.15	395929	keystroke_Key.space	Key.space	n/a
198.2345	0.075	396469	keystroke_n	n	n/a
198.4445	0.12	396889	keystroke_u	u	n/a
198.5945	0.105	397189	keystroke_t	t	n/a
198.7745	0.105	397549	keystroke_t	t	n/a
198.9695	0.105	397939	keystroke_e	e	n/a
199.1195	0.15	398239	keystroke_n	n	n/a
199.2545	0.165	398509	keystroke_Key.space	Key.space	n/a
199.4795	0.135	398959	keystroke_o	o	n/a
199.6895	0.164	399379	keystroke_v	v	n/a
199.9145	0.15	399829	keystroke_e	e	n/a
200.0495	0.09	400099	keystroke_r	r	n/a
200.2295	0.135	400459	keystroke_h	h	n/a
200.3345	0.12	400669	keystroke_e	e	n/a
200.4845	0.15	400969	keystroke_a	a	n/a
200.6195	0.09	401239	keystroke_d	d	n/a
200.7395	0.12	401479	keystroke_Key.space	Key.space	n/a
201.0245	0.1045	402049	keystroke_h	h	n/a
201.084	0.135	402168	keystroke_i	i	n/a
201.234	0.105	402468	keystroke_s	s	n/a
201.414	0.12	402828	keystroke_Key.enter	Key.enter	n/a
201.539	6.537	403078	prompt	n/a	shelter catering speeds colony\n
202.194	0.09	404388	keystroke_s	s	n/a
202.329	0.1055	404658	keystroke_h	h	n/a
202.449	0.075	404898	keystroke_e	e	n/a
202.584	0.12	405168	keystroke_l	l	n/a
202.824	0.12	405648	keystroke_t	t	n/a
203.019	0.12	406038	keystroke_e	e	n/a
203.109	0.135	406218	keystroke_r	r	n/a
203.319	0.1945	406638	keystroke_Key.space	Key.space	n/a
203.9785	0.12	407957	keystroke_c	c	n/a
204.1885	0.105	408377	keystroke_a	a	n/a
204.3995	0.135	408799	keystroke_t	t	n/a
204.5485	0.106	409097	keystroke_e	e	n/a
204.7295	0.09	409459	keystroke_r	r	n/a
204.9395	0.165	409879	keystroke_i	i	n/a
204.9995	0.165	409999	keystroke_n	n	n/a
205.1795	0.09	410359	keystroke_g	g	n/a
205.3145	0.135	410629	keystroke_Key.space	Key.space	n/a
205.6295	0.09	411259	keystroke_s	s	n/a
205.7945	0.105	411589	keystroke_p	p	n/a
206.004	0.075	412008	keystroke_e	e	n/a
206.154	0.09	412308	keystroke_e	e	n/a
206.394	0.075	412788	keystroke_d	d	n/a
206.484	0.12	412968	keystroke_s	s	n/a
206.664	0.12	413328	keystroke_Key.space	Key.space	n/a
206.9195	0.09	413839	keystroke_c	c	n/a
207.0245	0.105	414049	keystroke_o	o	n/a
207.2195	0.0745	414439	keystroke_l	l	n/a
207.369	0.09	414738	keystroke_o	o	n/a
207.519	0.09	415038	keystroke_n	n	n/a
207.744	0.105	415488	keystroke_y	y	n/a
207.969	0.105	415938	keystroke_Key.enter	Key.enter	n/a
208.0795	7.901	416159	prompt	n/a	dynamics guestbook bridges colleges\n
208.884	0.105	417768	keystroke_d	d	n/a
209.109	0.12	418218	keystroke_y	y	n/a
209.364	0.105	418728	keystroke_n	n	n/a
209.499	0.105	418998	keystroke_a	a	n/a
209.634	0.135	419268	keystroke_m	m	n/a
209.739	0.135	419478	keystroke_i	i	n/a
209.889	0.075	419778	keystroke_c	c	n/a
210.114	0.075	420228	keystroke_s	s	n/a
210.219	0.135	420438	keystroke_Key.space	Key.space	n/a
210.894	0.15	421788	keystroke_g	g	n/a
211.059	0.0755	422118	keystroke_u	u	n/a
211.2545	0.105	422509	keystroke_e	e	n/a
211.464	0.1205	422928	keystroke_s	s	n/a
211.6135	0.09	423227	keystroke_t	t	n/a
211.9285	0.075	423857	keystroke_b	b	n/a
212.0485	0.0905	424097	keystroke_o	o	n/a
212.2295	0.105	424459	keystroke_o	o	n/a
212.3795	0.1645	424759	keystroke_k	k	n/a
212.5145	0.1495	425029	keystroke_Key.space	Key.space	n/a
212.724	0.1055	425448	keystroke_b	b	n/a
212.9645	0.09	425929	keystroke_r	r	n/a
213.0845	0.135	426169	keystroke_i	i	n/a
213.2495	0.1195	426499	keystroke_d	d	n/a
213.489	0.12	426978	keystroke_g	g	n/a
213.594	0.09	427188	keystroke_e	e	n/a
213.924	0.12	427848	keystroke_s	s	n/a
214.089	0.15	428178	keystroke_Key.space	Key.space	n/a
214.569	0.12	429138	keystroke_c	c	n/a
214.674	0.105	429348	keystroke_o	o	n/a
214.899	0.0605	429798	keystroke_l	l	n/a
215.0495	0.075	430099	keystroke_l	l	n/a
215.0945	0.12	430189	keystroke_e	e	n/a
215.3195	0.09	430639	keystroke_g	g	n/a
215.4845	0.075	430969	keystroke_e	e	n/a
215.6495	0.09	431299	keystroke_s	s	n/a
215.8745	0.105	431749	keystroke_Key.enter	Key.enter	n/a
215.9835	8.562	431967	prompt	n/a	composition aquatic holding healing\n
216.669	0.105	433338	keystroke_c	c	n/a
216.804	0.1355	433608	keystroke_o	o	n/a
217.5545	0.15	435109	keystroke_m	m	n/a
217.7045	0.15	435409	keystroke_p	p	n/a
217.9135	0.076	435827	keystroke_s	s	n/a
218.0495	0.12	436099	keystroke_o	o	n/a
218.5585	0.075	437117	keystroke_Key.backspace	Key.backspace	n/a
218.7085	0.09	437417	keystroke_Key.backspace	Key.backspace	n/a
218.9195	0.12	437839	keystroke_o	o	n/a
219.0995	0.09	438199	keystroke_s	s	n/a
219.2795	0.105	438559	keystroke_i	i	n/a
219.489	0.105	438978	keystroke_t	t	n/a
219.609	0.105	439218	keystroke_i	i	n/a
219.699	0.135	439398	keystroke_o	o	n/a
219.789	0.12	439578	keystroke_n	n	n/a
220.479	0.15	440958	keystroke_Key.space	Key.space	n/a
220.749	0.135	441498	keystroke_a	a	n/a
221.0195	0.105	442039	keystroke_q	q	n/a
221.1995	0.12	442399	keystroke_u	u	n/a
221.3945	0.135	442789	keystroke_a	a	n/a
221.5745	0.09	443149	keystroke_t	t	n/a
221.7545	0.12	443509	keystroke_i	i	n/a
221.9485	0.121	443897	keystroke_c	c	n/a
222.0845	0.12	444169	keystroke_Key.space	Key.space	n/a
222.3245	0.12	444649	keystroke_h	h	n/a
222.4295	0.105	444859	keystroke_o	o	n/a
222.6095	0.12	445219	keystroke_l	l	n/a
222.7445	0.0745	445489	keystroke_d	d	n/a
222.864	0.15	445728	keystroke_i	i	n/a
222.969	0.105	445938	keystroke_n	n	n/a
223.089	0.09	446178	keystroke_g	g	n/a
223.209	0.12	446418	keystroke_Key.space	Key.space	n/a
223.434	0.12	446868	keystroke_h	h	n/a
223.584	0.09	447168	keystroke_e	e	n/a
223.779	0.12	447558	keystroke_a	a	n/a
223.884	0.105	447768	keystroke_l	l	n/a
224.049	0.135	448098	keystroke_i	i	n/a
224.139	0.135	448278	keystroke_n	n	n/a
224.244	0.075	448488	keystroke_g	g	n/a
224.424	0.12	448848	keystroke_Key.enter	Key.enter	n/a
224.549	12.4165	449098	prompt	n/a	scotland footwear fairly extras\n
225.1745	0.09	450349	keystroke_s	s	n/a
225.4445	0.12	450889	keystroke_c	c	n/a
225.6695	0.12	451339	keystroke_o	o	n/a
225.8495	0.105	451699	keystroke_t	t	n/a
225.9995	0.075	451999	keystroke_h	h	n/a
226.2245	0.105	452449	keystroke_l	l	n/a
226.3595	0.12	452719	keystroke_a	a	n/a
226.4945	0.09	452989	keystroke_n	n	n/a
226.6745	0.09	453349	keystroke_d	d	n/a
226.989	0.075	453978	keystroke_Key.backspace	Key.backspace	n/a
227.154	0.09	454308	keystroke_Key.backspace	Key.backspace	n/a
227.3495	0.06	454699	keystroke_Key.backspace	Key.backspace	n/a
227.499	0.06	454998	keystroke_Key.backspace	Key.backspace	n/a
227.739	0.015	455478	keystroke_Key.backspace	Key.backspace	n/a
227.934	0.06	455868	keystroke_l	l	n/a
228.159	0.12	456318	keystroke_a	a	n/a
228.399	0.105	456798	keystroke_n	n	n/a
228.549	0.075	457098	keystroke_d	d	n/a
228.774	0.1505	457548	keystroke_Key.space	Key.space	n/a
229.4345	0.12	458869	keystroke_f	f	n/a
229.7935	0.09	459587	keystroke_o	o	n/a
229.9895	0.104	459979	keystroke_o	o	n/a
230.1995	0.12	460399	keystroke_t	t	n/a
231.0095	0.03	462019	keystroke_w	w	n/a
231.174	0.12	462348	keystroke_e	e	n/a
231.354	0.1945	462708	keystroke_a	a	n/a
231.4885	0.136	462977	keystroke_r	r	n/a
231.6985	0.121	463397	keystroke_Key.space	Key.space	n/a
232.5395	0.119	465079	keystroke_f	f	n/a
232.7195	0.149	465439	keystroke_a	a	n/a
233.0045	0.12	466009	keystroke_i	i	n/a
233.1685	0.0905	466337	keystroke_r	r	n/a
233.919	0.12	467838	keystroke_l	l	n/a
234.174	0.12	468348	keystroke_y	y	n/a
234.279	0.165	468558	keystroke_Key.space	Key.space	n/a
234.639	0.12	469278	keystroke_e	e	n/a
235.6285	0.105	471257	keystroke_x	x	n/a
235.9135	0.12	471827	keystroke_t	t	n/a
236.1685	0.136	472337	keystroke_r	r	n/a
236.3635	0.12	472727	keystroke_a	a	n/a
236.5885	0.12	473177	keystroke_s	s	n/a
236.844	0.12	473688	keystroke_Key.enter	Key.enter	n/a
236.9685	7.437	473937	prompt	n/a	winner graphs volume within\n
237.7585	0.105	475517	keystroke_w	w	n/a
237.9085	0.1505	475817	keystroke_i	i	n/a
238.074	0.075	476148	keystroke_n	n	n/a
238.239	0.135	476478	keystroke_n	n	n/a
238.389	0.165	476778	keystroke_e	e	n/a
238.494	0.15	476988	keystroke_r	r	n/a
238.629	0.135	477258	keystroke_Key.space	Key.space	n/a
239.079	0.12	478158	keystroke_g	g	n/a
239.454	0.12	478908	keystroke_r	r	n/a
239.649	0.135	479298	keystroke_a	a	n/a
239.829	0.12	479658	keystroke_p	p	n/a
240.0385	0.135	480077	keystroke_h	h	n/a
240.4135	0.105	480827	keystroke_c	c	n/a
240.8785	0.105	481757	keystroke_Key.backspace	Key.backspace	n/a
241.0135	0.12	482027	keystroke_s	s	n/a
241.209	0.135	482418	keystroke_Key.space	Key.space	n/a
241.434	0.105	482868	keystroke_v	v	n/a
241.6735	0.09	483347	keystroke_o	o	n/a
241.929	0.105	483858	keystroke_l	l	n/a
242.109	0.12	484218	keystroke_u	u	n/a
242.394	0.105	484788	keystroke_m	m	n/a
242.664	0.105	485328	keystroke_e	e	n/a
242.859	0.135	485718	keystroke_Key.space	Key.space	n/a
243.384	0.09	486768	keystroke_w	w	n/a
243.534	0.12	487068	keystroke_i	i	n/a
243.699	0.105	487398	keystroke_t	t	n/a
243.789	0.105	487578	keystroke_h	h	n/a
243.939	0.165	487878	keystroke_i	i	n/a
244.044	0.135	488088	keystroke_n	n	n/a
244.284	0.12	488568	keystroke_Key.enter	Key.enter	n/a
244.4095	7.601	488819	prompt	n/a	framing strengths catholic rock\n
244.9745	0.12	489949	keystroke_f	f	n/a
245.3345	0.09	490669	keystroke_r	r	n/a
245.4545	0.135	490909	keystroke_a	a	n/a
245.6345	0.165	491269	keystroke_m	m	n/a
246.1145	0.1195	492229	keystroke_i	i	n/a
246.189	0.15	492378	keystroke_n	n	n/a
246.369	0.09	492738	keystroke_g	g	n/a
246.534	0.135	493068	keystroke_Key.space	Key.space	n/a
246.9235	0.15	493847	keystroke_s	s	n/a
247.1035	0.105	494207	keystroke_t	t	n/a
247.2985	0.121	494597	keystroke_r	r	n/a
247.4785	0.09	494957	keystroke_e	e	n/a
247.6735	0.121	495347	keystroke_n	n	n/a
247.8235	0.106	495647	keystroke_g	g	n/a
248.1835	0.1205	496367	keystroke_t	t	n/a
248.274	0.135	496548	keystroke_h	h	n/a
248.4985	0.1055	496997	keystroke_s	s	n/a
248.664	0.1345	497328	keystroke_Key.space	Key.space	n/a
248.9335	0.1055	497867	keystroke_c	c	n/a
249.114	0.15	498228	keystroke_a	a	n/a
249.369	0.1195	498738	keystroke_t	t	n/a
249.579	0.06	499158	keystroke_h	h	n/a
250.089	0.09	500178	keystroke_o	o	n/a
250.314	0.09	500628	keystroke_l	l	n/a
250.509	0.105	501018	keystroke_i	i	n/a
250.644	0.12	501288	keystroke_c	c	n/a
250.824	0.1495	501648	keystroke_Key.space	Key.space	n/a
251.2285	0.105	502457	keystroke_r	r	n/a
251.3485	0.105	502697	keystroke_o	o	n/a
251.5135	0.12	503027	keystroke_c	c	n/a
251.6485	0.105	503297	keystroke_k	k	n/a
251.9035	0.105	503807	keystroke_Key.enter	Key.enter	n/a
252.0155	9.88	504031	prompt	n/a	known heads acoustic dimensions\n
252.7595	0.135	505519	keystroke_k	k	n/a
252.9545	0.18	505909	keystroke_n	n	n/a
253.1795	0.135	506359	keystroke_o	o	n/a
253.4045	0.135	506809	keystroke_w	w	n/a
253.5845	0.1495	507169	keystroke_Key.space	Key.space	n/a
254.229	0.1045	508458	keystroke_Key.backspace	Key.backspace	n/a
254.4835	0.135	508967	keystroke_n	n	n/a
254.6035	0.15	509207	keystroke_Key.space	Key.space	n/a
255.039	0.135	510078	keystroke_h	h	n/a
255.144	0.12	510288	keystroke_e	e	n/a
255.309	0.12	510618	keystroke_a	a	n/a
255.4895	0.1045	510979	keystroke_d	d	n/a
255.7145	0.15	511429	keystroke_s	s	n/a
255.9095	0.12	511819	keystroke_Key.space	Key.space	n/a
256.539	0.15	513078	keystroke_a	a	n/a
257.1085	0.09	514217	keystroke_s	s	n/a
257.7985	0.1355	515597	keystroke_o	o	n/a
258.039	0.135	516078	keystroke_u	u	n/a
258.339	0.135	516678	keystroke_s	s	n/a
258.579	0.09	517158	keystroke_t	t	n/a
258.729	0.135	517458	keystroke_i	i	n/a
258.909	0.12	517818	keystroke_c	c	n/a
259.104	0.15	518208	keystroke_Key.space	Key.space	n/a
259.644	0.105	519288	keystroke_d	d	n/a
260.019	0.105	520038	keystroke_i	i	n/a
260.184	0.12	520368	keystroke_m	m	n/a
260.544	0.105	521088	keystroke_e	e	n/a
260.679	0.15	521358	keystroke_n	n	n/a
261.099	0.09	522198	keystroke_s	s	n/a
261.249	0.135	522498	keystroke_i	i	n/a
261.354	0.1345	522708	keystroke_o	o	n/a
261.4285	0.165	522857	keystroke_n	n	n/a
261.5485	0.105	523097	keystroke_s	s	n/a
261.7885	0.105	523577	keystroke_Key.enter	Key.enter	n/a
261.8995	6.761	523799	prompt	n/a	inner inclusion afraid comp\n
262.5535	0.135	525107	keystroke_i	i	n/a
262.7035	0.105	525407	keystroke_n	n	n/a
262.884	0.135	525768	keystroke_n	n	n/a
263.049	0.12	526098	keystroke_e	e	n/a
263.124	0.1505	526248	keystroke_r	r	n/a
263.2595	0.1195	526519	keystroke_Key.space	Key.space	n/a
263.4995	0.1345	526999	keystroke_i	i	n/a
263.619	0.15	527238	keystroke_n	n	n/a
263.9945	0.105	527989	keystroke_c	c	n/a
264.1595	0.225	528319	keystroke_l	l	n/a
264.354	0.1355	528708	keystroke_u	u	n/a
264.8635	0.1055	529727	keystroke_s	s	n/a
265.044	0.15	530088	keystroke_i	i	n/a
265.1785	0.1205	530357	keystroke_o	o	n/a
265.254	0.15	530508	keystroke_n	n	n/a
265.4635	0.1505	530927	keystroke_Key.space	Key.space	n/a
265.7485	0.1205	531497	keystroke_a	a	n/a
266.2595	0.09	532519	keystroke_f	f	n/a
266.5145	0.09	533029	keystroke_r	r	n/a
266.7395	0.1195	533479	keystroke_a	a	n/a
266.889	0.135	533778	keystroke_i	i	n/a
267.054	0.105	534108	keystroke_d	d	n/a
267.264	0.12	534528	keystroke_Key.space	Key.space	n/a
267.864	0.12	535728	keystroke_c	c	n/a
267.999	0.165	535998	keystroke_o	o	n/a
268.149	0.165	536298	keystroke_m	m	n/a
268.269	0.105	536538	keystroke_p	p	n/a
268.524	0.135	537048	keystroke_Key.enter	Key.enter	n/a
268.6655	6.175	537331	prompt	n/a	equal missouri butter joke\n
269.304	0.15	538608	keystroke_e	e	n/a
269.484	0.12	538968	keystroke_q	q	n/a
269.634	0.105	539268	keystroke_u	u	n/a
269.904	0.1195	539808	keystroke_a	a	n/a
270.0385	0.165	540077	keystroke_l	l	n/a
270.1585	0.12	540317	keystroke_Key.space	Key.space	n/a
270.7135	0.1205	541427	keystroke_m	m	n/a
270.7885	0.1355	541577	keystroke_i	i	n/a
270.939	0.105	541878	keystroke_s	s	n/a
271.119	0.105	542238	keystroke_s	s	n/a
271.434	0.12	542868	keystroke_o	o	n/a
271.749	0.09	543498	keystroke_u	u	n/a
271.869	0.09	543738	keystroke_r	r	n/a
272.004	0.09	544008	keystroke_i	i	n/a
272.184	0.135	544368	keystroke_Key.space	Key.space	n/a
272.7085	0.121	545417	keystroke_b	b	n/a
272.8895	0.1045	545779	keystroke_u	u	n/a
273.3845	0.06	546769	keystroke_t	t	n/a
273.5195	0.105	547039	keystroke_t	t	n/a
273.8195	0.03	547639	keystroke_e	e	n/a
273.8345	0.09	547669	keystroke_r	r	n/a
273.9245	0.135	547849	keystroke_Key.space	Key.space	n/a
274.0445	0.165	548089	keystroke_j	j	n/a
274.1795	0.134	548359	keystroke_o	o	n/a
274.3895	0.104	548779	keystroke_k	k	n/a
274.5245	0.105	549049	keystroke_e	e	n/a
274.7185	0.1205	549437	keystroke_Key.enter	Key.enter	n/a
274.844	8.5015	549688	prompt	n/a	childrens fork recordings presentations\n
275.994	0.09	551988	keystroke_c	c	n/a
276.099	0.12	552198	keystroke_h	h	n/a
276.204	0.12	552408	keystroke_i	i	n/a
276.429	0.12	552858	keystroke_l	l	n/a
276.564	0.105	553128	keystroke_d	d	n/a
276.924	0.12	553848	keystroke_r	r	n/a
277.149	0.105	554298	keystroke_e	e	n/a
277.374	0.12	554748	keystroke_n	n	n/a
277.824	0.105	555648	keystroke_s	s	n/a
277.989	0.135	555978	keystroke_Key.space	Key.space	n/a
278.2135	0.09	556427	keystroke_f	f	n/a
278.3185	0.105	556637	keystroke_o	o	n/a
278.4685	0.09	556937	keystroke_r	r	n/a
278.6335	0.165	557267	keystroke_k	k	n/a
278.7835	0.1355	557567	keystroke_Key.space	Key.space	n/a
279.429	0.135	558858	keystroke_r	r	n/a
279.549	0.1055	559098	keystroke_e	e	n/a
279.7895	0.105	559579	keystroke_c	c	n/a
279.9545	0.134	559909	keystroke_o	o	n/a
280.1045	0.074	560209	keystroke_r	r	n/a
280.2085	0.121	560417	keystroke_d	d	n/a
280.4345	0.165	560869	keystroke_i	i	n/a
280.4945	0.15	560989	keystroke_n	n	n/a
280.6145	0.075	561229	keystroke_g	g	n/a
280.8245	0.09	561649	keystroke_s	s	n/a
280.9435	0.121	561887	keystroke_Key.space	Key.space	n/a
281.4545	0.014	562909	keystroke_p	p	n/a
281.5295	0.134	563059	keystroke_r	r	n/a
281.6345	0.104	563269	keystroke_e	e	n/a
281.8435	0.135	563687	keystroke_s	s	n/a
281.9945	0.105	563989	keystroke_e	e	n/a
282.1585	0.121	564317	keystroke_n	n	n/a
282.2635	0.106	564527	keystroke_t	t	n/a
282.3995	0.135	564799	keystroke_a	a	n/a
282.5035	0.091	565007	keystroke_t	t	n/a
282.6095	0.104	565219	keystroke_i	i	n/a
282.6845	0.1945	565369	keystroke_o	o	n/a
282.7585	0.1055	565517	keystroke_n	n	n/a
282.954	0.105	565908	keystroke_s	s	n/a
283.224	0.1195	566448	keystroke_Key.enter	Key.enter	n/a
283.349	5.142	566698	prompt	n/a	difficult fort ending devil\n
284.019	0.105	568038	keystroke_d	d	n/a
284.214	0.12	568428	keystroke_i	i	n/a
284.349	0.09	568698	keystroke_f	f	n/a
284.484	0.15	568968	keystroke_f	f	n/a
284.904	0.135	569808	keystroke_i	i	n/a
285.069	0.105	570138	keystroke_c	c	n/a
285.309	0.105	570618	keystroke_u	u	n/a
285.429	0.105	570858	keystroke_l	l	n/a
285.594	0.105	571188	keystroke_t	t	n/a
285.714	0.12	571428	keystroke_Key.space	Key.space	n/a
285.924	0.075	571848	keystroke_f	f	n/a
286.014	0.1195	572028	keystroke_o	o	n/a
286.1485	0.075	572297	keystroke_r	r	n/a
286.3285	0.0905	572657	keystroke_t	t	n/a
286.449	0.135	572898	keystroke_Key.space	Key.space	n/a
286.659	0.075	573318	keystroke_e	e	n/a
286.839	0.105	573678	keystroke_n	n	n/a
286.989	0.09	573978	keystroke_d	d	n/a
287.124	0.135	574248	keystroke_i	i	n/a
287.184	0.135	574368	keystroke_n	n	n/a
287.289	0.075	574578	keystroke_g	g	n/a
287.394	0.15	574788	keystroke_Key.space	Key.space	n/a
287.559	0.075	575118	keystroke_d	d	n/a
287.754	0.045	575508	keystroke_e	e	n/a
287.9195	0.09	575839	keystroke_v	v	n/a
288.0245	0.1195	576049	keystroke_i	i	n/a
288.174	0.105	576348	keystroke_l	l	n/a
288.384	0.1055	576768	keystroke_Key.enter	Key.enter	n/a
288.495	8.4405	576990	prompt	n/a	fastest hacker intake monsters\n
289.179	0.12	578358	keystroke_f	f	n/a
289.359	0.18	578718	keystroke_a	a	n/a
289.509	0.12	579018	keystroke_s	s	n/a
289.644	0.135	579288	keystroke_t	t	n/a
289.794	0.09	579588	keystroke_e	e	n/a
289.914	0.15	579828	keystroke_s	s	n/a
290.049	0.105	580098	keystroke_t	t	n/a
290.214	0.12	580428	keystroke_Key.space	Key.space	n/a
290.514	0.12	581028	keystroke_h	h	n/a
290.679	0.1205	581358	keystroke_a	a	n/a
290.9345	0.09	581869	keystroke_c	c	n/a
291.0545	0.135	582109	keystroke_k	k	n/a
291.2495	0.1345	582499	keystroke_e	e	n/a
291.324	0.135	582648	keystroke_r	r	n/a
291.489	0.135	582978	keystroke_Key.space	Key.space	n/a
291.789	0.1945	583578	keystroke_i	i	n/a
291.9385	0.195	583877	keystroke_n	n	n/a
292.1485	0.075	584297	keystroke_t	t	n/a
292.2535	0.135	584507	keystroke_a	a	n/a
292.3735	0.135	584747	keystroke_k	k	n/a
292.5385	0.09	585077	keystroke_e	e	n/a
292.6885	0.135	585377	keystroke_Key.space	Key.space	n/a
293.4535	0.165	586907	keystroke_o	o	n/a
293.5735	0.135	587147	keystroke_n	n	n/a
293.7685	0.12	587537	keystroke_s	s	n/a
294.1135	0.105	588227	keystroke_Key.backspace	Key.backspace	n/a
294.3235	0.06	588647	keystroke_Key.backspace	Key.backspace	n/a
294.4735	0.0905	588947	keystroke_Key.backspace	Key.backspace	n/a
294.759	0.1345	589518	keystroke_m	m	n/a
294.9085	0.165	589817	keystroke_o	o	n/a
295.0435	0.12	590087	keystroke_n	n	n/a
295.1935	0.15	590387	keystroke_s	s	n/a
295.3285	0.105	590657	keystroke_t	t	n/a
295.7185	0.135	591437	keystroke_e	e	n/a
295.7935	0.1205	591587	keystroke_r	r	n/a
296.559	0.12	593118	keystroke_s	s	n/a
296.814	0.12	593628	keystroke_Key.enter	Key.enter	n/a
296.9385	7.122	593877	prompt	n/a	charles goals sphere suse\n
297.654	0.12	595308	keystroke_c	c	n/a
297.804	0.12	595608	keystroke_h	h	n/a
298.374	0.15	596748	keystroke_a	a	n/a
298.539	0.1045	597078	keystroke_r	r	n/a
298.7785	0.1205	597557	keystroke_l	l	n/a
298.914	0.06	597828	keystroke_e	e	n/a
299.079	0.105	598158	keystroke_s	s	n/a
299.214	0.1345	598428	keystroke_Key.space	Key.space	n/a
299.6035	0.091	599207	keystroke_g	g	n/a
299.7095	0.12	599419	keystroke_o	o	n/a
299.8885	0.1505	599777	keystroke_a	a	n/a
300.0845	0.1045	600169	keystroke_l	l	n/a
300.3695	0.105	600739	keystroke_s	s	n/a
300.519	0.135	601038	keystroke_Key.space	Key.space	n/a
300.849	0.12	601698	keystroke_s	s	n/a
301.284	0.1195	602568	keystroke_p	p	n/a
301.6135	0.106	603227	keystroke_h	h	n/a
301.8545	0.255	603709	keystroke_e	e	n/a
302.0635	0.121	604127	keystroke_r	r	n/a
302.2135	0.106	604427	keystroke_e	e	n/a
302.6185	0.151	605237	keystroke_Key.space	Key.space	n/a
303.0535	0.09	606107	keystroke_s	s	n/a
303.2345	0.135	606469	keystroke_u	u	n/a
303.5495	0.12	607099	keystroke_s	s	n/a
303.6845	0.09	607369	keystroke_e	e	n/a
303.9545	0.105	607909	keystroke_Key.enter	Key.enter	n/a
304.0635	8.5925	608127	prompt	n/a	decreased approaches hired english\n
305.3035	0.12	610607	keystroke_d	d	n/a
305.529	0.105	611058	keystroke_e	e	n/a
305.784	0.105	611568	keystroke_c	c	n/a
306.009	0.15	612018	keystroke_r	r	n/a
306.1295	0.1495	612259	keystroke_e	e	n/a
306.7585	0.15	613517	keystroke_a	a	n/a
306.9385	0.165	613877	keystroke_s	s	n/a
307.1045	0.089	614209	keystroke_e	e	n/a
307.3285	0.106	614657	keystroke_d	d	n/a
307.4945	0.135	614989	keystroke_Key.space	Key.space	n/a
307.7195	0.12	615439	keystroke_a	a	n/a
307.8995	0.105	615799	keystroke_p	p	n/a
308.0645	0.1345	616129	keystroke_p	p	n/a
308.259	0.12	616518	keystroke_r	r	n/a
308.439	0.12	616878	keystroke_o	o	n/a
308.664	0.12	617328	keystroke_a	a	n/a
308.949	0.12	617898	keystroke_c	c	n/a
309.129	0.135	618258	keystroke_h	h	n/a
309.414	0.105	618828	keystroke_e	e	n/a
309.594	0.105	619188	keystroke_s	s	n/a
309.729	0.135	619458	keystroke_Key.space	Key.space	n/a
310.029	0.165	620058	keystroke_h	h	n/a
310.164	0.15	620328	keystroke_i	i	n/a
310.329	0.105	620658	keystroke_r	r	n/a
310.449	0.075	620898	keystroke_e	e	n/a
310.644	0.075	621288	keystroke_d	d	n/a
310.779	0.1645	621558	keystroke_Key.space	Key.space	n/a
311.2885	0.061	622577	keystroke_e	e	n/a
311.4085	0.06	622817	keystroke_n	n	n/a
311.8435	0.076	623687	keystroke_g	g	n/a
311.9785	0.166	623957	keystroke_l	l	n/a
312.1145	0.119	624229	keystroke_i	i	n/a
312.264	0.105	624528	keystroke_s	s	n/a
312.354	0.105	624708	keystroke_h	h	n/a
312.549	0.105	625098	keystroke_Key.enter	Key.enter	n/a
312.66	6.7755	625320	prompt	n/a	student manga chrome including\n
313.2995	0.12	626599	keystroke_s	s	n/a
313.4645	0.105	626929	keystroke_t	t	n/a
313.6145	0.135	627229	keystroke_u	u	n/a
313.7345	0.06	627469	keystroke_d	d	n/a
313.8995	0.075	627799	keystroke_e	e	n/a
314.0345	0.12	628069	keystroke_n	n	n/a
314.1695	0.105	628339	keystroke_t	t	n/a
314.3195	0.134	628639	keystroke_Key.space	Key.space	n/a
314.5295	0.135	629059	keystroke_m	m	n/a
314.6795	0.105	629359	keystroke_a	a	n/a
314.7995	0.09	629599	keystroke_n	n	n/a
315.129	0.09	630258	keystroke_g	g	n/a
315.774	0.135	631548	keystroke_a	a	n/a
315.954	0.15	631908	keystroke_Key.space	Key.space	n/a
316.344	0.12	632688	keystroke_c	c	n/a
316.479	0.135	632958	keystroke_h	h	n/a
316.704	0.105	633408	keystroke_r	r	n/a
316.839	0.165	633678	keystroke_o	o	n/a
316.989	0.135	633978	keystroke_m	m	n/a
317.319	0.09	634638	keystroke_e	e	n/a
317.484	0.12	634968	keystroke_Key.space	Key.space	n/a
317.874	0.135	635748	keystroke_i	i	n/a
317.979	0.12	635958	keystroke_n	n	n/a
318.159	0.09	636318	keystroke_c	c	n/a
318.249	0.15	636498	keystroke_l	l	n/a
318.444	0.135	636888	keystroke_u	u	n/a
318.774	0.1055	637548	keystroke_d	d	n/a
318.9095	0.165	637819	keystroke_i	i	n/a
318.9995	0.15	637999	keystroke_n	n	n/a
319.1195	0.075	638239	keystroke_g	g	n/a
319.3135	0.12	638627	keystroke_Key.enter	Key.enter	n/a
319.4385	9.612	638877	prompt	n/a	technologies spray texture who's\n
320.5445	0.105	641089	keystroke_t	t	n/a
321.099	0.105	642198	keystroke_e	e	n/a
321.369	0.105	642738	keystroke_c	c	n/a
321.5035	0.105	643007	keystroke_h	h	n/a
321.8785	0.165	643757	keystroke_n	n	n/a
321.9985	0.135	643997	keystroke_o	o	n/a
322.2385	0.075	644477	keystroke_l	l	n/a
322.4185	0.105	644837	keystroke_o	o	n/a
322.5835	0.105	645167	keystroke_g	g	n/a
323.784	0.135	647568	keystroke_i	i	n/a
323.964	0.09	647928	keystroke_e	e	n/a
324.144	0.105	648288	keystroke_s	s	n/a
324.279	0.15	648558	keystroke_Key.space	Key.space	n/a
324.729	0.09	649458	keystroke_s	s	n/a
324.849	0.12	649698	keystroke_p	p	n/a
325.284	0.12	650568	keystroke_r	r	n/a
325.494	0.12	650988	keystroke_a	a	n/a
325.704	0.135	651408	keystroke_y	y	n/a
325.854	0.165	651708	keystroke_Key.space	Key.space	n/a
326.229	0.1495	652458	keystroke_t	t	n/a
326.3795	0.119	652759	keystroke_e	e	n/a
326.6185	0.135	653237	keystroke_x	x	n/a
326.8135	0.15	653627	keystroke_t	t	n/a
327.0385	0.12	654077	keystroke_u	u	n/a
327.1735	0.0905	654347	keystroke_r	r	n/a
327.279	0.105	654558	keystroke_e	e	n/a
327.429	0.15	654858	keystroke_Key.space	Key.space	n/a
327.969	0.105	655938	keystroke_w	w	n/a
328.119	0.105	656238	keystroke_h	h	n/a
328.179	0.165	656358	keystroke_o	o	n/a
328.509	0.1345	657018	keystroke_'	'	n/a
328.6885	0.09	657377	keystroke_s	s	n/a
328.944	0.105	657888	keystroke_Key.enter	Key.enter	n/a
329.0535	9.882	658107	prompt	n/a	stamps korean indicator attorneys\n
329.679	0.09	659358	keystroke_s	s	n/a
329.919	0.1045	659838	keystroke_t	t	n/a
330.0685	0.1355	660137	keystroke_a	a	n/a
330.324	0.165	660648	keystroke_p	p	n/a
330.8035	0.105	661607	keystroke_Key.backspace	Key.backspace	n/a
331.0435	0.12	662087	keystroke_m	m	n/a
331.1335	0.15	662267	keystroke_p	p	n/a
331.449	0.135	662898	keystroke_s	s	n/a
331.734	0.12	663468	keystroke_Key.space	Key.space	n/a
332.289	0.135	664578	keystroke_k	k	n/a
332.484	0.12	664968	keystroke_o	o	n/a
332.649	0.0895	665298	keystroke_r	r	n/a
333.2035	0.1055	666407	keystroke_e	e	n/a
333.459	0.1055	666918	keystroke_a	a	n/a
333.5795	0.18	667159	keystroke_n	n	n/a
333.7745	0.149	667549	keystroke_Key.space	Key.space	n/a
334.1195	0.15	668239	keystroke_i	i	n/a
334.1945	0.195	668389	keystroke_n	n	n/a
334.5995	0.075	669199	keystroke_d	d	n/a
334.7345	0.1195	669469	keystroke_i	i	n/a
334.869	0.075	669738	keystroke_c	c	n/a
335.049	0.105	670098	keystroke_a	a	n/a
335.184	0.135	670368	keystroke_t	t	n/a
335.364	0.15	670728	keystroke_o	o	n/a
335.499	0.09	670998	keystroke_r	r	n/a
335.664	0.15	671328	keystroke_Key.space	Key.space	n/a
336.3085	0.045	672617	keystroke_a	a	n/a
336.3835	0.09	672767	keystroke_t	t	n/a
336.5485	0.12	673097	keystroke_t	t	n/a
336.6985	0.165	673397	keystroke_o	o	n/a
336.9845	0.104	673969	keystroke_r	r	n/a
337.1335	0.135	674267	keystroke_n	n	n/a
337.4345	0.089	674869	keystroke_e	e	n/a
337.6585	0.12	675317	keystroke_y	y	n/a
338.0045	0.089	676009	keystroke_;	;	n/a
338.439	0.135	676878	keystroke_Key.backspace	Key.backspace	n/a
338.619	0.09	677238	keystroke_s	s	n/a
338.799	0.135	677598	keystroke_Key.enter	Key.enter	n/a
338.9395	5.336	677879	prompt	n/a	tender abuse commit warner\n
339.8195	0.105	679639	keystroke_t	t	n/a
339.9395	0.12	679879	keystroke_e	e	n/a
340.0745	0.105	680149	keystroke_n	n	n/a
340.1795	0.09	680359	keystroke_d	d	n/a
340.3895	0.119	680779	keystroke_e	e	n/a
340.4645	0.135	680929	keystroke_r	r	n/a
340.6145	0.135	681229	keystroke_Key.space	Key.space	n/a
340.914	0.105	681828	keystroke_a	a	n/a
341.079	0.12	682158	keystroke_b	b	n/a
341.289	0.12	682578	keystroke_u	u	n/a
341.394	0.15	682788	keystroke_s	s	n/a
341.514	0.12	683028	keystroke_e	e	n/a
341.679	0.12	683358	keystroke_Key.space	Key.space	n/a
342.039	0.105	684078	keystroke_c	c	n/a
342.114	0.135	684228	keystroke_o	o	n/a
342.219	0.09	684438	keystroke_m	m	n/a
342.399	0.105	684798	keystroke_m	m	n/a
342.564	0.105	685128	keystroke_i	i	n/a
342.699	0.1195	685398	keystroke_t	t	n/a
342.8485	0.135	685697	keystroke_Key.space	Key.space	n/a
343.2235	0.075	686447	keystroke_w	w	n/a
343.4185	0.1355	686837	keystroke_a	a	n/a
343.569	0.105	687138	keystroke_r	r	n/a
343.719	0.12	687438	keystroke_n	n	n/a
343.869	0.09	687738	keystroke_e	e	n/a
343.944	0.12	687888	keystroke_r	r	n/a
344.154	0.1195	688308	keystroke_Key.enter	Key.enter	n/a
344.278	9.3575	688556	prompt	n/a	devices manufacturer liverpool cedar\n
345.0545	0.09	690109	keystroke_d	d	n/a
345.2495	0.075	690499	keystroke_e	e	n/a
345.4595	0.12	690919	keystroke_v	v	n/a
345.6095	0.1345	691219	keystroke_i	i	n/a
345.9995	0.09	691999	keystroke_c	c	n/a
346.2095	0.075	692419	keystroke_e	e	n/a
346.3445	0.105	692689	keystroke_s	s	n/a
346.5695	0.15	693139	keystroke_Key.space	Key.space	n/a
347.0635	0.15	694127	keystroke_m	m	n/a
347.2735	0.135	694547	keystroke_a	a	n/a
347.3635	0.106	694727	keystroke_n	n	n/a
347.6185	0.1205	695237	keystroke_u	u	n/a
347.754	0.12	695508	keystroke_f	f	n/a
347.919	0.135	695838	keystroke_a	a	n/a
348.084	0.105	696168	keystroke_c	c	n/a
348.399	0.105	696798	keystroke_t	t	n/a
348.819	0.12	697638	keystroke_u	u	n/a
349.0585	0.135	698117	keystroke_r	r	n/a
349.3135	0.09	698627	keystroke_e	e	n/a
349.8085	0.0905	699617	keystroke_r	r	n/a
349.974	0.18	699948	keystroke_Key.space	Key.space	n/a
350.424	0.105	700848	keystroke_l	l	n/a
350.589	0.135	701178	keystroke_i	i	n/a
350.829	0.12	701658	keystroke_v	v	n/a
350.964	0.15	701928	keystroke_e	e	n/a
351.1285	0.1205	702257	keystroke_r	r	n/a
351.444	0.12	702888	keystroke_p	p	n/a
351.6245	0.1045	703249	keystroke_o	o	n/a
351.8035	0.105	703607	keystroke_o	o	n/a
352.0135	0.15	704027	keystroke_l	l	n/a
352.1485	0.135	704297	keystroke_Key.space	Key.space	n/a
352.4785	0.135	704957	keystroke_c	c	n/a
352.7335	0.075	705467	keystroke_e	e	n/a
352.9445	0.089	705889	keystroke_d	d	n/a
353.1395	0.164	706279	keystroke_a	a	n/a
353.2585	0.105	706517	keystroke_r	r	n/a
353.5285	0.105	707057	keystroke_Key.enter	Key.enter	n/a
353.6385	11.637	707277	prompt	n/a	uruguay enhanced regarding twelve\n
354.789	0.1045	709578	keystroke_u	u	n/a
355.1035	0.105	710207	keystroke_r	r	n/a
355.3435	0.12	710687	keystroke_u	u	n/a
355.5085	0.12	711017	keystroke_g	g	n/a
355.7185	0.12	711437	keystroke_u	u	n/a
355.9435	0.18	711887	keystroke_a	a	n/a
356.1085	0.09	712217	keystroke_r	r	n/a
356.3185	0.165	712637	keystroke_y	y	n/a
356.5285	0.15	713057	keystroke_Key.space	Key.space	n/a
357.639	0.105	715278	keystroke_Key.backspace	Key.backspace	n/a
357.819	0.09	715638	keystroke_Key.backspace	Key.backspace	n/a
358.344	0.09	716688	keystroke_Key.backspace	Key.backspace	n/a
358.7335	0.105	717467	keystroke_y	y	n/a
358.959	0.1495	717918	keystroke_Key.space	Key.space	n/a
359.2285	0.105	718457	keystroke_e	e	n/a
359.379	0.1345	718758	keystroke_n	n	n/a
359.709	0.1195	719418	keystroke_h	h	n/a
360.2645	0.134	720529	keystroke_a	a	n/a
360.4445	0.12	720889	keystroke_n	n	n/a
360.6095	0.12	721219	keystroke_c	c	n/a
360.8645	0.075	721729	keystroke_e	e	n/a
361.1045	0.075	722209	keystroke_d	d	n/a
361.2685	0.121	722537	keystroke_Key.space	Key.space	n/a
361.6735	0.09	723347	keystroke_r	r	n/a
361.7495	0.1045	723499	keystroke_e	e	n/a
362.274	0.105	724548	keystroke_g	g	n/a
362.499	0.15	724998	keystroke_a	a	n/a
362.754	0.1045	725508	keystroke_r	r	n/a
362.9035	0.12	725807	keystroke_d	d	n/a
363.0835	0.165	726167	keystroke_i	i	n/a
363.1435	0.15	726287	keystroke_n	n	n/a
363.2945	0.104	726589	keystroke_g	g	n/a
363.4435	0.12	726887	keystroke_Key.space	Key.space	n/a
363.8635	0.105	727727	keystroke_t	t	n/a
364.1185	0.0905	728237	keystroke_w	w	n/a
364.239	0.12	728478	keystroke_e	e	n/a
364.419	0.165	728838	keystroke_l	l	n/a
364.749	0.12	729498	keystroke_v	v	n/a
364.9145	0.1045	729829	keystroke_e	e	n/a
365.154	0.1205	730308	keystroke_Key.enter	Key.enter	n/a
365.2785	5.562	730557	prompt	n/a	usgs sharon avatar floor\n
366.024	0.12	732048	keystroke_u	u	n/a
366.219	0.09	732438	keystroke_s	s	n/a
366.399	0.09	732798	keystroke_g	g	n/a
366.624	0.09	733248	keystroke_s	s	n/a
366.789	0.105	733578	keystroke_Key.space	Key.space	n/a
366.984	0.09	733968	keystroke_s	s	n/a
367.104	0.12	734208	keystroke_h	h	n/a
367.254	0.18	734508	keystroke_a	a	n/a
367.404	0.105	734808	keystroke_r	r	n/a
367.539	0.15	735078	keystroke_o	o	n/a
367.659	0.135	735318	keystroke_n	n	n/a
367.764	0.135	735528	keystroke_Key.space	Key.space	n/a
368.004	0.1355	736008	keystroke_a	a	n/a
368.1685	0.181	736337	keystroke_v	v	n/a
368.3945	0.119	736789	keystroke_a	a	n/a
368.6645	0.12	737329	keystroke_t	t	n/a
369.159	0.18	738318	keystroke_a	a	n/a
369.399	0.0895	738798	keystroke_r	r	n/a
369.5635	0.135	739127	keystroke_Key.space	Key.space	n/a
369.9085	0.09	739817	keystroke_f	f	n/a
370.0585	0.075	740117	keystroke_l	l	n/a
370.2535	0.075	740507	keystroke_o	o	n/a
370.4035	0.105	740807	keystroke_o	o	n/a
370.5385	0.105	741077	keystroke_r	r	n/a
370.7185	0.12	741437	keystroke_Key.enter	Key.enter	n/a
370.843	9.0425	741686	prompt	n/a	assignments demand uniform journals\n
371.5735	0.12	743147	keystroke_a	a	n/a
371.7835	0.075	743567	keystroke_s	s	n/a
371.9635	0.09	743927	keystroke_s	s	n/a
372.0685	0.105	744137	keystroke_i	i	n/a
372.219	0.09	744438	keystroke_g	g	n/a
372.354	0.12	744708	keystroke_n	n	n/a
372.609	0.15	745218	keystroke_m	m	n/a
372.819	0.12	745638	keystroke_e	e	n/a
372.999	0.105	745998	keystroke_n	n	n/a
373.164	0.105	746328	keystroke_t	t	n/a
373.719	0.09	747438	keystroke_s	s	n/a
373.869	0.135	747738	keystroke_Key.space	Key.space	n/a
374.1535	0.075	748307	keystroke_d	d	n/a
374.3335	0.075	748667	keystroke_e	e	n/a
374.4985	0.12	748997	keystroke_m	m	n/a
374.6335	0.121	749267	keystroke_a	a	n/a
374.7695	0.0895	749539	keystroke_n	n	n/a
374.889	0.105	749778	keystroke_d	d	n/a
375.099	0.105	750198	keystroke_Key.space	Key.space	n/a
375.264	0.105	750528	keystroke_u	u	n/a
375.474	0.135	750948	keystroke_n	n	n/a
375.669	0.105	751338	keystroke_i	i	n/a
375.894	0.09	751788	keystroke_f	f	n/a
376.149	0.0745	752298	keystroke_r	r	n/a
376.4785	0.105	752957	keystroke_o	o	n/a
376.823	0.075	753646	keystroke_Key.backspace	Key.backspace	n/a
376.974	0.075	753948	keystroke_Key.backspace	Key.backspace	n/a
377.183	0.12	754366	keystroke_o	o	n/a
377.349	0.1045	754698	keystroke_r	r	n/a
377.5135	0.1205	755027	keystroke_m	m	n/a
377.6185	0.105	755237	keystroke_Key.space	Key.space	n/a
377.8285	0.09	755657	keystroke_j	j	n/a
377.9485	0.195	755897	keystroke_o	o	n/a
378.219	0.12	756438	keystroke_u	u	n/a
378.729	0.1045	757458	keystroke_r	r	n/a
378.9685	0.1205	757937	keystroke_n	n	n/a
379.239	0.135	758478	keystroke_a	a	n/a
379.419	0.12	758838	keystroke_l	l	n/a
379.569	0.105	759138	keystroke_s	s	n/a
379.779	0.105	759558	keystroke_Key.enter	Key.enter	n/a
379.8885	14.3365	759777	prompt	n/a	sleeping symposium investigate commentary\n
380.544	0.0895	761088	keystroke_s	s	n/a
380.6935	0.12	761387	keystroke_l	l	n/a
381.0985	0.09	762197	keystroke_e	e	n/a
381.2785	0.105	762557	keystroke_e	e	n/a
381.4135	0.15	762827	keystroke_p	p	n/a
381.6685	0.165	763337	keystroke_i	i	n/a
381.7735	0.15	763547	keystroke_n	n	n/a
382.0135	0.075	764027	keystroke_g	g	n/a
382.2085	0.12	764417	keystroke_Key.space	Key.space	n/a
382.5385	0.105	765077	keystroke_s	s	n/a
382.809	0.12	765618	keystroke_y	y	n/a
383.1235	0.165	766247	keystroke_m	m	n/a
383.3185	0.135	766637	keystroke_p	p	n/a
383.5885	0.12	767177	keystroke_o	o	n/a
383.7835	0.09	767567	keystroke_s	s	n/a
384.0235	0.12	768047	keystroke_i	i	n/a
384.2785	0.105	768557	keystroke_u	u	n/a
384.5485	0.12	769097	keystroke_m	m	n/a
384.7135	0.1055	769427	keystroke_Key.space	Key.space	n/a
384.924	0.1045	769848	keystroke_i	i	n/a
385.1935	0.1805	770387	keystroke_v	v	n/a
386.0485	0.06	772097	keystroke_=	=	n/a
386.3035	0.09	772607	keystroke_n	n	n/a
386.7385	0.105	773477	keystroke_=	=	n/a
386.9935	0.045	773987	keystroke_=	=	n/a
387.7435	0.09	775487	keystroke_Key.backspace	Key.backspace	n/a
387.9685	0.09	775937	keystroke_Key.backspace	Key.backspace	n/a
388.1785	0.075	776357	keystroke_Key.backspace	Key.backspace	n/a
388.3735	0.09	776747	keystroke_Key.backspace	Key.backspace	n/a
388.704	0.075	777408	keystroke_Key.backspace	Key.backspace	n/a
389.3635	0.09	778727	keystroke_n	n	n/a
389.6485	0.12	779297	keystroke_v	v	n/a
389.9035	0.0905	779807	keystroke_e	e	n/a
390.099	0.165	780198	keystroke_s	s	n/a
390.354	0.075	780708	keystroke_t	t	n/a
390.504	0.15	781008	keystroke_i	i	n/a
390.8035	0.135	781607	keystroke_g	g	n/a
391.3585	0.165	782717	keystroke_a	a	n/a
391.5835	0.105	783167	keystroke_t	t	n/a
391.9285	0.075	783857	keystroke_e	e	n/a
392.0635	0.135	784127	keystroke_Key.space	Key.space	n/a
392.3935	0.12	784787	keystroke_c	c	n/a
392.5285	0.135	785057	keystroke_o	o	n/a
392.7535	0.09	785507	keystroke_m	m	n/a
392.9485	0.09	785897	keystroke_m	m	n/a
393.0685	0.12	786137	keystroke_e	e	n/a
393.2035	0.12	786407	keystroke_n	n	n/a
393.3235	0.075	786647	keystroke_t	t	n/a
393.5935	0.18	787187	keystroke_a	a	n/a
393.7285	0.105	787457	keystroke_r	r	n/a
393.8935	0.105	787787	keystroke_y	y	n/a
394.1185	0.105	788237	keystroke_Key.enter	Key.enter	n/a
394.228	12.717	788456	prompt	n/a	description aquatic assured verification\n
394.914	0.105	789828	keystroke_d	d	n/a
395.139	0.075	790278	keystroke_e	e	n/a
395.289	0.12	790578	keystroke_s	s	n/a
395.544	0.09	791088	keystroke_c	c	n/a
395.739	0.105	791478	keystroke_r	r	n/a
395.859	0.165	791718	keystroke_i	i	n/a
396.009	0.135	792018	keystroke_p	p	n/a
396.174	0.105	792348	keystroke_t	t	n/a
396.294	0.165	792588	keystroke_i	i	n/a
396.444	0.15	792888	keystroke_o	o	n/a
396.549	0.18	793098	keystroke_n	n	n/a
396.669	0.165	793338	keystroke_Key.space	Key.space	n/a
398.1385	0.15	796277	keystroke_a	a	n/a
398.6035	0.12	797207	keystroke_q	q	n/a
398.7985	0.135	797597	keystroke_u	u	n/a
398.9635	0.15	797927	keystroke_a	a	n/a
399.2635	0.105	798527	keystroke_t	t	n/a
399.4135	0.1055	798827	keystroke_i	i	n/a
399.579	0.105	799158	keystroke_c	c	n/a
399.759	0.12	799518	keystroke_Key.space	Key.space	n/a
400.389	0.12	800778	keystroke_a	a	n/a
400.704	0.015	801408	keystroke_s	s	n/a
400.779	0.09	801558	keystroke_s	s	n/a
400.959	0.105	801918	keystroke_u	u	n/a
401.079	0.105	802158	keystroke_r	r	n/a
401.214	0.09	802428	keystroke_e	e	n/a
401.394	0.09	802788	keystroke_d	d	n/a
401.529	0.135	803058	keystroke_Key.space	Key.space	n/a
401.739	0.1645	803478	keystroke_v	v	n/a
401.9635	0.18	803927	keystroke_e	e	n/a
402.1285	0.1055	804257	keystroke_r	r	n/a
402.384	0.105	804768	keystroke_f	f	n/a
402.534	0.12	805068	keystroke_i	i	n/a
404.5735	0.105	809147	keystroke_Key.backspace	Key.backspace	n/a
404.7535	0.09	809507	keystroke_Key.backspace	Key.backspace	n/a
405.024	0.105	810048	keystroke_i	i	n/a
405.279	0.089	810558	keystroke_f	f	n/a
405.488	0.15	810976	keystroke_i	i	n/a
405.968	0.1355	811936	keystroke_c	c	n/a
406.1335	0.195	812267	keystroke_a	a	n/a
406.2985	0.105	812597	keystroke_t	t	n/a
406.4335	0.1055	812867	keystroke_i	i	n/a
406.509	0.135	813018	keystroke_o	o	n/a
406.599	0.12	813198	keystroke_n	n	n/a
406.824	0.12	813648	keystroke_Key.enter	Key.enter	n/a
406.9485	6.8515	813897	prompt	n/a	heading effect designs journalists\n
407.589	0.135	815178	keystroke_h	h	n/a
407.679	0.075	815358	keystroke_e	e	n/a
407.799	0.135	815598	keystroke_a	a	n/a
407.979	0.075	815958	keystroke_d	d	n/a
408.084	0.1345	816168	keystroke_i	i	n/a
408.159	0.1345	816318	keystroke_n	n	n/a
408.2635	0.105	816527	keystroke_g	g	n/a
408.3835	0.12	816767	keystroke_Key.space	Key.space	n/a
408.5185	0.12	817037	keystroke_e	e	n/a
408.7435	0.105	817487	keystroke_f	f	n/a
408.9385	0.1055	817877	keystroke_f	f	n/a
409.104	0.09	818208	keystroke_e	e	n/a
409.314	0.12	818628	keystroke_c	c	n/a
409.509	0.075	819018	keystroke_t	t	n/a
409.689	0.135	819378	keystroke_Key.space	Key.space	n/a
410.214	0.09	820428	keystroke_d	d	n/a
410.4235	0.06	820847	keystroke_e	e	n/a
410.5735	0.075	821147	keystroke_s	s	n/a
410.6785	0.12	821357	keystroke_i	i	n/a
410.829	0.09	821658	keystroke_g	g	n/a
410.948	0.12	821896	keystroke_n	n	n/a
411.114	0.134	822228	keystroke_s	s	n/a
411.353	0.136	822706	keystroke_Key.space	Key.space	n/a
411.669	0.105	823338	keystroke_j	j	n/a
411.788	0.18	823576	keystroke_o	o	n/a
411.954	0.135	823908	keystroke_u	u	n/a
412.149	0.105	824298	keystroke_r	r	n/a
412.269	0.105	824538	keystroke_n	n	n/a
412.434	0.104	824868	keystroke_a	a	n/a
412.568	0.105	825136	keystroke_l	l	n/a
412.928	0.105	825856	keystroke_i	i	n/a
413.048	0.195	826096	keystroke_s	s	n/a
413.213	0.105	826426	keystroke_t	t	n/a
413.483	0.0905	826966	keystroke_s	s	n/a
413.678	0.12	827356	keystroke_Key.enter	Key.enter	n/a
413.8035	12.6125	827607	prompt	n/a	notifications imagine treatment comments\n
414.549	0.135	829098	keystroke_n	n	n/a
414.774	0.1195	829548	keystroke_o	o	n/a
415.0285	0.105	830057	keystroke_t	t	n/a
415.1785	0.12	830357	keystroke_i	i	n/a
415.3135	0.09	830627	keystroke_f	f	n/a
415.4485	0.12	830897	keystroke_i	i	n/a
416.829	0.105	833658	keystroke_c	c	n/a
416.979	0.135	833958	keystroke_a	a	n/a
417.129	0.1045	834258	keystroke_t	t	n/a
417.2635	0.12	834527	keystroke_i	i	n/a
417.3535	0.15	834707	keystroke_o	o	n/a
417.4585	0.12	834917	keystroke_n	n	n/a
417.5935	0.09	835187	keystroke_s	s	n/a
417.7735	0.15	835547	keystroke_Key.space	Key.space	n/a
418.5085	0.135	837017	keystroke_i	i	n/a
418.6135	0.2255	837227	keystroke_m	m	n/a
418.854	0.15	837708	keystroke_a	a	n/a
419.018	0.21	838036	keystroke_a	a	n/a
419.663	0.12	839326	keystroke_Key.backspace	Key.backspace	n/a
419.754	0.089	839508	keystroke_g	g	n/a
419.934	0.1195	839868	keystroke_i	i	n/a
420.0085	0.135	840017	keystroke_n	n	n/a
420.1445	0.119	840289	keystroke_e	e	n/a
420.3385	0.135	840677	keystroke_Key.space	Key.space	n/a
420.9835	0.105	841967	keystroke_t	t	n/a
421.1785	0.165	842357	keystroke_r	r	n/a
421.3135	0.12	842627	keystroke_e	e	n/a
421.4635	0.1795	842927	keystroke_a	a	n/a
421.6135	0.105	843227	keystroke_t	t	n/a
422.1235	0.09	844247	keystroke_e	e	n/a
422.4385	0.105	844877	keystroke_m	m	n/a
422.874	0.06	845748	keystroke_Key.backspace	Key.backspace	n/a
423.024	0.09	846048	keystroke_Key.backspace	Key.backspace	n/a
423.234	0.105	846468	keystroke_m	m	n/a
423.369	0.09	846738	keystroke_e	e	n/a
423.519	0.12	847038	keystroke_n	n	n/a
423.624	0.075	847248	keystroke_t	t	n/a
423.849	0.1345	847698	keystroke_Key.space	Key.space	n/a
424.2985	0.12	848597	keystroke_c	c	n/a
424.4035	0.09	848807	keystroke_o	o	n/a
424.4635	0.105	848927	keystroke_m	m	n/a
424.6435	0.105	849287	keystroke_m	m	n/a
424.8085	0.09	849617	keystroke_e	e	n/a
425.0785	0.09	850157	keystroke_t	t	n/a
425.5735	0.105	851147	keystroke_Key.backspace	Key.backspace	n/a
425.8435	0.06	851687	keystroke_n	n	n/a
425.9045	0.089	851809	keystroke_t	t	n/a
426.068	0.12	852136	keystroke_s	s	n/a
426.278	0.136	852556	keystroke_Key.enter	Key.enter	n/a
426.4195	8.1405	852839	prompt	n/a	tiny atmosphere write metals\n
427.689	0.075	855378	keystroke_t	t	n/a
427.779	0.134	855558	keystroke_i	i	n/a
427.868	0.15	855736	keystroke_n	n	n/a
428.1235	0.1205	856247	keystroke_y	y	n/a
428.1985	0.1805	856397	keystroke_Key.space	Key.space	n/a
428.6635	0.165	857327	keystroke_a	a	n/a
428.8135	0.09	857627	keystroke_t	t	n/a
428.9635	0.195	857927	keystroke_m	m	n/a
429.549	0.135	859098	keystroke_o	o	n/a
430.044	0.105	860088	keystroke_s	s	n/a
430.224	0.12	860448	keystroke_p	p	n/a
430.479	0.12	860958	keystroke_h	h	n/a
430.734	0.165	861468	keystroke_e	e	n/a
430.884	0.15	861768	keystroke_r	r	n/a
431.019	0.09	862038	keystroke_e	e	n/a
431.274	0.1495	862548	keystroke_Key.space	Key.space	n/a
432.1885	0.09	864377	keystroke_w	w	n/a
432.3835	0.09	864767	keystroke_r	r	n/a
432.5935	0.12	865187	keystroke_i	i	n/a
432.8485	0.105	865697	keystroke_t	t	n/a
432.9385	0.12	865877	keystroke_e	e	n/a
433.1185	0.12	866237	keystroke_Key.space	Key.space	n/a
433.5535	0.135	867107	keystroke_m	m	n/a
433.674	0.105	867348	keystroke_e	e	n/a
433.809	0.135	867618	keystroke_t	t	n/a
434.004	0.105	868008	keystroke_a	a	n/a
434.124	0.12	868248	keystroke_l	l	n/a
434.274	0.105	868548	keystroke_s	s	n/a
434.484	0.075	868968	keystroke_Key.enter	Key.enter	n/a
434.564	8.9665	869128	prompt	n/a	flooring apparatus bulletin appropriate\n
435.3685	0.12	870737	keystroke_f	f	n/a
435.5185	0.09	871037	keystroke_l	l	n/a
435.7435	0.075	871487	keystroke_o	o	n/a
435.9235	0.09	871847	keystroke_o	o	n/a
436.0885	0.105	872177	keystroke_r	r	n/a
436.2085	0.1505	872417	keystroke_i	i	n/a
436.299	0.135	872598	keystroke_n	n	n/a
436.374	0.105	872748	keystroke_g	g	n/a
436.569	0.105	873138	keystroke_Key.space	Key.space	n/a
437.1535	0.09	874307	keystroke_a	a	n/a
437.2585	0.0905	874517	keystroke_p	p	n/a
437.439	0.12	874878	keystroke_p	p	n/a
437.603	0.226	875206	keystroke_a	a	n/a
437.799	0.119	875598	keystroke_r	r	n/a
438.249	0.105	876498	keystroke_a	a	n/a
438.489	0.105	876978	keystroke_t	t	n/a
438.699	0.12	877398	keystroke_u	u	n/a
438.834	0.135	877668	keystroke_s	s	n/a
438.984	0.1495	877968	keystroke_Key.space	Key.space	n/a
439.5085	0.09	879017	keystroke_b	b	n/a
439.7635	0.09	879527	keystroke_u	u	n/a
439.9135	0.105	879827	keystroke_l	l	n/a
440.1085	0.075	880217	keystroke_l	l	n/a
440.1845	0.12	880369	keystroke_e	e	n/a
440.3185	0.12	880637	keystroke_t	t	n/a
440.5135	0.15	881027	keystroke_i	i	n/a
440.6185	0.15	881237	keystroke_n	n	n/a
440.8285	0.15	881657	keystroke_Key.space	Key.space	n/a
441.1285	0.1195	882257	keystroke_a	a	n/a
441.293	0.106	882586	keystroke_p	p	n/a
441.458	0.121	882916	keystroke_p	p	n/a
441.638	0.136	883276	keystroke_r	r	n/a
441.819	0.09	883638	keystroke_o	o	n/a
442.4785	0.135	884957	keystroke_p	p	n/a
442.719	0.1045	885438	keystroke_r	r	n/a
442.8685	0.105	885737	keystroke_i	i	n/a
443.0335	0.135	886067	keystroke_a	a	n/a
443.1235	0.135	886247	keystroke_t	t	n/a
443.2285	0.135	886457	keystroke_e	e	n/a
443.4085	0.12	886817	keystroke_Key.enter	Key.enter	n/a
443.535	7.9605	887070	prompt	n/a	rear reasons linked definitions\n
444.1885	0.165	888377	keystroke_r	r	n/a
444.3385	0.12	888677	keystroke_e	e	n/a
444.5785	0.165	889157	keystroke_a	a	n/a
444.849	0.105	889698	keystroke_r	r	n/a
445.089	0.135	890178	keystroke_Key.space	Key.space	n/a
445.599	0.135	891198	keystroke_r	r	n/a
445.764	0.135	891528	keystroke_e	e	n/a
445.959	0.165	891918	keystroke_a	a	n/a
446.079	0.135	892158	keystroke_s	s	n/a
446.259	0.135	892518	keystroke_o	o	n/a
446.334	0.135	892668	keystroke_n	n	n/a
446.484	0.12	892968	keystroke_s	s	n/a
446.694	0.12	893388	keystroke_Key.space	Key.space	n/a
447.099	0.09	894198	keystroke_l	l	n/a
447.249	0.105	894498	keystroke_i	i	n/a
447.354	0.18	894708	keystroke_n	n	n/a
447.504	0.165	895008	keystroke_k	k	n/a
447.654	0.09	895308	keystroke_e	e	n/a
447.849	0.12	895698	keystroke_d	d	n/a
448.014	0.135	896028	keystroke_Key.space	Key.space	n/a
448.389	0.075	896778	keystroke_d	d	n/a
448.5835	0.09	897167	keystroke_e	e	n/a
448.7785	0.12	897557	keystroke_f	f	n/a
449.5435	0.105	899087	keystroke_i	i	n/a
449.7385	0.135	899477	keystroke_n	n	n/a
449.9785	0.135	899957	keystroke_i	i	n/a
450.534	0.12	901068	keystroke_t	t	n/a
450.669	0.12	901338	keystroke_i	i	n/a
450.8035	0.195	901607	keystroke_o	o	n/a
450.9235	0.135	901847	keystroke_n	n	n/a
451.0885	0.075	902177	keystroke_s	s	n/a
451.374	0.119	902748	keystroke_Key.enter	Key.enter	n/a
451.498	7.7825	902996	prompt	n/a	trauma wisdom potato simulation\n
452.3335	0.1505	904667	keystroke_t	t	n/a
452.6785	0.075	905357	keystroke_r	r	n/a
452.8285	0.12	905657	keystroke_a	a	n/a
453.0385	0.12	906077	keystroke_u	u	n/a
453.3535	0.12	906707	keystroke_m	m	n/a
453.5035	0.136	907007	keystroke_a	a	n/a
453.6535	0.135	907307	keystroke_Key.space	Key.space	n/a
454.0285	0.105	908057	keystroke_w	w	n/a
454.1935	0.15	908387	keystroke_i	i	n/a
454.779	0.09	909558	keystroke_s	s	n/a
454.929	0.1045	909858	keystroke_d	d	n/a
455.258	0.136	910516	keystroke_o	o	n/a
455.363	0.136	910726	keystroke_m	m	n/a
455.544	0.15	911088	keystroke_Key.space	Key.space	n/a
456.114	0.12	912228	keystroke_p	p	n/a
456.429	0.105	912858	keystroke_o	o	n/a
456.759	0.12	913518	keystroke_t	t	n/a
456.954	0.135	913908	keystroke_a	a	n/a
457.059	0.105	914118	keystroke_t	t	n/a
457.299	0.105	914598	keystroke_o	o	n/a
457.494	0.135	914988	keystroke_Key.space	Key.space	n/a
457.794	0.135	915588	keystroke_s	s	n/a
457.959	0.105	915918	keystroke_i	i	n/a
458.049	0.1345	916098	keystroke_m	m	n/a
458.3485	0.105	916697	keystroke_u	u	n/a
458.4835	0.15	916967	keystroke_l	l	n/a
458.6185	0.12	917237	keystroke_a	a	n/a
458.7085	0.105	917417	keystroke_t	t	n/a
458.7985	0.12	917597	keystroke_i	i	n/a
458.9035	0.105	917807	keystroke_o	o	n/a
458.9635	0.12	917927	keystroke_n	n	n/a
459.1585	0.12	918317	keystroke_Key.enter	Key.enter	n/a
459.283	8.2775	918566	prompt	n/a	basin obituaries munich diagnostic\n
460.2835	0.12	920567	keystroke_b	b	n/a
460.4635	0.135	920927	keystroke_a	a	n/a
460.6585	0.12	921317	keystroke_s	s	n/a
460.8085	0.15	921617	keystroke_i	i	n/a
460.9285	0.135	921857	keystroke_n	n	n/a
461.0485	0.165	922097	keystroke_Key.space	Key.space	n/a
461.3935	0.105	922787	keystroke_o	o	n/a
461.5735	0.105	923147	keystroke_b	b	n/a
461.9785	0.12	923957	keystroke_i	i	n/a
462.2935	0.105	924587	keystroke_t	t	n/a
462.6085	0.135	925217	keystroke_u	u	n/a
462.954	0.18	925908	keystroke_a	a	n/a
463.194	0.12	926388	keystroke_r	r	n/a
463.404	0.12	926808	keystroke_i	i	n/a
463.6135	0.045	927227	keystroke_e	e	n/a
463.7035	0.12	927407	keystroke_s	s	n/a
463.8835	0.1205	927767	keystroke_Key.space	Key.space	n/a
464.1235	0.1055	928247	keystroke_m	m	n/a
464.364	0.09	928728	keystroke_u	u	n/a
464.6035	0.15	929207	keystroke_n	n	n/a
464.7385	0.1055	929477	keystroke_i	i	n/a
465.054	0.12	930108	keystroke_c	c	n/a
465.204	0.12	930408	keystroke_h	h	n/a
465.294	0.15	930588	keystroke_Key.space	Key.space	n/a
465.534	0.105	931068	keystroke_d	d	n/a
465.669	0.12	931338	keystroke_i	i	n/a
465.909	0.15	931818	keystroke_a	a	n/a
466.179	0.09	932358	keystroke_g	g	n/a
466.419	0.135	932838	keystroke_n	n	n/a
466.584	0.135	933168	keystroke_o	o	n/a
466.749	0.18	933498	keystroke_s	s	n/a
466.914	0.12	933828	keystroke_t	t	n/a
467.079	0.135	934158	keystroke_i	i	n/a
467.229	0.105	934458	keystroke_c	c	n/a
467.454	0.105	934908	keystroke_Key.enter	Key.enter	n/a
467.564	5.171	935128	prompt	n/a	thumbs tied so driven\n
468.5785	0.135	937157	keystroke_t	t	n/a
468.7285	0.0755	937457	keystroke_h	h	n/a
468.924	0.105	937848	keystroke_u	u	n/a
469.1635	0.105	938327	keystroke_m	m	n/a
469.3135	0.105	938627	keystroke_b	b	n/a
469.6285	0.09	939257	keystroke_s	s	n/a
469.7785	0.135	939557	keystroke_Key.space	Key.space	n/a
470.2735	0.1205	940547	keystroke_t	t	n/a
470.379	0.12	940758	keystroke_i	i	n/a
470.6185	0.075	941237	keystroke_e	e	n/a
470.844	0.075	941688	keystroke_d	d	n/a
471.009	0.15	942018	keystroke_Key.space	Key.space	n/a
471.399	0.119	942798	keystroke_s	s	n/a
471.534	0.12	943068	keystroke_o	o	n/a
471.608	0.1355	943216	keystroke_Key.space	Key.space	n/a
471.7585	0.12	943517	keystroke_d	d	n/a
471.9235	0.105	943847	keystroke_r	r	n/a
472.0735	0.135	944147	keystroke_i	i	n/a
472.2235	0.105	944447	keystroke_v	v	n/a
472.3135	0.09	944627	keystroke_e	e	n/a
472.419	0.105	944838	keystroke_n	n	n/a
472.629	0.105	945258	keystroke_Key.enter	Key.enter	n/a
472.738	10.8125	945476	prompt	n/a	montgomery coordinated suspected pump\n
473.529	0.135	947058	keystroke_m	m	n/a
473.724	0.12	947448	keystroke_o	o	n/a
473.814	0.135	947628	keystroke_n	n	n/a
474.024	0.12	948048	keystroke_t	t	n/a
474.339	0.075	948678	keystroke_g	g	n/a
474.6085	0.135	949217	keystroke_m	m	n/a
474.7745	0.1345	949549	keystroke_o	o	n/a
475.299	0.09	950598	keystroke_Key.backspace	Key.backspace	n/a
475.479	0.105	950958	keystroke_Key.backspace	Key.backspace	n/a
475.8235	0.09	951647	keystroke_o	o	n/a
476.4085	0.12	952817	keystroke_m	m	n/a
476.7835	0.135	953567	keystroke_e	e	n/a
476.9335	0.105	953867	keystroke_r	r	n/a
477.0835	0.12	954167	keystroke_y	y	n/a
477.7735	0.135	955547	keystroke_Key.space	Key.space	n/a
478.0135	0.12	956027	keystroke_c	c	n/a
478.1635	0.075	956327	keystroke_o	o	n/a
478.3285	0.105	956657	keystroke_o	o	n/a
478.6435	0.105	957287	keystroke_r	r	n/a
479.259	0.12	958518	keystroke_d	d	n/a
479.484	0.135	958968	keystroke_i	i	n/a
479.664	0.18	959328	keystroke_n	n	n/a
479.829	0.15	959658	keystroke_a	a	n/a
479.964	0.12	959928	keystroke_t	t	n/a
480.069	0.075	960138	keystroke_e	e	n/a
480.264	0.09	960528	keystroke_d	d	n/a
480.399	0.12	960798	keystroke_Key.space	Key.space	n/a
480.639	0.09	961278	keystroke_s	s	n/a
480.774	0.12	961548	keystroke_u	u	n/a
480.909	0.09	961818	keystroke_s	s	n/a
481.089	0.105	962178	keystroke_p	p	n/a
481.224	0.0745	962448	keystroke_e	e	n/a
481.4485	0.09	962897	keystroke_c	c	n/a
481.6435	0.12	963287	keystroke_t	t	n/a
481.7935	0.075	963587	keystroke_e	e	n/a
481.9885	0.09	963977	keystroke_d	d	n/a
482.0935	0.135	964187	keystroke_Key.space	Key.space	n/a
482.5285	0.1355	965057	keystroke_p	p	n/a
482.799	0.12	965598	keystroke_u	u	n/a
483.039	0.135	966078	keystroke_m	m	n/a
483.159	0.12	966318	keystroke_p	p	n/a
483.444	0.105	966888	keystroke_Key.enter	Key.enter	n/a
483.5535	8.067	967107	prompt	n/a	ferry philippines tribunal scout\n
484.269	0.135	968538	keystroke_f	f	n/a
484.5235	0.135	969047	keystroke_e	e	n/a
484.7035	0.075	969407	keystroke_r	r	n/a
484.8835	0.09	969767	keystroke_r	r	n/a
485.0485	0.135	970097	keystroke_y	y	n/a
485.1685	0.165	970337	keystroke_Key.space	Key.space	n/a
485.513	0.12	971026	keystroke_p	p	n/a
485.663	0.225	971326	keystroke_h	h	n/a
485.844	0.135	971688	keystroke_i	i	n/a
486.549	0.06	973098	keystroke_l	l	n/a
487.254	0.209	974508	keystroke_i	i	n/a
487.478	0.076	974956	keystroke_p	p	n/a
487.629	0.134	975258	keystroke_p	p	n/a
487.914	0.135	975828	keystroke_i	i	n/a
488.049	0.1495	976098	keystroke_n	n	n/a
488.2585	0.06	976517	keystroke_e	e	n/a
488.4385	0.09	976877	keystroke_s	s	n/a
488.5585	0.15	977117	keystroke_Key.space	Key.space	n/a
488.7985	0.105	977597	keystroke_t	t	n/a
489.0235	0.075	978047	keystroke_r	r	n/a
489.1135	0.105	978227	keystroke_i	i	n/a
489.2785	0.1055	978557	keystroke_b	b	n/a
489.444	0.1045	978888	keystroke_u	u	n/a
489.6535	0.105	979307	keystroke_n	n	n/a
489.7885	0.1195	979577	keystroke_a	a	n/a
489.924	0.1345	979848	keystroke_l	l	n/a
490.013	0.1205	980026	keystroke_Key.space	Key.space	n/a
490.5985	0.12	981197	keystroke_s	s	n/a
490.868	0.105	981736	keystroke_c	c	n/a
491.093	0.12	982186	keystroke_o	o	n/a
491.168	0.1505	982336	keystroke_u	u	n/a
491.3035	0.105	982607	keystroke_t	t	n/a
491.5135	0.105	983027	keystroke_Key.enter	Key.enter	n/a
491.624	14.501	983248	prompt	n/a	atmospheric quality template occurrence\n
492.5035	0.12	985007	keystroke_a	a	n/a
492.6835	0.105	985367	keystroke_t	t	n/a
492.8485	0.165	985697	keystroke_m	m	n/a
492.9835	0.135	985967	keystroke_o	o	n/a
493.1935	0.06	986387	keystroke_t	t	n/a
493.7335	0.165	987467	keystroke_p	p	n/a
494.1085	0.105	988217	keystroke_Key.backspace	Key.backspace	n/a
494.2885	0.09	988577	keystroke_Key.backspace	Key.backspace	n/a
494.3935	0.105	988787	keystroke_s	s	n/a
494.5585	0.135	989117	keystroke_p	p	n/a
494.8135	0.1505	989627	keystroke_h	h	n/a
495.399	0.18	990798	keystroke_e	e	n/a
495.564	0.119	991128	keystroke_r	r	n/a
495.728	0.121	991456	keystroke_i	i	n/a
495.968	0.106	991936	keystroke_c	c	n/a
496.1485	0.1195	992297	keystroke_Key.space	Key.space	n/a
496.539	0.119	993078	keystroke_q	q	n/a
496.794	0.104	993588	keystroke_u	u	n/a
497.078	0.106	994156	keystroke_a	a	n/a
497.2285	0.1505	994457	keystroke_l	l	n/a
497.514	0.1195	995028	keystroke_i	i	n/a
497.6635	0.12	995327	keystroke_t	t	n/a
497.9185	0.105	995837	keystroke_y	y	n/a
498.0085	0.195	996017	keystroke_Key.space	Key.space	n/a
498.3385	0.105	996677	keystroke_t	t	n/a
498.5035	0.105	997007	keystroke_e	e	n/a
498.6235	0.165	997247	keystroke_m	m	n/a
498.7585	0.12	997517	keystroke_p	p	n/a
498.9235	0.135	997847	keystroke_a	a	n/a
499.0735	0.1355	998147	keystroke_t	t	n/a
499.254	0.105	998508	keystroke_e	e	n/a
499.449	0.12	998898	keystroke_Key.space	Key.space	n/a
500.6635	0.105	1001327	keystroke_Key.backspace	Key.backspace	n/a
500.9185	0.09	1001837	keystroke_Key.backspace	Key.backspace	n/a
501.1285	0.075	1002257	keystroke_Key.backspace	Key.backspace	n/a
501.3985	0.09	1002797	keystroke_Key.backspace	Key.backspace	n/a
501.729	0.06	1003458	keystroke_l	l	n/a
501.849	0.18	1003698	keystroke_a	a	n/a
502.013	0.12	1004026	keystroke_t	t	n/a
502.164	0.1045	1004328	keystroke_e	e	n/a
502.3435	0.135	1004687	keystroke_Key.space	Key.space	n/a
502.8235	0.105	1005647	keystroke_o	o	n/a
503.198	0.0905	1006396	keystroke_c	c	n/a
503.3935	0.105	1006787	keystroke_c	c	n/a
503.6785	0.105	1007357	keystroke_u	u	n/a
504.594	0.119	1009188	keystroke_r	r	n/a
504.909	0.09	1009818	keystroke_r	r	n/a
505.164	0.105	1010328	keystroke_e	e	n/a
505.359	0.135	1010718	keystroke_n	n	n/a
505.5535	0.09	1011107	keystroke_c	c	n/a
505.7635	0.0755	1011527	keystroke_e	e	n/a
506.004	0.12	1012008	keystroke_Key.enter	Key.enter	n/a
506.1285	5.9815	1012257	prompt	n/a	converted mention shooting worst\n
506.919	0.105	1013838	keystroke_c	c	n/a
507.039	0.12	1014078	keystroke_o	o	n/a
507.219	0.165	1014438	keystroke_n	n	n/a
507.519	0.12	1015038	keystroke_v	v	n/a
507.654	0.21	1015308	keystroke_e	e	n/a
507.819	0.075	1015638	keystroke_r	r	n/a
508.014	0.1045	1016028	keystroke_t	t	n/a
508.1785	0.12	1016357	keystroke_e	e	n/a
508.4335	0.12	1016867	keystroke_d	d	n/a
508.5985	0.135	1017197	keystroke_Key.space	Key.space	n/a
508.959	0.135	1017918	keystroke_m	m	n/a
509.109	0.105	1018218	keystroke_e	e	n/a
509.229	0.12	1018458	keystroke_n	n	n/a
509.364	0.09	1018728	keystroke_t	t	n/a
509.469	0.105	1018938	keystroke_i	i	n/a
509.544	0.135	1019088	keystroke_o	o	n/a
509.634	0.15	1019268	keystroke_n	n	n/a
509.754	0.135	1019508	keystroke_Key.space	Key.space	n/a
509.9185	0.105	1019837	keystroke_s	s	n/a
510.0385	0.09	1020077	keystroke_h	h	n/a
510.1135	0.075	1020227	keystroke_o	o	n/a
510.2635	0.12	1020527	keystroke_o	o	n/a
510.4435	0.09	1020887	keystroke_t	t	n/a
510.5485	0.15	1021097	keystroke_i	i	n/a
510.6385	0.135	1021277	keystroke_n	n	n/a
510.7585	0.0755	1021517	keystroke_g	g	n/a
510.864	0.135	1021728	keystroke_Key.space	Key.space	n/a
511.1635	0.09	1022327	keystroke_w	w	n/a
511.3435	0.105	1022687	keystroke_o	o	n/a
511.4935	0.105	1022987	keystroke_r	r	n/a
511.659	0.15	1023318	keystroke_s	s	n/a
511.779	0.105	1023558	keystroke_t	t	n/a
512.019	0.09	1024038	keystroke_Key.enter	Key.enter	n/a
512.1135	9.027	1024227	prompt	n/a	fioricet girl victory butter\n
512.739	0.105	1025478	keystroke_f	f	n/a
513.0085	0.09	1026017	keystroke_o	o	n/a
513.6685	0.105	1027337	keystroke_Key.backspace	Key.backspace	n/a
513.9235	0.09	1027847	keystroke_l	l	n/a
514.1335	0.09	1028267	keystroke_o	o	n/a
515.5135	0.09	1031027	keystroke_r	r	n/a
515.7685	0.105	1031537	keystroke_i	i	n/a
516.1735	0.105	1032347	keystroke_c	c	n/a
516.3985	0.105	1032797	keystroke_e	e	n/a
516.5785	0.12	1033157	keystroke_t	t	n/a
516.7885	0.12	1033577	keystroke_Key.space	Key.space	n/a
517.1185	0.09	1034237	keystroke_g	g	n/a
517.253	0.12	1034506	keystroke_i	i	n/a
517.403	0.091	1034806	keystroke_r	r	n/a
517.523	0.1355	1035046	keystroke_l	l	n/a
517.6735	0.135	1035347	keystroke_Key.space	Key.space	n/a
517.9585	0.06	1035917	keystroke_v	v	n/a
518.558	0.12	1037116	keystroke_i	i	n/a
518.7085	0.1045	1037417	keystroke_c	c	n/a
518.963	0.0755	1037926	keystroke_t	t	n/a
519.068	0.1355	1038136	keystroke_o	o	n/a
519.248	0.12	1038496	keystroke_r	r	n/a
519.428	0.135	1038856	keystroke_y	y	n/a
519.533	0.165	1039066	keystroke_Key.space	Key.space	n/a
520.133	0.0905	1040266	keystroke_b	b	n/a
520.313	0.105	1040626	keystroke_u	u	n/a
520.4635	0.075	1040927	keystroke_t	t	n/a
520.598	0.1205	1041196	keystroke_t	t	n/a
520.7635	0.1055	1041527	keystroke_e	e	n/a
520.854	0.09	1041708	keystroke_r	r	n/a
521.019	0.12	1042038	keystroke_Key.enter	Key.enter	n/a
521.1455	7.5545	1042291	prompt	n/a	bass brother enhancement military\n
521.814	0.0745	1043628	keystroke_f	f	n/a
522.189	0.1045	1044378	keystroke_Key.backspace	Key.backspace	n/a
522.3235	0.12	1044647	keystroke_b	b	n/a
522.5035	0.15	1045007	keystroke_a	a	n/a
522.7435	0.09	1045487	keystroke_s	s	n/a
522.9085	0.105	1045817	keystroke_s	s	n/a
523.0585	0.15	1046117	keystroke_Key.space	Key.space	n/a
523.2685	0.105	1046537	keystroke_b	b	n/a
523.5235	0.0905	1047047	keystroke_r	r	n/a
523.659	0.134	1047318	keystroke_o	o	n/a
523.779	0.135	1047558	keystroke_t	t	n/a
523.929	0.12	1047858	keystroke_h	h	n/a
524.019	0.12	1048038	keystroke_e	e	n/a
524.094	0.12	1048188	keystroke_r	r	n/a
524.228	0.135	1048456	keystroke_Key.space	Key.space	n/a
524.574	0.09	1049148	keystroke_e	e	n/a
524.709	0.09	1049418	keystroke_n	n	n/a
524.979	0.105	1049958	keystroke_h	h	n/a
525.144	0.12	1050288	keystroke_a	a	n/a
525.249	0.12	1050498	keystroke_n	n	n/a
525.429	0.09	1050858	keystroke_c	c	n/a
525.654	0.075	1051308	keystroke_e	e	n/a
525.774	0.12	1051548	keystroke_m	m	n/a
525.909	0.09	1051818	keystroke_e	e	n/a
526.014	0.12	1052028	keystroke_n	n	n/a
526.149	0.09	1052298	keystroke_t	t	n/a
526.299	0.12	1052598	keystroke_Key.space	Key.space	n/a
526.614	0.18	1053228	keystroke_m	m	n/a
526.779	0.1195	1053558	keystroke_i	i	n/a
526.9885	0.105	1053977	keystroke_l	l	n/a
527.2135	0.105	1054427	keystroke_i	i	n/a
527.814	0.134	1055628	keystroke_t	t	n/a
528.054	0.164	1056108	keystroke_a	a	n/a
528.174	0.119	1056348	keystroke_r	r	n/a
528.354	0.119	1056708	keystroke_y	y	n/a
528.593	0.105	1057186	keystroke_Key.enter	Key.enter	n/a
528.7055	8.0195	1057411	prompt	n/a	algeria enclosed ordered polls\n
529.538	0.136	1059076	keystroke_a	a	n/a
529.749	0.119	1059498	keystroke_l	l	n/a
529.973	0.091	1059946	keystroke_g	g	n/a
530.184	0.164	1060368	keystroke_e	e	n/a
530.3635	0.105	1060727	keystroke_r	r	n/a
530.4985	0.135	1060997	keystroke_i	i	n/a
530.7085	0.075	1061417	keystroke_a	a	n/a
530.8285	0.1195	1061657	keystroke_Key.space	Key.space	n/a
531.9685	0.105	1063937	keystroke_e	e	n/a
532.1635	0.135	1064327	keystroke_n	n	n/a
532.3735	0.105	1064747	keystroke_c	c	n/a
532.5235	0.06	1065047	keystroke_l	l	n/a
532.7035	0.1195	1065407	keystroke_o	o	n/a
532.838	0.105	1065676	keystroke_s	s	n/a
532.913	0.105	1065826	keystroke_e	e	n/a
533.138	0.12	1066276	keystroke_d	d	n/a
533.273	0.15	1066546	keystroke_Key.space	Key.space	n/a
533.633	0.105	1067266	keystroke_o	o	n/a
533.798	0.12	1067596	keystroke_r	r	n/a
534.143	0.09	1068286	keystroke_d	d	n/a
534.383	0.1505	1068766	keystroke_e	e	n/a
534.5635	0.15	1069127	keystroke_r	r	n/a
534.7885	0.075	1069577	keystroke_e	e	n/a
534.9985	0.09	1069997	keystroke_d	d	n/a
535.1485	0.135	1070297	keystroke_Key.space	Key.space	n/a
535.4785	0.135	1070957	keystroke_p	p	n/a
535.9285	0.09	1071857	keystroke_o	o	n/a
536.1385	0.09	1072277	keystroke_l	l	n/a
536.3035	0.12	1072607	keystroke_l	l	n/a
536.4085	0.105	1072817	keystroke_s	s	n/a
536.5885	0.135	1073177	keystroke_Key.enter	Key.enter	n/a
536.728	9.987	1073456	prompt	n/a	threatened delegation takes databases\n
537.6385	0.105	1075277	keystroke_t	t	n/a
537.7135	0.12	1075427	keystroke_h	h	n/a
537.8935	0.18	1075787	keystroke_r	r	n/a
538.0435	0.165	1076087	keystroke_e	e	n/a
538.1635	0.135	1076327	keystroke_a	a	n/a
538.3435	0.135	1076687	keystroke_t	t	n/a
538.538	0.105	1077076	keystroke_e	e	n/a
538.8085	0.135	1077617	keystroke_n	n	n/a
539.6935	0.105	1079387	keystroke_e	e	n/a
539.9185	0.0895	1079837	keystroke_d	d	n/a
540.083	0.135	1080166	keystroke_Key.space	Key.space	n/a
540.278	0.075	1080556	keystroke_d	d	n/a
540.473	0.105	1080946	keystroke_e	e	n/a
540.608	0.09	1081216	keystroke_l	l	n/a
540.728	0.09	1081456	keystroke_e	e	n/a
541.658	0.0905	1083316	keystroke_g	g	n/a
541.8235	0.135	1083647	keystroke_a	a	n/a
541.9435	0.105	1083887	keystroke_t	t	n/a
542.0635	0.12	1084127	keystroke_i	i	n/a
542.1535	0.135	1084307	keystroke_o	o	n/a
542.2585	0.1495	1084517	keystroke_n	n	n/a
542.379	0.149	1084758	keystroke_Key.space	Key.space	n/a
542.9935	0.12	1085987	keystroke_t	t	n/a
543.1285	0.15	1086257	keystroke_a	a	n/a
543.2635	0.135	1086527	keystroke_k	k	n/a
543.3835	0.09	1086767	keystroke_e	e	n/a
543.5185	0.12	1087037	keystroke_s	s	n/a
543.6535	0.135	1087307	keystroke_Key.space	Key.space	n/a
544.1185	0.12	1088237	keystroke_d	d	n/a
544.3435	0.165	1088687	keystroke_a	a	n/a
544.4485	0.18	1088897	keystroke_t	t	n/a
545.0335	0.15	1090067	keystroke_a	a	n/a
545.3035	0.105	1090607	keystroke_b	b	n/a
545.5435	0.165	1091087	keystroke_a	a	n/a
545.7685	0.18	1091537	keystroke_s	s	n/a
545.9185	0.105	1091837	keystroke_e	e	n/a
546.1885	0.075	1092377	keystroke_s	s	n/a
546.6085	0.105	1093217	keystroke_Key.enter	Key.enter	n/a
546.7205	7.044	1093441	prompt	n/a	jack decided separately epic\n
547.493	0.105	1094986	keystroke_j	j	n/a
547.613	0.18	1095226	keystroke_a	a	n/a
547.943	0.12	1095886	keystroke_c	c	n/a
548.168	0.135	1096336	keystroke_k	k	n/a
548.318	0.135	1096636	keystroke_Key.space	Key.space	n/a
548.8735	0.105	1097747	keystroke_d	d	n/a
549.0835	0.075	1098167	keystroke_e	e	n/a
549.3235	0.135	1098647	keystroke_c	c	n/a
549.4285	0.135	1098857	keystroke_i	i	n/a
549.6235	0.075	1099247	keystroke_d	d	n/a
549.8635	0.105	1099727	keystroke_e	e	n/a
550.0585	0.105	1100117	keystroke_d	d	n/a
550.2385	0.15	1100477	keystroke_Key.space	Key.space	n/a
550.6885	0.075	1101377	keystroke_s	s	n/a
550.8385	0.09	1101677	keystroke_e	e	n/a
551.0035	0.12	1102007	keystroke_p	p	n/a
551.1385	0.135	1102277	keystroke_a	a	n/a
551.2435	0.12	1102487	keystroke_r	r	n/a
551.4985	0.12	1102997	keystroke_a	a	n/a
551.9035	0.105	1103807	keystroke_t	t	n/a
552.0535	0.105	1104107	keystroke_e	e	n/a
552.2035	0.2095	1104407	keystroke_l	l	n/a
552.383	0.135	1104766	keystroke_y	y	n/a
552.563	0.15	1105126	keystroke_Key.space	Key.space	n/a
552.9835	0.09	1105967	keystroke_e	e	n/a
553.1185	0.09	1106237	keystroke_p	p	n/a
553.2685	0.135	1106537	keystroke_i	i	n/a
553.4185	0.1045	1106837	keystroke_c	c	n/a
553.658	0.105	1107316	keystroke_Key.enter	Key.enter	n/a
553.768	11.907	1107536	prompt	n/a	auckland salad admissions mazda\n
554.528	0.135	1109056	keystroke_a	a	n/a
554.723	0.15	1109446	keystroke_u	u	n/a
555.3535	0.12	1110707	keystroke_c	c	n/a
555.5935	0.105	1111187	keystroke_k	k	n/a
555.7735	0.135	1111547	keystroke_l	l	n/a
555.9985	0.135	1111997	keystroke_a	a	n/a
556.1485	0.12	1112297	keystroke_n	n	n/a
556.2835	0.105	1112567	keystroke_d	d	n/a
556.4185	0.12	1112837	keystroke_Key.space	Key.space	n/a
557.1685	0.105	1114337	keystroke_s	s	n/a
557.3785	0.135	1114757	keystroke_a	a	n/a
557.5285	0.1195	1115057	keystroke_l	l	n/a
557.708	0.12	1115416	keystroke_d	d	n/a
558.143	0.12	1116286	keystroke_Key.backspace	Key.backspace	n/a
558.293	0.075	1116586	keystroke_Key.caps_lock	Key.caps_lock	n/a
558.338	0.015	1116676	keystroke_a	a	n/a
558.938	0.135	1117876	keystroke_Key.backspace	Key.backspace	n/a
559.688	0.12	1119376	keystroke_Key.caps_lock	Key.caps_lock	n/a
560.049	0.165	1120098	keystroke_a	a	n/a
560.3785	0.09	1120757	keystroke_d	d	n/a
561.188	0.165	1122376	keystroke_Key.space	Key.space	n/a
561.563	0.12	1123126	keystroke_a	a	n/a
561.758	0.105	1123516	keystroke_d	d	n/a
561.893	0.225	1123786	keystroke_m	m	n/a
562.103	0.09	1124206	keystroke_i	i	n/a
562.343	0.09	1124686	keystroke_s	s	n/a
562.553	0.075	1125106	keystroke_s	s	n/a
562.928	0.15	1125856	keystroke_i	i	n/a
563.063	0.1205	1126126	keystroke_o	o	n/a
563.123	0.1655	1126246	keystroke_n	n	n/a
563.618	0.1055	1127236	keystroke_s	s	n/a
563.7385	0.135	1127477	keystroke_Key.space	Key.space	n/a
564.458	0.135	1128916	keystroke_m	m	n/a
564.638	0.12	1129276	keystroke_a	a	n/a
564.9235	0.09	1129847	keystroke_z	z	n/a
565.193	0.09	1130386	keystroke_d	d	n/a
565.3435	0.1345	1130687	keystroke_a	a	n/a
565.568	0.1055	1131136	keystroke_Key.enter	Key.enter	n/a
565.678	7.257	1131356	prompt	n/a	shareware kids weekend bluetooth\n
566.348	0.09	1132696	keystroke_s	s	n/a
566.499	0.135	1132998	keystroke_h	h	n/a
566.604	0.149	1133208	keystroke_a	a	n/a
566.738	0.151	1133476	keystroke_r	r	n/a
566.904	0.059	1133808	keystroke_e	e	n/a
567.174	0.119	1134348	keystroke_w	w	n/a
567.398	0.18	1134796	keystroke_a	a	n/a
567.533	0.105	1135066	keystroke_r	r	n/a
567.608	0.105	1135216	keystroke_e	e	n/a
567.758	0.1355	1135516	keystroke_Key.space	Key.space	n/a
568.2685	0.06	1136537	keystroke_k	k	n/a
568.4485	0.105	1136897	keystroke_i	i	n/a
568.5385	0.105	1137077	keystroke_d	d	n/a
568.7035	0.105	1137407	keystroke_s	s	n/a
568.8385	0.119	1137677	keystroke_Key.space	Key.space	n/a
569.3335	0.045	1138667	keystroke_w	w	n/a
569.5135	0.075	1139027	keystroke_e	e	n/a
569.6935	0.09	1139387	keystroke_e	e	n/a
569.8735	0.12	1139747	keystroke_k	k	n/a
570.0385	0.12	1140077	keystroke_e	e	n/a
570.2035	0.12	1140407	keystroke_n	n	n/a
570.3685	0.105	1140737	keystroke_d	d	n/a
570.5335	0.119	1141067	keystroke_Key.space	Key.space	n/a
570.9535	0.105	1141907	keystroke_b	b	n/a
571.2975	0.105	1142595	keystroke_l	l	n/a
571.4635	0.165	1142927	keystroke_u	u	n/a
571.7035	0.105	1143407	keystroke_e	e	n/a
571.9435	0.09	1143887	keystroke_t	t	n/a
572.1235	0.09	1144247	keystroke_o	o	n/a
572.3035	0.09	1144607	keystroke_o	o	n/a
572.4535	0.09	1144907	keystroke_t	t	n/a
572.5885	0.1045	1145177	keystroke_h	h	n/a
572.828	0.105	1145656	keystroke_Key.enter	Key.enter	n/a
572.938	7.152	1145876	prompt	n/a	voices hints based undefined\n
573.6235	0.105	1147247	keystroke_v	v	n/a
573.7435	0.09	1147487	keystroke_o	o	n/a
573.8635	0.165	1147727	keystroke_i	i	n/a
573.9385	0.105	1147877	keystroke_c	c	n/a
574.5535	0.09	1149107	keystroke_e	e	n/a
574.7485	0.09	1149497	keystroke_s	s	n/a
574.8985	0.12	1149797	keystroke_Key.space	Key.space	n/a
575.2735	0.09	1150547	keystroke_h	h	n/a
575.4085	0.165	1150817	keystroke_i	i	n/a
575.5285	0.165	1151057	keystroke_n	n	n/a
575.7085	0.09	1151417	keystroke_t	t	n/a
576.0085	0.1345	1152017	keystroke_Key.space	Key.space	n/a
576.488	0.12	1152976	keystroke_Key.backspace	Key.backspace	n/a
576.623	0.0905	1153246	keystroke_s	s	n/a
576.7735	0.1195	1153547	keystroke_Key.space	Key.space	n/a
576.894	0.119	1153788	keystroke_b	b	n/a
577.028	0.15	1154056	keystroke_a	a	n/a
577.208	0.15	1154416	keystroke_s	s	n/a
577.343	0.075	1154686	keystroke_e	e	n/a
577.568	0.09	1155136	keystroke_d	d	n/a
577.673	0.135	1155346	keystroke_Key.space	Key.space	n/a
577.958	0.09	1155916	keystroke_u	u	n/a
578.153	0.105	1156306	keystroke_n	n	n/a
578.288	0.105	1156576	keystroke_d	d	n/a
578.513	0.15	1157026	keystroke_e	e	n/a
579.008	0.09	1158016	keystroke_f	f	n/a
579.203	0.105	1158406	keystroke_i	i	n/a
579.263	0.15	1158526	keystroke_n	n	n/a
579.5185	0.075	1159037	keystroke_e	e	n/a
