onset	duration	sample	value	key	prompt_text
15.194	17.821	30388	prompt	n/a	the quick brown fox jumps over a lazy dog\n
18.914	0.058	37828	keystroke_t	t	n/a
18.957	0.12	37914	keystroke_h	h	n/a
19.062	0.15	38124	keystroke_e	e	n/a
19.227	0.1195	38454	keystroke_Key.space	Key.space	n/a
20.127	0.12	40254	keystroke_q	q	n/a
20.307	0.105	40614	keystroke_u	u	n/a
20.517	0.119	41034	keystroke_i	i	n/a
20.787	0.135	41574	keystroke_c	c	n/a
20.937	0.105	41874	keystroke_k	k	n/a
21.132	0.12	42264	keystroke_Key.space	Key.space	n/a
21.492	0.09	42984	keystroke_b	b	n/a
21.642	0.105	43284	keystroke_r	r	n/a
21.807	0.06	43614	keystroke_i	i	n/a
22.631	0.06	45262	keystroke_Key.backspace	Key.backspace	n/a
23.051	0.1065	46102	keystroke_o	o	n/a
23.1575	0.1345	46315	keystroke_w	w	n/a
23.322	0.09	46644	keystroke_n	n	n/a
23.487	0.12	46974	keystroke_Key.space	Key.space	n/a
23.742	0.135	47484	keystroke_f	f	n/a
23.861	0.106	47722	keystroke_o	o	n/a
24.732	0.105	49464	keystroke_x	x	n/a
25.032	0.105	50064	keystroke_Key.space	Key.space	n/a
25.242	0.075	50484	keystroke_j	j	n/a
25.407	0.0755	50814	keystroke_u	u	n/a
25.6025	0.0895	51205	keystroke_m	m	n/a
26.412	0.09	52824	keystroke_p	p	n/a
26.517	0.12	53034	keystroke_s	s	n/a
26.622	0.105	53244	keystroke_Key.space	Key.space	n/a
27.177	0.1045	54354	keystroke_o	o	n/a
27.342	0.104	54684	keystroke_v	v	n/a
27.5065	0.225	55013	keystroke_e	e	n/a
27.672	0.12	55344	keystroke_r	r	n/a
27.8815	0.09	55763	keystroke_Key.space	Key.space	n/a
28.3165	0.12	56633	keystroke_a	a	n/a
28.4215	0.135	56843	keystroke_Key.space	Key.space	n/a
28.8115	0.12	57623	keystroke_l	l	n/a
28.9165	0.12	57833	keystroke_a	a	n/a
29.3215	0.15	58643	keystroke_z	z	n/a
29.5475	0.119	59095	keystroke_y	y	n/a
29.7415	0.165	59483	keystroke_Key.space	Key.space	n/a
30.0565	0.1355	60113	keystroke_d	d	n/a
30.177	0.12	60354	keystroke_o	o	n/a
30.522	0.09	61044	keystroke_h	h	n/a
31.032	0.075	62064	keystroke_Key.backspace	Key.backspace	n/a
31.1965	0.09	62393	keystroke_f	f	n/a
32.442	0.045	64884	keystroke_Key.backspace	Key.backspace	n/a
32.681	0.076	65362	keystroke_g	g	n/a
32.936	0.075	65872	keystroke_Key.enter	Key.enter	n/a
33.0195	13.7945	66039	prompt	n/a	comp that'll transition appearance\n
34.767	0.105	69534	keystroke_c	c	n/a
34.842	0.09	69684	keystroke_o	o	n/a
35.052	0.105	70104	keystroke_m	m	n/a
35.262	0.105	70524	keystroke_p	p	n/a
35.952	0.105	71904	keystroke_Key.space	Key.space	n/a
36.2065	0.0905	72413	keystroke_t	t	n/a
36.342	0.0895	72684	keystroke_h	h	n/a
36.5365	0.09	73073	keystroke_a	a	n/a
36.9565	0.09	73913	keystroke_t	t	n/a
38.157	0.1045	76314	keystroke_'	'	n/a
38.7115	0.075	77423	keystroke_l	l	n/a
38.8915	0.091	77783	keystroke_l	l	n/a
39.0865	0.135	78173	keystroke_Key.space	Key.space	n/a
39.7315	0.181	79463	keystroke_t	t	n/a
39.8965	0.165	79793	keystroke_r	r	n/a
40.1215	0.135	80243	keystroke_a	a	n/a
40.4225	0.104	80845	keystroke_n	n	n/a
40.6615	0.105	81323	keystroke_s	s	n/a
40.7515	0.12	81503	keystroke_i	i	n/a
41.1565	0.106	82313	keystroke_t	t	n/a
41.322	0.105	82644	keystroke_i	i	n/a
41.532	0.06	83064	keystroke_o	o	n/a
41.697	0.075	83394	keystroke_n	n	n/a
41.922	0.105	83844	keystroke_Key.space	Key.space	n/a
42.552	0.105	85104	keystroke_a	a	n/a
42.687	0.105	85374	keystroke_p	p	n/a
42.882	0.105	85764	keystroke_p	p	n/a
43.452	0.105	86904	keystroke_e	e	n/a
43.662	0.135	87324	keystroke_a	a	n/a
43.947	0.105	87894	keystroke_r	r	n/a
44.202	0.105	88404	keystroke_a	a	n/a
44.382	0.105	88764	keystroke_n	n	n/a
44.577	0.165	89154	keystroke_c	c	n/a
44.727	0.135	89454	keystroke_e	e	n/a
44.997	0.135	89994	keystroke_Key.space	Key.space	n/a
46.737	0.075	93474	keystroke_Key.enter	Key.enter	n/a
46.8165	13.9175	93633	prompt	n/a	investigated what's provides user\n
49.0205	0.026	98041	keystroke_i	i	n/a
49.1515	0.09	98303	keystroke_n	n	n/a
49.4075	0.105	98815	keystroke_v	v	n/a
49.5565	0.105	99113	keystroke_e	e	n/a
49.7665	0.135	99533	keystroke_s	s	n/a
49.9915	0.0755	99983	keystroke_t	t	n/a
50.127	0.12	100254	keystroke_i	i	n/a
50.472	0.12	100944	keystroke_g	g	n/a
50.577	0.135	101154	keystroke_a	a	n/a
50.847	0.09	101694	keystroke_t	t	n/a
51.072	0.105	102144	keystroke_e	e	n/a
51.342	0.135	102684	keystroke_d	d	n/a
51.522	0.105	103044	keystroke_Key.space	Key.space	n/a
51.807	0.12	103614	keystroke_w	w	n/a
51.972	0.105	103944	keystroke_h	h	n/a
52.122	0.165	104244	keystroke_a	a	n/a
52.302	0.12	104604	keystroke_t	t	n/a
52.812	0.12	105624	keystroke_'	'	n/a
52.947	0.105	105894	keystroke_s	s	n/a
53.397	0.15	106794	keystroke_Key.space	Key.space	n/a
53.712	0.12	107424	keystroke_p	p	n/a
53.847	0.105	107694	keystroke_r	r	n/a
53.997	0.135	107994	keystroke_o	o	n/a
54.387	0.12	108774	keystroke_v	v	n/a
54.657	0.09	109314	keystroke_i	i	n/a
55.092	0.09	110184	keystroke_d	d	n/a
55.257	0.165	110514	keystroke_e	e	n/a
55.467	0.075	110934	keystroke_s	s	n/a
55.647	0.105	111294	keystroke_Key.space	Key.space	n/a
56.802	0.075	113604	keystroke_i	i	n/a
57.4775	0.105	114955	keystroke_Key.backspace	Key.backspace	n/a
57.8525	0.075	115705	keystroke_u	u	n/a
57.9875	0.18	115975	keystroke_s	s	n/a
58.1225	0.105	116245	keystroke_w	w	n/a
58.1685	0.044	116337	keystroke_e	e	n/a
59.2775	0.06	118555	keystroke_Key.backspace	Key.backspace	n/a
59.4875	0.075	118975	keystroke_Key.backspace	Key.backspace	n/a
60.2825	0.15	120565	keystroke_e	e	n/a
60.3875	0.105	120775	keystroke_r	r	n/a
60.6725	0.0595	121345	keystroke_Key.enter	Key.enter	n/a
60.737	16.002	121474	prompt	n/a	liechtenstein sacrifice major karaoke\n
61.842	0.105	123684	keystroke_l	l	n/a
62.052	0.06	124104	keystroke_i	i	n/a
62.247	0.09	124494	keystroke_e	e	n/a
63.012	0.12	126024	keystroke_c	c	n/a
63.162	0.105	126324	keystroke_h	h	n/a
64.662	0.09	129324	keystroke_t	t	n/a
64.797	0.12	129594	keystroke_e	e	n/a
65.037	0.105	130074	keystroke_n	n	n/a
65.412	0.105	130824	keystroke_s	s	n/a
65.577	0.12	131154	keystroke_t	t	n/a
65.712	0.165	131424	keystroke_e	e	n/a
66.252	0.09	132504	keystroke_i	i	n/a
66.462	0.09	132924	keystroke_n	n	n/a
66.687	0.09	133374	keystroke_Key.space	Key.space	n/a
66.912	0.12	133824	keystroke_s	s	n/a
67.167	0.105	134334	keystroke_a	a	n/a
67.512	0.12	135024	keystroke_c	c	n/a
68.022	0.075	136044	keystroke_r	r	n/a
68.187	0.12	136374	keystroke_i	i	n/a
68.472	0.03	136944	keystroke_f	f	n/a
68.517	0.105	137034	keystroke_f	f	n/a
69.327	0.075	138654	keystroke_Key.backspace	Key.backspace	n/a
71.6245	0	143249	keystroke_i	i	n/a
71.7875	0.075	143575	keystroke_c	c	n/a
71.9065	0.15	143813	keystroke_e	e	n/a
72.1165	0.09	144233	keystroke_Key.space	Key.space	n/a
72.6125	0.105	145225	keystroke_m	m	n/a
72.7325	0.089	145465	keystroke_a	a	n/a
73.572	0.09	147144	keystroke_j	j	n/a
73.737	0.09	147474	keystroke_o	o	n/a
73.947	0.06	147894	keystroke_r	r	n/a
74.547	0.12	149094	keystroke_Key.space	Key.space	n/a
74.727	0.135	149454	keystroke_k	k	n/a
74.892	0.09	149784	keystroke_a	a	n/a
75.177	0.135	150354	keystroke_r	r	n/a
75.342	0.15	150684	keystroke_a	a	n/a
75.882	0.15	151764	keystroke_o	o	n/a
76.197	0.105	152394	keystroke_k	k	n/a
76.362	0.105	152724	keystroke_e	e	n/a
76.662	0.075	153324	keystroke_Key.enter	Key.enter	n/a
76.742	14.412	153484	prompt	n/a	locations drives boston strategy\n
77.727	0.105	155454	keystroke_l	l	n/a
77.952	0.09	155904	keystroke_o	o	n/a
78.222	0.135	156444	keystroke_c	c	n/a
78.372	0.135	156744	keystroke_a	a	n/a
78.717	0.075	157434	keystroke_i	i	n/a
79.197	0.06	158394	keystroke_Key.backspace	Key.backspace	n/a
79.362	0.09	158724	keystroke_t	t	n/a
79.542	0.075	159084	keystroke_i	i	n/a
79.827	0.105	159654	keystroke_o	o	n/a
80.067	0.105	160134	keystroke_n	n	n/a
80.232	0.135	160464	keystroke_s	s	n/a
80.802	0.075	161604	keystroke_Key.space	Key.space	n/a
81.207	0.075	162414	keystroke_d	d	n/a
81.387	0.06	162774	keystroke_e	e	n/a
81.507	0.09	163014	keystroke_i	i	n/a
82.017	0.06	164034	keystroke_Key.backspace	Key.backspace	n/a
82.212	0.075	164424	keystroke_Key.backspace	Key.backspace	n/a
82.377	0.09	164754	keystroke_r	r	n/a
83.4565	0.031	166913	keystroke_i	i	n/a
83.5765	0.12	167153	keystroke_v	v	n/a
83.7115	0.135	167423	keystroke_e	e	n/a
83.9215	0.12	167843	keystroke_s	s	n/a
84.1015	0.105	168203	keystroke_Key.space	Key.space	n/a
84.6715	0.076	169343	keystroke_b	b	n/a
84.867	0.09	169734	keystroke_o	o	n/a
85.047	0.135	170094	keystroke_s	s	n/a
85.272	0.075	170544	keystroke_t	t	n/a
85.422	0.0895	170844	keystroke_o	o	n/a
85.632	0.075	171264	keystroke_n	n	n/a
85.842	0.09	171684	keystroke_Key.space	Key.space	n/a
86.172	0.135	172344	keystroke_s	s	n/a
86.427	0.105	172854	keystroke_t	t	n/a
86.592	0.135	173184	keystroke_r	r	n/a
86.742	0.105	173484	keystroke_a	a	n/a
88.632	0.06	177264	keystroke_t	t	n/a
88.797	0.09	177594	keystroke_e	e	n/a
89.082	0.1045	178164	keystroke_g	g	n/a
89.2465	0.09	178493	keystroke_y	y	n/a
89.607	0.075	179214	keystroke_'	'	n/a
90.837	0.075	181674	keystroke_Key.backspace	Key.backspace	n/a
91.077	0.075	182154	keystroke_Key.enter	Key.enter	n/a
91.1565	14.9825	182313	prompt	n/a	samsung temporary regulation genesis\n
92.022	0.1645	184044	keystroke_s	s	n/a
92.202	0.105	184404	keystroke_a	a	n/a
92.3815	0.105	184763	keystroke_m	m	n/a
92.5315	0.1505	185063	keystroke_s	s	n/a
92.8465	0.12	185693	keystroke_u	u	n/a
93.1765	0.12	186353	keystroke_n	n	n/a
93.5515	0.105	187103	keystroke_g	g	n/a
94.1665	0.12	188333	keystroke_Key.space	Key.space	n/a
94.482	0.1195	188964	keystroke_t	t	n/a
94.6165	0.12	189233	keystroke_e	e	n/a
94.8115	0.105	189623	keystroke_m	m	n/a
95.1265	0.015	190253	keystroke_o	o	n/a
95.877	0.075	191754	keystroke_Key.backspace	Key.backspace	n/a
96.7615	0.1205	193523	keystroke_p	p	n/a
97.002	0.1345	194004	keystroke_o	o	n/a
97.287	0.135	194574	keystroke_r	r	n/a
97.467	0.135	194934	keystroke_a	a	n/a
98.2765	0.135	196553	keystroke_r	r	n/a
99.4615	0.09	198923	keystroke_y	y	n/a
99.6565	0.12	199313	keystroke_Key.space	Key.space	n/a
99.9565	0.15	199913	keystroke_r	r	n/a
100.1215	0.12	200243	keystroke_e	e	n/a
101.4565	0.09	202913	keystroke_g	g	n/a
101.5765	0.12	203153	keystroke_u	u	n/a
101.8315	0.105	203663	keystroke_l	l	n/a
101.9825	0.164	203965	keystroke_a	a	n/a
102.1615	0.135	204323	keystroke_t	t	n/a
102.3415	0.12	204683	keystroke_i	i	n/a
102.5815	0.045	205163	keystroke_o	o	n/a
102.7465	0.075	205493	keystroke_n	n	n/a
102.9415	0.105	205883	keystroke_Key.space	Key.space	n/a
103.662	0.09	207324	keystroke_g	g	n/a
103.872	0.09	207744	keystroke_e	e	n/a
104.067	0.12	208134	keystroke_n	n	n/a
104.322	0.165	208644	keystroke_s	s	n/a
104.862	0.075	209724	keystroke_Key.backspace	Key.backspace	n/a
105.132	0.12	210264	keystroke_e	e	n/a
105.402	0.135	210804	keystroke_s	s	n/a
105.522	0.135	211044	keystroke_i	i	n/a
105.687	0.12	211374	keystroke_s	s	n/a
106.077	0.06	212154	keystroke_Key.enter	Key.enter	n/a
106.144	15.0245	212288	prompt	n/a	appropriations translations reaching exercise\n
107.022	0.105	214044	keystroke_a	a	n/a
107.217	0.12	214434	keystroke_p	p	n/a
107.742	0.015	215484	keystroke_p	p	n/a
108.012	0.09	216024	keystroke_o	o	n/a
108.462	0.075	216924	keystroke_Key.backspace	Key.backspace	n/a
108.627	0.105	217254	keystroke_r	r	n/a
108.807	0.12	217614	keystroke_o	o	n/a
110.0225	0.15	220045	keystroke_p	p	n/a
110.2475	0.15	220495	keystroke_r	r	n/a
111.3725	0.029	222745	keystroke_i	i	n/a
111.7625	0.12	223525	keystroke_a	a	n/a
112.2415	0.121	224483	keystroke_t	t	n/a
112.6625	0.074	225325	keystroke_i	i	n/a
112.8575	0.06	225715	keystroke_o	o	n/a
113.0375	0.089	226075	keystroke_n	n	n/a
113.3525	0.135	226705	keystroke_s	s	n/a
113.6065	0.105	227213	keystroke_Key.space	Key.space	n/a
113.907	0.15	227814	keystroke_t	t	n/a
114.087	0.165	228174	keystroke_r	r	n/a
114.342	0.09	228684	keystroke_a	a	n/a
114.612	0.12	229224	keystroke_n	n	n/a
114.822	0.12	229644	keystroke_s	s	n/a
115.197	0.12	230394	keystroke_l	l	n/a
115.362	0.15	230724	keystroke_a	a	n/a
115.647	0.135	231294	keystroke_t	t	n/a
115.782	0.105	231564	keystroke_i	i	n/a
116.007	0.06	232014	keystroke_o	o	n/a
116.142	0.105	232284	keystroke_n	n	n/a
116.307	0.135	232614	keystroke_s	s	n/a
117.102	0.105	234204	keystroke_Key.space	Key.space	n/a
117.387	0.165	234774	keystroke_r	r	n/a
117.537	0.15	235074	keystroke_e	e	n/a
117.672	0.12	235344	keystroke_a	a	n/a
117.912	0.165	235824	keystroke_c	c	n/a
118.092	0.105	236184	keystroke_h	h	n/a
118.4215	0.105	236843	keystroke_i	i	n/a
118.6165	0.1205	237233	keystroke_n	n	n/a
118.752	0.12	237504	keystroke_g	g	n/a
118.947	0.105	237894	keystroke_Key.space	Key.space	n/a
119.217	0.105	238434	keystroke_e	e	n/a
119.547	0.105	239094	keystroke_x	x	n/a
119.892	0.09	239784	keystroke_e	e	n/a
120.042	0.105	240084	keystroke_r	r	n/a
120.297	0.12	240594	keystroke_c	c	n/a
120.447	0.105	240894	keystroke_i	i	n/a
120.672	0.15	241344	keystroke_s	s	n/a
120.882	0.12	241764	keystroke_e	e	n/a
121.077	0.09	242154	keystroke_Key.enter	Key.enter	n/a
121.171	6.3725	242342	prompt	n/a	fall span mario patrick\n
122.217	0.06	244434	keystroke_f	f	n/a
122.262	0.06	244524	keystroke_a	a	n/a
122.427	0.075	244854	keystroke_l	l	n/a
122.607	0.12	245214	keystroke_l	l	n/a
122.817	0.12	245634	keystroke_Key.space	Key.space	n/a
122.982	0.135	245964	keystroke_s	s	n/a
123.162	0.12	246324	keystroke_p	p	n/a
123.327	0.135	246654	keystroke_a	a	n/a
123.852	0.09	247704	keystroke_n	n	n/a
124.062	0.09	248124	keystroke_Key.space	Key.space	n/a
124.332	0.09	248664	keystroke_m	m	n/a
124.482	0.105	248964	keystroke_a	a	n/a
124.737	0.09	249474	keystroke_r	r	n/a
124.932	0.09	249864	keystroke_i	i	n/a
125.217	0.105	250434	keystroke_o	o	n/a
125.427	0.12	250854	keystroke_Key.space	Key.space	n/a
125.637	0.12	251274	keystroke_p	p	n/a
125.832	0.135	251664	keystroke_a	a	n/a
126.102	0.105	252204	keystroke_t	t	n/a
126.237	0.12	252474	keystroke_r	r	n/a
126.462	0.075	252924	keystroke_i	i	n/a
126.7615	0.1205	253523	keystroke_c	c	n/a
127.167	0.075	254334	keystroke_k	k	n/a
127.482	0.06	254964	keystroke_Key.enter	Key.enter	n/a
127.546	9.4175	255092	prompt	n/a	obtained reactions civil ties\n
128.532	0.075	257064	keystroke_o	o	n/a
128.7415	0.075	257483	keystroke_b	b	n/a
129.1765	0.135	258353	keystroke_t	t	n/a
129.2965	0.135	258593	keystroke_a	a	n/a
129.5065	0.105	259013	keystroke_i	i	n/a
129.7315	0.075	259463	keystroke_n	n	n/a
129.8965	0.105	259793	keystroke_e	e	n/a
130.1065	0.105	260213	keystroke_d	d	n/a
130.3015	0.09	260603	keystroke_Key.space	Key.space	n/a
130.6765	0.135	261353	keystroke_r	r	n/a
130.8565	0.135	261713	keystroke_e	e	n/a
131.0365	0.135	262073	keystroke_a	a	n/a
131.427	0.135	262854	keystroke_c	c	n/a
131.697	0.12	263394	keystroke_t	t	n/a
131.847	0.09	263694	keystroke_i	i	n/a
132.057	0.06	264114	keystroke_o	o	n/a
132.222	0.075	264444	keystroke_n	n	n/a
132.417	0.105	264834	keystroke_s	s	n/a
133.797	0.12	267594	keystroke_Key.space	Key.space	n/a
133.962	0.15	267924	keystroke_c	c	n/a
134.472	0.075	268944	keystroke_i	i	n/a
135.177	0.105	270354	keystroke_v	v	n/a
135.327	0.09	270654	keystroke_i	i	n/a
135.567	0.075	271134	keystroke_l	l	n/a
135.777	0.105	271554	keystroke_Key.space	Key.space	n/a
136.107	0.12	272214	keystroke_t	t	n/a
136.257	0.105	272514	keystroke_i	i	n/a
136.482	0.09	272964	keystroke_e	e	n/a
136.677	0.12	273354	keystroke_s	s	n/a
136.947	0.015	273894	keystroke_Key.enter	Key.enter	n/a
136.9665	15.0275	273933	prompt	n/a	protein arrived mileage pensions\n
137.682	0.09	275364	keystroke_p	p	n/a
137.802	0.135	275604	keystroke_r	r	n/a
137.982	0.105	275964	keystroke_o	o	n/a
138.162	0.075	276324	keystroke_t	t	n/a
138.612	0.1205	277224	keystroke_e	e	n/a
138.8075	0.105	277615	keystroke_i	i	n/a
139.5575	0.09	279115	keystroke_n	n	n/a
139.7375	0.105	279475	keystroke_Key.space	Key.space	n/a
139.8875	0.09	279775	keystroke_a	a	n/a
140.0975	0.075	280195	keystroke_r	r	n/a
140.3075	0.06	280615	keystroke_i	i	n/a
140.8625	0.015	281725	keystroke_Key.backspace	Key.backspace	n/a
141.0575	0.105	282115	keystroke_r	r	n/a
141.2675	0.06	282535	keystroke_i	i	n/a
141.4625	0.135	282925	keystroke_c	c	n/a
142.1225	0.06	284245	keystroke_Key.backspace	Key.backspace	n/a
142.3625	0.09	284725	keystroke_v	v	n/a
142.6025	0.09	285205	keystroke_e	e	n/a
142.8575	0.075	285715	keystroke_i	i	n/a
144.4325	0.06	288865	keystroke_Key.backspace	Key.backspace	n/a
144.7475	0.1195	289495	keystroke_d	d	n/a
145.722	0.12	291444	keystroke_Key.space	Key.space	n/a
146.817	0.105	293634	keystroke_m	m	n/a
146.967	0.0905	293934	keystroke_i	i	n/a
147.1775	0.09	294355	keystroke_l	l	n/a
147.357	0.15	294714	keystroke_e	e	n/a
147.462	0.15	294924	keystroke_a	a	n/a
147.9875	0.105	295975	keystroke_g	g	n/a
148.1675	0.105	296335	keystroke_e	e	n/a
148.6475	0.12	297295	keystroke_Key.space	Key.space	n/a
149.2925	0.09	298585	keystroke_p	p	n/a
149.4275	0.12	298855	keystroke_e	e	n/a
150.2825	0.075	300565	keystroke_n	n	n/a
150.9125	0.165	301825	keystroke_s	s	n/a
151.0025	0.105	302005	keystroke_i	i	n/a
151.2425	0.06	302485	keystroke_o	o	n/a
151.4225	0.0895	302845	keystroke_n	n	n/a
151.587	0.135	303174	keystroke_s	s	n/a
151.917	0.075	303834	keystroke_Key.enter	Key.enter	n/a
151.997	9.807	303994	prompt	n/a	adding superintendent builds nobody\n
152.712	0.105	305424	keystroke_a	a	n/a
152.967	0.105	305934	keystroke_d	d	n/a
153.162	0.105	306324	keystroke_d	d	n/a
153.342	0.09	306684	keystroke_i	i	n/a
153.522	0.075	307044	keystroke_n	n	n/a
153.702	0.12	307404	keystroke_g	g	n/a
153.972	0.105	307944	keystroke_Key.space	Key.space	n/a
154.662	0.12	309324	keystroke_s	s	n/a
155.022	0.09	310044	keystroke_u	u	n/a
155.232	0.09	310464	keystroke_p	p	n/a
155.382	0.195	310764	keystroke_e	e	n/a
155.517	0.12	311034	keystroke_r	r	n/a
155.832	0.09	311664	keystroke_i	i	n/a
156.027	0.075	312054	keystroke_n	n	n/a
156.222	0.105	312444	keystroke_t	t	n/a
156.402	0.105	312804	keystroke_e	e	n/a
156.597	0.075	313194	keystroke_n	n	n/a
156.747	0.12	313494	keystroke_d	d	n/a
157.002	0.075	314004	keystroke_e	e	n/a
157.182	0.075	314364	keystroke_n	n	n/a
157.377	0.09	314754	keystroke_t	t	n/a
157.572	0.105	315144	keystroke_Key.space	Key.space	n/a
158.037	0.075	316074	keystroke_b	b	n/a
158.187	0.075	316374	keystroke_u	u	n/a
158.397	0.075	316794	keystroke_i	i	n/a
158.997	0.09	317994	keystroke_l	l	n/a
159.267	0.165	318534	keystroke_d	d	n/a
159.552	0.135	319104	keystroke_s	s	n/a
159.762	0.105	319524	keystroke_Key.space	Key.space	n/a
160.197	0.075	320394	keystroke_n	n	n/a
160.362	0.09	320724	keystroke_o	o	n/a
160.872	0.015	321744	keystroke_b	b	n/a
161.007	0.075	322014	keystroke_o	o	n/a
161.172	0.12	322344	keystroke_d	d	n/a
161.367	0.09	322734	keystroke_y	y	n/a
161.7425	0.06	323485	keystroke_Key.enter	Key.enter	n/a
161.8075	12.1315	323615	prompt	n/a	accredited succeed swift salmon\n
162.7625	0.105	325525	keystroke_a	a	n/a
163.3175	0.09	326635	keystroke_c	c	n/a
163.5125	0.105	327025	keystroke_c	c	n/a
163.7825	0.09	327565	keystroke_r	r	n/a
164.2925	0.105	328585	keystroke_e	e	n/a
164.5625	0.105	329125	keystroke_d	d	n/a
164.7875	0.105	329575	keystroke_i	i	n/a
164.9675	0.09	329935	keystroke_t	t	n/a
165.1625	0.09	330325	keystroke_e	e	n/a
165.3875	0.12	330775	keystroke_d	d	n/a
165.5525	0.12	331105	keystroke_Key.space	Key.space	n/a
165.9575	0.12	331915	keystroke_s	s	n/a
166.1675	0.09	332335	keystroke_u	u	n/a
166.3325	0.105	332665	keystroke_c	c	n/a
166.5275	0.09	333055	keystroke_c	c	n/a
166.7375	0.09	333475	keystroke_e	e	n/a
166.9625	0.06	333925	keystroke_d	d	n/a
167.9225	0.105	335845	keystroke_Key.space	Key.space	n/a
168.3125	0.09	336625	keystroke_s	s	n/a
168.5375	0.105	337075	keystroke_w	w	n/a
169.2125	0.075	338425	keystroke_i	i	n/a
169.302	0.09	338604	keystroke_f	f	n/a
169.497	0.0905	338994	keystroke_t	t	n/a
171.7795	0.028	343559	keystroke_Key.space	Key.space	n/a
171.9725	0.1645	343945	keystroke_s	s	n/a
172.122	0.105	344244	keystroke_a	a	n/a
172.737	0.09	345474	keystroke_l	l	n/a
172.977	0.06	345954	keystroke_m	m	n/a
173.127	0.09	346254	keystroke_o	o	n/a
173.3375	0.075	346675	keystroke_n	n	n/a
173.8775	0.06	347755	keystroke_Key.enter	Key.enter	n/a
173.9415	9.0125	347883	prompt	n/a	praise multimedia optical brass\n
174.822	0.09	349644	keystroke_p	p	n/a
174.957	0.135	349914	keystroke_r	r	n/a
175.182	0.15	350364	keystroke_a	a	n/a
175.377	0.09	350754	keystroke_i	i	n/a
175.857	0.12	351714	keystroke_s	s	n/a
176.022	0.105	352044	keystroke_e	e	n/a
176.202	0.105	352404	keystroke_Key.space	Key.space	n/a
176.412	0.1055	352824	keystroke_m	m	n/a
176.7275	0.09	353455	keystroke_u	u	n/a
177.0275	0.075	354055	keystroke_l	l	n/a
177.3575	0.09	354715	keystroke_t	t	n/a
177.5075	0.075	355015	keystroke_i	i	n/a
178.1075	0.09	356215	keystroke_m	m	n/a
178.2125	0.09	356425	keystroke_e	e	n/a
178.4375	0.09	356875	keystroke_d	d	n/a
178.6025	0.075	357205	keystroke_i	i	n/a
179.3075	0.105	358615	keystroke_a	a	n/a
179.3975	0.12	358795	keystroke_Key.space	Key.space	n/a
179.8925	0.075	359785	keystroke_o	o	n/a
180.0725	0.075	360145	keystroke_p	p	n/a
180.3875	0.09	360775	keystroke_t	t	n/a
180.5375	0.09	361075	keystroke_i	i	n/a
180.8375	0.1195	361675	keystroke_c	c	n/a
180.972	0.105	361944	keystroke_a	a	n/a
181.152	0.135	362304	keystroke_l	l	n/a
181.362	0.09	362724	keystroke_Key.space	Key.space	n/a
181.602	0.09	363204	keystroke_b	b	n/a
181.962	0.105	363924	keystroke_r	r	n/a
182.217	0.12	364434	keystroke_a	a	n/a
182.502	0.09	365004	keystroke_s	s	n/a
182.697	0.12	365394	keystroke_s	s	n/a
182.877	0.075	365754	keystroke_Key.enter	Key.enter	n/a
182.958	10.301	365916	prompt	n/a	nigeria reflections meals learning\n
184.047	0.075	368094	keystroke_n	n	n/a
184.227	0.09	368454	keystroke_i	i	n/a
184.392	0.09	368784	keystroke_g	g	n/a
184.5725	0.15	369145	keystroke_e	e	n/a
184.692	0.105	369384	keystroke_r	r	n/a
184.9025	0.0895	369805	keystroke_i	i	n/a
185.127	0.18	370254	keystroke_a	a	n/a
185.487	0.105	370974	keystroke_Key.space	Key.space	n/a
186.207	0.12	372414	keystroke_r	r	n/a
186.342	0.03	372684	keystroke_e	e	n/a
186.492	0.12	372984	keystroke_f	f	n/a
186.717	0.075	373434	keystroke_l	l	n/a
186.867	0.105	373734	keystroke_e	e	n/a
187.392	0.1355	374784	keystroke_c	c	n/a
187.6475	0.105	375295	keystroke_t	t	n/a
187.7825	0.075	375565	keystroke_i	i	n/a
187.9625	0.075	375925	keystroke_o	o	n/a
188.1275	0.075	376255	keystroke_n	n	n/a
188.2775	0.165	376555	keystroke_s	s	n/a
188.4575	0.105	376915	keystroke_Key.space	Key.space	n/a
188.7725	0.09	377545	keystroke_m	m	n/a
188.9075	0.12	377815	keystroke_e	e	n/a
189.0875	0.09	378175	keystroke_s	s	n/a
190.0325	0.075	380065	keystroke_Key.backspace	Key.backspace	n/a
190.2425	0.09	380485	keystroke_a	a	n/a
190.4825	0.09	380965	keystroke_l	l	n/a
191.2025	0.09	382405	keystroke_s	s	n/a
191.3075	0.12	382615	keystroke_Key.space	Key.space	n/a
191.5625	0.09	383125	keystroke_l	l	n/a
191.7275	0.135	383455	keystroke_e	e	n/a
191.9675	0.075	383935	keystroke_a	a	n/a
192.1775	0.075	384355	keystroke_r	r	n/a
192.4025	0.09	384805	keystroke_n	n	n/a
192.6125	0.09	385225	keystroke_i	i	n/a
192.8075	0.075	385615	keystroke_n	n	n/a
192.9425	0.12	385885	keystroke_g	g	n/a
193.1825	0.075	386365	keystroke_Key.enter	Key.enter	n/a
193.2625	11.0515	386525	prompt	n/a	notices typical wichita what's\n
194.4425	0.06	388885	keystroke_n	n	n/a
194.6225	0.075	389245	keystroke_o	o	n/a
194.8475	0.075	389695	keystroke_t	t	n/a
195.0725	0.045	390145	keystroke_i	i	n/a
195.522	0.105	391044	keystroke_c	c	n/a
195.717	0.075	391434	keystroke_e	e	n/a
195.942	0.075	391884	keystroke_s	s	n/a
196.167	0.075	392334	keystroke_Key.space	Key.space	n/a
196.722	0.06	393444	keystroke_t	t	n/a
196.902	0.075	393804	keystroke_y	y	n/a
197.127	0.105	394254	keystroke_p	p	n/a
197.3825	0.075	394765	keystroke_i	i	n/a
197.8775	0.135	395755	keystroke_c	c	n/a
197.9675	0.135	395935	keystroke_a	a	n/a
198.1625	0.105	396325	keystroke_l	l	n/a
198.4025	0.09	396805	keystroke_Key.space	Key.space	n/a
199.3775	0.135	398755	keystroke_w	w	n/a
199.6175	0.06	399235	keystroke_o	o	n/a
199.6325	0.06	399265	keystroke_i	i	n/a
200.6075	0.075	401215	keystroke_c	c	n/a
200.9375	0.075	401875	keystroke_h	h	n/a
201.2075	0.105	402415	keystroke_i	i	n/a
201.4475	0.09	402895	keystroke_t	t	n/a
201.7025	0.12	403405	keystroke_a	a	n/a
202.4825	0.105	404965	keystroke_Key.space	Key.space	n/a
202.6775	0.105	405355	keystroke_w	w	n/a
202.8275	0.075	405655	keystroke_h	h	n/a
203.0225	0.18	406045	keystroke_a	a	n/a
203.1725	0.105	406345	keystroke_t	t	n/a
203.4725	0.12	406945	keystroke_'	'	n/a
203.6675	0.105	407335	keystroke_s	s	n/a
203.8925	0.105	407785	keystroke_Key.space	Key.space	n/a
204.2225	0.09	408445	keystroke_Key.enter	Key.enter	n/a
204.317	11.277	408634	prompt	n/a	comparative biggest forbes optimum\n
205.1375	0.12	410275	keystroke_c	c	n/a
205.2725	0.09	410545	keystroke_o	o	n/a
205.4525	0.105	410905	keystroke_m	m	n/a
205.6325	0.135	411265	keystroke_a	a	n/a
206.1125	0.06	412225	keystroke_Key.backspace	Key.backspace	n/a
206.7425	0.15	413485	keystroke_p	p	n/a
206.9075	0.075	413815	keystroke_a	a	n/a
207.1025	0.075	414205	keystroke_r	r	n/a
207.2825	0.105	414565	keystroke_a	a	n/a
207.5225	0.075	415045	keystroke_t	t	n/a
207.6725	0.105	415345	keystroke_i	i	n/a
207.8825	0.09	415765	keystroke_v	v	n/a
208.1075	0.075	416215	keystroke_e	e	n/a
208.2425	0.105	416485	keystroke_Key.space	Key.space	n/a
208.5875	0.075	417175	keystroke_b	b	n/a
208.7675	0.075	417535	keystroke_i	i	n/a
208.9625	0.06	417925	keystroke_g	g	n/a
209.1125	0.09	418225	keystroke_g	g	n/a
209.3525	0.075	418705	keystroke_e	e	n/a
209.5175	0.105	419035	keystroke_s	s	n/a
209.7425	0.075	419485	keystroke_t	t	n/a
209.9225	0.105	419845	keystroke_Key.space	Key.space	n/a
210.3575	0.075	420715	keystroke_f	f	n/a
210.5075	0.09	421015	keystroke_o	o	n/a
210.6575	0.075	421315	keystroke_r	r	n/a
210.9275	0.075	421855	keystroke_b	b	n/a
211.1075	0.09	422215	keystroke_e	e	n/a
211.3325	0.09	422665	keystroke_s	s	n/a
211.7525	0.105	423505	keystroke_Key.space	Key.space	n/a
212.5475	0.06	425095	keystroke_o	o	n/a
212.7125	0.075	425425	keystroke_p	p	n/a
212.9375	0.075	425875	keystroke_t	t	n/a
213.1175	0.075	426235	keystroke_i	i	n/a
213.3275	0.09	426655	keystroke_m	m	n/a
213.5525	0.075	427105	keystroke_u	u	n/a
215.0825	0.06	430165	keystroke_m	m	n/a
215.5475	0.045	431095	keystroke_Key.enter	Key.enter	n/a
215.599	10.945	431198	prompt	n/a	johnston rear polo worn\n
217.3775	0.075	434755	keystroke_j	j	n/a
217.5275	0.105	435055	keystroke_o	o	n/a
218.7575	0.06	437515	keystroke_h	h	n/a
218.9375	0.09	437875	keystroke_n	n	n/a
219.1625	0.135	438325	keystroke_s	s	n/a
219.4475	0.09	438895	keystroke_t	t	n/a
219.6125	0.105	439225	keystroke_o	o	n/a
219.8375	0.075	439675	keystroke_n	n	n/a
219.9875	0.12	439975	keystroke_Key.space	Key.space	n/a
220.2425	0.135	440485	keystroke_r	r	n/a
220.3625	0.135	440725	keystroke_e	e	n/a
220.5725	0.135	441145	keystroke_a	a	n/a
221.3375	0.21	442675	keystroke_r	r	n/a
221.5625	0.015	443125	keystroke_Key.space	Key.space	n/a
222.1025	0.075	444205	keystroke_p	p	n/a
222.3125	0.075	444625	keystroke_o	o	n/a
222.5075	0.075	445015	keystroke_l	l	n/a
222.6875	0.06	445375	keystroke_o	o	n/a
223.0175	0.135	446035	keystroke_Key.space	Key.space	n/a
225.058	0.12	450116	keystroke_w	w	n/a
225.238	0.09	450476	keystroke_o	o	n/a
225.388	0.105	450776	keystroke_r	r	n/a
225.598	0.09	451196	keystroke_n	n	n/a
226.453	0.09	452906	keystroke_Key.enter	Key.enter	n/a
226.547	10.483	453094	prompt	n/a	span estate anonymous england\n
227.563	0.12	455126	keystroke_s	s	n/a
228.193	0.075	456386	keystroke_p	p	n/a
228.343	0.12	456686	keystroke_a	a	n/a
228.8225	0.075	457645	keystroke_n	n	n/a
229.0625	0.105	458125	keystroke_Key.space	Key.space	n/a
229.8425	0.105	459685	keystroke_e	e	n/a
229.9925	0.12	459985	keystroke_s	s	n/a
230.3075	0.135	460615	keystroke_t	t	n/a
230.4575	0.15	460915	keystroke_a	a	n/a
230.6375	0.09	461275	keystroke_t	t	n/a
230.9225	0.09	461845	keystroke_e	e	n/a
231.1175	0.12	462235	keystroke_Key.space	Key.space	n/a
231.5525	0.105	463105	keystroke_a	a	n/a
231.8975	0.075	463795	keystroke_n	n	n/a
232.0925	0.09	464185	keystroke_o	o	n/a
232.5725	0.09	465145	keystroke_n	n	n/a
233.2925	0.075	466585	keystroke_y	y	n/a
233.5925	0.075	467185	keystroke_m	m	n/a
234.3275	0.09	468655	keystroke_o	o	n/a
234.5225	0.075	469045	keystroke_u	u	n/a
234.688	0.15	469376	keystroke_s	s	n/a
234.958	0.09	469916	keystroke_Key.space	Key.space	n/a
235.618	0.12	471236	keystroke_e	e	n/a
235.798	0.075	471596	keystroke_n	n	n/a
235.963	0.09	471926	keystroke_g	g	n/a
236.173	0.09	472346	keystroke_l	l	n/a
236.338	0.12	472676	keystroke_a	a	n/a
236.518	0.09	473036	keystroke_n	n	n/a
236.713	0.105	473426	keystroke_d	d	n/a
236.953	0.075	473906	keystroke_Key.enter	Key.enter	n/a
237.033	10.3915	474066	prompt	n/a	inspections confidential morris siemens\n
238.3025	0.06	476605	keystroke_i	i	n/a
238.4675	0.09	476935	keystroke_n	n	n/a
238.5875	0.15	477175	keystroke_s	s	n/a
238.8875	0.135	477775	keystroke_p	p	n/a
239.0525	0.105	478105	keystroke_e	e	n/a
239.3675	0.135	478735	keystroke_c	c	n/a
239.6375	0.09	479275	keystroke_t	t	n/a
239.7575	0.075	479515	keystroke_i	i	n/a
239.9525	0.06	479905	keystroke_o	o	n/a
240.1175	0.075	480235	keystroke_n	n	n/a
240.2975	0.12	480595	keystroke_s	s	n/a
240.4775	0.09	480955	keystroke_Key.space	Key.space	n/a
240.9875	0.12	481975	keystroke_c	c	n/a
241.1225	0.075	482245	keystroke_o	o	n/a
241.3025	0.06	482605	keystroke_n	n	n/a
241.6175	0.09	483235	keystroke_f	f	n/a
241.7525	0.09	483505	keystroke_i	i	n/a
242.2175	0.06	484435	keystroke_d	d	n/a
242.3825	0.09	484765	keystroke_e	e	n/a
242.5175	0.105	485035	keystroke_n	n	n/a
242.6525	0.09	485305	keystroke_t	t	n/a
242.8775	0.075	485755	keystroke_i	i	n/a
243.2075	0.1205	486415	keystroke_a	a	n/a
243.373	0.12	486746	keystroke_l	l	n/a
243.613	0.09	487226	keystroke_Key.space	Key.space	n/a
243.943	0.075	487886	keystroke_m	m	n/a
244.063	0.12	488126	keystroke_o	o	n/a
244.213	0.075	488426	keystroke_r	r	n/a
244.393	0.09	488786	keystroke_r	r	n/a
244.603	0.075	489206	keystroke_i	i	n/a
244.753	0.105	489506	keystroke_s	s	n/a
244.948	0.09	489896	keystroke_Key.space	Key.space	n/a
245.653	0.135	491306	keystroke_s	s	n/a
245.818	0.09	491636	keystroke_i	i	n/a
246.013	0.09	492026	keystroke_e	e	n/a
246.673	0.09	493346	keystroke_m	m	n/a
246.823	0.105	493646	keystroke_e	e	n/a
247.003	0.075	494006	keystroke_n	n	n/a
247.153	0.135	494306	keystroke_s	s	n/a
247.348	0.075	494696	keystroke_Key.enter	Key.enter	n/a
247.427	9.1175	494854	prompt	n/a	receipt legs seeds baghdad\n
248.4275	0.165	496855	keystroke_r	r	n/a
248.5775	0.12	497155	keystroke_e	e	n/a
249.0425	0.12	498085	keystroke_c	c	n/a
249.2525	0.0755	498505	keystroke_e	e	n/a
249.478	0.09	498956	keystroke_i	i	n/a
249.823	0.09	499646	keystroke_p	p	n/a
250.003	0.075	500006	keystroke_t	t	n/a
250.333	0.09	500666	keystroke_Key.space	Key.space	n/a
250.558	0.105	501116	keystroke_l	l	n/a
250.693	0.105	501386	keystroke_e	e	n/a
250.933	0.09	501866	keystroke_g	g	n/a
251.128	0.09	502256	keystroke_s	s	n/a
251.3225	0.105	502645	keystroke_Key.space	Key.space	n/a
251.5325	0.12	503065	keystroke_s	s	n/a
251.7425	0.06	503485	keystroke_e	e	n/a
251.9675	0.105	503935	keystroke_e	e	n/a
252.2075	0.09	504415	keystroke_d	d	n/a
252.4325	0.105	504865	keystroke_s	s	n/a
252.6125	0.09	505225	keystroke_Key.space	Key.space	n/a
254.1575	0.075	508315	keystroke_b	b	n/a
254.2925	0.165	508585	keystroke_a	a	n/a
254.5175	0.09	509035	keystroke_g	g	n/a
254.8175	0.075	509635	keystroke_h	h	n/a
255.7925	0.15	511585	keystroke_d	d	n/a
255.9575	0.135	511915	keystroke_a	a	n/a
256.1975	0.105	512395	keystroke_d	d	n/a
256.4675	0.075	512935	keystroke_Key.enter	Key.enter	n/a
256.547	11.127	513094	prompt	n/a	reduction rules contains specialty\n
257.5325	0.105	515065	keystroke_r	r	n/a
257.5925	0.12	515185	keystroke_e	e	n/a
257.8775	0.12	515755	keystroke_d	d	n/a
258.0875	0.105	516175	keystroke_u	u	n/a
258.2675	0.135	516535	keystroke_c	c	n/a
258.5075	0.09	517015	keystroke_t	t	n/a
258.6275	0.06	517255	keystroke_i	i	n/a
258.8075	0.06	517615	keystroke_o	o	n/a
258.9875	0.075	517975	keystroke_n	n	n/a
259.1825	0.075	518365	keystroke_Key.space	Key.space	n/a
259.3925	0.105	518785	keystroke_r	r	n/a
259.6475	0.09	519295	keystroke_u	u	n/a
259.9775	0.075	519955	keystroke_l	l	n/a
260.1125	0.18	520225	keystroke_e	e	n/a
260.3825	0.075	520765	keystroke_s	s	n/a
261.7025	0.105	523405	keystroke_Key.space	Key.space	n/a
261.8825	0.135	523765	keystroke_c	c	n/a
262.0325	0.09	524065	keystroke_o	o	n/a
262.2425	0.075	524485	keystroke_n	n	n/a
262.3925	0.105	524785	keystroke_t	t	n/a
262.6175	0.135	525235	keystroke_a	a	n/a
262.8125	0.09	525625	keystroke_i	i	n/a
263.0675	0.09	526135	keystroke_l	l	n/a
263.5925	0.075	527185	keystroke_Key.backspace	Key.backspace	n/a
263.8475	0.06	527695	keystroke_n	n	n/a
263.9675	0.135	527935	keystroke_s	s	n/a
264.6425	0.12	529285	keystroke_Key.space	Key.space	n/a
264.943	0.165	529886	keystroke_s	s	n/a
265.093	0.12	530186	keystroke_p	p	n/a
265.258	0.165	530516	keystroke_e	e	n/a
265.6175	0.135	531235	keystroke_c	c	n/a
265.8125	0.09	531625	keystroke_i	i	n/a
266.3225	0.135	532645	keystroke_a	a	n/a
266.4425	0.12	532885	keystroke_l	l	n/a
267.2075	0.09	534415	keystroke_t	t	n/a
267.3275	0.075	534655	keystroke_y	y	n/a
267.612	0.06	535224	keystroke_Key.enter	Key.enter	n/a
267.6765	6.568	535353	prompt	n/a	lock durham and theft\n
268.393	0.105	536786	keystroke_l	l	n/a
268.573	0.075	537146	keystroke_o	o	n/a
268.708	0.165	537416	keystroke_c	c	n/a
269.472	0.076	538944	keystroke_k	k	n/a
269.652	0.091	539304	keystroke_Key.space	Key.space	n/a
269.847	0.121	539694	keystroke_d	d	n/a
270.013	0.09	540026	keystroke_u	u	n/a
270.193	0.09	540386	keystroke_r	r	n/a
270.508	0.06	541016	keystroke_h	h	n/a
270.628	0.135	541256	keystroke_a	a	n/a
271.483	0.075	542966	keystroke_m	m	n/a
271.708	0.09	543416	keystroke_Key.space	Key.space	n/a
271.993	0.12	543986	keystroke_a	a	n/a
272.128	0.09	544256	keystroke_n	n	n/a
272.248	0.15	544496	keystroke_d	d	n/a
272.413	0.075	544826	keystroke_Key.space	Key.space	n/a
272.533	0.12	545066	keystroke_t	t	n/a
272.667	0.09	545334	keystroke_h	h	n/a
272.818	0.12	545636	keystroke_e	e	n/a
273.7925	0.09	547585	keystroke_f	f	n/a
273.9875	0.075	547975	keystroke_t	t	n/a
274.1675	0.075	548335	keystroke_Key.enter	Key.enter	n/a
274.2465	12.7325	548493	prompt	n/a	adolescent karaoke antonio spray\n
275.0825	0.105	550165	keystroke_a	a	n/a
275.3225	0.105	550645	keystroke_d	d	n/a
275.5325	0.075	551065	keystroke_o	o	n/a
275.8475	0.105	551695	keystroke_l	l	n/a
275.9975	0.105	551995	keystroke_e	e	n/a
277.903	0.135	555806	keystroke_s	s	n/a
278.098	0.12	556196	keystroke_c	c	n/a
278.458	0.105	556916	keystroke_e	e	n/a
278.638	0.09	557276	keystroke_n	n	n/a
278.803	0.105	557606	keystroke_t	t	n/a
279.073	0.09	558146	keystroke_Key.space	Key.space	n/a
279.673	0.075	559346	keystroke_k	k	n/a
279.808	0.135	559616	keystroke_a	a	n/a
280.018	0.105	560036	keystroke_r	r	n/a
280.198	0.12	560396	keystroke_a	a	n/a
280.588	0.105	561176	keystroke_o	o	n/a
281.368	0.075	562736	keystroke_k	k	n/a
281.548	0.09	563096	keystroke_e	e	n/a
281.773	0.105	563546	keystroke_Key.space	Key.space	n/a
282.178	0.12	564356	keystroke_a	a	n/a
282.313	0.075	564626	keystroke_n	n	n/a
282.463	0.09	564926	keystroke_t	t	n/a
282.598	0.18	565196	keystroke_o	o	n/a
283.003	0.075	566006	keystroke_n	n	n/a
283.138	0.09	566276	keystroke_i	i	n/a
283.378	0.105	566756	keystroke_a	a	n/a
283.618	0.03	567236	keystroke_o	o	n/a
284.098	0.075	568196	keystroke_Key.backspace	Key.backspace	n/a
284.278	0.09	568556	keystroke_Key.backspace	Key.backspace	n/a
284.923	0.075	569846	keystroke_o	o	n/a
285.403	0.105	570806	keystroke_Key.space	Key.space	n/a
285.688	0.135	571376	keystroke_s	s	n/a
285.868	0.09	571736	keystroke_p	p	n/a
286.138	0.105	572276	keystroke_r	r	n/a
286.288	0.12	572576	keystroke_a	a	n/a
286.498	0.075	572996	keystroke_y	y	n/a
286.918	0.06	573836	keystroke_Key.enter	Key.enter	n/a
286.9825	11.2765	573965	prompt	n/a	partnerships shock show protecting\n
287.8625	0.09	575725	keystroke_p	p	n/a
287.9975	0.165	575995	keystroke_a	a	n/a
288.2975	0.105	576595	keystroke_t	t	n/a
288.9425	0.06	577885	keystroke_Key.backspace	Key.backspace	n/a
289.1375	0.105	578275	keystroke_r	r	n/a
289.4075	0.09	578815	keystroke_t	t	n/a
289.8425	0.075	579685	keystroke_n	n	n/a
290.0525	0.195	580105	keystroke_e	e	n/a
290.2325	0.135	580465	keystroke_r	r	n/a
290.7125	0.15	581425	keystroke_s	s	n/a
290.8325	0.105	581665	keystroke_h	h	n/a
291.0425	0.09	582085	keystroke_i	i	n/a
291.2675	0.1055	582535	keystroke_p	p	n/a
291.868	0.135	583736	keystroke_s	s	n/a
292.018	0.105	584036	keystroke_Key.space	Key.space	n/a
292.243	0.15	584486	keystroke_s	s	n/a
292.423	0.075	584846	keystroke_h	h	n/a
292.618	0.075	585236	keystroke_o	o	n/a
292.783	0.12	585566	keystroke_c	c	n/a
292.963	0.09	585926	keystroke_k	k	n/a
293.383	0.09	586766	keystroke_Key.space	Key.space	n/a
293.788	0.12	587576	keystroke_s	s	n/a
293.953	0.09	587906	keystroke_h	h	n/a
294.163	0.075	588326	keystroke_o	o	n/a
294.343	0.135	588686	keystroke_w	w	n/a
294.553	0.105	589106	keystroke_Key.space	Key.space	n/a
295.4525	0.075	590905	keystroke_p	p	n/a
295.6025	0.12	591205	keystroke_r	r	n/a
295.9475	0.075	591895	keystroke_o	o	n/a
296.3075	0.09	592615	keystroke_t	t	n/a
296.9675	0.075	593935	keystroke_e	e	n/a
297.1625	0.135	594325	keystroke_c	c	n/a
297.4175	0.075	594835	keystroke_t	t	n/a
297.5975	0.075	595195	keystroke_i	i	n/a
297.8225	0.075	595645	keystroke_n	n	n/a
297.9575	0.09	595915	keystroke_g	g	n/a
298.1975	0.06	596395	keystroke_Key.enter	Key.enter	n/a
298.2615	11.7125	596523	prompt	n/a	coins estonia bristol print\n
299.1575	0.135	598315	keystroke_c	c	n/a
299.2775	0.075	598555	keystroke_o	o	n/a
299.6675	0.06	599335	keystroke_i	i	n/a
300.2075	0.06	600415	keystroke_n	n	n/a
300.6275	0.12	601255	keystroke_s	s	n/a
300.7775	0.105	601555	keystroke_Key.space	Key.space	n/a
301.0625	0.12	602125	keystroke_w	w	n/a
301.6925	0.075	603385	keystroke_Key.backspace	Key.backspace	n/a
301.8725	0.12	603745	keystroke_e	e	n/a
302.0675	0.12	604135	keystroke_s	s	n/a
302.3975	0.105	604795	keystroke_t	t	n/a
302.5325	0.12	605065	keystroke_o	o	n/a
303.868	0.0895	607736	keystroke_n	n	n/a
304.0475	0.09	608095	keystroke_i	i	n/a
304.197	0.12	608394	keystroke_a	a	n/a
304.4525	0.105	608905	keystroke_Key.space	Key.space	n/a
304.932	0.075	609864	keystroke_b	b	n/a
305.067	0.105	610134	keystroke_r	r	n/a
305.232	0.0755	610464	keystroke_o	o	n/a
306.027	0.0755	612054	keystroke_Key.backspace	Key.backspace	n/a
306.8825	0.015	613765	keystroke_i	i	n/a
306.9125	0.12	613825	keystroke_s	s	n/a
307.0925	0.105	614185	keystroke_t	t	n/a
307.2275	0.09	614455	keystroke_o	o	n/a
307.9475	0.075	615895	keystroke_l	l	n/a
308.4275	0.105	616855	keystroke_Key.space	Key.space	n/a
308.8175	0.09	617635	keystroke_p	p	n/a
308.9685	0.119	617937	keystroke_r	r	n/a
309.2525	0.09	618505	keystroke_i	i	n/a
309.5075	0.075	619015	keystroke_n	n	n/a
309.6725	0.105	619345	keystroke_t	t	n/a
309.9125	0.06	619825	keystroke_Key.enter	Key.enter	n/a
309.977	8.1725	619954	prompt	n/a	chairs upset violent infants\n
310.7975	0.135	621595	keystroke_c	c	n/a
310.9175	0.09	621835	keystroke_h	h	n/a
311.0675	0.165	622135	keystroke_a	a	n/a
311.2775	0.075	622555	keystroke_i	i	n/a
311.4435	0.074	622887	keystroke_r	r	n/a
311.7425	0.15	623485	keystroke_s	s	n/a
311.9375	0.09	623875	keystroke_Key.space	Key.space	n/a
312.3575	0.075	624715	keystroke_u	u	n/a
312.5075	0.09	625015	keystroke_p	p	n/a
312.7325	0.12	625465	keystroke_s	s	n/a
312.9875	0.135	625975	keystroke_e	e	n/a
313.2425	0.09	626485	keystroke_t	t	n/a
313.4075	0.09	626815	keystroke_Key.space	Key.space	n/a
314.2775	0.105	628555	keystroke_v	v	n/a
314.4275	0.09	628855	keystroke_i	i	n/a
314.8325	0.09	629665	keystroke_o	o	n/a
315.1325	0.12	630265	keystroke_l	l	n/a
315.3435	0.135	630687	keystroke_e	e	n/a
315.5225	0.12	631045	keystroke_n	n	n/a
315.6875	0.12	631375	keystroke_t	t	n/a
315.8825	0.105	631765	keystroke_Key.space	Key.space	n/a
316.6025	0.09	633205	keystroke_i	i	n/a
316.7825	0.09	633565	keystroke_n	n	n/a
317.1885	0.134	634377	keystroke_f	f	n/a
317.2775	0.151	634555	keystroke_a	a	n/a
317.5025	0.105	635005	keystroke_n	n	n/a
317.6535	0.089	635307	keystroke_t	t	n/a
317.8775	0.135	635755	keystroke_s	s	n/a
318.0575	0.09	636115	keystroke_Key.enter	Key.enter	n/a
318.1545	5.065	636309	prompt	n/a	commissioner substances photos mandatory\n
319.1535	0.12	638307	keystroke_c	c	n/a
319.3035	0.104	638607	keystroke_o	o	n/a
319.5575	0.06	639115	keystroke_m	m	n/a
319.7225	0.075	639445	keystroke_m	m	n/a
319.9175	0.105	639835	keystroke_i	i	n/a
320.1275	0.075	640255	keystroke_n	n	n/a
320.8925	0.135	641785	keystroke_s	s	n/a
321.4175	0.105	642835	keystroke_s	s	n/a
321.7025	0.061	643405	keystroke_i	i	n/a
321.8675	0.09	643735	keystroke_o	o	n/a
322.4075	0.075	644815	keystroke_n	n	n/a
322.5425	0.135	645085	keystroke_e	e	n/a
322.7675	0.09	645535	keystroke_r	r	n/a
323.1575	0.06	646315	keystroke_Key.enter	Key.enter	n/a
323.222	13.7375	646444	prompt	n/a	consequence interval techno michigan\n
324.2985	0.134	648597	keystroke_c	c	n/a
324.4185	0.089	648837	keystroke_o	o	n/a
324.6125	0.075	649225	keystroke_n	n	n/a
324.8385	0.104	649677	keystroke_s	s	n/a
325.0025	0.105	650005	keystroke_e	e	n/a
325.9025	0.12	651805	keystroke_q	q	n/a
326.0525	0.105	652105	keystroke_u	u	n/a
326.4135	0.075	652827	keystroke_e	e	n/a
326.8175	0.105	653635	keystroke_n	n	n/a
327.1475	0.165	654295	keystroke_c	c	n/a
327.3425	0.135	654685	keystroke_e	e	n/a
327.8075	0.09	655615	keystroke_Key.space	Key.space	n/a
328.1075	0.1055	656215	keystroke_i	i	n/a
328.318	0.09	656636	keystroke_n	n	n/a
328.468	0.105	656936	keystroke_t	t	n/a
328.663	0.27	657326	keystroke_e	e	n/a
328.888	0.12	657776	keystroke_r	r	n/a
329.518	0.18	659036	keystroke_v	v	n/a
329.983	0.12	659966	keystroke_a	a	n/a
330.298	0.105	660596	keystroke_l	l	n/a
330.508	0.12	661016	keystroke_Key.space	Key.space	n/a
331.423	0.105	662846	keystroke_t	t	n/a
331.558	0.105	663116	keystroke_e	e	n/a
331.903	0.105	663806	keystroke_c	c	n/a
332.788	0.06	665576	keystroke_h	h	n/a
333.028	0.06	666056	keystroke_n	n	n/a
333.193	0.06	666386	keystroke_o	o	n/a
333.628	0.105	667256	keystroke_Key.space	Key.space	n/a
333.943	0.09	667886	keystroke_m	m	n/a
334.108	0.09	668216	keystroke_i	i	n/a
334.273	0.135	668546	keystroke_v	v	n/a
334.843	0.045	669686	keystroke_Key.backspace	Key.backspace	n/a
335.008	0.12	670016	keystroke_c	c	n/a
335.188	0.09	670376	keystroke_h	h	n/a
335.3825	0.075	670765	keystroke_i	i	n/a
336.1175	0.15	672235	keystroke_g	g	n/a
336.2225	0.15	672445	keystroke_a	a	n/a
336.4625	0.076	672925	keystroke_n	n	n/a
336.8975	0.06	673795	keystroke_Key.enter	Key.enter	n/a
336.9625	10.062	673925	prompt	n/a	bullet is licensing xerox\n
337.7975	0.091	675595	keystroke_b	b	n/a
337.9635	0.089	675927	keystroke_u	u	n/a
338.1875	0.06	676375	keystroke_l	l	n/a
338.3525	0.076	676705	keystroke_l	l	n/a
338.5325	0.12	677065	keystroke_e	e	n/a
338.7275	0.12	677455	keystroke_t	t	n/a
338.9525	0.09	677905	keystroke_Key.space	Key.space	n/a
339.4025	0.075	678805	keystroke_i	i	n/a
339.5375	0.135	679075	keystroke_s	s	n/a
339.7025	0.105	679405	keystroke_Key.space	Key.space	n/a
339.9285	0.119	679857	keystroke_l	l	n/a
340.1675	0.015	680335	keystroke_i	i	n/a
340.8275	0.12	681655	keystroke_c	c	n/a
341.0375	0.09	682075	keystroke_e	e	n/a
341.8625	0.06	683725	keystroke_n	n	n/a
342.193	0.15	684386	keystroke_s	s	n/a
342.343	0.09	684686	keystroke_i	i	n/a
342.553	0.09	685106	keystroke_n	n	n/a
342.718	0.105	685436	keystroke_g	g	n/a
342.928	0.105	685856	keystroke_Key.space	Key.space	n/a
344.0975	0.105	688195	keystroke_x	x	n/a
344.4125	0.135	688825	keystroke_e	e	n/a
344.6975	0.12	689395	keystroke_r	r	n/a
344.9075	0.135	689815	keystroke_o	o	n/a
346.3475	0.12	692695	keystroke_x	x	n/a
346.8875	0.135	693775	keystroke_Key.enter	Key.enter	n/a
347.0275	14.5325	694055	prompt	n/a	unix charitable architecture gotten\n
348.2675	0.09	696535	keystroke_u	u	n/a
348.4325	0.09	696865	keystroke_n	n	n/a
348.5975	0.105	697195	keystroke_i	i	n/a
348.9725	0.15	697945	keystroke_c	c	n/a
349.2575	0.06	698515	keystroke_Key.space	Key.space	n/a
349.5125	0.15	699025	keystroke_c	c	n/a
349.6475	0.09	699295	keystroke_h	h	n/a
350.0675	0.045	700135	keystroke_Key.backspace	Key.backspace	n/a
350.2775	0.03	700555	keystroke_Key.backspace	Key.backspace	n/a
350.4875	0.075	700975	keystroke_Key.backspace	Key.backspace	n/a
350.7875	0.075	701575	keystroke_Key.backspace	Key.backspace	n/a
351.538	0.09	703076	keystroke_x	x	n/a
351.643	0.075	703286	keystroke_Key.space	Key.space	n/a
351.958	0.12	703916	keystroke_c	c	n/a
352.093	0.075	704186	keystroke_h	h	n/a
352.243	0.12	704486	keystroke_a	a	n/a
352.453	0.06	704906	keystroke_r	r	n/a
352.648	0.09	705296	keystroke_i	i	n/a
352.903	0.09	705806	keystroke_t	t	n/a
353.818	0.105	707636	keystroke_a	a	n/a
354.013	0.09	708026	keystroke_b	b	n/a
354.208	0.105	708416	keystroke_l	l	n/a
354.403	0.09	708806	keystroke_e	e	n/a
354.598	0.09	709196	keystroke_Key.space	Key.space	n/a
354.928	0.135	709856	keystroke_a	a	n/a
355.123	0.09	710246	keystroke_r	r	n/a
355.393	0.105	710786	keystroke_c	c	n/a
355.558	0.09	711116	keystroke_h	h	n/a
355.783	0.06	711566	keystroke_i	i	n/a
356.008	0.1045	712016	keystroke_t	t	n/a
356.2325	0.09	712465	keystroke_e	e	n/a
356.4725	0.105	712945	keystroke_c	c	n/a
359.0405	0.027	718081	keystroke_t	t	n/a
359.5325	0.12	719065	keystroke_u	u	n/a
359.6825	0.135	719365	keystroke_r	r	n/a
359.8775	0.135	719755	keystroke_e	e	n/a
360.1475	0.12	720295	keystroke_Key.space	Key.space	n/a
360.4325	0.09	720865	keystroke_g	g	n/a
360.5825	0.105	721165	keystroke_o	o	n/a
360.7475	0.075	721495	keystroke_t	t	n/a
360.9125	0.075	721825	keystroke_t	t	n/a
361.0925	0.12	722185	keystroke_e	e	n/a
361.2725	0.09	722545	keystroke_n	n	n/a
361.4825	0.0755	722965	keystroke_Key.enter	Key.enter	n/a
361.563	8.1415	723126	prompt	n/a	ward manager wicked promises\n
362.4725	0.1205	724945	keystroke_w	w	n/a
362.5775	0.1355	725155	keystroke_a	a	n/a
362.803	0.1045	725606	keystroke_r	r	n/a
363.058	0.075	726116	keystroke_n	n	n/a
363.7025	0.0905	727405	keystroke_Key.backspace	Key.backspace	n/a
363.898	0.09	727796	keystroke_d	d	n/a
364.063	0.105	728126	keystroke_Key.space	Key.space	n/a
364.393	0.105	728786	keystroke_m	m	n/a
364.5275	0.1205	729055	keystroke_a	a	n/a
364.768	0.0895	729536	keystroke_n	n	n/a
364.9625	0.105	729925	keystroke_a	a	n/a
365.1875	0.075	730375	keystroke_g	g	n/a
365.3685	0.075	730737	keystroke_e	e	n/a
365.8635	0.075	731727	keystroke_r	r	n/a
366.193	0.105	732386	keystroke_Key.space	Key.space	n/a
366.508	0.12	733016	keystroke_w	w	n/a
366.658	0.09	733316	keystroke_i	i	n/a
366.868	0.105	733736	keystroke_c	c	n/a
367.018	0.09	734036	keystroke_k	k	n/a
367.198	0.075	734396	keystroke_e	e	n/a
367.378	0.105	734756	keystroke_d	d	n/a
367.588	0.09	735176	keystroke_Key.space	Key.space	n/a
367.978	0.12	735956	keystroke_p	p	n/a
368.158	0.09	736316	keystroke_r	r	n/a
368.368	0.075	736736	keystroke_o	o	n/a
368.623	0.105	737246	keystroke_m	m	n/a
368.833	0.09	737666	keystroke_i	i	n/a
369.013	0.105	738026	keystroke_s	s	n/a
369.268	0.0605	738536	keystroke_e	e	n/a
369.4485	0.075	738897	keystroke_s	s	n/a
369.6435	0.06	739287	keystroke_Key.enter	Key.enter	n/a
369.7075	9.807	739415	prompt	n/a	logging opinions pediatric bobby\n
370.5285	0.12	741057	keystroke_l	l	n/a
370.7535	0.075	741507	keystroke_o	o	n/a
370.9035	0.06	741807	keystroke_g	g	n/a
371.0835	0.075	742167	keystroke_g	g	n/a
371.2635	0.075	742527	keystroke_i	i	n/a
371.4585	0.09	742917	keystroke_n	n	n/a
371.6685	0.09	743337	keystroke_g	g	n/a
371.8785	0.09	743757	keystroke_Key.space	Key.space	n/a
372.1185	0.075	744237	keystroke_o	o	n/a
372.6285	0.09	745257	keystroke_p	p	n/a
372.868	0.075	745736	keystroke_i	i	n/a
373.078	0.075	746156	keystroke_n	n	n/a
373.288	0.075	746576	keystroke_i	i	n/a
373.483	0.075	746966	keystroke_o	o	n/a
373.663	0.09	747326	keystroke_n	n	n/a
373.858	0.12	747716	keystroke_s	s	n/a
374.4285	0.105	748857	keystroke_Key.space	Key.space	n/a
374.6685	0.09	749337	keystroke_p	p	n/a
374.8185	0.09	749637	keystroke_e	e	n/a
375.0885	0.075	750177	keystroke_d	d	n/a
375.2985	0.075	750597	keystroke_i	i	n/a
375.5385	0.134	751077	keystroke_a	a	n/a
375.8075	0.075	751615	keystroke_t	t	n/a
376.2425	0.06	752485	keystroke_r	r	n/a
376.4525	0.075	752905	keystroke_i	i	n/a
376.6325	0.09	753265	keystroke_c	c	n/a
376.8425	0.09	753685	keystroke_Key.space	Key.space	n/a
377.143	0.075	754286	keystroke_b	b	n/a
377.3535	0.0745	754707	keystroke_o	o	n/a
377.578	0.06	755156	keystroke_b	b	n/a
377.743	0.075	755486	keystroke_b	b	n/a
377.938	0.06	755876	keystroke_y	y	n/a
378.223	0.015	756446	keystroke_'	'	n/a
379.213	0.075	758426	keystroke_Key.backspace	Key.backspace	n/a
379.438	0.075	758876	keystroke_Key.enter	Key.enter	n/a
379.518	11.4115	759036	prompt	n/a	shipped surround travels reverse\n
381.088	0.106	762176	keystroke_s	s	n/a
381.223	0.09	762446	keystroke_h	h	n/a
381.403	0.09	762806	keystroke_i	i	n/a
381.628	0.045	763256	keystroke_p	p	n/a
381.793	0.105	763586	keystroke_p	p	n/a
381.973	0.075	763946	keystroke_e	e	n/a
382.168	0.075	764336	keystroke_d	d	n/a
382.333	0.105	764666	keystroke_Key.space	Key.space	n/a
382.633	0.12	765266	keystroke_s	s	n/a
382.813	0.06	765626	keystroke_u	u	n/a
383.038	0.075	766076	keystroke_r	r	n/a
383.203	0.09	766406	keystroke_r	r	n/a
383.368	0.105	766736	keystroke_o	o	n/a
383.608	0.06	767216	keystroke_n	n	n/a
384.928	0.06	769856	keystroke_Key.backspace	Key.backspace	n/a
385.303	0.075	770606	keystroke_u	u	n/a
385.498	0.09	770996	keystroke_n	n	n/a
385.678	0.09	771356	keystroke_d	d	n/a
385.813	0.12	771626	keystroke_Key.space	Key.space	n/a
386.638	0.09	773276	keystroke_t	t	n/a
386.758	0.12	773516	keystroke_r	r	n/a
386.938	0.12	773876	keystroke_a	a	n/a
387.253	0.12	774506	keystroke_v	v	n/a
387.478	0.075	774956	keystroke_e	e	n/a
387.9885	0.09	775977	keystroke_l	l	n/a
388.1835	0.105	776367	keystroke_s	s	n/a
388.3935	0.09	776787	keystroke_Key.space	Key.space	n/a
388.7385	0.105	777477	keystroke_r	r	n/a
388.9635	0.09	777927	keystroke_e	e	n/a
389.5785	0.105	779157	keystroke_v	v	n/a
389.8035	0.135	779607	keystroke_e	e	n/a
389.9835	0.09	779967	keystroke_r	r	n/a
390.2685	0.12	780537	keystroke_s	s	n/a
390.4785	0.09	780957	keystroke_e	e	n/a
390.8535	0.075	781707	keystroke_Key.enter	Key.enter	n/a
390.9325	8.2025	781865	prompt	n/a	peter reply dirt lady\n
391.693	0.105	783386	keystroke_p	p	n/a
392.008	0.12	784016	keystroke_e	e	n/a
392.338	0.09	784676	keystroke_t	t	n/a
392.548	0.165	785096	keystroke_e	e	n/a
392.818	0.09	785636	keystroke_r	r	n/a
393.148	0.105	786296	keystroke_Key.space	Key.space	n/a
394.048	0.105	788096	keystroke_r	r	n/a
394.273	0.105	788546	keystroke_e	e	n/a
394.543	0.09	789086	keystroke_p	p	n/a
394.768	0.105	789536	keystroke_l	l	n/a
395.038	0.045	790076	keystroke_y	y	n/a
395.848	0.12	791696	keystroke_Key.space	Key.space	n/a
396.163	0.12	792326	keystroke_d	d	n/a
396.268	0.105	792536	keystroke_i	i	n/a
396.448	0.12	792896	keystroke_r	r	n/a
396.718	0.075	793436	keystroke_t	t	n/a
397.258	0.12	794516	keystroke_Key.space	Key.space	n/a
397.498	0.12	794996	keystroke_l	l	n/a
397.633	0.105	795266	keystroke_a	a	n/a
398.053	0.105	796106	keystroke_d	d	n/a
398.218	0.09	796436	keystroke_y	y	n/a
399.013	0.12	798026	keystroke_Key.enter	Key.enter	n/a
399.138	10.2715	798276	prompt	n/a	personal itunes reminder argue\n
400.648	0.09	801296	keystroke_p	p	n/a
400.768	0.18	801536	keystroke_e	e	n/a
400.903	0.105	801806	keystroke_r	r	n/a
401.158	0.12	802316	keystroke_s	s	n/a
401.293	0.09	802586	keystroke_o	o	n/a
401.518	0.075	803036	keystroke_n	n	n/a
401.788	0.12	803576	keystroke_a	a	n/a
401.968	0.105	803936	keystroke_l	l	n/a
402.373	0.105	804746	keystroke_Key.space	Key.space	n/a
402.808	0.0755	805616	keystroke_i	i	n/a
403.0335	0.075	806067	keystroke_t	t	n/a
403.2585	0.09	806517	keystroke_u	u	n/a
403.4685	0.09	806937	keystroke_n	n	n/a
403.5885	0.09	807177	keystroke_e	e	n/a
403.8285	0.105	807657	keystroke_s	s	n/a
404.2035	0.105	808407	keystroke_Key.space	Key.space	n/a
404.4885	0.105	808977	keystroke_r	r	n/a
404.6085	0.135	809217	keystroke_e	e	n/a
404.8935	0.105	809787	keystroke_m	m	n/a
405.2685	0.075	810537	keystroke_i	i	n/a
406.3335	0.075	812667	keystroke_n	n	n/a
406.5135	0.075	813027	keystroke_d	d	n/a
406.7235	0.15	813447	keystroke_e	e	n/a
406.8285	0.105	813657	keystroke_r	r	n/a
407.6085	0.09	815217	keystroke_Key.space	Key.space	n/a
407.9235	0.105	815847	keystroke_a	a	n/a
408.1485	0.075	816297	keystroke_r	r	n/a
408.763	0.09	817526	keystroke_g	g	n/a
408.913	0.09	817826	keystroke_u	u	n/a
409.093	0.09	818186	keystroke_e	e	n/a
409.333	0.075	818666	keystroke_Key.enter	Key.enter	n/a
409.412	12.238	818824	prompt	n/a	awareness williams metabolism brings\n
410.383	0.12	820766	keystroke_a	a	n/a
411.343	0.12	822686	keystroke_w	w	n/a
411.448	0.15	822896	keystroke_a	a	n/a
411.703	0.105	823406	keystroke_r	r	n/a
411.868	0.12	823736	keystroke_e	e	n/a
412.093	0.105	824186	keystroke_n	n	n/a
412.288	0.09	824576	keystroke_e	e	n/a
412.543	0.06	825086	keystroke_d	d	n/a
413.113	0.045	826226	keystroke_Key.backspace	Key.backspace	n/a
413.233	0.075	826466	keystroke_s	s	n/a
413.473	0.105	826946	keystroke_s	s	n/a
413.878	0.09	827756	keystroke_Key.space	Key.space	n/a
414.028	0.135	828056	keystroke_w	w	n/a
414.148	0.09	828296	keystroke_i	i	n/a
414.538	0.06	829076	keystroke_l	l	n/a
414.703	0.075	829406	keystroke_l	l	n/a
415.003	0.06	830006	keystroke_i	i	n/a
415.348	0.105	830696	keystroke_a	a	n/a
415.498	0.12	830996	keystroke_m	m	n/a
417.013	0.105	834026	keystroke_s	s	n/a
417.148	0.12	834296	keystroke_Key.space	Key.space	n/a
417.388	0.09	834776	keystroke_m	m	n/a
417.523	0.105	835046	keystroke_e	e	n/a
417.748	0.09	835496	keystroke_t	t	n/a
417.913	0.12	835826	keystroke_a	a	n/a
418.6035	0.09	837207	keystroke_b	b	n/a
418.8135	0.075	837627	keystroke_o	o	n/a
419.0235	0.09	838047	keystroke_l	l	n/a
419.2485	0.06	838497	keystroke_i	i	n/a
419.6835	0.12	839367	keystroke_s	s	n/a
420.0285	0.105	840057	keystroke_m	m	n/a
420.2535	0.09	840507	keystroke_Key.space	Key.space	n/a
420.5235	0.09	841047	keystroke_b	b	n/a
420.6735	0.09	841347	keystroke_r	r	n/a
420.8085	0.12	841617	keystroke_i	i	n/a
421.0335	0.075	842067	keystroke_n	n	n/a
421.1535	0.105	842307	keystroke_g	g	n/a
421.3785	0.105	842757	keystroke_s	s	n/a
421.5735	0.075	843147	keystroke_Key.enter	Key.enter	n/a
421.6545	10.045	843309	prompt	n/a	hearing gaps limousines lunch\n
422.5035	0.075	845007	keystroke_h	h	n/a
422.6085	0.15	845217	keystroke_e	e	n/a
422.6985	0.15	845397	keystroke_a	a	n/a
422.9685	0.06	845937	keystroke_r	r	n/a
423.1635	0.09	846327	keystroke_i	i	n/a
423.3585	0.09	846717	keystroke_n	n	n/a
423.5235	0.0895	847047	keystroke_g	g	n/a
423.733	0.09	847466	keystroke_Key.space	Key.space	n/a
424.498	0.09	848996	keystroke_g	g	n/a
424.633	0.1205	849266	keystroke_a	a	n/a
424.8885	0.12	849777	keystroke_p	p	n/a
425.0685	0.105	850137	keystroke_s	s	n/a
425.2635	0.105	850527	keystroke_Key.space	Key.space	n/a
425.5785	0.135	851157	keystroke_l	l	n/a
425.8335	0.06	851667	keystroke_i	i	n/a
426.3435	0.075	852687	keystroke_m	m	n/a
426.5535	0.09	853107	keystroke_o	o	n/a
428.0985	0.09	856197	keystroke_u	u	n/a
428.5935	0.09	857187	keystroke_s	s	n/a
428.7285	0.075	857457	keystroke_i	i	n/a
428.9235	0.075	857847	keystroke_n	n	n/a
429.0735	0.15	858147	keystroke_e	e	n/a
429.2535	0.135	858507	keystroke_s	s	n/a
429.6585	0.105	859317	keystroke_Key.space	Key.space	n/a
429.8835	0.12	859767	keystroke_l	l	n/a
430.1235	0.105	860247	keystroke_u	u	n/a
430.4385	0.075	860877	keystroke_n	n	n/a
430.8735	0.12	861747	keystroke_c	c	n/a
431.0385	0.09	862077	keystroke_h	h	n/a
431.6085	0.09	863217	keystroke_Key.enter	Key.enter	n/a
431.702	11.2175	863404	prompt	n/a	integer budgets qualifying method\n
432.4935	0.075	864987	keystroke_i	i	n/a
432.6885	0.075	865377	keystroke_n	n	n/a
432.8835	0.075	865767	keystroke_t	t	n/a
433.0935	0.12	866187	keystroke_e	e	n/a
434.0535	0.09	868107	keystroke_g	g	n/a
434.2485	0.15	868497	keystroke_e	e	n/a
434.4135	0.09	868827	keystroke_r	r	n/a
434.6235	0.105	869247	keystroke_Key.space	Key.space	n/a
434.8935	0.075	869787	keystroke_b	b	n/a
435.0735	0.075	870147	keystroke_u	u	n/a
435.3585	0.09	870717	keystroke_d	d	n/a
435.5985	0.09	871197	keystroke_g	g	n/a
435.8085	0.06	871617	keystroke_e	e	n/a
436.4385	0.059	872877	keystroke_t	t	n/a
436.6785	0.09	873357	keystroke_s	s	n/a
436.9025	0.091	873805	keystroke_Key.space	Key.space	n/a
437.518	0.106	875036	keystroke_q	q	n/a
438.3885	0.075	876777	keystroke_u	u	n/a
438.5685	0.09	877137	keystroke_a	a	n/a
438.8685	0.12	877737	keystroke_l	l	n/a
439.0635	0.075	878127	keystroke_i	i	n/a
439.9035	0.09	879807	keystroke_f	f	n/a
440.0685	0.09	880137	keystroke_y	y	n/a
440.2785	0.09	880557	keystroke_i	i	n/a
440.4735	0.075	880947	keystroke_n	n	n/a
440.6235	0.09	881247	keystroke_g	g	n/a
440.8485	0.09	881697	keystroke_Key.space	Key.space	n/a
441.3285	0.09	882657	keystroke_m	m	n/a
441.4635	0.135	882927	keystroke_e	e	n/a
441.6285	0.09	883257	keystroke_t	t	n/a
441.7785	0.09	883557	keystroke_h	h	n/a
441.9885	0.105	883977	keystroke_o	o	n/a
442.6635	0.09	885327	keystroke_d	d	n/a
442.8585	0.06	885717	keystroke_Key.enter	Key.enter	n/a
442.923	8.007	885846	prompt	n/a	theaters qualified near nurses\n
443.773	0.075	887546	keystroke_t	t	n/a
443.878	0.09	887756	keystroke_h	h	n/a
444.013	0.18	888026	keystroke_e	e	n/a
444.163	0.135	888326	keystroke_a	a	n/a
444.403	0.06	888806	keystroke_r	r	n/a
444.913	0.075	889826	keystroke_Key.backspace	Key.backspace	n/a
445.048	0.09	890096	keystroke_t	t	n/a
445.288	0.15	890576	keystroke_e	e	n/a
445.423	0.12	890846	keystroke_r	r	n/a
445.768	0.105	891536	keystroke_s	s	n/a
445.933	0.12	891866	keystroke_Key.space	Key.space	n/a
446.728	0.09	893456	keystroke_q	q	n/a
446.893	0.09	893786	keystroke_u	u	n/a
447.088	0.09	894176	keystroke_a	a	n/a
447.223	0.045	894446	keystroke_a	a	n/a
447.793	0.105	895586	keystroke_l	l	n/a
448.303	0.06	896606	keystroke_Key.backspace	Key.backspace	n/a
448.5285	0.075	897057	keystroke_Key.backspace	Key.backspace	n/a
449.3085	0.09	898617	keystroke_l	l	n/a
449.5035	0.075	899007	keystroke_i	i	n/a
449.6835	0.09	899367	keystroke_f	f	n/a
449.9685	0.06	899937	keystroke_i	i	n/a
450.1935	0.105	900387	keystroke_e	e	n/a
450.5835	0.09	901167	keystroke_d	d	n/a
450.8535	0.075	901707	keystroke_Key.enter	Key.enter	n/a
450.932	10.573	901864	prompt	n/a	near defines interracial closed\n
452.1585	0.075	904317	keystroke_n	n	n/a
452.2635	0.15	904527	keystroke_e	e	n/a
452.3535	0.165	904707	keystroke_a	a	n/a
452.6535	0.075	905307	keystroke_r	r	n/a
452.8485	0.105	905697	keystroke_Key.space	Key.space	n/a
453.2085	0.075	906417	keystroke_d	d	n/a
453.3885	0.09	906777	keystroke_e	e	n/a
453.5685	0.09	907137	keystroke_f	f	n/a
453.7185	0.09	907437	keystroke_i	i	n/a
453.8985	0.09	907797	keystroke_n	n	n/a
454.0335	0.09	908067	keystroke_e	e	n/a
454.2435	0.135	908487	keystroke_s	s	n/a
454.4385	0.12	908877	keystroke_Key.space	Key.space	n/a
455.2035	0.09	910407	keystroke_t	t	n/a
455.6685	0.075	911337	keystroke_Key.backspace	Key.backspace	n/a
456.2985	0.015	912597	keystroke_i	i	n/a
456.2985	0.03	912597	keystroke_u	u	n/a
456.8835	0.045	913767	keystroke_Key.backspace	Key.backspace	n/a
457.4685	0.075	914937	keystroke_i	i	n/a
457.5885	0.075	915177	keystroke_n	n	n/a
457.7535	0.105	915507	keystroke_t	t	n/a
457.9635	0.15	915927	keystroke_e	e	n/a
458.1585	0.105	916317	keystroke_r	r	n/a
458.7575	0.076	917515	keystroke_r	r	n/a
458.9085	0.135	917817	keystroke_a	a	n/a
459.2685	0.135	918537	keystroke_c	c	n/a
459.4335	0.105	918867	keystroke_i	i	n/a
459.6435	0.105	919287	keystroke_a	a	n/a
459.8225	0.091	919645	keystroke_l	l	n/a
460.0185	0.105	920037	keystroke_Key.space	Key.space	n/a
460.2435	0.105	920487	keystroke_c	c	n/a
460.3785	0.105	920757	keystroke_l	l	n/a
460.5885	0.09	921177	keystroke_o	o	n/a
460.7525	0.106	921505	keystroke_s	s	n/a
461.0085	0.06	922017	keystroke_e	e	n/a
461.2035	0.075	922407	keystroke_d	d	n/a
461.4425	0.061	922885	keystroke_Key.enter	Key.enter	n/a
461.5075	15.2525	923015	prompt	n/a	midlands tony nightmare sides\n
469.1405	0.058	938281	keystroke_m	m	n/a
469.2435	0.135	938487	keystroke_i	i	n/a
469.5585	0.15	939117	keystroke_d	d	n/a
469.8585	0.12	939717	keystroke_l	l	n/a
469.9635	0.135	939927	keystroke_a	a	n/a
470.1585	0.12	940317	keystroke_n	n	n/a
471.1485	0.12	942297	keystroke_d	d	n/a
471.3135	0.15	942627	keystroke_s	s	n/a
471.5235	0.105	943047	keystroke_Key.space	Key.space	n/a
471.8685	0.105	943737	keystroke_t	t	n/a
471.9885	0.12	943977	keystroke_o	o	n/a
472.1835	0.09	944367	keystroke_n	n	n/a
472.3935	0.075	944787	keystroke_y	y	n/a
472.5735	0.12	945147	keystroke_Key.space	Key.space	n/a
472.8435	0.09	945687	keystroke_m	m	n/a
473.339	0.075	946678	keystroke_Key.backspace	Key.backspace	n/a
473.639	0.06	947278	keystroke_n	n	n/a
473.804	0.075	947608	keystroke_i	i	n/a
473.969	0.075	947938	keystroke_g	g	n/a
474.149	0.045	948298	keystroke_h	h	n/a
474.254	0.105	948508	keystroke_t	t	n/a
474.509	0.09	949018	keystroke_m	m	n/a
474.644	0.135	949288	keystroke_a	a	n/a
474.854	0.165	949708	keystroke_r	r	n/a
475.004	0.12	950008	keystroke_e	e	n/a
475.439	0.12	950878	keystroke_Key.space	Key.space	n/a
475.724	0.12	951448	keystroke_s	s	n/a
475.874	0.09	951748	keystroke_i	i	n/a
476.129	0.075	952258	keystroke_d	d	n/a
476.324	0.135	952648	keystroke_e	e	n/a
476.474	0.12	952948	keystroke_s	s	n/a
476.669	0.09	953338	keystroke_Key.enter	Key.enter	n/a
476.7625	10.7675	953525	prompt	n/a	oxide composite optimum whale\n
477.674	0.075	955348	keystroke_o	o	n/a
478.814	0.105	957628	keystroke_c	c	n/a
479.024	0.075	958048	keystroke_i	i	n/a
479.594	0.045	959188	keystroke_Key.backspace	Key.backspace	n/a
479.803	0.076	959606	keystroke_Key.backspace	Key.backspace	n/a
480.464	0.075	960928	keystroke_x	x	n/a
480.688	0.075	961376	keystroke_i	i	n/a
480.884	0.06	961768	keystroke_d	d	n/a
481.079	0.075	962158	keystroke_e	e	n/a
481.273	0.0905	962546	keystroke_Key.space	Key.space	n/a
481.9785	0.09	963957	keystroke_c	c	n/a
482.1285	0.09	964257	keystroke_o	o	n/a
482.3385	0.09	964677	keystroke_m	m	n/a
482.5335	0.09	965067	keystroke_p	p	n/a
483.0585	0.06	966117	keystroke_o	o	n/a
483.1935	0.12	966387	keystroke_s	s	n/a
483.3735	0.09	966747	keystroke_i	i	n/a
483.5235	0.09	967047	keystroke_t	t	n/a
483.7335	0.09	967467	keystroke_e	e	n/a
483.8835	0.105	967767	keystroke_Key.space	Key.space	n/a
484.439	0.059	968878	keystroke_o	o	n/a
484.604	0.059	969208	keystroke_p	p	n/a
484.918	0.076	969836	keystroke_t	t	n/a
485.113	0.076	970226	keystroke_i	i	n/a
485.519	0.074	971038	keystroke_m	m	n/a
485.744	0.06	971488	keystroke_u	u	n/a
485.954	0.075	971908	keystroke_m	m	n/a
486.149	0.104	972298	keystroke_Key.space	Key.space	n/a
486.373	0.106	972746	keystroke_w	w	n/a
486.539	0.104	973078	keystroke_h	h	n/a
486.704	0.195	973408	keystroke_a	a	n/a
487.018	0.165	974036	keystroke_l	l	n/a
487.213	0.091	974426	keystroke_e	e	n/a
487.453	0.076	974906	keystroke_Key.enter	Key.enter	n/a
487.5325	12.4325	975065	prompt	n/a	offshore source added who's\n
488.354	0.075	976708	keystroke_o	o	n/a
488.504	0.09	977008	keystroke_f	f	n/a
488.699	0.075	977398	keystroke_f	f	n/a
488.954	0.105	977908	keystroke_s	s	n/a
489.149	0.075	978298	keystroke_h	h	n/a
489.329	0.075	978658	keystroke_o	o	n/a
489.509	0.12	979018	keystroke_r	r	n/a
489.719	0.105	979438	keystroke_e	e	n/a
489.929	0.105	979858	keystroke_Key.space	Key.space	n/a
490.303	0.091	980606	keystroke_s	s	n/a
490.454	0.105	980908	keystroke_o	o	n/a
490.664	0.075	981328	keystroke_u	u	n/a
490.799	0.075	981598	keystroke_r	r	n/a
491.024	0.105	982048	keystroke_c	c	n/a
491.233	0.046	982466	keystroke_w	w	n/a
491.234	0.075	982468	keystroke_e	e	n/a
492.673	0.06	985346	keystroke_Key.backspace	Key.backspace	n/a
492.868	0.075	985736	keystroke_Key.backspace	Key.backspace	n/a
493.048	0.076	986096	keystroke_e	e	n/a
493.394	0.104	986788	keystroke_Key.space	Key.space	n/a
493.664	0.105	987328	keystroke_a	a	n/a
493.964	0.06	987928	keystroke_d	d	n/a
494.114	0.075	988228	keystroke_d	d	n/a
494.354	0.06	988708	keystroke_e	e	n/a
494.564	0.059	989128	keystroke_d	d	n/a
494.743	0.09	989486	keystroke_Key.space	Key.space	n/a
494.983	0.09	989966	keystroke_w	w	n/a
495.209	0.074	990418	keystroke_h	h	n/a
495.388	0.075	990776	keystroke_o	o	n/a
496.1085	0.075	992217	keystroke_;	;	n/a
498.6455	0	997291	keystroke_Key.backspace	Key.backspace	n/a
498.8385	0.075	997677	keystroke_'	'	n/a
499.3485	0.09	998697	keystroke_s	s	n/a
499.4985	0.09	998997	keystroke_Key.space	Key.space	n/a
499.8885	0.075	999777	keystroke_Key.enter	Key.enter	n/a
499.9675	7.8425	999935	prompt	n/a	grown ladies booking mozilla\n
500.8635	0.105	1001727	keystroke_g	g	n/a
500.9535	0.12	1001907	keystroke_r	r	n/a
501.1335	0.09	1002267	keystroke_o	o	n/a
501.2835	0.105	1002567	keystroke_w	w	n/a
501.4785	0.075	1002957	keystroke_n	n	n/a
501.7485	0.09	1003497	keystroke_Key.space	Key.space	n/a
502.0485	0.105	1004097	keystroke_l	l	n/a
502.1385	0.105	1004277	keystroke_a	a	n/a
502.6035	0.09	1005207	keystroke_d	d	n/a
502.7685	0.09	1005537	keystroke_i	i	n/a
502.9635	0.18	1005927	keystroke_e	e	n/a
503.2035	0.105	1006407	keystroke_s	s	n/a
503.3835	0.105	1006767	keystroke_Key.space	Key.space	n/a
503.7735	0.06	1007547	keystroke_b	b	n/a
503.9385	0.075	1007877	keystroke_o	o	n/a
504.1185	0.075	1008237	keystroke_o	o	n/a
504.2835	0.075	1008567	keystroke_k	k	n/a
504.4635	0.075	1008927	keystroke_i	i	n/a
504.6435	0.09	1009287	keystroke_n	n	n/a
504.8085	0.075	1009617	keystroke_g	g	n/a
505.0185	0.09	1010037	keystroke_Key.space	Key.space	n/a
505.6035	0.09	1011207	keystroke_m	m	n/a
505.7685	0.09	1011537	keystroke_o	o	n/a
506.1135	0.06	1012227	keystroke_s	s	n/a
506.5785	0.06	1013157	keystroke_Key.backspace	Key.backspace	n/a
506.7135	0.105	1013427	keystroke_z	z	n/a
506.9385	0.075	1013877	keystroke_i	i	n/a
507.1635	0.075	1014327	keystroke_l	l	n/a
507.3285	0.075	1014657	keystroke_l	l	n/a
507.5385	0.09	1015077	keystroke_a	a	n/a
507.7185	0.09	1015437	keystroke_Key.enter	Key.enter	n/a
507.8125	8.2625	1015625	prompt	n/a	scotland pools fraud bottles\n
508.6485	0.09	1017297	keystroke_s	s	n/a
509.2035	0.105	1018407	keystroke_c	c	n/a
509.3535	0.105	1018707	keystroke_o	o	n/a
509.5935	0.075	1019187	keystroke_t	t	n/a
509.9385	0.105	1019877	keystroke_l	l	n/a
510.4785	0.12	1020957	keystroke_a	a	n/a
510.6585	0.09	1021317	keystroke_n	n	n/a
511.423	0.09	1022846	keystroke_d	d	n/a
511.528	0.135	1023056	keystroke_Key.space	Key.space	n/a
511.873	0.09	1023746	keystroke_p	p	n/a
512.0835	0.06	1024167	keystroke_o	o	n/a
512.2485	0.075	1024497	keystroke_o	o	n/a
512.4735	0.075	1024947	keystroke_l	l	n/a
512.6535	0.12	1025307	keystroke_s	s	n/a
513.2235	0.09	1026447	keystroke_Key.space	Key.space	n/a
513.4635	0.12	1026927	keystroke_f	f	n/a
513.5685	0.15	1027137	keystroke_r	r	n/a
513.7485	0.135	1027497	keystroke_a	a	n/a
514.0485	0.12	1028097	keystroke_u	u	n/a
514.2285	0.105	1028457	keystroke_d	d	n/a
514.3935	0.12	1028787	keystroke_Key.space	Key.space	n/a
514.8285	0.09	1029657	keystroke_b	b	n/a
515.0235	0.075	1030047	keystroke_o	o	n/a
515.1585	0.06	1030317	keystroke_t	t	n/a
515.3235	0.075	1030647	keystroke_t	t	n/a
515.5035	0.09	1031007	keystroke_l	l	n/a
515.6535	0.18	1031307	keystroke_e	e	n/a
515.7735	0.165	1031547	keystroke_s	s	n/a
515.9985	0.075	1031997	keystroke_Key.enter	Key.enter	n/a
516.0775	7.7075	1032155	prompt	n/a	vital chen remote titles\n
517.1235	0.015	1034247	keystroke_b	b	n/a
517.633	0.075	1035266	keystroke_Key.backspace	Key.backspace	n/a
517.873	0.105	1035746	keystroke_v	v	n/a
518.0385	0.09	1036077	keystroke_i	i	n/a
518.2785	0.09	1036557	keystroke_t	t	n/a
518.4585	0.12	1036917	keystroke_a	a	n/a
518.6235	0.135	1037247	keystroke_l	l	n/a
518.8185	0.105	1037637	keystroke_Key.space	Key.space	n/a
519.1335	0.135	1038267	keystroke_v	v	n/a
519.3135	0.06	1038627	keystroke_h	h	n/a
519.5235	0.135	1039047	keystroke_e	e	n/a
519.9885	0.09	1039977	keystroke_n	n	n/a
520.2135	0.105	1040427	keystroke_Key.space	Key.space	n/a
520.4535	0.12	1040907	keystroke_r	r	n/a
520.5435	0.15	1041087	keystroke_e	e	n/a
520.7235	0.135	1041447	keystroke_m	m	n/a
520.8735	0.12	1041747	keystroke_o	o	n/a
521.0385	0.12	1042077	keystroke_t	t	n/a
521.3835	0.015	1042767	keystroke_e	e	n/a
521.6985	0.105	1043397	keystroke_Key.space	Key.space	n/a
522.119	0.105	1044238	keystroke_t	t	n/a
522.254	0.12	1044508	keystroke_i	i	n/a
522.449	0.09	1044898	keystroke_t	t	n/a
522.584	0.105	1045168	keystroke_l	l	n/a
522.779	0.165	1045558	keystroke_e	e	n/a
522.929	0.165	1045858	keystroke_s	s	n/a
523.664	0.12	1047328	keystroke_Key.enter	Key.enter	n/a
523.788	12.492	1047576	prompt	n/a	matters charitable definition winning\n
524.564	0.09	1049128	keystroke_m	m	n/a
524.729	0.075	1049458	keystroke_e	e	n/a
525.164	0.075	1050328	keystroke_Key.backspace	Key.backspace	n/a
525.299	0.15	1050598	keystroke_a	a	n/a
525.569	0.075	1051138	keystroke_t	t	n/a
525.734	0.09	1051468	keystroke_t	t	n/a
525.929	0.18	1051858	keystroke_e	e	n/a
526.064	0.135	1052128	keystroke_r	r	n/a
526.304	0.135	1052608	keystroke_s	s	n/a
526.499	0.09	1052998	keystroke_Key.space	Key.space	n/a
526.859	0.12	1053718	keystroke_c	c	n/a
526.994	0.075	1053988	keystroke_h	h	n/a
527.144	0.135	1054288	keystroke_a	a	n/a
527.309	0.12	1054618	keystroke_r	r	n/a
527.459	0.12	1054918	keystroke_i	i	n/a
527.624	0.09	1055248	keystroke_t	t	n/a
527.804	0.105	1055608	keystroke_l	l	n/a
527.924	0.12	1055848	keystroke_a	a	n/a
528.269	0.09	1056538	keystroke_Key.backspace	Key.backspace	n/a
528.479	0.09	1056958	keystroke_Key.backspace	Key.backspace	n/a
528.674	0.165	1057348	keystroke_a	a	n/a
528.899	0.075	1057798	keystroke_n	n	n/a
528.914	0.045	1057828	keystroke_b	b	n/a
529.109	0.09	1058218	keystroke_l	l	n/a
529.6485	0.075	1059297	keystroke_Key.backspace	Key.backspace	n/a
529.9635	0.075	1059927	keystroke_Key.backspace	Key.backspace	n/a
530.2485	0.075	1060497	keystroke_Key.backspace	Key.backspace	n/a
531.0735	0.075	1062147	keystroke_b	b	n/a
531.299	0.0595	1062598	keystroke_l	l	n/a
531.8835	0.12	1063767	keystroke_e	e	n/a
531.9585	0.105	1063917	keystroke_Key.space	Key.space	n/a
532.5735	0.075	1065147	keystroke_d	d	n/a
532.7535	0.075	1065507	keystroke_e	e	n/a
532.9335	0.06	1065867	keystroke_f	f	n/a
533.0835	0.09	1066167	keystroke_i	i	n/a
533.3085	0.075	1066617	keystroke_n	n	n/a
533.4435	0.09	1066887	keystroke_i	i	n/a
533.6385	0.09	1067277	keystroke_t	t	n/a
534.0585	0.045	1068117	keystroke_i	i	n/a
534.2385	0.075	1068477	keystroke_o	o	n/a
534.4185	0.075	1068837	keystroke_n	n	n/a
534.5985	0.09	1069197	keystroke_Key.space	Key.space	n/a
534.8985	0.135	1069797	keystroke_w	w	n/a
535.0485	0.09	1070097	keystroke_i	i	n/a
535.2885	0.06	1070577	keystroke_n	n	n/a
535.4685	0.0755	1070937	keystroke_n	n	n/a
535.634	0.09	1071268	keystroke_i	i	n/a
535.814	0.09	1071628	keystroke_n	n	n/a
535.949	0.12	1071898	keystroke_g	g	n/a
536.219	0.06	1072438	keystroke_Key.enter	Key.enter	n/a
536.2845	10.286	1072569	prompt	n/a	logan accompanying market classical\n
537.074	0.075	1074148	keystroke_l	l	n/a
537.239	0.09	1074478	keystroke_o	o	n/a
537.584	0.105	1075168	keystroke_g	g	n/a
537.719	0.135	1075438	keystroke_a	a	n/a
537.899	0.09	1075798	keystroke_n	n	n/a
538.093	0.1055	1076186	keystroke_Key.space	Key.space	n/a
538.2735	0.12	1076547	keystroke_a	a	n/a
538.5135	0.09	1077027	keystroke_c	c	n/a
538.7085	0.075	1077417	keystroke_c	c	n/a
538.8885	0.075	1077777	keystroke_o	o	n/a
540.5685	0.075	1081137	keystroke_m	m	n/a
541.1835	0.09	1082367	keystroke_p	p	n/a
541.4535	0.12	1082907	keystroke_a	a	n/a
541.6935	0.075	1083387	keystroke_n	n	n/a
541.9485	0.075	1083897	keystroke_y	y	n/a
542.3835	0.075	1084767	keystroke_i	i	n/a
542.5635	0.09	1085127	keystroke_n	n	n/a
542.6985	0.105	1085397	keystroke_g	g	n/a
542.8635	0.09	1085727	keystroke_Key.space	Key.space	n/a
543.0885	0.075	1086177	keystroke_m	m	n/a
543.2535	0.12	1086507	keystroke_a	a	n/a
543.4185	0.105	1086837	keystroke_r	r	n/a
543.5985	0.09	1087197	keystroke_k	k	n/a
543.8085	0.135	1087617	keystroke_e	e	n/a
544.0635	0.105	1088127	keystroke_t	t	n/a
544.2585	0.105	1088517	keystroke_Key.space	Key.space	n/a
544.6035	0.105	1089207	keystroke_c	c	n/a
544.7685	0.09	1089537	keystroke_l	l	n/a
544.9185	0.12	1089837	keystroke_a	a	n/a
545.1735	0.075	1090347	keystroke_s	s	n/a
545.3685	0.135	1090737	keystroke_s	s	n/a
545.5485	0.09	1091097	keystroke_i	i	n/a
545.7585	0.135	1091517	keystroke_c	c	n/a
545.9535	0.15	1091907	keystroke_a	a	n/a
546.1785	0.105	1092357	keystroke_l	l	n/a
546.4785	0.09	1092957	keystroke_Key.enter	Key.enter	n/a
546.5745	8.5155	1093149	prompt	n/a	july animal nursing yards\n
547.499	0.075	1094998	keystroke_j	j	n/a
547.664	0.06	1095328	keystroke_u	u	n/a
547.859	0.12	1095718	keystroke_l	l	n/a
548.099	0.075	1096198	keystroke_y	y	n/a
548.309	0.104	1096618	keystroke_Key.space	Key.space	n/a
548.488	0.136	1096976	keystroke_a	a	n/a
548.699	0.0895	1097398	keystroke_n	n	n/a
548.9085	0.075	1097817	keystroke_i	i	n/a
549.1485	0.015	1098297	keystroke_l	l	n/a
549.6135	0.075	1099227	keystroke_Key.backspace	Key.backspace	n/a
549.9135	0.09	1099827	keystroke_m	m	n/a
550.0635	0.135	1100127	keystroke_a	a	n/a
550.6335	0.075	1101267	keystroke_l	l	n/a
551.9385	0.09	1103877	keystroke_Key.space	Key.space	n/a
552.1935	0.06	1104387	keystroke_n	n	n/a
552.3585	0.075	1104717	keystroke_u	u	n/a
552.5385	0.09	1105077	keystroke_r	r	n/a
552.9885	0.12	1105977	keystroke_s	s	n/a
553.1385	0.09	1106277	keystroke_i	i	n/a
553.3335	0.09	1106667	keystroke_n	n	n/a
553.4835	0.12	1106967	keystroke_g	g	n/a
553.7085	0.075	1107417	keystroke_Key.space	Key.space	n/a
553.9485	0.075	1107897	keystroke_y	y	n/a
554.0835	0.15	1108167	keystroke_a	a	n/a
554.2935	0.12	1108587	keystroke_r	r	n/a
554.7735	0.12	1109547	keystroke_d	d	n/a
555.0135	0.075	1110027	keystroke_Key.enter	Key.enter	n/a
555.0925	10.078	1110185	prompt	n/a	adjusted affecting reward todd\n
555.914	0.12	1111828	keystroke_a	a	n/a
556.379	0.104	1112758	keystroke_d	d	n/a
556.709	0.075	1113418	keystroke_j	j	n/a
556.858	0.091	1113716	keystroke_u	u	n/a
556.979	0.179	1113958	keystroke_s	s	n/a
557.144	0.105	1114288	keystroke_t	t	n/a
557.3235	0.12	1114647	keystroke_e	e	n/a
557.5335	0.12	1115067	keystroke_d	d	n/a
557.6985	0.105	1115397	keystroke_Key.space	Key.space	n/a
557.8785	0.12	1115757	keystroke_a	a	n/a
558.1035	0.09	1116207	keystroke_f	f	n/a
558.2985	0.105	1116597	keystroke_f	f	n/a
558.4935	0.075	1116987	keystroke_e	e	n/a
558.7035	0.12	1117407	keystroke_c	c	n/a
558.9285	0.105	1117857	keystroke_t	t	n/a
559.3635	0.06	1118727	keystroke_i	i	n/a
559.5285	0.09	1119057	keystroke_n	n	n/a
559.648	0.091	1119296	keystroke_g	g	n/a
559.799	0.09	1119598	keystroke_Key.space	Key.space	n/a
560.009	0.12	1120018	keystroke_r	r	n/a
560.099	0.135	1120198	keystroke_e	e	n/a
560.444	0.135	1120888	keystroke_q	q	n/a
561.014	0.12	1122028	keystroke_a	a	n/a
561.6135	0.06	1123227	keystroke_Key.backspace	Key.backspace	n/a
561.7935	0.075	1123587	keystroke_Key.backspace	Key.backspace	n/a
562.6185	0.12	1125237	keystroke_w	w	n/a
562.7685	0.135	1125537	keystroke_a	a	n/a
563.2035	0.105	1126407	keystroke_r	r	n/a
563.7435	0.105	1127487	keystroke_d	d	n/a
564.1635	0.12	1128327	keystroke_Key.space	Key.space	n/a
564.3435	0.09	1128687	keystroke_t	t	n/a
564.5085	0.09	1129017	keystroke_o	o	n/a
564.7635	0.075	1129527	keystroke_d	d	n/a
564.944	0.09	1129888	keystroke_d	d	n/a
565.093	0.075	1130186	keystroke_Key.enter	Key.enter	n/a
565.1735	7.3315	1130347	prompt	n/a	need barbados secure paint\n
565.979	0.06	1131958	keystroke_n	n	n/a
566.0985	0.09	1132197	keystroke_e	e	n/a
566.2785	0.1205	1132557	keystroke_e	e	n/a
566.5785	0.105	1133157	keystroke_d	d	n/a
566.7885	0.09	1133577	keystroke_Key.space	Key.space	n/a
567.299	0.045	1134598	keystroke_b	b	n/a
567.374	0.15	1134748	keystroke_a	a	n/a
567.569	0.12	1135138	keystroke_r	r	n/a
567.899	0.075	1135798	keystroke_b	b	n/a
568.034	0.1195	1136068	keystroke_a	a	n/a
568.424	0.1195	1136848	keystroke_d	d	n/a
568.559	0.1045	1137118	keystroke_o	o	n/a
569.0085	0.075	1138017	keystroke_s	s	n/a
569.144	0.1045	1138288	keystroke_Key.space	Key.space	n/a
569.4585	0.12	1138917	keystroke_s	s	n/a
569.7285	0.105	1139457	keystroke_e	e	n/a
570.1485	0.15	1140297	keystroke_c	c	n/a
570.3285	0.105	1140657	keystroke_u	u	n/a
570.6285	0.135	1141257	keystroke_r	r	n/a
570.8985	0.135	1141797	keystroke_e	e	n/a
571.0935	0.105	1142187	keystroke_Key.space	Key.space	n/a
571.2885	0.105	1142577	keystroke_p	p	n/a
571.4685	0.12	1142937	keystroke_a	a	n/a
571.7085	0.12	1143417	keystroke_i	i	n/a
571.9785	0.09	1143957	keystroke_n	n	n/a
572.1585	0.12	1144317	keystroke_g	g	n/a
572.4285	0.075	1144857	keystroke_Key.enter	Key.enter	n/a
572.508	9.0125	1145016	prompt	n/a	automotive fitted bolt position\n
573.6435	0.1355	1147287	keystroke_a	a	n/a
573.824	0.09	1147648	keystroke_u	u	n/a
574.034	0.12	1148068	keystroke_t	t	n/a
574.214	0.105	1148428	keystroke_o	o	n/a
574.859	0.12	1149718	keystroke_m	m	n/a
575.039	0.105	1150078	keystroke_o	o	n/a
575.264	0.09	1150528	keystroke_t	t	n/a
575.444	0.105	1150888	keystroke_i	i	n/a
575.654	0.12	1151308	keystroke_v	v	n/a
575.879	0.105	1151758	keystroke_e	e	n/a
576.074	0.09	1152148	keystroke_Key.space	Key.space	n/a
576.614	0.105	1153228	keystroke_f	f	n/a
576.764	0.09	1153528	keystroke_o	o	n/a
576.899	0.06	1153798	keystroke_t	t	n/a
577.079	0.075	1154158	keystroke_t	t	n/a
577.274	0.09	1154548	keystroke_e	e	n/a
577.484	0.105	1154968	keystroke_d	d	n/a
577.649	0.09	1155298	keystroke_Key.space	Key.space	n/a
577.934	0.06	1155868	keystroke_b	b	n/a
578.129	0.075	1156258	keystroke_o	o	n/a
578.324	0.09	1156648	keystroke_l	l	n/a
578.729	0.135	1157458	keystroke_t	t	n/a
578.984	0.09	1157968	keystroke_Key.space	Key.space	n/a
579.719	0.105	1159438	keystroke_p	p	n/a
579.929	0.075	1159858	keystroke_o	o	n/a
580.109	0.15	1160218	keystroke_s	s	n/a
580.274	0.09	1160548	keystroke_i	i	n/a
580.439	0.105	1160878	keystroke_t	t	n/a
580.649	0.09	1161298	keystroke_i	i	n/a
580.859	0.075	1161718	keystroke_o	o	n/a
581.039	0.075	1162078	keystroke_n	n	n/a
581.459	0.06	1162918	keystroke_Key.enter	Key.enter	n/a
581.523	8.577	1163046	prompt	n/a	stickers square mobiles mart\n
582.314	0.15	1164628	keystroke_s	s	n/a
582.494	0.105	1164988	keystroke_t	t	n/a
582.674	0.105	1165348	keystroke_i	i	n/a
583.1535	0.12	1166307	keystroke_c	c	n/a
583.3185	0.09	1166637	keystroke_k	k	n/a
583.4685	0.15	1166937	keystroke_e	e	n/a
583.7235	0.09	1167447	keystroke_r	r	n/a
584.8335	0.15	1169667	keystroke_s	s	n/a
584.9985	0.105	1169997	keystroke_Key.space	Key.space	n/a
585.2685	0.15	1170537	keystroke_s	s	n/a
585.8085	0.12	1171617	keystroke_q	q	n/a
585.9885	0.105	1171977	keystroke_u	u	n/a
586.2135	0.12	1172427	keystroke_a	a	n/a
586.5735	0.135	1173147	keystroke_r	r	n/a
586.7685	0.15	1173537	keystroke_e	e	n/a
587.0535	0.12	1174107	keystroke_Key.space	Key.space	n/a
587.4135	0.105	1174827	keystroke_m	m	n/a
587.5635	0.105	1175127	keystroke_o	o	n/a
587.9535	0.09	1175907	keystroke_b	b	n/a
588.1335	0.105	1176267	keystroke_i	i	n/a
588.4335	0.075	1176867	keystroke_l	l	n/a
588.5985	0.135	1177197	keystroke_e	e	n/a
588.8385	0.15	1177677	keystroke_s	s	n/a
589.0185	0.105	1178037	keystroke_Key.space	Key.space	n/a
589.2435	0.105	1178487	keystroke_m	m	n/a
589.3935	0.15	1178787	keystroke_a	a	n/a
589.5735	0.135	1179147	keystroke_r	r	n/a
589.8285	0.09	1179657	keystroke_t	t	n/a
590.0085	0.09	1180017	keystroke_Key.enter	Key.enter	n/a
590.1025	8.758	1180205	prompt	n/a	areas oriental adjacent presence\n
590.7885	0.15	1181577	keystroke_a	a	n/a
590.9085	0.165	1181817	keystroke_r	r	n/a
591.0585	0.15	1182117	keystroke_e	e	n/a
591.1935	0.135	1182387	keystroke_a	a	n/a
591.5835	0.12	1183167	keystroke_s	s	n/a
591.7635	0.12	1183527	keystroke_Key.space	Key.space	n/a
592.0335	0.105	1184067	keystroke_o	o	n/a
592.6635	0.105	1185327	keystroke_r	r	n/a
592.7835	0.09	1185567	keystroke_i	i	n/a
592.9335	0.135	1185867	keystroke_e	e	n/a
593.0985	0.09	1186197	keystroke_n	n	n/a
593.2335	0.105	1186467	keystroke_t	t	n/a
593.3835	0.15	1186767	keystroke_a	a	n/a
593.5785	0.105	1187157	keystroke_l	l	n/a
593.7885	0.09	1187577	keystroke_Key.space	Key.space	n/a
594.1185	0.12	1188237	keystroke_a	a	n/a
594.6435	0.105	1189287	keystroke_d	d	n/a
594.8685	0.075	1189737	keystroke_j	j	n/a
594.9885	0.15	1189977	keystroke_a	a	n/a
595.4685	0.12	1190937	keystroke_c	c	n/a
595.6635	0.12	1191327	keystroke_e	e	n/a
595.8285	0.09	1191657	keystroke_n	n	n/a
595.9935	0.09	1191987	keystroke_t	t	n/a
596.1435	0.105	1192287	keystroke_Key.space	Key.space	n/a
596.4735	0.105	1192947	keystroke_p	p	n/a
596.6235	0.12	1193247	keystroke_r	r	n/a
596.7285	0.165	1193457	keystroke_e	e	n/a
597.3585	0.105	1194717	keystroke_s	s	n/a
597.6135	0.12	1195227	keystroke_c	c	n/a
597.8385	0.09	1195677	keystroke_e	e	n/a
598.1685	0.075	1196337	keystroke_n	n	n/a
598.3335	0.15	1196667	keystroke_c	c	n/a
598.5135	0.1205	1197027	keystroke_e	e	n/a
598.769	0.09	1197538	keystroke_Key.enter	Key.enter	n/a
598.863	12.4325	1197726	prompt	n/a	msgstr targeted statutes components\n
599.834	0.075	1199668	keystroke_m	m	n/a
600.209	0.135	1200418	keystroke_s	s	n/a
601.364	0.09	1202728	keystroke_g	g	n/a
601.649	0.135	1203298	keystroke_s	s	n/a
602.3535	0.135	1204707	keystroke_t	t	n/a
602.9085	0.09	1205817	keystroke_r	r	n/a
603.1185	0.105	1206237	keystroke_Key.space	Key.space	n/a
603.3885	0.135	1206777	keystroke_t	t	n/a
603.5085	0.135	1207017	keystroke_a	a	n/a
603.7335	0.09	1207467	keystroke_r	r	n/a
603.9435	0.09	1207887	keystroke_g	g	n/a
604.1535	0.15	1208307	keystroke_e	e	n/a
604.3485	0.12	1208697	keystroke_t	t	n/a
604.5885	0.09	1209177	keystroke_e	e	n/a
604.7985	0.105	1209597	keystroke_d	d	n/a
604.9785	0.12	1209957	keystroke_Key.space	Key.space	n/a
605.1885	0.18	1210377	keystroke_s	s	n/a
605.3985	0.135	1210797	keystroke_t	t	n/a
606.1335	0.165	1212267	keystroke_a	a	n/a
606.2835	0.12	1212567	keystroke_t	t	n/a
606.5685	0.09	1213137	keystroke_u	u	n/a
607.3935	0.135	1214787	keystroke_e	e	n/a
607.5735	0.105	1215147	keystroke_Key.space	Key.space	n/a
608.264	0.06	1216528	keystroke_Key.backspace	Key.backspace	n/a
608.399	0.135	1216798	keystroke_s	s	n/a
608.564	0.09	1217128	keystroke_Key.space	Key.space	n/a
609.089	0.135	1218178	keystroke_c	c	n/a
609.209	0.09	1218418	keystroke_o	o	n/a
609.404	0.09	1218808	keystroke_m	m	n/a
609.569	0.09	1219138	keystroke_p	p	n/a
609.899	0.09	1219798	keystroke_o	o	n/a
610.274	0.075	1220548	keystroke_n	n	n/a
610.454	0.12	1220908	keystroke_e	e	n/a
610.634	0.075	1221268	keystroke_n	n	n/a
610.799	0.09	1221598	keystroke_t	t	n/a
611.009	0.12	1222018	keystroke_s	s	n/a
611.204	0.09	1222408	keystroke_Key.enter	Key.enter	n/a
611.298	9.4625	1222596	prompt	n/a	understanding thorough intel merit\n
612.419	0.12	1224838	keystroke_u	u	n/a
612.554	0.09	1225108	keystroke_n	n	n/a
612.704	0.09	1225408	keystroke_d	d	n/a
612.914	0.135	1225828	keystroke_e	e	n/a
612.989	0.12	1225978	keystroke_r	r	n/a
613.244	0.15	1226488	keystroke_s	s	n/a
613.454	0.135	1226908	keystroke_t	t	n/a
613.604	0.135	1227208	keystroke_a	a	n/a
613.799	0.075	1227598	keystroke_n	n	n/a
614.009	0.09	1228018	keystroke_d	d	n/a
614.249	0.105	1228498	keystroke_i	i	n/a
614.4585	0.075	1228917	keystroke_n	n	n/a
614.5935	0.105	1229187	keystroke_g	g	n/a
615.0585	0.09	1230117	keystroke_Key.space	Key.space	n/a
615.2985	0.105	1230597	keystroke_t	t	n/a
615.4335	0.09	1230867	keystroke_h	h	n/a
615.6585	0.075	1231317	keystroke_o	o	n/a
616.5885	0.135	1233177	keystroke_r	r	n/a
616.7535	0.09	1233507	keystroke_o	o	n/a
616.9485	0.075	1233897	keystroke_u	u	n/a
617.5485	0.12	1235097	keystroke_g	g	n/a
617.6985	0.09	1235397	keystroke_h	h	n/a
617.9235	0.12	1235847	keystroke_Key.space	Key.space	n/a
618.7335	0.075	1237467	keystroke_i	i	n/a
618.9135	0.075	1237827	keystroke_n	n	n/a
619.0485	0.105	1238097	keystroke_t	t	n/a
619.2135	0.12	1238427	keystroke_e	e	n/a
619.4235	0.09	1238847	keystroke_l	l	n/a
619.6185	0.105	1239237	keystroke_Key.space	Key.space	n/a
619.8285	0.09	1239657	keystroke_m	m	n/a
619.9635	0.165	1239927	keystroke_e	e	n/a
620.0835	0.12	1240167	keystroke_r	r	n/a
620.2635	0.075	1240527	keystroke_i	i	n/a
620.4735	0.12	1240947	keystroke_t	t	n/a
620.6835	0.075	1241367	keystroke_Key.enter	Key.enter	n/a
620.763	9.2975	1241526	prompt	n/a	arena railroad coleman contest\n
621.4635	0.15	1242927	keystroke_a	a	n/a
621.5835	0.18	1243167	keystroke_r	r	n/a
621.7785	0.105	1243557	keystroke_e	e	n/a
621.9735	0.09	1243947	keystroke_n	n	n/a
622.8285	0.15	1245657	keystroke_a	a	n/a
622.9635	0.105	1245927	keystroke_Key.space	Key.space	n/a
623.2035	0.135	1246407	keystroke_r	r	n/a
623.3235	0.12	1246647	keystroke_a	a	n/a
623.5485	0.09	1247097	keystroke_i	i	n/a
623.7885	0.105	1247577	keystroke_l	l	n/a
624.0885	0.105	1248177	keystroke_r	r	n/a
624.2085	0.075	1248417	keystroke_p	p	n/a
624.8235	0.075	1249647	keystroke_Key.backspace	Key.backspace	n/a
625.0335	0.09	1250067	keystroke_o	o	n/a
625.1835	0.135	1250367	keystroke_a	a	n/a
625.5585	0.105	1251117	keystroke_d	d	n/a
625.9785	0.105	1251957	keystroke_Key.space	Key.space	n/a
626.2185	0.15	1252437	keystroke_c	c	n/a
626.3535	0.09	1252707	keystroke_o	o	n/a
626.5935	0.09	1253187	keystroke_l	l	n/a
626.7285	0.135	1253457	keystroke_e	e	n/a
627.689	0.075	1255378	keystroke_m	m	n/a
627.824	0.135	1255648	keystroke_a	a	n/a
627.974	0.09	1255948	keystroke_n	n	n/a
628.154	0.105	1256308	keystroke_Key.space	Key.space	n/a
628.499	0.15	1256998	keystroke_c	c	n/a
628.634	0.09	1257268	keystroke_o	o	n/a
628.799	0.09	1257598	keystroke_n	n	n/a
628.934	0.12	1257868	keystroke_t	t	n/a
629.099	0.135	1258198	keystroke_e	e	n/a
629.459	0.15	1258918	keystroke_s	s	n/a
629.624	0.12	1259248	keystroke_t	t	n/a
629.984	0.075	1259968	keystroke_Key.enter	Key.enter	n/a
630.0665	10.479	1260133	prompt	n/a	anxiety donate dell brass\n
631.124	0.135	1262248	keystroke_a	a	n/a
631.274	0.09	1262548	keystroke_n	n	n/a
631.604	0.12	1263208	keystroke_c	c	n/a
632.519	0.09	1265038	keystroke_i	i	n/a
632.669	0.06	1265338	keystroke_e	e	n/a
633.029	0.06	1266058	keystroke_Key.backspace	Key.backspace	n/a
633.269	0.06	1266538	keystroke_Key.backspace	Key.backspace	n/a
633.584	0.06	1267168	keystroke_Key.backspace	Key.backspace	n/a
634.2135	0.1355	1268427	keystroke_x	x	n/a
634.979	0.075	1269958	keystroke_i	i	n/a
635.069	0.12	1270138	keystroke_e	e	n/a
635.414	0.1045	1270828	keystroke_t	t	n/a
635.8635	0.09	1271727	keystroke_y	y	n/a
636.0435	0.105	1272087	keystroke_Key.space	Key.space	n/a
636.6585	0.135	1273317	keystroke_d	d	n/a
636.7785	0.0755	1273557	keystroke_o	o	n/a
636.959	0.0745	1273918	keystroke_n	n	n/a
637.1085	0.165	1274217	keystroke_a	a	n/a
637.2885	0.12	1274577	keystroke_t	t	n/a
637.5285	0.135	1275057	keystroke_e	e	n/a
637.7235	0.105	1275447	keystroke_Key.space	Key.space	n/a
638.234	0.0895	1276468	keystroke_d	d	n/a
638.429	0.09	1276858	keystroke_e	e	n/a
638.594	0.0895	1277188	keystroke_l	l	n/a
638.789	0.09	1277578	keystroke_l	l	n/a
638.969	0.09	1277938	keystroke_Key.space	Key.space	n/a
639.374	0.09	1278748	keystroke_b	b	n/a
639.509	0.135	1279018	keystroke_r	r	n/a
639.734	0.135	1279468	keystroke_a	a	n/a
640.1095	0.09	1280219	keystroke_s	s	n/a
640.2745	0.15	1280549	keystroke_s	s	n/a
640.4545	0.09	1280909	keystroke_Key.enter	Key.enter	n/a
640.5485	12.0875	1281097	prompt	n/a	firewire portable terrorist evaluate\n
641.489	0.105	1282978	keystroke_f	f	n/a
641.609	0.09	1283218	keystroke_i	i	n/a
641.759	0.135	1283518	keystroke_r	r	n/a
641.879	0.15	1283758	keystroke_e	e	n/a
642.464	0.135	1284928	keystroke_w	w	n/a
642.584	0.09	1285168	keystroke_i	i	n/a
642.824	0.12	1285648	keystroke_r	r	n/a
642.914	0.15	1285828	keystroke_e	e	n/a
643.094	0.12	1286188	keystroke_Key.space	Key.space	n/a
643.649	0.12	1287298	keystroke_p	p	n/a
643.814	0.12	1287628	keystroke_o	o	n/a
645.854	0.075	1291708	keystroke_r	r	n/a
646.049	0.12	1292098	keystroke_t	t	n/a
646.184	0.135	1292368	keystroke_a	a	n/a
647.294	0.105	1294588	keystroke_b	b	n/a
647.474	0.12	1294948	keystroke_l	l	n/a
647.654	0.15	1295308	keystroke_e	e	n/a
647.864	0.105	1295728	keystroke_Key.space	Key.space	n/a
648.254	0.12	1296508	keystroke_t	t	n/a
648.389	0.18	1296778	keystroke_e	e	n/a
648.734	0.09	1297468	keystroke_r	r	n/a
648.899	0.15	1297798	keystroke_r	r	n/a
649.094	0.105	1298188	keystroke_o	o	n/a
649.304	0.135	1298608	keystroke_r	r	n/a
649.6045	0.0895	1299209	keystroke_i	i	n/a
649.844	0.12	1299688	keystroke_s	s	n/a
650.114	0.135	1300228	keystroke_t	t	n/a
650.414	0.09	1300828	keystroke_Key.space	Key.space	n/a
650.654	0.12	1301308	keystroke_e	e	n/a
650.909	0.12	1301818	keystroke_v	v	n/a
651.089	0.165	1302178	keystroke_a	a	n/a
651.344	0.12	1302688	keystroke_l	l	n/a
651.584	0.105	1303168	keystroke_u	u	n/a
651.809	0.135	1303618	keystroke_a	a	n/a
651.989	0.135	1303978	keystroke_t	t	n/a
652.274	0.165	1304548	keystroke_e	e	n/a
652.529	0.105	1305058	keystroke_Key.enter	Key.enter	n/a
652.639	11.337	1305278	prompt	n/a	worlds assumes unless troubleshooting\n
653.654	0.1495	1307308	keystroke_w	w	n/a
653.7745	0.104	1307549	keystroke_o	o	n/a
653.954	0.105	1307908	keystroke_r	r	n/a
654.119	0.045	1308238	keystroke_k	k	n/a
655.3035	0.045	1310607	keystroke_Key.backspace	Key.backspace	n/a
655.6035	0.075	1311207	keystroke_l	l	n/a
655.7085	0.136	1311417	keystroke_d	d	n/a
655.8895	0.179	1311779	keystroke_s	s	n/a
656.0835	0.135	1312167	keystroke_Key.space	Key.space	n/a
656.804	0.105	1313608	keystroke_a	a	n/a
657.194	0.075	1314388	keystroke_s	s	n/a
657.374	0.12	1314748	keystroke_s	s	n/a
657.569	0.09	1315138	keystroke_u	u	n/a
658.334	0.075	1316668	keystroke_m	m	n/a
658.454	0.195	1316908	keystroke_e	e	n/a
658.634	0.15	1317268	keystroke_s	s	n/a
658.814	0.105	1317628	keystroke_Key.space	Key.space	n/a
659.114	0.075	1318228	keystroke_u	u	n/a
659.294	0.09	1318588	keystroke_n	n	n/a
659.579	0.135	1319158	keystroke_l	l	n/a
659.729	0.165	1319458	keystroke_e	e	n/a
660.089	0.075	1320178	keystroke_s	s	n/a
660.254	0.12	1320508	keystroke_s	s	n/a
660.389	0.12	1320778	keystroke_Key.space	Key.space	n/a
660.659	0.12	1321318	keystroke_t	t	n/a
660.749	0.15	1321498	keystroke_r	r	n/a
660.959	0.135	1321918	keystroke_o	o	n/a
661.199	0.09	1322398	keystroke_u	u	n/a
661.484	0.09	1322968	keystroke_b	b	n/a
661.679	0.105	1323358	keystroke_l	l	n/a
661.844	0.12	1323688	keystroke_e	e	n/a
662.399	0.135	1324798	keystroke_s	s	n/a
662.549	0.075	1325098	keystroke_h	h	n/a
662.759	0.06	1325518	keystroke_o	o	n/a
662.939	0.09	1325878	keystroke_o	o	n/a
663.119	0.105	1326238	keystroke_t	t	n/a
663.359	0.09	1326718	keystroke_i	i	n/a
663.569	0.09	1327138	keystroke_n	n	n/a
663.704	0.105	1327408	keystroke_g	g	n/a
663.899	0.075	1327798	keystroke_Key.enter	Key.enter	n/a
663.9795	10.781	1327959	prompt	n/a	independently flavor timeline patio\n
664.7235	0.091	1329447	keystroke_i	i	n/a
664.8895	0.105	1329779	keystroke_n	n	n/a
665.2185	0.135	1330437	keystroke_d	d	n/a
665.4285	0.12	1330857	keystroke_e	e	n/a
665.699	0.1345	1331398	keystroke_p	p	n/a
665.8935	0.121	1331787	keystroke_e	e	n/a
666.0435	0.09	1332087	keystroke_n	n	n/a
666.6735	0.105	1333347	keystroke_d	d	n/a
666.8995	0.104	1333799	keystroke_e	e	n/a
667.0935	0.0905	1334187	keystroke_n	n	n/a
667.2445	0.089	1334489	keystroke_t	t	n/a
667.4085	0.136	1334817	keystroke_l	l	n/a
667.6785	0.03	1335357	keystroke_u	u	n/a
667.6935	0.046	1335387	keystroke_y	y	n/a
668.4435	0.075	1336887	keystroke_Key.backspace	Key.backspace	n/a
668.6985	0.075	1337397	keystroke_Key.backspace	Key.backspace	n/a
669.1195	0.0895	1338239	keystroke_y	y	n/a
669.2835	0.12	1338567	keystroke_Key.space	Key.space	n/a
669.9435	0.135	1339887	keystroke_f	f	n/a
670.0795	0.104	1340159	keystroke_l	l	n/a
670.2445	0.149	1340489	keystroke_a	a	n/a
670.6335	0.15	1341267	keystroke_v	v	n/a
670.7985	0.09	1341597	keystroke_o	o	n/a
670.979	0.1195	1341958	keystroke_r	r	n/a
671.1285	0.105	1342257	keystroke_Key.space	Key.space	n/a
671.654	0.135	1343308	keystroke_t	t	n/a
671.8045	0.0895	1343609	keystroke_i	i	n/a
671.999	0.12	1343998	keystroke_m	m	n/a
672.164	0.135	1344328	keystroke_e	e	n/a
672.539	0.105	1345078	keystroke_l	l	n/a
672.719	0.1055	1345438	keystroke_i	i	n/a
672.929	0.0905	1345858	keystroke_n	n	n/a
673.0795	0.12	1346159	keystroke_e	e	n/a
673.2295	0.105	1346459	keystroke_Key.space	Key.space	n/a
673.5895	0.12	1347179	keystroke_p	p	n/a
673.7245	0.165	1347449	keystroke_a	a	n/a
673.9495	0.12	1347899	keystroke_t	t	n/a
674.1295	0.06	1348259	keystroke_i	i	n/a
674.3095	0.075	1348619	keystroke_o	o	n/a
674.6845	0.075	1349369	keystroke_Key.enter	Key.enter	n/a
674.763	7.678	1349526	prompt	n/a	handy spring casino digest\n
675.9745	0.09	1351949	keystroke_h	h	n/a
676.0945	0.15	1352189	keystroke_a	a	n/a
676.2445	0.105	1352489	keystroke_n	n	n/a
676.3795	0.135	1352759	keystroke_d	d	n/a
676.5595	0.105	1353119	keystroke_y	y	n/a
676.7995	0.105	1353599	keystroke_Key.space	Key.space	n/a
677.2195	0.15	1354439	keystroke_s	s	n/a
677.3245	0.135	1354649	keystroke_p	p	n/a
677.5045	0.1345	1355009	keystroke_r	r	n/a
677.669	0.105	1355338	keystroke_i	i	n/a
677.879	0.09	1355758	keystroke_n	n	n/a
678.014	0.12	1356028	keystroke_g	g	n/a
678.179	0.105	1356358	keystroke_Key.space	Key.space	n/a
678.374	0.165	1356748	keystroke_c	c	n/a
678.509	0.15	1357018	keystroke_a	a	n/a
678.719	0.18	1357438	keystroke_s	s	n/a
678.914	0.105	1357828	keystroke_i	i	n/a
679.109	0.075	1358218	keystroke_n	n	n/a
679.664	0.06	1359328	keystroke_o	o	n/a
680.5645	0.105	1361129	keystroke_Key.space	Key.space	n/a
681.2845	0.12	1362569	keystroke_d	d	n/a
681.4195	0.075	1362839	keystroke_i	i	n/a
681.6295	0.105	1363259	keystroke_g	g	n/a
681.8245	0.105	1363649	keystroke_e	e	n/a
681.9895	0.15	1363979	keystroke_s	s	n/a
682.1995	0.105	1364399	keystroke_t	t	n/a
682.3645	0.075	1364729	keystroke_Key.enter	Key.enter	n/a
682.4435	7.1525	1364887	prompt	n/a	delays tolerance floors kill\n
683.5345	0.105	1367069	keystroke_d	d	n/a
683.7145	0.105	1367429	keystroke_e	e	n/a
683.8495	0.105	1367699	keystroke_l	l	n/a
684.0445	0.15	1368089	keystroke_a	a	n/a
684.5095	0.105	1369019	keystroke_y	y	n/a
684.6895	0.15	1369379	keystroke_s	s	n/a
684.8395	0.105	1369679	keystroke_Key.space	Key.space	n/a
685.0795	0.135	1370159	keystroke_t	t	n/a
685.1995	0.105	1370399	keystroke_o	o	n/a
685.5295	0.015	1371059	keystroke_l	l	n/a
685.6495	0.12	1371299	keystroke_e	e	n/a
686.0395	0.09	1372079	keystroke_r	r	n/a
686.1745	0.18	1372349	keystroke_a	a	n/a
686.3995	0.075	1372799	keystroke_n	n	n/a
686.6095	0.135	1373219	keystroke_c	c	n/a
686.7745	0.12	1373549	keystroke_e	e	n/a
686.9095	0.105	1373819	keystroke_Key.space	Key.space	n/a
687.1795	0.15	1374359	keystroke_f	f	n/a
687.3745	0.09	1374749	keystroke_l	l	n/a
687.5995	0.06	1375199	keystroke_o	o	n/a
687.7645	0.09	1375529	keystroke_o	o	n/a
687.9285	0.1205	1375857	keystroke_r	r	n/a
688.154	0.135	1376308	keystroke_s	s	n/a
688.319	0.12	1376638	keystroke_Key.space	Key.space	n/a
688.604	0.06	1377208	keystroke_k	k	n/a
688.784	0.075	1377568	keystroke_i	i	n/a
689.009	0.09	1378018	keystroke_l	l	n/a
689.234	0.045	1378468	keystroke_l	l	n/a
689.519	0.075	1379038	keystroke_Key.enter	Key.enter	n/a
689.5985	9.4775	1379197	prompt	n/a	uruguay opposite pest blend\n
690.7195	0.075	1381439	keystroke_u	u	n/a
690.8845	0.075	1381769	keystroke_r	r	n/a
691.0645	0.075	1382129	keystroke_u	u	n/a
692.219	0.135	1384438	keystroke_g	g	n/a
692.369	0.015	1384738	keystroke_u	u	n/a
692.429	0.165	1384858	keystroke_a	a	n/a
692.834	0.075	1385668	keystroke_y	y	n/a
693.029	0.105	1386058	keystroke_Key.space	Key.space	n/a
693.5845	0.06	1387169	keystroke_o	o	n/a
693.7795	0.045	1387559	keystroke_p	p	n/a
693.944	0.06	1387888	keystroke_p	p	n/a
694.154	0.075	1388308	keystroke_o	o	n/a
694.349	0.135	1388698	keystroke_s	s	n/a
694.739	0.075	1389478	keystroke_i	i	n/a
694.934	0.1205	1389868	keystroke_t	t	n/a
695.159	0.12	1390318	keystroke_e	e	n/a
695.3245	0.0895	1390649	keystroke_Key.space	Key.space	n/a
695.6095	0.105	1391219	keystroke_p	p	n/a
695.7745	0.18	1391549	keystroke_e	e	n/a
695.9395	0.06	1391879	keystroke_r	r	n/a
696.5695	0.06	1393139	keystroke_Key.backspace	Key.backspace	n/a
696.7045	0.12	1393409	keystroke_s	s	n/a
696.9295	0.105	1393859	keystroke_t	t	n/a
697.1395	0.09	1394279	keystroke_Key.space	Key.space	n/a
697.7995	0.075	1395599	keystroke_b	b	n/a
697.9795	0.105	1395959	keystroke_l	l	n/a
698.1745	0.135	1396349	keystroke_e	e	n/a
698.3995	0.06	1396799	keystroke_n	n	n/a
698.5195	0.15	1397039	keystroke_d	d	n/a
698.9995	0.075	1397999	keystroke_Key.enter	Key.enter	n/a
699.079	10.092	1398158	prompt	n/a	electronic alerts pushing crack\n
699.8995	0.105	1399799	keystroke_e	e	n/a
700.0645	0.09	1400129	keystroke_l	l	n/a
700.2295	0.105	1400459	keystroke_e	e	n/a
700.4695	0.105	1400939	keystroke_c	c	n/a
700.7245	0.105	1401449	keystroke_t	t	n/a
700.8595	0.09	1401719	keystroke_r	r	n/a
701.2945	0.075	1402589	keystroke_o	o	n/a
701.4895	0.075	1402979	keystroke_n	n	n/a
701.6695	0.06	1403339	keystroke_s	s	n/a
702.2695	0.045	1404539	keystroke_Key.backspace	Key.backspace	n/a
702.3745	0.075	1404749	keystroke_i	i	n/a
703.2595	0.15	1406519	keystroke_c	c	n/a
703.4545	0.105	1406909	keystroke_Key.space	Key.space	n/a
704.1295	0.135	1408259	keystroke_a	a	n/a
704.2795	0.105	1408559	keystroke_l	l	n/a
704.4595	0.18	1408919	keystroke_e	e	n/a
704.5795	0.12	1409159	keystroke_r	r	n/a
704.9545	0.12	1409909	keystroke_t	t	n/a
705.2245	0.12	1410449	keystroke_s	s	n/a
705.4645	0.105	1410929	keystroke_Key.space	Key.space	n/a
705.8695	0.105	1411739	keystroke_p	p	n/a
706.0795	0.075	1412159	keystroke_u	u	n/a
706.2145	0.15	1412429	keystroke_s	s	n/a
706.4245	0.0895	1412849	keystroke_h	h	n/a
706.635	0.089	1413270	keystroke_i	i	n/a
706.844	0.091	1413688	keystroke_n	n	n/a
706.995	0.104	1413990	keystroke_g	g	n/a
707.189	0.09	1414378	keystroke_Key.space	Key.space	n/a
707.504	0.12	1415008	keystroke_c	c	n/a
707.715	0.15	1415430	keystroke_r	r	n/a
707.849	0.12	1415698	keystroke_a	a	n/a
708.135	0.12	1416270	keystroke_c	c	n/a
708.36	0.09	1416720	keystroke_k	k	n/a
708.584	0.09	1417168	keystroke_Key.space	Key.space	n/a
709.094	0.075	1418188	keystroke_Key.enter	Key.enter	n/a
709.173	11.563	1418346	prompt	n/a	primary flashers julia properly\n
709.89	0.105	1419780	keystroke_p	p	n/a
710.04	0.09	1420080	keystroke_r	r	n/a
710.834	0.06	1421668	keystroke_i	i	n/a
711	0.104	1422000	keystroke_m	m	n/a
711.105	0.164	1422210	keystroke_a	a	n/a
711.24	0.119	1422480	keystroke_r	r	n/a
712.379	0.06	1424758	keystroke_y	y	n/a
712.544	0.135	1425088	keystroke_Key.space	Key.space	n/a
713.264	0.135	1426528	keystroke_f	f	n/a
713.414	0.09	1426828	keystroke_l	l	n/a
713.534	0.1505	1427068	keystroke_a	a	n/a
713.8045	0.135	1427609	keystroke_s	s	n/a
714.0295	0.09	1428059	keystroke_h	h	n/a
714.1945	0.21	1428389	keystroke_e	e	n/a
714.3295	0.135	1428659	keystroke_r	r	n/a
714.5845	0.15	1429169	keystroke_s	s	n/a
714.7495	0.105	1429499	keystroke_Key.space	Key.space	n/a
715.0645	0.09	1430129	keystroke_j	j	n/a
715.2445	0.09	1430489	keystroke_u	u	n/a
715.4395	0.12	1430879	keystroke_l	l	n/a
716.1145	0.045	1432229	keystroke_i	i	n/a
716.2495	0.15	1432499	keystroke_s	s	n/a
716.4445	0.105	1432889	keystroke_Key.space	Key.space	n/a
717.3745	0.06	1434749	keystroke_Key.backspace	Key.backspace	n/a
717.5395	0.075	1435079	keystroke_Key.backspace	Key.backspace	n/a
717.6595	0.135	1435319	keystroke_a	a	n/a
717.8095	0.12	1435619	keystroke_Key.space	Key.space	n/a
718.0795	0.12	1436159	keystroke_p	p	n/a
718.2745	0.12	1436549	keystroke_r	r	n/a
719.4595	0.075	1438919	keystroke_o	o	n/a
719.6395	0.09	1439279	keystroke_p	p	n/a
719.7745	0.18	1439549	keystroke_e	e	n/a
719.8945	0.12	1439789	keystroke_r	r	n/a
720.1045	0.15	1440209	keystroke_l	l	n/a
720.3895	0.075	1440779	keystroke_y	y	n/a
720.6445	0.09	1441289	keystroke_Key.enter	Key.enter	n/a
720.738	16.828	1441476	prompt	n/a	waters photographs strategy reactions\n
721.575	0.15	1443150	keystroke_w	w	n/a
721.68	0.165	1443360	keystroke_a	a	n/a
721.874	0.166	1443748	keystroke_t	t	n/a
722.085	0.195	1444170	keystroke_e	e	n/a
722.22	0.12	1444440	keystroke_r	r	n/a
722.415	0.135	1444830	keystroke_s	s	n/a
722.61	0.12	1445220	keystroke_Key.space	Key.space	n/a
722.835	0.104	1445670	keystroke_p	p	n/a
723.105	0.075	1446210	keystroke_h	h	n/a
723.3	0.09	1446600	keystroke_o	o	n/a
723.495	0.09	1446990	keystroke_t	t	n/a
724.485	0.075	1448970	keystroke_o	o	n/a
724.59	0.12	1449180	keystroke_g	g	n/a
724.89	0.134	1449780	keystroke_r	r	n/a
724.905	0.105	1449810	keystroke_e	e	n/a
725.054	0.1805	1450108	keystroke_a	a	n/a
725.5645	0.075	1451129	keystroke_Key.backspace	Key.backspace	n/a
725.7895	0.09	1451579	keystroke_Key.backspace	Key.backspace	n/a
725.9245	0.165	1451849	keystroke_a	a	n/a
726.7345	0.12	1453469	keystroke_p	p	n/a
726.9445	0.075	1453889	keystroke_h	h	n/a
727.0795	0.18	1454159	keystroke_e	e	n/a
727.2295	0.105	1454459	keystroke_r	r	n/a
727.4395	0.15	1454879	keystroke_s	s	n/a
727.6045	0.105	1455209	keystroke_Key.space	Key.space	n/a
728.0395	0.15	1456079	keystroke_s	s	n/a
728.2495	0.15	1456499	keystroke_t	t	n/a
728.4595	0.135	1456919	keystroke_r	r	n/a
728.6095	0.15	1457219	keystroke_a	a	n/a
728.9095	0.105	1457819	keystroke_g	g	n/a
729.704	0.06	1459408	keystroke_Key.backspace	Key.backspace	n/a
729.839	0.09	1459678	keystroke_t	t	n/a
730.049	0.135	1460098	keystroke_e	e	n/a
730.289	0.12	1460578	keystroke_r	r	n/a
730.604	0.105	1461208	keystroke_g	g	n/a
730.994	0.105	1461988	keystroke_y	y	n/a
731.324	0.09	1462648	keystroke_Key.space	Key.space	n/a
732.7195	0.015	1465439	keystroke_Key.backspace	Key.backspace	n/a
732.8995	0.06	1465799	keystroke_Key.backspace	Key.backspace	n/a
733.0945	0.075	1466189	keystroke_Key.backspace	Key.backspace	n/a
733.8895	0.075	1467779	keystroke_Key.backspace	Key.backspace	n/a
734.3545	0.105	1468709	keystroke_g	g	n/a
734.4745	0.09	1468949	keystroke_y	y	n/a
734.6545	0.1195	1469309	keystroke_Key.space	Key.space	n/a
735.809	0.12	1471618	keystroke_r	r	n/a
735.899	0.165	1471798	keystroke_e	e	n/a
736.034	0.15	1472068	keystroke_a	a	n/a
736.289	0.105	1472578	keystroke_c	c	n/a
