onset	duration	sample	value	key	prompt_text
7.6235	23.703	15247	prompt	n/a	the quick brown fox jumps over a lazy dog\n
10.973	0.012	21946	keystroke_t	t	n/a
11.06	0.091	22120	keystroke_h	h	n/a
11.42	0.06	22840	keystroke_e	e	n/a
13.37	0.075	26740	keystroke_1	1	n/a
14.735	0.0745	29470	keystroke_Key.backspace	Key.backspace	n/a
17.6465	0.001	35293	keystroke_q	q	n/a
17.9285	0.0745	35857	keystroke_u	u	n/a
18.679	0.06	37358	keystroke_=	=	n/a
19.054	0.12	38108	keystroke_Key.backspace	Key.backspace	n/a
19.249	0.09	38498	keystroke_Key.backspace	Key.backspace	n/a
19.429	0.09	38858	keystroke_Key.backspace	Key.backspace	n/a
20.2535	0.09	40507	keystroke_Key.space	Key.space	n/a
20.4935	0.09	40987	keystroke_q	q	n/a
20.6585	0.0755	41317	keystroke_u	u	n/a
20.8385	0.075	41677	keystroke_i	i	n/a
21.1835	0.09	42367	keystroke_c	c	n/a
21.3185	0.12	42637	keystroke_k	k	n/a
21.4535	0.09	42907	keystroke_Key.space	Key.space	n/a
22.1585	0.091	44317	keystroke_b	b	n/a
22.653	0.1055	45306	keystroke_r	r	n/a
22.953	0.09	45906	keystroke_o	o	n/a
23.073	0.09	46146	keystroke_w	w	n/a
23.3735	0.0895	46747	keystroke_n	n	n/a
23.508	0.105	47016	keystroke_Key.space	Key.space	n/a
25.986	0.013	51972	keystroke_f	f	n/a
26.073	0.0895	52146	keystroke_o	o	n/a
26.253	0.09	52506	keystroke_x	x	n/a
26.3725	0.105	52745	keystroke_Key.space	Key.space	n/a
26.6735	0.0895	53347	keystroke_j	j	n/a
26.8825	0.075	53765	keystroke_u	u	n/a
27.1085	0.119	54217	keystroke_m	m	n/a
27.273	0.1045	54546	keystroke_p	p	n/a
27.4075	0.075	54815	keystroke_e	e	n/a
27.5885	0.074	55177	keystroke_d	d	n/a
27.6635	0.1045	55327	keystroke_Key.space	Key.space	n/a
27.799	0.104	55598	keystroke_o	o	n/a
27.993	0.06	55986	keystroke_v	v	n/a
28.1575	0.1205	56315	keystroke_e	e	n/a
28.2025	0.0915	56405	keystroke_r	r	n/a
28.368	0.1045	56736	keystroke_Key.space	Key.space	n/a
28.5025	0.09	57005	keystroke_a	a	n/a
28.6375	0.105	57275	keystroke_Key.space	Key.space	n/a
28.938	0.0895	57876	keystroke_l	l	n/a
29.2525	0.0905	58505	keystroke_a	a	n/a
29.5225	0.105	59045	keystroke_z	z	n/a
29.793	0.12	59586	keystroke_y	y	n/a
29.868	0.12	59736	keystroke_Key.space	Key.space	n/a
30.063	0.0895	60126	keystroke_d	d	n/a
30.1375	0.106	60275	keystroke_o	o	n/a
30.6035	0.045	61207	keystroke_g	g	n/a
31.2175	0.105	62435	keystroke_Key.enter	Key.enter	n/a
31.3335	8.587	62667	prompt	n/a	scuba referenced fishing assistance\n
32.2235	0.0755	64447	keystroke_s	s	n/a
32.479	0.0745	64958	keystroke_c	c	n/a
32.5825	0.091	65165	keystroke_u	u	n/a
32.8525	0.076	65705	keystroke_b	b	n/a
33.0635	0.089	66127	keystroke_a	a	n/a
33.2885	0.089	66577	keystroke_Key.space	Key.space	n/a
33.8435	0.074	67687	keystroke_r	r	n/a
33.9485	0.089	67897	keystroke_e	e	n/a
34.2025	0.09	68405	keystroke_f	f	n/a
34.4275	0.121	68855	keystroke_e	e	n/a
34.7285	0.059	69457	keystroke_r	r	n/a
34.9985	0.074	69997	keystroke_e	e	n/a
35.1485	0.104	70297	keystroke_n	n	n/a
35.3885	0.0735	70777	keystroke_c	c	n/a
35.582	0.075	71164	keystroke_e	e	n/a
36.167	0.076	72334	keystroke_d	d	n/a
36.287	0.0905	72574	keystroke_Key.space	Key.space	n/a
36.527	0.06	73054	keystroke_f	f	n/a
36.648	0.09	73296	keystroke_i	i	n/a
36.797	0.09	73594	keystroke_s	s	n/a
36.917	0.091	73834	keystroke_h	h	n/a
37.067	0.09	74134	keystroke_i	i	n/a
37.262	0.09	74524	keystroke_n	n	n/a
37.398	0.09	74796	keystroke_g	g	n/a
37.502	0.12	75004	keystroke_Key.space	Key.space	n/a
37.683	0.089	75366	keystroke_a	a	n/a
37.908	0.06	75816	keystroke_s	s	n/a
38.058	0.075	76116	keystroke_s	s	n/a
38.147	0.076	76294	keystroke_i	i	n/a
38.238	0.165	76476	keystroke_s	s	n/a
38.387	0.09	76774	keystroke_t	t	n/a
38.778	0.09	77556	keystroke_a	a	n/a
38.973	0.075	77946	keystroke_n	n	n/a
39.333	0.0595	78666	keystroke_c	c	n/a
39.588	0.044	79176	keystroke_e	e	n/a
39.8435	0.074	79687	keystroke_Key.enter	Key.enter	n/a
39.9255	10.2845	79851	prompt	n/a	encryption they're banners entities\n
40.788	0.0745	81576	keystroke_e	e	n/a
41.0135	0.0895	82027	keystroke_c	c	n/a
42.272	0.105	84544	keystroke_Key.backspace	Key.backspace	n/a
42.573	0.075	85146	keystroke_n	n	n/a
42.723	0.105	85446	keystroke_c	c	n/a
42.948	0.074	85896	keystroke_r	r	n/a
43.188	0.09	86376	keystroke_y	y	n/a
43.398	0.089	86796	keystroke_p	p	n/a
43.698	0.044	87396	keystroke_t	t	n/a
43.863	0.225	87726	keystroke_i	i	n/a
43.938	0.194	87876	keystroke_o	o	n/a
44.057	0.135	88114	keystroke_n	n	n/a
44.162	0.1495	88324	keystroke_Key.space	Key.space	n/a
44.4765	0.075	88953	keystroke_t	t	n/a
44.5965	0.121	89193	keystroke_h	h	n/a
44.7325	0.075	89465	keystroke_e	e	n/a
44.9275	0.12	89855	keystroke_y	y	n/a
46.0075	0.075	92015	keystroke_'	'	n/a
46.0675	0.074	92135	keystroke_r	r	n/a
46.1275	0.075	92255	keystroke_e	e	n/a
46.3675	0.0755	92735	keystroke_Key.space	Key.space	n/a
46.953	0.09	93906	keystroke_b	b	n/a
47.057	0.121	94114	keystroke_a	a	n/a
47.342	0.075	94684	keystroke_n	n	n/a
47.478	0.09	94956	keystroke_n	n	n/a
47.7475	0.1205	95495	keystroke_e	e	n/a
47.8075	0.0905	95615	keystroke_r	r	n/a
48.048	0.09	96096	keystroke_s	s	n/a
48.182	0.09	96364	keystroke_Key.space	Key.space	n/a
48.378	0.075	96756	keystroke_e	e	n/a
48.528	0.1195	97056	keystroke_n	n	n/a
48.6775	0.075	97355	keystroke_t	t	n/a
48.8425	0.0895	97685	keystroke_i	i	n/a
49.023	0.06	98046	keystroke_t	t	n/a
49.098	0.09	98196	keystroke_i	i	n/a
49.2325	0.075	98465	keystroke_e	e	n/a
49.4575	0.075	98915	keystroke_s	s	n/a
50.1025	0.105	100205	keystroke_Key.enter	Key.enter	n/a
50.215	11.68	100430	prompt	n/a	oecd continues assists marvel\n
51.1515	0.076	102303	keystroke_e	e	n/a
52.2925	0.075	104585	keystroke_Key.backspace	Key.backspace	n/a
52.8625	0.09	105725	keystroke_o	o	n/a
53.0125	0.075	106025	keystroke_e	e	n/a
53.2525	0.105	106505	keystroke_c	c	n/a
53.5975	0.09	107195	keystroke_d	d	n/a
53.8515	0.0915	107703	keystroke_Key.space	Key.space	n/a
54.1825	0.09	108365	keystroke_c	c	n/a
54.6475	0.09	109295	keystroke_o	o	n/a
54.8575	0.09	109715	keystroke_n	n	n/a
55.0675	0.09	110135	keystroke_t	t	n/a
55.2625	0.075	110525	keystroke_i	i	n/a
55.4125	0.09	110825	keystroke_n	n	n/a
55.6675	0.06	111335	keystroke_u	u	n/a
55.7575	0.09	111515	keystroke_e	e	n/a
55.9825	0.075	111965	keystroke_s	s	n/a
56.1325	0.09	112265	keystroke_Key.space	Key.space	n/a
56.4925	0.03	112985	keystroke_t	t	n/a
57.1825	0.09	114365	keystroke_Key.backspace	Key.backspace	n/a
57.6325	0.06	115265	keystroke_a	a	n/a
57.8425	0.0595	115685	keystroke_s	s	n/a
57.977	0.0905	115954	keystroke_s	s	n/a
58.2175	0.06	116435	keystroke_i	i	n/a
58.2925	0.12	116585	keystroke_s	s	n/a
58.5025	0.12	117005	keystroke_t	t	n/a
58.6525	0.09	117305	keystroke_a	a	n/a
59.3425	0.09	118685	keystroke_Key.backspace	Key.backspace	n/a
59.5075	0.09	119015	keystroke_s	s	n/a
60.167	0.09	120334	keystroke_Key.space	Key.space	n/a
60.437	0.09	120874	keystroke_m	m	n/a
60.542	0.135	121084	keystroke_a	a	n/a
60.692	0.135	121384	keystroke_r	r	n/a
61.067	0.075	122134	keystroke_v	v	n/a
61.247	0.06	122494	keystroke_e	e	n/a
61.502	0.09	123004	keystroke_l	l	n/a
61.817	0.075	123634	keystroke_Key.enter	Key.enter	n/a
61.902	13.493	123804	prompt	n/a	mechanisms managers they'd cover\n
65.81	0.072	131620	keystroke_m	m	n/a
65.867	0.09	131734	keystroke_e	e	n/a
66.182	0.075	132364	keystroke_c	c	n/a
66.392	0.09	132784	keystroke_h	h	n/a
66.902	0.045	133804	keystroke_a	a	n/a
67.187	0.105	134374	keystroke_n	n	n/a
67.442	0.075	134884	keystroke_i	i	n/a
67.592	0.075	135184	keystroke_s	s	n/a
67.802	0.09	135604	keystroke_m	m	n/a
68.027	0.09	136054	keystroke_s	s	n/a
68.222	0.09	136444	keystroke_Key.space	Key.space	n/a
68.507	0.105	137014	keystroke_m	m	n/a
68.597	0.075	137194	keystroke_a	a	n/a
68.747	0.075	137494	keystroke_n	n	n/a
68.807	0.105	137614	keystroke_a	a	n/a
69.047	0.09	138094	keystroke_g	g	n/a
69.227	0.135	138454	keystroke_e	e	n/a
69.302	0.12	138604	keystroke_r	r	n/a
69.497	0.105	138994	keystroke_s	s	n/a
69.662	0.09	139324	keystroke_Key.space	Key.space	n/a
69.947	0.09	139894	keystroke_t	t	n/a
70.082	0.12	140164	keystroke_h	h	n/a
70.217	0.075	140434	keystroke_e	e	n/a
70.337	0.09	140674	keystroke_y	y	n/a
71.462	0.09	142924	keystroke_'	'	n/a
71.507	0.075	143014	keystroke_s	s	n/a
71.792	0.105	143584	keystroke_Key.space	Key.space	n/a
71.987	0.09	143974	keystroke_c	c	n/a
72.107	0.06	144214	keystroke_o	o	n/a
72.947	0.06	145894	keystroke_Key.backspace	Key.backspace	n/a
73.082	0.09	146164	keystroke_Key.backspace	Key.backspace	n/a
73.277	0.075	146554	keystroke_Key.backspace	Key.backspace	n/a
73.472	0.06	146944	keystroke_Key.backspace	Key.backspace	n/a
73.607	0.09	147214	keystroke_d	d	n/a
73.832	0.06	147664	keystroke_Key.space	Key.space	n/a
74.267	0.075	148534	keystroke_c	c	n/a
74.372	0.105	148744	keystroke_o	o	n/a
74.537	0.075	149074	keystroke_v	v	n/a
74.717	0.075	149434	keystroke_e	e	n/a
74.747	0.075	149494	keystroke_r	r	n/a
75.302	0.09	150604	keystroke_Key.enter	Key.enter	n/a
75.403	9.056	150806	prompt	n/a	rest echo something hazards\n
76.637	0.105	153274	keystroke_r	r	n/a
76.727	0.075	153454	keystroke_e	e	n/a
76.907	0.135	153814	keystroke_s	s	n/a
76.997	0.105	153994	keystroke_t	t	n/a
77.132	0.09	154264	keystroke_Key.space	Key.space	n/a
77.282	0.075	154564	keystroke_e	e	n/a
77.507	0.075	155014	keystroke_c	c	n/a
77.612	0.09	155224	keystroke_h	h	n/a
77.762	0.09	155524	keystroke_o	o	n/a
77.897	0.105	155794	keystroke_Key.space	Key.space	n/a
78.212	0.075	156424	keystroke_s	s	n/a
78.527	0.09	157054	keystroke_o	o	n/a
78.722	0.075	157444	keystroke_m	m	n/a
78.872	0.075	157744	keystroke_e	e	n/a
79.217	0.075	158434	keystroke_t	t	n/a
79.397	0.09	158794	keystroke_h	h	n/a
79.532	0.12	159064	keystroke_i	i	n/a
79.682	0.135	159364	keystroke_n	n	n/a
79.832	0.075	159664	keystroke_g	g	n/a
79.922	0.105	159844	keystroke_Key.space	Key.space	n/a
80.132	0.075	160264	keystroke_h	h	n/a
80.193	0.089	160386	keystroke_a	a	n/a
80.447	0.105	160894	keystroke_z	z	n/a
80.657	0.075	161314	keystroke_a	a	n/a
80.867	0.06	161734	keystroke_r	r	n/a
81.137	0.075	162274	keystroke_d	d	n/a
81.527	0.075	163054	keystroke_s	s	n/a
84.455	0	168910	keystroke_Key.enter	Key.enter	n/a
84.464	11.271	168928	prompt	n/a	fifth acute accused emerging\n
85.622	0.075	171244	keystroke_f	f	n/a
85.683	0.134	171366	keystroke_i	i	n/a
86.012	0.075	172024	keystroke_t	t	n/a
86.118	0.135	172236	keystroke_h	h	n/a
86.222	0.12	172444	keystroke_Key.space	Key.space	n/a
86.462	0.09	172924	keystroke_a	a	n/a
86.732	0.075	173464	keystroke_c	c	n/a
87.377	0.075	174754	keystroke_Key.backspace	Key.backspace	n/a
87.737	0.09	175474	keystroke_\	\	n/a
87.947	0.09	175894	keystroke_\	\	n/a
88.202	0.105	176404	keystroke_Key.backspace	Key.backspace	n/a
88.397	0.105	176794	keystroke_Key.backspace	Key.backspace	n/a
88.577	0.135	177154	keystroke_Key.backspace	Key.backspace	n/a
88.757	0.105	177514	keystroke_Key.backspace	Key.backspace	n/a
88.967	0.09	177934	keystroke_Key.backspace	Key.backspace	n/a
89.162	0.09	178324	keystroke_Key.backspace	Key.backspace	n/a
89.493	0.089	178986	keystroke_f	f	n/a
89.837	0.105	179674	keystroke_t	t	n/a
90.047	0.12	180094	keystroke_h	h	n/a
90.137	0.135	180274	keystroke_Key.space	Key.space	n/a
91.097	0.075	182194	keystroke_a	a	n/a
91.307	0.121	182614	keystroke_c	c	n/a
91.532	0.105	183064	keystroke_u	u	n/a
91.653	0.074	183306	keystroke_t	t	n/a
91.937	0.076	183874	keystroke_e	e	n/a
92.102	0.09	184204	keystroke_Key.space	Key.space	n/a
92.463	0.074	184926	keystroke_a	a	n/a
92.672	0.06	185344	keystroke_c	c	n/a
92.822	0.06	185644	keystroke_c	c	n/a
92.942	0.09	185884	keystroke_u	u	n/a
93.302	0.075	186604	keystroke_s	s	n/a
93.482	0.06	186964	keystroke_e	e	n/a
93.662	0.075	187324	keystroke_d	d	n/a
93.782	0.09	187564	keystroke_Key.space	Key.space	n/a
94.127	0.06	188254	keystroke_e	e	n/a
94.293	0.089	188586	keystroke_m	m	n/a
94.517	0.076	189034	keystroke_e	e	n/a
94.562	0.12	189124	keystroke_r	r	n/a
94.862	0.09	189724	keystroke_g	g	n/a
94.997	0.06	189994	keystroke_i	i	n/a
95.147	0.09	190294	keystroke_n	n	n/a
95.267	0.076	190534	keystroke_g	g	n/a
95.657	0.075	191314	keystroke_Key.enter	Key.enter	n/a
95.743	13.3115	191486	prompt	n/a	basketball transaction reviewed surveillance\n
96.858	0.09	193716	keystroke_b	b	n/a
97.053	0.074	194106	keystroke_a	a	n/a
97.592	0.061	195184	keystroke_s	s	n/a
97.668	0.075	195336	keystroke_k	k	n/a
97.802	0.061	195604	keystroke_e	e	n/a
98.102	0.045	196204	keystroke_t	t	n/a
98.373	0.09	196746	keystroke_b	b	n/a
98.507	0.105	197014	keystroke_a	a	n/a
98.718	0.075	197436	keystroke_l	l	n/a
98.897	0.091	197794	keystroke_l	l	n/a
99.122	0.09	198244	keystroke_Key.space	Key.space	n/a
99.573	0.089	199146	keystroke_t	t	n/a
99.977	0.076	199954	keystroke_r	r	n/a
100.187	0.09	200374	keystroke_a	a	n/a
100.353	0.104	200706	keystroke_n	n	n/a
100.832	0.105	201664	keystroke_s	s	n/a
101.057	0.075	202114	keystroke_a	a	n/a
101.387	0.076	202774	keystroke_f	f	n/a
102.107	0.105	204214	keystroke_Key.backspace	Key.backspace	n/a
102.303	0.105	204606	keystroke_c	c	n/a
102.527	0.061	205054	keystroke_t	t	n/a
102.632	0.24	205264	keystroke_i	i	n/a
102.722	0.195	205444	keystroke_o	o	n/a
102.813	0.15	205626	keystroke_n	n	n/a
103.442	0.09	206884	keystroke_Key.space	Key.space	n/a
103.652	0.091	207304	keystroke_r	r	n/a
103.698	0.104	207396	keystroke_e	e	n/a
104.283	0.044	208566	keystroke_v	v	n/a
104.477	0.09	208954	keystroke_i	i	n/a
104.912	0.105	209824	keystroke_e	e	n/a
104.973	0.104	209946	keystroke_w	w	n/a
105.708	0.074	211416	keystroke_e	e	n/a
105.887	0.105	211774	keystroke_d	d	n/a
105.962	0.106	211924	keystroke_Key.space	Key.space	n/a
106.397	0.076	212794	keystroke_s	s	n/a
106.607	0.076	213214	keystroke_u	u	n/a
106.712	0.106	213424	keystroke_r	r	n/a
107.073	0.074	214146	keystroke_v	v	n/a
107.327	0.061	214654	keystroke_e	e	n/a
107.568	0.075	215136	keystroke_i	i	n/a
107.777	0.06	215554	keystroke_l	l	n/a
107.912	0.105	215824	keystroke_l	l	n/a
108.033	0.074	216066	keystroke_a	a	n/a
108.198	0.09	216396	keystroke_n	n	n/a
108.407	0.061	216814	keystroke_c	c	n/a
108.588	0.044	217176	keystroke_e	e	n/a
108.977	0.075	217954	keystroke_Key.enter	Key.enter	n/a
109.06	6.8805	218120	prompt	n/a	squad blacks lights expired\n
109.863	0.06	219726	keystroke_s	s	n/a
110.148	0.06	220296	keystroke_q	q	n/a
110.312	0.076	220624	keystroke_u	u	n/a
110.448	0.105	220896	keystroke_a	a	n/a
110.688	0.075	221376	keystroke_d	d	n/a
110.793	0.09	221586	keystroke_Key.space	Key.space	n/a
111.078	0.074	222156	keystroke_b	b	n/a
111.318	0.075	222636	keystroke_l	l	n/a
111.513	0.09	223026	keystroke_a	a	n/a
111.828	0.074	223656	keystroke_c	c	n/a
111.963	0.075	223926	keystroke_k	k	n/a
112.172	0.076	224344	keystroke_s	s	n/a
112.353	0.089	224706	keystroke_Key.space	Key.space	n/a
112.532	0.106	225064	keystroke_l	l	n/a
112.982	0.075	225964	keystroke_i	i	n/a
113.118	0.09	226236	keystroke_g	g	n/a
113.252	0.076	226504	keystroke_h	h	n/a
113.373	0.074	226746	keystroke_t	t	n/a
114.003	0.075	228006	keystroke_s	s	n/a
114.122	0.105	228244	keystroke_Key.space	Key.space	n/a
114.348	0.045	228696	keystroke_e	e	n/a
114.558	0.09	229116	keystroke_x	x	n/a
114.723	0.12	229446	keystroke_p	p	n/a
115.007	0.076	230014	keystroke_i	i	n/a
115.068	0.06	230136	keystroke_r	r	n/a
115.098	0.075	230196	keystroke_e	e	n/a
115.427	0.061	230854	keystroke_d	d	n/a
115.847	0.091	231694	keystroke_Key.enter	Key.enter	n/a
115.9455	12.6095	231891	prompt	n/a	reliance enhance return problems\n
116.9285	0.105	233857	keystroke_r	r	n/a
117.0035	0.105	234007	keystroke_e	e	n/a
117.2585	0.09	234517	keystroke_l	l	n/a
117.468	0.09	234936	keystroke_i	i	n/a
118.593	0.075	237186	keystroke_a	a	n/a
118.788	0.06	237576	keystroke_n	n	n/a
119.133	0.075	238266	keystroke_c	c	n/a
119.358	0.06	238716	keystroke_e	e	n/a
119.493	0.075	238986	keystroke_Key.space	Key.space	n/a
119.973	0.075	239946	keystroke_e	e	n/a
120.123	0.105	240246	keystroke_n	n	n/a
120.873	0.09	241746	keystroke_h	h	n/a
120.993	0.09	241986	keystroke_a	a	n/a
121.113	0.09	242226	keystroke_n	n	n/a
121.383	0.105	242766	keystroke_c	c	n/a
121.608	0.06	243216	keystroke_e	e	n/a
121.728	0.09	243456	keystroke_Key.space	Key.space	n/a
121.968	0.105	243936	keystroke_r	r	n/a
122.013	0.075	244026	keystroke_e	e	n/a
122.253	0.105	244506	keystroke_t	t	n/a
122.538	0.06	245076	keystroke_r	r	n/a
122.658	0.075	245316	keystroke_u	u	n/a
122.898	0.15	245796	keystroke_n	n	n/a
123.063	0.105	246126	keystroke_Key.space	Key.space	n/a
123.993	0.09	247986	keystroke_Key.backspace	Key.backspace	n/a
124.188	0.075	248376	keystroke_Key.backspace	Key.backspace	n/a
124.368	0.075	248736	keystroke_Key.backspace	Key.backspace	n/a
124.548	0.105	249096	keystroke_Key.backspace	Key.backspace	n/a
125.238	0.09	250476	keystroke_u	u	n/a
125.283	0.09	250566	keystroke_r	r	n/a
125.523	0.06	251046	keystroke_n	n	n/a
125.703	0.075	251406	keystroke_Key.space	Key.space	n/a
126.813	0.12	253626	keystroke_p	p	n/a
126.918	0.075	253836	keystroke_r	r	n/a
127.023	0.105	254046	keystroke_o	o	n/a
127.203	0.075	254406	keystroke_b	b	n/a
127.443	0.09	254886	keystroke_l	l	n/a
127.683	0.075	255366	keystroke_e	e	n/a
127.908	0.075	255816	keystroke_m	m	n/a
128.133	0.075	256266	keystroke_s	s	n/a
128.463	0.09	256926	keystroke_Key.enter	Key.enter	n/a
128.56	12.79	257120	prompt	n/a	raid midlands indigenous terrible\n
132.246	0.012	264492	keystroke_r	r	n/a
132.618	0.06	265236	keystroke_a	a	n/a
132.783	0.06	265566	keystroke_i	i	n/a
132.933	0.075	265866	keystroke_d	d	n/a
133.098	0.075	266196	keystroke_Key.space	Key.space	n/a
133.878	0.105	267756	keystroke_m	m	n/a
134.178	0.075	268356	keystroke_i	i	n/a
134.358	0.075	268716	keystroke_d	d	n/a
134.538	0.09	269076	keystroke_l	l	n/a
134.628	0.075	269256	keystroke_a	a	n/a
134.763	0.075	269526	keystroke_n	n	n/a
134.928	0.06	269856	keystroke_d	d	n/a
135.213	0.075	270426	keystroke_s	s	n/a
135.483	0.0595	270966	keystroke_Key.space	Key.space	n/a
136.4275	0.075	272855	keystroke_i	i	n/a
136.818	0.09	273636	keystroke_n	n	n/a
136.953	0.0745	273906	keystroke_d	d	n/a
137.0725	0.06	274145	keystroke_i	i	n/a
137.3125	0.075	274625	keystroke_g	g	n/a
137.6575	0.075	275315	keystroke_e	e	n/a
137.808	0.105	275616	keystroke_n	n	n/a
138.1975	0.075	276395	keystroke_o	o	n/a
138.4975	0.06	276995	keystroke_u	u	n/a
138.7075	0.075	277415	keystroke_s	s	n/a
139.2175	0.075	278435	keystroke_Key.space	Key.space	n/a
139.8325	0.075	279665	keystroke_t	t	n/a
140.0575	0.09	280115	keystroke_e	e	n/a
140.2675	0.045	280535	keystroke_r	r	n/a
140.3725	0.075	280745	keystroke_r	r	n/a
140.4925	0.075	280985	keystroke_i	i	n/a
140.6725	0.06	281345	keystroke_b	b	n/a
140.8225	0.06	281645	keystroke_l	l	n/a
140.8675	0.06	281735	keystroke_e	e	n/a
141.258	0.09	282516	keystroke_Key.enter	Key.enter	n/a
141.356	12.3985	282712	prompt	n/a	opinion disk sunday exchange\n
142.173	0.09	284346	keystroke_o	o	n/a
142.368	0.105	284736	keystroke_p	p	n/a
142.818	0.075	285636	keystroke_i	i	n/a
143.013	0.075	286026	keystroke_n	n	n/a
143.283	0.09	286566	keystroke_i	i	n/a
143.478	0.09	286956	keystroke_o	o	n/a
143.6875	0.075	287375	keystroke_n	n	n/a
145.8805	0.012	291761	keystroke_d	d	n/a
145.9075	0.075	291815	keystroke_i	i	n/a
146.0425	0.09	292085	keystroke_s	s	n/a
146.1775	0.09	292355	keystroke_k	k	n/a
146.7325	0.075	293465	keystroke_Key.backspace	Key.backspace	n/a
146.9125	0.075	293825	keystroke_Key.backspace	Key.backspace	n/a
147.0775	0.075	294155	keystroke_Key.backspace	Key.backspace	n/a
147.2575	0.09	294515	keystroke_Key.backspace	Key.backspace	n/a
147.6175	0.045	295235	keystroke_Key.backspace	Key.backspace	n/a
148.3375	0.12	296675	keystroke_n	n	n/a
148.4425	0.12	296885	keystroke_Key.space	Key.space	n/a
148.6825	0.06	297365	keystroke_d	d	n/a
148.7725	0.09	297545	keystroke_i	i	n/a
148.8925	0.105	297785	keystroke_s	s	n/a
149.1475	0.09	298295	keystroke_k	k	n/a
149.3575	0.075	298715	keystroke_Key.space	Key.space	n/a
149.7775	0.075	299555	keystroke_s	s	n/a
149.8825	0.09	299765	keystroke_u	u	n/a
150.0925	0.06	300185	keystroke_n	n	n/a
150.1825	0.09	300365	keystroke_d	d	n/a
150.7375	0.06	301475	keystroke_a	a	n/a
151.0375	0.075	302075	keystroke_y	y	n/a
151.5625	0.075	303125	keystroke_Key.space	Key.space	n/a
151.7725	0.06	303545	keystroke_e	e	n/a
152.0275	0.09	304055	keystroke_x	x	n/a
152.4325	0.09	304865	keystroke_c	c	n/a
152.5825	0.105	305165	keystroke_h	h	n/a
152.7025	0.075	305405	keystroke_a	a	n/a
152.8075	0.09	305615	keystroke_n	n	n/a
153.1975	0.075	306395	keystroke_g	g	n/a
153.4525	0.06	306905	keystroke_e	e	n/a
153.6775	0.075	307355	keystroke_Key.enter	Key.enter	n/a
153.7585	10.7115	307517	prompt	n/a	enclosure empirical gamma destiny\n
154.6225	0.045	309245	keystroke_e	e	n/a
154.8025	0.09	309605	keystroke_n	n	n/a
155.4475	0.075	310895	keystroke_c	c	n/a
155.5825	0.091	311165	keystroke_l	l	n/a
155.8225	0.075	311645	keystroke_o	o	n/a
155.9425	0.12	311885	keystroke_s	s	n/a
156.4375	0.075	312875	keystroke_u	u	n/a
156.6475	0.075	313295	keystroke_r	r	n/a
156.6925	0.075	313385	keystroke_e	e	n/a
156.9025	0.0905	313805	keystroke_Key.space	Key.space	n/a
157.174	0.059	314348	keystroke_e	e	n/a
157.278	0.12	314556	keystroke_m	m	n/a
157.4885	0.12	314977	keystroke_p	p	n/a
157.9085	0.045	315817	keystroke_e	e	n/a
159.1395	0.09	318279	keystroke_Key.backspace	Key.backspace	n/a
159.77	0.09	319540	keystroke_i	i	n/a
159.89	0.075	319780	keystroke_r	r	n/a
160.025	0.09	320050	keystroke_i	i	n/a
160.176	0.1195	320352	keystroke_c	c	n/a
160.2805	0.075	320561	keystroke_a	a	n/a
160.4155	0.09	320831	keystroke_l	l	n/a
160.7605	0.075	321521	keystroke_Key.space	Key.space	n/a
161.136	0.09	322272	keystroke_g	g	n/a
161.241	0.09	322482	keystroke_a	a	n/a
161.451	0.06	322902	keystroke_m	m	n/a
161.586	0.105	323172	keystroke_m	m	n/a
161.706	0.0605	323412	keystroke_a	a	n/a
161.871	0.06	323742	keystroke_Key.space	Key.space	n/a
162.1715	0.075	324343	keystroke_d	d	n/a
162.862	0.06	325724	keystroke_e	e	n/a
163.027	0.105	326054	keystroke_s	s	n/a
163.162	0.0905	326324	keystroke_t	t	n/a
163.3875	0.06	326775	keystroke_i	i	n/a
163.7475	0.09	327495	keystroke_n	n	n/a
164.0475	0.06	328095	keystroke_y	y	n/a
164.423	0.045	328846	keystroke_Key.enter	Key.enter	n/a
164.475	8.913	328950	prompt	n/a	enter http award closest\n
167.3075	0	334615	keystroke_e	e	n/a
167.3645	0.105	334729	keystroke_n	n	n/a
167.4995	0.075	334999	keystroke_t	t	n/a
167.95	0.06	335900	keystroke_e	e	n/a
167.995	0.061	335990	keystroke_r	r	n/a
168.7755	0.0745	337551	keystroke_Key.space	Key.space	n/a
169.0165	0.074	338033	keystroke_h	h	n/a
169.3605	0.06	338721	keystroke_t	t	n/a
169.4805	0.09	338961	keystroke_t	t	n/a
169.5855	0.1055	339171	keystroke_p	p	n/a
169.766	0.105	339532	keystroke_Key.space	Key.space	n/a
170.006	0.045	340012	keystroke_a	a	n/a
170.171	0.09	340342	keystroke_w	w	n/a
170.352	0.119	340704	keystroke_a	a	n/a
170.456	0.091	340912	keystroke_r	r	n/a
170.7415	0.075	341483	keystroke_d	d	n/a
170.9215	0.075	341843	keystroke_Key.space	Key.space	n/a
171.2065	0.075	342413	keystroke_c	c	n/a
171.3265	0.105	342653	keystroke_l	l	n/a
171.552	0.075	343104	keystroke_o	o	n/a
171.657	0.105	343314	keystroke_s	s	n/a
171.897	0.03	343794	keystroke_e	e	n/a
172.422	0.0605	344844	keystroke_s	s	n/a
172.6925	0.075	345385	keystroke_t	t	n/a
173.2625	0.1205	346525	keystroke_Key.enter	Key.enter	n/a
173.3945	10.5415	346789	prompt	n/a	hull investigation simple investments\n
174.3585	0.091	348717	keystroke_h	h	n/a
174.5685	0.075	349137	keystroke_u	u	n/a
174.8395	0.06	349679	keystroke_l	l	n/a
175.0185	0.0755	350037	keystroke_l	l	n/a
175.229	0.105	350458	keystroke_Key.space	Key.space	n/a
175.439	0.075	350878	keystroke_i	i	n/a
175.634	0.09	351268	keystroke_n	n	n/a
175.9195	0.0745	351839	keystroke_v	v	n/a
176.0695	0.09	352139	keystroke_e	e	n/a
176.6545	0.075	353309	keystroke_s	s	n/a
176.8345	0.0755	353669	keystroke_t	t	n/a
176.97	0.075	353940	keystroke_i	i	n/a
177.24	0.105	354480	keystroke_g	g	n/a
177.675	0.076	355350	keystroke_a	a	n/a
177.9005	0.075	355801	keystroke_t	t	n/a
178.2905	0.09	356581	keystroke_i	i	n/a
178.5005	0.075	357001	keystroke_o	o	n/a
178.711	0.09	357422	keystroke_n	n	n/a
178.891	0.09	357782	keystroke_Key.space	Key.space	n/a
179.176	0.076	358352	keystroke_s	s	n/a
179.281	0.09	358562	keystroke_i	i	n/a
179.9415	0.09	359883	keystroke_m	m	n/a
180.2115	0.105	360423	keystroke_p	p	n/a
180.4525	0.1045	360905	keystroke_l	l	n/a
180.527	0.06	361054	keystroke_e	e	n/a
180.707	0.09	361414	keystroke_Key.space	Key.space	n/a
181.277	0.0905	362554	keystroke_i	i	n/a
181.5025	0.075	363005	keystroke_n	n	n/a
182.0275	0.076	364055	keystroke_v	v	n/a
182.253	0.075	364506	keystroke_e	e	n/a
182.493	0.135	364986	keystroke_s	s	n/a
182.733	0.075	365466	keystroke_t	t	n/a
182.929	0.105	365858	keystroke_m	m	n/a
183.049	0.06	366098	keystroke_e	e	n/a
183.1985	0.075	366397	keystroke_n	n	n/a
183.2885	0.09	366577	keystroke_t	t	n/a
183.6035	0.075	367207	keystroke_s	s	n/a
183.8595	0.074	367719	keystroke_Key.enter	Key.enter	n/a
183.9415	8.115	367883	prompt	n/a	persistent once silly drainage\n
184.864	0.0615	369728	keystroke_p	p	n/a
185.3595	0.091	370719	keystroke_e	e	n/a
185.4195	0.105	370839	keystroke_r	r	n/a
185.7045	0.0905	371409	keystroke_s	s	n/a
185.84	0.105	371680	keystroke_i	i	n/a
185.931	0.104	371862	keystroke_s	s	n/a
186.081	0.105	372162	keystroke_t	t	n/a
186.336	0.045	372672	keystroke_e	e	n/a
186.501	0.074	373002	keystroke_n	n	n/a
187.0705	0.061	374141	keystroke_t	t	n/a
187.2955	0.09	374591	keystroke_Key.space	Key.space	n/a
187.5655	0.075	375131	keystroke_o	o	n/a
187.717	0.104	375434	keystroke_n	n	n/a
187.851	0.09	375702	keystroke_c	c	n/a
188.076	0.06	376152	keystroke_e	e	n/a
188.196	0.09	376392	keystroke_Key.space	Key.space	n/a
188.392	0.089	376784	keystroke_s	s	n/a
188.497	0.0745	376994	keystroke_i	i	n/a
188.7075	0.075	377415	keystroke_l	l	n/a
188.8875	0.09	377775	keystroke_l	l	n/a
189.1875	0.165	378375	keystroke_y	y	n/a
189.3065	0.135	378613	keystroke_Key.space	Key.space	n/a
190.057	0.075	380114	keystroke_d	d	n/a
190.283	0.0595	380566	keystroke_r	r	n/a
190.5225	0.12	381045	keystroke_a	a	n/a
190.8085	0.075	381617	keystroke_i	i	n/a
191.0035	0.075	382007	keystroke_n	n	n/a
191.1835	0.059	382367	keystroke_a	a	n/a
191.394	0.06	382788	keystroke_g	g	n/a
191.574	0.075	383148	keystroke_e	e	n/a
191.963	0.09	383926	keystroke_Key.enter	Key.enter	n/a
192.0625	9.3735	384125	prompt	n/a	attachment rocky banned humanity\n
192.8485	0.061	385697	keystroke_a	a	n/a
193.09	0.06	386180	keystroke_t	t	n/a
193.21	0.104	386420	keystroke_t	t	n/a
193.39	0.075	386780	keystroke_a	a	n/a
193.599	0.091	387198	keystroke_c	c	n/a
194.2605	0.105	388521	keystroke_h	h	n/a
194.5445	0.106	389089	keystroke_m	m	n/a
194.6355	0.074	389271	keystroke_e	e	n/a
194.8145	0.091	389629	keystroke_n	n	n/a
194.9205	0.0745	389841	keystroke_t	t	n/a
195.1	0.09	390200	keystroke_Key.space	Key.space	n/a
195.9565	0.105	391913	keystroke_r	r	n/a
196.1655	0.076	392331	keystroke_o	o	n/a
196.6315	0.06	393263	keystroke_c	c	n/a
196.7955	0.0765	393591	keystroke_k	k	n/a
197.187	0.075	394374	keystroke_y	y	n/a
197.412	0.09	394824	keystroke_Key.space	Key.space	n/a
198.0125	0.075	396025	keystroke_b	b	n/a
198.2075	0.089	396415	keystroke_a	a	n/a
198.4175	0.06	396835	keystroke_n	n	n/a
198.5525	0.105	397105	keystroke_n	n	n/a
198.6725	0.075	397345	keystroke_e	e	n/a
198.867	0.076	397734	keystroke_d	d	n/a
198.972	0.091	397944	keystroke_Key.space	Key.space	n/a
199.633	0.089	399266	keystroke_h	h	n/a
199.873	0.0755	399746	keystroke_u	u	n/a
200.1435	0.09	400287	keystroke_m	m	n/a
200.2785	0.09	400557	keystroke_a	a	n/a
200.3835	0.09	400767	keystroke_n	n	n/a
200.5785	0.09	401157	keystroke_i	i	n/a
200.7885	0.0605	401577	keystroke_t	t	n/a
201.028	0.016	402056	keystroke_y	y	n/a
201.359	0.075	402718	keystroke_Key.enter	Key.enter	n/a
201.4405	11.6975	402881	prompt	n/a	sublime supposed constitute stack\n
202.7845	0.075	405569	keystroke_s	s	n/a
202.9035	0.075	405807	keystroke_u	u	n/a
203.0845	0.075	406169	keystroke_b	b	n/a
203.2195	0.09	406439	keystroke_l	l	n/a
203.49	0.06	406980	keystroke_i	i	n/a
203.7	0.09	407400	keystroke_m	m	n/a
203.805	0.06	407610	keystroke_e	e	n/a
203.91	0.089	407820	keystroke_Key.space	Key.space	n/a
204.06	0.105	408120	keystroke_s	s	n/a
204.195	0.105	408390	keystroke_u	u	n/a
204.405	0.0895	408810	keystroke_p	p	n/a
204.6005	0.09	409201	keystroke_p	p	n/a
205.0505	0.075	410101	keystroke_o	o	n/a
205.1405	0.09	410281	keystroke_s	s	n/a
205.3655	0.06	410731	keystroke_e	e	n/a
205.5605	0.06	411121	keystroke_d	d	n/a
205.6655	0.075	411331	keystroke_Key.space	Key.space	n/a
206.626	0.045	413252	keystroke_s	s	n/a
207.316	0.09	414632	keystroke_Key.backspace	Key.backspace	n/a
207.481	0.09	414962	keystroke_c	c	n/a
207.691	0.105	415382	keystroke_o	o	n/a
207.931	0.075	415862	keystroke_n	n	n/a
208.081	0.12	416162	keystroke_s	s	n/a
208.321	0.06	416642	keystroke_t	t	n/a
208.411	0.09	416822	keystroke_i	i	n/a
208.711	0.075	417422	keystroke_t	t	n/a
208.906	0.075	417812	keystroke_u	u	n/a
209.296	0.06	418592	keystroke_t	t	n/a
209.566	0.06	419132	keystroke_e	e	n/a
209.716	0.09	419432	keystroke_Key.space	Key.space	n/a
209.941	0.075	419882	keystroke_s	s	n/a
210.121	0.105	420242	keystroke_t	t	n/a
210.316	0.09	420632	keystroke_a	a	n/a
210.7205	0.0905	421441	keystroke_c	c	n/a
210.976	0.06	421952	keystroke_k	k	n/a
211.5155	0.0755	423031	keystroke_]	]	n/a
212.7755	0.077	425551	keystroke_Key.backspace	Key.backspace	n/a
213.0605	0.075	426121	keystroke_Key.enter	Key.enter	n/a
213.1485	18.453	426297	prompt	n/a	mess length maintaining implementing\n
214.2455	0.12	428491	keystroke_m	m	n/a
214.3355	0.075	428671	keystroke_e	e	n/a
214.5605	0.06	429121	keystroke_s	s	n/a
214.6955	0.105	429391	keystroke_s	s	n/a
214.7855	0.09	429571	keystroke_Key.space	Key.space	n/a
215.0405	0.075	430081	keystroke_l	l	n/a
215.1165	0.074	430233	keystroke_e	e	n/a
215.3855	0.06	430771	keystroke_n	n	n/a
215.6405	0.045	431281	keystroke_t	t	n/a
215.8355	0.06	431671	keystroke_h	h	n/a
216.7205	0.105	433441	keystroke_Key.backspace	Key.backspace	n/a
217.5005	0.105	435001	keystroke_Key.backspace	Key.backspace	n/a
217.7555	0.09	435511	keystroke_g	g	n/a
217.9955	0.06	435991	keystroke_h	h	n/a
218.0705	0.075	436141	keystroke_t	t	n/a
219.1205	0.09	438241	keystroke_Key.space	Key.space	n/a
219.3905	0.105	438781	keystroke_m	m	n/a
219.4505	0.09	438901	keystroke_a	a	n/a
219.6905	0.045	439381	keystroke_i	i	n/a
220.0055	0.075	440011	keystroke_n	n	n/a
220.2455	0.1045	440491	keystroke_t	t	n/a
222.528	0.027	445056	keystroke_Key.backspace	Key.backspace	n/a
222.645	0.12	445290	keystroke_Key.backspace	Key.backspace	n/a
222.84	0.12	445680	keystroke_Key.backspace	Key.backspace	n/a
223.035	0.105	446070	keystroke_Key.backspace	Key.backspace	n/a
223.245	0.09	446490	keystroke_Key.backspace	Key.backspace	n/a
223.44	0.09	446880	keystroke_Key.backspace	Key.backspace	n/a
223.65	0.075	447300	keystroke_Key.backspace	Key.backspace	n/a
224.0545	0.09	448109	keystroke_Key.backspace	Key.backspace	n/a
224.6245	0.06	449249	keystroke_t	t	n/a
224.8945	0.09	449789	keystroke_h	h	n/a
225.3145	0.075	450629	keystroke_Key.space	Key.space	n/a
225.7345	0.105	451469	keystroke_m	m	n/a
225.8245	0.09	451649	keystroke_a	a	n/a
225.9895	0.06	451979	keystroke_i	i	n/a
226.1845	0.09	452369	keystroke_n	n	n/a
226.4095	0.06	452819	keystroke_t	t	n/a
226.9045	0.075	453809	keystroke_a	a	n/a
227.2195	0.075	454439	keystroke_i	i	n/a
227.4145	0.075	454829	keystroke_n	n	n/a
227.5795	0.075	455159	keystroke_i	i	n/a
227.6545	0.06	455309	keystroke_n	n	n/a
228.1645	0.06	456329	keystroke_g	g	n/a
228.4495	0.06	456899	keystroke_Key.space	Key.space	n/a
229.0045	0.09	458009	keystroke_i	i	n/a
229.1845	0.165	458369	keystroke_m	m	n/a
229.3045	0.135	458609	keystroke_p	p	n/a
229.5745	0.12	459149	keystroke_l	l	n/a
229.6795	0.06	459359	keystroke_e	e	n/a
229.8145	0.105	459629	keystroke_m	m	n/a
229.8895	0.105	459779	keystroke_e	e	n/a
230.1445	0.075	460289	keystroke_n	n	n/a
230.3245	0.045	460649	keystroke_t	t	n/a
230.4745	0.075	460949	keystroke_i	i	n/a
230.6695	0.075	461339	keystroke_n	n	n/a
230.8495	0.06	461699	keystroke_g	g	n/a
231.5095	0.09	463019	keystroke_Key.enter	Key.enter	n/a
231.6065	11.8885	463213	prompt	n/a	association premier equity hockey\n
232.4545	0.045	464909	keystroke_a	a	n/a
232.6495	0.0595	465299	keystroke_s	s	n/a
232.784	0.09	465568	keystroke_s	s	n/a
232.889	0.075	465778	keystroke_o	o	n/a
233.099	0.105	466198	keystroke_c	c	n/a
233.219	0.09	466438	keystroke_i	i	n/a
233.444	0.12	466888	keystroke_a	a	n/a
233.684	0.075	467368	keystroke_t	t	n/a
233.864	0.12	467728	keystroke_i	i	n/a
234.134	0.09	468268	keystroke_o	o	n/a
234.404	0.075	468808	keystroke_n	n	n/a
234.584	0.075	469168	keystroke_Key.space	Key.space	n/a
234.854	0.105	469708	keystroke_p	p	n/a
235.109	0.075	470218	keystroke_r	r	n/a
235.244	0.105	470488	keystroke_e	e	n/a
235.454	0.075	470908	keystroke_m	m	n/a
236.5185	0.075	473037	keystroke_i	i	n/a
236.7585	0.075	473517	keystroke_e	e	n/a
236.9985	0.06	473997	keystroke_r	r	n/a
237.6435	0.09	475287	keystroke_Key.space	Key.space	n/a
237.9585	0.09	475917	keystroke_e	e	n/a
238.1835	0.09	476367	keystroke_q	q	n/a
238.4085	0.06	476817	keystroke_u	u	n/a
239.0085	0.075	478017	keystroke_i	i	n/a
239.1135	0.075	478227	keystroke_t	t	n/a
239.3235	0.15	478647	keystroke_y	y	n/a
239.4285	0.12	478857	keystroke_Key.space	Key.space	n/a
239.893	0.075	479786	keystroke_h	h	n/a
240.298	0.06	480596	keystroke_o	o	n/a
240.553	0.075	481106	keystroke_c	c	n/a
240.688	0.075	481376	keystroke_k	k	n/a
241.063	0.06	482126	keystroke_y	y	n/a
241.963	0.105	483926	keystroke_Key.backspace	Key.backspace	n/a
242.233	0.06	484466	keystroke_e	e	n/a
242.518	0.06	485036	keystroke_y	y	n/a
243.418	0.075	486836	keystroke_Key.enter	Key.enter	n/a
243.5015	9.833	487003	prompt	n/a	sand weblog winning vacuum\n
244.408	0.06	488816	keystroke_s	s	n/a
244.558	0.075	489116	keystroke_a	a	n/a
244.708	0.12	489416	keystroke_n	n	n/a
244.813	0.075	489626	keystroke_d	d	n/a
244.903	0.105	489806	keystroke_Key.space	Key.space	n/a
245.158	0.09	490316	keystroke_w	w	n/a
245.593	0.075	491186	keystroke_e	e	n/a
245.833	0.06	491666	keystroke_b	b	n/a
245.968	0.1045	491936	keystroke_l	l	n/a
246.2075	0.075	492415	keystroke_o	o	n/a
246.3425	0.06	492685	keystroke_g	g	n/a
246.5375	0.075	493075	keystroke_Key.space	Key.space	n/a
247.5125	0.09	495025	keystroke_w	w	n/a
247.6775	0.09	495355	keystroke_i	i	n/a
247.9175	0.06	495835	keystroke_n	n	n/a
248.0975	0.06	496195	keystroke_n	n	n/a
248.2775	0.075	496555	keystroke_i	i	n/a
248.4425	0.09	496885	keystroke_n	n	n/a
248.6675	0.06	497335	keystroke_g	g	n/a
248.8025	0.09	497605	keystroke_Key.space	Key.space	n/a
249.3875	0.105	498775	keystroke_v	v	n/a
249.5075	0.09	499015	keystroke_a	a	n/a
249.7475	0.06	499495	keystroke_c	c	n/a
249.8675	0.09	499735	keystroke_c	c	n/a
250.077	0.075	500154	keystroke_u	u	n/a
250.7375	0.15	501475	keystroke_Key.backspace	Key.backspace	n/a
250.9775	0.105	501955	keystroke_Key.backspace	Key.backspace	n/a
251.157	0.105	502314	keystroke_Key.backspace	Key.backspace	n/a
251.967	0.09	503934	keystroke_c	c	n/a
252.252	0.075	504504	keystroke_u	u	n/a
252.402	0.075	504804	keystroke_u	u	n/a
252.672	0.09	505344	keystroke_m	m	n/a
253.212	0.12	506424	keystroke_Key.enter	Key.enter	n/a
253.3385	7.7355	506677	prompt	n/a	hanging obituaries start morrison\n
254.2915	0.09	508583	keystroke_h	h	n/a
254.3825	0.089	508765	keystroke_a	a	n/a
254.5165	0.105	509033	keystroke_n	n	n/a
254.6665	0.09	509333	keystroke_g	g	n/a
254.7715	0.075	509543	keystroke_i	i	n/a
254.9215	0.106	509843	keystroke_n	n	n/a
255.0865	0.075	510173	keystroke_g	g	n/a
255.1765	0.09	510353	keystroke_Key.space	Key.space	n/a
255.4465	0.09	510893	keystroke_o	o	n/a
255.7015	0.09	511403	keystroke_b	b	n/a
255.9115	0.075	511823	keystroke_i	i	n/a
256.0765	0.075	512153	keystroke_t	t	n/a
256.2115	0.075	512423	keystroke_u	u	n/a
256.6465	0.075	513293	keystroke_a	a	n/a
256.8415	0.075	513683	keystroke_r	r	n/a
257.0365	0.075	514073	keystroke_i	i	n/a
257.1265	0.076	514253	keystroke_e	e	n/a
257.3365	0.075	514673	keystroke_s	s	n/a
257.4865	0.105	514973	keystroke_Key.space	Key.space	n/a
257.7115	0.105	515423	keystroke_s	s	n/a
257.8915	0.105	515783	keystroke_t	t	n/a
258.0115	0.105	516023	keystroke_a	a	n/a
258.1315	0.075	516263	keystroke_r	r	n/a
258.296	0.09	516592	keystroke_t	t	n/a
258.431	0.09	516862	keystroke_Key.space	Key.space	n/a
258.671	0.075	517342	keystroke_m	m	n/a
259.242	0.074	518484	keystroke_o	o	n/a
259.541	0.061	519082	keystroke_r	r	n/a
259.661	0.09	519322	keystroke_r	r	n/a
259.766	0.09	519532	keystroke_i	i	n/a
259.886	0.09	519772	keystroke_s	s	n/a
260.141	0.105	520282	keystroke_o	o	n/a
260.396	0.075	520792	keystroke_n	n	n/a
260.966	0.105	521932	keystroke_Key.enter	Key.enter	n/a
261.0795	7.3725	522159	prompt	n/a	seafood ahead choices design\n
261.9415	0.074	523883	keystroke_s	s	n/a
262.2255	0.061	524451	keystroke_e	e	n/a
262.3755	0.135	524751	keystroke_a	a	n/a
262.9005	0.075	525801	keystroke_f	f	n/a
263.1555	0.075	526311	keystroke_o	o	n/a
263.3205	0.105	526641	keystroke_o	o	n/a
263.4405	0.075	526881	keystroke_d	d	n/a
263.5755	0.135	527151	keystroke_Key.space	Key.space	n/a
263.8905	0.075	527781	keystroke_a	a	n/a
264.2205	0.075	528441	keystroke_h	h	n/a
264.3555	0.075	528711	keystroke_e	e	n/a
264.5955	0.075	529191	keystroke_a	a	n/a
264.8055	0.076	529611	keystroke_d	d	n/a
264.9405	0.075	529881	keystroke_Key.space	Key.space	n/a
265.2105	0.091	530421	keystroke_c	c	n/a
265.4355	0.091	530871	keystroke_h	h	n/a
265.6005	0.105	531201	keystroke_o	o	n/a
265.8265	0.059	531653	keystroke_i	i	n/a
265.9455	0.12	531891	keystroke_c	c	n/a
266.1855	0.06	532371	keystroke_e	e	n/a
266.3805	0.075	532761	keystroke_s	s	n/a
266.4855	0.09	532971	keystroke_Key.space	Key.space	n/a
266.9355	0.075	533871	keystroke_d	d	n/a
267.0855	0.06	534171	keystroke_e	e	n/a
267.2955	0.09	534591	keystroke_s	s	n/a
267.4765	0.074	534953	keystroke_i	i	n/a
267.7305	0.045	535461	keystroke_g	g	n/a
267.985	0.06	535970	keystroke_n	n	n/a
268.361	0.089	536722	keystroke_Key.enter	Key.enter	n/a
268.4565	8.7995	536913	prompt	n/a	gary legally flash hosting\n
269.395	0.106	538790	keystroke_g	g	n/a
269.53	0.121	539060	keystroke_a	a	n/a
269.785	0.06	539570	keystroke_r	r	n/a
270.07	0.09	540140	keystroke_y	y	n/a
270.235	0.105	540470	keystroke_Key.space	Key.space	n/a
271.5845	0.091	543169	keystroke_l	l	n/a
272.0205	0.044	544041	keystroke_e	e	n/a
272.3195	0.075	544639	keystroke_g	g	n/a
272.4255	0.09	544851	keystroke_a	a	n/a
272.6055	0.06	545211	keystroke_l	l	n/a
272.7555	0.105	545511	keystroke_l	l	n/a
273.0395	0.195	546079	keystroke_y	y	n/a
273.2045	0.12	546409	keystroke_Key.space	Key.space	n/a
273.4895	0.075	546979	keystroke_f	f	n/a
273.6855	0.09	547371	keystroke_l	l	n/a
273.8655	0.089	547731	keystroke_a	a	n/a
274.179	0.075	548358	keystroke_s	s	n/a
274.435	0.104	548870	keystroke_h	h	n/a
274.704	0.091	549408	keystroke_Key.space	Key.space	n/a
275.77	0.074	551540	keystroke_h	h	n/a
275.934	0.106	551868	keystroke_o	o	n/a
276.055	0.075	552110	keystroke_s	s	n/a
276.175	0.089	552350	keystroke_t	t	n/a
276.339	0.076	552678	keystroke_i	i	n/a
276.519	0.09	553038	keystroke_n	n	n/a
276.625	0.059	553250	keystroke_g	g	n/a
277.164	0.09	554328	keystroke_Key.enter	Key.enter	n/a
277.2615	9.474	554523	prompt	n/a	lucas tooth researchers economy\n
278.32	0.105	556640	keystroke_l	l	n/a
278.575	0.09	557150	keystroke_o	o	n/a
279.309	0.045	558618	keystroke_Key.backspace	Key.backspace	n/a
280.2545	0.089	560509	keystroke_u	u	n/a
280.4045	0.134	560809	keystroke_c	c	n/a
280.5245	0.105	561049	keystroke_a	a	n/a
280.7495	0.119	561499	keystroke_s	s	n/a
280.8535	0.105	561707	keystroke_Key.space	Key.space	n/a
281.1085	0.061	562217	keystroke_t	t	n/a
281.2135	0.061	562427	keystroke_o	o	n/a
281.3635	0.12	562727	keystroke_o	o	n/a
281.5595	0.09	563119	keystroke_t	t	n/a
281.738	0.1065	563476	keystroke_h	h	n/a
281.8895	0.119	563779	keystroke_Key.space	Key.space	n/a
282.1885	0.09	564377	keystroke_r	r	n/a
282.2495	0.089	564499	keystroke_e	e	n/a
282.5635	0.09	565127	keystroke_s	s	n/a
282.8035	0.06	565607	keystroke_e	e	n/a
282.954	0.12	565908	keystroke_a	a	n/a
283.029	0.09	566058	keystroke_r	r	n/a
283.643	0.091	567286	keystroke_c	c	n/a
283.779	0.075	567558	keystroke_h	h	n/a
284.048	0.091	568096	keystroke_e	e	n/a
284.108	0.091	568216	keystroke_r	r	n/a
284.394	0.0745	568788	keystroke_s	s	n/a
284.5125	0.105	569025	keystroke_Key.space	Key.space	n/a
284.7675	0.09	569535	keystroke_e	e	n/a
285.0685	0.06	570137	keystroke_c	c	n/a
285.1585	0.09	570317	keystroke_o	o	n/a
285.3375	0.1065	570675	keystroke_n	n	n/a
285.533	0.091	571066	keystroke_o	o	n/a
285.744	0.089	571488	keystroke_m	m	n/a
286.044	0.03	572088	keystroke_y	y	n/a
286.644	0.089	573288	keystroke_Key.enter	Key.enter	n/a
286.746	7.759	573492	prompt	n/a	find wright previous delta\n
288.3985	0.075	576797	keystroke_f	f	n/a
288.4885	0.074	576977	keystroke_i	i	n/a
288.6685	0.105	577337	keystroke_n	n	n/a
288.7575	0.075	577515	keystroke_d	d	n/a
288.8625	0.091	577725	keystroke_Key.space	Key.space	n/a
289.2235	0.075	578447	keystroke_w	w	n/a
289.4785	0.075	578957	keystroke_r	r	n/a
289.5835	0.105	579167	keystroke_i	i	n/a
289.9725	0.076	579945	keystroke_g	g	n/a
290.0935	0.105	580187	keystroke_h	h	n/a
290.2285	0.0745	580457	keystroke_t	t	n/a
290.4975	0.1055	580995	keystroke_Key.space	Key.space	n/a
291.188	0.105	582376	keystroke_p	p	n/a
291.398	0.089	582796	keystroke_r	r	n/a
291.458	0.105	582916	keystroke_e	e	n/a
291.788	0.06	583576	keystroke_v	v	n/a
291.923	0.09	583846	keystroke_i	i	n/a
292.403	0.12	584806	keystroke_o	o	n/a
292.493	0.12	584986	keystroke_u	u	n/a
292.808	0.09	585616	keystroke_s	s	n/a
292.958	0.09	585916	keystroke_Key.space	Key.space	n/a
293.348	0.075	586696	keystroke_d	d	n/a
293.513	0.06	587026	keystroke_e	e	n/a
293.633	0.09	587266	keystroke_l	l	n/a
293.828	0.075	587656	keystroke_t	t	n/a
294.008	0.09	588016	keystroke_a	a	n/a
294.4425	0.06	588885	keystroke_Key.enter	Key.enter	n/a
294.5105	9.5035	589021	prompt	n/a	matrix explained loan excellent\n
295.5825	0.105	591165	keystroke_m	m	n/a
295.7025	0.09	591405	keystroke_a	a	n/a
295.8675	0.105	591735	keystroke_t	t	n/a
296.0775	0.09	592155	keystroke_r	r	n/a
296.2425	0.06	592485	keystroke_i	i	n/a
296.4825	0.09	592965	keystroke_x	x	n/a
296.6175	0.09	593235	keystroke_Key.space	Key.space	n/a
297.0975	0.09	594195	keystroke_e	e	n/a
297.3375	0.09	594675	keystroke_x	x	n/a
297.4575	0.105	594915	keystroke_p	p	n/a
297.7125	0.12	595425	keystroke_l	l	n/a
298.0425	0.09	596085	keystroke_a	a	n/a
298.2375	0.075	596475	keystroke_i	i	n/a
298.4325	0.075	596865	keystroke_n	n	n/a
298.5225	0.075	597045	keystroke_e	e	n/a
298.7175	0.06	597435	keystroke_d	d	n/a
298.8075	0.09	597615	keystroke_Key.space	Key.space	n/a
299.0025	0.105	598005	keystroke_l	l	n/a
299.2125	0.09	598425	keystroke_o	o	n/a
299.2425	0.09	598485	keystroke_a	a	n/a
299.4525	0.06	598905	keystroke_d	d	n/a
299.5275	0.105	599055	keystroke_Key.space	Key.space	n/a
299.8725	0.075	599745	keystroke_e	e	n/a
300.1275	0.06	600255	keystroke_c	c	n/a
300.8925	0.075	601785	keystroke_Key.backspace	Key.backspace	n/a
300.9975	0.09	601995	keystroke_x	x	n/a
301.627	0.0755	603254	keystroke_c	c	n/a
301.822	0.06	603644	keystroke_e	e	n/a
301.957	0.075	603914	keystroke_l	l	n/a
302.107	0.105	604214	keystroke_l	l	n/a
302.167	0.06	604334	keystroke_e	e	n/a
302.317	0.075	604634	keystroke_n	n	n/a
302.437	0.045	604874	keystroke_t	t	n/a
303.952	0.06	607904	keystroke_Key.enter	Key.enter	n/a
304.0195	16.2825	608039	prompt	n/a	cleaner collaborative traffic appraisal\n
307.7495	0.012	615499	keystroke_c	c	n/a
307.8065	0.075	615613	keystroke_l	l	n/a
308.0465	0.0745	616093	keystroke_e	e	n/a
308.226	0.075	616452	keystroke_a	a	n/a
308.526	0.075	617052	keystroke_n	n	n/a
308.751	0.03	617502	keystroke_e	e	n/a
308.766	0.06	617532	keystroke_r	r	n/a
309.321	0.075	618642	keystroke_Key.space	Key.space	n/a
309.681	0.075	619362	keystroke_c	c	n/a
309.801	0.09	619602	keystroke_o	o	n/a
310.011	0.075	620022	keystroke_l	l	n/a
310.176	0.105	620352	keystroke_l	l	n/a
310.341	0.09	620682	keystroke_a	a	n/a
310.521	0.09	621042	keystroke_b	b	n/a
310.776	0.105	621552	keystroke_e	e	n/a
310.851	0.09	621702	keystroke_r	r	n/a
311.361	0.045	622722	keystroke_Key.backspace	Key.backspace	n/a
311.526	0.06	623052	keystroke_Key.backspace	Key.backspace	n/a
311.811	0.075	623622	keystroke_o	o	n/a
312.321	0.09	624642	keystroke_r	r	n/a
312.486	0.105	624972	keystroke_a	a	n/a
312.666	0.09	625332	keystroke_t	t	n/a
312.816	0.075	625632	keystroke_i	i	n/a
312.921	0.105	625842	keystroke_v	v	n/a
312.996	0.075	625992	keystroke_e	e	n/a
313.116	0.105	626232	keystroke_Key.space	Key.space	n/a
313.491	0.09	626982	keystroke_t	t	n/a
313.656	0.09	627312	keystroke_r	r	n/a
313.776	0.06	627552	keystroke_a	a	n/a
314.031	0.045	628062	keystroke_f	f	n/a
314.1355	0.075	628271	keystroke_f	f	n/a
314.2405	0.075	628481	keystroke_i	i	n/a
314.3455	0.09	628691	keystroke_c	c	n/a
314.6305	0.075	629261	keystroke_Key.space	Key.space	n/a
315.3205	0.06	630641	keystroke_a	a	n/a
315.4255	0.075	630851	keystroke_p	p	n/a
315.5755	0.105	631151	keystroke_p	p	n/a
315.8305	0.06	631661	keystroke_r	r	n/a
318.2635	0.027	636527	keystroke_a	a	n/a
318.395	0.06	636790	keystroke_i	i	n/a
318.605	0.06	637210	keystroke_s	s	n/a
319.31	0.09	638620	keystroke_a	a	n/a
319.505	0.09	639010	keystroke_l	l	n/a
320.225	0.075	640450	keystroke_Key.enter	Key.enter	n/a
320.307	10.2545	640614	prompt	n/a	evans happens transferred basics\n
321.125	0.06	642250	keystroke_e	e	n/a
321.29	0.075	642580	keystroke_v	v	n/a
321.38	0.09	642760	keystroke_a	a	n/a
321.575	0.075	643150	keystroke_n	n	n/a
321.965	0.075	643930	keystroke_s	s	n/a
322.07	0.09	644140	keystroke_Key.space	Key.space	n/a
322.505	0.09	645010	keystroke_h	h	n/a
322.58	0.075	645160	keystroke_a	a	n/a
322.715	0.075	645430	keystroke_p	p	n/a
322.865	0.105	645730	keystroke_p	p	n/a
324.6945	0.06	649389	keystroke_e	e	n/a
324.7995	0.075	649599	keystroke_n	n	n/a
325.1445	0.075	650289	keystroke_s	s	n/a
325.2795	0.075	650559	keystroke_Key.space	Key.space	n/a
325.8945	0.105	651789	keystroke_t	t	n/a
326.1045	0.09	652209	keystroke_r	r	n/a
326.2095	0.075	652419	keystroke_a	a	n/a
326.4345	0.09	652869	keystroke_n	n	n/a
326.6295	0.075	653259	keystroke_s	s	n/a
326.9895	0.045	653979	keystroke_f	f	n/a
327.1995	0.075	654399	keystroke_e	e	n/a
327.4245	0.03	654849	keystroke_r	r	n/a
327.5145	0.09	655029	keystroke_r	r	n/a
327.6645	0.09	655329	keystroke_e	e	n/a
327.8445	0.0745	655689	keystroke_d	d	n/a
327.979	0.075	655958	keystroke_Key.space	Key.space	n/a
328.924	0.06	657848	keystroke_b	b	n/a
329.149	0.06	658298	keystroke_a	a	n/a
329.329	0.06	658658	keystroke_s	s	n/a
329.434	0.09	658868	keystroke_i	i	n/a
329.614	0.075	659228	keystroke_c	c	n/a
329.929	0.06	659858	keystroke_s	s	n/a
330.469	0.09	660938	keystroke_Key.enter	Key.enter	n/a
330.568	8.9935	661136	prompt	n/a	identity senator curtis philippines\n
331.459	0.06	662918	keystroke_i	i	n/a
331.564	0.06	663128	keystroke_d	d	n/a
332.089	0.06	664178	keystroke_e	e	n/a
332.239	0.075	664478	keystroke_n	n	n/a
332.359	0.075	664718	keystroke_t	t	n/a
332.524	0.075	665048	keystroke_i	i	n/a
332.644	0.075	665288	keystroke_t	t	n/a
332.839	0.06	665678	keystroke_y	y	n/a
333.064	0.09	666128	keystroke_Key.space	Key.space	n/a
333.259	0.09	666518	keystroke_s	s	n/a
333.454	0.075	666908	keystroke_e	e	n/a
334.024	0.09	668048	keystroke_n	n	n/a
334.204	0.075	668408	keystroke_a	a	n/a
334.354	0.105	668708	keystroke_t	t	n/a
334.534	0.09	669068	keystroke_o	o	n/a
334.654	0.075	669308	keystroke_r	r	n/a
334.789	0.105	669578	keystroke_Key.space	Key.space	n/a
335.089	0.105	670178	keystroke_c	c	n/a
335.239	0.075	670478	keystroke_u	u	n/a
335.359	0.075	670718	keystroke_r	r	n/a
335.569	0.0895	671138	keystroke_t	t	n/a
335.8835	0.075	671767	keystroke_i	i	n/a
336.1535	0.075	672307	keystroke_s	s	n/a
336.3485	0.075	672697	keystroke_Key.space	Key.space	n/a
336.9635	0.075	673927	keystroke_p	p	n/a
337.1735	0.105	674347	keystroke_h	h	n/a
337.4285	0.09	674857	keystroke_i	i	n/a
337.7585	0.09	675517	keystroke_l	l	n/a
338.0135	0.09	676027	keystroke_i	i	n/a
338.2235	0.105	676447	keystroke_p	p	n/a
338.4335	0.105	676867	keystroke_p	p	n/a
338.6585	0.075	677317	keystroke_i	i	n/a
338.8385	0.09	677677	keystroke_n	n	n/a
338.9435	0.06	677887	keystroke_e	e	n/a
339.1235	0.09	678247	keystroke_s	s	n/a
339.4685	0.09	678937	keystroke_Key.enter	Key.enter	n/a
339.5665	14.2125	679133	prompt	n/a	carrier form strengthening definitely\n
341.4485	0.12	682897	keystroke_c	c	n/a
341.6285	0.105	683257	keystroke_a	a	n/a
341.868	0.06	683736	keystroke_r	r	n/a
342.003	0.075	684006	keystroke_r	r	n/a
342.093	0.06	684186	keystroke_i	i	n/a
342.348	0.06	684696	keystroke_e	e	n/a
342.393	0.076	684786	keystroke_r	r	n/a
342.873	0.075	685746	keystroke_Key.space	Key.space	n/a
343.428	0.09	686856	keystroke_f	f	n/a
343.563	0.09	687126	keystroke_o	o	n/a
343.638	0.06	687276	keystroke_r	r	n/a
343.788	0.135	687576	keystroke_m	m	n/a
343.908	0.135	687816	keystroke_Key.space	Key.space	n/a
344.223	0.075	688446	keystroke_s	s	n/a
344.358	0.12	688716	keystroke_t	t	n/a
344.748	0.075	689496	keystroke_r	r	n/a
345.5275	0.075	691055	keystroke_e	e	n/a
345.6625	0.105	691325	keystroke_n	n	n/a
345.9475	0.075	691895	keystroke_g	g	n/a
346.0975	0.09	692195	keystroke_h	h	n/a
348.965	0	697930	keystroke_Key.backspace	Key.backspace	n/a
349.472	0.075	698944	keystroke_t	t	n/a
349.652	0.091	699304	keystroke_h	h	n/a
350.147	0.075	700294	keystroke_e	e	n/a
350.252	0.075	700504	keystroke_n	n	n/a
350.417	0.06	700834	keystroke_i	i	n/a
350.567	0.106	701134	keystroke_n	n	n/a
350.717	0.06	701434	keystroke_g	g	n/a
351.047	0.075	702094	keystroke_Key.space	Key.space	n/a
351.4975	0.074	702995	keystroke_d	d	n/a
351.6625	0.075	703325	keystroke_e	e	n/a
351.8865	0.06	703773	keystroke_f	f	n/a
352.0225	0.089	704045	keystroke_i	i	n/a
352.2465	0.09	704493	keystroke_n	n	n/a
352.4715	0.075	704943	keystroke_i	i	n/a
352.6675	0.074	705335	keystroke_t	t	n/a
352.8765	0.06	705753	keystroke_e	e	n/a
353.0565	0.105	706113	keystroke_l	l	n/a
353.3565	0.076	706713	keystroke_y	y	n/a
353.7015	0.075	707403	keystroke_Key.enter	Key.enter	n/a
353.783	5.8905	707566	prompt	n/a	editing manage flooring mainly\n
354.6025	0.059	709205	keystroke_e	e	n/a
354.9465	0.075	709893	keystroke_d	d	n/a
355.1415	0.076	710283	keystroke_i	i	n/a
355.2765	0.075	710553	keystroke_t	t	n/a
355.3815	0.075	710763	keystroke_i	i	n/a
355.5615	0.09	711123	keystroke_n	n	n/a
355.7125	0.074	711425	keystroke_g	g	n/a
355.8165	0.105	711633	keystroke_Key.space	Key.space	n/a
356.0415	0.075	712083	keystroke_m	m	n/a
356.1015	0.075	712203	keystroke_a	a	n/a
356.2365	0.09	712473	keystroke_n	n	n/a
356.2965	0.12	712593	keystroke_a	a	n/a
356.5225	0.074	713045	keystroke_g	g	n/a
356.6275	0.044	713255	keystroke_e	e	n/a
356.7615	0.09	713523	keystroke_Key.space	Key.space	n/a
357.0015	0.0905	714003	keystroke_f	f	n/a
357.1225	0.104	714245	keystroke_l	l	n/a
357.346	0.061	714692	keystroke_o	o	n/a
357.496	0.121	714992	keystroke_o	o	n/a
357.661	0.046	715322	keystroke_r	r	n/a
357.751	0.061	715502	keystroke_i	i	n/a
357.932	0.089	715864	keystroke_n	n	n/a
358.066	0.091	716132	keystroke_g	g	n/a
358.171	0.09	716342	keystroke_Key.space	Key.space	n/a
358.382	0.089	716764	keystroke_m	m	n/a
358.426	0.091	716852	keystroke_a	a	n/a
358.532	0.09	717064	keystroke_i	i	n/a
358.681	0.091	717362	keystroke_n	n	n/a
358.862	0.09	717724	keystroke_l	l	n/a
359.102	0.06	718204	keystroke_y	y	n/a
359.612	0.059	719224	keystroke_Key.enter	Key.enter	n/a
359.679	11.3795	719358	prompt	n/a	array licking voyeurweb thus\n
360.497	0.059	720994	keystroke_a	a	n/a
360.706	0.075	721412	keystroke_r	r	n/a
360.841	0.105	721682	keystroke_r	r	n/a
360.976	0.09	721952	keystroke_a	a	n/a
361.277	0.119	722554	keystroke_y	y	n/a
361.411	0.105	722822	keystroke_Key.space	Key.space	n/a
361.622	0.105	723244	keystroke_l	l	n/a
361.847	0.075	723694	keystroke_i	i	n/a
361.982	0.119	723964	keystroke_c	c	n/a
362.086	0.076	724172	keystroke_k	k	n/a
362.282	0.059	724564	keystroke_i	i	n/a
362.477	0.104	724954	keystroke_n	n	n/a
362.582	0.075	725164	keystroke_g	g	n/a
362.671	0.105	725342	keystroke_Key.space	Key.space	n/a
362.942	0.045	725884	keystroke_v	v	n/a
363.032	0.09	726064	keystroke_o	o	n/a
364.6815	0.074	729363	keystroke_y	y	n/a
365.926	0.076	731852	keystroke_e	e	n/a
366.346	0.061	732692	keystroke_u	u	n/a
366.572	0.09	733144	keystroke_r	r	n/a
366.842	0.074	733684	keystroke_w	w	n/a
367.097	0.074	734194	keystroke_e	e	n/a
367.396	0.075	734792	keystroke_b	b	n/a
367.651	0.105	735302	keystroke_Key.space	Key.space	n/a
367.847	0.09	735694	keystroke_t	t	n/a
367.982	0.089	735964	keystroke_h	h	n/a
368.207	0.075	736414	keystroke_u	u	n/a
368.627	0.074	737254	keystroke_s	s	n/a
371.0295	0.026	742059	keystroke_Key.enter	Key.enter	n/a
371.0635	9.924	742127	prompt	n/a	purchases kuwait cache hopes\n
371.9415	0.104	743883	keystroke_p	p	n/a
372.1815	0.09	744363	keystroke_u	u	n/a
372.2405	0.091	744481	keystroke_r	r	n/a
372.4815	0.105	744963	keystroke_c	c	n/a
372.6315	0.075	745263	keystroke_h	h	n/a
372.8565	0.045	745713	keystroke_s	s	n/a
373.4265	0.0745	746853	keystroke_e	e	n/a
373.621	0.075	747242	keystroke_s	s	n/a
374.206	0.089	748412	keystroke_Key.backspace	Key.backspace	n/a
374.4	0.091	748800	keystroke_Key.backspace	Key.backspace	n/a
374.581	0.105	749162	keystroke_Key.backspace	Key.backspace	n/a
374.701	0.075	749402	keystroke_a	a	n/a
374.896	0.074	749792	keystroke_s	s	n/a
375.091	0.06	750182	keystroke_e	e	n/a
375.646	0.105	751292	keystroke_s	s	n/a
375.781	0.105	751562	keystroke_Key.space	Key.space	n/a
376.321	0.09	752642	keystroke_k	k	n/a
376.546	0.09	753092	keystroke_u	u	n/a
376.801	0.074	753602	keystroke_w	w	n/a
376.995	0.061	753990	keystroke_a	a	n/a
377.161	0.075	754322	keystroke_i	i	n/a
377.356	0.06	754712	keystroke_t	t	n/a
377.521	0.104	755042	keystroke_Key.space	Key.space	n/a
377.761	0.105	755522	keystroke_c	c	n/a
377.881	0.089	755762	keystroke_a	a	n/a
378.181	0.075	756362	keystroke_c	c	n/a
378.346	0.09	756692	keystroke_h	h	n/a
378.541	0.075	757082	keystroke_e	e	n/a
378.691	0.089	757382	keystroke_Key.space	Key.space	n/a
378.8855	0.1055	757771	keystroke_h	h	n/a
379.0805	0.09	758161	keystroke_o	o	n/a
379.2905	0.09	758581	keystroke_p	p	n/a
379.4855	0.06	758971	keystroke_e	e	n/a
379.7405	0.075	759481	keystroke_s	s	n/a
380.8805	0.104	761761	keystroke_Key.enter	Key.enter	n/a
380.993	6.848	761986	prompt	n/a	ignored http hardly really\n
381.8555	0.09	763711	keystroke_i	i	n/a
382.0505	0.075	764101	keystroke_g	g	n/a
382.2305	0.075	764461	keystroke_n	n	n/a
382.4405	0.075	764881	keystroke_o	o	n/a
382.6055	0.09	765211	keystroke_r	r	n/a
382.7105	0.075	765421	keystroke_e	e	n/a
383.0105	0.09	766021	keystroke_d	d	n/a
383.1605	0.09	766321	keystroke_Key.space	Key.space	n/a
383.6105	0.06	767221	keystroke_h	h	n/a
383.7755	0.075	767551	keystroke_t	t	n/a
383.9105	0.09	767821	keystroke_t	t	n/a
384.0605	0.12	768121	keystroke_p	p	n/a
384.2705	0.09	768541	keystroke_Key.space	Key.space	n/a
384.6455	0.09	769291	keystroke_h	h	n/a
384.7505	0.165	769501	keystroke_a	a	n/a
384.9005	0.075	769801	keystroke_r	r	n/a
385.14	0.06	770280	keystroke_d	d	n/a
385.29	0.105	770580	keystroke_l	l	n/a
385.59	0.075	771180	keystroke_y	y	n/a
385.8	0.09	771600	keystroke_Key.space	Key.space	n/a
386.13	0.09	772260	keystroke_r	r	n/a
386.19	0.12	772380	keystroke_e	e	n/a
386.505	0.06	773010	keystroke_a	a	n/a
386.715	0.075	773430	keystroke_l	l	n/a
386.88	0.105	773760	keystroke_l	l	n/a
387.165	0.075	774330	keystroke_y	y	n/a
387.735	0.105	775470	keystroke_Key.enter	Key.enter	n/a
387.846	7.915	775692	prompt	n/a	train intimate xbox radical\n
388.7395	0.075	777479	keystroke_t	t	n/a
388.9345	0.06	777869	keystroke_r	r	n/a
389.2195	0.075	778439	keystroke_a	a	n/a
389.3845	0.075	778769	keystroke_i	i	n/a
389.58	0.15	779160	keystroke_n	n	n/a
389.7145	0.12	779429	keystroke_Key.space	Key.space	n/a
389.8945	0.135	779789	keystroke_i	i	n/a
390.0595	0.09	780119	keystroke_n	n	n/a
391.1095	0.09	782219	keystroke_t	t	n/a
391.2745	0.06	782549	keystroke_i	i	n/a
391.4395	0.09	782879	keystroke_m	m	n/a
391.6645	0.105	783329	keystroke_a	a	n/a
391.8745	0.075	783749	keystroke_t	t	n/a
391.9645	0.09	783929	keystroke_e	e	n/a
392.4145	0.105	784829	keystroke_Key.space	Key.space	n/a
392.8045	0.09	785609	keystroke_x	x	n/a
393.0595	0.075	786119	keystroke_b	b	n/a
393.209	0.09	786418	keystroke_o	o	n/a
393.659	0.09	787318	keystroke_x	x	n/a
393.839	0.075	787678	keystroke_Key.space	Key.space	n/a
394.214	0.105	788428	keystroke_r	r	n/a
394.454	0.075	788908	keystroke_a	a	n/a
394.664	0.06	789328	keystroke_d	d	n/a
394.814	0.075	789628	keystroke_i	i	n/a
395.024	0.06	790048	keystroke_c	c	n/a
395.174	0.09	790348	keystroke_a	a	n/a
395.384	0.09	790768	keystroke_l	l	n/a
395.684	0.075	791368	keystroke_Key.enter	Key.enter	n/a
395.7675	8.1375	791535	prompt	n/a	funeral saudi majority guide\n
396.599	0.075	793198	keystroke_f	f	n/a
396.779	0.075	793558	keystroke_u	u	n/a
396.989	0.09	793978	keystroke_n	n	n/a
397.109	0.12	794218	keystroke_e	e	n/a
397.199	0.09	794398	keystroke_r	r	n/a
397.349	0.105	794698	keystroke_a	a	n/a
397.469	0.12	794938	keystroke_l	l	n/a
397.619	0.12	795238	keystroke_Key.space	Key.space	n/a
398.1735	0.045	796347	keystroke_s	s	n/a
398.3835	0.075	796767	keystroke_a	a	n/a
398.6985	0.075	797397	keystroke_u	u	n/a
399.0435	0.075	798087	keystroke_d	d	n/a
399.2835	0.075	798567	keystroke_i	i	n/a
399.4635	0.09	798927	keystroke_Key.space	Key.space	n/a
399.6735	0.09	799347	keystroke_m	m	n/a
399.7935	0.09	799587	keystroke_a	a	n/a
399.9885	0.105	799977	keystroke_j	j	n/a
400.1835	0.09	800367	keystroke_o	o	n/a
400.5135	0.075	801027	keystroke_r	r	n/a
401.0985	0.09	802197	keystroke_i	i	n/a
401.6235	0.075	803247	keystroke_t	t	n/a
402.1035	0.09	804207	keystroke_y	y	n/a
402.4185	0.075	804837	keystroke_Key.space	Key.space	n/a
402.6885	0.09	805377	keystroke_g	g	n/a
402.7935	0.075	805587	keystroke_u	u	n/a
402.9735	0.09	805947	keystroke_i	i	n/a
403.2135	0.075	806427	keystroke_d	d	n/a
403.4685	0.06	806937	keystroke_e	e	n/a
403.7835	0.12	807567	keystroke_Key.enter	Key.enter	n/a
403.91	12.4305	807820	prompt	n/a	bathroom variations revelation entitled\n
404.908	0.075	809816	keystroke_b	b	n/a
405.058	0.105	810116	keystroke_a	a	n/a
405.298	0.075	810596	keystroke_t	t	n/a
405.733	0.09	811466	keystroke_h	h	n/a
406.153	0.075	812306	keystroke_r	r	n/a
406.303	0.06	812606	keystroke_o	o	n/a
406.468	0.09	812936	keystroke_o	o	n/a
406.648	0.135	813296	keystroke_m	m	n/a
406.768	0.12	813536	keystroke_Key.space	Key.space	n/a
407.023	0.105	814046	keystroke_v	v	n/a
407.173	0.12	814346	keystroke_a	a	n/a
407.368	0.09	814736	keystroke_r	r	n/a
407.533	0.075	815066	keystroke_i	i	n/a
407.668	0.09	815336	keystroke_a	a	n/a
407.923	0.06	815846	keystroke_t	t	n/a
408.103	0.12	816206	keystroke_i	i	n/a
408.343	0.075	816686	keystroke_o	o	n/a
408.568	0.075	817136	keystroke_n	n	n/a
408.778	0.075	817556	keystroke_s	s	n/a
409.393	0.06	818786	keystroke_Key.space	Key.space	n/a
409.963	0.09	819926	keystroke_r	r	n/a
410.083	0.075	820166	keystroke_e	e	n/a
410.743	0.06	821486	keystroke_v	v	n/a
411.073	0.06	822146	keystroke_e	e	n/a
411.193	0.09	822386	keystroke_l	l	n/a
411.313	0.06	822626	keystroke_a	a	n/a
411.568	0.06	823136	keystroke_t	t	n/a
411.718	0.075	823436	keystroke_i	i	n/a
411.928	0.075	823856	keystroke_o	o	n/a
412.168	0.09	824336	keystroke_n	n	n/a
412.618	0.075	825236	keystroke_Key.space	Key.space	n/a
413.1725	0.075	826345	keystroke_e	e	n/a
413.293	0.1045	826586	keystroke_n	n	n/a
413.4425	0.075	826885	keystroke_t	t	n/a
413.5925	0.075	827185	keystroke_i	i	n/a
413.7425	0.0905	827485	keystroke_t	t	n/a
413.8775	0.105	827755	keystroke_l	l	n/a
414.0125	0.0605	828025	keystroke_e	e	n/a
414.4775	0.075	828955	keystroke_s	s	n/a
415.4825	0.09	830965	keystroke_Key.backspace	Key.backspace	n/a
415.7825	0.075	831565	keystroke_d	d	n/a
416.2475	0.09	832495	keystroke_Key.enter	Key.enter	n/a
416.347	9.7575	832694	prompt	n/a	manually thompson chemicals sandwich\n
417.8985	0.149	835797	keystroke_m	m	n/a
418.0325	0.075	836065	keystroke_a	a	n/a
418.1525	0.105	836305	keystroke_n	n	n/a
418.4225	0.075	836845	keystroke_u	u	n/a
418.5725	0.075	837145	keystroke_a	a	n/a
418.6775	0.075	837355	keystroke_l	l	n/a
418.8575	0.075	837715	keystroke_l	l	n/a
419.1125	0.135	838225	keystroke_y	y	n/a
419.2175	0.12	838435	keystroke_Key.space	Key.space	n/a
419.4875	0.09	838975	keystroke_t	t	n/a
419.5775	0.09	839155	keystroke_h	h	n/a
419.7875	0.105	839575	keystroke_o	o	n/a
419.9975	0.09	839995	keystroke_m	m	n/a
420.1925	0.0895	840385	keystroke_p	p	n/a
420.4025	0.075	840805	keystroke_s	s	n/a
420.5075	0.09	841015	keystroke_o	o	n/a
420.7175	0.105	841435	keystroke_n	n	n/a
420.9125	0.09	841825	keystroke_Key.space	Key.space	n/a
421.4375	0.105	842875	keystroke_c	c	n/a
421.5725	0.0745	843145	keystroke_h	h	n/a
421.752	0.06	843504	keystroke_e	e	n/a
421.8875	0.1045	843775	keystroke_m	m	n/a
422.577	0.075	845154	keystroke_i	i	n/a
422.682	0.135	845364	keystroke_c	c	n/a
422.832	0.105	845664	keystroke_a	a	n/a
423.0425	0.1045	846085	keystroke_l	l	n/a
423.192	0.09	846384	keystroke_s	s	n/a
423.357	0.09	846714	keystroke_Key.space	Key.space	n/a
423.687	0.075	847374	keystroke_s	s	n/a
423.852	0.06	847704	keystroke_a	a	n/a
423.987	0.075	847974	keystroke_n	n	n/a
424.182	0.075	848364	keystroke_d	d	n/a
424.587	0.045	849174	keystroke_w	w	n/a
424.842	0.045	849684	keystroke_i	i	n/a
425.127	0.06	850254	keystroke_c	c	n/a
425.742	0.075	851484	keystroke_h	h	n/a
426.042	0.06	852084	keystroke_Key.enter	Key.enter	n/a
426.1115	10.837	852223	prompt	n/a	dealtime cornwall varieties msgid\n
426.972	0.09	853944	keystroke_d	d	n/a
427.242	0.045	854484	keystroke_e	e	n/a
427.407	0.09	854814	keystroke_a	a	n/a
427.557	0.09	855114	keystroke_l	l	n/a
427.752	0.075	855504	keystroke_t	t	n/a
427.857	0.105	855714	keystroke_i	i	n/a
428.022	0.105	856044	keystroke_m	m	n/a
428.157	0.076	856314	keystroke_e	e	n/a
428.742	0.09	857484	keystroke_Key.space	Key.space	n/a
429.117	0.075	858234	keystroke_c	c	n/a
429.223	0.074	858446	keystroke_o	o	n/a
429.492	0.06	858984	keystroke_r	r	n/a
429.612	0.105	859224	keystroke_n	n	n/a
429.927	0.09	859854	keystroke_w	w	n/a
430.107	0.09	860214	keystroke_a	a	n/a
430.272	0.076	860544	keystroke_l	l	n/a
430.437	0.1345	860874	keystroke_l	l	n/a
430.6315	0.09	861263	keystroke_Key.space	Key.space	n/a
432.7165	0.075	865433	keystroke_v	v	n/a
433.0765	0.06	866153	keystroke_a	a	n/a
433.2715	0.075	866543	keystroke_r	r	n/a
433.4815	0.075	866963	keystroke_i	i	n/a
433.5715	0.06	867143	keystroke_e	e	n/a
433.7815	0.06	867563	keystroke_t	t	n/a
433.9615	0.06	867923	keystroke_i	i	n/a
434.0665	0.06	868133	keystroke_e	e	n/a
434.2615	0.075	868523	keystroke_s	s	n/a
434.3815	0.075	868763	keystroke_Key.space	Key.space	n/a
434.7265	0.09	869453	keystroke_m	m	n/a
434.8315	0.075	869663	keystroke_s	s	n/a
436.0315	0.075	872063	keystroke_g	g	n/a
436.2265	0.09	872453	keystroke_i	i	n/a
436.4665	0.075	872933	keystroke_d	d	n/a
436.8565	0.09	873713	keystroke_Key.enter	Key.enter	n/a
436.9565	7.957	873913	prompt	n/a	button santa contacted tell\n
438.1915	0.09	876383	keystroke_b	b	n/a
438.8515	0.09	877703	keystroke_u	u	n/a
439.0615	0.045	878123	keystroke_t	t	n/a
439.1665	0.075	878333	keystroke_t	t	n/a
439.3015	0.0745	878603	keystroke_o	o	n/a
439.496	0.135	878992	keystroke_n	n	n/a
439.646	0.1205	879292	keystroke_Key.space	Key.space	n/a
439.8415	0.0895	879683	keystroke_s	s	n/a
440.006	0.0905	880012	keystroke_a	a	n/a
440.127	0.104	880254	keystroke_n	n	n/a
440.322	0.075	880644	keystroke_t	t	n/a
440.891	0.09	881782	keystroke_a	a	n/a
441.116	0.09	882232	keystroke_Key.space	Key.space	n/a
441.791	0.075	883582	keystroke_c	c	n/a
441.851	0.075	883702	keystroke_o	o	n/a
442.001	0.121	884002	keystroke_n	n	n/a
442.152	0.104	884304	keystroke_t	t	n/a
442.316	0.105	884632	keystroke_a	a	n/a
442.512	0.104	885024	keystroke_c	c	n/a
442.722	0.075	885444	keystroke_t	t	n/a
442.916	0.075	885832	keystroke_e	e	n/a
443.111	0.061	886222	keystroke_d	d	n/a
443.666	0.09	887332	keystroke_Key.space	Key.space	n/a
443.951	0.105	887902	keystroke_t	t	n/a
444.161	0.075	888322	keystroke_e	e	n/a
444.356	0.075	888712	keystroke_l	l	n/a
444.522	0.104	889044	keystroke_l	l	n/a
444.822	0.089	889644	keystroke_Key.enter	Key.enter	n/a
444.918	8.38	889836	prompt	n/a	matters satellite announces hung\n
446.006	0.09	892012	keystroke_m	m	n/a
446.156	0.09	892312	keystroke_a	a	n/a
446.366	0.06	892732	keystroke_t	t	n/a
446.471	0.0895	892942	keystroke_t	t	n/a
446.6955	0.091	893391	keystroke_h	h	n/a
446.8005	0.045	893601	keystroke_e	e	n/a
446.8305	0.0755	893661	keystroke_r	r	n/a
447.1155	0.06	894231	keystroke_s	s	n/a
447.2355	0.061	894471	keystroke_Key.space	Key.space	n/a
447.7165	0.059	895433	keystroke_s	s	n/a
448.1205	0.06	896241	keystroke_a	a	n/a
448.2855	0.09	896571	keystroke_t	t	n/a
448.5705	0.061	897141	keystroke_e	e	n/a
448.7215	0.105	897443	keystroke_l	l	n/a
449.2455	0.12	898491	keystroke_l	l	n/a
449.5015	0.045	899003	keystroke_i	i	n/a
449.7255	0.06	899451	keystroke_t	t	n/a
449.9205	0.061	899841	keystroke_e	e	n/a
450.0705	0.09	900141	keystroke_Key.space	Key.space	n/a
450.2965	0.074	900593	keystroke_a	a	n/a
450.4755	0.045	900951	keystroke_n	n	n/a
450.6105	0.09	901221	keystroke_n	n	n/a
450.8205	0.12	901641	keystroke_o	o	n/a
450.9705	0.12	901941	keystroke_u	u	n/a
451.2255	0.075	902451	keystroke_n	n	n/a
451.4515	0.075	902903	keystroke_c	c	n/a
451.6605	0.061	903321	keystroke_e	e	n/a
451.8405	0.076	903681	keystroke_s	s	n/a
451.9605	0.091	903921	keystroke_Key.space	Key.space	n/a
452.2155	0.075	904431	keystroke_h	h	n/a
452.4265	0.059	904853	keystroke_u	u	n/a
452.8005	0.076	905601	keystroke_n	n	n/a
453.0105	0.06	906021	keystroke_g	g	n/a
453.2055	0.09	906411	keystroke_Key.enter	Key.enter	n/a
453.302	7.495	906604	prompt	n/a	deaths cargo marks furnished\n
454.7065	0.074	909413	keystroke_d	d	n/a
454.9155	0.06	909831	keystroke_e	e	n/a
455.1565	0.074	910313	keystroke_a	a	n/a
455.3805	0.061	910761	keystroke_t	t	n/a
455.5605	0.06	911121	keystroke_h	h	n/a
455.7865	0.045	911573	keystroke_s	s	n/a
455.8905	0.075	911781	keystroke_Key.space	Key.space	n/a
456.1605	0.075	912321	keystroke_c	c	n/a
456.2805	0.076	912561	keystroke_a	a	n/a
456.3715	0.075	912743	keystroke_r	r	n/a
456.6115	0.045	913223	keystroke_g	g	n/a
456.7615	0.104	913523	keystroke_o	o	n/a
456.9255	0.106	913851	keystroke_Key.space	Key.space	n/a
457.2715	0.06	914543	keystroke_m	m	n/a
457.5715	0.074	915143	keystroke_a	a	n/a
457.8865	0.06	915773	keystroke_r	r	n/a
458.1865	0.059	916373	keystroke_k	k	n/a
458.5305	0.09	917061	keystroke_s	s	n/a
458.7855	0.06	917571	keystroke_Key.space	Key.space	n/a
459.0405	0.076	918081	keystroke_f	f	n/a
459.1765	0.104	918353	keystroke_u	u	n/a
459.4155	0.061	918831	keystroke_r	r	n/a
459.5505	0.0755	919101	keystroke_n	n	n/a
459.76	0.06	919520	keystroke_i	i	n/a
459.896	0.089	919792	keystroke_s	s	n/a
460.061	0.06	920122	keystroke_h	h	n/a
460.165	0.075	920330	keystroke_e	e	n/a
460.435	0.091	920870	keystroke_d	d	n/a
460.721	0.074	921442	keystroke_Key.enter	Key.enter	n/a
460.8015	10.0465	921603	prompt	n/a	nation lane contemporary copyright\n
461.68	0.076	923360	keystroke_n	n	n/a
461.756	0.09	923512	keystroke_a	a	n/a
461.965	0.075	923930	keystroke_t	t	n/a
462.146	0.075	924292	keystroke_i	i	n/a
462.34	0.076	924680	keystroke_o	o	n/a
462.536	0.105	925072	keystroke_n	n	n/a
462.73	0.091	925460	keystroke_Key.space	Key.space	n/a
462.926	0.09	925852	keystroke_l	l	n/a
462.986	0.06	925972	keystroke_a	a	n/a
463.151	0.09	926302	keystroke_n	n	n/a
463.255	0.06	926510	keystroke_e	e	n/a
463.375	0.076	926750	keystroke_Key.space	Key.space	n/a
463.616	0.075	927232	keystroke_c	c	n/a
463.721	0.09	927442	keystroke_o	o	n/a
463.901	0.105	927802	keystroke_n	n	n/a
464.051	0.06	928102	keystroke_t	t	n/a
464.486	0.06	928972	keystroke_e	e	n/a
464.636	0.09	929272	keystroke_m	m	n/a
464.921	0.105	929842	keystroke_p	p	n/a
465.161	0.09	930322	keystroke_o	o	n/a
465.266	0.075	930532	keystroke_r	r	n/a
465.791	0.074	931582	keystroke_a	a	n/a
466.7045	0.061	933409	keystroke_r	r	n/a
467.0805	0.06	934161	keystroke_y	y	n/a
467.7705	0.059	935541	keystroke_Key.space	Key.space	n/a
468.6105	0.09	937221	keystroke_c	c	n/a
468.7605	0.105	937521	keystroke_o	o	n/a
468.9845	0.106	937969	keystroke_p	p	n/a
469.2255	0.09	938451	keystroke_y	y	n/a
469.7805	0.075	939561	keystroke_r	r	n/a
469.8855	0.09	939771	keystroke_i	i	n/a
470.0205	0.089	940041	keystroke_g	g	n/a
470.1555	0.075	940311	keystroke_h	h	n/a
470.2155	0.06	940431	keystroke_t	t	n/a
470.7555	0.09	941511	keystroke_Key.enter	Key.enter	n/a
470.854	11.123	941708	prompt	n/a	singh arbor kinase electro\n
471.9255	0.075	943851	keystroke_s	s	n/a
472.1055	0.09	944211	keystroke_i	i	n/a
472.3755	0.06	944751	keystroke_g	g	n/a
472.5855	0.075	945171	keystroke_h	h	n/a
473.9055	0.015	947811	keystroke_Key.backspace	Key.backspace	n/a
474.0255	0.09	948051	keystroke_Key.backspace	Key.backspace	n/a
474.4305	0.06	948861	keystroke_n	n	n/a
474.6705	0.075	949341	keystroke_g	g	n/a
476.1255	0.09	952251	keystroke_h	h	n/a
476.3505	0.09	952701	keystroke_Key.space	Key.space	n/a
476.6205	0.075	953241	keystroke_a	a	n/a
476.8455	0.075	953691	keystroke_r	r	n/a
477.1005	0.075	954201	keystroke_b	b	n/a
477.2055	0.09	954411	keystroke_o	o	n/a
477.3555	0.06	954711	keystroke_r	r	n/a
477.46	0.09	954920	keystroke_Key.space	Key.space	n/a
478	0.12	956000	keystroke_k	k	n/a
478.225	0.075	956450	keystroke_i	i	n/a
478.375	0.105	956750	keystroke_n	n	n/a
478.66	0.075	957320	keystroke_a	a	n/a
478.87	0.09	957740	keystroke_s	s	n/a
479.08	0.06	958160	keystroke_e	e	n/a
479.26	0.09	958520	keystroke_Key.space	Key.space	n/a
479.98	0.06	959960	keystroke_e	e	n/a
480.19	0.09	960380	keystroke_l	l	n/a
480.295	0.075	960590	keystroke_e	e	n/a
480.535	0.15	961070	keystroke_c	c	n/a
480.79	0.06	961580	keystroke_t	t	n/a
481	0.06	962000	keystroke_r	r	n/a
481.21	0.075	962420	keystroke_o	o	n/a
481.87	0.105	963740	keystroke_Key.enter	Key.enter	n/a
481.9825	9.0385	963965	prompt	n/a	xbox simple from index\n
482.77	0.06	965540	keystroke_s	s	n/a
483.835	0.12	967670	keystroke_Key.backspace	Key.backspace	n/a
484.075	0.09	968150	keystroke_x	x	n/a
484.405	0.015	968810	keystroke_b	b	n/a
484.78	0.075	969560	keystroke_o	o	n/a
485.065	0.09	970130	keystroke_x	x	n/a
485.41	0.09	970820	keystroke_Key.space	Key.space	n/a
487.2995	0.075	974599	keystroke_s	s	n/a
487.6895	0.09	975379	keystroke_i	i	n/a
487.8545	0.12	975709	keystroke_m	m	n/a
488.0645	0.105	976129	keystroke_p	p	n/a
488.3195	0.075	976639	keystroke_l	l	n/a
488.4095	0.06	976819	keystroke_e	e	n/a
488.6045	0.075	977209	keystroke_Key.space	Key.space	n/a
488.8745	0.075	977749	keystroke_f	f	n/a
489.0695	0.06	978139	keystroke_r	r	n/a
489.1445	0.105	978289	keystroke_o	o	n/a
489.2645	0.15	978529	keystroke_m	m	n/a
489.3995	0.12	978799	keystroke_Key.space	Key.space	n/a
489.6395	0.06	979279	keystroke_i	i	n/a
489.8195	0.09	979639	keystroke_n	n	n/a
489.9995	0.06	979999	keystroke_d	d	n/a
490.1645	0.06	980329	keystroke_e	e	n/a
490.5395	0.06	981079	keystroke_x	x	n/a
490.9145	0.105	981829	keystroke_Key.enter	Key.enter	n/a
491.0265	17.0345	982053	prompt	n/a	films might steal animation\n
491.8145	0.075	983629	keystroke_f	f	n/a
491.9345	0.0595	983869	keystroke_i	i	n/a
492.3845	0.09	984769	keystroke_l	l	n/a
492.639	0.0905	985278	keystroke_m	m	n/a
492.8645	0.06	985729	keystroke_s	s	n/a
492.9545	0.09	985909	keystroke_Key.space	Key.space	n/a
493.1645	0.135	986329	keystroke_m	m	n/a
493.2845	0.165	986569	keystroke_i	i	n/a
493.4795	0.1045	986959	keystroke_g	g	n/a
493.644	0.09	987288	keystroke_h	h	n/a
493.689	0.105	987378	keystroke_t	t	n/a
493.8245	0.1045	987649	keystroke_Key.space	Key.space	n/a
494.454	0.06	988908	keystroke_s	s	n/a
494.619	0.09	989238	keystroke_t	t	n/a
495.279	0.075	990558	keystroke_a	a	n/a
495.459	0.09	990918	keystroke_l	l	n/a
495.639	0.09	991278	keystroke_Key.space	Key.space	n/a
495.954	0.06	991908	keystroke_a	a	n/a
496.089	0.09	992178	keystroke_n	n	n/a
496.209	0.09	992418	keystroke_a	a	n/a
496.419	0.075	992838	keystroke_m	m	n/a
497.394	0.105	994788	keystroke_Key.backspace	Key.backspace	n/a
497.574	0.12	995148	keystroke_Key.backspace	Key.backspace	n/a
498.009	0.075	996018	keystroke_i	i	n/a
498.264	0.075	996528	keystroke_m	m	n/a
498.369	0.076	996738	keystroke_a	a	n/a
498.594	0.06	997188	keystroke_t	t	n/a
498.729	0.075	997458	keystroke_i	i	n/a
498.924	0.075	997848	keystroke_o	o	n/a
499.134	0.06	998268	keystroke_n	n	n/a
501.807	0.012	1003614	keystroke_Key.backspace	Key.backspace	n/a
501.954	0.075	1003908	keystroke_Key.backspace	Key.backspace	n/a
502.179	0.09	1004358	keystroke_Key.backspace	Key.backspace	n/a
502.389	0.09	1004778	keystroke_Key.backspace	Key.backspace	n/a
502.629	0.09	1005258	keystroke_Key.backspace	Key.backspace	n/a
502.869	0.09	1005738	keystroke_Key.backspace	Key.backspace	n/a
503.094	0.09	1006188	keystroke_Key.backspace	Key.backspace	n/a
503.334	0.09	1006668	keystroke_Key.backspace	Key.backspace	n/a
503.559	0.09	1007118	keystroke_Key.backspace	Key.backspace	n/a
503.799	0.075	1007598	keystroke_Key.backspace	Key.backspace	n/a
504.009	0.09	1008018	keystroke_Key.backspace	Key.backspace	n/a
504.354	0.075	1008708	keystroke_Key.backspace	Key.backspace	n/a
504.714	0.06	1009428	keystroke_e	e	n/a
504.984	0.075	1009968	keystroke_a	a	n/a
505.524	0.105	1011048	keystroke_l	l	n/a
505.779	0.09	1011558	keystroke_Key.space	Key.space	n/a
506.079	0.075	1012158	keystroke_a	a	n/a
506.214	0.15	1012428	keystroke_n	n	n/a
506.514	0.09	1013028	keystroke_i	i	n/a
506.724	0.075	1013448	keystroke_m	m	n/a
506.889	0.09	1013778	keystroke_a	a	n/a
507.129	0.045	1014258	keystroke_t	t	n/a
507.234	0.09	1014468	keystroke_i	i	n/a
507.444	0.105	1014888	keystroke_o	o	n/a
507.654	0.09	1015308	keystroke_n	n	n/a
507.954	0.105	1015908	keystroke_Key.enter	Key.enter	n/a
508.066	21.1145	1016132	prompt	n/a	struct fares presentation integral\n
508.8835	0.12	1017767	keystroke_a	a	n/a
509.1385	0.09	1018277	keystroke_t	t	n/a
509.3635	0.06	1018727	keystroke_r	r	n/a
509.5885	0.06	1019177	keystroke_u	u	n/a
509.8735	0.09	1019747	keystroke_c	c	n/a
510.0835	0.075	1020167	keystroke_t	t	n/a
510.2485	0.075	1020497	keystroke_Key.space	Key.space	n/a
510.4735	0.06	1020947	keystroke_f	f	n/a
510.6385	0.06	1021277	keystroke_a	a	n/a
511.1185	0.075	1022237	keystroke_r	r	n/a
511.3435	0.075	1022687	keystroke_e	e	n/a
512.4835	0.075	1024967	keystroke_Key.backspace	Key.backspace	n/a
512.6635	0.105	1025327	keystroke_Key.backspace	Key.backspace	n/a
512.8585	0.105	1025717	keystroke_Key.backspace	Key.backspace	n/a
513.0535	0.09	1026107	keystroke_Key.backspace	Key.backspace	n/a
513.2485	0.09	1026497	keystroke_Key.backspace	Key.backspace	n/a
513.4435	0.105	1026887	keystroke_Key.backspace	Key.backspace	n/a
513.6535	0.075	1027307	keystroke_Key.backspace	Key.backspace	n/a
513.8785	0.075	1027757	keystroke_Key.backspace	Key.backspace	n/a
514.0585	0.12	1028117	keystroke_Key.backspace	Key.backspace	n/a
514.2535	0.09	1028507	keystroke_Key.backspace	Key.backspace	n/a
514.4485	0.12	1028897	keystroke_Key.backspace	Key.backspace	n/a
515.5735	0.06	1031147	keystroke_s	s	n/a
516.6235	0.045	1033247	keystroke_t	t	n/a
516.9085	0.075	1033817	keystroke_r	r	n/a
517.1485	0.06	1034297	keystroke_u	u	n/a
517.5395	0.104	1035079	keystroke_c	c	n/a
517.7935	0.06	1035587	keystroke_t	t	n/a
517.9435	0.075	1035887	keystroke_Key.space	Key.space	n/a
518.1235	0.075	1036247	keystroke_f	f	n/a
518.2735	0.09	1036547	keystroke_a	a	n/a
518.5135	0.075	1037027	keystroke_r	r	n/a
518.7235	0.075	1037447	keystroke_e	e	n/a
519.0835	0.09	1038167	keystroke_s	s	n/a
519.3685	0.075	1038737	keystroke_Key.space	Key.space	n/a
519.9385	0.09	1039877	keystroke_p	p	n/a
520.1785	0.0895	1040357	keystroke_r	r	n/a
520.373	0.075	1040746	keystroke_e	e	n/a
520.583	0.09	1041166	keystroke_s	s	n/a
521.123	0.0755	1042246	keystroke_e	e	n/a
521.2585	0.075	1042517	keystroke_n	n	n/a
521.453	0.09	1042906	keystroke_t	t	n/a
521.663	0.09	1043326	keystroke_a	a	n/a
521.888	0.06	1043776	keystroke_t	t	n/a
522.038	0.09	1044076	keystroke_i	i	n/a
522.233	0.09	1044466	keystroke_o	o	n/a
522.443	0.165	1044886	keystroke_n	n	n/a
522.578	0.135	1045156	keystroke_Key.space	Key.space	n/a
522.773	0.075	1045546	keystroke_i	i	n/a
523.013	0.09	1046026	keystroke_t	t	n/a
523.223	0.045	1046446	keystroke_e	e	n/a
523.479	0.074	1046958	keystroke_g	g	n/a
523.673	0.06	1047346	keystroke_r	r	n/a
523.793	0.09	1047586	keystroke_a	a	n/a
524.018	0.09	1048036	keystroke_l	l	n/a
524.378	0.09	1048756	keystroke_Key.backspace	Key.backspace	n/a
524.588	0.09	1049176	keystroke_Key.backspace	Key.backspace	n/a
524.768	0.09	1049536	keystroke_Key.backspace	Key.backspace	n/a
524.948	0.09	1049896	keystroke_Key.backspace	Key.backspace	n/a
525.143	0.075	1050286	keystroke_Key.backspace	Key.backspace	n/a
525.338	0.075	1050676	keystroke_Key.backspace	Key.backspace	n/a
526.178	0.075	1052356	keystroke_n	n	n/a
526.583	0.075	1053166	keystroke_t	t	n/a
526.898	0.075	1053796	keystroke_e	e	n/a
527.198	0.075	1054396	keystroke_g	g	n/a
527.483	0.076	1054966	keystroke_r	r	n/a
527.754	0.059	1055508	keystroke_a	a	n/a
528.068	0.06	1056136	keystroke_l	l	n/a
529.088	0.09	1058176	keystroke_Key.enter	Key.enter	n/a
529.1875	9.803	1058375	prompt	n/a	spotlight literature your nepal\n
530.018	0.09	1060036	keystroke_s	s	n/a
530.138	0.105	1060276	keystroke_p	p	n/a
530.408	0.09	1060816	keystroke_o	o	n/a
530.619	0.059	1061238	keystroke_t	t	n/a
530.813	0.105	1061626	keystroke_l	l	n/a
531.038	0.06	1062076	keystroke_i	i	n/a
531.293	0.06	1062586	keystroke_g	g	n/a
531.503	0.045	1063006	keystroke_h	h	n/a
531.728	0.045	1063456	keystroke_t	t	n/a
532.268	0.075	1064536	keystroke_Key.space	Key.space	n/a
532.658	0.09	1065316	keystroke_l	l	n/a
532.869	0.059	1065738	keystroke_i	i	n/a
533.048	0.075	1066096	keystroke_t	t	n/a
533.258	0.09	1066516	keystroke_e	e	n/a
533.468	0.0595	1066936	keystroke_r	r	n/a
533.6175	0.105	1067235	keystroke_a	a	n/a
533.7975	0.076	1067595	keystroke_t	t	n/a
533.9935	0.059	1067987	keystroke_u	u	n/a
534.1875	0.06	1068375	keystroke_r	r	n/a
534.4875	0.06	1068975	keystroke_e	e	n/a
534.6975	0.06	1069395	keystroke_d	d	n/a
535.6125	0.09	1071225	keystroke_Key.backspace	Key.backspace	n/a
535.9575	0.075	1071915	keystroke_Key.space	Key.space	n/a
536.2735	0.075	1072547	keystroke_y	y	n/a
536.4525	0.105	1072905	keystroke_o	o	n/a
536.6625	0.06	1073325	keystroke_u	u	n/a
536.8575	0.061	1073715	keystroke_r	r	n/a
537.0975	0.075	1074195	keystroke_Key.space	Key.space	n/a
537.3385	0.075	1074677	keystroke_n	n	n/a
537.4575	0.076	1074915	keystroke_e	e	n/a
537.7285	0.09	1075457	keystroke_p	p	n/a
538.0425	0.09	1076085	keystroke_a	a	n/a
538.3125	0.015	1076625	keystroke_l	l	n/a
538.9275	0.061	1077855	keystroke_Key.enter	Key.enter	n/a
538.995	7.3295	1077990	prompt	n/a	boots treating bloom buttons\n
540.1735	0.06	1080347	keystroke_b	b	n/a
540.3075	0.06	1080615	keystroke_o	o	n/a
540.4725	0.075	1080945	keystroke_o	o	n/a
540.5625	0.061	1081125	keystroke_t	t	n/a
540.7275	0.075	1081455	keystroke_s	s	n/a
540.8325	0.075	1081665	keystroke_Key.space	Key.space	n/a
541.5075	0.091	1083015	keystroke_t	t	n/a
541.7025	0.09	1083405	keystroke_r	r	n/a
542.0175	0.075	1084035	keystroke_e	e	n/a
542.1975	0.076	1084395	keystroke_a	a	n/a
542.5575	0.061	1085115	keystroke_t	t	n/a
542.6625	0.091	1085325	keystroke_i	i	n/a
542.8585	0.09	1085717	keystroke_n	n	n/a
542.9325	0.075	1085865	keystroke_g	g	n/a
543.0375	0.106	1086075	keystroke_Key.space	Key.space	n/a
543.2025	0.075	1086405	keystroke_b	b	n/a
543.3225	0.091	1086645	keystroke_l	l	n/a
543.5335	0.074	1087067	keystroke_o	o	n/a
543.6835	0.089	1087367	keystroke_o	o	n/a
543.8925	0.091	1087785	keystroke_m	m	n/a
544.0875	0.076	1088175	keystroke_Key.space	Key.space	n/a
544.7175	0.06	1089435	keystroke_b	b	n/a
544.8375	0.09	1089675	keystroke_u	u	n/a
545.0035	0.045	1090007	keystroke_t	t	n/a
545.1075	0.075	1090215	keystroke_t	t	n/a
545.1985	0.075	1090397	keystroke_o	o	n/a
545.3625	0.091	1090725	keystroke_n	n	n/a
545.4675	0.076	1090935	keystroke_s	s	n/a
546.233	0.0895	1092466	keystroke_Key.enter	Key.enter	n/a
546.329	9.835	1092658	prompt	n/a	argument midi examinations attached\n
547.162	0.075	1094324	keystroke_a	a	n/a
547.748	0.074	1095496	keystroke_r	r	n/a
547.972	0.076	1095944	keystroke_g	g	n/a
548.138	0.074	1096276	keystroke_u	u	n/a
548.3775	0.0905	1096755	keystroke_m	m	n/a
548.4225	0.0905	1096845	keystroke_e	e	n/a
548.618	0.09	1097236	keystroke_n	n	n/a
548.693	0.059	1097386	keystroke_t	t	n/a
548.858	0.075	1097716	keystroke_Key.space	Key.space	n/a
549.038	0.09	1098076	keystroke_m	m	n/a
549.158	0.135	1098316	keystroke_i	i	n/a
549.428	0.06	1098856	keystroke_d	d	n/a
549.518	0.075	1099036	keystroke_i	i	n/a
549.772	0.075	1099544	keystroke_Key.space	Key.space	n/a
550.327	0.06	1100654	keystroke_e	e	n/a
550.538	0.089	1101076	keystroke_x	x	n/a
550.703	0.089	1101406	keystroke_a	a	n/a
550.868	0.12	1101736	keystroke_m	m	n/a
551.108	0.075	1102216	keystroke_i	i	n/a
551.302	0.076	1102604	keystroke_n	n	n/a
551.648	0.075	1103296	keystroke_a	a	n/a
551.843	0.044	1103686	keystroke_t	t	n/a
551.963	0.09	1103926	keystroke_i	i	n/a
552.128	0.105	1104256	keystroke_o	o	n/a
552.293	0.104	1104586	keystroke_n	n	n/a
552.443	0.075	1104886	keystroke_s	s	n/a
552.592	0.075	1105184	keystroke_Key.space	Key.space	n/a
553.043	0.045	1106086	keystroke_e	e	n/a
553.552	0.045	1107104	keystroke_Key.backspace	Key.backspace	n/a
554.212	0.076	1108424	keystroke_a	a	n/a
554.438	0.059	1108876	keystroke_t	t	n/a
554.558	0.09	1109116	keystroke_t	t	n/a
554.708	0.075	1109416	keystroke_a	a	n/a
554.918	0.075	1109836	keystroke_c	c	n/a
555.068	0.075	1110136	keystroke_h	h	n/a
555.188	0.045	1110376	keystroke_e	e	n/a
555.443	0.06	1110886	keystroke_d	d	n/a
556.088	0.0735	1112176	keystroke_Key.enter	Key.enter	n/a
556.1685	5.5005	1112337	prompt	n/a	timber site para mens\n
557.2575	0.09	1114515	keystroke_t	t	n/a
557.3925	0.075	1114785	keystroke_i	i	n/a
557.5265	0.136	1115053	keystroke_m	m	n/a
558.0075	0.06	1116015	keystroke_b	b	n/a
558.2325	0.075	1116465	keystroke_e	e	n/a
558.2925	0.075	1116585	keystroke_r	r	n/a
558.5475	0.075	1117095	keystroke_Key.space	Key.space	n/a
558.8325	0.06	1117665	keystroke_s	s	n/a
558.9375	0.075	1117875	keystroke_i	i	n/a
559.1015	0.091	1118203	keystroke_t	t	n/a
559.3425	0.045	1118685	keystroke_e	e	n/a
559.4775	0.089	1118955	keystroke_Key.space	Key.space	n/a
559.6575	0.09	1119315	keystroke_p	p	n/a
559.7325	0.09	1119465	keystroke_a	a	n/a
560.0925	0.045	1120185	keystroke_r	r	n/a
560.4675	0.075	1120935	keystroke_a	a	n/a
560.6925	0.09	1121385	keystroke_Key.space	Key.space	n/a
560.8875	0.09	1121775	keystroke_m	m	n/a
560.9625	0.075	1121925	keystroke_e	e	n/a
561.1575	0.06	1122315	keystroke_n	n	n/a
561.3825	0.075	1122765	keystroke_s	s	n/a
561.5925	0.075	1123185	keystroke_Key.enter	Key.enter	n/a
561.677	7.7775	1123354	prompt	n/a	calls journalists childhood dose\n
562.4625	0.075	1124925	keystroke_c	c	n/a
562.5975	0.09	1125195	keystroke_a	a	n/a
562.7475	0.075	1125495	keystroke_l	l	n/a
562.8975	0.105	1125795	keystroke_l	l	n/a
563.0175	0.06	1126035	keystroke_s	s	n/a
563.1225	0.075	1126245	keystroke_Key.space	Key.space	n/a
563.3775	0.15	1126755	keystroke_j	j	n/a
563.8425	0.105	1127685	keystroke_o	o	n/a
563.9015	0.121	1127803	keystroke_u	u	n/a
564.3825	0.06	1128765	keystroke_r	r	n/a
564.5325	0.09	1129065	keystroke_n	n	n/a
564.6525	0.09	1129305	keystroke_a	a	n/a
564.7725	0.09	1129545	keystroke_l	l	n/a
565.0575	0.06	1130115	keystroke_i	i	n/a
565.1325	0.105	1130265	keystroke_s	s	n/a
565.3125	0.075	1130625	keystroke_t	t	n/a
565.5075	0.06	1131015	keystroke_s	s	n/a
566.2275	0.015	1132455	keystroke_Key.space	Key.space	n/a
566.6325	0.075	1133265	keystroke_c	c	n/a
566.7525	0.075	1133505	keystroke_h	h	n/a
566.9175	0.09	1133835	keystroke_i	i	n/a
567.1125	0.105	1134225	keystroke_l	l	n/a
567.2025	0.075	1134405	keystroke_d	d	n/a
567.4875	0.06	1134975	keystroke_h	h	n/a
567.6675	0.06	1135335	keystroke_o	o	n/a
567.8025	0.105	1135605	keystroke_o	o	n/a
567.9975	0.075	1135995	keystroke_d	d	n/a
568.1325	0.075	1136265	keystroke_Key.space	Key.space	n/a
568.6575	0.0895	1137315	keystroke_d	d	n/a
568.762	0.0605	1137524	keystroke_o	o	n/a
568.972	0.075	1137944	keystroke_s	s	n/a
569.1975	0.0445	1138395	keystroke_e	e	n/a
569.392	0.06	1138784	keystroke_Key.enter	Key.enter	n/a
569.4595	6.6845	1138919	prompt	n/a	floral indoor households works\n
570.3375	0.09	1140675	keystroke_f	f	n/a
570.4125	0.105	1140825	keystroke_l	l	n/a
570.6225	0.09	1141245	keystroke_o	o	n/a
570.6975	0.075	1141395	keystroke_r	r	n/a
570.8325	0.09	1141665	keystroke_a	a	n/a
570.9675	0.075	1141935	keystroke_l	l	n/a
571.0725	0.105	1142145	keystroke_Key.space	Key.space	n/a
571.2675	0.075	1142535	keystroke_i	i	n/a
571.8375	0.06	1143675	keystroke_n	n	n/a
571.9125	0.075	1143825	keystroke_d	d	n/a
572.1225	0.06	1144245	keystroke_o	o	n/a
572.2875	0.075	1144575	keystroke_o	o	n/a
572.5125	0.06	1145025	keystroke_r	r	n/a
572.707	0.06	1145414	keystroke_Key.space	Key.space	n/a
573.142	0.0755	1146284	keystroke_h	h	n/a
573.3075	0.105	1146615	keystroke_o	o	n/a
573.382	0.1055	1146764	keystroke_u	u	n/a
573.637	0.075	1147274	keystroke_s	s	n/a
573.8025	0.06	1147605	keystroke_e	e	n/a
573.982	0.075	1147964	keystroke_h	h	n/a
574.147	0.09	1148294	keystroke_o	o	n/a
574.3575	0.09	1148715	keystroke_l	l	n/a
574.4175	0.075	1148835	keystroke_d	d	n/a
574.6575	0.06	1149315	keystroke_s	s	n/a
574.8075	0.075	1149615	keystroke_Key.space	Key.space	n/a
575.0025	0.06	1150005	keystroke_w	w	n/a
575.0775	0.1195	1150155	keystroke_o	o	n/a
575.2125	0.09	1150425	keystroke_r	r	n/a
575.347	0.0755	1150694	keystroke_k	k	n/a
575.7075	0.06	1151415	keystroke_s	s	n/a
576.082	0.06	1152164	keystroke_Key.enter	Key.enter	n/a
576.1485	16.856	1152297	prompt	n/a	intensity investigation columns established\n
580.885	0.012	1161770	keystroke_i	i	n/a
581.032	0.045	1162064	keystroke_n	n	n/a
581.092	0.09	1162184	keystroke_t	t	n/a
581.287	0.045	1162574	keystroke_e	e	n/a
581.407	0.09	1162814	keystroke_n	n	n/a
581.617	0.06	1163234	keystroke_s	s	n/a
581.722	0.075	1163444	keystroke_i	i	n/a
581.827	0.06	1163654	keystroke_t	t	n/a
582.007	0.105	1164014	keystroke_y	y	n/a
582.127	0.105	1164254	keystroke_Key.space	Key.space	n/a
582.337	0.075	1164674	keystroke_i	i	n/a
582.472	0.12	1164944	keystroke_n	n	n/a
582.682	0.12	1165364	keystroke_v	v	n/a
582.862	0.075	1165724	keystroke_e	e	n/a
583.057	0.12	1166114	keystroke_s	s	n/a
583.147	0.075	1166294	keystroke_t	t	n/a
583.342	0.06	1166684	keystroke_i	i	n/a
583.522	0.075	1167044	keystroke_g	g	n/a
583.627	0.15	1167254	keystroke_a	a	n/a
583.747	0.075	1167494	keystroke_t	t	n/a
583.867	0.21	1167734	keystroke_i	i	n/a
583.927	0.21	1167854	keystroke_o	o	n/a
584.017	0.135	1168034	keystroke_n	n	n/a
584.122	0.12	1168244	keystroke_Key.space	Key.space	n/a
584.467	0.09	1168934	keystroke_c	c	n/a
584.602	0.105	1169204	keystroke_o	o	n/a
584.857	0.135	1169714	keystroke_l	l	n/a
585.052	0.09	1170104	keystroke_u	u	n/a
585.292	0.09	1170584	keystroke_m	m	n/a
585.397	0.09	1170794	keystroke_s	s	n/a
586.402	0.075	1172804	keystroke_Key.backspace	Key.backspace	n/a
588.052	0.075	1176104	keystroke_n	n	n/a
588.757	0.09	1177514	keystroke_s	s	n/a
588.892	0.105	1177784	keystroke_Key.space	Key.space	n/a
589.192	0.06	1178384	keystroke_e	e	n/a
589.387	0.09	1178774	keystroke_s	s	n/a
589.462	0.105	1178924	keystroke_t	t	n/a
589.687	0.075	1179374	keystroke_a	a	n/a
589.942	0.045	1179884	keystroke_b	b	n/a
590.062	0.09	1180124	keystroke_l	l	n/a
590.272	0.075	1180544	keystroke_i	i	n/a
590.362	0.09	1180724	keystroke_s	s	n/a
590.527	0.075	1181054	keystroke_h	h	n/a
590.542	0.045	1181084	keystroke_j	j	n/a
590.617	0.045	1181234	keystroke_e	e	n/a
590.842	0.06	1181684	keystroke_d	d	n/a
591.652	0.06	1183304	keystroke_Key.backspace	Key.backspace	n/a
591.847	0.09	1183694	keystroke_Key.backspace	Key.backspace	n/a
592.042	0.105	1184084	keystroke_Key.backspace	Key.backspace	n/a
592.567	0.06	1185134	keystroke_e	e	n/a
592.762	0.06	1185524	keystroke_d	d	n/a
592.927	0.075	1185854	keystroke_Key.enter	Key.enter	n/a
593.009	6.5505	1186018	prompt	n/a	replacement ends fred schemes\n
594.292	0.12	1188584	keystroke_r	r	n/a
594.382	0.105	1188764	keystroke_e	e	n/a
594.562	0.105	1189124	keystroke_p	p	n/a
594.757	0.105	1189514	keystroke_l	l	n/a
594.832	0.09	1189664	keystroke_a	a	n/a
595.027	0.075	1190054	keystroke_c	c	n/a
595.192	0.06	1190384	keystroke_e	e	n/a
595.267	0.105	1190534	keystroke_m	m	n/a
595.387	0.075	1190774	keystroke_e	e	n/a
595.552	0.075	1191104	keystroke_n	n	n/a
595.657	0.06	1191314	keystroke_t	t	n/a
595.822	0.09	1191644	keystroke_Key.space	Key.space	n/a
596.137	0.06	1192274	keystroke_e	e	n/a
596.242	0.09	1192484	keystroke_n	n	n/a
596.467	0.075	1192934	keystroke_d	d	n/a
596.617	0.075	1193234	keystroke_s	s	n/a
596.767	0.09	1193534	keystroke_Key.space	Key.space	n/a
596.977	0.075	1193954	keystroke_f	f	n/a
597.157	0.06	1194314	keystroke_r	r	n/a
597.322	0.075	1194644	keystroke_e	e	n/a
597.517	0.06	1195034	keystroke_d	d	n/a
597.607	0.09	1195214	keystroke_Key.space	Key.space	n/a
597.9675	0.075	1195935	keystroke_s	s	n/a
598.1475	0.09	1196295	keystroke_c	c	n/a
598.2975	0.06	1196595	keystroke_h	h	n/a
598.4175	0.06	1196835	keystroke_e	e	n/a
598.5975	0.09	1197195	keystroke_m	m	n/a
598.7025	0.075	1197405	keystroke_e	e	n/a
598.9125	0.075	1197825	keystroke_s	s	n/a
599.453	0.1045	1198906	keystroke_Key.enter	Key.enter	n/a
599.564	6.883	1199128	prompt	n/a	scanners cities become reflect\n
600.443	0.075	1200886	keystroke_s	s	n/a
600.593	0.09	1201186	keystroke_c	c	n/a
600.773	0.09	1201546	keystroke_a	a	n/a
600.983	0.045	1201966	keystroke_n	n	n/a
601.133	0.0755	1202266	keystroke_n	n	n/a
601.2985	0.105	1202597	keystroke_e	e	n/a
601.3585	0.105	1202717	keystroke_r	r	n/a
601.6135	0.06	1203227	keystroke_s	s	n/a
601.7635	0.105	1203527	keystroke_Key.space	Key.space	n/a
602.1835	0.09	1204367	keystroke_c	c	n/a
602.3335	0.075	1204667	keystroke_i	i	n/a
602.4385	0.045	1204877	keystroke_t	t	n/a
602.5585	0.075	1205117	keystroke_i	i	n/a
602.6935	0.06	1205387	keystroke_e	e	n/a
602.919	0.045	1205838	keystroke_s	s	n/a
603.384	0.105	1206768	keystroke_Key.space	Key.space	n/a
603.669	0.075	1207338	keystroke_b	b	n/a
603.879	0.075	1207758	keystroke_e	e	n/a
604.149	0.075	1208298	keystroke_c	c	n/a
604.269	0.09	1208538	keystroke_o	o	n/a
604.434	0.135	1208868	keystroke_m	m	n/a
604.554	0.06	1209108	keystroke_e	e	n/a
604.659	0.105	1209318	keystroke_Key.space	Key.space	n/a
604.9145	0.075	1209829	keystroke_r	r	n/a
604.9595	0.09	1209919	keystroke_e	e	n/a
605.1995	0.075	1210399	keystroke_f	f	n/a
605.3495	0.09	1210699	keystroke_l	l	n/a
605.4695	0.06	1210939	keystroke_e	e	n/a
605.6795	0.076	1211359	keystroke_c	c	n/a
605.8295	0.06	1211659	keystroke_t	t	n/a
606.3545	0.09	1212709	keystroke_Key.enter	Key.enter	n/a
606.451	8.6835	1212902	prompt	n/a	worm complications mono apps\n
607.315	0.105	1214630	keystroke_w	w	n/a
607.45	0.105	1214900	keystroke_o	o	n/a
607.57	0.06	1215140	keystroke_r	r	n/a
607.69	0.15	1215380	keystroke_k	k	n/a
608.7855	0.0745	1217571	keystroke_Key.backspace	Key.backspace	n/a
609.9705	0.09	1219941	keystroke_m	m	n/a
610.1205	0.135	1220241	keystroke_Key.space	Key.space	n/a
610.3155	0.105	1220631	keystroke_c	c	n/a
610.3905	0.135	1220781	keystroke_o	o	n/a
610.496	0.2695	1220992	keystroke_m	m	n/a
610.7815	0.059	1221563	keystroke_p	p	n/a
611.456	0.105	1222912	keystroke_l	l	n/a
611.681	0.045	1223362	keystroke_i	i	n/a
611.786	0.12	1223572	keystroke_c	c	n/a
611.921	0.045	1223842	keystroke_a	a	n/a
612.281	0.075	1224562	keystroke_t	t	n/a
612.386	0.09	1224772	keystroke_i	i	n/a
612.566	0.165	1225132	keystroke_o	o	n/a
612.701	0.12	1225402	keystroke_n	n	n/a
613.2425	0.104	1226485	keystroke_s	s	n/a
613.4665	0.12	1226933	keystroke_Key.space	Key.space	n/a
613.6615	0.105	1227323	keystroke_m	m	n/a
613.7815	0.105	1227563	keystroke_o	o	n/a
614.0065	0.06	1228013	keystroke_n	n	n/a
614.0965	0.09	1228193	keystroke_o	o	n/a
614.3365	0.09	1228673	keystroke_Key.space	Key.space	n/a
614.4715	0.09	1228943	keystroke_a	a	n/a
614.5765	0.06	1229153	keystroke_p	p	n/a
614.7265	0.075	1229453	keystroke_p	p	n/a
614.8315	0.075	1229663	keystroke_s	s	n/a
615.0715	0.06	1230143	keystroke_Key.enter	Key.enter	n/a
615.1395	30.1645	1230279	prompt	n/a	associated antibodies xanax detection\n
616.033	0.075	1232066	keystroke_a	a	n/a
616.227	0.075	1232454	keystroke_s	s	n/a
616.377	0.075	1232754	keystroke_s	s	n/a
616.437	0.091	1232874	keystroke_o	o	n/a
616.602	0.06	1233204	keystroke_c	c	n/a
616.707	0.075	1233414	keystroke_i	i	n/a
616.842	0.151	1233684	keystroke_a	a	n/a
616.947	0.09	1233894	keystroke_t	t	n/a
617.052	0.06	1234104	keystroke_e	e	n/a
617.233	0.044	1234466	keystroke_d	d	n/a
617.502	0.09	1235004	keystroke_Key.space	Key.space	n/a
617.697	0.075	1235394	keystroke_a	a	n/a
617.787	0.09	1235574	keystroke_n	n	n/a
618.0575	0.06	1236115	keystroke_i	i	n/a
618.2085	0.059	1236417	keystroke_t	t	n/a
618.4325	0.076	1236865	keystroke_o	o	n/a
618.6875	0.06	1237375	keystroke_d	d	n/a
618.9875	0.061	1237975	keystroke_i	i	n/a
619.0635	0.059	1238127	keystroke_e	e	n/a
619.2585	0.075	1238517	keystroke_s	s	n/a
619.3925	0.09	1238785	keystroke_Key.space	Key.space	n/a
619.8435	0.045	1239687	keystroke_x	x	n/a
620.2475	0.0755	1240495	keystroke_a	a	n/a
620.413	0.06	1240826	keystroke_n	n	n/a
620.503	0.075	1241006	keystroke_a	a	n/a
621.838	0.06	1243676	keystroke_Key.backspace	Key.backspace	n/a
622.003	0.075	1244006	keystroke_Key.backspace	Key.backspace	n/a
622.184	0.089	1244368	keystroke_Key.backspace	Key.backspace	n/a
622.348	0.09	1244696	keystroke_Key.backspace	Key.backspace	n/a
622.5435	0.075	1245087	keystroke_Key.backspace	Key.backspace	n/a
622.7235	0.075	1245447	keystroke_Key.backspace	Key.backspace	n/a
622.8885	0.09	1245777	keystroke_Key.backspace	Key.backspace	n/a
623.0835	0.075	1246167	keystroke_Key.backspace	Key.backspace	n/a
623.8635	0.09	1247727	keystroke_Key.backspace	Key.backspace	n/a
624.944	0.075	1249888	keystroke_Key.backspace	Key.backspace	n/a
626.249	0.0755	1252498	keystroke_i	i	n/a
626.4595	0.0755	1252919	keystroke_b	b	n/a
626.5645	0.121	1253129	keystroke_o	o	n/a
626.7445	0.09	1253489	keystroke_d	d	n/a
626.8495	0.09	1253699	keystroke_i	i	n/a
626.9545	0.061	1253909	keystroke_e	e	n/a
627.1655	0.074	1254331	keystroke_s	s	n/a
627.8395	0.075	1255679	keystroke_Key.space	Key.space	n/a
628.3655	0.089	1256731	keystroke_x	x	n/a
628.62	0.076	1257240	keystroke_a	a	n/a
628.771	0.09	1257542	keystroke_n	n	n/a
629.205	0.09	1258410	keystroke_a	a	n/a
632.104	0.011	1264208	keystroke_Key.backspace	Key.backspace	n/a
632.235	0.105	1264470	keystroke_Key.backspace	Key.backspace	n/a
632.43	0.091	1264860	keystroke_Key.backspace	Key.backspace	n/a
632.64	0.09	1265280	keystroke_Key.backspace	Key.backspace	n/a
632.85	0.075	1265700	keystroke_Key.backspace	Key.backspace	n/a
633.031	0.104	1266062	keystroke_Key.backspace	Key.backspace	n/a
633.256	0.09	1266512	keystroke_Key.backspace	Key.backspace	n/a
633.466	0.104	1266932	keystroke_Key.backspace	Key.backspace	n/a
633.735	0.1205	1267470	keystroke_Key.backspace	Key.backspace	n/a
634.0805	0.135	1268161	keystroke_Key.backspace	Key.backspace	n/a
634.5155	0.105	1269031	keystroke_Key.backspace	Key.backspace	n/a
634.9955	0.09	1269991	keystroke_Key.backspace	Key.backspace	n/a
635.6255	0.06	1271251	keystroke_Key.backspace	Key.backspace	n/a
636.437	0.06	1272874	keystroke_Key.backspace	Key.backspace	n/a
636.977	0.06	1273954	keystroke_t	t	n/a
637.322	0.075	1274644	keystroke_i	i	n/a
637.951	0.046	1275902	keystroke_b	b	n/a
638.4175	0.075	1276835	keystroke_o	o	n/a
638.7175	0.075	1277435	keystroke_d	d	n/a
639.0775	0.044	1278155	keystroke_i	i	n/a
639.3625	0.075	1278725	keystroke_e	e	n/a
639.677	0.0745	1279354	keystroke_s	s	n/a
640.4715	0.076	1280943	keystroke_Key.space	Key.space	n/a
640.697	0.075	1281394	keystroke_x	x	n/a
640.982	0.075	1281964	keystroke_a	a	n/a
641.177	0.045	1282354	keystroke_n	n	n/a
641.387	0.075	1282774	keystroke_a	a	n/a
641.626	0.076	1283252	keystroke_x	x	n/a
642.152	0.074	1284304	keystroke_Key.space	Key.space	n/a
642.7075	0.075	1285415	keystroke_d	d	n/a
642.8875	0.06	1285775	keystroke_e	e	n/a
643.0825	0.075	1286165	keystroke_t	t	n/a
643.2925	0.045	1286585	keystroke_e	e	n/a
643.9525	0.074	1287905	keystroke_c	c	n/a
644.1775	0.045	1288355	keystroke_t	t	n/a
644.3425	0.06	1288685	keystroke_i	i	n/a
644.5525	0.09	1289105	keystroke_o	o	n/a
644.7925	0.06	1289585	keystroke_n	n	n/a
645.2125	0.089	1290425	keystroke_Key.enter	Key.enter	n/a
645.308	8.171	1290616	prompt	n/a	extract inbox educated logged\n
646.1425	0.075	1292285	keystroke_e	e	n/a
646.3675	0.09	1292735	keystroke_x	x	n/a
646.6225	0.06	1293245	keystroke_t	t	n/a
646.8325	0.06	1293665	keystroke_r	r	n/a
646.9975	0.09	1293995	keystroke_a	a	n/a
647.2225	0.074	1294445	keystroke_c	c	n/a
647.4625	0.045	1294925	keystroke_t	t	n/a
647.5965	0.076	1295193	keystroke_Key.space	Key.space	n/a
647.8975	0.06	1295795	keystroke_i	i	n/a
648.0775	0.06	1296155	keystroke_n	n	n/a
648.2725	0.045	1296545	keystroke_b	b	n/a
648.3775	0.09	1296755	keystroke_o	o	n/a
648.9925	0.09	1297985	keystroke_x	x	n/a
649.2625	0.075	1298525	keystroke_Key.space	Key.space	n/a
649.7575	0.06	1299515	keystroke_e	e	n/a
649.9675	0.06	1299935	keystroke_d	d	n/a
650.1475	0.06	1300295	keystroke_u	u	n/a
650.3425	0.09	1300685	keystroke_c	c	n/a
650.4925	0.135	1300985	keystroke_a	a	n/a
650.6575	0.09	1301315	keystroke_t	t	n/a
650.852	0.09	1301704	keystroke_e	e	n/a
651.032	0.06	1302064	keystroke_d	d	n/a
651.287	0.06	1302574	keystroke_Key.space	Key.space	n/a
651.872	0.09	1303744	keystroke_l	l	n/a
652.052	0.09	1304104	keystroke_o	o	n/a
652.157	0.045	1304314	keystroke_g	g	n/a
652.277	0.075	1304554	keystroke_g	g	n/a
652.457	0.075	1304914	keystroke_e	e	n/a
653.027	0.06	1306054	keystroke_d	d	n/a
653.387	0.09	1306774	keystroke_Key.enter	Key.enter	n/a
653.417	0.045	1306834	keystroke_\	\	n/a
653.4835	7.6605	1306967	prompt	n/a	route ministry days percentage\n
654.452	0.075	1308904	keystroke_r	r	n/a
654.587	0.105	1309174	keystroke_o	o	n/a
654.662	0.105	1309324	keystroke_u	u	n/a
654.782	0.09	1309564	keystroke_t	t	n/a
654.842	0.075	1309684	keystroke_e	e	n/a
655.322	0.105	1310644	keystroke_Key.space	Key.space	n/a
655.772	0.105	1311544	keystroke_m	m	n/a
655.892	0.105	1311784	keystroke_i	i	n/a
656.012	0.105	1312024	keystroke_n	n	n/a
656.207	0.09	1312414	keystroke_i	i	n/a
656.312	0.18	1312624	keystroke_s	s	n/a
656.432	0.09	1312864	keystroke_t	t	n/a
656.597	0.075	1313194	keystroke_r	r	n/a
656.747	0.135	1313494	keystroke_y	y	n/a
656.867	0.09	1313734	keystroke_Key.space	Key.space	n/a
657.032	0.105	1314064	keystroke_d	d	n/a
657.152	0.09	1314304	keystroke_a	a	n/a
657.362	0.075	1314724	keystroke_y	y	n/a
657.482	0.075	1314964	keystroke_s	s	n/a
657.602	0.09	1315204	keystroke_Key.space	Key.space	n/a
657.947	0.09	1315894	keystroke_p	p	n/a
657.992	0.105	1315984	keystroke_e	e	n/a
658.052	0.09	1316104	keystroke_r	r	n/a
658.322	0.075	1316644	keystroke_c	c	n/a
658.487	0.06	1316974	keystroke_e	e	n/a
658.577	0.09	1317154	keystroke_n	n	n/a
658.697	0.075	1317394	keystroke_t	t	n/a
658.817	0.105	1317634	keystroke_a	a	n/a
659.162	0.075	1318324	keystroke_e	e	n/a
659.8965	0.105	1319793	keystroke_Key.backspace	Key.backspace	n/a
659.9865	0.045	1319973	keystroke_g	g	n/a
660.407	0.06	1320814	keystroke_e	e	n/a
661.0365	0.105	1322073	keystroke_Key.enter	Key.enter	n/a
661.1505	9.0675	1322301	prompt	n/a	domain discharge mazda travelling\n
662.0265	0.0755	1324053	keystroke_d	d	n/a
662.1465	0.075	1324293	keystroke_o	o	n/a
662.3265	0.09	1324653	keystroke_m	m	n/a
662.4015	0.075	1324803	keystroke_a	a	n/a
662.5365	0.06	1325073	keystroke_i	i	n/a
662.7915	0.09	1325583	keystroke_n	n	n/a
663.6765	0.045	1327353	keystroke_Key.space	Key.space	n/a
663.9015	0.06	1327803	keystroke_d	d	n/a
664.0215	0.06	1328043	keystroke_i	i	n/a
664.0965	0.09	1328193	keystroke_s	s	n/a
664.3515	0.075	1328703	keystroke_c	c	n/a
664.5015	0.075	1329003	keystroke_h	h	n/a
664.5615	0.105	1329123	keystroke_a	a	n/a
664.6665	0.06	1329333	keystroke_r	r	n/a
664.9515	0.075	1329903	keystroke_g	g	n/a
665.3565	0.06	1330713	keystroke_e	e	n/a
665.7015	0.09	1331403	keystroke_Key.space	Key.space	n/a
666.1365	0.09	1332273	keystroke_m	m	n/a
666.1965	0.09	1332393	keystroke_a	a	n/a
666.4815	0.09	1332963	keystroke_z	z	n/a
666.9915	0.075	1333983	keystroke_d	d	n/a
667.2315	0.09	1334463	keystroke_a	a	n/a
667.3965	0.09	1334793	keystroke_Key.space	Key.space	n/a
667.6515	0.0745	1335303	keystroke_t	t	n/a
667.861	0.06	1335722	keystroke_r	r	n/a
667.981	0.09	1335962	keystroke_a	a	n/a
668.341	0.06	1336682	keystroke_v	v	n/a
668.491	0.06	1336982	keystroke_e	e	n/a
668.656	0.105	1337312	keystroke_l	l	n/a
668.8515	0.1195	1337703	keystroke_l	l	n/a
669.0765	0.075	1338153	keystroke_i	i	n/a
669.316	0.06	1338632	keystroke_n	n	n/a
669.541	0.09	1339082	keystroke_g	g	n/a
670.141	0.075	1340282	keystroke_Key.enter	Key.enter	n/a
670.223	8.6645	1340446	prompt	n/a	laboratory inquire halifax faces\n
671.146	0.105	1342292	keystroke_l	l	n/a
671.341	0.075	1342682	keystroke_a	a	n/a
671.776	0.0745	1343552	keystroke_b	b	n/a
672.001	0.0745	1344002	keystroke_o	o	n/a
672.1505	0.075	1344301	keystroke_r	r	n/a
672.3455	0.12	1344691	keystroke_a	a	n/a
672.5405	0.075	1345081	keystroke_t	t	n/a
672.6605	0.12	1345321	keystroke_o	o	n/a
672.7955	0.06	1345591	keystroke_r	r	n/a
673.0055	0.06	1346011	keystroke_y	y	n/a
673.3955	0.09	1346791	keystroke_Key.space	Key.space	n/a
673.6505	0.06	1347301	keystroke_i	i	n/a
673.8455	0.075	1347691	keystroke_n	n	n/a
674.0855	0.09	1348171	keystroke_q	q	n/a
674.2505	0.075	1348501	keystroke_u	u	n/a
674.4605	0.06	1348921	keystroke_i	i	n/a
674.9555	0.045	1349911	keystroke_r	r	n/a
675.1505	0.045	1350301	keystroke_e	e	n/a
675.3755	0.075	1350751	keystroke_d	d	n/a
