onset	duration	sample	value	key	prompt_text
14.4385	13.032	28877	prompt	n/a	the quick brown fox jumps over a lazy dog\n
16.025	0.0125	32050	keystroke_t	t	n/a
16.0525	0.09	32105	keystroke_h	h	n/a
16.1575	0.075	32315	keystroke_e	e	n/a
16.5775	0.075	33155	keystroke_Key.space	Key.space	n/a
16.847	0.075	33694	keystroke_q	q	n/a
17.057	0.09	34114	keystroke_u	u	n/a
17.267	0.0755	34534	keystroke_c	c	n/a
17.282	0.0755	34564	keystroke_i	i	n/a
17.8675	0.03	35735	keystroke_Key.backspace	Key.backspace	n/a
18.0175	0.09	36035	keystroke_Key.backspace	Key.backspace	n/a
18.767	0.075	37534	keystroke_i	i	n/a
18.932	0.09	37864	keystroke_c	c	n/a
19.037	0.09	38074	keystroke_k	k	n/a
19.6375	0.075	39275	keystroke_Key.space	Key.space	n/a
19.8775	0.075	39755	keystroke_b	b	n/a
20.1175	0.09	40235	keystroke_r	r	n/a
20.5375	0.0905	41075	keystroke_o	o	n/a
20.672	0.045	41344	keystroke_w	w	n/a
20.777	0.105	41554	keystroke_n	n	n/a
21.002	0.0755	42004	keystroke_Key.space	Key.space	n/a
21.6475	0.06	43295	keystroke_f	f	n/a
21.7675	0.09	43535	keystroke_o	o	n/a
21.9325	0.075	43865	keystroke_x	x	n/a
22.067	0.075	44134	keystroke_Key.space	Key.space	n/a
22.322	0.06	44644	keystroke_j	j	n/a
22.472	0.045	44944	keystroke_u	u	n/a
22.667	0.09	45334	keystroke_m	m	n/a
22.832	0.09	45664	keystroke_p	p	n/a
23.177	0.09	46354	keystroke_s	s	n/a
23.327	0.1055	46654	keystroke_Key.space	Key.space	n/a
23.4775	0.105	46955	keystroke_o	o	n/a
23.5975	0.135	47195	keystroke_v	v	n/a
23.7625	0.1655	47525	keystroke_e	e	n/a
23.8825	0.09	47765	keystroke_r	r	n/a
24.0625	0.105	48125	keystroke_Key.space	Key.space	n/a
24.1825	0.105	48365	keystroke_a	a	n/a
24.3025	0.105	48605	keystroke_Key.space	Key.space	n/a
24.527	0.091	49054	keystroke_l	l	n/a
24.933	0.075	49866	keystroke_a	a	n/a
25.143	0.075	50286	keystroke_z	z	n/a
25.308	0.1045	50616	keystroke_y	y	n/a
25.3975	0.135	50795	keystroke_Key.space	Key.space	n/a
26.178	0.09	52356	keystroke_d	d	n/a
26.283	0.09	52566	keystroke_o	o	n/a
26.448	0.075	52896	keystroke_g	g	n/a
27.438	0.03	54876	keystroke_Key.enter	Key.enter	n/a
27.476	13.298	54952	prompt	n/a	debian childhood patients translation\n
28.592	0.105	57184	keystroke_d	d	n/a
28.653	0.105	57306	keystroke_e	e	n/a
28.8775	0.075	57755	keystroke_b	b	n/a
29.1025	0.075	58205	keystroke_i	i	n/a
29.2675	0.06	58535	keystroke_a	a	n/a
29.4175	0.0745	58835	keystroke_n	n	n/a
29.702	0.09	59404	keystroke_Key.space	Key.space	n/a
31.985	0.043	63970	keystroke_c	c	n/a
32.028	0.09	64056	keystroke_h	h	n/a
32.208	0.045	64416	keystroke_i	i	n/a
32.358	0.12	64716	keystroke_l	l	n/a
32.508	0.12	65016	keystroke_d	d	n/a
33.153	0.12	66306	keystroke_h	h	n/a
33.318	0.09	66636	keystroke_o	o	n/a
33.453	0.09	66906	keystroke_o	o	n/a
33.558	0.09	67116	keystroke_d	d	n/a
33.662	0.09	67324	keystroke_Key.space	Key.space	n/a
33.857	0.091	67714	keystroke_p	p	n/a
34.008	0.09	68016	keystroke_a	a	n/a
34.592	0.09	69184	keystroke_t	t	n/a
34.697	0.03	69394	keystroke_i	i	n/a
35.628	0.06	71256	keystroke_e	e	n/a
35.718	0.09	71436	keystroke_n	n	n/a
36.063	0.075	72126	keystroke_t	t	n/a
36.288	0.12	72576	keystroke_s	s	n/a
36.438	0.105	72876	keystroke_Key.space	Key.space	n/a
36.7375	0.135	73475	keystroke_r	r	n/a
36.9625	0.1345	73925	keystroke_e	e	n/a
37.142	0.15	74284	keystroke_a	a	n/a
37.577	0.045	75154	keystroke_Key.backspace	Key.backspace	n/a
37.712	0.06	75424	keystroke_Key.backspace	Key.backspace	n/a
37.847	0.09	75694	keystroke_Key.backspace	Key.backspace	n/a
37.952	0.09	75904	keystroke_t	t	n/a
38.147	0.091	76294	keystroke_r	r	n/a
38.312	0.106	76624	keystroke_a	a	n/a
38.568	0.09	77136	keystroke_n	n	n/a
38.778	0.09	77556	keystroke_s	s	n/a
39.257	0.09	78514	keystroke_l	l	n/a
39.408	0.105	78816	keystroke_a	a	n/a
39.632	0.075	79264	keystroke_t	t	n/a
39.692	0.211	79384	keystroke_i	i	n/a
39.783	0.15	79566	keystroke_o	o	n/a
39.888	0.105	79776	keystroke_n	n	n/a
40.728	0.045	81456	keystroke_Key.enter	Key.enter	n/a
40.7775	15.6645	81555	prompt	n/a	disappointed street hardly swaziland\n
41.613	0.12	83226	keystroke_d	d	n/a
41.748	0.09	83496	keystroke_i	i	n/a
41.868	0.105	83736	keystroke_s	s	n/a
42.138	0.105	84276	keystroke_a	a	n/a
42.423	0.0745	84846	keystroke_p	p	n/a
42.6025	0.09	85205	keystroke_p	p	n/a
42.8125	0.045	85625	keystroke_o	o	n/a
43.3075	0.06	86615	keystroke_Key.backspace	Key.backspace	n/a
43.5325	0.18	87065	keystroke_i	i	n/a
43.6675	0.09	87335	keystroke_n	n	n/a
43.8025	0.0895	87605	keystroke_t	t	n/a
44.132	0.06	88264	keystroke_Key.backspace	Key.backspace	n/a
44.267	0.06	88534	keystroke_Key.backspace	Key.backspace	n/a
44.402	0.09	88804	keystroke_Key.backspace	Key.backspace	n/a
45.858	0.06	91716	keystroke_i	i	n/a
46.578	0.074	93156	keystroke_Key.backspace	Key.backspace	n/a
46.832	0.106	93664	keystroke_o	o	n/a
47.058	0.045	94116	keystroke_i	i	n/a
47.133	0.135	94266	keystroke_n	n	n/a
48.783	0.104	97566	keystroke_t	t	n/a
48.947	0.165	97894	keystroke_e	e	n/a
49.097	0.075	98194	keystroke_d	d	n/a
49.352	0.1205	98704	keystroke_Key.space	Key.space	n/a
49.547	0.0905	99094	keystroke_s	s	n/a
49.7875	0.06	99575	keystroke_t	t	n/a
49.9675	0.12	99935	keystroke_r	r	n/a
50.0725	0.105	100145	keystroke_e	e	n/a
50.252	0.106	100504	keystroke_e	e	n/a
50.402	0.1055	100804	keystroke_t	t	n/a
50.5525	0.12	101105	keystroke_Key.space	Key.space	n/a
50.7775	0.105	101555	keystroke_h	h	n/a
50.8975	0.165	101795	keystroke_a	a	n/a
51.0025	0.12	102005	keystroke_r	r	n/a
51.1675	0.09	102335	keystroke_l	l	n/a
52.113	0.09	104226	keystroke_Key.backspace	Key.backspace	n/a
52.6075	0.075	105215	keystroke_d	d	n/a
52.7875	0.09	105575	keystroke_l	l	n/a
53.1175	0.075	106235	keystroke_y	y	n/a
53.327	0.075	106654	keystroke_Key.space	Key.space	n/a
53.627	0.105	107254	keystroke_s	s	n/a
53.987	0.15	107974	keystroke_w	w	n/a
54.092	0.15	108184	keystroke_a	a	n/a
54.528	0.1195	109056	keystroke_z	z	n/a
54.8425	0.075	109685	keystroke_i	i	n/a
55.1425	0.075	110285	keystroke_l	l	n/a
55.2775	0.105	110555	keystroke_a	a	n/a
55.4575	0.06	110915	keystroke_n	n	n/a
55.5325	0.09	111065	keystroke_d	d	n/a
56.3425	0.09	112685	keystroke_Key.enter	Key.enter	n/a
56.4465	10.0975	112893	prompt	n/a	light meter charleston particularly\n
57.0625	0.165	114125	keystroke_l	l	n/a
57.1825	0.105	114365	keystroke_i	i	n/a
57.3325	0.06	114665	keystroke_g	g	n/a
57.4075	0.105	114815	keystroke_h	h	n/a
57.4975	0.075	114995	keystroke_t	t	n/a
57.6025	0.105	115205	keystroke_Key.space	Key.space	n/a
57.7675	0.105	115535	keystroke_m	m	n/a
57.8735	0.119	115747	keystroke_e	e	n/a
57.9775	0.105	115955	keystroke_t	t	n/a
58.0975	0.135	116195	keystroke_e	e	n/a
58.1875	0.135	116375	keystroke_r	r	n/a
59.028	0.015	118056	keystroke_Key.space	Key.space	n/a
59.298	0.06	118596	keystroke_c	c	n/a
59.343	0.0595	118686	keystroke_h	h	n/a
59.418	0.12	118836	keystroke_a	a	n/a
59.598	0.12	119196	keystroke_r	r	n/a
60.123	0.089	120246	keystroke_l	l	n/a
60.213	0.075	120426	keystroke_e	e	n/a
60.408	0.074	120816	keystroke_s	s	n/a
60.6925	0.06	121385	keystroke_t	t	n/a
60.7675	0.135	121535	keystroke_o	o	n/a
60.8425	0.12	121685	keystroke_n	n	n/a
61.0375	0.09	122075	keystroke_Key.space	Key.space	n/a
63.4855	0.027	126971	keystroke_p	p	n/a
63.5425	0.12	127085	keystroke_a	a	n/a
63.6925	0.105	127385	keystroke_r	r	n/a
63.933	0.09	127866	keystroke_t	t	n/a
64.068	0.075	128136	keystroke_i	i	n/a
64.518	0.09	129036	keystroke_c	c	n/a
64.623	0.09	129246	keystroke_u	u	n/a
64.833	0.09	129666	keystroke_l	l	n/a
64.998	0.105	129996	keystroke_a	a	n/a
65.163	0.105	130326	keystroke_r	r	n/a
65.763	0.09	131526	keystroke_l	l	n/a
66.033	0.09	132066	keystroke_y	y	n/a
66.467	0.075	132934	keystroke_Key.enter	Key.enter	n/a
66.5465	10.671	133093	prompt	n/a	incidents issue navigator kills\n
67.233	0.015	134466	keystroke_i	i	n/a
67.263	0.105	134526	keystroke_n	n	n/a
67.488	0.105	134976	keystroke_c	c	n/a
67.608	0.06	135216	keystroke_i	i	n/a
67.818	0.15	135636	keystroke_d	d	n/a
67.938	0.09	135876	keystroke_e	e	n/a
68.043	0.12	136086	keystroke_n	n	n/a
68.208	0.075	136416	keystroke_t	t	n/a
68.3875	0.1055	136775	keystroke_s	s	n/a
68.5525	0.0905	137105	keystroke_Key.space	Key.space	n/a
68.913	0.03	137826	keystroke_s	s	n/a
69.2125	0.075	138425	keystroke_Key.backspace	Key.backspace	n/a
69.603	0.075	139206	keystroke_i	i	n/a
69.752	0.09	139504	keystroke_s	s	n/a
69.903	0.09	139806	keystroke_s	s	n/a
70.007	0.09	140014	keystroke_u	u	n/a
70.142	0.09	140284	keystroke_e	e	n/a
70.292	0.09	140584	keystroke_Key.space	Key.space	n/a
70.652	0.09	141304	keystroke_n	n	n/a
71.207	0.09	142414	keystroke_a	a	n/a
71.388	0.089	142776	keystroke_g	g	n/a
71.537	0.075	143074	keystroke_i	i	n/a
73.7595	0.013	147519	keystroke_Key.backspace	Key.backspace	n/a
73.8175	0.075	147635	keystroke_Key.backspace	Key.backspace	n/a
74.1175	0.0755	148235	keystroke_v	v	n/a
74.238	0.075	148476	keystroke_i	i	n/a
74.658	0.075	149316	keystroke_g	g	n/a
74.823	0.09	149646	keystroke_a	a	n/a
74.988	0.075	149976	keystroke_t	t	n/a
75.123	0.075	150246	keystroke_o	o	n/a
75.243	0.045	150486	keystroke_r	r	n/a
75.963	0.105	151926	keystroke_Key.space	Key.space	n/a
76.1575	0.075	152315	keystroke_k	k	n/a
76.3375	0.06	152675	keystroke_i	i	n/a
76.4725	0.0755	152945	keystroke_l	l	n/a
76.623	0.09	153246	keystroke_l	l	n/a
76.743	0.06	153486	keystroke_s	s	n/a
77.148	0.059	154296	keystroke_Key.enter	Key.enter	n/a
77.2225	11.35	154445	prompt	n/a	leon appraisal church vitamin\n
77.897	0.09	155794	keystroke_l	l	n/a
78.032	0.105	156064	keystroke_e	e	n/a
78.212	0.15	156424	keystroke_o	o	n/a
78.317	0.18	156634	keystroke_n	n	n/a
78.452	0.135	156904	keystroke_Key.space	Key.space	n/a
79.443	0.15	158886	keystroke_a	a	n/a
79.578	0.06	159156	keystroke_p	p	n/a
79.758	0.06	159516	keystroke_p	p	n/a
79.893	0.12	159786	keystroke_r	r	n/a
80.073	0.105	160146	keystroke_a	a	n/a
80.3275	0.09	160655	keystroke_i	i	n/a
80.447	0.106	160894	keystroke_s	s	n/a
80.733	0.105	161466	keystroke_a	a	n/a
80.853	0.104	161706	keystroke_l	l	n/a
81.212	0.135	162424	keystroke_Key.space	Key.space	n/a
81.887	0.09	163774	keystroke_c	c	n/a
82.023	0.105	164046	keystroke_h	h	n/a
82.233	0.075	164466	keystroke_r	r	n/a
83.2825	0.075	166565	keystroke_Key.backspace	Key.backspace	n/a
83.7025	0.06	167405	keystroke_u	u	n/a
83.8225	0.06	167645	keystroke_s	s	n/a
84.243	0.074	168486	keystroke_Key.backspace	Key.backspace	n/a
84.303	0.09	168606	keystroke_r	r	n/a
84.542	0.1205	169084	keystroke_c	c	n/a
84.6475	0.12	169295	keystroke_h	h	n/a
85.3375	0.045	170675	keystroke_Key.space	Key.space	n/a
86.1475	0.0895	172295	keystroke_v	v	n/a
86.267	0.09	172534	keystroke_i	i	n/a
86.6575	0.09	173315	keystroke_t	t	n/a
87.3025	0.1045	174605	keystroke_a	a	n/a
87.452	0.09	174904	keystroke_m	m	n/a
87.602	0.135	175204	keystroke_i	i	n/a
87.692	0.12	175384	keystroke_n	n	n/a
88.5025	0.06	177005	keystroke_Key.enter	Key.enter	n/a
88.5785	10.193	177157	prompt	n/a	wheels determine anymore anticipated\n
89.3575	0.105	178715	keystroke_w	w	n/a
89.522	0.105	179044	keystroke_h	h	n/a
89.642	0.06	179284	keystroke_e	e	n/a
89.7775	0.09	179555	keystroke_e	e	n/a
89.882	0.0905	179764	keystroke_l	l	n/a
90.032	0.0905	180064	keystroke_s	s	n/a
90.1825	0.075	180365	keystroke_Key.space	Key.space	n/a
91.263	0.105	182526	keystroke_d	d	n/a
91.398	0.135	182796	keystroke_e	e	n/a
91.6225	0.12	183245	keystroke_t	t	n/a
91.7275	0.135	183455	keystroke_e	e	n/a
91.8325	0.105	183665	keystroke_r	r	n/a
92.2675	0.12	184535	keystroke_m	m	n/a
92.4325	0.165	184865	keystroke_i	i	n/a
92.5375	0.165	185075	keystroke_n	n	n/a
92.7175	0.105	185435	keystroke_Key.space	Key.space	n/a
92.9125	0.12	185825	keystroke_a	a	n/a
93.0175	0.12	186035	keystroke_n	n	n/a
93.4525	0.075	186905	keystroke_Key.backspace	Key.backspace	n/a
93.5875	0.075	187175	keystroke_Key.backspace	Key.backspace	n/a
93.7375	0.06	187475	keystroke_Key.backspace	Key.backspace	n/a
93.9175	0.09	187835	keystroke_e	e	n/a
94.0975	0.105	188195	keystroke_Key.space	Key.space	n/a
94.802	0.1205	189604	keystroke_a	a	n/a
94.9235	0.089	189847	keystroke_n	n	n/a
95.147	0.0755	190294	keystroke_y	y	n/a
95.3875	0.15	190775	keystroke_m	m	n/a
95.4925	0.12	190985	keystroke_o	o	n/a
95.5975	0.105	191195	keystroke_r	r	n/a
95.6575	0.09	191315	keystroke_e	e	n/a
95.7925	0.12	191585	keystroke_Key.space	Key.space	n/a
96.0325	0.105	192065	keystroke_a	a	n/a
96.1385	0.059	192277	keystroke_n	n	n/a
96.4675	0.09	192935	keystroke_t	t	n/a
96.6625	0.06	193325	keystroke_i	i	n/a
96.9475	0.1055	193895	keystroke_c	c	n/a
97.218	0.06	194436	keystroke_i	i	n/a
97.548	0.075	195096	keystroke_p	p	n/a
97.728	0.075	195456	keystroke_a	a	n/a
97.923	0.105	195846	keystroke_t	t	n/a
98.073	0.135	196146	keystroke_e	e	n/a
98.193	0.105	196386	keystroke_d	d	n/a
98.718	0.045	197436	keystroke_Key.enter	Key.enter	n/a
98.777	9.295	197554	prompt	n/a	certificate reported coupled figures\n
99.573	0.135	199146	keystroke_c	c	n/a
99.7225	0.1495	199445	keystroke_e	e	n/a
99.827	0.105	199654	keystroke_r	r	n/a
100.007	0.0905	200014	keystroke_t	t	n/a
100.127	0.0765	200254	keystroke_i	i	n/a
100.548	0.044	201096	keystroke_f	f	n/a
100.892	0.09	201784	keystroke_i	i	n/a
101.013	0.1195	202026	keystroke_c	c	n/a
101.2375	0.09	202475	keystroke_a	a	n/a
101.432	0.12	202864	keystroke_t	t	n/a
101.537	0.1055	203074	keystroke_e	e	n/a
101.7325	0.1195	203465	keystroke_Key.space	Key.space	n/a
102.0325	0.1495	204065	keystroke_r	r	n/a
102.1225	0.1195	204245	keystroke_e	e	n/a
102.588	0.06	205176	keystroke_p	p	n/a
102.798	0.06	205596	keystroke_o	o	n/a
102.873	0.105	205746	keystroke_r	r	n/a
103.083	0.09	206166	keystroke_t	t	n/a
103.278	0.12	206556	keystroke_e	e	n/a
103.338	0.105	206676	keystroke_d	d	n/a
103.953	0.105	207906	keystroke_Key.space	Key.space	n/a
104.298	0.105	208596	keystroke_c	c	n/a
104.417	0.106	208834	keystroke_o	o	n/a
104.477	0.09	208954	keystroke_u	u	n/a
104.673	0.135	209346	keystroke_p	p	n/a
104.732	0.135	209464	keystroke_l	l	n/a
104.882	0.166	209764	keystroke_e	e	n/a
105.017	0.135	210034	keystroke_d	d	n/a
105.228	0.12	210456	keystroke_Key.space	Key.space	n/a
105.993	0.09	211986	keystroke_g	g	n/a
106.428	0.075	212856	keystroke_Key.backspace	Key.backspace	n/a
106.592	0.075	213184	keystroke_f	f	n/a
106.682	0.091	213364	keystroke_i	i	n/a
106.892	0.105	213784	keystroke_g	g	n/a
107.103	0.074	214206	keystroke_u	u	n/a
107.237	0.105	214474	keystroke_r	r	n/a
107.283	0.12	214566	keystroke_e	e	n/a
107.538	0.09	215076	keystroke_s	s	n/a
108.018	0.044	216036	keystroke_Key.enter	Key.enter	n/a
108.076	8.659	216152	prompt	n/a	diverse collective alcohol measurements\n
109.263	0.09	218526	keystroke_d	d	n/a
109.383	0.105	218766	keystroke_i	i	n/a
109.833	0.105	219666	keystroke_v	v	n/a
110.043	0.15	220086	keystroke_e	e	n/a
110.133	0.105	220266	keystroke_r	r	n/a
110.358	0.1045	220716	keystroke_s	s	n/a
110.5975	0.075	221195	keystroke_e	e	n/a
110.7625	0.135	221525	keystroke_Key.space	Key.space	n/a
111.0025	0.105	222005	keystroke_c	c	n/a
111.0925	0.075	222185	keystroke_o	o	n/a
111.3025	0.06	222605	keystroke_l	l	n/a
111.423	0.105	222846	keystroke_l	l	n/a
111.498	0.12	222996	keystroke_e	e	n/a
111.603	0.164	223206	keystroke_c	c	n/a
111.918	0.075	223836	keystroke_t	t	n/a
112.037	0.091	224074	keystroke_i	i	n/a
112.203	0.15	224406	keystroke_v	v	n/a
112.292	0.106	224584	keystroke_e	e	n/a
112.472	0.105	224944	keystroke_Key.space	Key.space	n/a
112.698	0.12	225396	keystroke_a	a	n/a
112.878	0.09	225756	keystroke_l	l	n/a
113.133	0.089	226266	keystroke_c	c	n/a
113.268	0.045	226536	keystroke_o	o	n/a
113.898	0.09	227796	keystroke_h	h	n/a
113.958	0.105	227916	keystroke_o	o	n/a
114.123	0.135	228246	keystroke_l	l	n/a
114.332	0.106	228664	keystroke_Key.space	Key.space	n/a
114.558	0.09	229116	keystroke_m	m	n/a
114.663	0.09	229326	keystroke_e	e	n/a
114.798	0.165	229596	keystroke_a	a	n/a
114.903	0.12	229806	keystroke_s	s	n/a
115.068	0.09	230136	keystroke_u	u	n/a
115.203	0.135	230406	keystroke_r	r	n/a
115.293	0.105	230586	keystroke_e	e	n/a
115.5025	0.105	231005	keystroke_m	m	n/a
115.6225	0.09	231245	keystroke_e	e	n/a
115.7575	0.09	231515	keystroke_n	n	n/a
116.3125	0.105	232625	keystroke_t	t	n/a
116.5375	0.105	233075	keystroke_s	s	n/a
116.6875	0.045	233375	keystroke_Key.enter	Key.enter	n/a
116.7385	15.483	233477	prompt	n/a	this's madness operators substitute\n
117.7225	0.105	235445	keystroke_t	t	n/a
117.8425	0.15	235685	keystroke_h	h	n/a
117.9175	0.09	235835	keystroke_i	i	n/a
117.978	0.1195	235956	keystroke_s	s	n/a
118.3975	0.075	236795	keystroke_'	'	n/a
118.5325	0.075	237065	keystroke_s	s	n/a
118.9225	0.12	237845	keystroke_Key.space	Key.space	n/a
119.1475	0.105	238295	keystroke_m	m	n/a
119.2375	0.135	238475	keystroke_a	a	n/a
119.3125	0.1655	238625	keystroke_d	d	n/a
119.898	0.09	239796	keystroke_n	n	n/a
120.018	0.09	240036	keystroke_e	e	n/a
120.2425	0.075	240485	keystroke_s	s	n/a
120.3925	0.105	240785	keystroke_s	s	n/a
120.6175	0.12	241235	keystroke_Key.space	Key.space	n/a
121.1125	0.015	242225	keystroke_p	p	n/a
121.608	0.075	243216	keystroke_Key.backspace	Key.backspace	n/a
121.893	0.09	243786	keystroke_o	o	n/a
121.953	0.105	243906	keystroke_p	p	n/a
122.148	0.09	244296	keystroke_e	e	n/a
122.178	0.105	244356	keystroke_r	r	n/a
122.373	0.105	244746	keystroke_a	a	n/a
122.583	0.075	245166	keystroke_t	t	n/a
122.688	0.09	245376	keystroke_o	o	n/a
122.808	0.09	245616	keystroke_r	r	n/a
123.003	0.105	246006	keystroke_s	s	n/a
123.168	0.12	246336	keystroke_Key.space	Key.space	n/a
123.513	0.075	247026	keystroke_s	s	n/a
123.6625	0.06	247325	keystroke_u	u	n/a
123.8575	0.09	247715	keystroke_b	b	n/a
124.0375	0.09	248075	keystroke_s	s	n/a
124.413	0.09	248826	keystroke_t	t	n/a
124.533	0.075	249066	keystroke_i	i	n/a
124.953	0.06	249906	keystroke_t	t	n/a
125.028	0.09	250056	keystroke_i	i	n/a
125.583	0.09	251166	keystroke_t	t	n/a
125.733	0.06	251466	keystroke_l	l	n/a
126.183	0.075	252366	keystroke_Key.backspace	Key.backspace	n/a
126.783	0.06	253566	keystroke_e	e	n/a
128.658	0.074	257316	keystroke_Key.backspace	Key.backspace	n/a
128.807	0.09	257614	keystroke_Key.backspace	Key.backspace	n/a
128.972	0.075	257944	keystroke_Key.backspace	Key.backspace	n/a
130.5025	0.075	261005	keystroke_u	u	n/a
130.7125	0.105	261425	keystroke_t	t	n/a
130.7725	0.135	261545	keystroke_e	e	n/a
132.168	0.0445	264336	keystroke_Key.enter	Key.enter	n/a
132.226	7.068	264452	prompt	n/a	talking engineer skill nokia\n
133.202	0.15	266404	keystroke_t	t	n/a
133.322	0.1055	266644	keystroke_a	a	n/a
133.382	0.1355	266764	keystroke_l	l	n/a
133.4425	0.09	266885	keystroke_k	k	n/a
133.6075	0.165	267215	keystroke_i	i	n/a
133.7125	0.12	267425	keystroke_n	n	n/a
133.9225	0.12	267845	keystroke_g	g	n/a
134.0875	0.12	268175	keystroke_Key.space	Key.space	n/a
134.4625	0.09	268925	keystroke_e	e	n/a
134.5675	0.12	269135	keystroke_n	n	n/a
134.7775	0.105	269555	keystroke_g	g	n/a
134.9275	0.135	269855	keystroke_i	i	n/a
135.0325	0.12	270065	keystroke_n	n	n/a
135.4675	0.075	270935	keystroke_e	e	n/a
135.6325	0.12	271265	keystroke_e	e	n/a
135.7075	0.105	271415	keystroke_r	r	n/a
135.8725	0.09	271745	keystroke_Key.space	Key.space	n/a
136.0525	0.105	272105	keystroke_s	s	n/a
136.1425	0.09	272285	keystroke_k	k	n/a
136.3375	0.06	272675	keystroke_i	i	n/a
136.4875	0.06	272975	keystroke_l	l	n/a
136.6525	0.075	273305	keystroke_l	l	n/a
136.6825	0.105	273365	keystroke_Key.space	Key.space	n/a
136.8475	0.135	273695	keystroke_n	n	n/a
136.9375	0.105	273875	keystroke_o	o	n/a
137.1175	0.06	274235	keystroke_o	o	n/a
137.1325	0.09	274265	keystroke_k	k	n/a
137.3275	0.075	274655	keystroke_i	i	n/a
137.7025	0.06	275405	keystroke_Key.backspace	Key.backspace	n/a
137.8375	0.075	275675	keystroke_Key.backspace	Key.backspace	n/a
137.9875	0.09	275975	keystroke_Key.backspace	Key.backspace	n/a
138.3175	0.09	276635	keystroke_k	k	n/a
138.5125	0.09	277025	keystroke_i	i	n/a
138.6175	0.09	277235	keystroke_a	a	n/a
139.2175	0.075	278435	keystroke_Key.enter	Key.enter	n/a
139.2965	5.2625	278593	prompt	n/a	took socket thus shift\n
140.028	0.12	280056	keystroke_t	t	n/a
140.163	0.075	280326	keystroke_o	o	n/a
140.313	0.12	280626	keystroke_o	o	n/a
140.358	0.1795	280716	keystroke_k	k	n/a
140.4925	0.105	280985	keystroke_Key.space	Key.space	n/a
140.7025	0.075	281405	keystroke_s	s	n/a
140.7925	0.09	281585	keystroke_o	o	n/a
140.9275	0.09	281855	keystroke_c	c	n/a
141.0475	0.0905	282095	keystroke_k	k	n/a
141.182	0.15	282364	keystroke_e	e	n/a
141.317	0.0905	282634	keystroke_t	t	n/a
141.437	0.105	282874	keystroke_Key.space	Key.space	n/a
141.557	0.09	283114	keystroke_t	t	n/a
141.7225	0.105	283445	keystroke_h	h	n/a
141.8875	0.1055	283775	keystroke_u	u	n/a
142.008	0.09	284016	keystroke_s	s	n/a
142.188	0.09	284376	keystroke_Key.space	Key.space	n/a
142.623	0.135	285246	keystroke_s	s	n/a
142.743	0.09	285486	keystroke_h	h	n/a
142.803	0.075	285606	keystroke_i	i	n/a
143.358	0.09	286716	keystroke_f	f	n/a
143.568	0.075	287136	keystroke_t	t	n/a
144.482	0.075	288964	keystroke_Key.enter	Key.enter	n/a
144.562	22.8045	289124	prompt	n/a	unsubscribe reflection glucose afford\n
145.323	0.1495	290646	keystroke_u	u	n/a
145.4425	0.105	290885	keystroke_n	n	n/a
145.7275	0.105	291455	keystroke_s	s	n/a
145.8625	0.105	291725	keystroke_c	c	n/a
146.3425	0.09	292685	keystroke_Key.backspace	Key.backspace	n/a
146.6575	0.06	293315	keystroke_u	u	n/a
146.883	0.105	293766	keystroke_b	b	n/a
147.318	0.0895	294636	keystroke_s	s	n/a
147.4525	0.075	294905	keystroke_c	c	n/a
147.6625	0.105	295325	keystroke_r	r	n/a
147.7975	0.09	295595	keystroke_i	i	n/a
148.0225	0.105	296045	keystroke_b	b	n/a
148.1425	0.075	296285	keystroke_e	e	n/a
148.2925	0.09	296585	keystroke_Key.space	Key.space	n/a
148.6375	0.135	297275	keystroke_r	r	n/a
148.7125	0.075	297425	keystroke_e	e	n/a
148.8775	0.075	297755	keystroke_l	l	n/a
149.0125	0.105	298025	keystroke_e	e	n/a
149.2375	0.12	298475	keystroke_c	c	n/a
150.3925	0.045	300785	keystroke_Key.backspace	Key.backspace	n/a
150.4525	0.0455	300905	keystroke_Key.backspace	Key.backspace	n/a
150.558	0.075	301116	keystroke_Key.backspace	Key.backspace	n/a
150.753	0.09	301506	keystroke_f	f	n/a
150.918	0.09	301836	keystroke_l	l	n/a
151.083	0.06	302166	keystroke_e	e	n/a
151.218	0.12	302436	keystroke_c	c	n/a
151.503	0.09	303006	keystroke_t	t	n/a
151.608	0.21	303216	keystroke_i	i	n/a
151.698	0.15	303396	keystroke_o	o	n/a
151.788	0.105	303576	keystroke_n	n	n/a
152.043	0.12	304086	keystroke_Key.space	Key.space	n/a
152.9725	0.09	305945	keystroke_g	g	n/a
153.1075	0.06	306215	keystroke_u	u	n/a
153.2725	0.105	306545	keystroke_l	l	n/a
153.588	0.075	307176	keystroke_o	o	n/a
153.963	0.045	307926	keystroke_Key.backspace	Key.backspace	n/a
154.038	0.09	308076	keystroke_c	c	n/a
154.158	0.075	308316	keystroke_o	o	n/a
154.5775	0.105	309155	keystroke_s	s	n/a
154.8025	0.09	309605	keystroke_e	e	n/a
155.493	0.075	310986	keystroke_Key.space	Key.space	n/a
155.778	0.12	311556	keystroke_a	a	n/a
157.8775	0.075	315755	keystroke_Key.backspace	Key.backspace	n/a
162.305	0.001	324610	keystroke_Key.backspace	Key.backspace	n/a
162.543	0.045	325086	keystroke_Key.backspace	Key.backspace	n/a
162.7225	0.045	325445	keystroke_Key.backspace	Key.backspace	n/a
162.9325	0.0605	325865	keystroke_Key.backspace	Key.backspace	n/a
163.098	0.0595	326196	keystroke_Key.backspace	Key.backspace	n/a
163.2625	0.0605	326525	keystroke_Key.backspace	Key.backspace	n/a
163.4275	0.045	326855	keystroke_Key.backspace	Key.backspace	n/a
164.043	0.015	328086	keystroke_l	l	n/a
164.193	0.06	328386	keystroke_u	u	n/a
164.433	0.09	328866	keystroke_c	c	n/a
164.538	0.06	329076	keystroke_o	o	n/a
164.628	0.09	329256	keystroke_s	s	n/a
164.853	0.075	329706	keystroke_e	e	n/a
164.958	0.105	329916	keystroke_Key.space	Key.space	n/a
165.618	0.105	331236	keystroke_a	a	n/a
165.9775	0.075	331955	keystroke_f	f	n/a
166.1425	0.075	332285	keystroke_f	f	n/a
166.2625	0.09	332525	keystroke_o	o	n/a
166.3975	0.075	332795	keystroke_r	r	n/a
166.7725	0.135	333545	keystroke_d	d	n/a
167.2825	0.075	334565	keystroke_Key.enter	Key.enter	n/a
167.3715	11.9535	334743	prompt	n/a	vernon winner hereby component\n
168.423	0.09	336846	keystroke_v	v	n/a
168.573	0.135	337146	keystroke_e	e	n/a
168.663	0.075	337326	keystroke_r	r	n/a
169.1575	0.105	338315	keystroke_n	n	n/a
169.2775	0.15	338555	keystroke_o	o	n/a
169.3825	0.105	338765	keystroke_n	n	n/a
170.5525	0.03	341105	keystroke_Key.space	Key.space	n/a
171.9325	0.105	343865	keystroke_w	w	n/a
172.1125	0.075	344225	keystroke_i	i	n/a
172.2925	0.045	344585	keystroke_n	n	n/a
172.4425	0.0455	344885	keystroke_n	n	n/a
172.548	0.12	345096	keystroke_e	e	n/a
172.623	0.105	345246	keystroke_r	r	n/a
172.743	0.09	345486	keystroke_Key.space	Key.space	n/a
172.908	0.075	345816	keystroke_h	h	n/a
172.953	0.15	345906	keystroke_e	e	n/a
173.073	0.12	346146	keystroke_r	r	n/a
173.193	0.105	346386	keystroke_e	e	n/a
173.553	0.12	347106	keystroke_b	b	n/a
173.748	0.09	347496	keystroke_y	y	n/a
174.093	0.12	348186	keystroke_Key.space	Key.space	n/a
174.498	0.09	348996	keystroke_c	c	n/a
174.558	0.1495	349116	keystroke_o	o	n/a
174.678	0.075	349356	keystroke_m	m	n/a
174.812	0.105	349624	keystroke_p	p	n/a
174.9625	0.105	349925	keystroke_o	o	n/a
175.9075	0.12	351815	keystroke_n	n	n/a
176.3575	0.09	352715	keystroke_e	e	n/a
176.5075	0.06	353015	keystroke_n	n	n/a
176.6125	0.0605	353225	keystroke_t	t	n/a
179.3155	0.001	358631	keystroke_Key.enter	Key.enter	n/a
179.3295	9.502	358659	prompt	n/a	player tool africa domestic\n
180.6935	0.105	361387	keystroke_p	p	n/a
180.7535	0.105	361507	keystroke_l	l	n/a
180.9185	0.074	361837	keystroke_a	a	n/a
182.073	0.075	364146	keystroke_y	y	n/a
182.193	0.135	364386	keystroke_e	e	n/a
182.283	0.075	364566	keystroke_r	r	n/a
182.538	0.12	365076	keystroke_Key.space	Key.space	n/a
182.703	0.105	365406	keystroke_t	t	n/a
182.838	0.045	365676	keystroke_o	o	n/a
182.988	0.15	365976	keystroke_o	o	n/a
183.093	0.105	366186	keystroke_k	k	n/a
183.753	0.165	367506	keystroke_Key.backspace	Key.backspace	n/a
183.948	0.09	367896	keystroke_l	l	n/a
184.173	0.12	368346	keystroke_Key.space	Key.space	n/a
184.338	0.135	368676	keystroke_a	a	n/a
184.413	0.15	368826	keystroke_d	d	n/a
185.028	0.075	370056	keystroke_Key.backspace	Key.backspace	n/a
185.298	0.075	370596	keystroke_f	f	n/a
185.508	0.045	371016	keystroke_r	r	n/a
185.628	0.075	371256	keystroke_i	i	n/a
185.913	0.09	371826	keystroke_c	c	n/a
186.048	0.12	372096	keystroke_a	a	n/a
186.618	0.105	373236	keystroke_Key.space	Key.space	n/a
186.9925	0.075	373985	keystroke_d	d	n/a
187.2175	0.135	374435	keystroke_o	o	n/a
187.4125	0.09	374825	keystroke_m	m	n/a
187.5625	0.06	375125	keystroke_e	e	n/a
187.7725	0.075	375545	keystroke_s	s	n/a
188.0125	0.075	376025	keystroke_t	t	n/a
188.1175	0.075	376235	keystroke_i	i	n/a
188.2675	0.0905	376535	keystroke_c	c	n/a
188.763	0.06	377526	keystroke_Key.enter	Key.enter	n/a
188.8355	14.367	377671	prompt	n/a	injury obtaining europe suzuki\n
189.393	0.1495	378786	keystroke_i	i	n/a
189.5275	0.06	379055	keystroke_n	n	n/a
189.7075	0.075	379415	keystroke_j	j	n/a
189.9025	0.09	379805	keystroke_u	u	n/a
190.2175	0.09	380435	keystroke_r	r	n/a
190.4125	0.105	380825	keystroke_y	y	n/a
190.6525	0.105	381305	keystroke_Key.space	Key.space	n/a
191.178	0.06	382356	keystroke_o	o	n/a
191.328	0.09	382656	keystroke_b	b	n/a
191.688	0.12	383376	keystroke_t	t	n/a
191.8385	0.15	383677	keystroke_a	a	n/a
191.9725	0.076	383945	keystroke_i	i	n/a
192.0175	0.091	384035	keystroke_n	n	n/a
192.2135	0.074	384427	keystroke_i	i	n/a
192.2735	0.09	384547	keystroke_n	n	n/a
192.3475	0.106	384695	keystroke_g	g	n/a
192.5285	0.104	385057	keystroke_Key.space	Key.space	n/a
192.9785	0.09	385957	keystroke_w	w	n/a
193.6375	0.06	387275	keystroke_Key.backspace	Key.backspace	n/a
193.758	0.0895	387516	keystroke_e	e	n/a
193.8925	0.12	387785	keystroke_u	u	n/a
194.0725	0.09	388145	keystroke_r	r	n/a
194.6435	0.105	389287	keystroke_o	o	n/a
194.7185	0.09	389437	keystroke_p	p	n/a
194.8235	0.135	389647	keystroke_e	e	n/a
195.2875	0.135	390575	keystroke_Key.space	Key.space	n/a
195.7685	0.09	391537	keystroke_s	s	n/a
195.9175	0.06	391835	keystroke_u	u	n/a
196.578	0.105	393156	keystroke_z	z	n/a
196.743	0.0455	393486	keystroke_i	i	n/a
197.2385	0.03	394477	keystroke_Key.backspace	Key.backspace	n/a
197.478	0.09	394956	keystroke_u	u	n/a
197.973	0.09	395946	keystroke_k	k	n/a
198.183	0.075	396366	keystroke_i	i	n/a
201.38	0	402760	keystroke_'	'	n/a
202.6675	0.045	405335	keystroke_Key.backspace	Key.backspace	n/a
203.1475	0.045	406295	keystroke_Key.enter	Key.enter	n/a
203.2065	7.3835	406413	prompt	n/a	omissions swiss trash that's\n
204.483	0.12	408966	keystroke_o	o	n/a
204.558	0.1205	409116	keystroke_m	m	n/a
205.2935	0.0895	410587	keystroke_i	i	n/a
205.533	0.075	411066	keystroke_s	s	n/a
205.683	0.09	411366	keystroke_s	s	n/a
205.758	0.225	411516	keystroke_i	i	n/a
205.833	0.195	411666	keystroke_o	o	n/a
205.908	0.135	411816	keystroke_n	n	n/a
206.073	0.09	412146	keystroke_s	s	n/a
206.283	0.105	412566	keystroke_Key.space	Key.space	n/a
206.7185	0.09	413437	keystroke_s	s	n/a
206.8835	0.105	413767	keystroke_w	w	n/a
207.0485	0.0745	414097	keystroke_i	i	n/a
207.2135	0.075	414427	keystroke_s	s	n/a
207.4235	0.074	414847	keystroke_s	s	n/a
207.7675	0.135	415535	keystroke_Key.space	Key.space	n/a
208.0375	0.106	416075	keystroke_t	t	n/a
208.2035	0.135	416407	keystroke_r	r	n/a
208.3685	0.21	416737	keystroke_a	a	n/a
208.5635	0.1345	417127	keystroke_s	s	n/a
208.9825	0.105	417965	keystroke_h	h	n/a
209.1775	0.105	418355	keystroke_Key.space	Key.space	n/a
209.4485	0.12	418897	keystroke_t	t	n/a
209.5835	0.09	419167	keystroke_h	h	n/a
209.6585	0.12	419317	keystroke_a	a	n/a
209.7485	0.09	419497	keystroke_t	t	n/a
209.9435	0.09	419887	keystroke_'	'	n/a
210.0785	0.105	420157	keystroke_s	s	n/a
210.4975	0.091	420995	keystroke_Key.enter	Key.enter	n/a
210.5925	6.462	421185	prompt	n/a	hunt predictions priest routines\n
211.2485	0.135	422497	keystroke_h	h	n/a
211.3685	0.165	422737	keystroke_u	u	n/a
211.4885	0.12	422977	keystroke_n	n	n/a
211.6685	0.105	423337	keystroke_t	t	n/a
211.9685	0.12	423937	keystroke_Key.space	Key.space	n/a
212.2385	0.09	424477	keystroke_p	p	n/a
212.3735	0.105	424747	keystroke_r	r	n/a
212.5085	0.12	425017	keystroke_e	e	n/a
212.7035	0.09	425407	keystroke_d	d	n/a
212.8235	0.105	425647	keystroke_i	i	n/a
212.9735	0.12	425947	keystroke_c	c	n/a
213.2285	0.09	426457	keystroke_t	t	n/a
213.3035	0.225	426607	keystroke_i	i	n/a
213.4085	0.165	426817	keystroke_o	o	n/a
213.4685	0.165	426937	keystroke_n	n	n/a
213.6635	0.09	427327	keystroke_s	s	n/a
214.3535	0.044	428707	keystroke_Key.space	Key.space	n/a
214.5035	0.045	429007	keystroke_p	p	n/a
214.7285	0.09	429457	keystroke_r	r	n/a
214.9385	0.075	429877	keystroke_i	i	n/a
215.0435	0.075	430087	keystroke_e	e	n/a
215.2975	0.09	430595	keystroke_s	s	n/a
215.4925	0.076	430985	keystroke_t	t	n/a
215.5975	0.12	431195	keystroke_Key.space	Key.space	n/a
215.898	0.09	431796	keystroke_r	r	n/a
216.078	0.12	432156	keystroke_o	o	n/a
216.153	0.0895	432306	keystroke_u	u	n/a
216.3175	0.09	432635	keystroke_t	t	n/a
216.4225	0.135	432845	keystroke_i	i	n/a
216.5275	0.075	433055	keystroke_n	n	n/a
216.6175	0.09	433235	keystroke_e	e	n/a
216.8125	0.09	433625	keystroke_s	s	n/a
217.0075	0.045	434015	keystroke_Key.enter	Key.enter	n/a
217.059	8.2825	434118	prompt	n/a	translations hostel flashing weight\n
217.5775	0.105	435155	keystroke_t	t	n/a
217.7575	0.12	435515	keystroke_r	r	n/a
217.9225	0.121	435845	keystroke_a	a	n/a
218.0885	0.075	436177	keystroke_n	n	n/a
218.1635	0.105	436327	keystroke_s	s	n/a
218.493	0.09	436986	keystroke_l	l	n/a
218.628	0.075	437256	keystroke_a	a	n/a
218.763	0.105	437526	keystroke_t	t	n/a
218.853	0.21	437706	keystroke_i	i	n/a
218.928	0.15	437856	keystroke_o	o	n/a
219.033	0.105	438066	keystroke_n	n	n/a
219.138	0.105	438276	keystroke_s	s	n/a
219.393	0.105	438786	keystroke_Key.space	Key.space	n/a
219.678	0.15	439356	keystroke_h	h	n/a
219.798	0.075	439596	keystroke_o	o	n/a
219.963	0.09	439926	keystroke_s	s	n/a
220.203	0.075	440406	keystroke_t	t	n/a
220.368	0.0895	440736	keystroke_e	e	n/a
220.5775	0.105	441155	keystroke_l	l	n/a
220.7425	0.105	441485	keystroke_Key.space	Key.space	n/a
221.133	0.03	442266	keystroke_d	d	n/a
221.5825	0.06	443165	keystroke_Key.backspace	Key.backspace	n/a
221.6575	0.0755	443315	keystroke_f	f	n/a
221.808	0.105	443616	keystroke_l	l	n/a
221.9275	0.12	443855	keystroke_a	a	n/a
222.0025	0.1055	444005	keystroke_s	s	n/a
222.3175	0.1355	444635	keystroke_h	h	n/a
222.468	0.15	444936	keystroke_i	i	n/a
222.558	0.15	445116	keystroke_n	n	n/a
222.693	0.09	445386	keystroke_g	g	n/a
222.798	0.12	445596	keystroke_Key.space	Key.space	n/a
223.218	0.09	446436	keystroke_w	w	n/a
223.353	0.045	446706	keystroke_i	i	n/a
223.8175	0.045	447635	keystroke_Key.backspace	Key.backspace	n/a
223.8785	0.044	447757	keystroke_e	e	n/a
223.9685	0.074	447937	keystroke_i	i	n/a
224.0875	0.09	448175	keystroke_g	g	n/a
224.1935	0.075	448387	keystroke_h	h	n/a
224.3275	0.09	448655	keystroke_t	t	n/a
225.243	0.09	450486	keystroke_Key.enter	Key.enter	n/a
225.346	8.5085	450692	prompt	n/a	introduction civil breath cathedral\n
225.9485	0.134	451897	keystroke_i	i	n/a
226.0235	0.12	452047	keystroke_n	n	n/a
226.1585	0.075	452317	keystroke_t	t	n/a
226.308	0.12	452616	keystroke_r	r	n/a
226.473	0.09	452946	keystroke_o	o	n/a
226.818	0.09	453636	keystroke_d	d	n/a
226.938	0.09	453876	keystroke_u	u	n/a
227.043	0.12	454086	keystroke_c	c	n/a
227.358	0.0745	454716	keystroke_t	t	n/a
227.4335	0.224	454867	keystroke_i	i	n/a
227.5375	0.165	455075	keystroke_o	o	n/a
227.5975	0.165	455195	keystroke_n	n	n/a
227.7635	0.1195	455527	keystroke_Key.space	Key.space	n/a
227.928	0.105	455856	keystroke_c	c	n/a
228.078	0.075	456156	keystroke_i	i	n/a
228.258	0.135	456516	keystroke_v	v	n/a
228.483	0.075	456966	keystroke_i	i	n/a
228.738	0.075	457476	keystroke_l	l	n/a
228.933	0.09	457866	keystroke_Key.space	Key.space	n/a
229.3385	0.105	458677	keystroke_b	b	n/a
229.4585	0.1195	458917	keystroke_r	r	n/a
229.5335	0.18	459067	keystroke_e	e	n/a
229.6685	0.09	459337	keystroke_a	a	n/a
229.8485	0.09	459697	keystroke_t	t	n/a
230.0135	0.12	460027	keystroke_h	h	n/a
230.8975	0.075	461795	keystroke_Key.space	Key.space	n/a
231.483	0.15	462966	keystroke_c	c	n/a
231.588	0.12	463176	keystroke_a	a	n/a
231.768	0.105	463536	keystroke_t	t	n/a
231.888	0.1055	463776	keystroke_h	h	n/a
232.0085	0.105	464017	keystroke_e	e	n/a
232.4135	0.105	464827	keystroke_d	d	n/a
232.8925	0.105	465785	keystroke_r	r	n/a
232.9825	0.105	465965	keystroke_a	a	n/a
233.418	0.09	466836	keystroke_l	l	n/a
233.793	0.06	467586	keystroke_Key.enter	Key.enter	n/a
233.857	6.7395	467714	prompt	n/a	burton photo strong manhattan\n
234.528	0.12	469056	keystroke_b	b	n/a
234.723	0.075	469446	keystroke_u	u	n/a
234.813	0.09	469626	keystroke_r	r	n/a
235.383	0.0605	470766	keystroke_t	t	n/a
235.4285	0.165	470857	keystroke_o	o	n/a
235.5635	0.105	471127	keystroke_n	n	n/a
235.7585	0.09	471517	keystroke_Key.space	Key.space	n/a
235.9085	0.09	471817	keystroke_p	p	n/a
236.073	0.15	472146	keystroke_h	h	n/a
236.193	0.12	472386	keystroke_o	o	n/a
236.343	0.09	472686	keystroke_t	t	n/a
236.418	0.135	472836	keystroke_o	o	n/a
236.568	0.09	473136	keystroke_Key.space	Key.space	n/a
236.748	0.075	473496	keystroke_s	s	n/a
236.928	0.075	473856	keystroke_t	t	n/a
237.063	0.12	474126	keystroke_r	r	n/a
237.198	0.12	474396	keystroke_o	o	n/a
237.258	0.12	474516	keystroke_n	n	n/a
237.378	0.09	474756	keystroke_g	g	n/a
237.513	0.09	475026	keystroke_Key.space	Key.space	n/a
237.948	0.105	475896	keystroke_m	m	n/a
238.053	0.09	476106	keystroke_a	a	n/a
238.158	0.075	476316	keystroke_n	n	n/a
238.608	0.1195	477216	keystroke_h	h	n/a
238.7425	0.106	477485	keystroke_a	a	n/a
239.2085	0.09	478417	keystroke_t	t	n/a
239.3725	0.0905	478745	keystroke_t	t	n/a
239.508	0.075	479016	keystroke_o	o	n/a
239.868	0.06	479736	keystroke_Key.backspace	Key.backspace	n/a
239.958	0.06	479916	keystroke_a	a	n/a
240.063	0.1045	480126	keystroke_n	n	n/a
240.5125	0.075	481025	keystroke_Key.enter	Key.enter	n/a
240.6005	8.9065	481201	prompt	n/a	haven guest preservation confused\n
241.188	0.105	482376	keystroke_h	h	n/a
241.293	0.075	482586	keystroke_a	a	n/a
241.398	0.12	482796	keystroke_v	v	n/a
241.4575	0.1205	482915	keystroke_e	e	n/a
241.623	0.1345	483246	keystroke_n	n	n/a
241.773	0.12	483546	keystroke_Key.space	Key.space	n/a
242.1475	0.105	484295	keystroke_h	h	n/a
242.3575	0.075	484715	keystroke_u	u	n/a
242.7325	0.06	485465	keystroke_Key.backspace	Key.backspace	n/a
242.8525	0.075	485705	keystroke_Key.backspace	Key.backspace	n/a
243.423	0.09	486846	keystroke_g	g	n/a
243.693	0.075	487386	keystroke_u	u	n/a
243.828	0.09	487656	keystroke_e	e	n/a
244.038	0.09	488076	keystroke_s	s	n/a
244.233	0.105	488466	keystroke_t	t	n/a
244.413	0.135	488826	keystroke_Key.space	Key.space	n/a
244.683	0.075	489366	keystroke_p	p	n/a
244.803	0.12	489606	keystroke_r	r	n/a
244.863	0.12	489726	keystroke_e	e	n/a
245.058	0.105	490116	keystroke_s	s	n/a
245.223	0.12	490446	keystroke_e	e	n/a
245.298	0.12	490596	keystroke_r	r	n/a
245.628	0.075	491256	keystroke_c	c	n/a
245.673	0.105	491346	keystroke_a	a	n/a
246.1075	0.06	492215	keystroke_Key.backspace	Key.backspace	n/a
246.2425	0.09	492485	keystroke_Key.backspace	Key.backspace	n/a
246.3775	0.09	492755	keystroke_v	v	n/a
246.4825	0.09	492965	keystroke_a	a	n/a
246.9635	0.074	493927	keystroke_t	t	n/a
247.0225	0.27	494045	keystroke_i	i	n/a
247.1735	0.12	494347	keystroke_o	o	n/a
247.2325	0.151	494465	keystroke_n	n	n/a
247.3985	0.089	494797	keystroke_Key.space	Key.space	n/a
247.6235	0.089	495247	keystroke_c	c	n/a
247.6835	0.119	495367	keystroke_o	o	n/a
247.7575	0.105	495515	keystroke_n	n	n/a
248.5075	0.075	497015	keystroke_f	f	n/a
248.6425	0.09	497285	keystroke_u	u	n/a
248.748	0.0745	497496	keystroke_s	s	n/a
248.9425	0.105	497885	keystroke_e	e	n/a
249.0025	0.105	498005	keystroke_d	d	n/a
249.4375	0.06	498875	keystroke_Key.enter	Key.enter	n/a
249.5105	8.029	499021	prompt	n/a	women economics takes oxford\n
250.1425	0.09	500285	keystroke_w	w	n/a
250.2625	0.12	500525	keystroke_o	o	n/a
250.3375	0.12	500675	keystroke_m	m	n/a
250.4425	0.09	500885	keystroke_e	e	n/a
250.5625	0.135	501125	keystroke_n	n	n/a
250.7425	0.105	501485	keystroke_Key.space	Key.space	n/a
251.058	0.045	502116	keystroke_e	e	n/a
251.253	0.1045	502506	keystroke_c	c	n/a
251.3875	0.076	502775	keystroke_o	o	n/a
251.7175	0.105	503435	keystroke_n	n	n/a
251.8825	0.18	503765	keystroke_o	o	n/a
252.0475	0.105	504095	keystroke_m	m	n/a
252.2275	0.105	504455	keystroke_i	i	n/a
252.4075	0.12	504815	keystroke_c	c	n/a
252.4975	0.12	504995	keystroke_s	s	n/a
252.7525	0.135	505505	keystroke_Key.space	Key.space	n/a
253.1875	0.105	506375	keystroke_t	t	n/a
253.2925	0.136	506585	keystroke_a	a	n/a
253.4125	0.045	506825	keystroke_k	k	n/a
253.4725	0.105	506945	keystroke_e	e	n/a
253.6525	0.105	507305	keystroke_s	s	n/a
253.7725	0.105	507545	keystroke_Key.space	Key.space	n/a
254.3125	0.045	508625	keystroke_o	o	n/a
254.5975	0.105	509195	keystroke_z	z	n/a
255.2425	0.075	510485	keystroke_Key.backspace	Key.backspace	n/a
255.6175	0.075	511235	keystroke_x	x	n/a
256.0075	0.075	512015	keystroke_f	f	n/a
256.1275	0.09	512255	keystroke_o	o	n/a
256.2625	0.09	512525	keystroke_r	r	n/a
256.4575	0.106	512915	keystroke_d	d	n/a
257.4325	0.105	514865	keystroke_Key.enter	Key.enter	n/a
257.542	7.444	515084	prompt	n/a	packaging widescreen bedroom changes\n
258.153	0.09	516306	keystroke_p	p	n/a
258.318	0.075	516636	keystroke_a	a	n/a
258.438	0.105	516876	keystroke_c	c	n/a
258.558	0.075	517116	keystroke_k	k	n/a
258.753	0.075	517506	keystroke_a	a	n/a
258.963	0.075	517926	keystroke_g	g	n/a
259.053	0.1345	518106	keystroke_i	i	n/a
259.1425	0.105	518285	keystroke_n	n	n/a
259.2625	0.075	518525	keystroke_g	g	n/a
259.3675	0.135	518735	keystroke_Key.space	Key.space	n/a
259.5925	0.075	519185	keystroke_w	w	n/a
259.6975	0.075	519395	keystroke_i	i	n/a
259.8175	0.18	519635	keystroke_d	d	n/a
259.9525	0.09	519905	keystroke_e	e	n/a
260.2225	0.075	520445	keystroke_s	s	n/a
260.493	0.135	520986	keystroke_c	c	n/a
260.853	0.135	521706	keystroke_r	r	n/a
260.973	0.075	521946	keystroke_e	e	n/a
261.123	0.105	522246	keystroke_e	e	n/a
261.288	0.1345	522576	keystroke_n	n	n/a
261.4975	0.105	522995	keystroke_Key.space	Key.space	n/a
261.7975	0.105	523595	keystroke_b	b	n/a
261.9175	0.045	523835	keystroke_e	e	n/a
262.0675	0.105	524135	keystroke_d	d	n/a
262.3525	0.09	524705	keystroke_r	r	n/a
262.5775	0.076	525155	keystroke_o	o	n/a
262.7575	0.136	525515	keystroke_o	o	n/a
262.8635	0.1345	525727	keystroke_m	m	n/a
263.013	0.09	526026	keystroke_Key.space	Key.space	n/a
263.223	0.09	526446	keystroke_c	c	n/a
263.328	0.09	526656	keystroke_h	h	n/a
263.463	0.045	526926	keystroke_a	a	n/a
263.943	0.06	527886	keystroke_n	n	n/a
264.063	0.12	528126	keystroke_g	g	n/a
264.183	0.09	528366	keystroke_e	e	n/a
264.393	0.09	528786	keystroke_s	s	n/a
264.903	0.075	529806	keystroke_Key.enter	Key.enter	n/a
264.9905	11.1275	529981	prompt	n/a	supplied technological release parks\n
266.1485	0.015	532297	keystroke_s	s	n/a
266.2525	0.061	532505	keystroke_u	u	n/a
266.6575	0.06	533315	keystroke_p	p	n/a
266.8235	0.09	533647	keystroke_p	p	n/a
267.123	0.075	534246	keystroke_l	l	n/a
267.288	0.105	534576	keystroke_i	i	n/a
267.708	0.12	535416	keystroke_e	e	n/a
267.768	0.135	535536	keystroke_d	d	n/a
267.963	0.135	535926	keystroke_Key.space	Key.space	n/a
268.563	0.1045	537126	keystroke_t	t	n/a
268.6975	0.135	537395	keystroke_e	e	n/a
268.8625	0.105	537725	keystroke_c	c	n/a
269.0875	0.045	538175	keystroke_h	h	n/a
269.673	0.12	539346	keystroke_n	n	n/a
269.778	0.135	539556	keystroke_o	o	n/a
269.973	0.105	539946	keystroke_l	l	n/a
270.138	0.105	540276	keystroke_o	o	n/a
270.303	0.09	540606	keystroke_g	g	n/a
270.408	0.12	540816	keystroke_i	i	n/a
270.573	0.0745	541146	keystroke_a	a	n/a
271.7125	0.076	543425	keystroke_Key.backspace	Key.backspace	n/a
271.8635	0.15	543727	keystroke_c	c	n/a
272.0285	0.105	544057	keystroke_a	a	n/a
272.2985	0.075	544597	keystroke_l	l	n/a
272.5225	0.105	545045	keystroke_Key.space	Key.space	n/a
273.018	0.135	546036	keystroke_r	r	n/a
273.093	0.1045	546186	keystroke_e	e	n/a
273.2125	0.09	546425	keystroke_l	l	n/a
273.3475	0.105	546695	keystroke_e	e	n/a
273.4535	0.194	546907	keystroke_a	a	n/a
273.5725	0.09	547145	keystroke_s	s	n/a
273.7825	0.09	547565	keystroke_e	e	n/a
273.8875	0.105	547775	keystroke_Key.space	Key.space	n/a
274.0525	0.12	548105	keystroke_p	p	n/a
274.1575	0.15	548315	keystroke_a	a	n/a
274.248	0.1045	548496	keystroke_r	r	n/a
274.458	0.075	548916	keystroke_t	t	n/a
274.8925	0.045	549785	keystroke_Key.backspace	Key.backspace	n/a
275.0125	0.106	550025	keystroke_k	k	n/a
275.1475	0.09	550295	keystroke_s	s	n/a
276.0485	0.06	552097	keystroke_Key.enter	Key.enter	n/a
276.122	6.992	552244	prompt	n/a	choice courts americans brings\n
276.678	0.12	553356	keystroke_c	c	n/a
276.798	0.15	553596	keystroke_h	h	n/a
276.933	0.165	553866	keystroke_o	o	n/a
277.038	0.09	554076	keystroke_i	i	n/a
277.143	0.15	554286	keystroke_c	c	n/a
277.263	0.105	554526	keystroke_e	e	n/a
277.383	0.105	554766	keystroke_Key.space	Key.space	n/a
277.653	0.12	555306	keystroke_c	c	n/a
277.758	0.12	555516	keystroke_o	o	n/a
277.818	0.105	555636	keystroke_u	u	n/a
277.938	0.105	555876	keystroke_r	r	n/a
278.208	0.0895	556416	keystroke_t	t	n/a
278.4025	0.1055	556805	keystroke_s	s	n/a
278.538	0.0895	557076	keystroke_Key.space	Key.space	n/a
278.6425	0.12	557285	keystroke_a	a	n/a
278.8075	0.09	557615	keystroke_m	m	n/a
278.9125	0.135	557825	keystroke_e	e	n/a
279.0025	0.09	558005	keystroke_r	r	n/a
279.123	0.0895	558246	keystroke_i	i	n/a
279.228	0.15	558456	keystroke_c	c	n/a
279.3325	0.1205	558665	keystroke_a	a	n/a
279.468	0.135	558936	keystroke_n	n	n/a
279.618	0.12	559236	keystroke_s	s	n/a
279.783	0.09	559566	keystroke_Key.space	Key.space	n/a
279.993	0.12	559986	keystroke_b	b	n/a
280.143	0.09	560286	keystroke_r	r	n/a
280.968	0.09	561936	keystroke_i	i	n/a
281.118	0.09	562236	keystroke_g	g	n/a
281.808	0.075	563616	keystroke_Key.backspace	Key.backspace	n/a
282.0175	0.09	564035	keystroke_n	n	n/a
282.0625	0.105	564125	keystroke_g	g	n/a
282.3925	0.045	564785	keystroke_s	s	n/a
283.0675	0.045	566135	keystroke_Key.enter	Key.enter	n/a
283.117	14.841	566234	prompt	n/a	itself propecia strictly performer\n
283.9525	0.09	567905	keystroke_i	i	n/a
284.2375	0.105	568475	keystroke_t	t	n/a
284.8225	0.09	569645	keystroke_s	s	n/a
285.0475	0.06	570095	keystroke_e	e	n/a
285.1225	0.075	570245	keystroke_l	l	n/a
285.3775	0.105	570755	keystroke_f	f	n/a
285.8725	0.12	571745	keystroke_Key.space	Key.space	n/a
286.0825	0.09	572165	keystroke_p	p	n/a
286.1875	0.0905	572375	keystroke_r	r	n/a
286.323	0.105	572646	keystroke_o	o	n/a
286.848	0.075	573696	keystroke_p	p	n/a
287.223	0.105	574446	keystroke_e	e	n/a
287.418	0.105	574836	keystroke_c	c	n/a
287.613	0.06	575226	keystroke_i	i	n/a
289.8205	0.012	579641	keystroke_a	a	n/a
293.6755	0.027	587351	keystroke_Key.space	Key.space	n/a
293.9425	0.09	587885	keystroke_s	s	n/a
294.1675	0.09	588335	keystroke_t	t	n/a
294.3475	0.09	588695	keystroke_r	r	n/a
294.4675	0.075	588935	keystroke_i	i	n/a
294.5725	0.091	589145	keystroke_c	c	n/a
294.8435	0.06	589687	keystroke_t	t	n/a
295.0385	0.09	590077	keystroke_l	l	n/a
295.3235	0.0895	590647	keystroke_y	y	n/a
295.473	0.105	590946	keystroke_Key.space	Key.space	n/a
295.638	0.105	591276	keystroke_p	p	n/a
295.758	0.105	591516	keystroke_e	e	n/a
295.833	0.105	591666	keystroke_r	r	n/a
296.3725	0.075	592745	keystroke_f	f	n/a
296.4775	0.075	592955	keystroke_o	o	n/a
296.5975	0.045	593195	keystroke_r	r	n/a
297.198	0.075	594396	keystroke_m	m	n/a
297.288	0.15	594576	keystroke_e	e	n/a
297.378	0.09	594756	keystroke_r	r	n/a
297.8725	0.0755	595745	keystroke_Key.enter	Key.enter	n/a
297.9625	11.649	595925	prompt	n/a	demand mixture licensing efficient\n
298.578	0.06	597156	keystroke_s	s	n/a
298.923	0.075	597846	keystroke_Key.backspace	Key.backspace	n/a
299.013	0.105	598026	keystroke_d	d	n/a
299.058	0.105	598116	keystroke_e	e	n/a
299.223	0.105	598446	keystroke_m	m	n/a
299.523	0.09	599046	keystroke_a	a	n/a
299.628	0.075	599256	keystroke_n	n	n/a
299.718	0.105	599436	keystroke_d	d	n/a
299.883	0.075	599766	keystroke_Key.space	Key.space	n/a
300.063	0.075	600126	keystroke_m	m	n/a
300.228	0.075	600456	keystroke_i	i	n/a
300.558	0.105	601116	keystroke_z	z	n/a
301.2185	0.105	602437	keystroke_Key.backspace	Key.backspace	n/a
301.893	0.09	603786	keystroke_x	x	n/a
302.523	0.09	605046	keystroke_t	t	n/a
302.658	0.0905	605316	keystroke_u	u	n/a
302.7185	0.134	605437	keystroke_r	r	n/a
302.7935	0.104	605587	keystroke_e	e	n/a
303.1075	0.1055	606215	keystroke_Key.space	Key.space	n/a
303.483	0.15	606966	keystroke_l	l	n/a
303.603	0.105	607206	keystroke_i	i	n/a
304.2925	0.15	608585	keystroke_c	c	n/a
304.4125	0.105	608825	keystroke_e	e	n/a
305.043	0.09	610086	keystroke_n	n	n/a
305.328	0.0905	610656	keystroke_s	s	n/a
305.4635	0.105	610927	keystroke_i	i	n/a
305.5385	0.105	611077	keystroke_n	n	n/a
305.6285	0.105	611257	keystroke_g	g	n/a
305.8085	0.09	611617	keystroke_Key.space	Key.space	n/a
306.2735	0.105	612547	keystroke_e	e	n/a
306.4985	0.075	612997	keystroke_f	f	n/a
306.6935	0.045	613387	keystroke_f	f	n/a
306.9475	0.09	613895	keystroke_i	i	n/a
308.7325	0.121	617465	keystroke_c	c	n/a
308.9275	0.015	617855	keystroke_i	i	n/a
308.9875	0.06	617975	keystroke_e	e	n/a
309.0925	0.075	618185	keystroke_n	n	n/a
309.3025	0.075	618605	keystroke_t	t	n/a
309.5275	0.075	619055	keystroke_Key.enter	Key.enter	n/a
309.617	8.8765	619234	prompt	n/a	planned headed wearing cuts\n
310.2635	0.15	620527	keystroke_p	p	n/a
310.3685	0.075	620737	keystroke_l	l	n/a
310.5935	0.105	621187	keystroke_a	a	n/a
310.7885	0.06	621577	keystroke_n	n	n/a
310.9235	0.075	621847	keystroke_n	n	n/a
311.1935	0.06	622387	keystroke_f	f	n/a
311.5985	0.075	623197	keystroke_Key.backspace	Key.backspace	n/a
311.7185	0.06	623437	keystroke_r	r	n/a
312.228	0.075	624456	keystroke_Key.backspace	Key.backspace	n/a
312.333	0.09	624666	keystroke_e	e	n/a
312.438	0.12	624876	keystroke_d	d	n/a
312.618	0.09	625236	keystroke_Key.space	Key.space	n/a
313.428	0.105	626856	keystroke_h	h	n/a
313.563	0.015	627126	keystroke_a	a	n/a
313.9825	0.045	627965	keystroke_Key.backspace	Key.backspace	n/a
314.0285	0.18	628057	keystroke_e	e	n/a
314.1335	0.165	628267	keystroke_a	a	n/a
314.2535	0.195	628507	keystroke_d	d	n/a
314.4485	0.134	628897	keystroke_e	e	n/a
314.5685	0.119	629137	keystroke_d	d	n/a
315.1525	0.105	630305	keystroke_Key.space	Key.space	n/a
315.4685	0.224	630937	keystroke_w	w	n/a
315.6775	0.12	631355	keystroke_e	e	n/a
316.4575	0.1655	632915	keystroke_r	r	n/a
316.833	0.045	633666	keystroke_Key.backspace	Key.backspace	n/a
316.878	0.105	633756	keystroke_a	a	n/a
316.938	0.09	633876	keystroke_r	r	n/a
317.088	0.09	634176	keystroke_i	i	n/a
317.148	0.105	634296	keystroke_n	n	n/a
317.223	0.105	634446	keystroke_g	g	n/a
317.3875	0.105	634775	keystroke_Key.space	Key.space	n/a
317.7625	0.106	635525	keystroke_c	c	n/a
317.838	0.12	635676	keystroke_u	u	n/a
318.048	0.0605	636096	keystroke_t	t	n/a
318.183	0.1495	636366	keystroke_s	s	n/a
318.4075	0.075	636815	keystroke_Key.enter	Key.enter	n/a
318.4985	7.6135	636997	prompt	n/a	pens hybrid spank streets\n
319.1125	0.0605	638225	keystroke_p	p	n/a
319.1885	0.09	638377	keystroke_e	e	n/a
319.3085	0.1045	638617	keystroke_n	n	n/a
319.443	0.075	638886	keystroke_s	s	n/a
319.623	0.075	639246	keystroke_Key.space	Key.space	n/a
319.848	0.09	639696	keystroke_h	h	n/a
320.043	0.075	640086	keystroke_y	y	n/a
320.508	0.0895	641016	keystroke_b	b	n/a
320.718	0.1045	641436	keystroke_r	r	n/a
320.8525	0.0755	641705	keystroke_i	i	n/a
321.0475	0.1055	642095	keystroke_d	d	n/a
321.6025	0.09	643205	keystroke_Key.space	Key.space	n/a
321.8875	0.0905	643775	keystroke_s	s	n/a
322.083	0.09	644166	keystroke_p	p	n/a
322.248	0.075	644496	keystroke_a	a	n/a
322.4135	0.09	644827	keystroke_n	n	n/a
322.5335	0.149	645067	keystroke_c	c	n/a
323.0125	0.045	646025	keystroke_Key.backspace	Key.backspace	n/a
323.2075	0.1055	646415	keystroke_k	k	n/a
323.748	0.1045	647496	keystroke_Key.space	Key.space	n/a
323.8835	0.074	647767	keystroke_s	s	n/a
324.093	0.075	648186	keystroke_t	t	n/a
324.273	0.09	648546	keystroke_r	r	n/a
324.333	0.105	648666	keystroke_e	e	n/a
325.0225	0.09	650045	keystroke_e	e	n/a
325.4425	0.075	650885	keystroke_t	t	n/a
325.6675	0.09	651335	keystroke_s	s	n/a
326.0125	0.09	652025	keystroke_Key.enter	Key.enter	n/a
326.1165	6.138	652233	prompt	n/a	trial shot ready lindsay\n
326.763	0.075	653526	keystroke_t	t	n/a
326.943	0.09	653886	keystroke_r	r	n/a
327.078	0.0905	654156	keystroke_i	i	n/a
327.1525	0.105	654305	keystroke_a	a	n/a
327.3025	0.18	654605	keystroke_l	l	n/a
327.4525	0.12	654905	keystroke_Key.space	Key.space	n/a
327.7075	0.075	655415	keystroke_s	s	n/a
327.8875	0.061	655775	keystroke_h	h	n/a
327.9175	0.105	655835	keystroke_o	o	n/a
328.1725	0.09	656345	keystroke_t	t	n/a
328.3525	0.105	656705	keystroke_Key.space	Key.space	n/a
328.6835	0.074	657367	keystroke_s	s	n/a
328.9825	0.075	657965	keystroke_Key.backspace	Key.backspace	n/a
329.0425	0.135	658085	keystroke_r	r	n/a
329.1175	0.165	658235	keystroke_e	e	n/a
329.2225	0.135	658445	keystroke_a	a	n/a
329.2835	0.1495	658567	keystroke_d	d	n/a
329.463	0.135	658926	keystroke_y	y	n/a
329.628	0.12	659256	keystroke_Key.space	Key.space	n/a
330.4685	0.165	660937	keystroke_l	l	n/a
330.5735	0.1495	661147	keystroke_i	i	n/a
330.6935	0.1045	661387	keystroke_n	n	n/a
330.963	0.09	661926	keystroke_d	d	n/a
331.473	0.12	662946	keystroke_s	s	n/a
331.608	0.12	663216	keystroke_a	a	n/a
331.773	0.075	663546	keystroke_y	y	n/a
332.193	0.06	664386	keystroke_Key.enter	Key.enter	n/a
332.2585	7.346	664517	prompt	n/a	shakespeare specs three initial\n
332.883	0.12	665766	keystroke_s	s	n/a
333.018	0.06	666036	keystroke_h	h	n/a
333.123	0.09	666246	keystroke_a	a	n/a
333.318	0.075	666636	keystroke_k	k	n/a
333.438	0.105	666876	keystroke_e	e	n/a
333.753	0.09	667506	keystroke_s	s	n/a
334.083	0.09	668166	keystroke_p	p	n/a
334.413	0.195	668826	keystroke_e	e	n/a
334.758	0.135	669516	keystroke_a	a	n/a
334.848	0.135	669696	keystroke_r	r	n/a
334.968	0.105	669936	keystroke_e	e	n/a
335.538	0.09	671076	keystroke_Key.space	Key.space	n/a
336.198	0.1345	672396	keystroke_s	s	n/a
336.3475	0.06	672695	keystroke_p	p	n/a
336.4525	0.075	672905	keystroke_e	e	n/a
336.5875	0.1205	673175	keystroke_c	c	n/a
336.813	0.1195	673626	keystroke_s	s	n/a
336.9925	0.12	673985	keystroke_Key.space	Key.space	n/a
337.233	0.075	674466	keystroke_t	t	n/a
337.323	0.105	674646	keystroke_h	h	n/a
337.473	0.105	674946	keystroke_r	r	n/a
337.653	0.075	675306	keystroke_e	e	n/a
337.803	0.105	675606	keystroke_e	e	n/a
337.968	0.09	675936	keystroke_Key.space	Key.space	n/a
338.223	0.12	676446	keystroke_i	i	n/a
338.328	0.12	676656	keystroke_n	n	n/a
338.463	0.075	676926	keystroke_i	i	n/a
338.598	0.0745	677196	keystroke_t	t	n/a
338.718	0.0895	677436	keystroke_i	i	n/a
338.7925	0.0905	677585	keystroke_a	a	n/a
339.123	0.105	678246	keystroke_l	l	n/a
339.543	0.06	679086	keystroke_Key.enter	Key.enter	n/a
339.6075	11.0145	679215	prompt	n/a	potato individually experiences metallica\n
340.2635	0.09	680527	keystroke_p	p	n/a
340.5785	0.12	681157	keystroke_o	o	n/a
340.8035	0.09	681607	keystroke_t	t	n/a
340.9535	0.1345	681907	keystroke_a	a	n/a
341.133	0.09	682266	keystroke_t	t	n/a
341.283	0.09	682566	keystroke_o	o	n/a
341.5835	0.06	683167	keystroke_Key.space	Key.space	n/a
341.793	0.1055	683586	keystroke_i	i	n/a
341.868	0.1505	683736	keystroke_n	n	n/a
341.973	0.09	683946	keystroke_d	d	n/a
342.7535	0.075	685507	keystroke_i	i	n/a
343.0835	0.075	686167	keystroke_v	v	n/a
343.3235	0.09	686647	keystroke_i	i	n/a
343.8785	0.105	687757	keystroke_d	d	n/a
344.0885	0.09	688177	keystroke_u	u	n/a
344.2235	0.075	688447	keystroke_a	a	n/a
344.3135	0.06	688627	keystroke_l	l	n/a
344.4635	0.075	688927	keystroke_l	l	n/a
344.7035	0.1195	689407	keystroke_y	y	n/a
344.928	0.105	689856	keystroke_Key.space	Key.space	n/a
345.588	0.09	691176	keystroke_e	e	n/a
345.918	0.15	691836	keystroke_x	x	n/a
346.203	0.075	692406	keystroke_p	p	n/a
346.338	0.1505	692676	keystroke_e	e	n/a
346.4435	0.105	692887	keystroke_r	r	n/a
346.5935	0.09	693187	keystroke_i	i	n/a
346.7285	0.075	693457	keystroke_e	e	n/a
346.8485	0.09	693697	keystroke_n	n	n/a
346.9235	0.165	693847	keystroke_c	c	n/a
347.0285	0.105	694057	keystroke_e	e	n/a
347.208	0.09	694416	keystroke_s	s	n/a
347.8075	0.105	695615	keystroke_Key.space	Key.space	n/a
348.1225	0.135	696245	keystroke_m	m	n/a
348.2425	0.12	696485	keystroke_e	e	n/a
348.4235	0.119	696847	keystroke_t	t	n/a
348.5735	0.12	697147	keystroke_a	a	n/a
348.7085	0.119	697417	keystroke_l	l	n/a
349.923	0.12	699846	keystroke_l	l	n/a
349.998	0.12	699996	keystroke_i	i	n/a
350.088	0.105	700176	keystroke_c	c	n/a
350.163	0.135	700326	keystroke_a	a	n/a
350.538	0.075	701076	keystroke_Key.enter	Key.enter	n/a
350.6265	10.3	701253	prompt	n/a	breeding cohen negotiation reflects\n
351.423	0.09	702846	keystroke_b	b	n/a
351.558	0.135	703116	keystroke_r	r	n/a
351.678	0.075	703356	keystroke_e	e	n/a
351.858	0.1355	703716	keystroke_e	e	n/a
351.9785	0.105	703957	keystroke_d	d	n/a
352.0985	0.135	704197	keystroke_i	i	n/a
352.1885	0.105	704377	keystroke_n	n	n/a
352.3085	0.09	704617	keystroke_g	g	n/a
352.4285	0.09	704857	keystroke_Key.space	Key.space	n/a
352.5935	0.12	705187	keystroke_c	c	n/a
352.8485	0.12	705697	keystroke_o	o	n/a
353.0285	0.15	706057	keystroke_h	h	n/a
353.628	0.105	707256	keystroke_e	e	n/a
353.8385	0.135	707677	keystroke_n	n	n/a
353.9735	0.075	707947	keystroke_Key.space	Key.space	n/a
354.2135	0.075	708427	keystroke_n	n	n/a
354.3035	0.09	708607	keystroke_e	e	n/a
355.1735	0.06	710347	keystroke_g	g	n/a
355.3835	0.1045	710767	keystroke_o	o	n/a
356.253	0.12	712506	keystroke_r	r	n/a
356.823	0.06	713646	keystroke_Key.backspace	Key.backspace	n/a
356.898	0.09	713796	keystroke_t	t	n/a
357.048	0.09	714096	keystroke_i	i	n/a
357.198	0.09	714396	keystroke_a	a	n/a
357.558	0.06	715116	keystroke_t	t	n/a
357.573	0.255	715146	keystroke_i	i	n/a
357.723	0.135	715446	keystroke_o	o	n/a
357.798	0.09	715596	keystroke_n	n	n/a
357.978	0.12	715956	keystroke_Key.space	Key.space	n/a
358.458	0.135	716916	keystroke_r	r	n/a
358.548	0.09	717096	keystroke_e	e	n/a
358.8635	0.09	717727	keystroke_f	f	n/a
359.3735	0.09	718747	keystroke_l	l	n/a
359.8385	0.105	719677	keystroke_e	e	n/a
359.9575	0.12	719915	keystroke_c	c	n/a
360.1985	0.074	720397	keystroke_t	t	n/a
360.4525	0.015	720905	keystroke_s	s	n/a
360.843	0.075	721686	keystroke_Key.enter	Key.enter	n/a
360.931	13.3755	721862	prompt	n/a	stop joke who'd've file\n
361.518	0.15	723036	keystroke_s	s	n/a
361.803	0.09	723606	keystroke_t	t	n/a
361.983	0.18	723966	keystroke_o	o	n/a
362.118	0.15	724236	keystroke_p	p	n/a
362.238	0.105	724476	keystroke_Key.space	Key.space	n/a
363.2585	0.105	726517	keystroke_j	j	n/a
363.4685	0.12	726937	keystroke_o	o	n/a
363.5285	0.12	727057	keystroke_k	k	n/a
363.7085	0.075	727417	keystroke_e	e	n/a
363.8285	0.105	727657	keystroke_Key.space	Key.space	n/a
363.9935	0.06	727987	keystroke_w	w	n/a
364.0985	0.1195	728197	keystroke_o	o	n/a
364.173	0.09	728346	keystroke_u	u	n/a
365.6575	0.045	731315	keystroke_Key.backspace	Key.backspace	n/a
365.7925	0.06	731585	keystroke_Key.backspace	Key.backspace	n/a
366.0035	0.104	732007	keystroke_h	h	n/a
366.0935	0.074	732187	keystroke_o	o	n/a
366.5725	0.105	733145	keystroke_'	'	n/a
367.053	0.12	734106	keystroke_d	d	n/a
367.3675	0.106	734735	keystroke_'	'	n/a
367.7285	0.12	735457	keystroke_v	v	n/a
367.8335	0.09	735667	keystroke_e	e	n/a
369.4535	0.12	738907	keystroke_Key.space	Key.space	n/a
369.6635	0.105	739327	keystroke_d	d	n/a
369.7685	0.105	739537	keystroke_i	i	n/a
369.8885	0.105	739777	keystroke_l	l	n/a
369.9785	0.105	739957	keystroke_e	e	n/a
370.3685	0.06	740737	keystroke_Key.backspace	Key.backspace	n/a
370.5035	0.075	741007	keystroke_Key.backspace	Key.backspace	n/a
370.6535	0.06	741307	keystroke_Key.backspace	Key.backspace	n/a
370.7735	0.075	741547	keystroke_Key.backspace	Key.backspace	n/a
370.8785	0.09	741757	keystroke_f	f	n/a
371.0585	0.105	742117	keystroke_i	i	n/a
371.4485	0.075	742897	keystroke_l	l	n/a
371.5685	0.105	743137	keystroke_e	e	n/a
374.271	0.027	748542	keystroke_Key.enter	Key.enter	n/a
374.3105	11.681	748621	prompt	n/a	main qualified applications canberra\n
375.2885	0.075	750577	keystroke_m	m	n/a
375.3785	0.09	750757	keystroke_a	a	n/a
375.4835	0.12	750967	keystroke_i	i	n/a
375.5585	0.135	751117	keystroke_n	n	n/a
375.7085	0.105	751417	keystroke_Key.space	Key.space	n/a
376.5935	0.105	753187	keystroke_q	q	n/a
376.8485	0.09	753697	keystroke_u	u	n/a
377.2385	0.09	754477	keystroke_a	a	n/a
377.448	0.18	754896	keystroke_k	k	n/a
377.643	0.06	755286	keystroke_u	u	n/a
378.138	0.06	756276	keystroke_Key.backspace	Key.backspace	n/a
378.288	0.045	756576	keystroke_Key.backspace	Key.backspace	n/a
379.1885	0.15	758377	keystroke_l	l	n/a
379.2635	0.12	758527	keystroke_i	i	n/a
379.6835	0.105	759367	keystroke_f	f	n/a
379.8335	0.09	759667	keystroke_i	i	n/a
379.9085	0.075	759817	keystroke_e	e	n/a
380.3735	0.104	760747	keystroke_d	d	n/a
380.508	0.12	761016	keystroke_Key.space	Key.space	n/a
380.823	0.105	761646	keystroke_a	a	n/a
380.9735	0.075	761947	keystroke_p	p	n/a
381.1385	0.135	762277	keystroke_p	p	n/a
381.2435	0.075	762487	keystroke_l	l	n/a
381.7235	0.09	763447	keystroke_i	i	n/a
382.0385	0.0895	764077	keystroke_c	c	n/a
382.0835	0.1195	764167	keystroke_a	a	n/a
382.308	0.0895	764616	keystroke_t	t	n/a
382.3675	0.2255	764735	keystroke_i	i	n/a
382.4275	0.1505	764855	keystroke_o	o	n/a
382.518	0.12	765036	keystroke_n	n	n/a
382.608	0.105	765216	keystroke_s	s	n/a
382.758	0.09	765516	keystroke_Key.space	Key.space	n/a
383.343	0.165	766686	keystroke_n	n	n/a
383.733	0.075	767466	keystroke_Key.backspace	Key.backspace	n/a
384.033	0.105	768066	keystroke_c	c	n/a
384.093	0.15	768186	keystroke_a	a	n/a
384.228	0.061	768456	keystroke_n	n	n/a
384.9475	0.0755	769895	keystroke_b	b	n/a
385.1125	0.09	770225	keystroke_e	e	n/a
385.2485	0.075	770497	keystroke_r	r	n/a
385.413	0.09	770826	keystroke_r	r	n/a
385.488	0.105	770976	keystroke_a	a	n/a
385.923	0.06	771846	keystroke_Key.enter	Key.enter	n/a
385.995	7.9465	771990	prompt	n/a	bali bless provision enabling\n
387.4685	0.075	774937	keystroke_b	b	n/a
387.6035	0.075	775207	keystroke_a	a	n/a
387.7075	0.1655	775415	keystroke_l	l	n/a
387.8435	0.1045	775687	keystroke_i	i	n/a
388.068	0.09	776136	keystroke_Key.space	Key.space	n/a
388.578	0.105	777156	keystroke_b	b	n/a
388.758	0.075	777516	keystroke_l	l	n/a
388.998	0.09	777996	keystroke_e	e	n/a
389.193	0.075	778386	keystroke_s	s	n/a
389.358	0.06	778716	keystroke_s	s	n/a
389.4775	0.105	778955	keystroke_Key.space	Key.space	n/a
389.6875	0.09	779375	keystroke_p	p	n/a
389.9285	0.059	779857	keystroke_o	o	n/a
390.2275	0.0455	780455	keystroke_Key.backspace	Key.backspace	n/a
390.288	0.0895	780576	keystroke_r	r	n/a
390.4075	0.09	780815	keystroke_o	o	n/a
390.663	0.1055	781326	keystroke_v	v	n/a
390.7985	0.09	781597	keystroke_i	i	n/a
391.0085	0.09	782017	keystroke_s	s	n/a
391.1135	0.195	782227	keystroke_i	i	n/a
391.2035	0.12	782407	keystroke_o	o	n/a
391.2935	0.1045	782587	keystroke_n	n	n/a
391.533	0.09	783066	keystroke_Key.space	Key.space	n/a
391.788	0.075	783576	keystroke_e	e	n/a
391.893	0.105	783786	keystroke_n	n	n/a
392.2235	0.09	784447	keystroke_a	a	n/a
392.3435	0.09	784687	keystroke_b	b	n/a
392.9585	0.105	785917	keystroke_l	l	n/a
393.0185	0.135	786037	keystroke_i	i	n/a
393.1225	0.121	786245	keystroke_n	n	n/a
393.3335	0.1195	786667	keystroke_g	g	n/a
393.858	0.075	787716	keystroke_Key.enter	Key.enter	n/a
393.9455	7.804	787891	prompt	n/a	jose reads vitamins issn\n
394.758	0.15	789516	keystroke_j	j	n/a
394.863	0.105	789726	keystroke_o	o	n/a
394.983	0.09	789966	keystroke_s	s	n/a
395.133	0.105	790266	keystroke_e	e	n/a
395.313	0.105	790626	keystroke_Key.space	Key.space	n/a
395.748	0.135	791496	keystroke_r	r	n/a
395.823	0.135	791646	keystroke_e	e	n/a
395.913	0.15	791826	keystroke_a	a	n/a
395.988	0.15	791976	keystroke_d	d	n/a
396.228	0.135	792456	keystroke_s	s	n/a
396.423	0.135	792846	keystroke_Key.space	Key.space	n/a
396.8585	0.12	793717	keystroke_b	b	n/a
397.0385	0.09	794077	keystroke_i	i	n/a
397.1435	0.09	794287	keystroke_t	t	n/a
397.3385	0.105	794677	keystroke_a	a	n/a
397.5935	0.045	795187	keystroke_Key.backspace	Key.backspace	n/a
397.7135	0.09	795427	keystroke_Key.backspace	Key.backspace	n/a
397.8635	0.09	795727	keystroke_Key.backspace	Key.backspace	n/a
397.9985	0.12	795997	keystroke_Key.backspace	Key.backspace	n/a
398.6885	0.105	797377	keystroke_v	v	n/a
398.8535	0.09	797707	keystroke_i	i	n/a
399.0635	0.105	798127	keystroke_t	t	n/a
399.3185	0.15	798637	keystroke_a	a	n/a
399.7985	0.105	799597	keystroke_m	m	n/a
399.8885	0.15	799777	keystroke_i	i	n/a
400.0085	0.105	800017	keystroke_n	n	n/a
400.1435	0.09	800287	keystroke_s	s	n/a
400.4135	0.09	800827	keystroke_Key.space	Key.space	n/a
400.9085	0.09	801817	keystroke_i	i	n/a
401.0285	0.09	802057	keystroke_s	s	n/a
401.1785	0.09	802357	keystroke_s	s	n/a
401.2685	0.1045	802537	keystroke_n	n	n/a
401.6735	0.075	803347	keystroke_Key.enter	Key.enter	n/a
401.7545	9.2575	803509	prompt	n/a	facts markets moldova cure\n
402.4685	0.015	804937	keystroke_d	d	n/a
402.8585	0.06	805717	keystroke_Key.backspace	Key.backspace	n/a
402.9335	0.09	805867	keystroke_f	f	n/a
402.9935	0.165	805987	keystroke_a	a	n/a
403.1135	0.15	806227	keystroke_c	c	n/a
403.2035	0.105	806407	keystroke_e	e	n/a
403.518	0.075	807036	keystroke_t	t	n/a
403.743	0.06	807486	keystroke_Key.backspace	Key.backspace	n/a
403.863	0.09	807726	keystroke_Key.backspace	Key.backspace	n/a
403.968	0.12	807936	keystroke_t	t	n/a
404.268	0.09	808536	keystroke_s	s	n/a
404.463	0.09	808926	keystroke_Key.space	Key.space	n/a
404.808	0.105	809616	keystroke_m	m	n/a
404.883	0.135	809766	keystroke_a	a	n/a
404.973	0.105	809946	keystroke_r	r	n/a
405.243	0.105	810486	keystroke_k	k	n/a
405.363	0.165	810726	keystroke_e	e	n/a
405.483	0.105	810966	keystroke_t	t	n/a
405.738	0.12	811476	keystroke_s	s	n/a
405.948	0.105	811896	keystroke_Key.space	Key.space	n/a
406.548	0.09	813096	keystroke_m	m	n/a
406.8185	0.09	813637	keystroke_o	o	n/a
406.9985	0.105	813997	keystroke_l	l	n/a
407.2685	0.12	814537	keystroke_d	d	n/a
408.1225	0.061	816245	keystroke_o	o	n/a
408.2435	0.1495	816487	keystroke_v	v	n/a
408.513	0.09	817026	keystroke_a	a	n/a
409.803	0.09	819606	keystroke_Key.space	Key.space	n/a
410.313	0.1055	820626	keystroke_c	c	n/a
410.4485	0.075	820897	keystroke_u	u	n/a
410.5835	0.12	821167	keystroke_r	r	n/a
410.6585	0.105	821317	keystroke_e	e	n/a
410.9285	0.075	821857	keystroke_Key.enter	Key.enter	n/a
411.016	12.5505	822032	prompt	n/a	mastercard excellence baths simpson\n
411.603	0.0605	823206	keystroke_m	m	n/a
411.6785	0.12	823357	keystroke_a	a	n/a
411.738	0.0905	823476	keystroke_s	s	n/a
411.9035	0.12	823807	keystroke_t	t	n/a
412.0085	0.12	824017	keystroke_e	e	n/a
412.0985	0.09	824197	keystroke_r	r	n/a
412.3085	0.105	824617	keystroke_c	c	n/a
412.3685	0.165	824737	keystroke_a	a	n/a
412.7885	0.09	825577	keystroke_r	r	n/a
413.1635	0.09	826327	keystroke_s	s	n/a
413.6885	0.075	827377	keystroke_Key.backspace	Key.backspace	n/a
414.1685	0.105	828337	keystroke_d	d	n/a
414.7225	0.09	829445	keystroke_Key.space	Key.space	n/a
415.128	0.09	830256	keystroke_e	e	n/a
415.383	0.1205	830766	keystroke_x	x	n/a
417.756	0.042	835512	keystroke_c	c	n/a
417.756	0.102	835512	keystroke_e	e	n/a
417.978	0.075	835956	keystroke_l	l	n/a
418.173	0.045	836346	keystroke_l	l	n/a
418.233	0.09	836466	keystroke_e	e	n/a
418.338	0.09	836676	keystroke_n	n	n/a
418.4435	0.1495	836887	keystroke_c	c	n/a
418.533	0.105	837066	keystroke_e	e	n/a
418.728	0.105	837456	keystroke_Key.space	Key.space	n/a
419.043	0.075	838086	keystroke_b	b	n/a
419.119	0.104	838238	keystroke_a	a	n/a
419.283	0.09	838566	keystroke_t	t	n/a
419.388	0.1045	838776	keystroke_h	h	n/a
419.6735	0.12	839347	keystroke_s	s	n/a
419.8075	0.106	839615	keystroke_Key.space	Key.space	n/a
420.0625	0.105	840125	keystroke_s	s	n/a
420.5125	0.076	841025	keystroke_i	i	n/a
420.6785	0.09	841357	keystroke_m	m	n/a
420.8585	0.12	841717	keystroke_p	p	n/a
421.383	0.06	842766	keystroke_s	s	n/a
421.443	0.105	842886	keystroke_o	o	n/a
421.518	0.12	843036	keystroke_n	n	n/a
423.483	0.075	846966	keystroke_Key.enter	Key.enter	n/a
423.5705	14.8015	847141	prompt	n/a	coating accompanied reliability photography\n
424.443	0.12	848886	keystroke_c	c	n/a
424.953	0.045	849906	keystroke_p	p	n/a
425.013	0.075	850026	keystroke_a	a	n/a
425.253	0.06	850506	keystroke_t	t	n/a
425.5085	0.045	851017	keystroke_Key.backspace	Key.backspace	n/a
425.6285	0.075	851257	keystroke_Key.backspace	Key.backspace	n/a
425.7925	0.076	851585	keystroke_Key.backspace	Key.backspace	n/a
426.0035	0.075	852007	keystroke_o	o	n/a
426.2285	0.135	852457	keystroke_a	a	n/a
426.3185	0.12	852637	keystroke_t	t	n/a
426.7535	0.12	853507	keystroke_i	i	n/a
426.8435	0.09	853687	keystroke_n	n	n/a
426.9335	0.105	853867	keystroke_g	g	n/a
427.0535	0.12	854107	keystroke_Key.space	Key.space	n/a
427.3385	0.09	854677	keystroke_a	a	n/a
427.4435	0.089	854887	keystroke_c	c	n/a
427.6085	0.09	855217	keystroke_c	c	n/a
427.7435	0.1045	855487	keystroke_o	o	n/a
427.803	0.12	855606	keystroke_m	m	n/a
428.013	0.105	856026	keystroke_p	p	n/a
428.193	0.0755	856386	keystroke_a	a	n/a
428.3425	0.09	856685	keystroke_n	n	n/a
428.4925	0.105	856985	keystroke_i	i	n/a
428.6875	0.075	857375	keystroke_e	e	n/a
428.8975	0.06	857795	keystroke_d	d	n/a
429.2885	0.06	858577	keystroke_Key.space	Key.space	n/a
429.9485	0.105	859897	keystroke_r	r	n/a
430.0085	0.15	860017	keystroke_e	e	n/a
430.9235	0.09	861847	keystroke_l	l	n/a
431.1635	0.075	862327	keystroke_i	i	n/a
431.3725	0.075	862745	keystroke_a	a	n/a
431.5085	0.089	863017	keystroke_b	b	n/a
431.7625	0.121	863525	keystroke_i	i	n/a
431.9435	0.15	863887	keystroke_l	l	n/a
432.0475	0.09	864095	keystroke_i	i	n/a
432.1525	0.106	864305	keystroke_t	t	n/a
432.3025	0.0905	864605	keystroke_y	y	n/a
433.0675	0.09	866135	keystroke_Key.space	Key.space	n/a
433.5335	0.075	867067	keystroke_p	p	n/a
433.7435	0.09	867487	keystroke_h	h	n/a
434.0885	0.105	868177	keystroke_o	o	n/a
434.3435	0.09	868687	keystroke_t	t	n/a
434.4485	0.075	868897	keystroke_o	o	n/a
434.9435	0.06	869887	keystroke_f	f	n/a
435.558	0.09	871116	keystroke_Key.backspace	Key.backspace	n/a
435.663	0.09	871326	keystroke_g	g	n/a
435.963	0.12	871926	keystroke_r	r	n/a
436.278	0.12	872556	keystroke_a	a	n/a
436.788	0.075	873576	keystroke_p	p	n/a
437.328	0.105	874656	keystroke_h	h	n/a
437.643	0.075	875286	keystroke_y	y	n/a
438.273	0.09	876546	keystroke_Key.enter	Key.enter	n/a
438.376	8.0435	876752	prompt	n/a	easily districts family miss\n
439.038	0.09	878076	keystroke_w	w	n/a
439.293	0.12	878586	keystroke_a	a	n/a
439.368	0.09	878736	keystroke_s	s	n/a
439.473	0.075	878946	keystroke_i	i	n/a
439.773	0.045	879546	keystroke_Key.backspace	Key.backspace	n/a
439.893	0.075	879786	keystroke_Key.backspace	Key.backspace	n/a
440.028	0.075	880056	keystroke_Key.backspace	Key.backspace	n/a
440.178	0.09	880356	keystroke_Key.backspace	Key.backspace	n/a
440.808	0.15	881616	keystroke_e	e	n/a
440.928	0.165	881856	keystroke_a	a	n/a
441.018	0.135	882036	keystroke_s	s	n/a
441.183	0.09	882366	keystroke_i	i	n/a
441.318	0.1055	882636	keystroke_l	l	n/a
441.5735	0.135	883147	keystroke_y	y	n/a
441.6925	0.136	883385	keystroke_Key.space	Key.space	n/a
441.933	0.12	883866	keystroke_d	d	n/a
442.098	0.09	884196	keystroke_i	i	n/a
442.218	0.09	884436	keystroke_s	s	n/a
442.759	0.059	885518	keystroke_t	t	n/a
442.923	0.09	885846	keystroke_r	r	n/a
443.103	0.09	886206	keystroke_i	i	n/a
443.178	0.1205	886356	keystroke_c	c	n/a
443.3885	0.06	886777	keystroke_k	k	n/a
443.7625	0.06	887525	keystroke_Key.backspace	Key.backspace	n/a
443.8685	0.059	887737	keystroke_t	t	n/a
444.0485	0.089	888097	keystroke_s	s	n/a
444.1985	0.12	888397	keystroke_Key.space	Key.space	n/a
444.5585	0.119	889117	keystroke_f	f	n/a
444.6625	0.091	889325	keystroke_a	a	n/a
444.7675	0.075	889535	keystroke_m	m	n/a
444.9175	0.105	889835	keystroke_i	i	n/a
445.0825	0.09	890165	keystroke_l	l	n/a
445.398	0.12	890796	keystroke_y	y	n/a
445.488	0.105	890976	keystroke_Key.space	Key.space	n/a
445.728	0.12	891456	keystroke_m	m	n/a
445.953	0.075	891906	keystroke_i	i	n/a
446.043	0.075	892086	keystroke_s	s	n/a
446.208	0.09	892416	keystroke_s	s	n/a
446.343	0.075	892686	keystroke_Key.enter	Key.enter	n/a
446.422	6.3425	892844	prompt	n/a	sperm shapes minds stored\n
447.1085	0.09	894217	keystroke_s	s	n/a
447.2135	0.09	894427	keystroke_p	p	n/a
447.3635	0.12	894727	keystroke_e	e	n/a
447.4385	0.12	894877	keystroke_r	r	n/a
447.8585	0.075	895717	keystroke_n	n	n/a
448.1885	0.09	896377	keystroke_Key.backspace	Key.backspace	n/a
448.3835	0.1195	896767	keystroke_m	m	n/a
448.4735	0.1045	896947	keystroke_Key.space	Key.space	n/a
448.653	0.075	897306	keystroke_s	s	n/a
448.773	0.09	897546	keystroke_h	h	n/a
448.908	0.09	897816	keystroke_a	a	n/a
449.028	0.09	898056	keystroke_p	p	n/a
449.2225	0.09	898445	keystroke_e	e	n/a
449.4175	0.075	898835	keystroke_s	s	n/a
449.5525	0.12	899105	keystroke_Key.space	Key.space	n/a
449.8525	0.09	899705	keystroke_m	m	n/a
450.0475	0.09	900095	keystroke_i	i	n/a
450.1075	0.12	900215	keystroke_n	n	n/a
450.2125	0.135	900425	keystroke_d	d	n/a
450.2875	0.12	900575	keystroke_s	s	n/a
450.4525	0.09	900905	keystroke_Key.space	Key.space	n/a
450.633	0.1205	901266	keystroke_s	s	n/a
450.8585	0.105	901717	keystroke_t	t	n/a
450.9935	0.09	901987	keystroke_o	o	n/a
451.0985	0.105	902197	keystroke_r	r	n/a
451.1585	0.149	902317	keystroke_e	e	n/a
451.2775	0.135	902555	keystroke_d	d	n/a
452.6575	0.105	905315	keystroke_Key.enter	Key.enter	n/a
452.7675	6.829	905535	prompt	n/a	values trans beans proudly\n
453.8125	0.105	907625	keystroke_v	v	n/a
454.2035	0.09	908407	keystroke_a	a	n/a
454.3835	0.06	908767	keystroke_l	l	n/a
454.5935	0.075	909187	keystroke_u	u	n/a
454.7735	0.075	909547	keystroke_e	e	n/a
454.9385	0.105	909877	keystroke_s	s	n/a
455.0735	0.09	910147	keystroke_Key.space	Key.space	n/a
455.3435	0.105	910687	keystroke_t	t	n/a
455.5075	0.12	911015	keystroke_r	r	n/a
455.6125	0.105	911225	keystroke_a	a	n/a
455.7935	0.089	911587	keystroke_n	n	n/a
455.8525	0.12	911705	keystroke_s	s	n/a
456.1075	0.105	912215	keystroke_Key.space	Key.space	n/a
456.4535	0.119	912907	keystroke_b	b	n/a
456.5885	0.134	913177	keystroke_e	e	n/a
456.6925	0.135	913385	keystroke_a	a	n/a
456.8125	0.0905	913625	keystroke_n	n	n/a
456.918	0.105	913836	keystroke_s	s	n/a
457.128	0.09	914256	keystroke_Key.space	Key.space	n/a
457.533	0.12	915066	keystroke_p	p	n/a
457.728	0.06	915456	keystroke_r	r	n/a
457.878	0.15	915756	keystroke_o	o	n/a
457.983	0.09	915966	keystroke_u	u	n/a
458.793	0.105	917586	keystroke_d	d	n/a
458.973	0.045	917946	keystroke_l	l	n/a
459.213	0.045	918426	keystroke_y	y	n/a
459.513	0.075	919026	keystroke_Key.enter	Key.enter	n/a
459.601	7.3235	919202	prompt	n/a	improving protected appearing her\n
460.233	0.045	920466	keystroke_o	o	n/a
460.818	0.06	921636	keystroke_Key.backspace	Key.backspace	n/a
461.148	0.09	922296	keystroke_i	i	n/a
461.223	0.075	922446	keystroke_m	m	n/a
461.403	0.135	922806	keystroke_p	p	n/a
461.553	0.0745	923106	keystroke_r	r	n/a
461.6575	0.076	923315	keystroke_o	o	n/a
461.8535	0.089	923707	keystroke_v	v	n/a
461.9585	0.119	923917	keystroke_i	i	n/a
462.0325	0.105	924065	keystroke_n	n	n/a
462.2125	0.045	924425	keystroke_g	g	n/a
462.3035	0.089	924607	keystroke_Key.space	Key.space	n/a
462.5135	0.104	925027	keystroke_p	p	n/a
462.7075	0.09	925415	keystroke_r	r	n/a
462.7985	0.089	925597	keystroke_o	o	n/a
463.4575	0.105	926915	keystroke_t	t	n/a
463.5925	0.1505	927185	keystroke_e	e	n/a
463.728	0.135	927456	keystroke_c	c	n/a
464.013	0.105	928026	keystroke_t	t	n/a
464.133	0.18	928266	keystroke_e	e	n/a
464.253	0.105	928506	keystroke_d	d	n/a
464.388	0.105	928776	keystroke_Key.space	Key.space	n/a
464.763	0.1205	929526	keystroke_a	a	n/a
464.9585	0.06	929917	keystroke_p	p	n/a
465.0935	0.09	930187	keystroke_p	p	n/a
465.1685	0.15	930337	keystroke_e	e	n/a
465.2585	0.195	930517	keystroke_a	a	n/a
465.4085	0.105	930817	keystroke_r	r	n/a
465.5885	0.135	931177	keystroke_i	i	n/a
465.6785	0.12	931357	keystroke_n	n	n/a
465.7835	0.06	931567	keystroke_g	g	n/a
465.8885	0.075	931777	keystroke_Key.space	Key.space	n/a
466.0085	0.09	932017	keystroke_h	h	n/a
466.1285	0.12	932257	keystroke_e	e	n/a
466.1885	0.105	932377	keystroke_r	r	n/a
466.863	0.06	933726	keystroke_Key.enter	Key.enter	n/a
466.927	7.478	933854	prompt	n/a	reunion available contest colonial\n
467.643	0.1355	935286	keystroke_r	r	n/a
467.718	0.1195	935436	keystroke_e	e	n/a
467.9125	0.09	935825	keystroke_u	u	n/a
468.3785	0.09	936757	keystroke_n	n	n/a
468.7075	0.12	937415	keystroke_i	i	n/a
468.8885	0.1495	937777	keystroke_o	o	n/a
468.978	0.135	937956	keystroke_n	n	n/a
469.233	0.105	938466	keystroke_Key.space	Key.space	n/a
469.6685	0.0895	939337	keystroke_a	a	n/a
469.788	0.1205	939576	keystroke_v	v	n/a
469.893	0.1055	939786	keystroke_a	a	n/a
470.2985	0.105	940597	keystroke_i	i	n/a
470.4785	0.0745	940957	keystroke_l	l	n/a
470.613	0.09	941226	keystroke_a	a	n/a
470.718	0.06	941436	keystroke_b	b	n/a
470.823	0.105	941646	keystroke_l	l	n/a
470.958	0.075	941916	keystroke_e	e	n/a
471.048	0.12	942096	keystroke_Key.space	Key.space	n/a
471.258	0.1355	942516	keystroke_c	c	n/a
471.363	0.075	942726	keystroke_o	o	n/a
471.423	0.12	942846	keystroke_n	n	n/a
471.558	0.105	943116	keystroke_t	t	n/a
471.738	0.09	943476	keystroke_e	e	n/a
471.933	0.075	943866	keystroke_s	s	n/a
472.128	0.12	944256	keystroke_t	t	n/a
472.263	0.09	944526	keystroke_Key.space	Key.space	n/a
472.443	0.105	944886	keystroke_c	c	n/a
472.533	0.075	945066	keystroke_o	o	n/a
472.713	0.075	945426	keystroke_l	l	n/a
472.863	0.09	945726	keystroke_o	o	n/a
473.088	0.075	946176	keystroke_n	n	n/a
473.223	0.075	946446	keystroke_i	i	n/a
473.328	0.135	946656	keystroke_a	a	n/a
473.508	0.045	947016	keystroke_l	l	n/a
473.583	0.105	947166	keystroke_Key.space	Key.space	n/a
474.093	0.09	948186	keystroke_Key.backspace	Key.backspace	n/a
474.303	0.09	948606	keystroke_Key.enter	Key.enter	n/a
474.4095	12.7455	948819	prompt	n/a	palestinian complaints ease metric\n
474.963	0.105	949926	keystroke_p	p	n/a
475.263	0.105	950526	keystroke_a	a	n/a
475.368	0.075	950736	keystroke_l	l	n/a
475.488	0.09	950976	keystroke_e	e	n/a
475.698	0.09	951396	keystroke_s	s	n/a
475.938	0.06	951876	keystroke_t	t	n/a
476.028	0.12	952056	keystroke_i	i	n/a
476.118	0.09	952236	keystroke_n	n	n/a
476.448	0.09	952896	keystroke_i	i	n/a
476.583	0.0895	953166	keystroke_a	a	n/a
476.7025	0.105	953405	keystroke_n	n	n/a
477.378	0.12	954756	keystroke_Key.space	Key.space	n/a
481.16	0.088	962320	keystroke_c	c	n/a
481.161	0.117	962322	keystroke_o	o	n/a
481.263	0.105	962526	keystroke_m	m	n/a
481.383	0.135	962766	keystroke_p	p	n/a
481.473	0.105	962946	keystroke_l	l	n/a
481.623	0.09	963246	keystroke_a	a	n/a
481.773	0.06	963546	keystroke_i	i	n/a
481.818	0.09	963636	keystroke_n	n	n/a
481.968	0.09	963936	keystroke_t	t	n/a
482.163	0.12	964326	keystroke_s	s	n/a
482.298	0.09	964596	keystroke_Key.space	Key.space	n/a
482.508	0.135	965016	keystroke_e	e	n/a
482.658	0.1345	965316	keystroke_a	a	n/a
482.703	0.1195	965406	keystroke_s	s	n/a
482.8975	0.09	965795	keystroke_e	e	n/a
483.0025	0.12	966005	keystroke_Key.space	Key.space	n/a
483.3775	0.0905	966755	keystroke_e	e	n/a
483.483	0.09	966966	keystroke_m	m	n/a
483.693	0.045	967386	keystroke_Key.backspace	Key.backspace	n/a
483.813	0.06	967626	keystroke_Key.backspace	Key.backspace	n/a
484.008	0.09	968016	keystroke_m	m	n/a
484.1585	0.1045	968317	keystroke_e	e	n/a
484.3085	0.075	968617	keystroke_t	t	n/a
484.4885	0.0745	968977	keystroke_r	r	n/a
484.608	0.0605	969216	keystroke_i	i	n/a
484.7435	0.09	969487	keystroke_c	c	n/a
487.1455	0.001	974291	keystroke_Key.enter	Key.enter	n/a
487.1595	10.8965	974319	prompt	n/a	chevy indirect schemes injured\n
488.133	0.045	976266	keystroke_v	v	n/a
488.748	0.075	977496	keystroke_Key.backspace	Key.backspace	n/a
488.853	0.105	977706	keystroke_c	c	n/a
488.988	0.105	977976	keystroke_h	h	n/a
489.108	0.09	978216	keystroke_e	e	n/a
489.4825	0.09	978965	keystroke_v	v	n/a
489.6325	0.09	979265	keystroke_y	y	n/a
489.8425	0.09	979685	keystroke_Key.space	Key.space	n/a
490.0375	0.165	980075	keystroke_i	i	n/a
490.1425	0.135	980285	keystroke_n	n	n/a
492.9505	0.027	985901	keystroke_d	d	n/a
493.1135	0.014	986227	keystroke_i	i	n/a
493.4435	0.12	986887	keystroke_r	r	n/a
493.5335	0.12	987067	keystroke_e	e	n/a
493.7135	0.12	987427	keystroke_c	c	n/a
493.9835	0.075	987967	keystroke_t	t	n/a
494.1185	0.105	988237	keystroke_Key.space	Key.space	n/a
494.4185	0.075	988837	keystroke_s	s	n/a
494.5535	0.09	989107	keystroke_c	c	n/a
494.9435	0.075	989887	keystroke_h	h	n/a
495.0635	0.075	990127	keystroke_e	e	n/a
495.2135	0.075	990427	keystroke_m	m	n/a
495.3035	0.075	990607	keystroke_e	e	n/a
495.4985	0.075	990997	keystroke_s	s	n/a
495.7535	0.105	991507	keystroke_Key.space	Key.space	n/a
495.9635	0.135	991927	keystroke_i	i	n/a
496.0385	0.135	992077	keystroke_n	n	n/a
496.2635	0.075	992527	keystroke_j	j	n/a
496.443	0.075	992886	keystroke_u	u	n/a
496.578	0.075	993156	keystroke_s	s	n/a
497.073	0.06	994146	keystroke_Key.backspace	Key.backspace	n/a
497.193	0.105	994386	keystroke_r	r	n/a
497.283	0.15	994566	keystroke_e	e	n/a
497.388	0.105	994776	keystroke_d	d	n/a
497.9885	0.06	995977	keystroke_Key.enter	Key.enter	n/a
498.0615	11.8305	996123	prompt	n/a	mart exhibit sequence tennessee\n
498.7085	0.03	997417	keystroke_,	,	n/a
498.7835	0.105	997567	keystroke_a	a	n/a
499.0685	0.075	998137	keystroke_r	r	n/a
499.3085	0.045	998617	keystroke_Key.backspace	Key.backspace	n/a
499.4585	0.045	998917	keystroke_Key.backspace	Key.backspace	n/a
499.5785	0.105	999157	keystroke_Key.backspace	Key.backspace	n/a
499.9535	0.075	999907	keystroke_m	m	n/a
500.0885	0.12	1000177	keystroke_a	a	n/a
500.1935	0.075	1000387	keystroke_r	r	n/a
500.3725	0.076	1000745	keystroke_t	t	n/a
500.4925	0.106	1000985	keystroke_Key.space	Key.space	n/a
500.7485	0.06	1001497	keystroke_e	e	n/a
501.0185	0.075	1002037	keystroke_x	x	n/a
501.1985	0.105	1002397	keystroke_h	h	n/a
501.3185	0.075	1002637	keystroke_i	i	n/a
501.5135	0.1495	1003027	keystroke_b	b	n/a
501.6335	0.105	1003267	keystroke_i	i	n/a
501.768	0.1055	1003536	keystroke_t	t	n/a
501.9485	0.12	1003897	keystroke_Key.space	Key.space	n/a
502.4735	0.06	1004947	keystroke_s	s	n/a
502.6685	0.075	1005337	keystroke_w	w	n/a
503.2835	0.06	1006567	keystroke_Key.backspace	Key.backspace	n/a
503.5085	0.09	1007017	keystroke_q	q	n/a
503.8835	0.075	1007767	keystroke_Key.backspace	Key.backspace	n/a
504.7535	0.075	1009507	keystroke_e	e	n/a
505.6985	0.075	1011397	keystroke_q	q	n/a
505.938	0.06	1011876	keystroke_u	u	n/a
506.133	0.075	1012266	keystroke_e	e	n/a
506.298	0.09	1012596	keystroke_n	n	n/a
506.538	0.1055	1013076	keystroke_c	c	n/a
506.9585	0.09	1013917	keystroke_e	e	n/a
507.2585	0.0595	1014517	keystroke_Key.space	Key.space	n/a
507.783	0.135	1015566	keystroke_t	t	n/a
507.888	0.105	1015776	keystroke_e	e	n/a
508.098	0.075	1016196	keystroke_n	n	n/a
508.263	0.06	1016526	keystroke_n	n	n/a
508.353	0.075	1016706	keystroke_e	e	n/a
508.533	0.09	1017066	keystroke_s	s	n/a
508.8485	0.09	1017697	keystroke_s	s	n/a
509.0725	0.061	1018145	keystroke_e	e	n/a
509.2385	0.075	1018477	keystroke_e	e	n/a
509.823	0.06	1019646	keystroke_Key.enter	Key.enter	n/a
509.896	7.5635	1019792	prompt	n/a	groups java freedom silly\n
511.413	0.075	1022826	keystroke_g	g	n/a
511.608	0.09	1023216	keystroke_r	r	n/a
511.683	0.105	1023366	keystroke_o	o	n/a
511.758	0.09	1023516	keystroke_u	u	n/a
512.043	0.015	1024086	keystroke_p	p	n/a
512.073	0.06	1024146	keystroke_s	s	n/a
512.178	0.105	1024356	keystroke_Key.space	Key.space	n/a
512.868	0.075	1025736	keystroke_j	j	n/a
512.988	0.105	1025976	keystroke_a	a	n/a
513.243	0.1055	1026486	keystroke_v	v	n/a
513.4085	0.105	1026817	keystroke_a	a	n/a
513.8585	0.105	1027717	keystroke_Key.space	Key.space	n/a
514.6535	0.06	1029307	keystroke_g	g	n/a
515.163	0.09	1030326	keystroke_Key.backspace	Key.backspace	n/a
515.268	0.105	1030536	keystroke_f	f	n/a
515.4785	0.135	1030957	keystroke_r	r	n/a
515.5835	0.09	1031167	keystroke_e	e	n/a
515.7335	0.12	1031467	keystroke_e	e	n/a
515.9435	0.12	1031887	keystroke_d	d	n/a
516.0785	0.135	1032157	keystroke_o	o	n/a
516.1535	0.18	1032307	keystroke_m	m	n/a
516.3035	0.1045	1032607	keystroke_Key.space	Key.space	n/a
516.453	0.105	1032906	keystroke_s	s	n/a
516.559	0.074	1033118	keystroke_i	i	n/a
516.723	0.06	1033446	keystroke_l	l	n/a
516.843	0.075	1033686	keystroke_l	l	n/a
517.068	0.075	1034136	keystroke_y	y	n/a
517.383	0.075	1034766	keystroke_Key.enter	Key.enter	n/a
517.4625	8.4795	1034925	prompt	n/a	genes schedules mounts conceptual\n
518.2225	0.166	1036445	keystroke_g	g	n/a
518.4175	0.105	1036835	keystroke_e	e	n/a
518.5825	0.091	1037165	keystroke_n	n	n/a
518.6425	0.09	1037285	keystroke_e	e	n/a
518.8535	0.074	1037707	keystroke_s	s	n/a
519.0775	0.105	1038155	keystroke_Key.space	Key.space	n/a
519.303	0.075	1038606	keystroke_s	s	n/a
519.468	0.105	1038936	keystroke_c	c	n/a
519.574	0.104	1039148	keystroke_h	h	n/a
519.813	0.075	1039626	keystroke_e	e	n/a
520.368	0.09	1040736	keystroke_d	d	n/a
520.443	0.09	1040886	keystroke_u	u	n/a
520.6085	0.089	1041217	keystroke_l	l	n/a
520.6985	0.104	1041397	keystroke_e	e	n/a
520.893	0.09	1041786	keystroke_s	s	n/a
521.058	0.12	1042116	keystroke_Key.space	Key.space	n/a
521.448	0.12	1042896	keystroke_m	m	n/a
521.538	0.09	1043076	keystroke_o	o	n/a
521.853	0.09	1043706	keystroke_u	u	n/a
521.988	0.12	1043976	keystroke_n	n	n/a
522.123	0.06	1044246	keystroke_t	t	n/a
522.333	0.105	1044666	keystroke_s	s	n/a
522.558	0.075	1045116	keystroke_Key.space	Key.space	n/a
523.0685	0.12	1046137	keystroke_c	c	n/a
523.593	0.1055	1047186	keystroke_o	o	n/a
523.6535	0.135	1047307	keystroke_n	n	n/a
524.1485	0.12	1048297	keystroke_c	c	n/a
524.2235	0.135	1048447	keystroke_e	e	n/a
524.3885	0.075	1048777	keystroke_p	p	n/a
524.8235	0.105	1049647	keystroke_t	t	n/a
524.9585	0.03	1049917	keystroke_u	u	n/a
525.423	0.075	1050846	keystroke_a	a	n/a
525.543	0.075	1051086	keystroke_l	l	n/a
525.873	0.06	1051746	keystroke_Key.enter	Key.enter	n/a
525.9465	9.25	1051893	prompt	n/a	nearby thumbnail delegation samsung\n
526.683	0.09	1053366	keystroke_n	n	n/a
526.803	0.225	1053606	keystroke_e	e	n/a
526.908	0.15	1053816	keystroke_a	a	n/a
526.998	0.12	1053996	keystroke_r	r	n/a
527.223	0.105	1054446	keystroke_b	b	n/a
527.403	0.135	1054806	keystroke_y	y	n/a
527.553	0.105	1055106	keystroke_Key.space	Key.space	n/a
527.8535	0.075	1055707	keystroke_t	t	n/a
528.0635	0.1345	1056127	keystroke_h	h	n/a
528.498	0.105	1056996	keystroke_u	u	n/a
528.813	0.105	1057626	keystroke_m	m	n/a
529.1585	0.09	1058317	keystroke_b	b	n/a
529.848	0.09	1059696	keystroke_n	n	n/a
529.953	0.0905	1059906	keystroke_a	a	n/a
530.0585	0.06	1060117	keystroke_i	i	n/a
530.2085	0.134	1060417	keystroke_l	l	n/a
530.358	0.075	1060716	keystroke_Key.space	Key.space	n/a
530.838	0.1055	1061676	keystroke_d	d	n/a
530.898	0.105	1061796	keystroke_e	e	n/a
531.168	0.09	1062336	keystroke_l	l	n/a
531.378	0.09	1062756	keystroke_e	e	n/a
531.678	0.09	1063356	keystroke_g	g	n/a
531.8435	0.12	1063687	keystroke_a	a	n/a
531.9935	0.075	1063987	keystroke_t	t	n/a
532.083	0.2405	1064166	keystroke_i	i	n/a
532.1735	0.165	1064347	keystroke_o	o	n/a
532.2485	0.165	1064497	keystroke_n	n	n/a
532.3835	0.1345	1064767	keystroke_Key.space	Key.space	n/a
532.638	0.075	1065276	keystroke_s	s	n/a
532.773	0.12	1065546	keystroke_a	a	n/a
532.908	0.09	1065816	keystroke_m	m	n/a
533.2535	0.12	1066507	keystroke_s	s	n/a
533.4335	0.09	1066867	keystroke_u	u	n/a
533.6435	0.0895	1067287	keystroke_m	m	n/a
534.063	0.06	1068126	keystroke_Key.backspace	Key.backspace	n/a
534.243	0.075	1068486	keystroke_n	n	n/a
534.453	0.0605	1068906	keystroke_g	g	n/a
535.128	0.06	1070256	keystroke_Key.enter	Key.enter	n/a
535.2	10.9625	1070400	prompt	n/a	coach rebecca consultancy lewis\n
535.878	0.06	1071756	keystroke_c	c	n/a
536.178	0.075	1072356	keystroke_o	o	n/a
536.358	0.1495	1072716	keystroke_a	a	n/a
536.658	0.09	1073316	keystroke_r	r	n/a
537.003	0.06	1074006	keystroke_Key.backspace	Key.backspace	n/a
537.108	0.09	1074216	keystroke_c	c	n/a
537.333	0.09	1074666	keystroke_h	h	n/a
537.813	0.09	1075626	keystroke_Key.space	Key.space	n/a
538.053	0.135	1076106	keystroke_r	r	n/a
538.128	0.135	1076256	keystroke_e	e	n/a
538.308	0.09	1076616	keystroke_b	b	n/a
538.458	0.0755	1076916	keystroke_e	e	n/a
538.6385	0.09	1077277	keystroke_c	c	n/a
538.8035	0.105	1077607	keystroke_c	c	n/a
538.8935	0.12	1077787	keystroke_a	a	n/a
539.7785	0.09	1079557	keystroke_Key.space	Key.space	n/a
540.1385	0.105	1080277	keystroke_c	c	n/a
540.2285	0.135	1080457	keystroke_o	o	n/a
540.3485	0.09	1080697	keystroke_n	n	n/a
541.263	0.06	1082526	keystroke_s	s	n/a
541.398	0.075	1082796	keystroke_u	u	n/a
541.593	0.105	1083186	keystroke_l	l	n/a
541.788	0.09	1083576	keystroke_t	t	n/a
541.968	0.105	1083936	keystroke_a	a	n/a
542.088	0.12	1084176	keystroke_n	n	n/a
542.283	0.06	1084566	keystroke_c	c	n/a
542.433	0.045	1084866	keystroke_y	y	n/a
543.348	0.06	1086696	keystroke_Key.space	Key.space	n/a
543.588	0.015	1087176	keystroke_l	l	n/a
543.8135	0.105	1087627	keystroke_e	e	n/a
544.7585	0.075	1089517	keystroke_w	w	n/a
544.9085	0.06	1089817	keystroke_u	u	n/a
545.2535	0.075	1090507	keystroke_Key.backspace	Key.backspace	n/a
545.4185	0.09	1090837	keystroke_i	i	n/a
545.4785	0.105	1090957	keystroke_s	s	n/a
546.0935	0.06	1092187	keystroke_Key.enter	Key.enter	n/a
546.1665	7.6145	1092333	prompt	n/a	acceptable acting regarding mario\n
546.7985	0.0895	1093597	keystroke_a	a	n/a
546.918	0.06	1093836	keystroke_c	c	n/a
547.068	0.12	1094136	keystroke_c	c	n/a
547.158	0.12	1094316	keystroke_e	e	n/a
547.293	0.075	1094586	keystroke_p	p	n/a
547.443	0.09	1094886	keystroke_t	t	n/a
547.638	0.105	1095276	keystroke_a	a	n/a
547.803	0.105	1095606	keystroke_b	b	n/a
547.953	0.105	1095906	keystroke_l	l	n/a
548.103	0.075	1096206	keystroke_e	e	n/a
548.2235	0.105	1096447	keystroke_Key.space	Key.space	n/a
548.4785	0.135	1096957	keystroke_a	a	n/a
548.5835	0.09	1097167	keystroke_c	c	n/a
548.8535	0.09	1097707	keystroke_t	t	n/a
548.9735	0.135	1097947	keystroke_i	i	n/a
549.0635	0.09	1098127	keystroke_n	n	n/a
549.1685	0.09	1098337	keystroke_g	g	n/a
549.3785	0.0895	1098757	keystroke_Key.space	Key.space	n/a
549.738	0.15	1099476	keystroke_r	r	n/a
549.828	0.15	1099656	keystroke_e	e	n/a
549.948	0.135	1099896	keystroke_a	a	n/a
550.383	0.105	1100766	keystroke_g	g	n/a
550.759	0.044	1101518	keystroke_Key.backspace	Key.backspace	n/a
550.878	0.075	1101756	keystroke_Key.backspace	Key.backspace	n/a
550.968	0.105	1101936	keystroke_g	g	n/a
551.133	0.15	1102266	keystroke_a	a	n/a
551.238	0.105	1102476	keystroke_r	r	n/a
551.583	0.12	1103166	keystroke_d	d	n/a
551.823	0.12	1103646	keystroke_i	i	n/a
551.913	0.105	1103826	keystroke_n	n	n/a
552.033	0.09	1104066	keystroke_g	g	n/a
552.183	0.06	1104366	keystroke_Key.space	Key.space	n/a
552.348	0.09	1104696	keystroke_m	m	n/a
552.423	0.15	1104846	keystroke_a	a	n/a
552.543	0.09	1105086	keystroke_r	r	n/a
552.693	0.135	1105386	keystroke_i	i	n/a
552.813	0.105	1105626	keystroke_o	o	n/a
553.7135	0.06	1107427	keystroke_Key.enter	Key.enter	n/a
553.785	43.5305	1107570	prompt	n/a	plug sbjct practitioners combining\n
554.4035	0.075	1108807	keystroke_p	p	n/a
554.6135	0.105	1109227	keystroke_l	l	n/a
554.8685	0.045	1109737	keystroke_u	u	n/a
555.903	0.09	1111806	keystroke_g	g	n/a
556.068	0.12	1112136	keystroke_Key.space	Key.space	n/a
556.414	0.09	1112828	keystroke_s	s	n/a
556.729	0.12	1113458	keystroke_b	b	n/a
558.108	0.075	1116216	keystroke_j	j	n/a
558.348	0.09	1116696	keystroke_c	c	n/a
558.603	0.06	1117206	keystroke_t	t	n/a
559.2935	0.105	1118587	keystroke_Key.space	Key.space	n/a
559.6085	0.075	1119217	keystroke_p	p	n/a
559.9385	0.135	1119877	keystroke_r	r	n/a
560.1035	0.1495	1120207	keystroke_a	a	n/a
560.298	0.12	1120596	keystroke_c	c	n/a
560.599	0.075	1121198	keystroke_t	t	n/a
560.734	0.09	1121468	keystroke_i	i	n/a
562.638	0.09	1125276	keystroke_t	t	n/a
562.803	0.24	1125606	keystroke_i	i	n/a
562.923	0.165	1125846	keystroke_o	o	n/a
562.998	0.135	1125996	keystroke_n	n	n/a
563.374	0.105	1126748	keystroke_e	e	n/a
563.434	0.09	1126868	keystroke_r	r	n/a
563.644	0.09	1127288	keystroke_s	s	n/a
563.779	0.12	1127558	keystroke_Key.space	Key.space	n/a
564.049	0.105	1128098	keystroke_c	c	n/a
564.139	0.135	1128278	keystroke_o	o	n/a
564.214	0.105	1128428	keystroke_n	n	n/a
564.619	0.045	1129238	keystroke_Key.backspace	Key.backspace	n/a
564.814	0.09	1129628	keystroke_m	m	n/a
565.098	0.046	1130196	keystroke_b	b	n/a
565.3085	0.105	1130617	keystroke_i	i	n/a
565.3835	0.09	1130767	keystroke_n	n	n/a
565.5185	0.09	1131037	keystroke_g	g	n/a
565.6235	0.075	1131247	keystroke_i	i	n/a
565.6685	0.09	1131337	keystroke_n	n	n/a
565.7885	0.075	1131577	keystroke_g	g	n/a
567.0335	0.045	1134067	keystroke_Key.backspace	Key.backspace	n/a
567.378	0.06	1134756	keystroke_Key.backspace	Key.backspace	n/a
567.558	0.045	1135116	keystroke_Key.backspace	Key.backspace	n/a
570.171	0	1140342	keystroke_Key.f12	Key.f12	n/a
586.342	0.0125	1172684	keystroke_b	b	n/a
589.251	0.013	1178502	keystroke_i	i	n/a
589.429	0.135	1178858	keystroke_n	n	n/a
593.902	0.042	1187804	keystroke_i	i	n/a
593.902	0.132	1187804	keystroke_n	n	n/a
594.064	0.075	1188128	keystroke_g	g	n/a
597.306	0.001	1194612	keystroke_Key.enter	Key.enter	n/a
597.3195	8.7975	1194639	prompt	n/a	print eagles bleeding belts\n
598.6235	0.076	1197247	keystroke_p	p	n/a
598.7895	0.074	1197579	keystroke_r	r	n/a
598.9085	0.135	1197817	keystroke_i	i	n/a
598.9985	0.106	1197997	keystroke_n	n	n/a
599.1195	0.059	1198239	keystroke_t	t	n/a
599.554	0.12	1199108	keystroke_Key.space	Key.space	n/a
599.78	0.194	1199560	keystroke_e	e	n/a
599.914	0.135	1199828	keystroke_a	a	n/a
600.3485	0.091	1200697	keystroke_g	g	n/a
600.4535	0.075	1200907	keystroke_l	l	n/a
600.5435	0.106	1201087	keystroke_e	e	n/a
600.7245	0.105	1201449	keystroke_s	s	n/a
600.8595	0.075	1201719	keystroke_Key.space	Key.space	n/a
601.1445	0.06	1202289	keystroke_b	b	n/a
601.3095	0.0745	1202619	keystroke_l	l	n/a
601.399	0.075	1202798	keystroke_e	e	n/a
601.564	0.12	1203128	keystroke_e	e	n/a
601.654	0.105	1203308	keystroke_d	d	n/a
601.894	0.105	1203788	keystroke_i	i	n/a
601.969	0.1055	1203938	keystroke_n	n	n/a
602.089	0.0905	1204178	keystroke_g	g	n/a
602.2245	0.075	1204449	keystroke_Key.space	Key.space	n/a
602.974	0.09	1205948	keystroke_b	b	n/a
603.154	0.06	1206308	keystroke_e	e	n/a
603.199	0.06	1206398	keystroke_l	l	n/a
603.3945	0.0745	1206789	keystroke_t	t	n/a
603.934	0.075	1207868	keystroke_s	s	n/a
606.0195	0.09	1212039	keystroke_Key.enter	Key.enter	n/a
606.121	11.787	1212242	prompt	n/a	alternatively agent unsubscribe accent\n
606.8295	0.104	1213659	keystroke_a	a	n/a
606.9795	0.089	1213959	keystroke_l	l	n/a
607.2035	0.106	1214407	keystroke_t	t	n/a
607.3235	0.151	1214647	keystroke_e	e	n/a
607.3995	0.12	1214799	keystroke_r	r	n/a
607.5795	0.105	1215159	keystroke_n	n	n/a
607.6995	0.075	1215399	keystroke_a	a	n/a
607.9395	0.105	1215879	keystroke_t	t	n/a
608.0895	0.075	1216179	keystroke_i	i	n/a
608.2545	0.135	1216509	keystroke_v	v	n/a
608.3595	0.09	1216719	keystroke_e	e	n/a
608.6595	0.075	1217319	keystroke_l	l	n/a
608.8995	0.105	1217799	keystroke_y	y	n/a
609.0345	0.12	1218069	keystroke_Key.space	Key.space	n/a
609.469	0.09	1218938	keystroke_a	a	n/a
609.814	0.045	1219628	keystroke_g	g	n/a
609.934	0.105	1219868	keystroke_e	e	n/a
610.024	0.09	1220048	keystroke_n	n	n/a
610.129	0.09	1220258	keystroke_t	t	n/a
610.279	0.09	1220558	keystroke_Key.space	Key.space	n/a
611.029	0.045	1222058	keystroke_u	u	n/a
611.209	0.06	1222418	keystroke_n	n	n/a
612.034	0.06	1224068	keystroke_s	s	n/a
612.4235	0.075	1224847	keystroke_u	u	n/a
612.5735	0.105	1225147	keystroke_b	b	n/a
612.8285	0.075	1225657	keystroke_s	s	n/a
613.0085	0.105	1226017	keystroke_c	c	n/a
613.2485	0.06	1226497	keystroke_r	r	n/a
613.3685	0.0605	1226737	keystroke_i	i	n/a
613.549	0.0905	1227098	keystroke_b	b	n/a
613.9395	0.105	1227879	keystroke_e	e	n/a
616.686	0.043	1233372	keystroke_Key.space	Key.space	n/a
616.804	0.12	1233608	keystroke_a	a	n/a
616.999	0.06	1233998	keystroke_c	c	n/a
617.1345	0.165	1234269	keystroke_c	c	n/a
617.2545	0.12	1234509	keystroke_e	e	n/a
617.3895	0.1045	1234779	keystroke_n	n	n/a
617.494	0.09	1234988	keystroke_t	t	n/a
617.809	0.09	1235618	keystroke_Key.enter	Key.enter	n/a
617.912	8.074	1235824	prompt	n/a	lemon downtown prisoner license\n
618.514	0.105	1237028	keystroke_l	l	n/a
618.814	0.09	1237628	keystroke_e	e	n/a
619.009	0.135	1238018	keystroke_m	m	n/a
619.159	0.1495	1238318	keystroke_o	o	n/a
619.2485	0.18	1238497	keystroke_n	n	n/a
619.4135	0.105	1238827	keystroke_Key.space	Key.space	n/a
620.1485	0.06	1240297	keystroke_d	d	n/a
620.2235	0.09	1240447	keystroke_o	o	n/a
620.509	0.12	1241018	keystroke_w	w	n/a
620.614	0.12	1241228	keystroke_n	n	n/a
620.779	0.09	1241558	keystroke_t	t	n/a
620.899	0.105	1241798	keystroke_o	o	n/a
621.034	0.105	1242068	keystroke_w	w	n/a
621.169	0.12	1242338	keystroke_n	n	n/a
621.634	0.09	1243268	keystroke_Key.space	Key.space	n/a
621.784	0.105	1243568	keystroke_p	p	n/a
621.919	0.105	1243838	keystroke_r	r	n/a
622.069	0.09	1244138	keystroke_i	i	n/a
622.309	0.105	1244618	keystroke_s	s	n/a
622.444	0.1355	1244888	keystroke_o	o	n/a
622.5645	0.0745	1245129	keystroke_n	n	n/a
622.819	0.165	1245638	keystroke_e	e	n/a
622.909	0.1045	1245818	keystroke_r	r	n/a
623.2685	0.12	1246537	keystroke_Key.space	Key.space	n/a
623.494	0.166	1246988	keystroke_l	l	n/a
623.629	0.09	1247258	keystroke_i	i	n/a
624.1385	0.1805	1248277	keystroke_c	c	n/a
624.3035	0.1055	1248607	keystroke_e	e	n/a
624.529	0.09	1249058	keystroke_n	n	n/a
625.1735	0.016	1250347	keystroke_s	s	n/a
625.2795	0.074	1250559	keystroke_e	e	n/a
625.864	0.12	1251728	keystroke_Key.enter	Key.enter	n/a
625.9905	9.3805	1251981	prompt	n/a	creativity hunt variations license\n
626.689	0.09	1253378	keystroke_c	c	n/a
626.989	0.12	1253978	keystroke_r	r	n/a
627.049	0.165	1254098	keystroke_e	e	n/a
627.154	0.075	1254308	keystroke_a	a	n/a
627.589	0.105	1255178	keystroke_t	t	n/a
627.709	0.09	1255418	keystroke_i	i	n/a
627.889	0.105	1255778	keystroke_v	v	n/a
627.994	0.105	1255988	keystroke_i	i	n/a
628.174	0.09	1256348	keystroke_t	t	n/a
628.339	0.1055	1256678	keystroke_y	y	n/a
628.534	0.1055	1257068	keystroke_Key.space	Key.space	n/a
629.3595	0.135	1258719	keystroke_h	h	n/a
629.5095	0.165	1259019	keystroke_u	u	n/a
629.6595	0.165	1259319	keystroke_n	n	n/a
629.8395	0.09	1259679	keystroke_t	t	n/a
630.574	0.0895	1261148	keystroke_Key.space	Key.space	n/a
631.6385	0.09	1263277	keystroke_v	v	n/a
631.7445	0.104	1263489	keystroke_a	a	n/a
631.9235	0.105	1263847	keystroke_r	r	n/a
632.1185	0.09	1264237	keystroke_i	i	n/a
632.3295	0.089	1264659	keystroke_a	a	n/a
632.5395	0.059	1265079	keystroke_t	t	n/a
632.6295	0.24	1265259	keystroke_i	i	n/a
632.7185	0.165	1265437	keystroke_o	o	n/a
632.7935	0.135	1265587	keystroke_n	n	n/a
632.9735	0.09	1265947	keystroke_s	s	n/a
633.1235	0.12	1266247	keystroke_Key.space	Key.space	n/a
633.4845	0.104	1266969	keystroke_l	l	n/a
633.649	0.1045	1267298	keystroke_i	i	n/a
634.174	0.135	1268348	keystroke_c	c	n/a
634.339	0.09	1268678	keystroke_e	e	n/a
634.519	0.09	1269038	keystroke_n	n	n/a
634.759	0.075	1269518	keystroke_s	s	n/a
634.984	0.06	1269968	keystroke_e	e	n/a
635.314	0.045	1270628	keystroke_Key.enter	Key.enter	n/a
635.3765	15.6375	1270753	prompt	n/a	philippines barriers interventions merger\n
636.244	0.075	1272488	keystroke_p	p	n/a
636.469	0.135	1272938	keystroke_h	h	n/a
636.619	0.1205	1273238	keystroke_i	i	n/a
636.8145	0.075	1273629	keystroke_l	l	n/a
636.9945	0.12	1273989	keystroke_l	l	n/a
637.0995	0.09	1274199	keystroke_i	i	n/a
637.9835	0.046	1275967	keystroke_Key.backspace	Key.backspace	n/a
638.1485	0.06	1276297	keystroke_Key.backspace	Key.backspace	n/a
638.3285	0.06	1276657	keystroke_Key.backspace	Key.backspace	n/a
639.8595	0.06	1279719	keystroke_l	l	n/a
640.684	0.075	1281368	keystroke_i	i	n/a
640.894	0.045	1281788	keystroke_p	p	n/a
641.044	0.09	1282088	keystroke_p	p	n/a
641.269	0.135	1282538	keystroke_i	i	n/a
641.359	0.12	1282718	keystroke_n	n	n/a
641.584	0.12	1283168	keystroke_e	e	n/a
641.824	0.105	1283648	keystroke_s	s	n/a
642.6335	0.0905	1285267	keystroke_Key.space	Key.space	n/a
642.8435	0.0765	1285687	keystroke_b	b	n/a
642.964	0.1495	1285928	keystroke_a	a	n/a
643.099	0.0595	1286198	keystroke_r	r	n/a
643.2485	0.09	1286497	keystroke_r	r	n/a
643.355	0.074	1286710	keystroke_i	i	n/a
643.459	0.09	1286918	keystroke_e	e	n/a
644.434	0.06	1288868	keystroke_r	r	n/a
644.599	0.09	1289198	keystroke_s	s	n/a
644.749	0.09	1289498	keystroke_Key.space	Key.space	n/a
644.9745	0.06	1289949	keystroke_i	i	n/a
645.0495	0.12	1290099	keystroke_n	n	n/a
645.4685	0.106	1290937	keystroke_t	t	n/a
645.6195	0.119	1291239	keystroke_e	e	n/a
645.6935	0.09	1291387	keystroke_r	r	n/a
647.344	0.0755	1294688	keystroke_v	v	n/a
647.524	0.0905	1295048	keystroke_e	e	n/a
647.6745	0.0895	1295349	keystroke_n	n	n/a
648.8145	0.105	1297629	keystroke_t	t	n/a
648.9345	0.2245	1297869	keystroke_i	i	n/a
649.054	0.135	1298108	keystroke_o	o	n/a
649.16	0.074	1298320	keystroke_n	n	n/a
649.219	0.105	1298438	keystroke_s	s	n/a
649.7745	0.03	1299549	keystroke_Key.space	Key.space	n/a
649.9095	0.075	1299819	keystroke_m	m	n/a
650.0295	0.105	1300059	keystroke_e	e	n/a
650.0895	0.105	1300179	keystroke_r	r	n/a
650.5095	0.165	1301019	keystroke_g	g	n/a
650.6595	0.165	1301319	keystroke_e	e	n/a
650.7795	0.075	1301559	keystroke_r	r	n/a
650.9295	0.075	1301859	keystroke_Key.enter	Key.enter	n/a
651.019	4.1865	1302038	prompt	n/a	limit crash code one\n
651.7095	0.18	1303419	keystroke_l	l	n/a
651.8445	0.15	1303689	keystroke_i	i	n/a
651.9495	0.165	1303899	keystroke_m	m	n/a
652.0845	0.09	1304169	keystroke_i	i	n/a
652.1895	0.105	1304379	keystroke_t	t	n/a
652.3545	0.105	1304709	keystroke_Key.space	Key.space	n/a
652.549	0.135	1305098	keystroke_c	c	n/a
652.819	0.12	1305638	keystroke_r	r	n/a
652.954	0.165	1305908	keystroke_a	a	n/a
653.4185	0.105	1306837	keystroke_s	s	n/a
653.5385	0.121	1307077	keystroke_h	h	n/a
653.6285	0.1205	1307257	keystroke_Key.space	Key.space	n/a
653.9585	0.105	1307917	keystroke_c	c	n/a
654.0495	0.105	1308099	keystroke_o	o	n/a
654.199	0.1345	1308398	keystroke_d	d	n/a
654.289	0.12	1308578	keystroke_e	e	n/a
654.4685	0.1055	1308937	keystroke_Key.space	Key.space	n/a
654.784	0.135	1309568	keystroke_o	o	n/a
654.859	0.12	1309718	keystroke_n	n	n/a
654.964	0.09	1309928	keystroke_e	e	n/a
655.144	0.06	1310288	keystroke_Key.enter	Key.enter	n/a
655.2095	7.136	1310419	prompt	n/a	feeding shop wear biography\n
655.924	0.1205	1311848	keystroke_f	f	n/a
656.1195	0.09	1312239	keystroke_e	e	n/a
656.3145	0.09	1312629	keystroke_e	e	n/a
656.4945	0.105	1312989	keystroke_d	d	n/a
656.6595	0.1195	1313319	keystroke_i	i	n/a
656.764	0.09	1313528	keystroke_n	n	n/a
656.884	0.075	1313768	keystroke_g	g	n/a
657.019	0.105	1314038	keystroke_Key.space	Key.space	n/a
657.304	0.09	1314608	keystroke_s	s	n/a
657.409	0.105	1314818	keystroke_h	h	n/a
657.484	0.105	1314968	keystroke_o	o	n/a
657.694	0.09	1315388	keystroke_p	p	n/a
657.994	0.015	1315988	keystroke_Key.space	Key.space	n/a
658.294	0.165	1316588	keystroke_w	w	n/a
658.714	0.225	1317428	keystroke_e	e	n/a
658.804	0.15	1317608	keystroke_a	a	n/a
658.894	0.12	1317788	keystroke_r	r	n/a
659.314	0.0755	1318628	keystroke_Key.space	Key.space	n/a
659.779	0.045	1319558	keystroke_b	b	n/a
659.839	0.18	1319678	keystroke_i	i	n/a
659.989	0.15	1319978	keystroke_o	o	n/a
