onset	duration	sample	value	key	prompt_text
1.8045	12.7265	3609	prompt	n/a	the quick brown fox jumps over a lazy dog\n
3.7765	0.028	7553	keystroke_t	t	n/a
3.8495	0.12	7699	keystroke_h	h	n/a
4.015	0.135	8030	keystroke_e	e	n/a
4.165	0.12	8330	keystroke_Key.space	Key.space	n/a
4.5105	0.1045	9021	keystroke_q	q	n/a
4.645	0.1055	9290	keystroke_u	u	n/a
4.8555	0.105	9711	keystroke_i	i	n/a
5.1705	0.09	10341	keystroke_c	c	n/a
5.3055	0.105	10611	keystroke_k	k	n/a
5.5455	0.075	11091	keystroke_Key.space	Key.space	n/a
5.7855	0.105	11571	keystroke_b	b	n/a
6.0405	0.105	12081	keystroke_r	r	n/a
6.1605	0.1045	12321	keystroke_o	o	n/a
6.6805	0.105	13361	keystroke_w	w	n/a
6.8305	0.122	13661	keystroke_n	n	n/a
7.088	0.075	14176	keystroke_Key.space	Key.space	n/a
7.3125	0.0745	14625	keystroke_f	f	n/a
7.432	0.09	14864	keystroke_o	o	n/a
7.8525	0.105	15705	keystroke_z	z	n/a
8.4225	0.09	16845	keystroke_Key.backspace	Key.backspace	n/a
8.6775	0.105	17355	keystroke_x	x	n/a
9.8035	0.105	19607	keystroke_Key.space	Key.space	n/a
10.1335	0.105	20267	keystroke_j	j	n/a
10.3585	0.0595	20717	keystroke_u	u	n/a
10.553	0.09	21106	keystroke_m	m	n/a
10.7935	0.09	21587	keystroke_p	p	n/a
11.0335	0.105	22067	keystroke_s	s	n/a
11.1685	0.09	22337	keystroke_Key.space	Key.space	n/a
11.3485	0.12	22697	keystroke_o	o	n/a
11.5735	0.09	23147	keystroke_v	v	n/a
11.798	0.151	23596	keystroke_e	e	n/a
11.918	0.106	23836	keystroke_r	r	n/a
12.1135	0.09	24227	keystroke_Key.space	Key.space	n/a
12.3385	0.12	24677	keystroke_a	a	n/a
12.4735	0.075	24947	keystroke_Key.space	Key.space	n/a
12.7885	0.09	25577	keystroke_l	l	n/a
12.9985	0.12	25997	keystroke_a	a	n/a
13.2535	0.105	26507	keystroke_z	z	n/a
13.3885	0.09	26777	keystroke_y	y	n/a
13.6285	0.105	27257	keystroke_Key.space	Key.space	n/a
13.8835	0.09	27767	keystroke_d	d	n/a
13.9885	0.12	27977	keystroke_o	o	n/a
14.2285	0.09	28457	keystroke_g	g	n/a
14.4235	0.105	28847	keystroke_Key.enter	Key.enter	n/a
14.535	16.5255	29070	prompt	n/a	cohen waves gamespot instructions\n
15.2185	0.075	30437	keystroke_c	c	n/a
15.8185	0.09	31637	keystroke_o	o	n/a
16.1485	0.09	32297	keystroke_h	h	n/a
16.3735	0.135	32747	keystroke_e	e	n/a
16.5385	0.135	33077	keystroke_n	n	n/a
16.793	0.09	33586	keystroke_Key.space	Key.space	n/a
17.078	0.105	34156	keystroke_w	w	n/a
17.318	0.12	34636	keystroke_a	a	n/a
17.993	0.075	35986	keystroke_v	v	n/a
18.473	0.12	36946	keystroke_e	e	n/a
18.713	0.105	37426	keystroke_s	s	n/a
18.8785	0.09	37757	keystroke_Key.space	Key.space	n/a
19.1485	0.09	38297	keystroke_g	g	n/a
19.3885	0.09	38777	keystroke_a	a	n/a
19.5385	0.105	39077	keystroke_m	m	n/a
19.6885	0.12	39377	keystroke_e	e	n/a
19.973	0.105	39946	keystroke_s	s	n/a
20.348	0.105	40696	keystroke_p	p	n/a
20.603	0.0755	41206	keystroke_o	o	n/a
20.7385	0.105	41477	keystroke_t	t	n/a
20.9935	0.105	41987	keystroke_Key.space	Key.space	n/a
21.683	0.015	43366	keystroke_Key.backspace	Key.backspace	n/a
21.833	0.091	43666	keystroke_Key.backspace	Key.backspace	n/a
22.0585	0.09	44117	keystroke_Key.backspace	Key.backspace	n/a
22.2535	0.09	44507	keystroke_Key.backspace	Key.backspace	n/a
24.4305	0.013	48861	keystroke_p	p	n/a
24.5935	0.09	49187	keystroke_o	o	n/a
24.804	0.09	49608	keystroke_t	t	n/a
24.998	0.09	49996	keystroke_Key.space	Key.space	n/a
25.373	0.075	50746	keystroke_i	i	n/a
25.568	0.09	51136	keystroke_n	n	n/a
25.7785	0.12	51557	keystroke_s	s	n/a
26.334	0.06	52668	keystroke_r	r	n/a
27.218	0.121	54436	keystroke_Key.backspace	Key.backspace	n/a
27.518	0.09	55036	keystroke_t	t	n/a
27.7735	0.075	55547	keystroke_r	r	n/a
27.8935	0.09	55787	keystroke_u	u	n/a
29.289	0.104	58578	keystroke_c	c	n/a
29.7985	0.075	59597	keystroke_t	t	n/a
30.0085	0.06	60017	keystroke_i	i	n/a
30.1885	0.09	60377	keystroke_o	o	n/a
30.3685	0.09	60737	keystroke_n	n	n/a
30.5335	0.105	61067	keystroke_s	s	n/a
30.9685	0.09	61937	keystroke_Key.enter	Key.enter	n/a
31.0635	12.162	62127	prompt	n/a	vermont fellowship corrections interventions\n
32.0485	0.09	64097	keystroke_v	v	n/a
32.333	0.1505	64666	keystroke_e	e	n/a
32.4385	0.09	64877	keystroke_r	r	n/a
32.6335	0.09	65267	keystroke_m	m	n/a
32.8285	0.12	65657	keystroke_o	o	n/a
33.0385	0.105	66077	keystroke_n	n	n/a
33.1885	0.075	66377	keystroke_t	t	n/a
33.3535	0.09	66707	keystroke_Key.space	Key.space	n/a
33.713	0.09	67426	keystroke_f	f	n/a
33.9835	0.1195	67967	keystroke_e	e	n/a
34.268	0.09	68536	keystroke_l	l	n/a
34.463	0.09	68926	keystroke_l	l	n/a
34.718	0.105	69436	keystroke_o	o	n/a
35.183	0.09	70366	keystroke_w	w	n/a
35.694	0.104	71388	keystroke_s	s	n/a
35.828	0.09	71656	keystroke_h	h	n/a
36.008	0.1055	72016	keystroke_i	i	n/a
36.2335	0.135	72467	keystroke_p	p	n/a
36.5185	0.09	73037	keystroke_Key.space	Key.space	n/a
37.1785	0.09	74357	keystroke_c	c	n/a
37.3885	0.105	74777	keystroke_o	o	n/a
37.6435	0.09	75287	keystroke_r	r	n/a
37.8085	0.105	75617	keystroke_r	r	n/a
38.0185	0.12	76037	keystroke_e	e	n/a
38.2585	0.09	76517	keystroke_c	c	n/a
38.4985	0.09	76997	keystroke_t	t	n/a
38.6485	0.12	77297	keystroke_i	i	n/a
38.8885	0.105	77777	keystroke_o	o	n/a
39.0835	0.105	78167	keystroke_n	n	n/a
39.2635	0.0895	78527	keystroke_s	s	n/a
39.443	0.105	78886	keystroke_Key.space	Key.space	n/a
39.713	0.0905	79426	keystroke_i	i	n/a
39.9235	0.105	79847	keystroke_n	n	n/a
40.1185	0.12	80237	keystroke_t	t	n/a
40.3585	0.1505	80717	keystroke_e	e	n/a
40.479	0.12	80958	keystroke_r	r	n/a
40.8985	0.09	81797	keystroke_v	v	n/a
41.319	0.09	82638	keystroke_e	e	n/a
41.469	0.09	82938	keystroke_n	n	n/a
41.634	0.105	83268	keystroke_t	t	n/a
41.9485	0.0755	83897	keystroke_i	i	n/a
42.309	0.105	84618	keystroke_o	o	n/a
42.5185	0.09	85037	keystroke_n	n	n/a
42.7735	0.09	85547	keystroke_s	s	n/a
43.1335	0.09	86267	keystroke_Key.enter	Key.enter	n/a
43.228	9.5675	86456	prompt	n/a	results runner partially paypal\n
43.9585	0.09	87917	keystroke_r	r	n/a
44.1835	0.105	88367	keystroke_e	e	n/a
44.4535	0.09	88907	keystroke_s	s	n/a
44.6335	0.12	89267	keystroke_u	u	n/a
45.2635	0.09	90527	keystroke_l	l	n/a
45.549	0.09	91098	keystroke_t	t	n/a
45.834	0.105	91668	keystroke_s	s	n/a
46.1035	0.105	92207	keystroke_Key.space	Key.space	n/a
46.4035	0.105	92807	keystroke_r	r	n/a
46.5835	0.09	93167	keystroke_u	u	n/a
46.8235	0.06	93647	keystroke_n	n	n/a
47.004	0.074	94008	keystroke_n	n	n/a
47.243	0.166	94486	keystroke_e	e	n/a
47.364	0.105	94728	keystroke_r	r	n/a
47.558	0.09	95116	keystroke_Key.space	Key.space	n/a
47.843	0.105	95686	keystroke_p	p	n/a
48.068	0.136	96136	keystroke_a	a	n/a
48.189	0.134	96378	keystroke_r	r	n/a
48.443	0.121	96886	keystroke_t	t	n/a
48.729	0.075	97458	keystroke_i	i	n/a
49.014	0.105	98028	keystroke_a	a	n/a
49.224	0.074	98448	keystroke_l	l	n/a
49.403	0.09	98806	keystroke_l	l	n/a
49.643	0.0905	99286	keystroke_y	y	n/a
49.8835	0.09	99767	keystroke_Key.space	Key.space	n/a
50.1385	0.105	100277	keystroke_p	p	n/a
50.3335	0.1045	100667	keystroke_a	a	n/a
50.469	0.074	100938	keystroke_y	y	n/a
50.783	0.12	101566	keystroke_p	p	n/a
50.993	0.106	101986	keystroke_a	a	n/a
51.1885	0.0445	102377	keystroke_y	y	n/a
51.983	0.045	103966	keystroke_Key.backspace	Key.backspace	n/a
52.388	0.06	104776	keystroke_l	l	n/a
52.718	0.075	105436	keystroke_Key.enter	Key.enter	n/a
52.7985	8.517	105597	prompt	n/a	engaged model statistics span\n
53.7085	0.12	107417	keystroke_e	e	n/a
53.9335	0.075	107867	keystroke_n	n	n/a
54.1585	0.09	108317	keystroke_g	g	n/a
54.4885	0.105	108977	keystroke_a	a	n/a
54.803	0.06	109606	keystroke_g	g	n/a
55.0435	0.09	110087	keystroke_e	e	n/a
55.673	0.09	111346	keystroke_d	d	n/a
55.913	0.075	111826	keystroke_Key.space	Key.space	n/a
56.168	0.09	112336	keystroke_m	m	n/a
56.393	0.09	112786	keystroke_o	o	n/a
56.603	0.09	113206	keystroke_d	d	n/a
56.828	0.09	113656	keystroke_e	e	n/a
56.978	0.105	113956	keystroke_l	l	n/a
57.263	0.09	114526	keystroke_Key.space	Key.space	n/a
57.533	0.135	115066	keystroke_s	s	n/a
57.833	0.09	115666	keystroke_t	t	n/a
58.073	0.15	116146	keystroke_a	a	n/a
58.208	0.105	116416	keystroke_t	t	n/a
58.598	0.06	117196	keystroke_i	i	n/a
58.838	0.12	117676	keystroke_s	s	n/a
59.048	0.105	118096	keystroke_t	t	n/a
59.273	0.075	118546	keystroke_i	i	n/a
59.498	0.09	118996	keystroke_c	c	n/a
59.7685	0.105	119537	keystroke_s	s	n/a
59.9335	0.105	119867	keystroke_Key.space	Key.space	n/a
60.204	0.105	120408	keystroke_s	s	n/a
60.384	0.135	120768	keystroke_p	p	n/a
60.744	0.105	121488	keystroke_a	a	n/a
60.864	0.105	121728	keystroke_n	n	n/a
61.224	0.09	122448	keystroke_Key.enter	Key.enter	n/a
61.319	17.246	122638	prompt	n/a	rochester essentials recent self\n
61.9735	0.1045	123947	keystroke_r	r	n/a
62.153	0.105	124306	keystroke_o	o	n/a
62.348	0.09	124696	keystroke_c	c	n/a
62.483	0.09	124966	keystroke_h	h	n/a
62.618	0.1205	125236	keystroke_e	e	n/a
62.8435	0.105	125687	keystroke_s	s	n/a
63.0535	0.1045	126107	keystroke_t	t	n/a
63.368	0.195	126736	keystroke_e	e	n/a
63.533	0.1055	127066	keystroke_r	r	n/a
63.7435	0.09	127487	keystroke_Key.space	Key.space	n/a
65.739	0.074	131478	keystroke_Key.backspace	Key.backspace	n/a
65.948	0.09	131896	keystroke_Key.backspace	Key.backspace	n/a
66.158	0.09	132316	keystroke_Key.backspace	Key.backspace	n/a
66.368	0.09	132736	keystroke_Key.backspace	Key.backspace	n/a
66.578	0.075	133156	keystroke_Key.backspace	Key.backspace	n/a
66.773	0.0755	133546	keystroke_Key.backspace	Key.backspace	n/a
66.9835	0.075	133967	keystroke_Key.backspace	Key.backspace	n/a
67.1935	0.03	134387	keystroke_Key.backspace	Key.backspace	n/a
68.004	0.089	136008	keystroke_c	c	n/a
68.243	0.075	136486	keystroke_h	h	n/a
68.483	0.12	136966	keystroke_e	e	n/a
68.708	0.121	137416	keystroke_s	s	n/a
68.933	0.12	137866	keystroke_t	t	n/a
69.203	0.1655	138406	keystroke_e	e	n/a
69.323	0.1355	138646	keystroke_r	r	n/a
69.7285	0.075	139457	keystroke_Key.space	Key.space	n/a
70.1335	0.105	140267	keystroke_e	e	n/a
70.5235	0.09	141047	keystroke_s	s	n/a
70.7035	0.135	141407	keystroke_s	s	n/a
70.9285	0.105	141857	keystroke_e	e	n/a
71.0485	0.0905	142097	keystroke_n	n	n/a
71.244	0.09	142488	keystroke_t	t	n/a
71.424	0.09	142848	keystroke_i	i	n/a
71.724	0.074	143448	keystroke_l	l	n/a
71.904	0.105	143808	keystroke_a	a	n/a
73.388	0.105	146776	keystroke_Key.backspace	Key.backspace	n/a
73.613	0.0905	147226	keystroke_Key.backspace	Key.backspace	n/a
74.934	0.119	149868	keystroke_a	a	n/a
75.098	0.105	150196	keystroke_l	l	n/a
75.294	0.1045	150588	keystroke_s	s	n/a
75.473	0.0755	150946	keystroke_Key.space	Key.space	n/a
75.743	0.15	151486	keystroke_r	r	n/a
75.953	0.135	151906	keystroke_e	e	n/a
76.2835	0.105	152567	keystroke_c	c	n/a
76.4185	0.1495	152837	keystroke_e	e	n/a
76.553	0.09	153106	keystroke_n	n	n/a
76.703	0.09	153406	keystroke_t	t	n/a
76.868	0.09	153736	keystroke_Key.space	Key.space	n/a
77.183	0.105	154366	keystroke_s	s	n/a
77.423	0.121	154846	keystroke_e	e	n/a
77.528	0.105	155056	keystroke_l	l	n/a
77.708	0.09	155416	keystroke_f	f	n/a
77.978	0.015	155956	keystroke_Key.space	Key.space	n/a
78.488	0.0755	156976	keystroke_Key.enter	Key.enter	n/a
78.5705	9.3245	157141	prompt	n/a	damage mistake brochure versus\n
79.2385	0.0895	158477	keystroke_d	d	n/a
79.523	0.12	159046	keystroke_a	a	n/a
80.0335	0.09	160067	keystroke_m	m	n/a
80.574	0.09	161148	keystroke_a	a	n/a
80.739	0.105	161478	keystroke_g	g	n/a
80.994	0.105	161988	keystroke_e	e	n/a
81.174	0.09	162348	keystroke_Key.space	Key.space	n/a
81.549	0.09	163098	keystroke_m	m	n/a
81.939	0.0595	163878	keystroke_i	i	n/a
82.3585	0.105	164717	keystroke_s	s	n/a
82.929	0.075	165858	keystroke_t	t	n/a
83.139	0.105	166278	keystroke_a	a	n/a
83.274	0.075	166548	keystroke_k	k	n/a
83.454	0.105	166908	keystroke_e	e	n/a
83.664	0.0895	167328	keystroke_Key.space	Key.space	n/a
83.9185	0.105	167837	keystroke_b	b	n/a
84.2185	0.09	168437	keystroke_r	r	n/a
84.6235	0.0905	169247	keystroke_o	o	n/a
84.984	0.09	169968	keystroke_c	c	n/a
85.179	0.09	170358	keystroke_h	h	n/a
85.404	0.075	170808	keystroke_u	u	n/a
85.539	0.09	171078	keystroke_r	r	n/a
85.734	0.105	171468	keystroke_e	e	n/a
85.988	0.076	171976	keystroke_Key.space	Key.space	n/a
86.454	0.09	172908	keystroke_v	v	n/a
86.679	0.165	173358	keystroke_e	e	n/a
86.799	0.135	173598	keystroke_r	r	n/a
87.144	0.105	174288	keystroke_s	s	n/a
87.324	0.089	174648	keystroke_u	u	n/a
87.564	0.135	175128	keystroke_s	s	n/a
87.774	0.12	175548	keystroke_Key.enter	Key.enter	n/a
87.8975	11.7275	175795	prompt	n/a	cases archives advice hear\n
88.074	0.03	176148	keystroke_k	k	n/a
88.553	0.106	177106	keystroke_c	c	n/a
88.778	0.1205	177556	keystroke_a	a	n/a
89.0035	0.1195	178007	keystroke_s	s	n/a
89.394	0.104	178788	keystroke_e	e	n/a
89.6335	0.1355	179267	keystroke_s	s	n/a
90.443	0.0605	180886	keystroke_Key.backspace	Key.backspace	n/a
90.6685	0.06	181337	keystroke_Key.backspace	Key.backspace	n/a
90.8785	0.045	181757	keystroke_Key.backspace	Key.backspace	n/a
91.0735	0.075	182147	keystroke_Key.backspace	Key.backspace	n/a
91.2835	0.075	182567	keystroke_Key.backspace	Key.backspace	n/a
91.4935	0.06	182987	keystroke_Key.backspace	Key.backspace	n/a
91.6885	0.06	183377	keystroke_Key.backspace	Key.backspace	n/a
92.258	0.09	184516	keystroke_c	c	n/a
92.513	0.12	185026	keystroke_a	a	n/a
92.738	0.135	185476	keystroke_s	s	n/a
93.068	0.105	186136	keystroke_e	e	n/a
93.293	0.12	186586	keystroke_s	s	n/a
93.518	0.09	187036	keystroke_Key.space	Key.space	n/a
93.803	0.12	187606	keystroke_a	a	n/a
94.028	0.12	188056	keystroke_r	r	n/a
94.3735	0.09	188747	keystroke_c	c	n/a
94.5535	0.0895	189107	keystroke_h	h	n/a
95.1385	0.075	190277	keystroke_i	i	n/a
95.5285	0.09	191057	keystroke_v	v	n/a
95.7985	0.135	191597	keystroke_e	e	n/a
96.0685	0.105	192137	keystroke_s	s	n/a
96.2485	0.09	192497	keystroke_Key.space	Key.space	n/a
96.5035	0.12	193007	keystroke_a	a	n/a
96.7585	0.09	193517	keystroke_d	d	n/a
97.058	0.15	194116	keystroke_v	v	n/a
97.328	0.075	194656	keystroke_i	i	n/a
97.688	0.03	195376	keystroke_c	c	n/a
97.823	0.105	195646	keystroke_e	e	n/a
98.063	0.09	196126	keystroke_Key.space	Key.space	n/a
98.3035	0.0595	196607	keystroke_h	h	n/a
98.438	0.045	196876	keystroke_e	e	n/a
99.098	0.135	198196	keystroke_a	a	n/a
99.248	0.075	198496	keystroke_r	r	n/a
99.518	0.105	199036	keystroke_Key.enter	Key.enter	n/a
99.6285	10.5565	199257	prompt	n/a	represent award greeting wings\n
100.598	0.061	201196	keystroke_e	e	n/a
101.1235	0.15	202247	keystroke_Key.backspace	Key.backspace	n/a
101.4685	0.09	202937	keystroke_r	r	n/a
101.829	0.089	203658	keystroke_e	e	n/a
102.219	0.089	204438	keystroke_p	p	n/a
102.563	0.09	205126	keystroke_r	r	n/a
102.773	0.105	205546	keystroke_e	e	n/a
103.028	0.12	206056	keystroke_s	s	n/a
104.153	0.135	208306	keystroke_e	e	n/a
104.333	0.09	208666	keystroke_n	n	n/a
104.498	0.09	208996	keystroke_t	t	n/a
104.723	0.09	209446	keystroke_Key.space	Key.space	n/a
105.188	0.135	210376	keystroke_a	a	n/a
105.458	0.09	210916	keystroke_w	w	n/a
105.683	0.12	211366	keystroke_a	a	n/a
105.818	0.12	211636	keystroke_r	r	n/a
106.134	0.09	212268	keystroke_d	d	n/a
106.539	0.06	213078	keystroke_Key.space	Key.space	n/a
106.929	0.075	213858	keystroke_g	g	n/a
107.169	0.09	214338	keystroke_r	r	n/a
107.424	0.105	214848	keystroke_e	e	n/a
107.604	0.12	215208	keystroke_e	e	n/a
107.8285	0.045	215657	keystroke_t	t	n/a
107.9635	0.06	215927	keystroke_i	i	n/a
108.1135	0.075	216227	keystroke_n	n	n/a
108.2035	0.105	216407	keystroke_g	g	n/a
108.6085	0.09	217217	keystroke_Key.space	Key.space	n/a
109.1485	0.12	218297	keystroke_w	w	n/a
109.3585	0.06	218717	keystroke_i	i	n/a
109.5085	0.09	219017	keystroke_n	n	n/a
109.6585	0.09	219317	keystroke_g	g	n/a
109.884	0.104	219768	keystroke_s	s	n/a
110.093	0.09	220186	keystroke_Key.enter	Key.enter	n/a
110.188	16.8125	220376	prompt	n/a	packet denver issues specialties\n
110.904	0.074	221808	keystroke_p	p	n/a
111.114	0.1195	222228	keystroke_a	a	n/a
111.3535	0.075	222707	keystroke_c	c	n/a
111.4735	0.105	222947	keystroke_k	k	n/a
111.7285	0.135	223457	keystroke_e	e	n/a
111.9835	0.06	223967	keystroke_t	t	n/a
112.1635	0.09	224327	keystroke_Key.space	Key.space	n/a
112.5535	0.12	225107	keystroke_d	d	n/a
112.8235	0.075	225647	keystroke_e	e	n/a
113.438	0.075	226876	keystroke_n	n	n/a
113.7985	0.12	227597	keystroke_v	v	n/a
114.0385	0.18	228077	keystroke_e	e	n/a
114.1885	0.09	228377	keystroke_r	r	n/a
114.3085	0.105	228617	keystroke_Key.space	Key.space	n/a
114.5185	0.075	229037	keystroke_i	i	n/a
114.6985	0.105	229397	keystroke_s	s	n/a
114.9085	0.105	229817	keystroke_s	s	n/a
115.1785	0.075	230357	keystroke_u	u	n/a
115.4485	0.12	230897	keystroke_e	e	n/a
115.703	0.105	231406	keystroke_s	s	n/a
115.883	0.09	231766	keystroke_Key.space	Key.space	n/a
116.4985	0.045	232997	keystroke_s	s	n/a
116.7085	0.105	233417	keystroke_p	p	n/a
117.2785	0.105	234557	keystroke_e	e	n/a
118.2085	0.09	236417	keystroke_c	c	n/a
118.4935	0.06	236987	keystroke_i	i	n/a
118.854	0.105	237708	keystroke_a	a	n/a
119.349	0.105	238698	keystroke_l	l	n/a
119.739	0.06	239478	keystroke_i	i	n/a
119.919	0.105	239838	keystroke_t	t	n/a
121.3285	0.06	242657	keystroke_Key.backspace	Key.backspace	n/a
122.274	0.135	244548	keystroke_e	e	n/a
122.514	0.135	245028	keystroke_s	s	n/a
123.339	0.06	246678	keystroke_Key.backspace	Key.backspace	n/a
123.549	0.075	247098	keystroke_Key.backspace	Key.backspace	n/a
123.744	0.075	247488	keystroke_Key.backspace	Key.backspace	n/a
124.269	0.045	248538	keystroke_Key.backspace	Key.backspace	n/a
125.799	0.03	251598	keystroke_t	t	n/a
126.429	0.09	252858	keystroke_i	i	n/a
126.579	0.105	253158	keystroke_e	e	n/a
126.774	0.119	253548	keystroke_s	s	n/a
126.909	0.0895	253818	keystroke_Key.enter	Key.enter	n/a
127.003	8.8625	254006	prompt	n/a	assembly expect hill buy\n
127.689	0.134	255378	keystroke_a	a	n/a
127.929	0.075	255858	keystroke_s	s	n/a
128.094	0.09	256188	keystroke_s	s	n/a
128.303	0.106	256606	keystroke_e	e	n/a
128.498	0.09	256996	keystroke_m	m	n/a
128.709	0.104	257418	keystroke_b	b	n/a
129.099	0.089	258198	keystroke_l	l	n/a
129.353	0.076	258706	keystroke_y	y	n/a
129.578	0.09	259156	keystroke_Key.space	Key.space	n/a
130.058	0.12	260116	keystroke_e	e	n/a
130.313	0.06	260626	keystroke_s	s	n/a
130.943	0.075	261886	keystroke_Key.backspace	Key.backspace	n/a
131.153	0.12	262306	keystroke_x	x	n/a
132.744	0.09	265488	keystroke_p	p	n/a
133.119	0.135	266238	keystroke_e	e	n/a
133.404	0.09	266808	keystroke_c	c	n/a
133.6285	0.0745	267257	keystroke_t	t	n/a
133.8385	0.09	267677	keystroke_Key.space	Key.space	n/a
134.0785	0.075	268157	keystroke_h	h	n/a
134.2435	0.075	268487	keystroke_i	i	n/a
134.4835	0.075	268967	keystroke_l	l	n/a
134.6635	0.09	269327	keystroke_l	l	n/a
134.889	0.075	269778	keystroke_Key.space	Key.space	n/a
135.1435	0.09	270287	keystroke_b	b	n/a
135.3235	0.06	270647	keystroke_u	u	n/a
135.5035	0.075	271007	keystroke_y	y	n/a
135.8035	0.06	271607	keystroke_Key.enter	Key.enter	n/a
135.8695	10.7355	271739	prompt	n/a	slide posters somebody's nevada\n
136.5985	0.105	273197	keystroke_s	s	n/a
136.8235	0.105	273647	keystroke_l	l	n/a
137.0185	0.075	274037	keystroke_i	i	n/a
137.2585	0.105	274517	keystroke_d	d	n/a
137.4835	0.105	274967	keystroke_e	e	n/a
137.6485	0.1055	275297	keystroke_Key.space	Key.space	n/a
137.874	0.12	275748	keystroke_p	p	n/a
138.189	0.105	276378	keystroke_o	o	n/a
138.579	0.12	277158	keystroke_s	s	n/a
138.9385	0.09	277877	keystroke_t	t	n/a
139.1785	0.18	278357	keystroke_e	e	n/a
139.3285	0.12	278657	keystroke_r	r	n/a
139.6435	0.135	279287	keystroke_s	s	n/a
139.9585	0.075	279917	keystroke_Key.space	Key.space	n/a
140.559	0.105	281118	keystroke_s	s	n/a
140.724	0.1195	281448	keystroke_o	o	n/a
140.9635	0.075	281927	keystroke_m	m	n/a
141.1735	0.09	282347	keystroke_e	e	n/a
141.6835	0.075	283367	keystroke_b	b	n/a
141.819	0.105	283638	keystroke_o	o	n/a
142.5535	0.09	285107	keystroke_d	d	n/a
142.8535	0.09	285707	keystroke_y	y	n/a
143.334	0.0895	286668	keystroke_'	'	n/a
143.4985	0.105	286997	keystroke_s	s	n/a
143.753	0.09	287506	keystroke_Key.space	Key.space	n/a
144.2185	0.06	288437	keystroke_n	n	n/a
144.5185	0.105	289037	keystroke_e	e	n/a
145.013	0.061	290026	keystroke_v	v	n/a
145.7335	0.1045	291467	keystroke_a	a	n/a
146.1385	0.09	292277	keystroke_d	d	n/a
146.364	0.09	292728	keystroke_a	a	n/a
146.514	0.09	293028	keystroke_Key.enter	Key.enter	n/a
146.608	7.557	293216	prompt	n/a	html hosted client xhtml\n
147.414	0.105	294828	keystroke_h	h	n/a
147.879	0.075	295758	keystroke_t	t	n/a
148.284	0.105	296568	keystroke_m	m	n/a
148.599	0.12	297198	keystroke_l	l	n/a
148.8835	0.105	297767	keystroke_Key.space	Key.space	n/a
149.1685	0.075	298337	keystroke_h	h	n/a
149.3485	0.105	298697	keystroke_o	o	n/a
149.5435	0.105	299087	keystroke_s	s	n/a
149.799	0.075	299598	keystroke_t	t	n/a
150.024	0.135	300048	keystroke_e	e	n/a
150.279	0.09	300558	keystroke_d	d	n/a
150.534	0.075	301068	keystroke_Key.space	Key.space	n/a
150.819	0.09	301638	keystroke_c	c	n/a
150.969	0.135	301938	keystroke_l	l	n/a
151.224	0.075	302448	keystroke_i	i	n/a
151.464	0.105	302928	keystroke_e	e	n/a
151.629	0.09	303258	keystroke_n	n	n/a
151.794	0.075	303588	keystroke_t	t	n/a
151.929	0.105	303858	keystroke_Key.space	Key.space	n/a
152.5285	0.12	305057	keystroke_x	x	n/a
152.889	0.09	305778	keystroke_h	h	n/a
153.234	0.09	306468	keystroke_t	t	n/a
153.5035	0.105	307007	keystroke_m	m	n/a
153.8185	0.09	307637	keystroke_l	l	n/a
154.1035	0.06	308207	keystroke_Key.enter	Key.enter	n/a
154.168	12.0275	308336	prompt	n/a	equal previews replication belong\n
155.0785	0.12	310157	keystroke_e	e	n/a
155.3785	0.105	310757	keystroke_q	q	n/a
155.5285	0.105	311057	keystroke_u	u	n/a
155.904	0.105	311808	keystroke_a	a	n/a
156.054	0.12	312108	keystroke_l	l	n/a
156.354	0.09	312708	keystroke_Key.space	Key.space	n/a
156.744	0.105	313488	keystroke_p	p	n/a
156.894	0.1045	313788	keystroke_r	r	n/a
157.3135	0.09	314627	keystroke_e	e	n/a
157.7335	0.075	315467	keystroke_v	v	n/a
157.9585	0.075	315917	keystroke_i	i	n/a
158.1985	0.135	316397	keystroke_e	e	n/a
158.6635	0.0755	317327	keystroke_s	s	n/a
159.444	0.09	318888	keystroke_Key.backspace	Key.backspace	n/a
159.9085	0.105	319817	keystroke_w	w	n/a
160.1335	0.045	320267	keystroke_e	e	n/a
160.5985	0.0755	321197	keystroke_Key.backspace	Key.backspace	n/a
160.779	0.135	321558	keystroke_s	s	n/a
161.078	0.075	322156	keystroke_Key.space	Key.space	n/a
161.454	0.105	322908	keystroke_r	r	n/a
161.649	0.1195	323298	keystroke_e	e	n/a
161.9335	0.0905	323867	keystroke_p	p	n/a
162.279	0.09	324558	keystroke_l	l	n/a
162.639	0.06	325278	keystroke_i	i	n/a
162.849	0.105	325698	keystroke_c	c	n/a
163.1035	0.135	326207	keystroke_a	a	n/a
163.3285	0.105	326657	keystroke_t	t	n/a
163.4785	0.09	326957	keystroke_i	i	n/a
163.6735	0.09	327347	keystroke_o	o	n/a
163.8835	0.09	327767	keystroke_n	n	n/a
164.2285	0.075	328457	keystroke_Key.space	Key.space	n/a
164.499	0.089	328998	keystroke_b	b	n/a
164.7535	0.105	329507	keystroke_e	e	n/a
165.0685	0.0905	330137	keystroke_l	l	n/a
165.2935	0.09	330587	keystroke_o	o	n/a
165.5035	0.075	331007	keystroke_n	n	n/a
165.6535	0.09	331307	keystroke_g	g	n/a
165.8485	0.075	331697	keystroke_Key.space	Key.space	n/a
166.0735	0.1205	332147	keystroke_Key.enter	Key.enter	n/a
166.198	10.2125	332396	prompt	n/a	section episodes inch golden\n
166.884	0.105	333768	keystroke_s	s	n/a
167.124	0.105	334248	keystroke_e	e	n/a
167.409	0.09	334818	keystroke_c	c	n/a
167.619	0.09	335238	keystroke_t	t	n/a
167.769	0.09	335538	keystroke_i	i	n/a
167.949	0.105	335898	keystroke_o	o	n/a
168.159	0.09	336318	keystroke_n	n	n/a
168.504	0.09	337008	keystroke_Key.space	Key.space	n/a
169.284	0.03	338568	keystroke_s	s	n/a
169.554	0.015	339108	keystroke_s	s	n/a
170.529	0.09	341058	keystroke_Key.backspace	Key.backspace	n/a
170.7535	0.075	341507	keystroke_Key.backspace	Key.backspace	n/a
171.2485	0.09	342497	keystroke_e	e	n/a
171.5185	0.075	343037	keystroke_p	p	n/a
171.7735	0.09	343547	keystroke_i	i	n/a
171.9835	0.105	343967	keystroke_s	s	n/a
172.2085	0.075	344417	keystroke_o	o	n/a
172.7785	0.075	345557	keystroke_d	d	n/a
173.0035	0.09	346007	keystroke_e	e	n/a
173.2285	0.12	346457	keystroke_s	s	n/a
173.3935	0.105	346787	keystroke_Key.space	Key.space	n/a
173.754	0.075	347508	keystroke_i	i	n/a
173.949	0.075	347898	keystroke_n	n	n/a
174.144	0.075	348288	keystroke_c	c	n/a
174.294	0.09	348588	keystroke_h	h	n/a
174.563	0.091	349126	keystroke_Key.space	Key.space	n/a
174.833	0.076	349666	keystroke_g	g	n/a
174.998	0.106	349996	keystroke_o	o	n/a
175.194	0.09	350388	keystroke_l	l	n/a
175.388	0.121	350776	keystroke_d	d	n/a
175.823	0.106	351646	keystroke_e	e	n/a
176.019	0.074	352038	keystroke_n	n	n/a
176.304	0.104	352608	keystroke_Key.enter	Key.enter	n/a
176.413	11.8325	352826	prompt	n/a	benefit delicious threshold developed\n
177.113	0.091	354226	keystroke_b	b	n/a
177.354	0.105	354708	keystroke_e	e	n/a
177.474	0.09	354948	keystroke_n	n	n/a
177.878	0.091	355756	keystroke_e	e	n/a
178.643	0.061	357286	keystroke_f	f	n/a
178.7935	0.076	357587	keystroke_i	i	n/a
178.9885	0.091	357977	keystroke_t	t	n/a
179.2135	0.09	358427	keystroke_Key.space	Key.space	n/a
179.8435	0.105	359687	keystroke_d	d	n/a
180.0385	0.09	360077	keystroke_e	e	n/a
180.174	0.105	360348	keystroke_l	l	n/a
180.369	0.105	360738	keystroke_i	i	n/a
180.549	0.09	361098	keystroke_c	c	n/a
180.759	0.075	361518	keystroke_i	i	n/a
181.0585	0.1505	362117	keystroke_o	o	n/a
181.224	0.09	362448	keystroke_u	u	n/a
181.419	0.105	362838	keystroke_s	s	n/a
181.569	0.09	363138	keystroke_Key.space	Key.space	n/a
181.974	0.045	363948	keystroke_t	t	n/a
182.124	0.075	364248	keystroke_h	h	n/a
182.499	0.105	364998	keystroke_r	r	n/a
182.739	0.09	365478	keystroke_e	e	n/a
183.5335	0.105	367067	keystroke_s	s	n/a
183.999	0.075	367998	keystroke_h	h	n/a
184.179	0.09	368358	keystroke_o	o	n/a
184.374	0.105	368748	keystroke_l	l	n/a
184.539	0.09	369078	keystroke_d	d	n/a
184.8985	0.09	369797	keystroke_Key.space	Key.space	n/a
185.634	0.0895	371268	keystroke_d	d	n/a
185.8585	0.121	371717	keystroke_e	e	n/a
186.1735	0.09	372347	keystroke_v	v	n/a
186.5045	0.119	373009	keystroke_e	e	n/a
187.0745	0.089	374149	keystroke_l	l	n/a
187.2985	0.09	374597	keystroke_o	o	n/a
187.5085	0.105	375017	keystroke_p	p	n/a
187.704	0.105	375408	keystroke_e	e	n/a
187.974	0.09	375948	keystroke_d	d	n/a
188.139	0.105	376278	keystroke_Key.enter	Key.enter	n/a
188.25	10.8705	376500	prompt	n/a	shorts prohibited learning conscious\n
188.8885	0.105	377777	keystroke_s	s	n/a
189.0535	0.09	378107	keystroke_h	h	n/a
189.2635	0.105	378527	keystroke_o	o	n/a
189.4585	0.0905	378917	keystroke_r	r	n/a
189.684	0.09	379368	keystroke_t	t	n/a
190.389	0.105	380778	keystroke_s	s	n/a
190.614	0.075	381228	keystroke_Key.space	Key.space	n/a
190.914	0.1195	381828	keystroke_p	p	n/a
191.1235	0.105	382247	keystroke_r	r	n/a
191.289	0.09	382578	keystroke_o	o	n/a
191.619	0.09	383238	keystroke_h	h	n/a
191.859	0.0745	383718	keystroke_i	i	n/a
192.5185	0.09	385037	keystroke_b	b	n/a
192.7585	0.075	385517	keystroke_i	i	n/a
193.0435	0.09	386087	keystroke_t	t	n/a
193.2685	0.12	386537	keystroke_e	e	n/a
193.5235	0.105	387047	keystroke_d	d	n/a
193.7635	0.105	387527	keystroke_Key.space	Key.space	n/a
193.9885	0.1055	387977	keystroke_l	l	n/a
194.199	0.09	388398	keystroke_e	e	n/a
194.589	0.105	389178	keystroke_a	a	n/a
194.874	0.09	389748	keystroke_r	r	n/a
195.4135	0.09	390827	keystroke_n	n	n/a
195.6085	0.06	391217	keystroke_i	i	n/a
195.7585	0.09	391517	keystroke_n	n	n/a
195.8935	0.075	391787	keystroke_g	g	n/a
196.0885	0.075	392177	keystroke_Key.space	Key.space	n/a
196.4485	0.076	392897	keystroke_c	c	n/a
196.5985	0.105	393197	keystroke_o	o	n/a
196.8235	0.076	393647	keystroke_n	n	n/a
197.3485	0.075	394697	keystroke_s	s	n/a
197.8285	0.075	395657	keystroke_c	c	n/a
198.2345	0.074	396469	keystroke_i	i	n/a
198.4885	0.105	396977	keystroke_o	o	n/a
198.6235	0.105	397247	keystroke_u	u	n/a
198.8335	0.09	397667	keystroke_s	s	n/a
199.0435	0.075	398087	keystroke_Key.enter	Key.enter	n/a
199.123	7.2725	398246	prompt	n/a	aquatic stream able ends\n
200.3045	0.104	400609	keystroke_a	a	n/a
200.754	0.105	401508	keystroke_q	q	n/a
200.919	0.075	401838	keystroke_u	u	n/a
201.3235	0.105	402647	keystroke_a	a	n/a
201.5785	0.105	403157	keystroke_t	t	n/a
201.7435	0.105	403487	keystroke_i	i	n/a
201.9535	0.09	403907	keystroke_c	c	n/a
202.1935	0.075	404387	keystroke_Key.space	Key.space	n/a
202.4485	0.12	404897	keystroke_s	s	n/a
202.7185	0.09	405437	keystroke_t	t	n/a
203.0035	0.09	406007	keystroke_r	r	n/a
203.304	0.105	406608	keystroke_e	e	n/a
203.7535	0.09	407507	keystroke_a	a	n/a
203.9785	0.0755	407957	keystroke_m	m	n/a
204.204	0.075	408408	keystroke_Key.space	Key.space	n/a
204.459	0.135	408918	keystroke_a	a	n/a
204.7285	0.075	409457	keystroke_b	b	n/a
204.9085	0.105	409817	keystroke_l	l	n/a
205.0735	0.09	410147	keystroke_e	e	n/a
205.2235	0.105	410447	keystroke_Key.space	Key.space	n/a
205.4935	0.105	410987	keystroke_e	e	n/a
205.6135	0.09	411227	keystroke_n	n	n/a
205.8685	0.105	411737	keystroke_d	d	n/a
206.1235	0.105	412247	keystroke_s	s	n/a
206.2885	0.105	412577	keystroke_Key.enter	Key.enter	n/a
206.398	11.2175	412796	prompt	n/a	frederick killed hospitality mere\n
207.3385	0.045	414677	keystroke_r	r	n/a
207.8185	0.06	415637	keystroke_Key.backspace	Key.backspace	n/a
208.0435	0.09	416087	keystroke_f	f	n/a
208.2985	0.105	416597	keystroke_r	r	n/a
208.5085	0.135	417017	keystroke_e	e	n/a
208.8685	0.09	417737	keystroke_d	d	n/a
209.1535	0.195	418307	keystroke_e	e	n/a
209.3035	0.135	418607	keystroke_r	r	n/a
209.6335	0.075	419267	keystroke_i	i	n/a
209.9335	0.075	419867	keystroke_c	c	n/a
210.0835	0.075	420167	keystroke_k	k	n/a
210.3685	0.1355	420737	keystroke_Key.space	Key.space	n/a
211.5685	0.075	423137	keystroke_k	k	n/a
212.0635	0.03	424127	keystroke_i	i	n/a
212.2585	0.0905	424517	keystroke_l	l	n/a
212.4385	0.09	424877	keystroke_l	l	n/a
212.6485	0.105	425297	keystroke_e	e	n/a
212.904	0.075	425808	keystroke_d	d	n/a
213.399	0.075	426798	keystroke_Key.space	Key.space	n/a
213.759	0.09	427518	keystroke_h	h	n/a
213.894	0.135	427788	keystroke_o	o	n/a
214.074	0.12	428148	keystroke_s	s	n/a
214.2685	0.105	428537	keystroke_p	p	n/a
214.5685	0.075	429137	keystroke_i	i	n/a
214.869	0.105	429738	keystroke_t	t	n/a
215.259	0.12	430518	keystroke_a	a	n/a
215.544	0.12	431088	keystroke_l	l	n/a
215.8135	0.06	431627	keystroke_i	i	n/a
215.9935	0.0755	431987	keystroke_t	t	n/a
216.099	0.09	432198	keystroke_y	y	n/a
216.4435	0.076	432887	keystroke_Key.space	Key.space	n/a
216.6545	0.09	433309	keystroke_m	m	n/a
216.8495	0.2095	433699	keystroke_e	e	n/a
217.074	0.15	434148	keystroke_r	r	n/a
217.314	0.09	434628	keystroke_e	e	n/a
217.524	0.09	435048	keystroke_Key.enter	Key.enter	n/a
217.618	11.3525	435236	prompt	n/a	tracked scenarios echo foster\n
218.379	0.09	436758	keystroke_t	t	n/a
218.694	0.15	437388	keystroke_r	r	n/a
219.099	0.12	438198	keystroke_a	a	n/a
219.399	0.09	438798	keystroke_c	c	n/a
219.729	0.075	439458	keystroke_k	k	n/a
219.999	0.12	439998	keystroke_e	e	n/a
220.269	0.09	440538	keystroke_d	d	n/a
220.494	0.09	440988	keystroke_Key.space	Key.space	n/a
220.824	0.135	441648	keystroke_s	s	n/a
221.6035	0.015	443207	keystroke_c	c	n/a
221.7685	0.105	443537	keystroke_e	e	n/a
222.159	0.045	444318	keystroke_n	n	n/a
222.5485	0.135	445097	keystroke_a	a	n/a
222.7135	0.12	445427	keystroke_r	r	n/a
222.9985	0.075	445997	keystroke_i	i	n/a
223.2085	0.075	446417	keystroke_o	o	n/a
223.4335	0.105	446867	keystroke_s	s	n/a
223.7785	0.075	447557	keystroke_Key.space	Key.space	n/a
224.6635	0.09	449327	keystroke_e	e	n/a
225.0385	0.0755	450077	keystroke_c	c	n/a
225.2635	0.09	450527	keystroke_h	h	n/a
225.4435	0.1055	450887	keystroke_o	o	n/a
225.8935	0.075	451787	keystroke_Key.space	Key.space	n/a
226.4785	0.075	452957	keystroke_f	f	n/a
226.7335	0.075	453467	keystroke_a	a	n/a
227.3635	0.045	454727	keystroke_Key.backspace	Key.backspace	n/a
227.8735	0.09	455747	keystroke_o	o	n/a
228.1135	0.165	456227	keystroke_s	s	n/a
228.3385	0.09	456677	keystroke_t	t	n/a
228.5785	0.1655	457157	keystroke_e	e	n/a
228.699	0.105	457398	keystroke_r	r	n/a
228.864	0.105	457728	keystroke_Key.enter	Key.enter	n/a
228.9735	14.217	457947	prompt	n/a	treatments contributions determined aimed\n
229.6735	0.09	459347	keystroke_t	t	n/a
229.9285	0.12	459857	keystroke_r	r	n/a
230.1835	0.135	460367	keystroke_e	e	n/a
230.769	0.075	461538	keystroke_t	t	n/a
231.039	0.09	462078	keystroke_m	m	n/a
231.3695	0.105	462739	keystroke_e	e	n/a
231.5495	0.089	463099	keystroke_n	n	n/a
231.684	0.09	463368	keystroke_t	t	n/a
232.0445	0.074	464089	keystroke_s	s	n/a
232.269	0.0895	464538	keystroke_Key.space	Key.space	n/a
232.599	0.09	465198	keystroke_c	c	n/a
232.764	0.075	465528	keystroke_o	o	n/a
232.974	0.12	465948	keystroke_n	n	n/a
233.4535	0.09	466907	keystroke_t	t	n/a
233.8585	0.106	467717	keystroke_r	r	n/a
234.639	0.06	469278	keystroke_i	i	n/a
235.629	0.0745	471258	keystroke_b	b	n/a
235.8535	0.075	471707	keystroke_u	u	n/a
236.064	0.075	472128	keystroke_t	t	n/a
236.169	0.09	472338	keystroke_i	i	n/a
236.6185	0.105	473237	keystroke_o	o	n/a
236.8885	0.09	473777	keystroke_n	n	n/a
237.099	0.105	474198	keystroke_s	s	n/a
237.3835	0.09	474767	keystroke_Key.space	Key.space	n/a
237.834	0.09	475668	keystroke_d	d	n/a
238.239	0.105	476478	keystroke_e	e	n/a
238.839	0.195	477678	keystroke_t	t	n/a
239.109	0.165	478218	keystroke_e	e	n/a
239.229	0.105	478458	keystroke_r	r	n/a
239.754	0.075	479508	keystroke_m	m	n/a
240.264	0.06	480528	keystroke_i	i	n/a
240.459	0.075	480918	keystroke_n	n	n/a
240.669	0.105	481338	keystroke_e	e	n/a
240.939	0.09	481878	keystroke_d	d	n/a
241.149	0.09	482298	keystroke_Key.space	Key.space	n/a
241.599	0.015	483198	keystroke_a	a	n/a
241.719	0.075	483438	keystroke_i	i	n/a
242.394	0.075	484788	keystroke_m	m	n/a
242.619	0.105	485238	keystroke_e	e	n/a
242.904	0.075	485808	keystroke_d	d	n/a
243.069	0.12	486138	keystroke_Key.enter	Key.enter	n/a
243.1935	7.797	486387	prompt	n/a	betting looking pure added\n
243.8945	0.09	487789	keystroke_b	b	n/a
244.1345	0.104	488269	keystroke_e	e	n/a
244.569	0.09	489138	keystroke_t	t	n/a
244.734	0.09	489468	keystroke_t	t	n/a
244.869	0.09	489738	keystroke_i	i	n/a
245.019	0.12	490038	keystroke_n	n	n/a
245.139	0.075	490278	keystroke_g	g	n/a
245.349	0.09	490698	keystroke_Key.space	Key.space	n/a
245.604	0.09	491208	keystroke_l	l	n/a
245.874	0.105	491748	keystroke_o	o	n/a
246.0835	0.105	492167	keystroke_o	o	n/a
246.6685	0.015	493337	keystroke_k	k	n/a
246.9085	0.045	493817	keystroke_i	i	n/a
247.0285	0.09	494057	keystroke_n	n	n/a
247.2535	0.06	494507	keystroke_g	g	n/a
247.4335	0.075	494867	keystroke_Key.space	Key.space	n/a
247.8385	0.105	495677	keystroke_p	p	n/a
248.0335	0.09	496067	keystroke_u	u	n/a
248.2585	0.09	496517	keystroke_r	r	n/a
248.679	0.075	497358	keystroke_e	e	n/a
248.814	0.075	497628	keystroke_Key.space	Key.space	n/a
249.234	0.12	498468	keystroke_a	a	n/a
249.549	0.105	499098	keystroke_d	d	n/a
249.759	0.105	499518	keystroke_d	d	n/a
250.359	0.105	500718	keystroke_e	e	n/a
250.614	0.09	501228	keystroke_d	d	n/a
250.899	0.09	501798	keystroke_Key.enter	Key.enter	n/a
250.9935	9.357	501987	prompt	n/a	boston bleeding centuries mild\n
251.7535	0.09	503507	keystroke_b	b	n/a
252.1435	0.045	504287	keystroke_o	o	n/a
252.3235	0.105	504647	keystroke_s	s	n/a
252.5485	0.09	505097	keystroke_t	t	n/a
252.6535	0.15	505307	keystroke_o	o	n/a
252.9085	0.105	505817	keystroke_n	n	n/a
253.1635	0.09	506327	keystroke_Key.space	Key.space	n/a
253.4335	0.075	506867	keystroke_b	b	n/a
254.5885	0.075	509177	keystroke_l	l	n/a
255.1735	0.09	510347	keystroke_e	e	n/a
255.3535	0.1055	510707	keystroke_e	e	n/a
255.6685	0.075	511337	keystroke_d	d	n/a
255.8335	0.0755	511667	keystroke_i	i	n/a
255.999	0.075	511998	keystroke_n	n	n/a
256.149	0.09	512298	keystroke_g	g	n/a
256.329	0.09	512658	keystroke_Key.space	Key.space	n/a
256.944	0.135	513888	keystroke_c	c	n/a
257.319	0.1045	514638	keystroke_e	e	n/a
257.5285	0.09	515057	keystroke_n	n	n/a
257.7685	0.12	515537	keystroke_t	t	n/a
257.9935	0.09	515987	keystroke_u	u	n/a
258.1735	0.135	516347	keystroke_r	r	n/a
258.4135	0.075	516827	keystroke_i	i	n/a
258.6535	0.12	517307	keystroke_e	e	n/a
258.9085	0.105	517817	keystroke_s	s	n/a
259.0735	0.105	518147	keystroke_Key.space	Key.space	n/a
259.3735	0.075	518747	keystroke_m	m	n/a
259.6285	0.06	519257	keystroke_i	i	n/a
259.809	0.075	519618	keystroke_l	l	n/a
260.0345	0.09	520069	keystroke_d	d	n/a
260.244	0.105	520488	keystroke_Key.enter	Key.enter	n/a
260.354	9.0265	520708	prompt	n/a	syria default water humidity\n
261.039	0.1045	522078	keystroke_s	s	n/a
261.2335	0.075	522467	keystroke_y	y	n/a
261.549	0.105	523098	keystroke_r	r	n/a
261.7135	0.075	523427	keystroke_i	i	n/a
261.969	0.105	523938	keystroke_a	a	n/a
262.134	0.09	524268	keystroke_Key.space	Key.space	n/a
262.5235	0.105	525047	keystroke_d	d	n/a
262.7485	0.12	525497	keystroke_e	e	n/a
263.604	0.06	527208	keystroke_f	f	n/a
264.024	0.045	528048	keystroke_a	a	n/a
264.234	0.09	528468	keystroke_u	u	n/a
264.8335	0.06	529667	keystroke_l	l	n/a
264.9835	0.09	529967	keystroke_t	t	n/a
265.1935	0.09	530387	keystroke_Key.space	Key.space	n/a
265.4785	0.135	530957	keystroke_w	w	n/a
265.749	0.12	531498	keystroke_a	a	n/a
266.034	0.12	532068	keystroke_t	t	n/a
266.274	0.1945	532548	keystroke_e	e	n/a
266.409	0.1195	532818	keystroke_r	r	n/a
266.6185	0.09	533237	keystroke_Key.space	Key.space	n/a
267.1285	0.075	534257	keystroke_h	h	n/a
267.3385	0.0755	534677	keystroke_u	u	n/a
267.654	0.0595	535308	keystroke_m	m	n/a
267.924	0.06	535848	keystroke_i	i	n/a
268.1635	0.075	536327	keystroke_d	d	n/a
268.3735	0.06	536747	keystroke_i	i	n/a
268.824	0.06	537648	keystroke_t	t	n/a
268.989	0.075	537978	keystroke_y	y	n/a
269.289	0.09	538578	keystroke_Key.enter	Key.enter	n/a
269.383	10.6025	538766	prompt	n/a	ascii appointment productions carolina\n
270.294	0.105	540588	keystroke_a	a	n/a
270.564	0.105	541128	keystroke_s	s	n/a
270.999	0.075	541998	keystroke_c	c	n/a
271.389	0.06	542778	keystroke_i	i	n/a
271.569	0.06	543138	keystroke_i	i	n/a
271.8235	0.09	543647	keystroke_Key.space	Key.space	n/a
272.1235	0.1055	544247	keystroke_a	a	n/a
272.349	0.075	544698	keystroke_p	p	n/a
272.529	0.09	545058	keystroke_p	p	n/a
272.799	0.09	545598	keystroke_o	o	n/a
273.129	0.075	546258	keystroke_i	i	n/a
273.369	0.09	546738	keystroke_n	n	n/a
273.624	0.0745	547248	keystroke_t	t	n/a
273.8785	0.0455	547757	keystroke_m	m	n/a
274.089	0.1045	548178	keystroke_e	e	n/a
274.284	0.09	548568	keystroke_n	n	n/a
274.419	0.09	548838	keystroke_t	t	n/a
274.659	0.075	549318	keystroke_Key.space	Key.space	n/a
274.974	0.105	549948	keystroke_p	p	n/a
275.154	0.12	550308	keystroke_r	r	n/a
275.379	0.105	550758	keystroke_o	o	n/a
275.6635	0.12	551327	keystroke_d	d	n/a
275.8735	0.075	551747	keystroke_u	u	n/a
276.159	0.105	552318	keystroke_c	c	n/a
276.399	0.09	552798	keystroke_t	t	n/a
276.519	0.09	553038	keystroke_i	i	n/a
276.714	0.09	553428	keystroke_o	o	n/a
276.924	0.06	553848	keystroke_n	n	n/a
277.044	0.12	554088	keystroke_s	s	n/a
277.299	0.075	554598	keystroke_Key.space	Key.space	n/a
277.629	0.1195	555258	keystroke_c	c	n/a
277.9435	0.135	555887	keystroke_a	a	n/a
278.1085	0.12	556217	keystroke_r	r	n/a
278.4985	0.12	556997	keystroke_o	o	n/a
278.8135	0.105	557627	keystroke_l	l	n/a
279.0535	0.06	558107	keystroke_i	i	n/a
279.2185	0.105	558437	keystroke_n	n	n/a
279.699	0.09	559398	keystroke_a	a	n/a
279.894	0.09	559788	keystroke_Key.enter	Key.enter	n/a
279.9885	11.742	559977	prompt	n/a	prix detector eugene assessments\n
280.749	0.09	561498	keystroke_p	p	n/a
281.019	0.09	562038	keystroke_r	r	n/a
281.514	0.06	563028	keystroke_i	i	n/a
281.889	0.105	563778	keystroke_z	z	n/a
282.444	0.075	564888	keystroke_Key.backspace	Key.backspace	n/a
282.5935	0.12	565187	keystroke_x	x	n/a
283.0285	0.06	566057	keystroke_Key.space	Key.space	n/a
283.479	0.105	566958	keystroke_d	d	n/a
283.734	0.12	567468	keystroke_e	e	n/a
284.094	0.09	568188	keystroke_t	t	n/a
284.4985	0.135	568997	keystroke_e	e	n/a
284.8585	0.09	569717	keystroke_c	c	n/a
285.129	0.075	570258	keystroke_t	t	n/a
285.354	0.0905	570708	keystroke_o	o	n/a
285.5195	0.09	571039	keystroke_r	r	n/a
285.789	0.09	571578	keystroke_Key.space	Key.space	n/a
286.419	0.0905	572838	keystroke_e	e	n/a
286.7195	0.06	573439	keystroke_u	u	n/a
286.9595	0.09	573919	keystroke_g	g	n/a
287.1835	0.121	574367	keystroke_e	e	n/a
287.3335	0.091	574667	keystroke_n	n	n/a
287.8285	0.075	575657	keystroke_e	e	n/a
288.0985	0.106	576197	keystroke_Key.space	Key.space	n/a
289.2085	0.091	578417	keystroke_a	a	n/a
289.5845	0.09	579169	keystroke_s	s	n/a
289.7645	0.09	579529	keystroke_s	s	n/a
290.0045	0.12	580009	keystroke_e	e	n/a
290.3195	0.09	580639	keystroke_s	s	n/a
290.4845	0.1045	580969	keystroke_s	s	n/a
290.724	0.075	581448	keystroke_m	m	n/a
290.844	0.1355	581688	keystroke_e	e	n/a
291.0095	0.1045	582019	keystroke_n	n	n/a
291.129	0.09	582258	keystroke_t	t	n/a
291.384	0.105	582768	keystroke_s	s	n/a
291.624	0.105	583248	keystroke_Key.enter	Key.enter	n/a
291.735	8.8455	583470	prompt	n/a	http smart poland collector\n
292.5085	0.075	585017	keystroke_h	h	n/a
293.274	0.075	586548	keystroke_t	t	n/a
293.439	0.075	586878	keystroke_t	t	n/a
293.619	0.105	587238	keystroke_p	p	n/a
293.844	0.105	587688	keystroke_Key.space	Key.space	n/a
294.309	0.09	588618	keystroke_s	s	n/a
294.489	0.06	588978	keystroke_m	m	n/a
294.6535	0.15	589307	keystroke_a	a	n/a
294.8335	0.105	589667	keystroke_r	r	n/a
295.0435	0.075	590087	keystroke_t	t	n/a
295.1935	0.105	590387	keystroke_Key.space	Key.space	n/a
295.6135	0.1055	591227	keystroke_p	p	n/a
295.899	0.09	591798	keystroke_o	o	n/a
296.109	0.09	592218	keystroke_l	l	n/a
296.5885	0.105	593177	keystroke_a	a	n/a
296.7085	0.075	593417	keystroke_n	n	n/a
296.9035	0.075	593807	keystroke_d	d	n/a
297.0685	0.09	594137	keystroke_Key.space	Key.space	n/a
298.2685	0.0755	596537	keystroke_c	c	n/a
298.524	0.075	597048	keystroke_o	o	n/a
299.1385	0.06	598277	keystroke_l	l	n/a
299.3185	0.075	598637	keystroke_l	l	n/a
299.4835	0.135	598967	keystroke_e	e	n/a
299.7385	0.075	599477	keystroke_c	c	n/a
299.9335	0.075	599867	keystroke_t	t	n/a
300.0235	0.105	600047	keystroke_o	o	n/a
300.2335	0.09	600467	keystroke_r	r	n/a
300.4585	0.12	600917	keystroke_Key.enter	Key.enter	n/a
300.5835	11.157	601167	prompt	n/a	heritage michigan clarity loved\n
301.389	0.045	602778	keystroke_h	h	n/a
301.614	0.12	603228	keystroke_e	e	n/a
301.914	0.09	603828	keystroke_r	r	n/a
302.154	0.06	604308	keystroke_i	i	n/a
302.394	0.09	604788	keystroke_t	t	n/a
302.649	0.12	605298	keystroke_a	a	n/a
302.844	0.105	605688	keystroke_g	g	n/a
303.084	0.12	606168	keystroke_e	e	n/a
303.324	0.075	606648	keystroke_Key.space	Key.space	n/a
303.579	0.075	607158	keystroke_m	m	n/a
303.8785	0.0905	607757	keystroke_c	c	n/a
304.239	0.045	608478	keystroke_i	i	n/a
304.974	0.0595	609948	keystroke_Key.backspace	Key.backspace	n/a
305.2135	0.06	610427	keystroke_Key.backspace	Key.backspace	n/a
305.6635	0.076	611327	keystroke_i	i	n/a
305.8435	0.09	611687	keystroke_c	c	n/a
305.9785	0.091	611957	keystroke_h	h	n/a
306.2185	0.075	612437	keystroke_i	i	n/a
306.5935	0.06	613187	keystroke_a	a	n/a
307.2535	0.075	614507	keystroke_Key.backspace	Key.backspace	n/a
307.7935	0.09	615587	keystroke_g	g	n/a
307.9885	0.105	615977	keystroke_a	a	n/a
308.1235	0.105	616247	keystroke_n	n	n/a
308.454	0.09	616908	keystroke_Key.space	Key.space	n/a
308.7535	0.105	617507	keystroke_c	c	n/a
308.9185	0.09	617837	keystroke_l	l	n/a
309.1135	0.12	618227	keystroke_a	a	n/a
309.4435	0.105	618887	keystroke_r	r	n/a
309.6535	0.075	619307	keystroke_i	i	n/a
309.8785	0.09	619757	keystroke_t	t	n/a
310.0135	0.09	620027	keystroke_y	y	n/a
310.2835	0.09	620567	keystroke_Key.space	Key.space	n/a
310.5235	0.105	621047	keystroke_l	l	n/a
310.7485	0.1055	621497	keystroke_o	o	n/a
310.914	0.1045	621828	keystroke_v	v	n/a
311.1385	0.135	622277	keystroke_e	e	n/a
311.4235	0.1055	622847	keystroke_d	d	n/a
311.634	0.1045	623268	keystroke_Key.enter	Key.enter	n/a
311.7435	6.4165	623487	prompt	n/a	blair full open sleep\n
312.8035	0.09	625607	keystroke_b	b	n/a
312.9985	0.075	625997	keystroke_l	l	n/a
313.3135	0.12	626627	keystroke_a	a	n/a
313.4485	0.075	626897	keystroke_i	i	n/a
313.6585	0.1055	627317	keystroke_r	r	n/a
313.884	0.09	627768	keystroke_Key.space	Key.space	n/a
314.244	0.12	628488	keystroke_f	f	n/a
314.394	0.09	628788	keystroke_u	u	n/a
314.694	0.09	629388	keystroke_l	l	n/a
314.889	0.09	629778	keystroke_l	l	n/a
315.234	0.09	630468	keystroke_Key.space	Key.space	n/a
315.474	0.105	630948	keystroke_o	o	n/a
315.714	0.105	631428	keystroke_p	p	n/a
315.909	0.12	631818	keystroke_e	e	n/a
316.089	0.075	632178	keystroke_n	n	n/a
316.359	0.075	632718	keystroke_Key.space	Key.space	n/a
316.629	0.105	633258	keystroke_s	s	n/a
316.749	0.12	633498	keystroke_l	l	n/a
317.214	0.06	634428	keystroke_e	e	n/a
317.5435	0.091	635087	keystroke_e	e	n/a
317.709	0.1205	635418	keystroke_p	p	n/a
318.114	0.045	636228	keystroke_Key.enter	Key.enter	n/a
318.163	9.3125	636326	prompt	n/a	love supervision bloom audit\n
319.0435	0.075	638087	keystroke_l	l	n/a
319.254	0.075	638508	keystroke_o	o	n/a
319.389	0.105	638778	keystroke_v	v	n/a
319.614	0.105	639228	keystroke_e	e	n/a
319.749	0.09	639498	keystroke_Key.space	Key.space	n/a
319.989	0.105	639978	keystroke_s	s	n/a
320.154	0.09	640308	keystroke_u	u	n/a
320.379	0.06	640758	keystroke_r	r	n/a
320.949	0.0895	641898	keystroke_Key.backspace	Key.backspace	n/a
321.3835	0.09	642767	keystroke_p	p	n/a
321.5785	0.12	643157	keystroke_e	e	n/a
321.6685	0.12	643337	keystroke_r	r	n/a
322.2235	0.09	644447	keystroke_v	v	n/a
322.3885	0.045	644777	keystroke_i	i	n/a
322.7035	0.105	645407	keystroke_s	s	n/a
323.2885	0.12	646577	keystroke_o	o	n/a
323.5885	0.0905	647177	keystroke_n	n	n/a
323.889	0.09	647778	keystroke_Key.space	Key.space	n/a
324.159	0.09	648318	keystroke_b	b	n/a
324.444	0.09	648888	keystroke_l	l	n/a
324.804	0.075	649608	keystroke_o	o	n/a
324.999	0.105	649998	keystroke_o	o	n/a
325.254	0.075	650508	keystroke_m	m	n/a
325.554	0.075	651108	keystroke_Key.space	Key.space	n/a
325.8085	0.105	651617	keystroke_a	a	n/a
326.2585	0.075	652517	keystroke_u	u	n/a
326.4985	0.09	652997	keystroke_d	d	n/a
326.9935	0.045	653987	keystroke_i	i	n/a
327.1735	0.09	654347	keystroke_t	t	n/a
327.369	0.105	654738	keystroke_Key.enter	Key.enter	n/a
327.478	10.6025	654956	prompt	n/a	italic tennis deaf instructional\n
328.4035	0.03	656807	keystroke_i	i	n/a
328.6285	0.09	657257	keystroke_t	t	n/a
328.9285	0.105	657857	keystroke_a	a	n/a
329.3335	0.09	658667	keystroke_l	l	n/a
329.574	0.0595	659148	keystroke_i	i	n/a
329.7685	0.09	659537	keystroke_c	c	n/a
329.9935	0.075	659987	keystroke_Key.space	Key.space	n/a
330.2185	0.105	660437	keystroke_t	t	n/a
330.4435	0.12	660887	keystroke_e	e	n/a
330.7435	0.15	661487	keystroke_n	n	n/a
331.0135	0.075	662027	keystroke_n	n	n/a
331.253	0.076	662506	keystroke_i	i	n/a
331.4335	0.1055	662867	keystroke_s	s	n/a
331.644	0.1045	663288	keystroke_Key.space	Key.space	n/a
331.9595	0.1045	663919	keystroke_d	d	n/a
332.214	0.09	664428	keystroke_e	e	n/a
332.454	0.12	664908	keystroke_a	a	n/a
332.9795	0.059	665959	keystroke_f	f	n/a
333.3685	0.075	666737	keystroke_Key.space	Key.space	n/a
334.0135	0.046	668027	keystroke_i	i	n/a
334.194	0.075	668388	keystroke_n	n	n/a
334.434	0.105	668868	keystroke_s	s	n/a
334.704	0.0895	669408	keystroke_t	t	n/a
334.9435	0.075	669887	keystroke_u	u	n/a
335.6185	0.0755	671237	keystroke_Key.backspace	Key.backspace	n/a
335.934	0.09	671868	keystroke_r	r	n/a
336.084	0.09	672168	keystroke_u	u	n/a
336.459	0.09	672918	keystroke_c	c	n/a
336.699	0.06	673398	keystroke_t	t	n/a
336.789	0.075	673578	keystroke_i	i	n/a
336.9985	0.09	673997	keystroke_o	o	n/a
337.1935	0.09	674387	keystroke_n	n	n/a
337.4185	0.105	674837	keystroke_a	a	n/a
337.5685	0.12	675137	keystroke_l	l	n/a
337.9885	0.09	675977	keystroke_Key.enter	Key.enter	n/a
338.0835	10.452	676167	prompt	n/a	specific search conflicts outputs\n
338.754	0.105	677508	keystroke_s	s	n/a
338.934	0.09	677868	keystroke_p	p	n/a
339.459	0.06	678918	keystroke_e	e	n/a
339.6835	0.09	679367	keystroke_c	c	n/a
340.0435	0.06	680087	keystroke_i	i	n/a
340.2235	0.09	680447	keystroke_f	f	n/a
340.4335	0.06	680867	keystroke_i	i	n/a
340.7185	0.075	681437	keystroke_c	c	n/a
340.8535	0.105	681707	keystroke_Key.space	Key.space	n/a
341.199	0.12	682398	keystroke_s	s	n/a
341.994	0.105	683988	keystroke_e	e	n/a
342.279	0.105	684558	keystroke_a	a	n/a
343.2835	0.075	686567	keystroke_r	r	n/a
343.5535	0.09	687107	keystroke_c	c	n/a
343.704	0.0895	687408	keystroke_h	h	n/a
344.094	0.075	688188	keystroke_Key.space	Key.space	n/a
344.394	0.09	688788	keystroke_c	c	n/a
344.604	0.09	689208	keystroke_o	o	n/a
344.799	0.12	689598	keystroke_n	n	n/a
344.979	0.075	689958	keystroke_f	f	n/a
345.294	0.075	690588	keystroke_l	l	n/a
345.519	0.075	691038	keystroke_i	i	n/a
345.6835	0.105	691367	keystroke_c	c	n/a
345.924	0.09	691848	keystroke_t	t	n/a
346.239	0.12	692478	keystroke_s	s	n/a
346.494	0.1045	692988	keystroke_Key.space	Key.space	n/a
346.839	0.09	693678	keystroke_o	o	n/a
346.974	0.12	693948	keystroke_u	u	n/a
347.169	0.09	694338	keystroke_t	t	n/a
347.559	0.105	695118	keystroke_p	p	n/a
347.7545	0.09	695509	keystroke_u	u	n/a
347.9195	0.105	695839	keystroke_t	t	n/a
348.2045	0.12	696409	keystroke_s	s	n/a
348.4445	0.09	696889	keystroke_Key.enter	Key.enter	n/a
348.5395	9.671	697079	prompt	n/a	explains cold wizard employer\n
349.629	0.09	699258	keystroke_e	e	n/a
350.064	0.09	700128	keystroke_x	x	n/a
350.319	0.075	700638	keystroke_p	p	n/a
350.739	0.075	701478	keystroke_l	l	n/a
350.964	0.09	701928	keystroke_a	a	n/a
351.204	0.09	702408	keystroke_i	i	n/a
351.399	0.0905	702798	keystroke_n	n	n/a
351.6395	0.089	703279	keystroke_s	s	n/a
351.8035	0.0755	703607	keystroke_Key.space	Key.space	n/a
352.119	0.105	704238	keystroke_c	c	n/a
352.254	0.09	704508	keystroke_o	o	n/a
352.434	0.105	704868	keystroke_l	l	n/a
352.584	0.105	705168	keystroke_d	d	n/a
352.749	0.105	705498	keystroke_Key.space	Key.space	n/a
353.379	0.105	706758	keystroke_w	w	n/a
353.634	0.045	707268	keystroke_i	i	n/a
353.859	0.09	707718	keystroke_z	z	n/a
354.249	0.105	708498	keystroke_a	a	n/a
354.474	0.12	708948	keystroke_r	r	n/a
354.7885	0.091	709577	keystroke_d	d	n/a
355.0435	0.09	710087	keystroke_Key.space	Key.space	n/a
355.5535	0.105	711107	keystroke_e	e	n/a
355.7035	0.1505	711407	keystroke_m	m	n/a
356.3785	0.105	712757	keystroke_p	p	n/a
356.709	0.075	713418	keystroke_l	l	n/a
356.994	0.09	713988	keystroke_o	o	n/a
357.594	0.06	715188	keystroke_y	y	n/a
357.8185	0.135	715637	keystroke_e	e	n/a
357.9235	0.09	715847	keystroke_r	r	n/a
358.0885	0.12	716177	keystroke_Key.enter	Key.enter	n/a
358.2135	10.452	716427	prompt	n/a	west delay establishing fishing\n
358.914	0.105	717828	keystroke_w	w	n/a
359.094	0.105	718188	keystroke_e	e	n/a
359.334	0.075	718668	keystroke_s	s	n/a
359.514	0.105	719028	keystroke_t	t	n/a
359.6785	0.09	719357	keystroke_Key.space	Key.space	n/a
359.9185	0.105	719837	keystroke_d	d	n/a
360.144	0.12	720288	keystroke_e	e	n/a
360.3385	0.09	720677	keystroke_l	l	n/a
360.5185	0.12	721037	keystroke_a	a	n/a
360.6685	0.09	721337	keystroke_y	y	n/a
360.9985	0.075	721997	keystroke_Key.space	Key.space	n/a
361.2985	0.12	722597	keystroke_e	e	n/a
361.7335	0.045	723467	keystroke_s	s	n/a
361.8385	0.12	723677	keystroke_t	t	n/a
362.1235	0.15	724247	keystroke_a	a	n/a
362.8435	0.075	725687	keystroke_t	t	n/a
364.359	0.075	728718	keystroke_Key.backspace	Key.backspace	n/a
364.779	0.105	729558	keystroke_b	b	n/a
365.079	0.075	730158	keystroke_l	l	n/a
365.349	0.075	730698	keystroke_i	i	n/a
365.5595	0.105	731119	keystroke_s	s	n/a
365.679	0.105	731358	keystroke_h	h	n/a
365.874	0.075	731748	keystroke_i	i	n/a
366.054	0.075	732108	keystroke_n	n	n/a
366.174	0.09	732348	keystroke_g	g	n/a
366.339	0.12	732678	keystroke_Key.space	Key.space	n/a
366.9545	0.045	733909	keystroke_f	f	n/a
367.1045	0.075	734209	keystroke_i	i	n/a
367.4795	0.09	734959	keystroke_s	s	n/a
367.6295	0.105	735259	keystroke_h	h	n/a
367.8245	0.105	735649	keystroke_i	i	n/a
367.9895	0.09	735979	keystroke_n	n	n/a
368.1395	0.09	736279	keystroke_g	g	n/a
368.5585	0.105	737117	keystroke_Key.enter	Key.enter	n/a
368.6685	10.962	737337	prompt	n/a	andrew ghost thou barcelona\n
369.4145	0.105	738829	keystroke_a	a	n/a
369.774	0.09	739548	keystroke_n	n	n/a
370.014	0.105	740028	keystroke_d	d	n/a
370.374	0.165	740748	keystroke_r	r	n/a
370.659	0.1355	741318	keystroke_e	e	n/a
370.9145	0.149	741829	keystroke_w	w	n/a
371.2885	0.0905	742577	keystroke_Key.space	Key.space	n/a
371.6785	0.075	743357	keystroke_g	g	n/a
372.8945	0.074	745789	keystroke_h	h	n/a
373.1635	0.105	746327	keystroke_o	o	n/a
373.4335	0.105	746867	keystroke_s	s	n/a
373.7485	0.09	747497	keystroke_t	t	n/a
374.0935	0.075	748187	keystroke_Key.space	Key.space	n/a
374.5435	0.105	749087	keystroke_t	t	n/a
374.7235	0.09	749447	keystroke_h	h	n/a
374.9335	0.105	749867	keystroke_o	o	n/a
375.0835	0.12	750167	keystroke_u	u	n/a
375.4285	0.09	750857	keystroke_Key.space	Key.space	n/a
375.6985	0.075	751397	keystroke_b	b	n/a
376.0285	0.12	752057	keystroke_a	a	n/a
376.2385	0.135	752477	keystroke_r	r	n/a
377.514	0.09	755028	keystroke_c	c	n/a
378.219	0.105	756438	keystroke_e	e	n/a
378.504	0.12	757008	keystroke_l	l	n/a
378.804	0.105	757608	keystroke_o	o	n/a
379.044	0.09	758088	keystroke_n	n	n/a
379.299	0.12	758598	keystroke_a	a	n/a
379.524	0.105	759048	keystroke_Key.enter	Key.enter	n/a
379.6335	13.137	759267	prompt	n/a	rangers administrator exercises trees\n
380.5435	0.09	761087	keystroke_r	r	n/a
380.7985	0.105	761597	keystroke_a	a	n/a
380.9185	0.1205	761837	keystroke_n	n	n/a
381.174	0.09	762348	keystroke_g	g	n/a
381.399	0.15	762798	keystroke_e	e	n/a
381.504	0.12	763008	keystroke_r	r	n/a
381.7895	0.135	763579	keystroke_s	s	n/a
382.0595	0.09	764119	keystroke_Key.space	Key.space	n/a
382.3145	0.12	764629	keystroke_a	a	n/a
382.5545	0.12	765109	keystroke_d	d	n/a
382.8245	0.09	765649	keystroke_m	m	n/a
383.0195	0.075	766039	keystroke_i	i	n/a
383.1995	0.1045	766399	keystroke_n	n	n/a
383.469	0.075	766938	keystroke_i	i	n/a
383.7695	0.105	767539	keystroke_s	s	n/a
384.0245	0.09	768049	keystroke_t	t	n/a
384.3845	0.09	768769	keystroke_r	r	n/a
384.7595	0.12	769519	keystroke_a	a	n/a
384.9545	0.09	769909	keystroke_t	t	n/a
385.2245	0.105	770449	keystroke_o	o	n/a
385.4345	0.12	770869	keystroke_r	r	n/a
385.7045	0.09	771409	keystroke_Key.space	Key.space	n/a
386.0345	0.135	772069	keystroke_e	e	n/a
386.4695	0.12	772939	keystroke_x	x	n/a
386.904	0.09	773808	keystroke_r	r	n/a
387.5945	0.09	775189	keystroke_c	c	n/a
387.8495	0.074	775699	keystroke_i	i	n/a
388.059	0.135	776118	keystroke_e	e	n/a
389.334	0.075	778668	keystroke_Key.backspace	Key.backspace	n/a
390.5185	0.106	781037	keystroke_s	s	n/a
390.7285	0.12	781457	keystroke_e	e	n/a
391.0135	0.105	782027	keystroke_s	s	n/a
391.2235	0.105	782447	keystroke_Key.space	Key.space	n/a
391.419	0.09	782838	keystroke_t	t	n/a
391.869	0.045	783738	keystroke_r	r	n/a
391.959	0.12	783918	keystroke_e	e	n/a
392.169	0.105	784338	keystroke_e	e	n/a
392.424	0.12	784848	keystroke_s	s	n/a
392.664	0.105	785328	keystroke_Key.enter	Key.enter	n/a
392.776	9.5645	785552	prompt	n/a	conducted ruby static steel\n
393.6835	0.09	787367	keystroke_c	c	n/a
393.9535	0.015	787907	keystroke_o	o	n/a
394.0135	0.165	788027	keystroke_n	n	n/a
394.5235	0.09	789047	keystroke_d	d	n/a
394.7935	0.075	789587	keystroke_u	u	n/a
395.0935	0.075	790187	keystroke_c	c	n/a
395.3185	0.075	790637	keystroke_t	t	n/a
397.179	0.105	794358	keystroke_e	e	n/a
397.4495	0.075	794899	keystroke_d	d	n/a
397.7195	0.075	795439	keystroke_Key.space	Key.space	n/a
398.0195	0.105	796039	keystroke_r	r	n/a
398.2145	0.0895	796429	keystroke_u	u	n/a
398.484	0.105	796968	keystroke_b	b	n/a
398.709	0.09	797418	keystroke_y	y	n/a
398.934	0.105	797868	keystroke_Key.space	Key.space	n/a
399.249	0.12	798498	keystroke_s	s	n/a
399.459	0.12	798918	keystroke_t	t	n/a
399.699	0.12	799398	keystroke_a	a	n/a
399.834	0.105	799668	keystroke_t	t	n/a
399.999	0.075	799998	keystroke_i	i	n/a
400.284	0.09	800568	keystroke_c	c	n/a
400.479	0.09	800958	keystroke_Key.space	Key.space	n/a
400.734	0.12	801468	keystroke_s	s	n/a
400.989	0.105	801978	keystroke_t	t	n/a
401.604	0.0905	803208	keystroke_e	e	n/a
401.7695	0.105	803539	keystroke_e	e	n/a
401.9795	0.105	803959	keystroke_l	l	n/a
402.2645	0.075	804529	keystroke_Key.enter	Key.enter	n/a
402.343	10.1375	804686	prompt	n/a	tired magnetic furnishings aids\n
403.059	0.105	806118	keystroke_t	t	n/a
403.494	0.06	806988	keystroke_i	i	n/a
403.704	0.105	807408	keystroke_r	r	n/a
403.9445	0.105	807889	keystroke_e	e	n/a
404.2145	0.075	808429	keystroke_d	d	n/a
404.4395	0.09	808879	keystroke_Key.space	Key.space	n/a
404.7095	0.105	809419	keystroke_m	m	n/a
404.9495	0.1195	809899	keystroke_a	a	n/a
405.174	0.09	810348	keystroke_g	g	n/a
405.459	0.105	810918	keystroke_n	n	n/a
405.669	0.12	811338	keystroke_e	e	n/a
405.879	0.09	811758	keystroke_t	t	n/a
406.089	0.045	812178	keystroke_i	i	n/a
406.269	0.09	812538	keystroke_c	c	n/a
406.449	0.105	812898	keystroke_Key.space	Key.space	n/a
407.229	0.075	814458	keystroke_f	f	n/a
407.469	0.09	814938	keystroke_u	u	n/a
408.009	0.09	816018	keystroke_r	r	n/a
408.204	0.075	816408	keystroke_n	n	n/a
408.459	0.075	816918	keystroke_i	i	n/a
408.834	0.105	817668	keystroke_s	s	n/a
409.029	0.105	818058	keystroke_h	h	n/a
409.239	0.075	818478	keystroke_i	i	n/a
409.419	0.105	818838	keystroke_n	n	n/a
409.599	0.09	819198	keystroke_g	g	n/a
409.8395	0.09	819679	keystroke_s	s	n/a
410.0795	0.075	820159	keystroke_Key.space	Key.space	n/a
410.3795	0.105	820759	keystroke_a	a	n/a
410.6345	0.075	821269	keystroke_i	i	n/a
411.039	0.09	822078	keystroke_d	d	n/a
412.1645	0.105	824329	keystroke_s	s	n/a
412.3735	0.105	824747	keystroke_Key.enter	Key.enter	n/a
412.4835	14.727	824967	prompt	n/a	graduation divx we brandon\n
413.229	0.09	826458	keystroke_g	g	n/a
413.559	0.105	827118	keystroke_r	r	n/a
413.8285	0.105	827657	keystroke_a	a	n/a
414.1595	0.089	828319	keystroke_d	d	n/a
414.549	0.0755	829098	keystroke_u	u	n/a
414.8185	0.106	829637	keystroke_a	a	n/a
414.9685	0.105	829937	keystroke_t	t	n/a
415.0885	0.075	830177	keystroke_i	i	n/a
415.3285	0.12	830657	keystroke_o	o	n/a
415.5835	0.105	831167	keystroke_n	n	n/a
415.8685	0.105	831737	keystroke_Key.space	Key.space	n/a
416.2885	0.075	832577	keystroke_d	d	n/a
416.5135	0.09	833027	keystroke_i	i	n/a
416.8885	0.09	833777	keystroke_v	v	n/a
417.7135	0.135	835427	keystroke_z	z	n/a
418.449	0.09	836898	keystroke_Key.backspace	Key.backspace	n/a
418.689	0.105	837378	keystroke_z	z	n/a
419.454	0.075	838908	keystroke_Key.backspace	Key.backspace	n/a
419.904	0.09	839808	keystroke_x	x	n/a
420.1435	0.075	840287	keystroke_Key.space	Key.space	n/a
420.3535	0.016	840707	keystroke_k	k	n/a
420.6835	0.106	841367	keystroke_w	w	n/a
420.8935	0.09	841787	keystroke_e	e	n/a
421.554	0.015	843108	keystroke_Key.backspace	Key.backspace	n/a
423.084	0.06	846168	keystroke_Key.backspace	Key.backspace	n/a
423.279	0.09	846558	keystroke_Key.backspace	Key.backspace	n/a
423.609	0.075	847218	keystroke_w	w	n/a
423.909	0.09	847818	keystroke_e	e	n/a
424.479	0.075	848958	keystroke_Key.space	Key.space	n/a
425.514	0.105	851028	keystroke_b	b	n/a
425.7985	0.1055	851597	keystroke_r	r	n/a
426.2335	0.105	852467	keystroke_a	a	n/a
426.3685	0.105	852737	keystroke_n	n	n/a
426.5485	0.09	853097	keystroke_d	d	n/a
426.6535	0.1055	853307	keystroke_o	o	n/a
426.819	0.1205	853638	keystroke_n	n	n/a
427.1195	0.09	854239	keystroke_Key.enter	Key.enter	n/a
427.2135	7.692	854427	prompt	n/a	mumbai scan ralph stickers\n
427.929	0.12	855858	keystroke_m	m	n/a
428.229	0.09	856458	keystroke_u	u	n/a
428.529	0.09	857058	keystroke_m	m	n/a
428.844	0.105	857688	keystroke_b	b	n/a
429.114	0.105	858228	keystroke_a	a	n/a
429.279	0.09	858558	keystroke_i	i	n/a
429.549	0.09	859098	keystroke_Key.space	Key.space	n/a
429.9995	0.12	859999	keystroke_s	s	n/a
430.3445	0.09	860689	keystroke_c	c	n/a
430.6445	0.1345	861289	keystroke_a	a	n/a
430.839	0.105	861678	keystroke_n	n	n/a
431.109	0.09	862218	keystroke_Key.space	Key.space	n/a
431.4695	0.105	862939	keystroke_r	r	n/a
431.7245	0.1195	863449	keystroke_a	a	n/a
431.874	0.12	863748	keystroke_l	l	n/a
432.144	0.12	864288	keystroke_p	p	n/a
432.339	0.09	864678	keystroke_h	h	n/a
432.774	0.075	865548	keystroke_Key.space	Key.space	n/a
433.284	0.105	866568	keystroke_s	s	n/a
433.494	0.12	866988	keystroke_t	t	n/a
433.659	0.0905	867318	keystroke_i	i	n/a
433.8985	0.075	867797	keystroke_c	c	n/a
434.0185	0.09	868037	keystroke_k	k	n/a
434.2285	0.151	868457	keystroke_e	e	n/a
434.3345	0.149	868669	keystroke_r	r	n/a
434.5885	0.151	869177	keystroke_s	s	n/a
434.7985	0.105	869597	keystroke_Key.enter	Key.enter	n/a
434.9085	12.567	869817	prompt	n/a	knight chose follows themselves\n
435.699	0.06	871398	keystroke_k	k	n/a
436.659	0.075	873318	keystroke_n	n	n/a
436.854	0.06	873708	keystroke_i	i	n/a
437.004	0.09	874008	keystroke_g	g	n/a
437.139	0.105	874278	keystroke_h	h	n/a
437.289	0.09	874578	keystroke_t	t	n/a
437.799	0.075	875598	keystroke_Key.space	Key.space	n/a
438.279	0.09	876558	keystroke_c	c	n/a
438.414	0.09	876828	keystroke_h	h	n/a
438.609	0.105	877218	keystroke_o	o	n/a
438.744	0.135	877488	keystroke_s	s	n/a
438.939	0.03	877878	keystroke_e	e	n/a
439.014	0.045	878028	keystroke_e	e	n/a
439.194	0.105	878388	keystroke_Key.space	Key.space	n/a
440.4995	0.09	880999	keystroke_Key.backspace	Key.backspace	n/a
440.7095	0.089	881419	keystroke_Key.backspace	Key.backspace	n/a
441.1585	0.046	882317	keystroke_Key.space	Key.space	n/a
441.3995	0.0745	882799	keystroke_f	f	n/a
441.624	0.105	883248	keystroke_o	o	n/a
441.909	0.075	883818	keystroke_l	l	n/a
442.104	0.075	884208	keystroke_l	l	n/a
442.299	0.09	884598	keystroke_o	o	n/a
442.569	0.015	885138	keystroke_w	w	n/a
442.854	0.105	885708	keystroke_s	s	n/a
443.064	0.075	886128	keystroke_Key.space	Key.space	n/a
443.499	0.09	886998	keystroke_t	t	n/a
443.679	0.1045	887358	keystroke_h	h	n/a
443.7985	0.12	887597	keystroke_e	e	n/a
443.9335	0.12	887867	keystroke_m	m	n/a
444.2485	0.12	888497	keystroke_e	e	n/a
444.4735	0.09	888947	keystroke_l	l	n/a
445.1935	0.09	890387	keystroke_Key.backspace	Key.backspace	n/a
445.4185	0.09	890837	keystroke_Key.backspace	Key.backspace	n/a
446.1235	0.09	892247	keystroke_s	s	n/a
446.3635	0.09	892727	keystroke_e	e	n/a
446.529	0.105	893058	keystroke_l	l	n/a
446.814	0.09	893628	keystroke_v	v	n/a
447.024	0.135	894048	keystroke_e	e	n/a
447.264	0.12	894528	keystroke_s	s	n/a
447.369	0.105	894738	keystroke_Key.enter	Key.enter	n/a
447.4785	8.022	894957	prompt	n/a	recall claim went starts\n
448.314	0.12	896628	keystroke_r	r	n/a
449.4695	0.12	898939	keystroke_e	e	n/a
449.844	0.105	899688	keystroke_c	c	n/a
450.0545	0.105	900109	keystroke_a	a	n/a
450.2645	0.105	900529	keystroke_l	l	n/a
450.5045	0.105	901009	keystroke_l	l	n/a
450.7895	0.09	901579	keystroke_Key.space	Key.space	n/a
451.1195	0.105	902239	keystroke_c	c	n/a
451.3295	0.09	902659	keystroke_l	l	n/a
451.4945	0.105	902989	keystroke_a	a	n/a
451.6445	0.0745	903289	keystroke_i	i	n/a
451.929	0.09	903858	keystroke_m	m	n/a
452.169	0.0755	904338	keystroke_Key.space	Key.space	n/a
452.439	0.12	904878	keystroke_w	w	n/a
452.649	0.12	905298	keystroke_e	e	n/a
452.814	0.09	905628	keystroke_n	n	n/a
453.009	0.09	906018	keystroke_t	t	n/a
453.159	0.12	906318	keystroke_Key.space	Key.space	n/a
453.399	0.135	906798	keystroke_s	s	n/a
453.624	0.0605	907248	keystroke_t	t	n/a
454.4045	0.135	908809	keystroke_a	a	n/a
454.7195	0.075	909439	keystroke_r	r	n/a
454.9295	0.09	909859	keystroke_t	t	n/a
455.1845	0.1045	910369	keystroke_s	s	n/a
455.394	0.1055	910788	keystroke_Key.enter	Key.enter	n/a
455.5035	8.637	911007	prompt	n/a	algebra yoga complaints i've\n
456.2195	0.105	912439	keystroke_a	a	n/a
456.3995	0.09	912799	keystroke_l	l	n/a
456.6545	0.0895	913309	keystroke_g	g	n/a
457.944	0.105	915888	keystroke_e	e	n/a
458.2585	0.091	916517	keystroke_b	b	n/a
458.5435	0.09	917087	keystroke_r	r	n/a
458.7685	0.105	917537	keystroke_a	a	n/a
458.9335	0.105	917867	keystroke_Key.space	Key.space	n/a
459.2335	0.076	918467	keystroke_y	y	n/a
459.4295	0.119	918859	keystroke_o	o	n/a
459.7285	0.076	919457	keystroke_g	g	n/a
460.0735	0.106	920147	keystroke_a	a	n/a
460.2545	0.09	920509	keystroke_Key.space	Key.space	n/a
460.5695	0.075	921139	keystroke_c	c	n/a
460.7345	0.09	921469	keystroke_o	o	n/a
460.8995	0.0895	921799	keystroke_m	m	n/a
461.124	0.105	922248	keystroke_p	p	n/a
461.784	0.105	923568	keystroke_l	l	n/a
462.264	0.105	924528	keystroke_a	a	n/a
462.4145	0.075	924829	keystroke_i	i	n/a
462.5645	0.074	925129	keystroke_n	n	n/a
462.6985	0.106	925397	keystroke_t	t	n/a
462.9685	0.091	925937	keystroke_s	s	n/a
463.1635	0.09	926327	keystroke_Key.space	Key.space	n/a
463.584	0.075	927168	keystroke_i	i	n/a
464.034	0.1045	928068	keystroke_Key.enter	Key.enter	n/a
464.1435	12.837	928287	prompt	n/a	mileage korean kills divx\n
465.669	0.09	931338	keystroke_m	m	n/a
465.924	0.075	931848	keystroke_i	i	n/a
466.314	0.075	932628	keystroke_l	l	n/a
466.5245	0.12	933049	keystroke_e	e	n/a
466.8845	0.105	933769	keystroke_a	a	n/a
467.0495	0.105	934099	keystroke_g	g	n/a
467.2745	0.12	934549	keystroke_e	e	n/a
467.4545	0.105	934909	keystroke_Key.space	Key.space	n/a
467.7845	0.06	935569	keystroke_k	k	n/a
468.1145	0.09	936229	keystroke_o	o	n/a
468.2945	0.12	936589	keystroke_r	r	n/a
468.759	0.135	937518	keystroke_e	e	n/a
469.029	0.105	938058	keystroke_a	a	n/a
469.149	0.105	938298	keystroke_n	n	n/a
469.449	0.09	938898	keystroke_Key.space	Key.space	n/a
470.0635	0.076	940127	keystroke_k	k	n/a
470.604	0.075	941208	keystroke_i	i	n/a
470.829	0.06	941658	keystroke_l	l	n/a
470.994	0.0905	941988	keystroke_l	l	n/a
471.2195	0.119	942439	keystroke_s	s	n/a
471.5185	0.09	943037	keystroke_Key.space	Key.space	n/a
471.894	0.105	943788	keystroke_d	d	n/a
472.134	0.06	944268	keystroke_i	i	n/a
472.374	0.12	944748	keystroke_v	v	n/a
472.8545	0.089	945709	keystroke_z	z	n/a
473.454	0.06	946908	keystroke_Key.backspace	Key.backspace	n/a
474.234	0.135	948468	keystroke_z	z	n/a
474.7145	0.105	949429	keystroke_Key.backspace	Key.backspace	n/a
474.8945	0.135	949789	keystroke_z	z	n/a
475.6295	0.0745	951259	keystroke_Key.backspace	Key.backspace	n/a
475.929	0.075	951858	keystroke_x	x	n/a
476.949	0.03	953898	keystroke_Key.enter	Key.enter	n/a
476.9835	7.6475	953967	prompt	n/a	where've acid halo saver\n
477.774	0.12	955548	keystroke_w	w	n/a
478.029	0.075	956058	keystroke_h	h	n/a
478.179	0.15	956358	keystroke_e	e	n/a
478.284	0.1505	956568	keystroke_r	r	n/a
478.4195	0.12	956839	keystroke_e	e	n/a
479.169	0.09	958338	keystroke_'	'	n/a
479.649	0.09	959298	keystroke_v	v	n/a
479.859	0.105	959718	keystroke_e	e	n/a
480.054	0.12	960108	keystroke_Key.space	Key.space	n/a
480.429	0.15	960858	keystroke_a	a	n/a
480.714	0.09	961428	keystroke_c	c	n/a
480.879	0.075	961758	keystroke_i	i	n/a
481.104	0.135	962208	keystroke_d	d	n/a
481.329	0.105	962658	keystroke_Key.space	Key.space	n/a
481.9745	0.075	963949	keystroke_h	h	n/a
482.2145	0.119	964429	keystroke_a	a	n/a
482.4245	0.105	964849	keystroke_l	l	n/a
482.6795	0.105	965359	keystroke_o	o	n/a
483.1895	0.075	966379	keystroke_Key.space	Key.space	n/a
483.5195	0.105	967039	keystroke_s	s	n/a
483.7595	0.12	967519	keystroke_a	a	n/a
483.9695	0.09	967939	keystroke_v	v	n/a
484.209	0.135	968418	keystroke_e	e	n/a
484.299	0.12	968598	keystroke_r	r	n/a
484.539	0.09	969078	keystroke_Key.enter	Key.enter	n/a
484.634	9.117	969268	prompt	n/a	ensuring spanking threads intention\n
485.3945	0.12	970789	keystroke_e	e	n/a
485.5745	0.09	971149	keystroke_n	n	n/a
485.9345	0.12	971869	keystroke_s	s	n/a
486.0845	0.089	972169	keystroke_u	u	n/a
486.2795	0.105	972559	keystroke_r	r	n/a
486.4295	0.045	972859	keystroke_i	i	n/a
486.5495	0.075	973099	keystroke_n	n	n/a
486.6845	0.075	973369	keystroke_g	g	n/a
486.8185	0.091	973637	keystroke_Key.space	Key.space	n/a
487.119	0.12	974238	keystroke_s	s	n/a
487.434	0.0155	974868	keystroke_p	p	n/a
487.5545	0.12	975109	keystroke_a	a	n/a
487.7345	0.09	975469	keystroke_n	n	n/a
488.0045	0.075	976009	keystroke_k	k	n/a
488.274	0.09	976548	keystroke_i	i	n/a
488.454	0.075	976908	keystroke_n	n	n/a
488.604	0.061	977208	keystroke_g	g	n/a
488.754	0.09	977508	keystroke_Key.space	Key.space	n/a
489.069	0.105	978138	keystroke_t	t	n/a
489.25	0.089	978500	keystroke_h	h	n/a
489.6695	0.1345	979339	keystroke_r	r	n/a
489.939	0.105	979878	keystroke_e	e	n/a
490.194	0.106	980388	keystroke_a	a	n/a
490.419	0.09	980838	keystroke_d	d	n/a
490.704	0.12	981408	keystroke_s	s	n/a
490.9295	0.0895	981859	keystroke_Key.space	Key.space	n/a
491.619	0.06	983238	keystroke_i	i	n/a
491.769	0.075	983538	keystroke_n	n	n/a
491.979	0.09	983958	keystroke_t	t	n/a
492.354	0.045	984708	keystroke_e	e	n/a
492.414	0.0905	984828	keystroke_n	n	n/a
492.6395	0.09	985279	keystroke_t	t	n/a
492.8645	0.09	985729	keystroke_i	i	n/a
493.0595	0.12	986119	keystroke_o	o	n/a
493.2695	0.075	986539	keystroke_n	n	n/a
493.6445	0.105	987289	keystroke_Key.enter	Key.enter	n/a
493.754	9.4315	987508	prompt	n/a	congratulations west hills ruling\n
494.5295	0.09	989059	keystroke_c	c	n/a
494.6495	0.089	989299	keystroke_o	o	n/a
494.8595	0.09	989719	keystroke_n	n	n/a
495.1295	0.0895	990259	keystroke_g	g	n/a
495.444	0.09	990888	keystroke_r	r	n/a
495.654	0.1195	991308	keystroke_a	a	n/a
495.8345	0.09	991669	keystroke_t	t	n/a
496.0735	0.075	992147	keystroke_u	u	n/a
496.449	0.09	992898	keystroke_l	l	n/a
496.599	0.135	993198	keystroke_a	a	n/a
496.794	0.105	993588	keystroke_t	t	n/a
496.959	0.09	993918	keystroke_i	i	n/a
497.184	0.12	994368	keystroke_o	o	n/a
497.409	0.075	994818	keystroke_n	n	n/a
497.589	0.1055	995178	keystroke_s	s	n/a
497.7995	0.09	995599	keystroke_Key.space	Key.space	n/a
498.1145	0.12	996229	keystroke_w	w	n/a
498.3245	0.1195	996649	keystroke_e	e	n/a
498.6545	0.1045	997309	keystroke_s	s	n/a
498.8645	0.1045	997729	keystroke_t	t	n/a
499.089	0.0755	998178	keystroke_Key.space	Key.space	n/a
499.4645	0.075	998929	keystroke_h	h	n/a
499.6445	0.075	999289	keystroke_i	i	n/a
499.8695	0.0745	999739	keystroke_l	l	n/a
500.049	0.09	1000098	keystroke_l	l	n/a
500.169	0.12	1000338	keystroke_s	s	n/a
500.529	0.09	1001058	keystroke_Key.space	Key.space	n/a
500.8895	0.105	1001779	keystroke_r	r	n/a
501.0545	0.105	1002109	keystroke_u	u	n/a
501.3095	0.135	1002619	keystroke_l	l	n/a
502.104	0.06	1004208	keystroke_i	i	n/a
502.344	0.015	1004688	keystroke_n	n	n/a
502.419	0.09	1004838	keystroke_g	g	n/a
502.659	0.015	1005318	keystroke_Key.space	Key.space	n/a
503.079	0.105	1006158	keystroke_Key.enter	Key.enter	n/a
503.191	11.02	1006382	prompt	n/a	hobbies divide protective continues\n
503.934	0.09	1007868	keystroke_h	h	n/a
504.099	0.135	1008198	keystroke_o	o	n/a
504.279	0.1055	1008558	keystroke_b	b	n/a
504.474	0.105	1008948	keystroke_b	b	n/a
504.609	0.075	1009218	keystroke_i	i	n/a
504.999	0.09	1009998	keystroke_e	e	n/a
505.239	0.135	1010478	keystroke_s	s	n/a
505.449	0.09	1010898	keystroke_Key.space	Key.space	n/a
505.9895	0.09	1011979	keystroke_d	d	n/a
506.1845	0.075	1012369	keystroke_i	i	n/a
506.4695	0.09	1012939	keystroke_v	v	n/a
507.1595	0.105	1014319	keystroke_i	i	n/a
507.399	0.1205	1014798	keystroke_d	d	n/a
507.8795	0.075	1015759	keystroke_e	e	n/a
508.119	0.075	1016238	keystroke_Key.space	Key.space	n/a
508.4645	0.105	1016929	keystroke_p	p	n/a
508.5845	0.12	1017169	keystroke_r	r	n/a
508.8395	0.105	1017679	keystroke_o	o	n/a
509.259	0.105	1018518	keystroke_t	t	n/a
509.514	0.121	1019028	keystroke_e	e	n/a
509.754	0.105	1019508	keystroke_c	c	n/a
509.994	0.0755	1019988	keystroke_t	t	n/a
510.1295	0.075	1020259	keystroke_i	i	n/a
510.7895	0.09	1021579	keystroke_v	v	n/a
511.1495	0.12	1022299	keystroke_e	e	n/a
511.4045	0.09	1022809	keystroke_Key.space	Key.space	n/a
511.9145	0.09	1023829	keystroke_c	c	n/a
512.0495	0.12	1024099	keystroke_o	o	n/a
512.2445	0.09	1024489	keystroke_n	n	n/a
512.4245	0.09	1024849	keystroke_t	t	n/a
512.7395	0.0895	1025479	keystroke_i	i	n/a
512.994	0.075	1025988	keystroke_n	n	n/a
513.249	0.075	1026498	keystroke_u	u	n/a
513.684	0.105	1027368	keystroke_e	e	n/a
513.924	0.105	1027848	keystroke_s	s	n/a
514.074	0.135	1028148	keystroke_Key.enter	Key.enter	n/a
514.214	8.517	1028428	prompt	n/a	meyer road scoop lesbian\n
515.019	0.06	1030038	keystroke_m	m	n/a
515.214	0.12	1030428	keystroke_e	e	n/a
515.694	0.075	1031388	keystroke_y	y	n/a
515.934	0.15	1031868	keystroke_e	e	n/a
516.039	0.12	1032078	keystroke_r	r	n/a
516.279	0.075	1032558	keystroke_Key.space	Key.space	n/a
516.534	0.105	1033068	keystroke_r	r	n/a
517.2095	0.105	1034419	keystroke_o	o	n/a
517.5095	0.105	1035019	keystroke_a	a	n/a
517.7645	0.09	1035529	keystroke_d	d	n/a
518.0195	0.105	1036039	keystroke_Key.space	Key.space	n/a
518.5895	0.1195	1037179	keystroke_s	s	n/a
518.9645	0.09	1037929	keystroke_c	c	n/a
519.1445	0.105	1038289	keystroke_o	o	n/a
519.3395	0.105	1038679	keystroke_o	o	n/a
519.5195	0.1195	1039039	keystroke_p	p	n/a
519.789	0.06	1039578	keystroke_Key.space	Key.space	n/a
520.329	0.075	1040658	keystroke_l	l	n/a
520.539	0.165	1041078	keystroke_e	e	n/a
521.214	0.105	1042428	keystroke_s	s	n/a
521.634	0.105	1043268	keystroke_b	b	n/a
521.844	0.06	1043688	keystroke_i	i	n/a
522.024	0.12	1044048	keystroke_a	a	n/a
522.174	0.075	1044348	keystroke_n	n	n/a
522.624	0.105	1045248	keystroke_Key.enter	Key.enter	n/a
522.7335	11.8325	1045467	prompt	n/a	singapore exports optimize sunglasses\n
523.554	0.1205	1047108	keystroke_s	s	n/a
523.7195	0.075	1047439	keystroke_i	i	n/a
523.8695	0.135	1047739	keystroke_n	n	n/a
524.1245	0.06	1048249	keystroke_g	g	n/a
524.7245	0.105	1049449	keystroke_a	a	n/a
525.0695	0.06	1050139	keystroke_p	p	n/a
525.3095	0.09	1050619	keystroke_o	o	n/a
525.5345	0.09	1051069	keystroke_r	r	n/a
525.7595	0.105	1051519	keystroke_e	e	n/a
525.9395	0.09	1051879	keystroke_Key.space	Key.space	n/a
526.269	0.166	1052538	keystroke_e	e	n/a
526.66	0.12	1053320	keystroke_x	x	n/a
527.23	0.044	1054460	keystroke_p	p	n/a
527.455	0.1045	1054910	keystroke_o	o	n/a
527.6795	0.12	1055359	keystroke_r	r	n/a
527.9195	0.105	1055839	keystroke_t	t	n/a
528.534	0.09	1057068	keystroke_s	s	n/a
528.774	0.09	1057548	keystroke_Key.space	Key.space	n/a
529.059	0.12	1058118	keystroke_o	o	n/a
529.344	0.09	1058688	keystroke_p	p	n/a
529.584	0.075	1059168	keystroke_t	t	n/a
529.734	0.075	1059468	keystroke_i	i	n/a
529.989	0.06	1059978	keystroke_m	m	n/a
530.244	0.075	1060488	keystroke_i	i	n/a
530.5745	0.105	1061149	keystroke_z	z	n/a
531.1145	0.12	1062229	keystroke_e	e	n/a
531.3845	0.075	1062769	keystroke_Key.space	Key.space	n/a
531.67	0.105	1063340	keystroke_s	s	n/a
531.745	0.075	1063490	keystroke_u	u	n/a
531.9395	0.075	1063879	keystroke_n	n	n/a
532.3145	0.09	1064629	keystroke_g	g	n/a
532.554	0.105	1065108	keystroke_l	l	n/a
532.839	0.12	1065678	keystroke_a	a	n/a
533.124	0.1055	1066248	keystroke_s	s	n/a
533.3045	0.12	1066609	keystroke_s	s	n/a
533.6045	0.105	1067209	keystroke_e	e	n/a
533.8295	0.12	1067659	keystroke_s	s	n/a
534.474	0.09	1068948	keystroke_Key.enter	Key.enter	n/a
534.5685	11.6525	1069137	prompt	n/a	villages imaging quantum promote\n
535.2995	0.09	1070599	keystroke_v	v	n/a
535.4645	0.09	1070929	keystroke_i	i	n/a
535.7195	0.06	1071439	keystroke_l	l	n/a
535.8845	0.0895	1071769	keystroke_l	l	n/a
536.034	0.135	1072068	keystroke_a	a	n/a
536.229	0.105	1072458	keystroke_g	g	n/a
536.379	0.075	1072758	keystroke_i	i	n/a
537.1745	0.06	1074349	keystroke_Key.backspace	Key.backspace	n/a
537.46	0.1195	1074920	keystroke_e	e	n/a
537.7295	0.12	1075459	keystroke_s	s	n/a
537.9395	0.09	1075879	keystroke_Key.space	Key.space	n/a
538.5395	0.105	1077079	keystroke_i	i	n/a
538.8095	0.09	1077619	keystroke_m	m	n/a
539.23	0.105	1078460	keystroke_a	a	n/a
539.44	0.075	1078880	keystroke_g	g	n/a
539.575	0.075	1079150	keystroke_i	i	n/a
539.7545	0.075	1079509	keystroke_n	n	n/a
540.385	0.075	1080770	keystroke_g	g	n/a
540.64	0.089	1081280	keystroke_Key.space	Key.space	n/a
541.075	0.09	1082150	keystroke_a	a	n/a
541.5545	0.075	1083109	keystroke_Key.backspace	Key.backspace	n/a
541.7795	0.105	1083559	keystroke_q	q	n/a
541.9745	0.075	1083949	keystroke_u	u	n/a
542.4095	0.105	1084819	keystroke_a	a	n/a
542.5445	0.075	1085089	keystroke_n	n	n/a
542.74	0.089	1085480	keystroke_t	t	n/a
542.979	0.09	1085958	keystroke_u	u	n/a
543.28	0.075	1086560	keystroke_m	m	n/a
543.654	0.0605	1087308	keystroke_Key.space	Key.space	n/a
543.9395	0.1045	1087879	keystroke_p	p	n/a
544.2845	0.06	1088569	keystroke_r	r	n/a
544.644	0.09	1089288	keystroke_o	o	n/a
544.944	0.075	1089888	keystroke_m	m	n/a
545.439	0.06	1090878	keystroke_o	o	n/a
545.6795	0.075	1091359	keystroke_t	t	n/a
545.9045	0.09	1091809	keystroke_e	e	n/a
546.1145	0.105	1092229	keystroke_Key.enter	Key.enter	n/a
546.224	10.647	1092448	prompt	n/a	crime conflicts walks intervention\n
546.9395	0.09	1093879	keystroke_c	c	n/a
547.1945	0.105	1094389	keystroke_r	r	n/a
547.4045	0.075	1094809	keystroke_i	i	n/a
547.6445	0.075	1095289	keystroke_m	m	n/a
547.8395	0.09	1095679	keystroke_e	e	n/a
548.1095	0.12	1096219	keystroke_Key.space	Key.space	n/a
548.6495	0.075	1097299	keystroke_c	c	n/a
548.859	0.09	1097718	keystroke_o	o	n/a
549.054	0.09	1098108	keystroke_n	n	n/a
549.234	0.075	1098468	keystroke_f	f	n/a
549.5345	0.0895	1099069	keystroke_l	l	n/a
549.759	0.06	1099518	keystroke_i	i	n/a
549.954	0.09	1099908	keystroke_c	c	n/a
550.194	0.09	1100388	keystroke_t	t	n/a
550.464	0.105	1100928	keystroke_s	s	n/a
550.659	0.105	1101318	keystroke_Key.space	Key.space	n/a
551.1245	0.105	1102249	keystroke_w	w	n/a
551.3795	0.09	1102759	keystroke_a	a	n/a
551.5595	0.09	1103119	keystroke_l	l	n/a
551.829	0.075	1103658	keystroke_k	k	n/a
552.294	0.03	1104588	keystroke_s	s	n/a
552.534	0.0905	1105068	keystroke_Key.space	Key.space	n/a
553.0595	0.06	1106119	keystroke_i	i	n/a
553.2395	0.075	1106479	keystroke_n	n	n/a
553.5095	0.12	1107019	keystroke_t	t	n/a
553.7945	0.135	1107589	keystroke_e	e	n/a
553.8995	0.12	1107799	keystroke_r	r	n/a
554.2745	0.12	1108549	keystroke_v	v	n/a
554.7545	0.075	1109509	keystroke_e	e	n/a
555.4145	0.075	1110829	keystroke_n	n	n/a
555.6095	0.09	1111219	keystroke_t	t	n/a
556.0145	0.09	1112029	keystroke_i	i	n/a
556.2395	0.12	1112479	keystroke_o	o	n/a
556.4495	0.09	1112899	keystroke_n	n	n/a
556.7495	0.12	1113499	keystroke_Key.enter	Key.enter	n/a
556.8755	10.6155	1113751	prompt	n/a	computation alpha cancel republic\n
557.635	0.075	1115270	keystroke_c	c	n/a
557.74	0.12	1115480	keystroke_o	o	n/a
557.9645	0.105	1115929	keystroke_m	m	n/a
558.4295	0.09	1116859	keystroke_p	p	n/a
558.5945	0.09	1117189	keystroke_u	u	n/a
558.955	0.075	1117910	keystroke_t	t	n/a
559.285	0.12	1118570	keystroke_a	a	n/a
559.525	0.09	1119050	keystroke_t	t	n/a
559.7045	0.075	1119409	keystroke_i	i	n/a
559.9295	0.12	1119859	keystroke_o	o	n/a
560.1545	0.09	1120309	keystroke_n	n	n/a
560.4545	0.1345	1120909	keystroke_Key.space	Key.space	n/a
560.889	0.105	1121778	keystroke_a	a	n/a
561.144	0.106	1122288	keystroke_l	l	n/a
561.429	0.12	1122858	keystroke_p	p	n/a
561.594	0.105	1123188	keystroke_h	h	n/a
561.819	0.105	1123638	keystroke_a	a	n/a
561.984	0.0905	1123968	keystroke_Key.space	Key.space	n/a
562.3445	0.105	1124689	keystroke_c	c	n/a
562.5545	0.135	1125109	keystroke_a	a	n/a
562.6895	0.09	1125379	keystroke_n	n	n/a
563.1095	0.0895	1126219	keystroke_c	c	n/a
563.304	0.12	1126608	keystroke_e	e	n/a
563.529	0.105	1127058	keystroke_l	l	n/a
563.7845	0.06	1127569	keystroke_Key.space	Key.space	n/a
564.0695	0.135	1128139	keystroke_r	r	n/a
564.3995	0.135	1128799	keystroke_e	e	n/a
564.8345	0.105	1129669	keystroke_p	p	n/a
565.0595	0.105	1130119	keystroke_u	u	n/a
565.374	0.045	1130748	keystroke_l	l	n/a
565.8995	0.09	1131799	keystroke_Key.backspace	Key.backspace	n/a
566.2895	0.12	1132579	keystroke_b	b	n/a
566.5595	0.105	1133119	keystroke_l	l	n/a
566.8595	0.075	1133719	keystroke_i	i	n/a
567.1295	0.0895	1134259	keystroke_c	c	n/a
567.384	0.1055	1134768	keystroke_Key.enter	Key.enter	n/a
567.494	8.397	1134988	prompt	n/a	books scripts deeply loan\n
568.3145	0.06	1136629	keystroke_g	g	n/a
569.0345	0.09	1138069	keystroke_Key.backspace	Key.backspace	n/a
569.2295	0.09	1138459	keystroke_b	b	n/a
569.4545	0.09	1138909	keystroke_o	o	n/a
569.664	0.106	1139328	keystroke_o	o	n/a
569.934	0.0605	1139868	keystroke_k	k	n/a
570.234	0.09	1140468	keystroke_s	s	n/a
570.444	0.075	1140888	keystroke_Key.space	Key.space	n/a
570.774	0.105	1141548	keystroke_s	s	n/a
571.119	0.105	1142238	keystroke_c	c	n/a
571.374	0.09	1142748	keystroke_r	r	n/a
571.5395	0.075	1143079	keystroke_i	i	n/a
571.8245	0.09	1143649	keystroke_p	p	n/a
572.1095	0.075	1144219	keystroke_t	t	n/a
572.3495	0.09	1144699	keystroke_s	s	n/a
572.5445	0.09	1145089	keystroke_Key.space	Key.space	n/a
572.874	0.09	1145748	keystroke_d	d	n/a
573.114	0.105	1146228	keystroke_e	e	n/a
573.294	0.09	1146588	keystroke_e	e	n/a
573.549	0.09	1147098	keystroke_p	p	n/a
573.8045	0.12	1147609	keystroke_l	l	n/a
574.0595	0.1055	1148119	keystroke_y	y	n/a
574.2845	0.09	1148569	keystroke_Key.space	Key.space	n/a
574.81	0.105	1149620	keystroke_l	l	n/a
575.08	0.09	1150160	keystroke_o	o	n/a
575.245	0.12	1150490	keystroke_a	a	n/a
575.395	0.105	1150790	keystroke_n	n	n/a
575.77	0.12	1151540	keystroke_Key.enter	Key.enter	n/a
575.8955	13.5405	1151791	prompt	n/a	modifications profiles international elegant\n
576.7445	0.0595	1153489	keystroke_m	m	n/a
576.9995	0.105	1153999	keystroke_o	o	n/a
577.2395	0.075	1154479	keystroke_d	d	n/a
577.4345	0.06	1154869	keystroke_i	i	n/a
577.719	0.075	1155438	keystroke_f	f	n/a
577.884	0.075	1155768	keystroke_i	i	n/a
578.9645	0.09	1157929	keystroke_c	c	n/a
579.1895	0.12	1158379	keystroke_a	a	n/a
579.3545	0.105	1158709	keystroke_t	t	n/a
579.5045	0.075	1159009	keystroke_i	i	n/a
579.6695	0.105	1159339	keystroke_o	o	n/a
579.8345	0.105	1159669	keystroke_n	n	n/a
580.0145	0.105	1160029	keystroke_s	s	n/a
580.1945	0.105	1160389	keystroke_Key.space	Key.space	n/a
580.689	0.12	1161378	keystroke_p	p	n/a
580.854	0.105	1161708	keystroke_r	r	n/a
581.019	0.105	1162038	keystroke_o	o	n/a
581.934	0.075	1163868	keystroke_f	f	n/a
582.039	0.075	1164078	keystroke_i	i	n/a
582.249	0.0755	1164498	keystroke_l	l	n/a
582.4445	0.105	1164889	keystroke_e	e	n/a
582.6845	0.105	1165369	keystroke_s	s	n/a
582.8495	0.105	1165699	keystroke_Key.space	Key.space	n/a
583.1195	0.09	1166239	keystroke_i	i	n/a
583.2845	0.09	1166569	keystroke_n	n	n/a
583.4345	0.105	1166869	keystroke_t	t	n/a
583.6445	0.1495	1167289	keystroke_e	e	n/a
583.765	0.089	1167530	keystroke_r	r	n/a
583.915	0.089	1167830	keystroke_n	n	n/a
584.109	0.151	1168218	keystroke_a	a	n/a
584.274	0.09	1168548	keystroke_t	t	n/a
584.424	0.075	1168848	keystroke_i	i	n/a
584.634	0.106	1169268	keystroke_o	o	n/a
584.814	0.12	1169628	keystroke_n	n	n/a
585.009	0.105	1170018	keystroke_a	a	n/a
585.55	0.089	1171100	keystroke_l	l	n/a
585.924	0.105	1171848	keystroke_Key.space	Key.space	n/a
586.4795	0.105	1172959	keystroke_e	e	n/a
586.7195	0.0895	1173439	keystroke_l	l	n/a
586.944	0.105	1173888	keystroke_e	e	n/a
587.439	0.105	1174878	keystroke_g	g	n/a
588.549	0.09	1177098	keystroke_a	a	n/a
588.834	0.105	1177668	keystroke_n	n	n/a
589.104	0.09	1178208	keystroke_t	t	n/a
589.344	0.09	1178688	keystroke_Key.enter	Key.enter	n/a
589.4395	9.8815	1178879	prompt	n/a	implies update blonde italian\n
590.2595	0.075	1180519	keystroke_i	i	n/a
590.4995	0.105	1180999	keystroke_m	m	n/a
590.7845	0.12	1181569	keystroke_p	p	n/a
591.2645	0.105	1182529	keystroke_l	l	n/a
591.7895	0.0745	1183579	keystroke_i	i	n/a
592.509	0.105	1185018	keystroke_e	e	n/a
592.749	0.09	1185498	keystroke_s	s	n/a
592.914	0.09	1185828	keystroke_Key.space	Key.space	n/a
593.185	0.09	1186370	keystroke_u	u	n/a
593.365	0.12	1186730	keystroke_p	p	n/a
593.68	0.1045	1187360	keystroke_d	d	n/a
593.9495	0.12	1187899	keystroke_a	a	n/a
594.0995	0.105	1188199	keystroke_t	t	n/a
594.3395	0.09	1188679	keystroke_e	e	n/a
594.5195	0.09	1189039	keystroke_Key.space	Key.space	n/a
594.8795	0.09	1189759	keystroke_b	b	n/a
595.0295	0.09	1190059	keystroke_l	l	n/a
595.2695	0.075	1190539	keystroke_o	o	n/a
595.4645	0.105	1190929	keystroke_n	n	n/a
595.7345	0.09	1191469	keystroke_d	d	n/a
596.005	0.09	1192010	keystroke_e	e	n/a
596.29	0.09	1192580	keystroke_Key.space	Key.space	n/a
596.935	0.06	1193870	keystroke_i	i	n/a
597.67	0.105	1195340	keystroke_t	t	n/a
598.074	0.106	1196148	keystroke_a	a	n/a
598.435	0.075	1196870	keystroke_l	l	n/a
598.63	0.074	1197260	keystroke_i	i	n/a
598.81	0.104	1197620	keystroke_a	a	n/a
598.945	0.09	1197890	keystroke_n	n	n/a
599.1995	0.12	1198399	keystroke_Key.enter	Key.enter	n/a
599.324	16.2125	1198648	prompt	n/a	basename addition tradition linking\n
599.9945	0.09	1199989	keystroke_b	b	n/a
600.2495	0.045	1200499	keystroke_e	e	n/a
601.4345	0.06	1202869	keystroke_Key.backspace	Key.backspace	n/a
601.8245	0.105	1203649	keystroke_a	a	n/a
602.1545	0.105	1204309	keystroke_s	s	n/a
602.3045	0.045	1204609	keystroke_s	s	n/a
602.4695	0.12	1204939	keystroke_e	e	n/a
602.6795	0.09	1205359	keystroke_m	m	n/a
603.3395	0.09	1206679	keystroke_Key.backspace	Key.backspace	n/a
603.6245	0.15	1207249	keystroke_n	n	n/a
604.3295	0.105	1208659	keystroke_a	a	n/a
604.5245	0.09	1209049	keystroke_m	m	n/a
604.6745	0.09	1209349	keystroke_e	e	n/a
604.9445	0.06	1209889	keystroke_Key.space	Key.space	n/a
605.455	0.09	1210910	keystroke_Key.backspace	Key.backspace	n/a
605.6645	0.075	1211329	keystroke_Key.backspace	Key.backspace	n/a
605.8445	0.075	1211689	keystroke_Key.backspace	Key.backspace	n/a
606.0395	0.06	1212079	keystroke_Key.backspace	Key.backspace	n/a
606.2195	0.075	1212439	keystroke_Key.backspace	Key.backspace	n/a
606.4295	0.06	1212859	keystroke_Key.backspace	Key.backspace	n/a
606.6245	0.09	1213249	keystroke_Key.backspace	Key.backspace	n/a
607.4645	0.09	1214929	keystroke_e	e	n/a
608.0045	0.045	1216009	keystroke_n	n	n/a
608.2145	0.09	1216429	keystroke_a	a	n/a
608.3345	0.09	1216669	keystroke_m	m	n/a
608.4995	0.09	1216999	keystroke_e	e	n/a
608.6645	0.105	1217329	keystroke_Key.space	Key.space	n/a
609.145	0.105	1218290	keystroke_a	a	n/a
609.385	0.075	1218770	keystroke_d	d	n/a
609.55	0.09	1219100	keystroke_d	d	n/a
609.73	0.075	1219460	keystroke_i	i	n/a
609.91	0.09	1219820	keystroke_t	t	n/a
610.09	0.06	1220180	keystroke_i	i	n/a
610.255	0.105	1220510	keystroke_o	o	n/a
610.45	0.09	1220900	keystroke_n	n	n/a
610.69	0.075	1221380	keystroke_Key.space	Key.space	n/a
610.915	0.09	1221830	keystroke_t	t	n/a
611.155	0.105	1222310	keystroke_r	r	n/a
611.44	0.105	1222880	keystroke_a	a	n/a
611.7095	0.06	1223419	keystroke_d	d	n/a
611.9645	0.06	1223929	keystroke_i	i	n/a
612.16	0.075	1224320	keystroke_t	t	n/a
612.3395	0.075	1224679	keystroke_i	i	n/a
612.5345	0.105	1225069	keystroke_o	o	n/a
612.7145	0.105	1225429	keystroke_n	n	n/a
613.0595	0.075	1226119	keystroke_Key.space	Key.space	n/a
613.5545	0.075	1227109	keystroke_l	l	n/a
613.75	0.075	1227500	keystroke_i	i	n/a
613.9295	0.075	1227859	keystroke_n	n	n/a
614.3945	0.06	1228789	keystroke_k	k	n/a
614.5745	0.105	1229149	keystroke_i	i	n/a
614.7545	0.09	1229509	keystroke_n	n	n/a
614.9495	0.075	1229899	keystroke_g	g	n/a
615.4145	0.12	1230829	keystroke_Key.enter	Key.enter	n/a
615.5395	17.0975	1231079	prompt	n/a	decrease bracelet economy impressive\n
616.4345	0.09	1232869	keystroke_d	d	n/a
616.6755	0.119	1233351	keystroke_e	e	n/a
616.9895	0.105	1233979	keystroke_c	c	n/a
617.2595	0.09	1234519	keystroke_r	r	n/a
617.4695	0.12	1234939	keystroke_e	e	n/a
617.755	0.135	1235510	keystroke_s	s	n/a
618.76	0.075	1237520	keystroke_Key.backspace	Key.backspace	n/a
619.7945	0.105	1239589	keystroke_a	a	n/a
620.0045	0.12	1240009	keystroke_s	s	n/a
620.2295	0.105	1240459	keystroke_e	e	n/a
620.44	0.105	1240880	keystroke_Key.space	Key.space	n/a
620.755	0.1045	1241510	keystroke_b	b	n/a
621.0695	0.105	1242139	keystroke_r	r	n/a
621.34	0.12	1242680	keystroke_a	a	n/a
621.625	0.09	1243250	keystroke_c	c	n/a
621.82	0.1345	1243640	keystroke_e	e	n/a
622.1645	0.06	1244329	keystroke_l	l	n/a
623.2	0.105	1246400	keystroke_e	e	n/a
623.41	0.075	1246820	keystroke_t	t	n/a
623.62	0.09	1247240	keystroke_Key.space	Key.space	n/a
624.1605	0.105	1248321	keystroke_e	e	n/a
624.4005	0.015	1248801	keystroke_s	s	n/a
625.285	0.105	1250570	keystroke_Key.backspace	Key.backspace	n/a
625.66	0.0905	1251320	keystroke_c	c	n/a
625.9455	0.09	1251891	keystroke_o	o	n/a
626.1555	0.09	1252311	keystroke_n	n	n/a
626.7255	0.12	1253451	keystroke_o	o	n/a
626.9505	0.075	1253901	keystroke_m	m	n/a
627.2055	0.075	1254411	keystroke_y	y	n/a
627.4455	0.09	1254891	keystroke_Key.space	Key.space	n/a
627.925	0.105	1255850	keystroke_i	i	n/a
628.135	0.105	1256270	keystroke_m	m	n/a
628.405	0.09	1256810	keystroke_p	p	n/a
628.645	0.12	1257290	keystroke_r	r	n/a
628.84	0.075	1257680	keystroke_i	i	n/a
629.035	0.06	1258070	keystroke_e	e	n/a
629.575	0.075	1259150	keystroke_Key.backspace	Key.backspace	n/a
629.785	0.075	1259570	keystroke_Key.backspace	Key.backspace	n/a
631.255	0.105	1262510	keystroke_e	e	n/a
631.525	0.105	1263050	keystroke_s	s	n/a
631.75	0.105	1263500	keystroke_s	s	n/a
631.885	0.075	1263770	keystroke_i	i	n/a
632.125	0.09	1264250	keystroke_v	v	n/a
632.335	0.12	1264670	keystroke_e	e	n/a
632.545	0.09	1265090	keystroke_Key.enter	Key.enter	n/a
632.6415	12.4155	1265283	prompt	n/a	abilities deserve held posting\n
633.385	0.12	1266770	keystroke_a	a	n/a
633.715	0.09	1267430	keystroke_b	b	n/a
634.48	0.06	1268960	keystroke_i	i	n/a
634.915	0.075	1269830	keystroke_l	l	n/a
635.14	0.075	1270280	keystroke_i	i	n/a
635.38	0.075	1270760	keystroke_t	t	n/a
635.575	0.075	1271150	keystroke_i	i	n/a
635.755	0.1045	1271510	keystroke_e	e	n/a
636.0105	0.105	1272021	keystroke_s	s	n/a
636.1895	0.121	1272379	keystroke_Key.space	Key.space	n/a
636.5955	0.09	1273191	keystroke_d	d	n/a
636.835	0.12	1273670	keystroke_e	e	n/a
638.471	0.104	1276942	keystroke_s	s	n/a
639.04	0.121	1278080	keystroke_e	e	n/a
639.2955	0.105	1278591	keystroke_r	r	n/a
640.0005	0.105	1280001	keystroke_v	v	n/a
640.3005	0.1355	1280601	keystroke_e	e	n/a
640.6445	0.091	1281289	keystroke_Key.space	Key.space	n/a
641.11	0.0905	1282220	keystroke_h	h	n/a
641.275	0.105	1282550	keystroke_e	e	n/a
641.425	0.105	1282850	keystroke_l	l	n/a
641.785	0.105	1283570	keystroke_d	d	n/a
642.055	0.09	1284110	keystroke_Key.space	Key.space	n/a
642.625	0.09	1285250	keystroke_p	p	n/a
642.895	0.09	1285790	keystroke_o	o	n/a
643.12	0.105	1286240	keystroke_s	s	n/a
643.33	0.09	1286660	keystroke_t	t	n/a
643.435	0.09	1286870	keystroke_i	i	n/a
643.7505	0.014	1287501	keystroke_n	n	n/a
643.8695	0.076	1287739	keystroke_n	n	n/a
644.425	0.0905	1288850	keystroke_Key.backspace	Key.backspace	n/a
644.6805	0.075	1289361	keystroke_g	g	n/a
644.9355	0.1195	1289871	keystroke_Key.enter	Key.enter	n/a
645.0595	9.6425	1290119	prompt	n/a	thoroughly comics handles wishing\n
645.79	0.09	1291580	keystroke_t	t	n/a
645.91	0.105	1291820	keystroke_h	h	n/a
646.72	0.075	1293440	keystroke_o	o	n/a
647.275	0.06	1294550	keystroke_r	r	n/a
647.515	0.12	1295030	keystroke_o	o	n/a
647.65	0.1355	1295300	keystroke_u	u	n/a
647.8755	0.075	1295751	keystroke_g	g	n/a
648.0105	0.09	1296021	keystroke_h	h	n/a
648.3105	0.09	1296621	keystroke_l	l	n/a
648.5955	0.09	1297191	keystroke_y	y	n/a
648.8655	0.09	1297731	keystroke_Key.space	Key.space	n/a
649.3155	0.105	1298631	keystroke_c	c	n/a
649.4505	0.105	1298901	keystroke_o	o	n/a
649.6605	0.09	1299321	keystroke_m	m	n/a
649.87	0.06	1299740	keystroke_i	i	n/a
650.035	0.09	1300070	keystroke_c	c	n/a
650.47	0.12	1300940	keystroke_s	s	n/a
650.665	0.105	1301330	keystroke_Key.space	Key.space	n/a
650.995	0.075	1301990	keystroke_h	h	n/a
651.145	0.135	1302290	keystroke_a	a	n/a
651.265	0.09	1302530	keystroke_n	n	n/a
651.475	0.075	1302950	keystroke_d	d	n/a
651.655	0.09	1303310	keystroke_l	l	n/a
651.8655	0.09	1303731	keystroke_e	e	n/a
652.1505	0.075	1304301	keystroke_s	s	n/a
652.4655	0.045	1304931	keystroke_Key.space	Key.space	n/a
652.9155	0.12	1305831	keystroke_w	w	n/a
653.0655	0.0745	1306131	keystroke_i	i	n/a
653.2305	0.12	1306461	keystroke_s	s	n/a
653.4255	0.09	1306851	keystroke_h	h	n/a
653.6355	0.075	1307271	keystroke_i	i	n/a
653.7855	0.09	1307571	keystroke_n	n	n/a
653.9655	0.075	1307931	keystroke_g	g	n/a
654.1455	0.105	1308291	keystroke_Key.space	Key.space	n/a
654.5655	0.135	1309131	keystroke_Key.enter	Key.enter	n/a
654.7045	9.7475	1309409	prompt	n/a	wanted alice process observer\n
655.3455	0.12	1310691	keystroke_w	w	n/a
655.6145	0.106	1311229	keystroke_a	a	n/a
655.7055	0.09	1311411	keystroke_n	n	n/a
655.9	0.105	1311800	keystroke_t	t	n/a
656.14	0.135	1312280	keystroke_e	e	n/a
656.44	0.06	1312880	keystroke_d	d	n/a
656.59	0.105	1313180	keystroke_Key.space	Key.space	n/a
656.785	0.135	1313570	keystroke_a	a	n/a
657.025	0.105	1314050	keystroke_l	l	n/a
657.205	0.075	1314410	keystroke_i	i	n/a
657.37	0.105	1314740	keystroke_c	c	n/a
657.565	0.105	1315130	keystroke_e	e	n/a
657.6855	0.1195	1315371	keystroke_Key.space	Key.space	n/a
657.91	0.1205	1315820	keystroke_p	p	n/a
658.1355	0.105	1316271	keystroke_r	r	n/a
659.185	0.0455	1318370	keystroke_o	o	n/a
660.235	0.075	1320470	keystroke_c	c	n/a
660.43	0.105	1320860	keystroke_e	e	n/a
660.7	0.09	1321400	keystroke_s	s	n/a
660.88	0.105	1321760	keystroke_s	s	n/a
661.12	0.0905	1322240	keystroke_Key.space	Key.space	n/a
661.33	0.1355	1322660	keystroke_o	o	n/a
662.08	0.075	1324160	keystroke_b	b	n/a
662.83	0.105	1325660	keystroke_s	s	n/a
663.055	0.105	1326110	keystroke_e	e	n/a
663.325	0.12	1326650	keystroke_r	r	n/a
663.8055	0.105	1327611	keystroke_v	v	n/a
664.0305	0.165	1328061	keystroke_e	e	n/a
664.1505	0.105	1328301	keystroke_r	r	n/a
664.3455	0.105	1328691	keystroke_Key.enter	Key.enter	n/a
664.455	10.527	1328910	prompt	n/a	ford creature detective athletes\n
665.4555	0.075	1330911	keystroke_f	f	n/a
665.6505	0.075	1331301	keystroke_o	o	n/a
665.8155	0.105	1331631	keystroke_r	r	n/a
666.1605	0.12	1332321	keystroke_d	d	n/a
666.4605	0.09	1332921	keystroke_Key.space	Key.space	n/a
666.8055	0.105	1333611	keystroke_c	c	n/a
667.1805	0.09	1334361	keystroke_r	r	n/a
667.3755	0.12	1334751	keystroke_e	e	n/a
667.6155	0.135	1335231	keystroke_a	a	n/a
668.0505	0.09	1336101	keystroke_t	t	n/a
668.2755	0.075	1336551	keystroke_u	u	n/a
668.4555	0.12	1336911	keystroke_r	r	n/a
668.6955	0.105	1337391	keystroke_e	e	n/a
668.8905	0.105	1337781	keystroke_Key.space	Key.space	n/a
669.2355	0.105	1338471	keystroke_d	d	n/a
669.5355	0.135	1339071	keystroke_e	e	n/a
670.3605	0.105	1340721	keystroke_t	t	n/a
670.9005	0.12	1341801	keystroke_e	e	n/a
671.1705	0.075	1342341	keystroke_c	c	n/a
671.3955	0.105	1342791	keystroke_t	t	n/a
671.5305	0.075	1343061	keystroke_i	i	n/a
671.785	0.09	1343570	keystroke_v	v	n/a
672.01	0.12	1344020	keystroke_e	e	n/a
672.22	0.09	1344440	keystroke_Key.space	Key.space	n/a
672.715	0.105	1345430	keystroke_a	a	n/a
672.91	0.09	1345820	keystroke_t	t	n/a
673.06	0.09	1346120	keystroke_h	h	n/a
673.4205	0.09	1346841	keystroke_l	l	n/a
673.6905	0.015	1347381	keystroke_e	e	n/a
673.8555	0.105	1347711	keystroke_t	t	n/a
674.1405	0.105	1348281	keystroke_e	e	n/a
674.5455	0.105	1349091	keystroke_s	s	n/a
674.8755	0.105	1349751	keystroke_Key.enter	Key.enter	n/a
674.985	9.162	1349970	prompt	n/a	facial pledge albania wait\n
675.67	0.075	1351340	keystroke_f	f	n/a
675.881	0.15	1351762	keystroke_a	a	n/a
676.1655	0.12	1352331	keystroke_c	c	n/a
676.6755	0.06	1353351	keystroke_i	i	n/a
676.8555	0.12	1353711	keystroke_a	a	n/a
677.0355	0.105	1354071	keystroke_l	l	n/a
677.2905	0.09	1354581	keystroke_Key.space	Key.space	n/a
677.5155	0.105	1355031	keystroke_p	p	n/a
677.7855	0.09	1355571	keystroke_l	l	n/a
678.7005	0.105	1357401	keystroke_e	e	n/a
679.0305	0.075	1358061	keystroke_d	d	n/a
679.2855	0.09	1358571	keystroke_g	g	n/a
679.5405	0.105	1359081	keystroke_e	e	n/a
679.7655	0.09	1359531	keystroke_Key.space	Key.space	n/a
680.1705	0.12	1360341	keystroke_a	a	n/a
680.3655	0.09	1360731	keystroke_l	l	n/a
680.7705	0.09	1361541	keystroke_b	b	n/a
680.9805	0.135	1361961	keystroke_a	a	n/a
681.1305	0.09	1362261	keystroke_n	n	n/a
681.4005	0.06	1362801	keystroke_i	i	n/a
681.6255	0.105	1363251	keystroke_a	a	n/a
682.2405	0.09	1364481	keystroke_Key.space	Key.space	n/a
682.6155	0.105	1365231	keystroke_w	w	n/a
682.87	0.09	1365740	keystroke_a	a	n/a
683.005	0.075	1366010	keystroke_i	i	n/a
683.8	0.075	1367600	keystroke_t	t	n/a
684.07	0.075	1368140	keystroke_Key.enter	Key.enter	n/a
684.1515	10.5405	1368303	prompt	n/a	dodge deputy decreased tender\n
684.94	0.075	1369880	keystroke_d	d	n/a
685.21	0.075	1370420	keystroke_o	o	n/a
685.765	0.045	1371530	keystroke_d	d	n/a
686.44	0.105	1372880	keystroke_g	g	n/a
686.665	0.12	1373330	keystroke_e	e	n/a
687.055	0.105	1374110	keystroke_Key.space	Key.space	n/a
687.415	0.105	1374830	keystroke_d	d	n/a
687.625	0.12	1375250	keystroke_e	e	n/a
687.85	0.12	1375700	keystroke_p	p	n/a
688.03	0.09	1376060	keystroke_u	u	n/a
688.21	0.09	1376420	keystroke_t	t	n/a
688.465	0.075	1376930	keystroke_y	y	n/a
688.7355	0.12	1377471	keystroke_Key.space	Key.space	n/a
689.096	0.119	1378192	keystroke_d	d	n/a
689.351	0.104	1378702	keystroke_e	e	n/a
689.62	0.105	1379240	keystroke_c	c	n/a
689.905	0.09	1379810	keystroke_r	r	n/a
690.1605	0.12	1380321	keystroke_e	e	n/a
690.49	0.12	1380980	keystroke_a	a	n/a
690.805	0.105	1381610	keystroke_s	s	n/a
691.03	0.03	1382060	keystroke_s	s	n/a
691.045	0.09	1382090	keystroke_e	e	n/a
691.765	0.0905	1383530	keystroke_Key.backspace	Key.backspace	n/a
691.9905	0.075	1383981	keystroke_Key.backspace	Key.backspace	n/a
692.2605	0.135	1384521	keystroke_e	e	n/a
692.5305	0.09	1385061	keystroke_d	d	n/a
692.785	0.15	1385570	keystroke_Key.space	Key.space	n/a
693.175	0.105	1386350	keystroke_t	t	n/a
693.415	0.1205	1386830	keystroke_e	e	n/a
693.55	0.105	1387100	keystroke_n	n	n/a
694.015	0.03	1388030	keystroke_d	d	n/a
694.2105	0.15	1388421	keystroke_e	e	n/a
694.3455	0.165	1388691	keystroke_r	r	n/a
694.5855	0.105	1389171	keystroke_Key.enter	Key.enter	n/a
694.695	7.9615	1389390	prompt	n/a	absence name revisions timing\n
695.3655	0.12	1390731	keystroke_a	a	n/a
695.6805	0.09	1391361	keystroke_b	b	n/a
696.0555	0.105	1392111	keystroke_s	s	n/a
696.2955	0.105	1392591	keystroke_e	e	n/a
696.4605	0.075	1392921	keystroke_n	n	n/a
696.6705	0.105	1393341	keystroke_c	c	n/a
696.8505	0.12	1393701	keystroke_e	e	n/a
697.0155	0.105	1394031	keystroke_Key.space	Key.space	n/a
697.3605	0.089	1394721	keystroke_n	n	n/a
697.5555	0.1195	1395111	keystroke_a	a	n/a
697.705	0.075	1395410	keystroke_m	m	n/a
697.855	0.12	1395710	keystroke_e	e	n/a
698.02	0.1195	1396040	keystroke_Key.space	Key.space	n/a
698.4545	0.135	1396909	keystroke_r	r	n/a
699.1295	0.105	1398259	keystroke_e	e	n/a
699.4595	0.0905	1398919	keystroke_v	v	n/a
699.7	0.06	1399400	keystroke_i	i	n/a
700.3445	0.0905	1400689	keystroke_s	s	n/a
700.495	0.105	1400990	keystroke_i	i	n/a
700.72	0.105	1401440	keystroke_o	o	n/a
701.005	0.015	1402010	keystroke_n	n	n/a
701.125	0.12	1402250	keystroke_s	s	n/a
701.29	0.075	1402580	keystroke_Key.space	Key.space	n/a
701.5	0.09	1403000	keystroke_t	t	n/a
701.6495	0.0905	1403299	keystroke_i	i	n/a
701.845	0.09	1403690	keystroke_m	m	n/a
702.085	0.075	1404170	keystroke_i	i	n/a
702.2355	0.105	1404471	keystroke_n	n	n/a
702.4005	0.045	1404801	keystroke_g	g	n/a
702.5355	0.12	1405071	keystroke_Key.enter	Key.enter	n/a
702.6595	8.772	1405319	prompt	n/a	knew wire opens property\n
703.465	0.075	1406930	keystroke_k	k	n/a
703.9305	0.03	1407861	keystroke_n	n	n/a
704.5	0.135	1409000	keystroke_e	e	n/a
704.755	0.105	1409510	keystroke_w	w	n/a
704.905	0.105	1409810	keystroke_Key.space	Key.space	n/a
705.52	0.105	1411040	keystroke_w	w	n/a
705.7155	0.075	1411431	keystroke_i	i	n/a
705.8955	0.135	1411791	keystroke_r	r	n/a
706.15	0.105	1412300	keystroke_e	e	n/a
706.405	0.0745	1412810	keystroke_Key.space	Key.space	n/a
706.7955	0.105	1413591	keystroke_o	o	n/a
707.0505	0.0895	1414101	keystroke_p	p	n/a
707.26	0.105	1414520	keystroke_e	e	n/a
707.41	0.09	1414820	keystroke_n	n	n/a
707.635	0.105	1415270	keystroke_s	s	n/a
707.8	0.09	1415600	keystroke_Key.space	Key.space	n/a
708.01	0.105	1416020	keystroke_p	p	n/a
708.22	0.105	1416440	keystroke_r	r	n/a
708.37	0.105	1416740	keystroke_o	o	n/a
708.58	0.09	1417160	keystroke_o	o	n/a
709.435	0.03	1418870	keystroke_Key.backspace	Key.backspace	n/a
710.1105	0.104	1420221	keystroke_p	p	n/a
710.6205	0.135	1421241	keystroke_e	e	n/a
710.7255	0.12	1421451	keystroke_r	r	n/a
710.9355	0.0895	1421871	keystroke_t	t	n/a
711.04	0.105	1422080	keystroke_y	y	n/a
711.325	0.105	1422650	keystroke_Key.enter	Key.enter	n/a
711.4345	21.792	1422869	prompt	n/a	championships turtle silence cleared\n
712.135	0.09	1424270	keystroke_c	c	n/a
712.33	0.09	1424660	keystroke_h	h	n/a
712.465	0.135	1424930	keystroke_a	a	n/a
712.63	0.09	1425260	keystroke_m	m	n/a
713.1695	0.075	1426339	keystroke_i	i	n/a
713.5595	0.105	1427119	keystroke_o	o	n/a
713.8295	0.075	1427659	keystroke_n	n	n/a
714.0545	0.1055	1428109	keystroke_s	s	n/a
714.25	0.09	1428500	keystroke_h	h	n/a
714.49	0.105	1428980	keystroke_i	i	n/a
714.7895	0.1055	1429579	keystroke_p	p	n/a
714.985	0.105	1429970	keystroke_s	s	n/a
715.27	0.105	1430540	keystroke_Key.space	Key.space	n/a
715.57	0.12	1431140	keystroke_t	t	n/a
718.0925	0	1436185	keystroke_Key.backspace	Key.backspace	n/a
718.2105	0.06	1436421	keystroke_Key.backspace	Key.backspace	n/a
718.3905	0.075	1436781	keystroke_Key.backspace	Key.backspace	n/a
718.5555	0.0895	1437111	keystroke_Key.backspace	Key.backspace	n/a
719.5605	0.09	1439121	keystroke_Key.backspace	Key.backspace	n/a
719.77	0.06	1439540	keystroke_Key.backspace	Key.backspace	n/a
719.965	0.09	1439930	keystroke_Key.backspace	Key.backspace	n/a
720.19	0.06	1440380	keystroke_Key.backspace	Key.backspace	n/a
721.1805	0.12	1442361	keystroke_a	a	n/a
721.825	0.105	1443650	keystroke_m	m	n/a
722.14	0.12	1444280	keystroke_p	p	n/a
722.44	0.105	1444880	keystroke_i	i	n/a
