onset	duration	sample	value	key	prompt_text
7.017	8.8945	14034	prompt	n/a	the quick brown fox jumps over a lazy dog\n
8.26	0.001	16520	keystroke_t	t	n/a
8.349	0.075	16698	keystroke_h	h	n/a
8.6185	0.0455	17237	keystroke_e	e	n/a
8.708	0.091	17416	keystroke_Key.space	Key.space	n/a
9.039	0.06	18078	keystroke_q	q	n/a
9.159	0.075	18318	keystroke_u	u	n/a
9.309	0.06	18618	keystroke_i	i	n/a
9.428	0.076	18856	keystroke_c	c	n/a
9.654	0.075	19308	keystroke_k	k	n/a
9.864	0.044	19728	keystroke_Key.space	Key.space	n/a
10.029	0.059	20058	keystroke_b	b	n/a
10.224	0.015	20448	keystroke_r	r	n/a
10.299	0.0745	20598	keystroke_o	o	n/a
10.614	0.0445	21228	keystroke_w	w	n/a
10.7035	0.045	21407	keystroke_n	n	n/a
10.8835	0.06	21767	keystroke_Key.space	Key.space	n/a
11.0035	0.045	22007	keystroke_f	f	n/a
11.0935	0.09	22187	keystroke_o	o	n/a
11.334	0.059	22668	keystroke_x	x	n/a
11.454	0.06	22908	keystroke_Key.space	Key.space	n/a
11.7235	0.0605	23447	keystroke_j	j	n/a
11.874	0.075	23748	keystroke_u	u	n/a
12.1135	0.045	24227	keystroke_m	m	n/a
12.2785	0.09	24557	keystroke_p	p	n/a
12.4885	0.0595	24977	keystroke_s	s	n/a
12.6085	0.075	25217	keystroke_Key.space	Key.space	n/a
12.8335	0.09	25667	keystroke_o	o	n/a
12.9835	0.045	25967	keystroke_v	v	n/a
13.1335	0.12	26267	keystroke_e	e	n/a
13.1785	0.12	26357	keystroke_r	r	n/a
13.2835	0.075	26567	keystroke_Key.space	Key.space	n/a
13.4185	0.105	26837	keystroke_a	a	n/a
13.5085	0.09	27017	keystroke_Key.space	Key.space	n/a
13.9435	0.075	27887	keystroke_l	l	n/a
14.049	0.075	28098	keystroke_a	a	n/a
14.229	0.075	28458	keystroke_z	z	n/a
14.499	0.06	28998	keystroke_y	y	n/a
14.604	0.0595	29208	keystroke_Key.space	Key.space	n/a
15.174	0.029	30348	keystroke_d	d	n/a
15.264	0.089	30528	keystroke_o	o	n/a
15.368	0.06	30736	keystroke_g	g	n/a
15.833	0.075	31666	keystroke_Key.enter	Key.enter	n/a
15.916	10.6	31832	prompt	n/a	programme participant official teach\n
16.9885	0.075	33977	keystroke_p	p	n/a
17.1685	0.045	34337	keystroke_r	r	n/a
17.2285	0.09	34457	keystroke_o	o	n/a
17.5435	0.06	35087	keystroke_g	g	n/a
17.7235	0.045	35447	keystroke_r	r	n/a
17.8885	0.09	35777	keystroke_a	a	n/a
18.594	0.0595	37188	keystroke_m	m	n/a
18.7435	0.075	37487	keystroke_m	m	n/a
19.0735	0.06	38147	keystroke_e	e	n/a
19.2235	0.06	38447	keystroke_Key.space	Key.space	n/a
19.614	0.075	39228	keystroke_p	p	n/a
19.749	0.09	39498	keystroke_a	a	n/a
19.914	0.06	39828	keystroke_r	r	n/a
20.094	0.06	40188	keystroke_t	t	n/a
20.214	0.075	40428	keystroke_i	i	n/a
20.438	0.031	40876	keystroke_c	c	n/a
20.453	0.075	40906	keystroke_i	i	n/a
20.723	0.105	41446	keystroke_p	p	n/a
21.0235	0.09	42047	keystroke_a	a	n/a
21.1585	0.075	42317	keystroke_n	n	n/a
21.2935	0.075	42587	keystroke_t	t	n/a
21.3985	0.075	42797	keystroke_Key.space	Key.space	n/a
23.3185	0.09	46637	keystroke_o	o	n/a
23.5285	0.03	47057	keystroke_f	f	n/a
23.6035	0.075	47207	keystroke_f	f	n/a
23.7085	0.075	47417	keystroke_i	i	n/a
23.7985	0.06	47597	keystroke_c	c	n/a
23.8735	0.075	47747	keystroke_i	i	n/a
23.9635	0.075	47927	keystroke_a	a	n/a
24.1585	0.105	48317	keystroke_l	l	n/a
24.3835	0.09	48767	keystroke_Key.space	Key.space	n/a
25.313	0.135	50626	keystroke_t	t	n/a
25.388	0.121	50776	keystroke_e	e	n/a
25.688	0.12	51376	keystroke_a	a	n/a
25.763	0.076	51526	keystroke_c	c	n/a
25.898	0.121	51796	keystroke_h	h	n/a
26.453	0.06	52906	keystroke_Key.enter	Key.enter	n/a
26.521	8.6795	53042	prompt	n/a	cleaner courtesy arrange study\n
27.2785	0.045	54557	keystroke_c	c	n/a
27.5485	0.09	55097	keystroke_l	l	n/a
27.698	0.06	55396	keystroke_e	e	n/a
27.8635	0.09	55727	keystroke_a	a	n/a
27.9985	0.075	55997	keystroke_n	n	n/a
28.1635	0.09	56327	keystroke_e	e	n/a
28.2535	0.105	56507	keystroke_r	r	n/a
28.3885	0.105	56777	keystroke_Key.space	Key.space	n/a
29.003	0.06	58006	keystroke_c	c	n/a
29.198	0.105	58396	keystroke_o	o	n/a
29.288	0.075	58576	keystroke_u	u	n/a
29.4685	0.0595	58937	keystroke_r	r	n/a
29.828	0.045	59656	keystroke_t	t	n/a
29.993	0.06	59986	keystroke_e	e	n/a
30.1885	0.0595	60377	keystroke_s	s	n/a
30.8935	0.045	61787	keystroke_y	y	n/a
31.0135	0.075	62027	keystroke_Key.space	Key.space	n/a
31.3435	0.075	62687	keystroke_a	a	n/a
31.6135	0.015	63227	keystroke_r	r	n/a
31.7035	0.075	63407	keystroke_r	r	n/a
31.8685	0.105	63737	keystroke_a	a	n/a
32.0335	0.06	64067	keystroke_n	n	n/a
32.2135	0.12	64427	keystroke_g	g	n/a
32.3035	0.075	64607	keystroke_e	e	n/a
32.4535	0.09	64907	keystroke_Key.space	Key.space	n/a
33.279	0.06	66558	keystroke_s	s	n/a
33.519	0.075	67038	keystroke_t	t	n/a
33.804	0.09	67608	keystroke_u	u	n/a
33.984	0.06	67968	keystroke_d	d	n/a
34.239	0.06	68478	keystroke_y	y	n/a
35.109	0.09	70218	keystroke_Key.enter	Key.enter	n/a
35.2035	9.717	70407	prompt	n/a	breakfast lending definitions storage\n
36.1735	0.045	72347	keystroke_b	b	n/a
36.3385	0.12	72677	keystroke_r	r	n/a
36.4135	0.075	72827	keystroke_e	e	n/a
36.5785	0.0905	73157	keystroke_a	a	n/a
36.789	0.06	73578	keystroke_k	k	n/a
37.134	0.06	74268	keystroke_f	f	n/a
37.2985	0.09	74597	keystroke_a	a	n/a
37.4935	0.06	74987	keystroke_s	s	n/a
37.703	0.0755	75406	keystroke_t	t	n/a
37.8085	0.075	75617	keystroke_Key.space	Key.space	n/a
38.2585	0.105	76517	keystroke_l	l	n/a
38.5435	0.015	77087	keystroke_e	e	n/a
38.6335	0.0455	77267	keystroke_n	n	n/a
39.084	0.075	78168	keystroke_d	d	n/a
39.279	0.105	78558	keystroke_i	i	n/a
39.339	0.09	78678	keystroke_n	n	n/a
39.444	0.06	78888	keystroke_g	g	n/a
39.549	0.09	79098	keystroke_Key.space	Key.space	n/a
40.149	0.075	80298	keystroke_d	d	n/a
40.389	0.06	80778	keystroke_e	e	n/a
40.884	0.06	81768	keystroke_f	f	n/a
41.049	0.075	82098	keystroke_i	i	n/a
41.244	0.06	82488	keystroke_n	n	n/a
41.469	0.09	82938	keystroke_i	i	n/a
41.604	0.06	83208	keystroke_t	t	n/a
41.754	0.09	83508	keystroke_i	i	n/a
41.934	0.09	83868	keystroke_o	o	n/a
42.159	0.075	84318	keystroke_n	n	n/a
42.354	0.06	84708	keystroke_s	s	n/a
42.504	0.075	85008	keystroke_Key.space	Key.space	n/a
43.224	0.075	86448	keystroke_s	s	n/a
43.434	0.06	86868	keystroke_t	t	n/a
43.7335	0.06	87467	keystroke_o	o	n/a
43.8685	0.075	87737	keystroke_r	r	n/a
44.034	0.075	88068	keystroke_a	a	n/a
44.274	0.105	88548	keystroke_g	g	n/a
44.349	0.075	88698	keystroke_e	e	n/a
44.859	0.059	89718	keystroke_Key.enter	Key.enter	n/a
44.924	8.5315	89848	prompt	n/a	security coaches glory quick\n
45.968	0.061	91936	keystroke_s	s	n/a
46.149	0.06	92298	keystroke_e	e	n/a
46.344	0.075	92688	keystroke_c	c	n/a
46.509	0.075	93018	keystroke_u	u	n/a
46.6585	0.06	93317	keystroke_r	r	n/a
46.7785	0.0895	93557	keystroke_i	i	n/a
46.913	0.06	93826	keystroke_t	t	n/a
47.093	0.045	94186	keystroke_y	y	n/a
47.198	0.09	94396	keystroke_Key.space	Key.space	n/a
47.994	0.06	95988	keystroke_c	c	n/a
48.174	0.075	96348	keystroke_o	o	n/a
48.294	0.09	96588	keystroke_a	a	n/a
48.564	0.03	97128	keystroke_c	c	n/a
48.8935	0.09	97787	keystroke_h	h	n/a
49.0285	0.075	98057	keystroke_e	e	n/a
49.2385	0.075	98477	keystroke_s	s	n/a
49.3435	0.06	98687	keystroke_Key.space	Key.space	n/a
50.049	0.06	100098	keystroke_g	g	n/a
50.214	0.075	100428	keystroke_l	l	n/a
50.409	0.075	100818	keystroke_o	o	n/a
50.679	0.075	101358	keystroke_r	r	n/a
50.919	0.06	101838	keystroke_y	y	n/a
51.023	0.091	102046	keystroke_Key.space	Key.space	n/a
51.999	0.06	103998	keystroke_q	q	n/a
52.149	0.0745	104298	keystroke_u	u	n/a
52.3585	0.06	104717	keystroke_i	i	n/a
52.4935	0.06	104987	keystroke_c	c	n/a
52.749	0.0745	105498	keystroke_k	k	n/a
53.3935	0.06	106787	keystroke_Key.enter	Key.enter	n/a
53.459	10.062	106918	prompt	n/a	chile attempting outputs somehow\n
54.2785	0.075	108557	keystroke_c	c	n/a
54.4435	0.105	108887	keystroke_h	h	n/a
54.5345	0.104	109069	keystroke_i	i	n/a
54.7885	0.09	109577	keystroke_l	l	n/a
54.924	0.06	109848	keystroke_e	e	n/a
55.043	0.076	110086	keystroke_Key.space	Key.space	n/a
55.389	0.105	110778	keystroke_a	a	n/a
55.9435	0.015	111887	keystroke_t	t	n/a
55.9735	0.045	111947	keystroke_t	t	n/a
56.8285	0.06	113657	keystroke_e	e	n/a
57.0385	0.061	114077	keystroke_m	m	n/a
57.2185	0.09	114437	keystroke_p	p	n/a
57.3685	0.075	114737	keystroke_t	t	n/a
57.5795	0.09	115159	keystroke_i	i	n/a
57.804	0.075	115608	keystroke_n	n	n/a
57.909	0.075	115818	keystroke_g	g	n/a
58.014	0.075	116028	keystroke_Key.space	Key.space	n/a
59.229	0.135	118458	keystroke_o	o	n/a
59.319	0.09	118638	keystroke_u	u	n/a
59.469	0.09	118938	keystroke_t	t	n/a
59.769	0.12	119538	keystroke_p	p	n/a
59.844	0.105	119688	keystroke_u	u	n/a
60.069	0.06	120138	keystroke_t	t	n/a
60.264	0.075	120528	keystroke_s	s	n/a
60.3985	0.075	120797	keystroke_Key.space	Key.space	n/a
61.314	0.045	122628	keystroke_s	s	n/a
61.824	0.09	123648	keystroke_o	o	n/a
62.0485	0.06	124097	keystroke_m	m	n/a
62.2135	0.06	124427	keystroke_e	e	n/a
62.3785	0.06	124757	keystroke_h	h	n/a
62.5435	0.09	125087	keystroke_o	o	n/a
62.6935	0.075	125387	keystroke_w	w	n/a
63.4435	0.075	126887	keystroke_Key.enter	Key.enter	n/a
63.524	8.066	127048	prompt	n/a	recognized sucking ratings nodes\n
64.404	0.105	128808	keystroke_r	r	n/a
64.479	0.09	128958	keystroke_e	e	n/a
64.704	0.06	129408	keystroke_c	c	n/a
65.139	0.105	130278	keystroke_o	o	n/a
65.4685	0.045	130937	keystroke_g	g	n/a
65.7235	0.045	131447	keystroke_n	n	n/a
65.8735	0.06	131747	keystroke_i	i	n/a
66.1135	0.075	132227	keystroke_z	z	n/a
66.3835	0.06	132767	keystroke_e	e	n/a
66.5935	0.0605	133187	keystroke_d	d	n/a
66.699	0.074	133398	keystroke_Key.space	Key.space	n/a
67.254	0.09	134508	keystroke_s	s	n/a
67.464	0.06	134928	keystroke_u	u	n/a
67.7035	0.075	135407	keystroke_c	c	n/a
67.853	0.0905	135706	keystroke_k	k	n/a
68.094	0.105	136188	keystroke_i	i	n/a
68.169	0.075	136338	keystroke_n	n	n/a
68.274	0.075	136548	keystroke_g	g	n/a
68.379	0.075	136758	keystroke_Key.space	Key.space	n/a
69.0235	0.105	138047	keystroke_r	r	n/a
69.1435	0.075	138287	keystroke_a	a	n/a
69.2935	0.075	138587	keystroke_t	t	n/a
69.4285	0.1055	138857	keystroke_i	i	n/a
69.474	0.105	138948	keystroke_n	n	n/a
69.549	0.045	139098	keystroke_g	g	n/a
69.744	0.06	139488	keystroke_s	s	n/a
69.834	0.075	139668	keystroke_Key.space	Key.space	n/a
70.418	0.075	140836	keystroke_n	n	n/a
70.539	0.1045	141078	keystroke_o	o	n/a
70.823	0.166	141646	keystroke_d	d	n/a
71.0335	0.09	142067	keystroke_e	e	n/a
71.2435	0.09	142487	keystroke_s	s	n/a
71.5135	0.075	143027	keystroke_Key.enter	Key.enter	n/a
71.5965	11.154	143193	prompt	n/a	hash phentermine fell models\n
72.399	0.0595	144798	keystroke_h	h	n/a
72.4735	0.09	144947	keystroke_a	a	n/a
72.729	0.06	145458	keystroke_s	s	n/a
72.819	0.075	145638	keystroke_h	h	n/a
73.044	0.09	146088	keystroke_Key.space	Key.space	n/a
73.764	0.09	147528	keystroke_p	p	n/a
74.934	0.075	149868	keystroke_h	h	n/a
75.5635	0.075	151127	keystroke_e	e	n/a
75.8635	0.09	151727	keystroke_n	n	n/a
76.7785	0.105	153557	keystroke_t	t	n/a
77.709	0.09	155418	keystroke_e	e	n/a
77.949	0.06	155898	keystroke_r	r	n/a
78.6385	0.06	157277	keystroke_m	m	n/a
78.8335	0.09	157667	keystroke_i	i	n/a
79.0885	0.075	158177	keystroke_n	n	n/a
79.3435	0.06	158687	keystroke_e	e	n/a
79.478	0.075	158956	keystroke_Key.space	Key.space	n/a
80.123	0.135	160246	keystroke_f	f	n/a
80.213	0.106	160426	keystroke_e	e	n/a
80.4985	0.045	160997	keystroke_l	l	n/a
80.6185	0.075	161237	keystroke_l	l	n/a
80.8585	0.06	161717	keystroke_Key.space	Key.space	n/a
81.323	0.15	162646	keystroke_m	m	n/a
81.413	0.106	162826	keystroke_o	o	n/a
81.653	0.121	163306	keystroke_d	d	n/a
81.9385	0.06	163877	keystroke_e	e	n/a
82.0585	0.1355	164117	keystroke_l	l	n/a
82.239	0.075	164478	keystroke_s	s	n/a
82.6735	0.075	165347	keystroke_Key.enter	Key.enter	n/a
82.7535	12.4015	165507	prompt	n/a	adventure informational sydney attacked\n
83.5435	0.09	167087	keystroke_a	a	n/a
83.7535	0.06	167507	keystroke_d	d	n/a
83.9935	0.045	167987	keystroke_v	v	n/a
84.1585	0.06	168317	keystroke_e	e	n/a
84.2335	0.06	168467	keystroke_n	n	n/a
84.3985	0.03	168797	keystroke_t	t	n/a
84.5035	0.075	169007	keystroke_u	u	n/a
84.713	0.0905	169426	keystroke_r	r	n/a
84.773	0.09	169546	keystroke_e	e	n/a
84.893	0.06	169786	keystroke_Key.space	Key.space	n/a
85.4185	0.135	170837	keystroke_i	i	n/a
85.4935	0.105	170987	keystroke_n	n	n/a
85.7335	0.075	171467	keystroke_f	f	n/a
85.8535	0.075	171707	keystroke_o	o	n/a
86.738	0.075	173476	keystroke_r	r	n/a
86.828	0.075	173656	keystroke_m	m	n/a
86.948	0.1055	173896	keystroke_a	a	n/a
87.038	0.076	174076	keystroke_t	t	n/a
87.129	0.1045	174258	keystroke_i	i	n/a
87.1885	0.09	174377	keystroke_o	o	n/a
87.3535	0.075	174707	keystroke_n	n	n/a
87.4885	0.045	174977	keystroke_s	s	n/a
87.5785	0.1045	175157	keystroke_l	l	n/a
87.984	0.045	175968	keystroke_Key.backspace	Key.backspace	n/a
88.0885	0.0905	176177	keystroke_Key.backspace	Key.backspace	n/a
88.224	0.105	176448	keystroke_a	a	n/a
88.344	0.09	176688	keystroke_l	l	n/a
88.7185	0.015	177437	keystroke_Key.space	Key.space	n/a
89.918	0.09	179836	keystroke_s	s	n/a
90.4285	0.075	180857	keystroke_y	y	n/a
91.089	0.06	182178	keystroke_d	d	n/a
91.359	0.045	182718	keystroke_n	n	n/a
91.569	0.06	183138	keystroke_e	e	n/a
92.289	0.075	184578	keystroke_y	y	n/a
92.424	0.09	184848	keystroke_Key.space	Key.space	n/a
93.0085	0.0905	186017	keystroke_a	a	n/a
93.249	0.045	186498	keystroke_t	t	n/a
93.354	0.06	186708	keystroke_t	t	n/a
93.5485	0.12	187097	keystroke_a	a	n/a
93.6235	0.06	187247	keystroke_c	c	n/a
93.7885	0.09	187577	keystroke_k	k	n/a
93.9085	0.06	187817	keystroke_e	e	n/a
94.0735	0.075	188147	keystroke_d	d	n/a
95.079	0.075	190158	keystroke_Key.enter	Key.enter	n/a
95.1585	8.307	190317	prompt	n/a	arms freeze towards holders\n
95.934	0.105	191868	keystroke_a	a	n/a
96.3385	0.06	192677	keystroke_r	r	n/a
96.5185	0.075	193037	keystroke_m	m	n/a
96.774	0.0595	193548	keystroke_s	s	n/a
96.8935	0.075	193787	keystroke_Key.space	Key.space	n/a
97.5085	0.06	195017	keystroke_f	f	n/a
97.6885	0.0755	195377	keystroke_r	r	n/a
97.869	0.045	195738	keystroke_e	e	n/a
98.004	0.06	196008	keystroke_e	e	n/a
98.319	0.075	196638	keystroke_z	z	n/a
98.544	0.075	197088	keystroke_e	e	n/a
98.694	0.09	197388	keystroke_Key.space	Key.space	n/a
99.594	0.045	199188	keystroke_t	t	n/a
99.984	0.075	199968	keystroke_o	o	n/a
100.164	0.075	200328	keystroke_w	w	n/a
100.359	0.06	200718	keystroke_a	a	n/a
100.584	0.09	201168	keystroke_r	r	n/a
100.869	0.15	201738	keystroke_d	d	n/a
100.959	0.105	201918	keystroke_s	s	n/a
101.169	0.075	202338	keystroke_Key.space	Key.space	n/a
101.9185	0.045	203837	keystroke_h	h	n/a
102.1135	0.045	204227	keystroke_o	o	n/a
102.294	0.075	204588	keystroke_l	l	n/a
102.399	0.075	204798	keystroke_d	d	n/a
102.579	0.1345	205158	keystroke_e	e	n/a
102.6835	0.09	205367	keystroke_r	r	n/a
102.9085	0.06	205817	keystroke_s	s	n/a
103.3735	0.09	206747	keystroke_Key.enter	Key.enter	n/a
103.4685	7.872	206937	prompt	n/a	unsigned display murder option\n
104.3935	0.06	208787	keystroke_u	u	n/a
104.6035	0.0595	209207	keystroke_n	n	n/a
104.783	0.06	209566	keystroke_s	s	n/a
104.828	0.09	209656	keystroke_i	i	n/a
104.993	0.06	209986	keystroke_g	g	n/a
105.083	0.09	210166	keystroke_n	n	n/a
105.233	0.06	210466	keystroke_e	e	n/a
105.4285	0.075	210857	keystroke_d	d	n/a
105.5335	0.0755	211067	keystroke_Key.space	Key.space	n/a
106.344	0.06	212688	keystroke_d	d	n/a
106.449	0.0745	212898	keystroke_i	i	n/a
106.569	0.06	213138	keystroke_s	s	n/a
106.719	0.1345	213438	keystroke_p	p	n/a
106.8235	0.105	213647	keystroke_l	l	n/a
107.0035	0.075	214007	keystroke_a	a	n/a
107.3335	0.075	214667	keystroke_y	y	n/a
107.634	0.06	215268	keystroke_Key.space	Key.space	n/a
108.4135	0.045	216827	keystroke_m	m	n/a
108.6235	0.075	217247	keystroke_u	u	n/a
108.8935	0.045	217787	keystroke_r	r	n/a
109.104	0.06	218208	keystroke_d	d	n/a
109.314	0.12	218628	keystroke_e	e	n/a
109.419	0.03	218838	keystroke_r	r	n/a
109.553	0.06	219106	keystroke_Key.space	Key.space	n/a
110.0935	0.075	220187	keystroke_o	o	n/a
110.3485	0.015	220697	keystroke_p	p	n/a
110.3935	0.06	220787	keystroke_t	t	n/a
110.5135	0.105	221027	keystroke_i	i	n/a
110.5735	0.1055	221147	keystroke_o	o	n/a
110.754	0.0745	221508	keystroke_n	n	n/a
111.2485	0.09	222497	keystroke_Key.enter	Key.enter	n/a
111.344	9.3415	222688	prompt	n/a	focused watched riverside effective\n
112.4035	0.045	224807	keystroke_f	f	n/a
112.584	0.089	225168	keystroke_o	o	n/a
112.718	0.06	225436	keystroke_c	c	n/a
112.883	0.09	225766	keystroke_u	u	n/a
113.288	0.045	226576	keystroke_s	s	n/a
113.453	0.045	226906	keystroke_e	e	n/a
113.6185	0.06	227237	keystroke_d	d	n/a
113.7085	0.075	227417	keystroke_Key.space	Key.space	n/a
113.9485	0.06	227897	keystroke_w	w	n/a
114.2335	0.09	228467	keystroke_a	a	n/a
114.4885	0.06	228977	keystroke_t	t	n/a
114.728	0.0605	229456	keystroke_c	c	n/a
114.818	0.06	229636	keystroke_h	h	n/a
114.984	0.06	229968	keystroke_e	e	n/a
115.134	0.105	230268	keystroke_d	d	n/a
115.254	0.06	230508	keystroke_Key.space	Key.space	n/a
116.0935	0.09	232187	keystroke_r	r	n/a
116.3935	0.075	232787	keystroke_i	i	n/a
116.5585	0.03	233117	keystroke_v	v	n/a
116.6785	0.12	233357	keystroke_e	e	n/a
116.7385	0.075	233477	keystroke_r	r	n/a
116.949	0.075	233898	keystroke_s	s	n/a
117.054	0.09	234108	keystroke_i	i	n/a
117.159	0.06	234318	keystroke_d	d	n/a
117.309	0.09	234618	keystroke_e	e	n/a
117.414	0.075	234828	keystroke_Key.space	Key.space	n/a
118.014	0.075	236028	keystroke_e	e	n/a
118.224	0.03	236448	keystroke_f	f	n/a
118.329	0.075	236658	keystroke_f	f	n/a
118.464	0.165	236928	keystroke_e	e	n/a
118.584	0.03	237168	keystroke_c	c	n/a
119.543	0.091	239086	keystroke_t	t	n/a
119.7235	0.105	239447	keystroke_i	i	n/a
119.8435	0.09	239687	keystroke_v	v	n/a
119.9785	0.075	239957	keystroke_e	e	n/a
120.1285	0.075	240257	keystroke_Key.space	Key.space	n/a
120.6235	0.0595	241247	keystroke_Key.enter	Key.enter	n/a
120.69	9.385	241380	prompt	n/a	tumor calling substitute aims\n
121.688	0.0605	243376	keystroke_t	t	n/a
121.928	0.06	243856	keystroke_u	u	n/a
122.153	0.0455	244306	keystroke_m	m	n/a
122.363	0.105	244726	keystroke_o	o	n/a
122.5135	0.0595	245027	keystroke_r	r	n/a
122.618	0.091	245236	keystroke_Key.space	Key.space	n/a
123.1435	0.0755	246287	keystroke_c	c	n/a
123.204	0.12	246408	keystroke_a	a	n/a
123.384	0.09	246768	keystroke_l	l	n/a
123.534	0.06	247068	keystroke_l	l	n/a
123.759	0.105	247518	keystroke_i	i	n/a
123.819	0.075	247638	keystroke_n	n	n/a
123.909	0.075	247818	keystroke_g	g	n/a
124.029	0.09	248058	keystroke_Key.space	Key.space	n/a
124.7485	0.075	249497	keystroke_s	s	n/a
124.9885	0.075	249977	keystroke_u	u	n/a
125.4835	0.045	250967	keystroke_b	b	n/a
125.7385	0.06	251477	keystroke_s	s	n/a
126.0085	0.075	252017	keystroke_t	t	n/a
126.1585	0.075	252317	keystroke_i	i	n/a
126.4135	0.06	252827	keystroke_t	t	n/a
126.5185	0.075	253037	keystroke_u	u	n/a
127.073	0.075	254146	keystroke_t	t	n/a
127.223	0.09	254446	keystroke_e	e	n/a
127.314	0.074	254628	keystroke_Key.space	Key.space	n/a
128.4385	0.09	256877	keystroke_a	a	n/a
128.5435	0.12	257087	keystroke_i	i	n/a
128.6185	0.12	257237	keystroke_m	m	n/a
129.0535	0.045	258107	keystroke_s	s	n/a
129.9985	0.075	259997	keystroke_Key.enter	Key.enter	n/a
130.079	10.526	260158	prompt	n/a	captured agreements correlation mall\n
130.988	0.06	261976	keystroke_c	c	n/a
131.078	0.105	262156	keystroke_a	a	n/a
131.288	0.0755	262576	keystroke_p	p	n/a
131.663	0.045	263326	keystroke_t	t	n/a
131.948	0.0305	263896	keystroke_i	i	n/a
132.6835	0.075	265367	keystroke_Key.backspace	Key.backspace	n/a
132.9085	0.0605	265817	keystroke_u	u	n/a
133.059	0.15	266118	keystroke_r	r	n/a
133.179	0.06	266358	keystroke_e	e	n/a
133.359	0.075	266718	keystroke_d	d	n/a
133.478	0.075	266956	keystroke_Key.space	Key.space	n/a
133.764	0.09	267528	keystroke_a	a	n/a
134.3185	0.06	268637	keystroke_g	g	n/a
134.4985	0.075	268997	keystroke_r	r	n/a
134.6785	0.045	269357	keystroke_e	e	n/a
134.7835	0.045	269567	keystroke_e	e	n/a
134.8735	0.0905	269747	keystroke_m	m	n/a
135.024	0.074	270048	keystroke_e	e	n/a
135.114	0.075	270228	keystroke_n	n	n/a
135.609	0.075	271218	keystroke_t	t	n/a
135.789	0.075	271578	keystroke_s	s	n/a
135.893	0.09	271786	keystroke_Key.space	Key.space	n/a
136.508	0.06	273016	keystroke_c	c	n/a
136.614	0.075	273228	keystroke_o	o	n/a
136.7635	0.045	273527	keystroke_r	r	n/a
136.8685	0.075	273737	keystroke_r	r	n/a
137.0485	0.075	274097	keystroke_e	e	n/a
137.1535	0.09	274307	keystroke_l	l	n/a
137.2885	0.075	274577	keystroke_a	a	n/a
137.4385	0.075	274877	keystroke_t	t	n/a
137.5735	0.105	275147	keystroke_i	i	n/a
137.6185	0.105	275237	keystroke_o	o	n/a
137.8135	0.075	275627	keystroke_n	n	n/a
138.2035	0.075	276407	keystroke_Key.space	Key.space	n/a
138.8335	0.135	277667	keystroke_m	m	n/a
139.1785	0.105	278357	keystroke_a	a	n/a
139.3435	0.12	278687	keystroke_i	i	n/a
139.7635	0.09	279527	keystroke_Key.backspace	Key.backspace	n/a
140.0185	0.09	280037	keystroke_l	l	n/a
140.1535	0.09	280307	keystroke_l	l	n/a
140.543	0.06	281086	keystroke_Key.enter	Key.enter	n/a
140.6085	8.4865	281217	prompt	n/a	reset dish proprietary muslim\n
141.518	0.12	283036	keystroke_r	r	n/a
141.593	0.075	283186	keystroke_e	e	n/a
141.773	0.045	283546	keystroke_s	s	n/a
141.923	0.045	283846	keystroke_e	e	n/a
142.088	0.045	284176	keystroke_t	t	n/a
142.193	0.075	284386	keystroke_Key.space	Key.space	n/a
143.0035	0.06	286007	keystroke_d	d	n/a
143.274	0.0745	286548	keystroke_i	i	n/a
143.5285	0.075	287057	keystroke_s	s	n/a
143.6185	0.075	287237	keystroke_h	h	n/a
143.8435	0.075	287687	keystroke_Key.space	Key.space	n/a
144.4135	0.075	288827	keystroke_p	p	n/a
144.6085	0.075	289217	keystroke_r	r	n/a
144.7135	0.06	289427	keystroke_o	o	n/a
144.8935	0.0745	289787	keystroke_p	p	n/a
145.089	0.09	290178	keystroke_r	r	n/a
145.223	0.09	290446	keystroke_i	i	n/a
146.079	0.089	292158	keystroke_e	e	n/a
146.303	0.06	292606	keystroke_t	t	n/a
146.483	0.12	292966	keystroke_a	a	n/a
146.588	0.12	293176	keystroke_r	r	n/a
146.918	0.09	293836	keystroke_y	y	n/a
147.053	0.09	294106	keystroke_Key.space	Key.space	n/a
147.804	0.0445	295608	keystroke_m	m	n/a
147.9835	0.06	295967	keystroke_u	u	n/a
148.149	0.0595	296298	keystroke_s	s	n/a
148.389	0.1045	296778	keystroke_l	l	n/a
148.4485	0.0905	296897	keystroke_i	i	n/a
148.6885	0.0455	297377	keystroke_m	m	n/a
149.0035	0.09	298007	keystroke_Key.enter	Key.enter	n/a
149.0985	10.9615	298197	prompt	n/a	spending career partnerships bedding\n
149.9185	0.06	299837	keystroke_s	s	n/a
150.0235	0.105	300047	keystroke_p	p	n/a
150.1585	0.06	300317	keystroke_e	e	n/a
151.2835	0.075	302567	keystroke_n	n	n/a
151.433	0.075	302866	keystroke_d	d	n/a
151.568	0.09	303136	keystroke_i	i	n/a
151.613	0.1055	303226	keystroke_n	n	n/a
151.7485	0.06	303497	keystroke_g	g	n/a
151.8535	0.105	303707	keystroke_Key.space	Key.space	n/a
152.3785	0.075	304757	keystroke_c	c	n/a
152.4685	0.105	304937	keystroke_a	a	n/a
152.6935	0.06	305387	keystroke_r	r	n/a
152.9035	0.045	305807	keystroke_e	e	n/a
153.0235	0.0895	306047	keystroke_e	e	n/a
153.218	0.075	306436	keystroke_r	r	n/a
153.323	0.075	306646	keystroke_Key.space	Key.space	n/a
154.343	0.075	308686	keystroke_p	p	n/a
154.4785	0.135	308957	keystroke_a	a	n/a
154.5985	0.0595	309197	keystroke_r	r	n/a
154.763	0.075	309526	keystroke_t	t	n/a
154.9285	0.06	309857	keystroke_n	n	n/a
155.0185	0.06	310037	keystroke_e	e	n/a
155.1985	0.06	310397	keystroke_r	r	n/a
155.5135	0.06	311027	keystroke_s	s	n/a
156.249	0.06	312498	keystroke_h	h	n/a
156.4735	0.06	312947	keystroke_i	i	n/a
156.7435	0.09	313487	keystroke_p	p	n/a
156.9985	0.06	313997	keystroke_s	s	n/a
157.1335	0.0595	314267	keystroke_Key.space	Key.space	n/a
158.2735	0.075	316547	keystroke_b	b	n/a
158.3785	0.06	316757	keystroke_e	e	n/a
158.6485	0.06	317297	keystroke_d	d	n/a
158.7385	0.06	317477	keystroke_d	d	n/a
159.398	0.12	318796	keystroke_i	i	n/a
159.473	0.105	318946	keystroke_n	n	n/a
159.503	0.12	319006	keystroke_g	g	n/a
159.998	0.06	319996	keystroke_Key.enter	Key.enter	n/a
160.064	8.231	320128	prompt	n/a	thinkpad campus cameras allows\n
160.988	0.075	321976	keystroke_t	t	n/a
161.108	0.075	322216	keystroke_h	h	n/a
161.228	0.105	322456	keystroke_i	i	n/a
161.438	0.075	322876	keystroke_n	n	n/a
161.588	0.09	323176	keystroke_k	k	n/a
161.843	0.06	323686	keystroke_p	p	n/a
161.963	0.135	323926	keystroke_a	a	n/a
162.053	0.09	324106	keystroke_d	d	n/a
162.353	0.06	324706	keystroke_Key.space	Key.space	n/a
163.2985	0.09	326597	keystroke_c	c	n/a
163.3735	0.105	326747	keystroke_a	a	n/a
163.4935	0.075	326987	keystroke_m	m	n/a
163.793	0.09	327586	keystroke_p	p	n/a
164.033	0.06	328066	keystroke_u	u	n/a
164.258	0.075	328516	keystroke_s	s	n/a
164.468	0.06	328936	keystroke_Key.space	Key.space	n/a
165.458	0.075	330916	keystroke_c	c	n/a
165.593	0.09	331186	keystroke_a	a	n/a
165.713	0.06	331426	keystroke_m	m	n/a
165.818	0.12	331636	keystroke_e	e	n/a
165.908	0.075	331816	keystroke_r	r	n/a
166.088	0.075	332176	keystroke_a	a	n/a
166.328	0.06	332656	keystroke_s	s	n/a
166.463	0.06	332926	keystroke_Key.space	Key.space	n/a
166.913	0.09	333826	keystroke_a	a	n/a
167.138	0.06	334276	keystroke_l	l	n/a
167.273	0.06	334546	keystroke_l	l	n/a
167.453	0.06	334906	keystroke_o	o	n/a
167.588	0.075	335176	keystroke_w	w	n/a
167.798	0.06	335596	keystroke_s	s	n/a
168.218	0.075	336436	keystroke_Key.enter	Key.enter	n/a
168.298	6.792	336596	prompt	n/a	scanning tube inch editors\n
169.043	0.12	338086	keystroke_s	s	n/a
169.268	0.06	338536	keystroke_c	c	n/a
169.388	0.075	338776	keystroke_a	a	n/a
169.688	0.045	339376	keystroke_n	n	n/a
169.913	0.045	339826	keystroke_n	n	n/a
169.973	0.09	339946	keystroke_i	i	n/a
170.033	0.075	340066	keystroke_n	n	n/a
170.153	0.075	340306	keystroke_g	g	n/a
170.258	0.09	340516	keystroke_Key.space	Key.space	n/a
170.798	0.06	341596	keystroke_t	t	n/a
170.918	0.075	341836	keystroke_u	u	n/a
171.2635	0.075	342527	keystroke_b	b	n/a
171.3685	0.075	342737	keystroke_e	e	n/a
171.5035	0.075	343007	keystroke_Key.space	Key.space	n/a
172.0135	0.135	344027	keystroke_i	i	n/a
172.0885	0.09	344177	keystroke_n	n	n/a
172.4035	0.075	344807	keystroke_c	c	n/a
172.5985	0.09	345197	keystroke_h	h	n/a
172.8235	0.09	345647	keystroke_Key.space	Key.space	n/a
173.5585	0.015	347117	keystroke_e	e	n/a
173.7085	0.06	347417	keystroke_d	d	n/a
173.8735	0.06	347747	keystroke_i	i	n/a
174.0385	0.06	348077	keystroke_t	t	n/a
174.1585	0.09	348317	keystroke_o	o	n/a
174.5035	0.06	349007	keystroke_r	r	n/a
174.6685	0.075	349337	keystroke_s	s	n/a
175.028	0.06	350056	keystroke_Key.enter	Key.enter	n/a
175.0935	8.847	350187	prompt	n/a	candidates ivory yorkshire owns\n
175.898	0.1055	351796	keystroke_c	c	n/a
175.9885	0.105	351977	keystroke_a	a	n/a
176.1235	0.09	352247	keystroke_n	n	n/a
176.3185	0.09	352637	keystroke_d	d	n/a
176.4385	0.06	352877	keystroke_i	i	n/a
176.5135	0.09	353027	keystroke_d	d	n/a
176.7085	0.074	353417	keystroke_a	a	n/a
176.8875	0.106	353775	keystroke_t	t	n/a
176.9625	0.0755	353925	keystroke_e	e	n/a
177.173	0.075	354346	keystroke_s	s	n/a
177.263	0.0745	354526	keystroke_Key.space	Key.space	n/a
177.743	0.09	355486	keystroke_i	i	n/a
178.073	0.06	356146	keystroke_v	v	n/a
178.178	0.075	356356	keystroke_o	o	n/a
178.373	0.061	356746	keystroke_r	r	n/a
178.569	0.074	357138	keystroke_y	y	n/a
178.673	0.09	357346	keystroke_Key.space	Key.space	n/a
179.7685	0.06	359537	keystroke_y	y	n/a
180.1135	0.075	360227	keystroke_o	o	n/a
180.3235	0.0595	360647	keystroke_r	r	n/a
180.578	0.06	361156	keystroke_k	k	n/a
180.7585	0.045	361517	keystroke_s	s	n/a
180.9985	0.075	361997	keystroke_h	h	n/a
181.1485	0.075	362297	keystroke_i	i	n/a
181.5985	0.15	363197	keystroke_r	r	n/a
181.6735	0.105	363347	keystroke_e	e	n/a
181.8685	0.09	363737	keystroke_Key.space	Key.space	n/a
182.693	0.045	365386	keystroke_o	o	n/a
182.828	0.0605	365656	keystroke_w	w	n/a
183.083	0.06	366166	keystroke_n	n	n/a
183.233	0.06	366466	keystroke_s	s	n/a
183.8935	0.045	367787	keystroke_Key.enter	Key.enter	n/a
183.9455	8.4845	367891	prompt	n/a	efficiently packages jokes tracked\n
184.778	0.045	369556	keystroke_e	e	n/a
185.213	0.045	370426	keystroke_f	f	n/a
185.318	0.06	370636	keystroke_f	f	n/a
185.423	0.0755	370846	keystroke_i	i	n/a
185.5735	0.045	371147	keystroke_c	c	n/a
185.6485	0.075	371297	keystroke_i	i	n/a
185.7685	0.0895	371537	keystroke_e	e	n/a
185.903	0.06	371806	keystroke_n	n	n/a
186.038	0.075	372076	keystroke_t	t	n/a
186.188	0.105	372376	keystroke_l	l	n/a
186.308	0.0755	372616	keystroke_y	y	n/a
186.4435	0.075	372887	keystroke_Key.space	Key.space	n/a
186.818	0.06	373636	keystroke_p	p	n/a
186.908	0.09	373816	keystroke_a	a	n/a
187.118	0.045	374236	keystroke_c	c	n/a
187.223	0.09	374446	keystroke_k	k	n/a
187.388	0.09	374776	keystroke_a	a	n/a
187.598	0.105	375196	keystroke_g	g	n/a
187.808	0.075	375616	keystroke_e	e	n/a
188.048	0.06	376096	keystroke_s	s	n/a
188.138	0.075	376276	keystroke_Key.space	Key.space	n/a
189.023	0.06	378046	keystroke_j	j	n/a
189.203	0.0745	378406	keystroke_o	o	n/a
189.398	0.0595	378796	keystroke_k	k	n/a
189.533	0.06	379066	keystroke_e	e	n/a
189.728	0.0455	379456	keystroke_s	s	n/a
189.833	0.0605	379666	keystroke_Key.space	Key.space	n/a
190.5535	0.06	381107	keystroke_t	t	n/a
190.718	0.045	381436	keystroke_r	r	n/a
190.883	0.12	381766	keystroke_a	a	n/a
191.033	0.06	382066	keystroke_c	c	n/a
191.2585	0.06	382517	keystroke_k	k	n/a
191.5135	0.075	383027	keystroke_e	e	n/a
191.7525	0.105	383505	keystroke_d	d	n/a
192.3525	0.075	384705	keystroke_Key.enter	Key.enter	n/a
192.433	7.647	384866	prompt	n/a	laundry working previous mandatory\n
193.373	0.06	386746	keystroke_l	l	n/a
193.478	0.075	386956	keystroke_a	a	n/a
193.628	0.09	387256	keystroke_u	u	n/a
193.853	0.06	387706	keystroke_n	n	n/a
194.0035	0.06	388007	keystroke_d	d	n/a
194.2285	0.06	388457	keystroke_r	r	n/a
194.4235	0.075	388847	keystroke_y	y	n/a
194.5585	0.09	389117	keystroke_Key.space	Key.space	n/a
195.143	0.06	390286	keystroke_w	w	n/a
195.218	0.105	390436	keystroke_o	o	n/a
195.353	0.06	390706	keystroke_r	r	n/a
195.473	0.105	390946	keystroke_k	k	n/a
195.713	0.09	391426	keystroke_i	i	n/a
195.773	0.075	391546	keystroke_n	n	n/a
195.863	0.045	391726	keystroke_g	g	n/a
195.968	0.09	391936	keystroke_Key.space	Key.space	n/a
196.5235	0.09	393047	keystroke_p	p	n/a
196.718	0.09	393436	keystroke_r	r	n/a
196.778	0.075	393556	keystroke_e	e	n/a
196.988	0.045	393976	keystroke_v	v	n/a
197.123	0.075	394246	keystroke_i	i	n/a
197.303	0.12	394606	keystroke_o	o	n/a
197.378	0.09	394756	keystroke_u	u	n/a
197.543	0.06	395086	keystroke_s	s	n/a
197.648	0.06	395296	keystroke_Key.space	Key.space	n/a
198.518	0.06	397036	keystroke_m	m	n/a
198.638	0.09	397276	keystroke_a	a	n/a
198.758	0.075	397516	keystroke_n	n	n/a
198.878	0.075	397756	keystroke_d	d	n/a
199.073	0.06	398146	keystroke_a	a	n/a
199.298	0.06	398596	keystroke_t	t	n/a
199.4635	0.09	398927	keystroke_o	o	n/a
199.5385	0.075	399077	keystroke_r	r	n/a
199.7335	0.075	399467	keystroke_y	y	n/a
200.0185	0.0595	400037	keystroke_Key.enter	Key.enter	n/a
200.083	9.297	400166	prompt	n/a	satisfaction lanka services mixing\n
201.0535	0.045	402107	keystroke_s	s	n/a
201.188	0.075	402376	keystroke_a	a	n/a
201.368	0.075	402736	keystroke_t	t	n/a
201.488	0.09	402976	keystroke_i	i	n/a
201.668	0.06	403336	keystroke_s	s	n/a
201.878	0.045	403756	keystroke_f	f	n/a
202.0435	0.1495	404087	keystroke_a	a	n/a
202.193	0.075	404386	keystroke_c	c	n/a
202.418	0.075	404836	keystroke_t	t	n/a
202.508	0.105	405016	keystroke_i	i	n/a
202.568	0.09	405136	keystroke_o	o	n/a
202.733	0.075	405466	keystroke_n	n	n/a
202.913	0.09	405826	keystroke_Key.space	Key.space	n/a
203.513	0.09	407026	keystroke_l	l	n/a
203.648	0.09	407296	keystroke_a	a	n/a
203.933	0.06	407866	keystroke_n	n	n/a
204.128	0.09	408256	keystroke_k	k	n/a
204.308	0.105	408616	keystroke_a	a	n/a
204.443	0.09	408886	keystroke_Key.space	Key.space	n/a
204.983	0.075	409966	keystroke_s	s	n/a
205.178	0.12	410356	keystroke_e	e	n/a
205.268	0.06	410536	keystroke_r	r	n/a
205.463	0.045	410926	keystroke_v	v	n/a
205.583	0.09	411166	keystroke_i	i	n/a
205.808	0.105	411616	keystroke_c	c	n/a
205.899	0.074	411798	keystroke_e	e	n/a
206.093	0.075	412186	keystroke_s	s	n/a
206.183	0.075	412366	keystroke_Key.space	Key.space	n/a
207.0985	0.105	414197	keystroke_m	m	n/a
207.7735	0.09	415547	keystroke_i	i	n/a
208.2835	0.045	416567	keystroke_x	x	n/a
208.3435	0.06	416687	keystroke_i	i	n/a
208.3585	0.09	416717	keystroke_n	n	n/a
208.7175	0.09	417435	keystroke_g	g	n/a
209.333	0.045	418666	keystroke_Key.enter	Key.enter	n/a
209.383	10.302	418766	prompt	n/a	betting objective outputs exhibit\n
210.263	0.0605	420526	keystroke_b	b	n/a
210.353	0.0605	420706	keystroke_e	e	n/a
210.518	0.0455	421036	keystroke_t	t	n/a
210.623	0.09	421246	keystroke_t	t	n/a
210.818	0.135	421636	keystroke_i	i	n/a
210.893	0.105	421786	keystroke_n	n	n/a
211.013	0.06	422026	keystroke_g	g	n/a
211.103	0.09	422206	keystroke_Key.space	Key.space	n/a
211.6885	0.075	423377	keystroke_o	o	n/a
211.9435	0.06	423887	keystroke_b	b	n/a
212.1835	0.045	424367	keystroke_j	j	n/a
212.2885	0.15	424577	keystroke_e	e	n/a
212.3785	0.09	424757	keystroke_c	c	n/a
213.1135	0.09	426227	keystroke_t	t	n/a
213.3235	0.09	426647	keystroke_i	i	n/a
213.6085	0.105	427217	keystroke_v	v	n/a
213.6985	0.075	427397	keystroke_e	e	n/a
213.8785	0.075	427757	keystroke_Key.space	Key.space	n/a
214.9885	0.045	429977	keystroke_o	o	n/a
215.1535	0.075	430307	keystroke_u	u	n/a
215.3485	0.075	430697	keystroke_t	t	n/a
215.5285	0.075	431057	keystroke_p	p	n/a
215.7235	0.075	431447	keystroke_u	u	n/a
215.8585	0.06	431717	keystroke_t	t	n/a
216.0985	0.06	432197	keystroke_s	s	n/a
216.2485	0.075	432497	keystroke_Key.space	Key.space	n/a
217.088	0.06	434176	keystroke_e	e	n/a
217.343	0.06	434686	keystroke_x	x	n/a
217.5385	0.045	435077	keystroke_h	h	n/a
217.6885	0.075	435377	keystroke_i	i	n/a
217.8985	0.045	435797	keystroke_b	b	n/a
218.0485	0.075	436097	keystroke_i	i	n/a
218.1535	0.075	436307	keystroke_t	t	n/a
219.623	0.06	439246	keystroke_Key.enter	Key.enter	n/a
219.688	7.362	439376	prompt	n/a	legendary rage tampa recall\n
220.568	0.06	441136	keystroke_l	l	n/a
220.733	0.075	441466	keystroke_e	e	n/a
220.943	0.03	441886	keystroke_g	g	n/a
221.093	0.045	442186	keystroke_e	e	n/a
221.153	0.06	442306	keystroke_n	n	n/a
221.3935	0.09	442787	keystroke_d	d	n/a
221.5885	0.15	443177	keystroke_a	a	n/a
221.6935	0.09	443387	keystroke_r	r	n/a
221.9335	0.045	443867	keystroke_y	y	n/a
222.0235	0.09	444047	keystroke_Key.space	Key.space	n/a
222.9685	0.06	445937	keystroke_r	r	n/a
223.1035	0.09	446207	keystroke_a	a	n/a
223.3435	0.12	446687	keystroke_g	g	n/a
223.4335	0.075	446867	keystroke_e	e	n/a
223.5675	0.076	447135	keystroke_Key.space	Key.space	n/a
224.2135	0.015	448427	keystroke_t	t	n/a
224.3335	0.075	448667	keystroke_a	a	n/a
224.4535	0.06	448907	keystroke_m	m	n/a
224.723	0.105	449446	keystroke_p	p	n/a
224.888	0.075	449776	keystroke_a	a	n/a
225.008	0.075	450016	keystroke_Key.space	Key.space	n/a
225.923	0.105	451846	keystroke_r	r	n/a
225.983	0.105	451966	keystroke_e	e	n/a
226.193	0.075	452386	keystroke_c	c	n/a
226.253	0.105	452506	keystroke_a	a	n/a
226.523	0.06	453046	keystroke_l	l	n/a
226.673	0.06	453346	keystroke_l	l	n/a
226.958	0.09	453916	keystroke_Key.enter	Key.enter	n/a
227.053	7.0465	454106	prompt	n/a	monte power submitting incoming\n
227.858	0.0445	455716	keystroke_m	m	n/a
227.9925	0.106	455985	keystroke_o	o	n/a
228.1885	0.09	456377	keystroke_n	n	n/a
228.3825	0.046	456765	keystroke_t	t	n/a
228.5325	0.06	457065	keystroke_e	e	n/a
228.6375	0.09	457275	keystroke_Key.space	Key.space	n/a
229.433	0.135	458866	keystroke_p	p	n/a
229.583	0.015	459166	keystroke_o	o	n/a
229.718	0.06	459436	keystroke_w	w	n/a
229.913	0.135	459826	keystroke_e	e	n/a
230.018	0.105	460036	keystroke_r	r	n/a
230.153	0.075	460306	keystroke_Key.space	Key.space	n/a
230.768	0.075	461536	keystroke_s	s	n/a
230.903	0.075	461806	keystroke_u	u	n/a
231.128	0.06	462256	keystroke_b	b	n/a
231.353	0.09	462706	keystroke_m	m	n/a
231.413	0.105	462826	keystroke_i	i	n/a
231.608	0.045	463216	keystroke_t	t	n/a
231.698	0.09	463396	keystroke_t	t	n/a
231.803	0.12	463606	keystroke_i	i	n/a
231.863	0.09	463726	keystroke_n	n	n/a
231.983	0.06	463966	keystroke_g	g	n/a
232.103	0.0905	464206	keystroke_Key.space	Key.space	n/a
232.6885	0.12	465377	keystroke_i	i	n/a
232.7485	0.09	465497	keystroke_n	n	n/a
232.988	0.06	465976	keystroke_c	c	n/a
233.063	0.12	466126	keystroke_o	o	n/a
233.138	0.09	466276	keystroke_m	m	n/a
233.348	0.105	466696	keystroke_i	i	n/a
233.408	0.09	466816	keystroke_n	n	n/a
233.513	0.075	467026	keystroke_g	g	n/a
234.023	0.075	468046	keystroke_Key.enter	Key.enter	n/a
234.1035	10.526	468207	prompt	n/a	exposure phentermine dubai hero\n
234.923	0.045	469846	keystroke_e	e	n/a
235.118	0.06	470236	keystroke_x	x	n/a
235.313	0.075	470626	keystroke_p	p	n/a
235.463	0.075	470926	keystroke_o	o	n/a
235.583	0.06	471166	keystroke_s	s	n/a
235.928	0.06	471856	keystroke_u	u	n/a
236.078	0.105	472156	keystroke_r	r	n/a
236.153	0.075	472306	keystroke_e	e	n/a
236.2725	0.075	472545	keystroke_Key.space	Key.space	n/a
236.978	0.075	473956	keystroke_p	p	n/a
237.368	0.045	474736	keystroke_h	h	n/a
237.503	0.06	475006	keystroke_e	e	n/a
237.6235	0.059	475247	keystroke_n	n	n/a
237.8175	0.075	475635	keystroke_t	t	n/a
238.793	0.06	477586	keystroke_e	e	n/a
239.0325	0.06	478065	keystroke_r	r	n/a
239.1825	0.06	478365	keystroke_m	m	n/a
239.3475	0.09	478695	keystroke_i	i	n/a
239.3925	0.105	478785	keystroke_n	n	n/a
239.5585	0.074	479117	keystroke_e	e	n/a
239.7525	0.075	479505	keystroke_Key.space	Key.space	n/a
241.6425	0.0605	483285	keystroke_d	d	n/a
241.823	0.075	483646	keystroke_u	u	n/a
242.078	0.06	484156	keystroke_b	b	n/a
242.753	0.09	485506	keystroke_a	a	n/a
242.828	0.09	485656	keystroke_i	i	n/a
243.0525	0.061	486105	keystroke_Key.space	Key.space	n/a
243.6685	0.06	487337	keystroke_h	h	n/a
243.7585	0.0745	487517	keystroke_e	e	n/a
243.968	0.06	487936	keystroke_r	r	n/a
244.088	0.09	488176	keystroke_o	o	n/a
244.553	0.075	489106	keystroke_Key.enter	Key.enter	n/a
244.6335	8.576	489267	prompt	n/a	attorneys same dispatch restore\n
245.4985	0.09	490997	keystroke_a	a	n/a
245.8435	0.075	491687	keystroke_t	t	n/a
246.0235	0.075	492047	keystroke_t	t	n/a
246.6675	0.06	493335	keystroke_o	o	n/a
247.298	0.045	494596	keystroke_r	r	n/a
247.628	0.06	495256	keystroke_n	n	n/a
247.838	0.06	495676	keystroke_e	e	n/a
248.078	0.09	496156	keystroke_y	y	n/a
248.333	0.075	496666	keystroke_s	s	n/a
248.6325	0.0605	497265	keystroke_Key.space	Key.space	n/a
249.158	0.12	498316	keystroke_s	s	n/a
249.293	0.06	498586	keystroke_a	a	n/a
249.368	0.075	498736	keystroke_m	m	n/a
249.578	0.06	499156	keystroke_e	e	n/a
249.683	0.075	499366	keystroke_Key.space	Key.space	n/a
250.238	0.06	500476	keystroke_d	d	n/a
250.313	0.075	500626	keystroke_i	i	n/a
250.418	0.075	500836	keystroke_s	s	n/a
250.553	0.105	501106	keystroke_p	p	n/a
250.673	0.075	501346	keystroke_a	a	n/a
250.898	0.06	501796	keystroke_t	t	n/a
251.123	0.06	502246	keystroke_c	c	n/a
251.198	0.075	502396	keystroke_h	h	n/a
251.408	0.075	502816	keystroke_Key.space	Key.space	n/a
251.918	0.09	503836	keystroke_r	r	n/a
251.963	0.09	503926	keystroke_e	e	n/a
252.158	0.06	504316	keystroke_s	s	n/a
252.398	0.045	504796	keystroke_t	t	n/a
252.533	0.09	505066	keystroke_o	o	n/a
252.728	0.12	505456	keystroke_r	r	n/a
252.803	0.09	505606	keystroke_e	e	n/a
253.118	0.09	506236	keystroke_Key.enter	Key.enter	n/a
253.2125	9.2075	506425	prompt	n/a	rolls liability intelligence nest\n
254.2885	0.045	508577	keystroke_r	r	n/a
254.4835	0.09	508967	keystroke_o	o	n/a
254.7535	0.03	509507	keystroke_l	l	n/a
254.8585	0.09	509717	keystroke_l	l	n/a
254.9785	0.075	509957	keystroke_s	s	n/a
255.0835	0.06	510167	keystroke_Key.space	Key.space	n/a
255.3685	0.15	510737	keystroke_l	l	n/a
255.4585	0.105	510917	keystroke_i	i	n/a
255.7435	0.075	511487	keystroke_a	a	n/a
255.9685	0.06	511937	keystroke_b	b	n/a
256.1335	0.0895	512267	keystroke_i	i	n/a
256.3725	0.12	512745	keystroke_l	l	n/a
256.4485	0.105	512897	keystroke_i	i	n/a
256.5825	0.06	513165	keystroke_t	t	n/a
256.7625	0.06	513525	keystroke_y	y	n/a
256.8375	0.09	513675	keystroke_Key.space	Key.space	n/a
257.7675	0.075	515535	keystroke_i	i	n/a
257.9635	0.059	515927	keystroke_n	n	n/a
258.1425	0.06	516285	keystroke_t	t	n/a
258.3225	0.06	516645	keystroke_e	e	n/a
258.5035	0.074	517007	keystroke_l	l	n/a
258.668	0.06	517336	keystroke_l	l	n/a
258.818	0.075	517636	keystroke_i	i	n/a
259.1475	0.045	518295	keystroke_g	g	n/a
259.2225	0.09	518445	keystroke_e	e	n/a
259.2975	0.09	518595	keystroke_n	n	n/a
259.5975	0.12	519195	keystroke_c	c	n/a
259.6725	0.075	519345	keystroke_e	e	n/a
259.8075	0.09	519615	keystroke_Key.space	Key.space	n/a
261.218	0.045	522436	keystroke_n	n	n/a
261.323	0.06	522646	keystroke_e	e	n/a
261.503	0.06	523006	keystroke_s	s	n/a
261.698	0.075	523396	keystroke_t	t	n/a
262.328	0.09	524656	keystroke_Key.enter	Key.enter	n/a
262.4235	8.5015	524847	prompt	n/a	photos aspect introductory vids\n
263.4525	0.075	526905	keystroke_p	p	n/a
263.6925	0.075	527385	keystroke_h	h	n/a
263.9175	0.075	527835	keystroke_o	o	n/a
264.1125	0.045	528225	keystroke_t	t	n/a
264.1875	0.105	528375	keystroke_o	o	n/a
264.563	0.06	529126	keystroke_s	s	n/a
264.6675	0.075	529335	keystroke_Key.space	Key.space	n/a
265.1775	0.075	530355	keystroke_a	a	n/a
265.3725	0.075	530745	keystroke_s	s	n/a
265.5525	0.09	531105	keystroke_p	p	n/a
265.6575	0.075	531315	keystroke_e	e	n/a
265.8525	0.06	531705	keystroke_c	c	n/a
266.0625	0.06	532125	keystroke_t	t	n/a
266.1525	0.06	532305	keystroke_Key.space	Key.space	n/a
267.008	0.075	534016	keystroke_i	i	n/a
267.188	0.075	534376	keystroke_n	n	n/a
267.293	0.045	534586	keystroke_t	t	n/a
267.458	0.06	534916	keystroke_r	r	n/a
267.563	0.12	535126	keystroke_o	o	n/a
267.983	0.075	535966	keystroke_d	d	n/a
268.268	0.06	536536	keystroke_u	u	n/a
268.343	0.06	536686	keystroke_c	c	n/a
268.538	0.06	537076	keystroke_t	t	n/a
268.628	0.1045	537256	keystroke_o	o	n/a
268.7625	0.075	537525	keystroke_r	r	n/a
268.943	0.075	537886	keystroke_y	y	n/a
269.048	0.075	538096	keystroke_Key.space	Key.space	n/a
269.9625	0.06	539925	keystroke_v	v	n/a
270.0375	0.09	540075	keystroke_i	i	n/a
270.2925	0.06	540585	keystroke_d	d	n/a
270.4575	0.075	540915	keystroke_s	s	n/a
270.8335	0.09	541667	keystroke_Key.enter	Key.enter	n/a
270.928	8.5915	541856	prompt	n/a	beta stuart bean subscriptions\n
271.8535	0.06	543707	keystroke_b	b	n/a
271.9435	0.06	543887	keystroke_e	e	n/a
272.1235	0.06	544247	keystroke_t	t	n/a
272.3335	0.06	544667	keystroke_a	a	n/a
272.4835	0.075	544967	keystroke_Key.space	Key.space	n/a
273.053	0.045	546106	keystroke_s	s	n/a
273.233	0.075	546466	keystroke_t	t	n/a
273.563	0.075	547126	keystroke_u	u	n/a
273.758	0.12	547516	keystroke_a	a	n/a
273.863	0.075	547726	keystroke_r	r	n/a
274.058	0.09	548116	keystroke_t	t	n/a
274.163	0.06	548326	keystroke_Key.space	Key.space	n/a
275.1385	0.075	550277	keystroke_b	b	n/a
275.2435	0.06	550487	keystroke_e	e	n/a
275.4235	0.09	550847	keystroke_a	a	n/a
275.5435	0.09	551087	keystroke_n	n	n/a
275.7525	0.075	551505	keystroke_Key.space	Key.space	n/a
276.233	0.075	552466	keystroke_s	s	n/a
276.428	0.075	552856	keystroke_u	u	n/a
276.668	0.0745	553336	keystroke_b	b	n/a
276.9675	0.06	553935	keystroke_s	s	n/a
277.163	0.09	554326	keystroke_c	c	n/a
277.388	0.06	554776	keystroke_r	r	n/a
277.598	0.03	555196	keystroke_i	i	n/a
277.718	0.09	555436	keystroke_p	p	n/a
277.853	0.045	555706	keystroke_t	t	n/a
277.973	0.105	555946	keystroke_i	i	n/a
278.048	0.09	556096	keystroke_o	o	n/a
278.228	0.09	556456	keystroke_n	n	n/a
278.378	0.06	556756	keystroke_s	s	n/a
279.4585	0.06	558917	keystroke_Key.enter	Key.enter	n/a
279.5255	8.8295	559051	prompt	n/a	sister allergy chevy objectives\n
280.313	0.045	560626	keystroke_s	s	n/a
280.388	0.075	560776	keystroke_i	i	n/a
280.448	0.075	560896	keystroke_s	s	n/a
280.658	0.045	561316	keystroke_t	t	n/a
280.823	0.105	561646	keystroke_e	e	n/a
280.883	0.09	561766	keystroke_r	r	n/a
281.048	0.06	562096	keystroke_Key.space	Key.space	n/a
281.783	0.075	563566	keystroke_a	a	n/a
281.978	0.06	563956	keystroke_l	l	n/a
282.098	0.075	564196	keystroke_l	l	n/a
282.188	0.12	564376	keystroke_e	e	n/a
282.263	0.075	564526	keystroke_r	r	n/a
282.473	0.06	564946	keystroke_g	g	n/a
282.6535	0.089	565307	keystroke_y	y	n/a
282.7575	0.075	565515	keystroke_Key.space	Key.space	n/a
283.733	0.06	567466	keystroke_c	c	n/a
283.913	0.075	567826	keystroke_h	h	n/a
284.048	0.06	568096	keystroke_e	e	n/a
284.453	0.045	568906	keystroke_v	v	n/a
284.663	0.09	569326	keystroke_y	y	n/a
284.813	0.09	569626	keystroke_Key.space	Key.space	n/a
285.5475	0.06	571095	keystroke_o	o	n/a
285.8025	0.06	571605	keystroke_b	b	n/a
286.0275	0.045	572055	keystroke_j	j	n/a
286.1325	0.135	572265	keystroke_e	e	n/a
286.1925	0.09	572385	keystroke_c	c	n/a
286.4025	0.06	572805	keystroke_t	t	n/a
286.4775	0.09	572955	keystroke_i	i	n/a
286.7025	0.09	573405	keystroke_v	v	n/a
286.7625	0.075	573525	keystroke_e	e	n/a
286.9875	0.06	573975	keystroke_s	s	n/a
288.263	0.09	576526	keystroke_Key.enter	Key.enter	n/a
288.358	6.9715	576716	prompt	n/a	russian when limitation offline\n
289.1335	0.06	578267	keystroke_r	r	n/a
289.2835	0.075	578567	keystroke_u	u	n/a
289.5535	0.03	579107	keystroke_s	s	n/a
289.6435	0.075	579287	keystroke_s	s	n/a
289.7485	0.105	579497	keystroke_i	i	n/a
289.9735	0.09	579947	keystroke_a	a	n/a
290.0935	0.075	580187	keystroke_n	n	n/a
290.2735	0.09	580547	keystroke_Key.space	Key.space	n/a
290.6035	0.06	581207	keystroke_w	w	n/a
290.6785	0.075	581357	keystroke_h	h	n/a
290.7985	0.06	581597	keystroke_e	e	n/a
290.8735	0.0745	581747	keystroke_n	n	n/a
291.038	0.09	582076	keystroke_Key.space	Key.space	n/a
291.668	0.09	583336	keystroke_l	l	n/a
291.863	0.06	583726	keystroke_i	i	n/a
292.058	0.06	584116	keystroke_m	m	n/a
292.223	0.06	584446	keystroke_i	i	n/a
292.358	0.09	584716	keystroke_t	t	n/a
292.538	0.1055	585076	keystroke_a	a	n/a
292.628	0.075	585256	keystroke_t	t	n/a
292.718	0.1055	585436	keystroke_i	i	n/a
292.7635	0.105	585527	keystroke_o	o	n/a
293.0335	0.105	586067	keystroke_n	n	n/a
293.2585	0.075	586517	keystroke_Key.space	Key.space	n/a
293.933	0.075	587866	keystroke_o	o	n/a
294.218	0.045	588436	keystroke_f	f	n/a
294.308	0.0755	588616	keystroke_f	f	n/a
294.473	0.09	588946	keystroke_l	l	n/a
294.503	0.09	589006	keystroke_i	i	n/a
294.7285	0.06	589457	keystroke_n	n	n/a
294.8185	0.075	589637	keystroke_e	e	n/a
295.2375	0.09	590475	keystroke_Key.enter	Key.enter	n/a
295.333	8.9065	590666	prompt	n/a	associations awarded village occupations\n
295.928	0.09	591856	keystroke_a	a	n/a
296.1525	0.045	592305	keystroke_s	s	n/a
296.258	0.075	592516	keystroke_s	s	n/a
296.378	0.105	592756	keystroke_o	o	n/a
296.558	0.075	593116	keystroke_c	c	n/a
296.6475	0.0755	593295	keystroke_i	i	n/a
296.708	0.075	593416	keystroke_a	a	n/a
296.933	0.06	593866	keystroke_t	t	n/a
297.053	0.09	594106	keystroke_i	i	n/a
297.113	0.09	594226	keystroke_o	o	n/a
297.278	0.09	594556	keystroke_n	n	n/a
297.383	0.075	594766	keystroke_s	s	n/a
297.488	0.0745	594976	keystroke_Key.space	Key.space	n/a
298.0875	0.105	596175	keystroke_a	a	n/a
298.3875	0.061	596775	keystroke_w	w	n/a
298.5385	0.089	597077	keystroke_a	a	n/a
298.7475	0.045	597495	keystroke_r	r	n/a
298.943	0.045	597886	keystroke_d	d	n/a
299.093	0.045	598186	keystroke_e	e	n/a
299.243	0.06	598486	keystroke_d	d	n/a
299.333	0.09	598666	keystroke_Key.space	Key.space	n/a
299.858	0.06	599716	keystroke_v	v	n/a
299.948	0.075	599896	keystroke_i	i	n/a
300.173	0.03	600346	keystroke_l	l	n/a
300.278	0.06	600556	keystroke_l	l	n/a
300.353	0.075	600706	keystroke_a	a	n/a
300.638	0.0905	601276	keystroke_g	g	n/a
300.7125	0.076	601425	keystroke_e	e	n/a
300.8925	0.06	601785	keystroke_Key.space	Key.space	n/a
301.613	0.06	603226	keystroke_o	o	n/a
301.838	0.06	603676	keystroke_c	c	n/a
301.943	0.06	603886	keystroke_c	c	n/a
302.123	0.06	604246	keystroke_u	u	n/a
302.453	0.075	604906	keystroke_p	p	n/a
302.558	0.075	605116	keystroke_a	a	n/a
302.708	0.0745	605416	keystroke_t	t	n/a
302.8125	0.105	605625	keystroke_i	i	n/a
302.8585	0.104	605717	keystroke_o	o	n/a
303.5325	0.075	607065	keystroke_n	n	n/a
303.6375	0.06	607275	keystroke_s	s	n/a
304.1625	0.075	608325	keystroke_Key.enter	Key.enter	n/a
304.2435	13.481	608487	prompt	n/a	longitude miller bought began\n
304.928	0.06	609856	keystroke_l	l	n/a
305.168	0.0745	610336	keystroke_o	o	n/a
305.4225	0.075	610845	keystroke_n	n	n/a
305.6025	0.06	611205	keystroke_g	g	n/a
305.7675	0.09	611535	keystroke_i	i	n/a
306.713	0.03	613426	keystroke_t	t	n/a
306.788	0.09	613576	keystroke_u	u	n/a
307.1175	0.06	614235	keystroke_d	d	n/a
307.2825	0.06	614565	keystroke_e	e	n/a
307.3875	0.06	614775	keystroke_Key.space	Key.space	n/a
307.9425	0.06	615885	keystroke_b	b	n/a
308.2725	0.12	616545	keystroke_o	o	n/a
308.3475	0.09	616695	keystroke_u	u	n/a
308.5875	0.0605	617175	keystroke_g	g	n/a
308.6925	0.09	617385	keystroke_h	h	n/a
308.7975	0.075	617595	keystroke_t	t	n/a
308.9325	0.105	617865	keystroke_Key.space	Key.space	n/a
309.623	0.06	619246	keystroke_b	b	n/a
309.713	0.09	619426	keystroke_e	e	n/a
309.9375	0.045	619875	keystroke_g	g	n/a
310.0875	0.105	620175	keystroke_a	a	n/a
310.1935	0.089	620387	keystroke_n	n	n/a
311.7825	0.06	623565	keystroke_Key.backspace	Key.backspace	n/a
311.9625	0.06	623925	keystroke_Key.backspace	Key.backspace	n/a
312.0975	0.075	624195	keystroke_Key.backspace	Key.backspace	n/a
312.2625	0.075	624525	keystroke_Key.backspace	Key.backspace	n/a
312.4125	0.075	624825	keystroke_Key.backspace	Key.backspace	n/a
312.5775	0.075	625155	keystroke_Key.backspace	Key.backspace	n/a
312.7275	0.0755	625455	keystroke_Key.backspace	Key.backspace	n/a
312.8775	0.075	625755	keystroke_Key.backspace	Key.backspace	n/a
313.0275	0.075	626055	keystroke_Key.backspace	Key.backspace	n/a
313.1775	0.075	626355	keystroke_Key.backspace	Key.backspace	n/a
313.3275	0.075	626655	keystroke_Key.backspace	Key.backspace	n/a
313.5075	0.06	627015	keystroke_Key.backspace	Key.backspace	n/a
314.1375	0.225	628275	keystroke_m	m	n/a
314.3775	0.015	628755	keystroke_i	i	n/a
314.513	0.0155	629026	keystroke_l	l	n/a
314.603	0.0895	629206	keystroke_l	l	n/a
314.7525	0.075	629505	keystroke_e	e	n/a
314.9025	0.075	629805	keystroke_r	r	n/a
314.9925	0.06	629985	keystroke_Key.space	Key.space	n/a
315.1875	0.045	630375	keystroke_b	b	n/a
315.3525	0.1055	630705	keystroke_o	o	n/a
315.3975	0.105	630795	keystroke_u	u	n/a
315.5475	0.045	631095	keystroke_f	f	n/a
315.893	0.075	631786	keystroke_Key.backspace	Key.backspace	n/a
316.013	0.06	632026	keystroke_g	g	n/a
316.118	0.0745	632236	keystroke_h	h	n/a
316.2375	0.045	632475	keystroke_t	t	n/a
316.3125	0.09	632625	keystroke_Key.space	Key.space	n/a
316.5825	0.06	633165	keystroke_b	b	n/a
316.673	0.09	633346	keystroke_e	e	n/a
316.928	0.06	633856	keystroke_g	g	n/a
317.063	0.0905	634126	keystroke_a	a	n/a
317.1975	0.105	634395	keystroke_n	n	n/a
317.6475	0.075	635295	keystroke_Key.enter	Key.enter	n/a
317.7275	10.827	635455	prompt	n/a	brunswick madagascar bhutan boats\n
318.773	0.075	637546	keystroke_b	b	n/a
319.058	0.045	638116	keystroke_r	r	n/a
319.268	0.06	638536	keystroke_u	u	n/a
319.5075	0.045	639015	keystroke_n	n	n/a
319.6275	0.045	639255	keystroke_s	s	n/a
319.8225	0.06	639645	keystroke_w	w	n/a
319.9275	0.075	639855	keystroke_i	i	n/a
320.4675	0.075	640935	keystroke_c	c	n/a
320.7225	0.075	641445	keystroke_k	k	n/a
320.9175	0.045	641835	keystroke_Key.space	Key.space	n/a
321.2025	0.0605	642405	keystroke_m	m	n/a
321.383	0.09	642766	keystroke_a	a	n/a
321.908	0.09	643816	keystroke_d	d	n/a
322.223	0.075	644446	keystroke_a	a	n/a
322.823	0.12	645646	keystroke_g	g	n/a
323.063	0.09	646126	keystroke_a	a	n/a
323.333	0.06	646666	keystroke_s	s	n/a
323.6185	0.06	647237	keystroke_c	c	n/a
323.7385	0.1345	647477	keystroke_a	a	n/a
323.903	0.105	647806	keystroke_r	r	n/a
324.143	0.09	648286	keystroke_Key.space	Key.space	n/a
325.433	0.06	650866	keystroke_b	b	n/a
326.183	0.045	652366	keystroke_h	h	n/a
326.318	0.06	652636	keystroke_u	u	n/a
326.423	0.045	652846	keystroke_t	t	n/a
326.603	0.105	653206	keystroke_a	a	n/a
326.768	0.075	653536	keystroke_n	n	n/a
326.978	0.075	653956	keystroke_Key.space	Key.space	n/a
327.518	0.0445	655036	keystroke_b	b	n/a
327.6835	0.075	655367	keystroke_o	o	n/a
327.7875	0.151	655575	keystroke_a	a	n/a
327.9225	0.09	655845	keystroke_t	t	n/a
328.1325	0.075	656265	keystroke_s	s	n/a
328.4775	0.075	656955	keystroke_Key.enter	Key.enter	n/a
328.5585	10.2405	657117	prompt	n/a	stories soup ashley customs\n
329.303	0.06	658606	keystroke_s	s	n/a
329.438	0.075	658876	keystroke_t	t	n/a
329.543	0.09	659086	keystroke_o	o	n/a
329.753	0.075	659506	keystroke_r	r	n/a
329.858	0.09	659716	keystroke_i	i	n/a
329.993	0.045	659986	keystroke_e	e	n/a
330.173	0.06	660346	keystroke_s	s	n/a
330.263	0.06	660526	keystroke_Key.space	Key.space	n/a
330.7425	0.06	661485	keystroke_a	a	n/a
331.1325	0.105	662265	keystroke_o	o	n/a
331.1925	0.09	662385	keystroke_u	u	n/a
331.3725	0.075	662745	keystroke_p	p	n/a
331.6125	0.06	663225	keystroke_Key.space	Key.space	n/a
332.1375	0.06	664275	keystroke_Key.backspace	Key.backspace	n/a
332.3025	0.075	664605	keystroke_Key.backspace	Key.backspace	n/a
332.4525	0.06	664905	keystroke_Key.backspace	Key.backspace	n/a
332.6025	0.0605	665205	keystroke_Key.backspace	Key.backspace	n/a
332.768	0.075	665536	keystroke_Key.backspace	Key.backspace	n/a
333.323	0.075	666646	keystroke_s	s	n/a
333.428	0.075	666856	keystroke_o	o	n/a
333.473	0.105	666946	keystroke_u	u	n/a
333.728	0.09	667456	keystroke_p	p	n/a
334.283	0.045	668566	keystroke_Key.space	Key.space	n/a
334.823	0.06	669646	keystroke_a	a	n/a
335.048	0.045	670096	keystroke_s	s	n/a
335.303	0.045	670606	keystroke_h	h	n/a
335.948	0.06	671896	keystroke_l	l	n/a
336.083	0.075	672166	keystroke_e	e	n/a
336.368	0.075	672736	keystroke_y	y	n/a
336.488	0.075	672976	keystroke_Key.space	Key.space	n/a
337.1175	0.06	674235	keystroke_c	c	n/a
337.2675	0.075	674535	keystroke_u	u	n/a
337.3875	0.06	674775	keystroke_s	s	n/a
337.6125	0.045	675225	keystroke_t	t	n/a
337.6875	0.15	675375	keystroke_o	o	n/a
337.7625	0.105	675525	keystroke_m	m	n/a
337.9725	0.075	675945	keystroke_s	s	n/a
338.6925	0.105	677385	keystroke_Key.enter	Key.enter	n/a
338.8025	10.932	677605	prompt	n/a	freebsd terminals metals cadillac\n
339.743	0.06	679486	keystroke_f	f	n/a
339.9825	0.03	679965	keystroke_r	r	n/a
340.2675	0.045	680535	keystroke_e	e	n/a
340.3575	0.105	680715	keystroke_e	e	n/a
341.7225	0.045	683445	keystroke_b	b	n/a
342.0525	0.075	684105	keystroke_s	s	n/a
342.2625	0.075	684525	keystroke_d	d	n/a
342.3825	0.075	684765	keystroke_Key.space	Key.space	n/a
342.878	0.06	685756	keystroke_t	t	n/a
343.043	0.105	686086	keystroke_e	e	n/a
343.118	0.06	686236	keystroke_r	r	n/a
343.193	0.075	686386	keystroke_m	m	n/a
343.373	0.1195	686746	keystroke_i	i	n/a
343.4625	0.075	686925	keystroke_n	n	n/a
343.6275	0.075	687255	keystroke_a	a	n/a
343.7475	0.09	687495	keystroke_l	l	n/a
343.8825	0.09	687765	keystroke_s	s	n/a
344.078	0.075	688156	keystroke_Key.space	Key.space	n/a
344.798	0.045	689596	keystroke_m	m	n/a
344.888	0.06	689776	keystroke_e	e	n/a
345.128	0.045	690256	keystroke_t	t	n/a
345.323	0.105	690646	keystroke_a	a	n/a
345.473	0.12	690946	keystroke_l	l	n/a
345.608	0.075	691216	keystroke_s	s	n/a
346.118	0.075	692236	keystroke_Key.space	Key.space	n/a
346.6725	0.075	693345	keystroke_c	c	n/a
346.8225	0.09	693645	keystroke_a	a	n/a
347.0775	0.06	694155	keystroke_d	d	n/a
347.1825	0.09	694365	keystroke_i	i	n/a
347.4225	0.045	694845	keystroke_l	l	n/a
347.528	0.089	695056	keystroke_l	l	n/a
347.648	0.09	695296	keystroke_a	a	n/a
347.797	0.03	695594	keystroke_n	n	n/a
348.233	0.105	696466	keystroke_Key.backspace	Key.backspace	n/a
349.1025	0.105	698205	keystroke_c	c	n/a
349.6285	0.1045	699257	keystroke_Key.enter	Key.enter	n/a
349.738	8.2165	699476	prompt	n/a	processes nebraska piano areas\n
350.5575	0.06	701115	keystroke_p	p	n/a
350.6925	0.075	701385	keystroke_r	r	n/a
350.7825	0.075	701565	keystroke_o	o	n/a
350.9475	0.12	701895	keystroke_c	c	n/a
351.0525	0.075	702105	keystroke_e	e	n/a
351.278	0.03	702556	keystroke_s	s	n/a
351.368	0.06	702736	keystroke_s	s	n/a
351.533	0.06	703066	keystroke_e	e	n/a
351.713	0.045	703426	keystroke_s	s	n/a
351.818	0.06	703636	keystroke_Key.space	Key.space	n/a
352.463	0.06	704926	keystroke_n	n	n/a
352.568	0.075	705136	keystroke_e	e	n/a
353.123	0.06	706246	keystroke_b	b	n/a
353.213	0.06	706426	keystroke_r	r	n/a
353.378	0.075	706756	keystroke_a	a	n/a
353.603	0.075	707206	keystroke_s	s	n/a
353.858	0.045	707716	keystroke_j	j	n/a
354.293	0.06	708586	keystroke_Key.backspace	Key.backspace	n/a
354.338	0.09	708676	keystroke_k	k	n/a
354.4875	0.105	708975	keystroke_a	a	n/a
354.6225	0.075	709245	keystroke_Key.space	Key.space	n/a
355.538	0.09	711076	keystroke_p	p	n/a
355.763	0.06	711526	keystroke_i	i	n/a
355.898	0.06	711796	keystroke_a	a	n/a
355.973	0.075	711946	keystroke_n	n	n/a
356.243	0.09	712486	keystroke_o	o	n/a
356.513	0.059	713026	keystroke_Key.space	Key.space	n/a
356.783	0.12	713566	keystroke_a	a	n/a
357.128	0.12	714256	keystroke_r	r	n/a
357.203	0.09	714406	keystroke_e	e	n/a
357.398	0.135	714796	keystroke_a	a	n/a
357.503	0.075	715006	keystroke_s	s	n/a
357.892	0.0605	715784	keystroke_Key.enter	Key.enter	n/a
357.9585	7.721	715917	prompt	n/a	detection stream tear who's\n
358.838	0.045	717676	keystroke_d	d	n/a
358.988	0.06	717976	keystroke_e	e	n/a
359.138	0.045	718276	keystroke_t	t	n/a
359.303	0.06	718606	keystroke_e	e	n/a
359.528	0.045	719056	keystroke_c	c	n/a
359.708	0.06	719416	keystroke_t	t	n/a
359.7985	0.164	719597	keystroke_i	i	n/a
359.933	0.0895	719866	keystroke_o	o	n/a
360.1575	0.075	720315	keystroke_n	n	n/a
360.338	0.075	720676	keystroke_Key.space	Key.space	n/a
360.863	0.06	721726	keystroke_s	s	n/a
361.043	0.045	722086	keystroke_t	t	n/a
361.208	0.09	722416	keystroke_r	r	n/a
361.7175	0.075	723435	keystroke_e	e	n/a
361.9125	0.09	723825	keystroke_a	a	n/a
362.0475	0.075	724095	keystroke_m	m	n/a
362.2575	0.075	724515	keystroke_Key.space	Key.space	n/a
362.5875	0.105	725175	keystroke_t	t	n/a
362.6775	0.09	725355	keystroke_e	e	n/a
362.9625	0.135	725925	keystroke_a	a	n/a
363.0525	0.105	726105	keystroke_r	r	n/a
363.2025	0.09	726405	keystroke_Key.space	Key.space	n/a
363.5175	0.0445	727035	keystroke_w	w	n/a
363.832	0.091	727664	keystroke_h	h	n/a
363.9835	0.105	727967	keystroke_o	o	n/a
364.2385	0.104	728477	keystroke_'	'	n/a
365.0025	0.09	730005	keystroke_s	s	n/a
365.5875	0.09	731175	keystroke_Key.enter	Key.enter	n/a
365.684	11.1555	731368	prompt	n/a	mason calendars brunette gamma\n
366.6375	0.075	733275	keystroke_m	m	n/a
366.8925	0.075	733785	keystroke_a	a	n/a
367.1475	0.045	734295	keystroke_s	s	n/a
367.3425	0.135	734685	keystroke_o	o	n/a
367.4175	0.075	734835	keystroke_n	n	n/a
367.6275	0.075	735255	keystroke_Key.space	Key.space	n/a
368.1825	0.045	736365	keystroke_c	c	n/a
368.4975	0.076	736995	keystroke_a	a	n/a
368.693	0.09	737386	keystroke_l	l	n/a
368.828	0.06	737656	keystroke_e	e	n/a
369.008	0.06	738016	keystroke_n	n	n/a
369.3975	0.045	738795	keystroke_d	d	n/a
369.5775	0.09	739155	keystroke_a	a	n/a
370.0425	0.075	740085	keystroke_r	r	n/a
370.4625	0.075	740925	keystroke_s	s	n/a
370.8825	0.105	741765	keystroke_Key.space	Key.space	n/a
371.5875	0.06	743175	keystroke_b	b	n/a
371.9325	0.045	743865	keystroke_r	r	n/a
372.0375	0.09	744075	keystroke_u	u	n/a
372.2625	0.06	744525	keystroke_n	n	n/a
372.3525	0.075	744705	keystroke_e	e	n/a
372.563	0.045	745126	keystroke_t	t	n/a
372.6675	0.075	745335	keystroke_t	t	n/a
372.878	0.09	745756	keystroke_e	e	n/a
373.0875	0.075	746175	keystroke_Key.space	Key.space	n/a
373.928	0.045	747856	keystroke_g	g	n/a
374.033	0.09	748066	keystroke_a	a	n/a
374.183	0.045	748366	keystroke_m	m	n/a
374.333	0.075	748666	keystroke_m	m	n/a
374.588	0.015	749176	keystroke_a	a	n/a
376.825	0.013	753650	keystroke_Key.enter	Key.enter	n/a
376.843	11.8615	753686	prompt	n/a	remark walt baseline sustained\n
377.633	0.09	755266	keystroke_r	r	n/a
377.678	0.09	755356	keystroke_e	e	n/a
377.828	0.075	755656	keystroke_m	m	n/a
377.948	0.0595	755896	keystroke_a	a	n/a
378.1425	0.06	756285	keystroke_r	r	n/a
378.3825	0.075	756765	keystroke_k	k	n/a
378.5775	0.0755	757155	keystroke_Key.space	Key.space	n/a
379.358	0.105	758716	keystroke_w	w	n/a
381.4575	0.09	762915	keystroke_a	a	n/a
382.823	0.045	765646	keystroke_l	l	n/a
383.198	0.075	766396	keystroke_t	t	n/a
384.0375	0.06	768075	keystroke_Key.space	Key.space	n/a
384.7425	0.0745	769485	keystroke_b	b	n/a
384.833	0.015	769666	keystroke_a	a	n/a
384.953	0.06	769906	keystroke_s	s	n/a
385.133	0.045	770266	keystroke_e	e	n/a
385.223	0.135	770446	keystroke_l	l	n/a
385.343	0.09	770686	keystroke_i	i	n/a
385.628	0.075	771256	keystroke_n	n	n/a
385.733	0.09	771466	keystroke_e	e	n/a
385.853	0.09	771706	keystroke_Key.space	Key.space	n/a
386.363	0.06	772726	keystroke_s	s	n/a
386.8875	0.075	773775	keystroke_u	u	n/a
386.9775	0.06	773955	keystroke_s	s	n/a
387.1875	0.03	774375	keystroke_t	t	n/a
387.3075	0.075	774615	keystroke_a	a	n/a
387.4125	0.105	774825	keystroke_i	i	n/a
387.4725	0.105	774945	keystroke_n	n	n/a
387.6375	0.0455	775275	keystroke_e	e	n/a
387.773	0.075	775546	keystroke_d	d	n/a
388.6125	0.09	777225	keystroke_Key.enter	Key.enter	n/a
388.7095	8.53	777419	prompt	n/a	broadband unix person window\n
389.5575	0.045	779115	keystroke_b	b	n/a
389.8135	0.044	779627	keystroke_r	r	n/a
389.9025	0.09	779805	keystroke_o	o	n/a
390.0235	0.059	780047	keystroke_a	a	n/a
390.2025	0.046	780405	keystroke_d	d	n/a
390.5175	0.06	781035	keystroke_b	b	n/a
390.6235	0.0895	781247	keystroke_a	a	n/a
391.088	0.075	782176	keystroke_n	n	n/a
391.5075	0.06	783015	keystroke_d	d	n/a
391.5975	0.0905	783195	keystroke_Key.space	Key.space	n/a
392.857	0.076	785714	keystroke_u	u	n/a
393.0675	0.06	786135	keystroke_n	n	n/a
393.2475	0.09	786495	keystroke_i	i	n/a
393.5925	0.075	787185	keystroke_x	x	n/a
393.7275	0.075	787455	keystroke_Key.space	Key.space	n/a
394.2675	0.075	788535	keystroke_p	p	n/a
394.4925	0.12	788985	keystroke_e	e	n/a
394.5825	0.06	789165	keystroke_r	r	n/a
394.763	0.075	789526	keystroke_s	s	n/a
394.823	0.105	789646	keystroke_o	o	n/a
395.003	0.09	790006	keystroke_n	n	n/a
395.198	0.075	790396	keystroke_Key.space	Key.space	n/a
395.618	0.09	791236	keystroke_w	w	n/a
395.723	0.15	791446	keystroke_i	i	n/a
395.798	0.105	791596	keystroke_n	n	n/a
395.978	0.075	791956	keystroke_d	d	n/a
396.098	0.105	792196	keystroke_o	o	n/a
396.323	0.06	792646	keystroke_w	w	n/a
397.133	0.105	794266	keystroke_Key.enter	Key.enter	n/a
397.2425	10.107	794485	prompt	n/a	encyclopedia governing surgeon seal\n
398.123	0.06	796246	keystroke_e	e	n/a
398.348	0.06	796696	keystroke_n	n	n/a
398.618	0.0595	797236	keystroke_c	c	n/a
399.0825	0.06	798165	keystroke_y	y	n/a
399.3825	0.045	798765	keystroke_c	c	n/a
399.5775	0.075	799155	keystroke_l	l	n/a
399.7725	0.045	799545	keystroke_o	o	n/a
400.0725	0.075	800145	keystroke_p	p	n/a
400.1775	0.075	800355	keystroke_e	e	n/a
400.3575	0.075	800715	keystroke_d	d	n/a
400.6125	0.1055	801225	keystroke_i	i	n/a
400.733	0.105	801466	keystroke_a	a	n/a
400.883	0.105	801766	keystroke_Key.space	Key.space	n/a
401.9775	0.045	803955	keystroke_g	g	n/a
402.0675	0.075	804135	keystroke_o	o	n/a
402.1725	0.045	804345	keystroke_v	v	n/a
402.3375	0.09	804675	keystroke_e	e	n/a
402.3825	0.09	804765	keystroke_r	r	n/a
402.5025	0.075	805005	keystroke_n	n	n/a
402.6525	0.135	805305	keystroke_i	i	n/a
402.7575	0.09	805515	keystroke_n	n	n/a
402.8925	0.075	805785	keystroke_g	g	n/a
402.9825	0.105	805965	keystroke_Key.space	Key.space	n/a
403.838	0.0895	807676	keystroke_s	s	n/a
404.0475	0.06	808095	keystroke_u	u	n/a
404.2275	0.06	808455	keystroke_r	r	n/a
404.4525	0.045	808905	keystroke_g	g	n/a
404.6325	0.06	809265	keystroke_e	e	n/a
404.9625	0.075	809925	keystroke_o	o	n/a
405.1575	0.06	810315	keystroke_n	n	n/a
405.5625	0.075	811125	keystroke_Key.space	Key.space	n/a
406.1775	0.045	812355	keystroke_s	s	n/a
406.3425	0.06	812685	keystroke_e	e	n/a
406.5375	0.075	813075	keystroke_a	a	n/a
406.7475	0.075	813495	keystroke_l	l	n/a
407.2725	0.075	814545	keystroke_Key.enter	Key.enter	n/a
407.3525	7.3765	814705	prompt	n/a	mandate donors boards latitude\n
408.0975	0.06	816195	keystroke_m	m	n/a
408.2175	0.06	816435	keystroke_a	a	n/a
408.3075	0.075	816615	keystroke_n	n	n/a
408.4275	0.075	816855	keystroke_d	d	n/a
408.6075	0.06	817215	keystroke_a	a	n/a
408.8475	0.09	817695	keystroke_t	t	n/a
408.893	0.0895	817786	keystroke_e	e	n/a
409.0275	0.09	818055	keystroke_Key.space	Key.space	n/a
409.883	0.06	819766	keystroke_d	d	n/a
409.973	0.105	819946	keystroke_o	o	n/a
410.168	0.075	820336	keystroke_n	n	n/a
410.348	0.09	820696	keystroke_o	o	n/a
410.483	0.06	820966	keystroke_r	r	n/a
410.7075	0.045	821415	keystroke_s	s	n/a
410.7975	0.09	821595	keystroke_Key.space	Key.space	n/a
411.6075	0.045	823215	keystroke_b	b	n/a
411.7575	0.0755	823515	keystroke_o	o	n/a
411.833	0.1345	823666	keystroke_a	a	n/a
411.9375	0.06	823875	keystroke_r	r	n/a
412.148	0.12	824296	keystroke_d	d	n/a
412.208	0.12	824416	keystroke_s	s	n/a
412.418	0.09	824836	keystroke_Key.space	Key.space	n/a
412.778	0.09	825556	keystroke_l	l	n/a
412.988	0.09	825976	keystroke_a	a	n/a
413.3325	0.075	826665	keystroke_t	t	n/a
413.468	0.09	826936	keystroke_i	i	n/a
413.678	0.105	827356	keystroke_t	t	n/a
413.843	0.105	827686	keystroke_u	u	n/a
414.173	0.045	828346	keystroke_d	d	n/a
414.323	0.075	828646	keystroke_e	e	n/a
414.653	0.075	829306	keystroke_Key.enter	Key.enter	n/a
414.732	9.3725	829464	prompt	n/a	salon activities passport feelings\n
415.5225	0.06	831045	keystroke_s	s	n/a
415.7025	0.09	831405	keystroke_a	a	n/a
415.9425	0.075	831885	keystroke_l	l	n/a
416.5275	0.1205	833055	keystroke_o	o	n/a
416.6175	0.0905	833235	keystroke_n	n	n/a
416.993	0.075	833986	keystroke_Key.space	Key.space	n/a
417.383	0.09	834766	keystroke_a	a	n/a
417.698	0.075	835396	keystroke_c	c	n/a
417.923	0.06	835846	keystroke_t	t	n/a
418.013	0.09	836026	keystroke_i	i	n/a
418.163	0.075	836326	keystroke_v	v	n/a
418.268	0.105	836536	keystroke_i	i	n/a
418.538	0.06	837076	keystroke_t	t	n/a
418.643	0.0895	837286	keystroke_i	i	n/a
418.8525	0.045	837705	keystroke_e	e	n/a
419.0325	0.06	838065	keystroke_s	s	n/a
419.1375	0.075	838275	keystroke_Key.space	Key.space	n/a
420.3675	0.015	840735	keystroke_p	p	n/a
420.4275	0.045	840855	keystroke_a	a	n/a
420.5925	0.045	841185	keystroke_s	s	n/a
420.6975	0.06	841395	keystroke_s	s	n/a
420.8775	0.135	841755	keystroke_p	p	n/a
420.9525	0.105	841905	keystroke_o	o	n/a
421.1775	0.06	842355	keystroke_r	r	n/a
421.3575	0.075	842715	keystroke_t	t	n/a
421.4625	0.075	842925	keystroke_Key.space	Key.space	n/a
422.2275	0.03	844455	keystroke_f	f	n/a
422.4075	0.015	844815	keystroke_e	e	n/a
422.4825	0.075	844965	keystroke_e	e	n/a
422.6025	0.09	845205	keystroke_l	l	n/a
422.8425	0.105	845685	keystroke_i	i	n/a
422.9025	0.105	845805	keystroke_n	n	n/a
423.0225	0.045	846045	keystroke_g	g	n/a
423.2325	0.06	846465	keystroke_s	s	n/a
424.0575	0.0445	848115	keystroke_Key.enter	Key.enter	n/a
424.108	7.046	848216	prompt	n/a	memo savage his butler\n
425.062	0.045	850124	keystroke_m	m	n/a
425.122	0.03	850244	keystroke_e	e	n/a
425.183	0.09	850366	keystroke_m	m	n/a
425.437	0.075	850874	keystroke_o	o	n/a
425.632	0.075	851264	keystroke_Key.space	Key.space	n/a
426.203	0.075	852406	keystroke_s	s	n/a
426.353	0.075	852706	keystroke_a	a	n/a
426.533	0.06	853066	keystroke_v	v	n/a
426.743	0.105	853486	keystroke_a	a	n/a
427.5225	0.045	855045	keystroke_g	g	n/a
427.6725	0.06	855345	keystroke_e	e	n/a
427.7475	0.0755	855495	keystroke_Key.space	Key.space	n/a
428.018	0.105	856036	keystroke_h	h	n/a
428.093	0.105	856186	keystroke_i	i	n/a
428.228	0.06	856456	keystroke_s	s	n/a
428.348	0.089	856696	keystroke_Key.space	Key.space	n/a
429.383	0.12	858766	keystroke_b	b	n/a
429.443	0.105	858886	keystroke_u	u	n/a
429.773	0.045	859546	keystroke_t	t	n/a
429.878	0.12	859756	keystroke_l	l	n/a
430.028	0.045	860056	keystroke_e	e	n/a
430.193	0.075	860386	keystroke_r	r	n/a
431.063	0.0895	862126	keystroke_Key.enter	Key.enter	n/a
431.157	7.692	862314	prompt	n/a	moving criteria spouse accurately\n
432.0075	0.045	864015	keystroke_m	m	n/a
432.1575	0.09	864315	keystroke_o	o	n/a
432.3975	0.06	864795	keystroke_v	v	n/a
432.5025	0.1055	865005	keystroke_i	i	n/a
432.563	0.0895	865126	keystroke_n	n	n/a
432.6975	0.045	865395	keystroke_g	g	n/a
432.7725	0.09	865545	keystroke_Key.space	Key.space	n/a
433.463	0.075	866926	keystroke_c	c	n/a
433.688	0.045	867376	keystroke_r	r	n/a
433.793	0.075	867586	keystroke_i	i	n/a
433.943	0.06	867886	keystroke_t	t	n/a
434.108	0.105	868216	keystroke_e	e	n/a
434.198	0.045	868396	keystroke_r	r	n/a
434.362	0.091	868724	keystroke_i	i	n/a
434.498	0.075	868996	keystroke_a	a	n/a
434.648	0.09	869296	keystroke_Key.space	Key.space	n/a
435.323	0.06	870646	keystroke_s	s	n/a
435.443	0.12	870886	keystroke_p	p	n/a
435.5325	0.0905	871065	keystroke_o	o	n/a
435.773	0.105	871546	keystroke_u	u	n/a
436.058	0.06	872116	keystroke_s	s	n/a
436.238	0.075	872476	keystroke_e	e	n/a
436.327	0.076	872654	keystroke_Key.space	Key.space	n/a
436.643	0.09	873286	keystroke_a	a	n/a
436.943	0.03	873886	keystroke_c	c	n/a
437.033	0.075	874066	keystroke_c	c	n/a
437.438	0.06	874876	keystroke_u	u	n/a
437.632	0.016	875264	keystroke_r	r	n/a
437.813	0.015	875626	keystroke_a	a	n/a
437.903	0.12	875806	keystroke_t	t	n/a
437.978	0.089	875956	keystroke_e	e	n/a
438.098	0.105	876196	keystroke_l	l	n/a
438.188	0.105	876376	keystroke_y	y	n/a
438.757	0.09	877514	keystroke_Key.enter	Key.enter	n/a
438.8525	6.492	877705	prompt	n/a	matt former deadly laden\n
439.658	0.059	879316	keystroke_m	m	n/a
439.732	0.106	879464	keystroke_a	a	n/a
440.198	0.029	880396	keystroke_t	t	n/a
440.2875	0.09	880575	keystroke_t	t	n/a
440.5125	0.06	881025	keystroke_Key.space	Key.space	n/a
441.052	0.045	882104	keystroke_f	f	n/a
441.128	0.09	882256	keystroke_o	o	n/a
441.232	0.045	882464	keystroke_r	r	n/a
441.368	0.075	882736	keystroke_m	m	n/a
441.473	0.12	882946	keystroke_e	e	n/a
441.562	0.075	883124	keystroke_r	r	n/a
441.682	0.075	883364	keystroke_Key.space	Key.space	n/a
442.4775	0.045	884955	keystroke_d	d	n/a
442.6125	0.06	885225	keystroke_e	e	n/a
442.7625	0.075	885525	keystroke_a	a	n/a
442.9425	0.075	885885	keystroke_d	d	n/a
443.0625	0.12	886125	keystroke_l	l	n/a
443.2125	0.09	886425	keystroke_y	y	n/a
443.3325	0.075	886665	keystroke_Key.space	Key.space	n/a
443.8875	0.075	887775	keystroke_l	l	n/a
443.9775	0.105	887955	keystroke_a	a	n/a
444.457	0.06	888914	keystroke_d	d	n/a
444.637	0.075	889274	keystroke_e	e	n/a
444.742	0.075	889484	keystroke_n	n	n/a
445.252	0.09	890504	keystroke_Key.enter	Key.enter	n/a
445.3475	7.482	890695	prompt	n/a	called cafe commonly homeland\n
446.183	0.059	892366	keystroke_c	c	n/a
446.258	0.104	892516	keystroke_a	a	n/a
446.422	0.06	892844	keystroke_l	l	n/a
446.572	0.0905	893144	keystroke_l	l	n/a
446.6925	0.045	893385	keystroke_e	e	n/a
446.8725	0.06	893745	keystroke_d	d	n/a
446.9625	0.045	893925	keystroke_Key.space	Key.space	n/a
447.6075	0.075	895215	keystroke_c	c	n/a
447.6675	0.105	895335	keystroke_a	a	n/a
447.9525	0.12	895905	keystroke_f	f	n/a
448.0425	0.06	896085	keystroke_e	e	n/a
448.1775	0.075	896355	keystroke_Key.space	Key.space	n/a
448.6425	0.075	897285	keystroke_c	c	n/a
448.7625	0.105	897525	keystroke_o	o	n/a
449.063	0.0145	898126	keystroke_m	m	n/a
449.1525	0.09	898305	keystroke_m	m	n/a
449.4975	0.12	898995	keystroke_o	o	n/a
449.5725	0.075	899145	keystroke_n	n	n/a
450.1575	0.105	900315	keystroke_l	l	n/a
450.2775	0.075	900555	keystroke_y	y	n/a
450.4125	0.09	900825	keystroke_Key.space	Key.space	n/a
451.403	0.075	902806	keystroke_h	h	n/a
451.553	0.1045	903106	keystroke_o	o	n/a
451.7625	0.06	903525	keystroke_m	m	n/a
451.8675	0.075	903735	keystroke_e	e	n/a
451.9875	0.09	903975	keystroke_l	l	n/a
452.1075	0.09	904215	keystroke_a	a	n/a
452.2425	0.09	904485	keystroke_n	n	n/a
452.3625	0.075	904725	keystroke_d	d	n/a
452.753	0.075	905506	keystroke_Key.enter	Key.enter	n/a
452.8325	8.667	905665	prompt	n/a	gibson ballot terror robinson\n
453.788	0.06	907576	keystroke_g	g	n/a
453.893	0.075	907786	keystroke_i	i	n/a
454.103	0.06	908206	keystroke_b	b	n/a
454.328	0.045	908656	keystroke_s	s	n/a
454.448	0.105	908896	keystroke_o	o	n/a
454.673	0.075	909346	keystroke_n	n	n/a
454.883	0.075	909766	keystroke_Key.space	Key.space	n/a
455.978	0.06	911956	keystroke_b	b	n/a
456.053	0.09	912106	keystroke_a	a	n/a
456.3075	0.06	912615	keystroke_l	l	n/a
456.4275	0.09	912855	keystroke_l	l	n/a
456.803	0.105	913606	keystroke_o	o	n/a
456.923	0.059	913846	keystroke_t	t	n/a
457.0725	0.075	914145	keystroke_Key.space	Key.space	n/a
457.5975	0.06	915195	keystroke_t	t	n/a
457.7325	0.09	915465	keystroke_e	e	n/a
457.9575	0.03	915915	keystroke_r	r	n/a
458.0775	0.09	916155	keystroke_r	r	n/a
458.1225	0.105	916245	keystroke_o	o	n/a
458.2575	0.09	916515	keystroke_r	r	n/a
458.6175	0.0745	917235	keystroke_Key.space	Key.space	n/a
459.187	0.06	918374	keystroke_r	r	n/a
459.307	0.091	918614	keystroke_o	o	n/a
459.728	0.074	919456	keystroke_b	b	n/a
459.923	0.119	919846	keystroke_i	i	n/a
460.027	0.09	920054	keystroke_n	n	n/a
460.373	0.06	920746	keystroke_s	s	n/a
460.448	0.12	920896	keystroke_o	o	n/a
460.7325	0.075	921465	keystroke_n	n	n/a
461.4075	0.09	922815	keystroke_Key.enter	Key.enter	n/a
461.5025	5.6665	923005	prompt	n/a	programs actor alone uses\n
462.2175	0.09	924435	keystroke_p	p	n/a
462.4275	0.06	924855	keystroke_r	r	n/a
462.5025	0.09	925005	keystroke_o	o	n/a
462.667	0.045	925334	keystroke_g	g	n/a
462.847	0.03	925694	keystroke_r	r	n/a
462.967	0.075	925934	keystroke_a	a	n/a
463.087	0.091	926174	keystroke_m	m	n/a
463.222	0.06	926444	keystroke_s	s	n/a
463.327	0.075	926654	keystroke_Key.space	Key.space	n/a
463.777	0.075	927554	keystroke_a	a	n/a
463.987	0.0605	927974	keystroke_c	c	n/a
464.1825	0.075	928365	keystroke_t	t	n/a
464.3475	0.105	928695	keystroke_o	o	n/a
464.5125	0.06	929025	keystroke_r	r	n/a
464.6175	0.075	929235	keystroke_Key.space	Key.space	n/a
464.7825	0.09	929565	keystroke_a	a	n/a
464.9025	0.09	929805	keystroke_l	l	n/a
465.1125	0.09	930225	keystroke_o	o	n/a
465.3225	0.09	930645	keystroke_n	n	n/a
465.562	0.045	931124	keystroke_e	e	n/a
465.652	0.0605	931304	keystroke_Key.space	Key.space	n/a
466.342	0.075	932684	keystroke_u	u	n/a
466.462	0.06	932924	keystroke_s	s	n/a
466.627	0.0605	933254	keystroke_e	e	n/a
466.807	0.0755	933614	keystroke_s	s	n/a
467.0925	0.075	934185	keystroke_Key.enter	Key.enter	n/a
467.1725	5.9815	934345	prompt	n/a	folk electoral suit lang\n
468.008	0.06	936016	keystroke_f	f	n/a
468.143	0.06	936286	keystroke_o	o	n/a
468.473	0.09	936946	keystroke_l	l	n/a
468.6825	0.105	937365	keystroke_k	k	n/a
468.9225	0.075	937845	keystroke_Key.space	Key.space	n/a
469.1925	0.06	938385	keystroke_e	e	n/a
469.2975	0.0905	938595	keystroke_l	l	n/a
469.403	0.075	938806	keystroke_e	e	n/a
469.583	0.045	939166	keystroke_c	c	n/a
469.748	0.045	939496	keystroke_t	t	n/a
469.823	0.105	939646	keystroke_o	o	n/a
469.943	0.06	939886	keystroke_r	r	n/a
470.108	0.1045	940216	keystroke_a	a	n/a
470.2275	0.12	940455	keystroke_l	l	n/a
470.4675	0.075	940935	keystroke_Key.space	Key.space	n/a
470.6475	0.0605	941295	keystroke_s	s	n/a
470.768	0.09	941536	keystroke_u	u	n/a
471.053	0.075	942106	keystroke_i	i	n/a
471.173	0.075	942346	keystroke_t	t	n/a
471.293	0.09	942586	keystroke_Key.space	Key.space	n/a
472.013	0.0595	944026	keystroke_l	l	n/a
472.0875	0.09	944175	keystroke_a	a	n/a
472.4475	0.06	944895	keystroke_n	n	n/a
472.673	0.045	945346	keystroke_g	g	n/a
473.0925	0.06	946185	keystroke_Key.enter	Key.enter	n/a
473.16	7.9745	946320	prompt	n/a	spare immediate failures cooking\n
473.9625	0.045	947925	keystroke_s	s	n/a
474.0675	0.075	948135	keystroke_p	p	n/a
474.1575	0.075	948315	keystroke_a	a	n/a
474.3825	0.12	948765	keystroke_r	r	n/a
474.4725	0.06	948945	keystroke_e	e	n/a
474.5625	0.075	949125	keystroke_Key.space	Key.space	n/a
475.0725	0.09	950145	keystroke_i	i	n/a
475.312	0.031	950624	keystroke_m	m	n/a
475.433	0.045	950866	keystroke_m	m	n/a
475.583	0.06	951166	keystroke_e	e	n/a
475.748	0.075	951496	keystroke_d	d	n/a
475.853	0.075	951706	keystroke_i	i	n/a
475.943	0.075	951886	keystroke_a	a	n/a
476.1675	0.09	952335	keystroke_t	t	n/a
476.2125	0.105	952425	keystroke_e	e	n/a
476.3175	0.105	952635	keystroke_Key.space	Key.space	n/a
476.9925	0.045	953985	keystroke_f	f	n/a
477.3675	0.105	954735	keystroke_a	a	n/a
477.4875	0.0755	954975	keystroke_i	i	n/a
477.682	0.105	955364	keystroke_l	l	n/a
478.448	0.044	956896	keystroke_u	u	n/a
478.762	0.06	957524	keystroke_r	r	n/a
478.882	0.09	957764	keystroke_e	e	n/a
479.107	0.045	958214	keystroke_s	s	n/a
479.197	0.09	958394	keystroke_Key.space	Key.space	n/a
479.467	0.075	958934	keystroke_c	c	n/a
479.587	0.076	959174	keystroke_o	o	n/a
479.737	0.135	959474	keystroke_o	o	n/a
479.842	0.15	959684	keystroke_k	k	n/a
480.172	0.135	960344	keystroke_i	i	n/a
480.232	0.105	960464	keystroke_n	n	n/a
480.322	0.09	960644	keystroke_g	g	n/a
481.0425	0.09	962085	keystroke_Key.enter	Key.enter	n/a
481.138	7.5265	962276	prompt	n/a	unit else enough sells\n
481.9125	0.09	963825	keystroke_u	u	n/a
482.1525	0.09	964305	keystroke_n	n	n/a
482.4375	0.06	964875	keystroke_Key.backspace	Key.backspace	n/a
482.9025	0.09	965805	keystroke_n	n	n/a
483.2175	0.075	966435	keystroke_i	i	n/a
483.3375	0.06	966675	keystroke_s	s	n/a
483.9525	0.09	967905	keystroke_Key.backspace	Key.backspace	n/a
484.1625	0.075	968325	keystroke_t	t	n/a
484.2525	0.105	968505	keystroke_Key.space	Key.space	n/a
485.0475	0.045	970095	keystroke_e	e	n/a
485.1075	0.06	970215	keystroke_l	l	n/a
485.1975	0.06	970395	keystroke_s	s	n/a
485.363	0.06	970726	keystroke_e	e	n/a
485.438	0.09	970876	keystroke_Key.space	Key.space	n/a
486.0675	0.045	972135	keystroke_e	e	n/a
486.1575	0.075	972315	keystroke_n	n	n/a
486.3675	0.09	972735	keystroke_o	o	n/a
486.4275	0.09	972855	keystroke_u	u	n/a
486.5775	0.0755	973155	keystroke_g	g	n/a
486.653	0.09	973306	keystroke_h	h	n/a
486.863	0.09	973726	keystroke_Key.space	Key.space	n/a
487.2525	0.045	974505	keystroke_s	s	n/a
487.4325	0.06	974865	keystroke_e	e	n/a
487.5825	0.06	975165	keystroke_l	l	n/a
487.7025	0.105	975405	keystroke_l	l	n/a
487.8375	0.075	975675	keystroke_s	s	n/a
488.5875	0.075	977175	keystroke_Key.enter	Key.enter	n/a
488.6685	7.9905	977337	prompt	n/a	jobs counting silly rule\n
489.7575	0.015	979515	keystroke_j	j	n/a
489.8325	0.09	979665	keystroke_o	o	n/a
490.3575	0.06	980715	keystroke_b	b	n/a
490.6275	0.075	981255	keystroke_s	s	n/a
490.8375	0.045	981675	keystroke_Key.space	Key.space	n/a
492.0375	0.075	984075	keystroke_c	c	n/a
492.1575	0.15	984315	keystroke_o	o	n/a
492.2475	0.075	984495	keystroke_u	u	n/a
492.4425	0.09	984885	keystroke_n	n	n/a
492.5775	0.0605	985155	keystroke_t	t	n/a
492.6825	0.09	985365	keystroke_i	i	n/a
492.7275	0.09	985455	keystroke_n	n	n/a
492.8625	0.045	985725	keystroke_g	g	n/a
492.9525	0.105	985905	keystroke_Key.space	Key.space	n/a
493.7175	0.06	987435	keystroke_s	s	n/a
493.7785	0.089	987557	keystroke_i	i	n/a
494.1225	0.045	988245	keystroke_l	l	n/a
494.2275	0.09	988455	keystroke_l	l	n/a
494.3325	0.075	988665	keystroke_y	y	n/a
494.4525	0.075	988905	keystroke_Key.space	Key.space	n/a
494.9475	0.015	989895	keystroke_r	r	n/a
495.0375	0.06	990075	keystroke_u	u	n/a
495.2175	0.105	990435	keystroke_l	l	n/a
495.3675	0.06	990735	keystroke_e	e	n/a
496.5825	0.075	993165	keystroke_Key.enter	Key.enter	n/a
496.662	9.5675	993324	prompt	n/a	zshops french meanwhile august\n
497.8875	0.0745	995775	keystroke_z	z	n/a
498.2925	0.06	996585	keystroke_s	s	n/a
498.5625	0.06	997125	keystroke_h	h	n/a
498.7575	0.075	997515	keystroke_o	o	n/a
498.9675	0.075	997935	keystroke_p	p	n/a
499.2525	0.06	998505	keystroke_s	s	n/a
499.4775	0.06	998955	keystroke_Key.space	Key.space	n/a
499.9275	0.045	999855	keystroke_f	f	n/a
500.1075	0.06	1000215	keystroke_r	r	n/a
500.2575	0.06	1000515	keystroke_e	e	n/a
500.3925	0.09	1000785	keystroke_n	n	n/a
500.7675	0.09	1001535	keystroke_c	c	n/a
500.8725	0.09	1001745	keystroke_h	h	n/a
501.1275	0.075	1002255	keystroke_Key.space	Key.space	n/a
501.637	0.06	1003274	keystroke_m	m	n/a
501.772	0.06	1003544	keystroke_e	e	n/a
501.997	0.0905	1003994	keystroke_a	a	n/a
502.1775	0.09	1004355	keystroke_n	n	n/a
503.0775	0.06	1006155	keystroke_w	w	n/a
503.2875	0.075	1006575	keystroke_h	h	n/a
503.4075	0.09	1006815	keystroke_i	i	n/a
503.6625	0.075	1007325	keystroke_l	l	n/a
503.7825	0.06	1007565	keystroke_e	e	n/a
503.9025	0.075	1007805	keystroke_Key.space	Key.space	n/a
504.3975	0.09	1008795	keystroke_a	a	n/a
504.787	0.0755	1009574	keystroke_u	u	n/a
505.1475	0.06	1010295	keystroke_g	g	n/a
505.2675	0.075	1010535	keystroke_u	u	n/a
505.5225	0.06	1011045	keystroke_s	s	n/a
505.7175	0.06	1011435	keystroke_t	t	n/a
506.1375	0.09	1012275	keystroke_Key.enter	Key.enter	n/a
506.2325	9.897	1012465	prompt	n/a	specialized indicators guitar pounds\n
507.037	0.06	1014074	keystroke_s	s	n/a
507.112	0.105	1014224	keystroke_p	p	n/a
507.262	0.1055	1014524	keystroke_e	e	n/a
507.502	0.06	1015004	keystroke_c	c	n/a
507.577	0.09	1015154	keystroke_i	i	n/a
507.682	0.075	1015364	keystroke_a	a	n/a
507.907	0.09	1015814	keystroke_l	l	n/a
508.1325	0.075	1016265	keystroke_i	i	n/a
508.3875	0.06	1016775	keystroke_z	z	n/a
508.5675	0.06	1017135	keystroke_e	e	n/a
508.7625	0.06	1017525	keystroke_d	d	n/a
508.8375	0.075	1017675	keystroke_Key.space	Key.space	n/a
509.3925	0.09	1018785	keystroke_i	i	n/a
509.4675	0.09	1018935	keystroke_n	n	n/a
509.8125	0.045	1019625	keystroke_d	d	n/a
509.8875	0.09	1019775	keystroke_i	i	n/a
509.9925	0.06	1019985	keystroke_c	c	n/a
510.0825	0.075	1020165	keystroke_a	a	n/a
510.2775	0.06	1020555	keystroke_t	t	n/a
510.4275	0.105	1020855	keystroke_o	o	n/a
510.6075	0.06	1021215	keystroke_r	r	n/a
510.7125	0.105	1021425	keystroke_s	s	n/a
510.8325	0.09	1021665	keystroke_Key.space	Key.space	n/a
511.5825	0.045	1023165	keystroke_g	g	n/a
511.6875	0.075	1023375	keystroke_u	u	n/a
511.8675	0.075	1023735	keystroke_i	i	n/a
512.0775	0.06	1024155	keystroke_t	t	n/a
512.2725	0.075	1024545	keystroke_a	a	n/a
512.4975	0.06	1024995	keystroke_r	r	n/a
513.0375	0.06	1026075	keystroke_Key.space	Key.space	n/a
513.3375	0.135	1026675	keystroke_o	o	n/a
513.4275	0.09	1026855	keystroke_u	u	n/a
513.9525	0.06	1027905	keystroke_Key.backspace	Key.backspace	n/a
514.1025	0.075	1028205	keystroke_Key.backspace	Key.backspace	n/a
514.748	0.075	1029496	keystroke_p	p	n/a
514.838	0.09	1029676	keystroke_o	o	n/a
515.063	0.075	1030126	keystroke_u	u	n/a
515.273	0.075	1030546	keystroke_n	n	n/a
515.438	0.06	1030876	keystroke_d	d	n/a
515.588	0.075	1031176	keystroke_s	s	n/a
516.038	0.09	1032076	keystroke_Key.enter	Key.enter	n/a
516.1325	12.2065	1032265	prompt	n/a	gone solely scsi organized\n
517.1925	0.045	1034385	keystroke_g	g	n/a
517.3425	0.075	1034685	keystroke_i	i	n/a
517.3875	0.12	1034775	keystroke_n	n	n/a
517.6425	0.075	1035285	keystroke_e	e	n/a
518.3475	0.06	1036695	keystroke_Key.backspace	Key.backspace	n/a
518.5275	0.06	1037055	keystroke_Key.backspace	Key.backspace	n/a
518.6925	0.075	1037385	keystroke_Key.backspace	Key.backspace	n/a
519.4275	0.075	1038855	keystroke_o	o	n/a
519.5475	0.06	1039095	keystroke_n	n	n/a
519.7875	0.045	1039575	keystroke_e	e	n/a
519.9075	0.075	1039815	keystroke_Key.space	Key.space	n/a
520.808	0.06	1041616	keystroke_s	s	n/a
520.898	0.075	1041796	keystroke_o	o	n/a
521.093	0.0895	1042186	keystroke_l	l	n/a
521.9175	0.06	1043835	keystroke_e	e	n/a
522.4425	0.09	1044885	keystroke_l	l	n/a
522.6075	0.075	1045215	keystroke_y	y	n/a
522.8025	0.075	1045605	keystroke_Key.space	Key.space	n/a
523.6575	0.06	1047315	keystroke_s	s	n/a
523.8375	0.075	1047675	keystroke_c	c	n/a
523.9875	0.09	1047975	keystroke_s	s	n/a
524.4825	0.075	1048965	keystroke_i	i	n/a
524.722	0.06	1049444	keystroke_Key.space	Key.space	n/a
525.128	0.0745	1050256	keystroke_o	o	n/a
525.3525	0.075	1050705	keystroke_r	r	n/a
525.6225	0.06	1051245	keystroke_g	g	n/a
526.2225	0.09	1052445	keystroke_a	a	n/a
526.3575	0.075	1052715	keystroke_n	n	n/a
526.7325	0.09	1053465	keystroke_i	i	n/a
527.0175	0.06	1054035	keystroke_z	z	n/a
527.2275	0.0595	1054455	keystroke_e	e	n/a
527.408	0.074	1054816	keystroke_d	d	n/a
528.0075	0.06	1056015	keystroke_Key.space	Key.space	n/a
528.2775	0.06	1056555	keystroke_Key.enter	Key.enter	n/a
528.3425	8.9365	1056685	prompt	n/a	dump richards dying macro\n
529.6575	0.06	1059315	keystroke_d	d	n/a
529.8075	0.045	1059615	keystroke_u	u	n/a
530.1225	0.06	1060245	keystroke_m	m	n/a
530.392	0.075	1060784	keystroke_p	p	n/a
530.6925	0.045	1061385	keystroke_Key.space	Key.space	n/a
531.4125	0.06	1062825	keystroke_r	r	n/a
531.6075	0.06	1063215	keystroke_i	i	n/a
531.9075	0.045	1063815	keystroke_c	c	n/a
532.027	0.075	1064054	keystroke_h	h	n/a
532.117	0.06	1064234	keystroke_a	a	n/a
532.312	0.075	1064624	keystroke_r	r	n/a
532.612	0.12	1065224	keystroke_d	d	n/a
532.687	0.09	1065374	keystroke_s	s	n/a
532.837	0.075	1065674	keystroke_Key.space	Key.space	n/a
533.527	0.06	1067054	keystroke_d	d	n/a
533.767	0.09	1067534	keystroke_y	y	n/a
533.932	0.105	1067864	keystroke_i	i	n/a
533.992	0.09	1067984	keystroke_n	n	n/a
534.097	0.075	1068194	keystroke_g	g	n/a
534.202	0.09	1068404	keystroke_Key.space	Key.space	n/a
534.7425	0.0595	1069485	keystroke_m	m	n/a
535.7175	0.09	1071435	keystroke_a	a	n/a
536.0625	0.06	1072125	keystroke_c	c	n/a
536.662	0.075	1073324	keystroke_r	r	n/a
536.767	0.105	1073534	keystroke_o	o	n/a
537.1875	0.09	1074375	keystroke_Key.enter	Key.enter	n/a
537.283	9.716	1074566	prompt	n/a	leisure positions connections parker\n
538.4025	0.06	1076805	keystroke_l	l	n/a
538.5525	0.075	1077105	keystroke_e	e	n/a
538.763	0.0745	1077526	keystroke_i	i	n/a
539.0025	0.06	1078005	keystroke_s	s	n/a
539.1375	0.075	1078275	keystroke_u	u	n/a
539.3625	0.105	1078725	keystroke_r	r	n/a
539.4225	0.075	1078845	keystroke_e	e	n/a
539.5575	0.075	1079115	keystroke_Key.space	Key.space	n/a
540.0225	0.09	1080045	keystroke_p	p	n/a
540.3075	0.06	1080615	keystroke_o	o	n/a
540.5925	0.06	1081185	keystroke_s	s	n/a
540.7275	0.075	1081455	keystroke_i	i	n/a
540.8775	0.075	1081755	keystroke_t	t	n/a
540.9675	0.105	1081935	keystroke_i	i	n/a
541.0275	0.09	1082055	keystroke_o	o	n/a
541.1925	0.09	1082385	keystroke_n	n	n/a
541.4625	0.075	1082925	keystroke_s	s	n/a
541.6125	0.075	1083225	keystroke_Key.space	Key.space	n/a
542.2125	0.075	1084425	keystroke_c	c	n/a
542.362	0.09	1084724	keystroke_o	o	n/a
542.617	0.015	1085234	keystroke_n	n	n/a
542.7225	0.09	1085445	keystroke_n	n	n/a
543.7425	0.15	1087485	keystroke_e	e	n/a
543.8175	0.105	1087635	keystroke_c	c	n/a
544.417	0.09	1088834	keystroke_t	t	n/a
544.612	0.1055	1089224	keystroke_i	i	n/a
544.6875	0.09	1089375	keystroke_o	o	n/a
544.8675	0.09	1089735	keystroke_n	n	n/a
545.0625	0.0595	1090125	keystroke_s	s	n/a
545.167	0.075	1090334	keystroke_Key.space	Key.space	n/a
545.9025	0.015	1091805	keystroke_p	p	n/a
545.9325	0.09	1091865	keystroke_a	a	n/a
546.1275	0.06	1092255	keystroke_r	r	n/a
546.2625	0.075	1092525	keystroke_k	k	n/a
546.382	0.1205	1092764	keystroke_e	e	n/a
546.4725	0.075	1092945	keystroke_r	r	n/a
546.922	0.075	1093844	keystroke_Key.enter	Key.enter	n/a
547.002	8.592	1094004	prompt	n/a	merchant religious herbs scott\n
547.8225	0.06	1095645	keystroke_m	m	n/a
547.9275	0.075	1095855	keystroke_e	e	n/a
548.1225	0.045	1096245	keystroke_r	r	n/a
548.3325	0.06	1096665	keystroke_c	c	n/a
548.4375	0.06	1096875	keystroke_h	h	n/a
548.5275	0.09	1097055	keystroke_a	a	n/a
548.662	0.075	1097324	keystroke_n	n	n/a
548.782	0.075	1097564	keystroke_t	t	n/a
548.872	0.09	1097744	keystroke_Key.space	Key.space	n/a
549.727	0.03	1099454	keystroke_r	r	n/a
549.742	0.045	1099484	keystroke_e	e	n/a
549.862	0.135	1099724	keystroke_l	l	n/a
549.952	0.105	1099904	keystroke_i	i	n/a
550.6725	0.06	1101345	keystroke_g	g	n/a
550.8525	0.105	1101705	keystroke_i	i	n/a
551.0175	0.1645	1102035	keystroke_o	o	n/a
551.122	0.12	1102244	keystroke_u	u	n/a
551.332	0.06	1102664	keystroke_s	s	n/a
551.422	0.09	1102844	keystroke_Key.space	Key.space	n/a
552.7125	0.045	1105425	keystroke_h	h	n/a
552.8025	0.06	1105605	keystroke_e	e	n/a
552.9825	0.045	1105965	keystroke_r	r	n/a
553.2675	0.09	1106535	keystroke_b	b	n/a
553.4025	0.06	1106805	keystroke_s	s	n/a
553.5225	0.09	1107045	keystroke_Key.space	Key.space	n/a
554.0775	0.09	1108155	keystroke_s	s	n/a
554.2425	0.075	1108485	keystroke_c	c	n/a
554.7675	0.075	1109535	keystroke_o	o	n/a
554.9325	0.0445	1109865	keystroke_t	t	n/a
555.037	0.09	1110074	keystroke_t	t	n/a
555.488	0.105	1110976	keystroke_Key.enter	Key.enter	n/a
555.5975	8.9665	1111195	prompt	n/a	ireland mobile functionality chicken\n
556.448	0.06	1112896	keystroke_i	i	n/a
556.628	0.105	1113256	keystroke_r	r	n/a
556.703	0.06	1113406	keystroke_e	e	n/a
556.823	0.075	1113646	keystroke_l	l	n/a
556.988	0.06	1113976	keystroke_a	a	n/a
557.123	0.075	1114246	keystroke_n	n	n/a
557.258	0.075	1114516	keystroke_d	d	n/a
557.378	0.09	1114756	keystroke_Key.space	Key.space	n/a
558.1125	0.15	1116225	keystroke_m	m	n/a
558.2025	0.12	1116405	keystroke_o	o	n/a
558.668	0.105	1117336	keystroke_b	b	n/a
558.728	0.12	1117456	keystroke_i	i	n/a
559.013	0.075	1118026	keystroke_l	l	n/a
559.118	0.075	1118236	keystroke_e	e	n/a
559.238	0.0745	1118476	keystroke_Key.space	Key.space	n/a
560.6025	0.09	1121205	keystroke_f	f	n/a
560.8725	0.075	1121745	keystroke_u	u	n/a
561.2925	0.075	1122585	keystroke_n	n	n/a
561.3975	0.06	1122795	keystroke_c	c	n/a
561.6075	0.06	1123215	keystroke_t	t	n/a
561.8025	0.105	1123605	keystroke_i	i	n/a
561.8775	0.09	1123755	keystroke_o	o	n/a
562.0275	0.075	1124055	keystroke_n	n	n/a
562.1325	0.075	1124265	keystroke_a	a	n/a
562.2675	0.105	1124535	keystroke_l	l	n/a
562.3275	0.105	1124655	keystroke_i	i	n/a
562.4175	0.06	1124835	keystroke_t	t	n/a
562.5975	0.075	1125195	keystroke_y	y	n/a
562.6875	0.075	1125375	keystroke_Key.space	Key.space	n/a
563.2125	0.06	1126425	keystroke_c	c	n/a
563.3175	0.06	1126635	keystroke_h	h	n/a
563.4375	0.09	1126875	keystroke_i	i	n/a
563.6325	0.06	1127265	keystroke_c	c	n/a
563.8275	0.075	1127655	keystroke_k	k	n/a
563.9775	0.075	1127955	keystroke_e	e	n/a
564.0975	0.075	1128195	keystroke_n	n	n/a
564.4725	0.09	1128945	keystroke_Key.enter	Key.enter	n/a
564.567	12.012	1129134	prompt	n/a	structured conservative choice contamination\n
565.3875	0.045	1130775	keystroke_s	s	n/a
565.5525	0.045	1131105	keystroke_t	t	n/a
565.7325	0.015	1131465	keystroke_r	r	n/a
565.8075	0.09	1131615	keystroke_u	u	n/a
565.9575	0.06	1131915	keystroke_c	c	n/a
566.1825	0.045	1132365	keystroke_t	t	n/a
566.3625	0.06	1132725	keystroke_u	u	n/a
566.5275	0.105	1133055	keystroke_r	r	n/a
566.6025	0.0445	1133205	keystroke_e	e	n/a
566.767	0.075	1133534	keystroke_d	d	n/a
566.872	0.075	1133744	keystroke_Key.space	Key.space	n/a
567.5175	0.06	1135035	keystroke_c	c	n/a
567.6375	0.105	1135275	keystroke_o	o	n/a
567.7125	0.09	1135425	keystroke_n	n	n/a
567.8925	0.06	1135785	keystroke_s	s	n/a
568.0725	0.105	1136145	keystroke_e	e	n/a
568.1475	0.09	1136295	keystroke_r	r	n/a
569.3775	0.075	1138755	keystroke_v	v	n/a
569.6625	0.09	1139325	keystroke_a	a	n/a
569.9025	0.06	1139805	keystroke_t	t	n/a
570.0375	0.105	1140075	keystroke_i	i	n/a
570.517	0.045	1141034	keystroke_v	v	n/a
570.622	0.0755	1141244	keystroke_e	e	n/a
570.7125	0.09	1141425	keystroke_Key.space	Key.space	n/a
571.7775	0.06	1143555	keystroke_c	c	n/a
571.9725	0.06	1143945	keystroke_h	h	n/a
572.3175	0.105	1144635	keystroke_o	o	n/a
572.3625	0.12	1144725	keystroke_i	i	n/a
572.767	0.12	1145534	keystroke_c	c	n/a
572.857	0.09	1145714	keystroke_e	e	n/a
573.0225	0.075	1146045	keystroke_Key.space	Key.space	n/a
573.7425	0.045	1147485	keystroke_c	c	n/a
573.8475	0.105	1147695	keystroke_o	o	n/a
573.9975	0.09	1147995	keystroke_n	n	n/a
574.477	0.075	1148954	keystroke_t	t	n/a
574.672	0.075	1149344	keystroke_a	a	n/a
574.807	0.09	1149614	keystroke_m	m	n/a
575.002	0.09	1150004	keystroke_i	i	n/a
575.077	0.075	1150154	keystroke_n	n	n/a
575.362	0.075	1150724	keystroke_a	a	n/a
575.482	0.075	1150964	keystroke_t	t	n/a
575.587	0.0905	1151174	keystroke_i	i	n/a
575.632	0.0905	1151264	keystroke_o	o	n/a
575.7825	0.075	1151565	keystroke_n	n	n/a
575.9625	0.075	1151925	keystroke_Key.space	Key.space	n/a
576.502	0.075	1153004	keystroke_Key.enter	Key.enter	n/a
576.583	6.3715	1153166	prompt	n/a	moms interest video relates\n
577.402	0.06	1154804	keystroke_m	m	n/a
577.522	0.12	1155044	keystroke_o	o	n/a
577.627	0.09	1155254	keystroke_m	m	n/a
577.867	0.0455	1155734	keystroke_s	s	n/a
577.9575	0.105	1155915	keystroke_Key.space	Key.space	n/a
578.3925	0.075	1156785	keystroke_i	i	n/a
578.4375	0.105	1156875	keystroke_n	n	n/a
578.6475	0.045	1157295	keystroke_t	t	n/a
578.7225	0.135	1157445	keystroke_e	e	n/a
578.8575	0.165	1157715	keystroke_r	r	n/a
578.9775	0.075	1157955	keystroke_e	e	n/a
579.1725	0.09	1158345	keystroke_s	s	n/a
579.2775	0.09	1158555	keystroke_t	t	n/a
579.4275	0.09	1158855	keystroke_Key.space	Key.space	n/a
580.0725	0.09	1160145	keystroke_v	v	n/a
580.1775	0.06	1160355	keystroke_i	i	n/a
580.447	0.045	1160894	keystroke_d	d	n/a
580.597	0.075	1161194	keystroke_e	e	n/a
580.657	0.09	1161314	keystroke_o	o	n/a
580.867	0.075	1161734	keystroke_Key.space	Key.space	n/a
581.3925	0.09	1162785	keystroke_r	r	n/a
581.4525	0.09	1162905	keystroke_e	e	n/a
581.5875	0.075	1163175	keystroke_l	l	n/a
581.6925	0.09	1163385	keystroke_a	a	n/a
581.8425	0.15	1163685	keystroke_t	t	n/a
581.9475	0.075	1163895	keystroke_e	e	n/a
582.1575	0.075	1164315	keystroke_s	s	n/a
582.8925	0.06	1165785	keystroke_Key.enter	Key.enter	n/a
582.963	8.736	1165926	prompt	n/a	vista reflected nine graphics\n
583.8975	0.045	1167795	keystroke_v	v	n/a
584.0175	0.075	1168035	keystroke_i	i	n/a
584.1675	0.06	1168335	keystroke_s	s	n/a
584.8425	0.09	1169685	keystroke_t	t	n/a
584.9625	0.09	1169925	keystroke_a	a	n/a
585.0975	0.075	1170195	keystroke_Key.space	Key.space	n/a
585.517	0.09	1171034	keystroke_r	r	n/a
585.562	0.105	1171124	keystroke_e	e	n/a
586.207	0.045	1172414	keystroke_f	f	n/a
586.282	0.075	1172564	keystroke_l	l	n/a
586.387	0.135	1172774	keystroke_e	e	n/a
586.462	0.075	1172924	keystroke_c	c	n/a
586.6575	0.12	1173315	keystroke_t	t	n/a
586.7625	0.06	1173525	keystroke_e	e	n/a
586.9425	0.09	1173885	keystroke_d	d	n/a
587.0475	0.0595	1174095	keystroke_Key.space	Key.space	n/a
588.097	0.075	1176194	keystroke_n	n	n/a
588.217	0.12	1176434	keystroke_i	i	n/a
588.322	0.075	1176644	keystroke_n	n	n/a
588.502	0.045	1177004	keystroke_e	e	n/a
588.607	0.075	1177214	keystroke_Key.space	Key.space	n/a
589.777	0.015	1179554	keystroke_g	g	n/a
589.807	0.045	1179614	keystroke_r	r	n/a
589.9725	0.075	1179945	keystroke_a	a	n/a
590.092	0.09	1180184	keystroke_p	p	n/a
590.407	0.045	1180814	keystroke_h	h	n/a
590.512	0.106	1181024	keystroke_i	i	n/a
590.887	0.06	1181774	keystroke_c	c	n/a
591.022	0.105	1182044	keystroke_s	s	n/a
591.607	0.09	1183214	keystroke_Key.enter	Key.enter	n/a
591.703	8.066	1183406	prompt	n/a	allen burning players occurs\n
592.3575	0.075	1184715	keystroke_a	a	n/a
592.5375	0.06	1185075	keystroke_l	l	n/a
592.6575	0.075	1185315	keystroke_l	l	n/a
592.7925	0.06	1185585	keystroke_e	e	n/a
592.9275	0.075	1185855	keystroke_n	n	n/a
593.1225	0.059	1186245	keystroke_Key.space	Key.space	n/a
593.888	0.059	1187776	keystroke_b	b	n/a
594.113	0.074	1188226	keystroke_u	u	n/a
594.263	0.074	1188526	keystroke_r	r	n/a
594.398	0.075	1188796	keystroke_n	n	n/a
594.592	0.105	1189184	keystroke_i	i	n/a
594.667	0.091	1189334	keystroke_n	n	n/a
594.788	0.06	1189576	keystroke_g	g	n/a
594.893	0.074	1189786	keystroke_Key.space	Key.space	n/a
595.582	0.15	1191164	keystroke_p	p	n/a
595.778	0.044	1191556	keystroke_l	l	n/a
595.837	0.075	1191674	keystroke_a	a	n/a
596.047	0.0755	1192094	keystroke_y	y	n/a
596.2425	0.135	1192485	keystroke_e	e	n/a
596.3325	0.075	1192665	keystroke_r	r	n/a
596.5275	0.075	1193055	keystroke_s	s	n/a
596.6475	0.075	1193295	keystroke_Key.space	Key.space	n/a
597.6525	0.075	1195305	keystroke_o	o	n/a
598.0425	0.045	1196085	keystroke_c	c	n/a
598.1475	0.075	1196295	keystroke_c	c	n/a
598.2375	0.075	1196475	keystroke_u	u	n/a
598.837	0.045	1197674	keystroke_r	r	n/a
599.032	0.045	1198064	keystroke_s	s	n/a
599.632	0.135	1199264	keystroke_Key.enter	Key.enter	n/a
599.772	8.4415	1199544	prompt	n/a	had slight hills wrapping\n
600.697	0.06	1201394	keystroke_h	h	n/a
600.802	0.0755	1201604	keystroke_a	a	n/a
600.9975	0.045	1201995	keystroke_d	d	n/a
601.1025	0.06	1202205	keystroke_Key.space	Key.space	n/a
601.7325	0.045	1203465	keystroke_s	s	n/a
601.8375	0.15	1203675	keystroke_l	l	n/a
601.9575	0.105	1203915	keystroke_i	i	n/a
602.1825	0.06	1204365	keystroke_g	g	n/a
602.2575	0.09	1204515	keystroke_h	h	n/a
602.3775	0.075	1204755	keystroke_t	t	n/a
602.4975	0.075	1204995	keystroke_Key.space	Key.space	n/a
603.322	0.105	1206644	keystroke_h	h	n/a
603.367	0.12	1206734	keystroke_i	i	n/a
603.637	0.045	1207274	keystroke_l	l	n/a
603.757	0.09	1207514	keystroke_l	l	n/a
603.937	0.045	1207874	keystroke_s	s	n/a
604.012	0.075	1208024	keystroke_Key.space	Key.space	n/a
604.732	0.105	1209464	keystroke_w	w	n/a
604.852	0.045	1209704	keystroke_e	e	n/a
605.032	0.09	1210064	keystroke_a	a	n/a
605.167	0.075	1210334	keystroke_p	p	n/a
605.317	0.075	1210634	keystroke_p	p	n/a
605.6325	0.0745	1211265	keystroke_Key.backspace	Key.backspace	n/a
605.797	0.075	1211594	keystroke_Key.backspace	Key.backspace	n/a
605.947	0.0755	1211894	keystroke_Key.backspace	Key.backspace	n/a
606.1275	0.09	1212255	keystroke_Key.backspace	Key.backspace	n/a
606.9375	0.06	1213875	keystroke_r	r	n/a
607.1025	0.06	1214205	keystroke_a	a	n/a
607.2675	0.06	1214535	keystroke_p	p	n/a
607.4025	0.075	1214805	keystroke_p	p	n/a
607.6275	0.105	1215255	keystroke_i	i	n/a
607.7025	0.09	1215405	keystroke_n	n	n/a
607.7925	0.06	1215585	keystroke_g	g	n/a
608.1225	0.09	1216245	keystroke_Key.enter	Key.enter	n/a
608.217	9.462	1216434	prompt	n/a	recipient casey opportunity sticky\n
609.2025	0.1045	1218405	keystroke_r	r	n/a
609.442	0.06	1218884	keystroke_e	e	n/a
609.667	0.06	1219334	keystroke_c	c	n/a
609.907	0.0905	1219814	keystroke_i	i	n/a
610.1775	0.12	1220355	keystroke_p	p	n/a
610.282	0.1055	1220564	keystroke_i	i	n/a
610.523	0.074	1221046	keystroke_e	e	n/a
610.642	0.09	1221284	keystroke_n	n	n/a
610.777	0.09	1221554	keystroke_t	t	n/a
610.882	0.0755	1221764	keystroke_Key.space	Key.space	n/a
611.7225	0.075	1223445	keystroke_c	c	n/a
611.8125	0.1645	1223625	keystroke_a	a	n/a
611.932	0.075	1223864	keystroke_s	s	n/a
612.187	0.06	1224374	keystroke_e	e	n/a
612.337	0.075	1224674	keystroke_y	y	n/a
612.457	0.09	1224914	keystroke_Key.space	Key.space	n/a
613.1175	0.045	1226235	keystroke_o	o	n/a
613.2975	0.06	1226595	keystroke_p	p	n/a
613.4475	0.105	1226895	keystroke_p	p	n/a
613.5375	0.09	1227075	keystroke_o	o	n/a
613.7475	0.06	1227495	keystroke_r	r	n/a
613.9425	0.045	1227885	keystroke_t	t	n/a
614.0325	0.075	1228065	keystroke_u	u	n/a
614.2275	0.06	1228455	keystroke_n	n	n/a
614.3475	0.105	1228695	keystroke_i	i	n/a
614.4225	0.09	1228845	keystroke_t	t	n/a
614.5875	0.105	1229175	keystroke_y	y	n/a
614.6765	0.09	1229353	keystroke_Key.space	Key.space	n/a
615.742	0.075	1231484	keystroke_s	s	n/a
616.132	0.0605	1232264	keystroke_t	t	n/a
616.2675	0.075	1232535	keystroke_i	i	n/a
616.5675	0.06	1233135	keystroke_c	c	n/a
616.6875	0.12	1233375	keystroke_k	k	n/a
616.9425	0.075	1233885	keystroke_y	y	n/a
617.5875	0.09	1235175	keystroke_Key.enter	Key.enter	n/a
617.6825	7.541	1235365	prompt	n/a	nikon narrow windows colored\n
618.6675	0.075	1237335	keystroke_n	n	n/a
618.892	0.06	1237784	keystroke_i	i	n/a
619.207	0.06	1238414	keystroke_k	k	n/a
619.3875	0.09	1238775	keystroke_o	o	n/a
619.6725	0.045	1239345	keystroke_n	n	n/a
619.8375	0.06	1239675	keystroke_Key.space	Key.space	n/a
620.3325	0.015	1240665	keystroke_n	n	n/a
620.3625	0.075	1240725	keystroke_a	a	n/a
620.572	0.015	1241144	keystroke_r	r	n/a
620.662	0.06	1241324	keystroke_r	r	n/a
621.127	0.09	1242254	keystroke_o	o	n/a
621.262	0.075	1242524	keystroke_w	w	n/a
621.397	0.06	1242794	keystroke_Key.space	Key.space	n/a
622.027	0.06	1244054	keystroke_w	w	n/a
622.102	0.135	1244204	keystroke_i	i	n/a
622.207	0.09	1244414	keystroke_n	n	n/a
622.5525	0.06	1245105	keystroke_d	d	n/a
622.687	0.105	1245374	keystroke_o	o	n/a
622.867	0.06	1245734	keystroke_w	w	n/a
623.062	0.075	1246124	keystroke_s	s	n/a
623.152	0.075	1246304	keystroke_Key.space	Key.space	n/a
623.977	0.075	1247954	keystroke_c	c	n/a
624.097	0.075	1248194	keystroke_o	o	n/a
624.2925	0.06	1248585	keystroke_l	l	n/a
624.4725	0.06	1248945	keystroke_o	o	n/a
624.5775	0.1345	1249155	keystroke_r	r	n/a
624.6675	0.0745	1249335	keystroke_e	e	n/a
624.847	0.075	1249694	keystroke_d	d	n/a
625.147	0.075	1250294	keystroke_Key.enter	Key.enter	n/a
625.227	9.5665	1250454	prompt	n/a	birth laptop rainbow networking\n
626.1675	0.045	1252335	keystroke_b	b	n/a
626.3025	0.09	1252605	keystroke_i	i	n/a
626.4225	0.06	1252845	keystroke_r	r	n/a
626.6025	0.075	1253205	keystroke_t	t	n/a
626.6925	0.075	1253385	keystroke_h	h	n/a
626.9175	0.06	1253835	keystroke_Key.space	Key.space	n/a
627.3525	0.06	1254705	keystroke_l	l	n/a
627.472	0.105	1254944	keystroke_a	a	n/a
627.757	0.09	1255514	keystroke_p	p	n/a
628.042	0.06	1256084	keystroke_t	t	n/a
628.147	0.105	1256294	keystroke_o	o	n/a
628.207	0.12	1256414	keystroke_p	p	n/a
628.552	0.045	1257104	keystroke_Key.space	Key.space	n/a
629.377	0.06	1258754	keystroke_r	r	n/a
629.542	0.075	1259084	keystroke_a	a	n/a
629.662	0.075	1259324	keystroke_i	i	n/a
629.872	0.06	1259744	keystroke_n	n	n/a
630.127	0.06	1260254	keystroke_b	b	n/a
630.487	0.09	1260974	keystroke_o	o	n/a
630.592	0.075	1261184	keystroke_w	w	n/a
630.727	0.075	1261454	keystroke_Key.space	Key.space	n/a
633.189	0.013	1266378	keystroke_n	n	n/a
633.247	0.045	1266494	keystroke_e	e	n/a
633.4115	0.045	1266823	keystroke_t	t	n/a
633.6365	0.076	1267273	keystroke_w	w	n/a
