onset	duration	sample	value	key	prompt_text
3.286	7.8595	6572	prompt	n/a	the quick brown fox jumps over a lazy dog\n
4.456	0.012	8912	keystroke_t	t	n/a
4.483	0.0905	8966	keystroke_h	h	n/a
4.6335	0.09	9267	keystroke_e	e	n/a
4.7685	0.09	9537	keystroke_Key.space	Key.space	n/a
4.9335	0.105	9867	keystroke_q	q	n/a
5.0535	0.075	10107	keystroke_u	u	n/a
5.3535	0.06	10707	keystroke_c	c	n/a
5.7285	0.09	11457	keystroke_Key.backspace	Key.backspace	n/a
6.086	0.085	12172	keystroke_i	i	n/a
6.216	0.09	12432	keystroke_c	c	n/a
6.321	0.075	12642	keystroke_k	k	n/a
6.441	0.09	12882	keystroke_Key.space	Key.space	n/a
6.657	0.09	13314	keystroke_b	b	n/a
6.792	0.09	13584	keystroke_r	r	n/a
6.867	0.09	13734	keystroke_o	o	n/a
7.002	0.105	14004	keystroke_w	w	n/a
7.107	0.075	14214	keystroke_n	n	n/a
7.287	0.075	14574	keystroke_Key.space	Key.space	n/a
7.407	0.0595	14814	keystroke_f	f	n/a
7.4965	0.0755	14993	keystroke_o	o	n/a
7.692	0.105	15384	keystroke_x	x	n/a
7.812	0.075	15624	keystroke_Key.space	Key.space	n/a
7.977	0.075	15954	keystroke_j	j	n/a
8.127	0.12	16254	keystroke_u	u	n/a
8.367	0.09	16734	keystroke_m	m	n/a
8.517	0.09	17034	keystroke_p	p	n/a
8.652	0.09	17304	keystroke_s	s	n/a
8.787	0.075	17574	keystroke_Key.space	Key.space	n/a
8.922	0.09	17844	keystroke_o	o	n/a
9.012	0.09	18024	keystroke_v	v	n/a
9.162	0.075	18324	keystroke_e	e	n/a
9.327	0.09	18654	keystroke_r	r	n/a
9.522	0.075	19044	keystroke_Key.space	Key.space	n/a
9.657	0.0895	19314	keystroke_a	a	n/a
9.762	0.0745	19524	keystroke_Key.space	Key.space	n/a
9.9265	0.0755	19853	keystroke_l	l	n/a
9.972	0.075	19944	keystroke_a	a	n/a
10.152	0.104	20304	keystroke_z	z	n/a
10.271	0.105	20542	keystroke_y	y	n/a
10.511	0.075	21022	keystroke_Key.space	Key.space	n/a
10.616	0.076	21232	keystroke_d	d	n/a
10.722	0.06	21444	keystroke_o	o	n/a
10.827	0.09	21654	keystroke_g	g	n/a
11.067	0.075	22134	keystroke_Key.enter	Key.enter	n/a
11.1515	6.9065	22303	prompt	n/a	regulatory municipal asked attachments\n
11.801	0.075	23602	keystroke_r	r	n/a
11.996	0.075	23992	keystroke_e	e	n/a
12.161	0.06	24322	keystroke_g	g	n/a
12.281	0.03	24562	keystroke_u	u	n/a
12.491	0.075	24982	keystroke_l	l	n/a
12.611	0.12	25222	keystroke_a	a	n/a
12.896	0.105	25792	keystroke_t	t	n/a
13.016	0.09	26032	keystroke_o	o	n/a
13.076	0.075	26152	keystroke_r	r	n/a
13.256	0.075	26512	keystroke_y	y	n/a
13.391	0.09	26782	keystroke_Key.space	Key.space	n/a
13.571	0.105	27142	keystroke_m	m	n/a
13.796	0.105	27592	keystroke_u	u	n/a
13.976	0.075	27952	keystroke_n	n	n/a
14.111	0.105	28222	keystroke_i	i	n/a
14.351	0.075	28702	keystroke_c	c	n/a
14.486	0.075	28972	keystroke_i	i	n/a
14.74	0.121	29480	keystroke_p	p	n/a
14.921	0.105	29842	keystroke_a	a	n/a
15.011	0.075	30022	keystroke_l	l	n/a
15.235	0.09	30470	keystroke_Key.space	Key.space	n/a
15.311	0.104	30622	keystroke_a	a	n/a
15.49	0.075	30980	keystroke_s	s	n/a
15.595	0.076	31190	keystroke_k	k	n/a
15.671	0.0895	31342	keystroke_e	e	n/a
15.8655	0.03	31731	keystroke_d	d	n/a
15.9555	0.09	31911	keystroke_Key.space	Key.space	n/a
16.0605	0.075	32121	keystroke_a	a	n/a
16.301	0.075	32602	keystroke_t	t	n/a
16.436	0.075	32872	keystroke_t	t	n/a
16.616	0.09	33232	keystroke_a	a	n/a
16.751	0.09	33502	keystroke_c	c	n/a
16.886	0.075	33772	keystroke_h	h	n/a
17.336	0.06	34672	keystroke_m	m	n/a
17.411	0.06	34822	keystroke_e	e	n/a
17.501	0.075	35002	keystroke_n	n	n/a
17.591	0.09	35182	keystroke_t	t	n/a
17.816	0.075	35632	keystroke_s	s	n/a
17.966	0.09	35932	keystroke_Key.enter	Key.enter	n/a
18.0635	5.3805	36127	prompt	n/a	michel reflected disposal prove\n
18.6115	0.105	37223	keystroke_m	m	n/a
18.7755	0.12	37551	keystroke_i	i	n/a
18.9255	0.076	37851	keystroke_c	c	n/a
19.1205	0.09	38241	keystroke_h	h	n/a
19.3005	0.075	38601	keystroke_e	e	n/a
19.4355	0.091	38871	keystroke_l	l	n/a
19.6305	0.1205	39261	keystroke_Key.space	Key.space	n/a
19.736	0.104	39472	keystroke_r	r	n/a
19.826	0.075	39652	keystroke_e	e	n/a
19.976	0.12	39952	keystroke_f	f	n/a
20.065	0.091	40130	keystroke_l	l	n/a
20.141	0.09	40282	keystroke_e	e	n/a
20.335	0.091	40670	keystroke_c	c	n/a
20.576	0.075	41152	keystroke_t	t	n/a
20.771	0.059	41542	keystroke_e	e	n/a
20.935	0.076	41870	keystroke_d	d	n/a
21.04	0.09	42080	keystroke_Key.space	Key.space	n/a
21.146	0.075	42292	keystroke_d	d	n/a
21.236	0.09	42472	keystroke_i	i	n/a
21.386	0.075	42772	keystroke_s	s	n/a
21.551	0.075	43102	keystroke_p	p	n/a
21.716	0.075	43432	keystroke_o	o	n/a
21.866	0.06	43732	keystroke_s	s	n/a
22.061	0.105	44122	keystroke_a	a	n/a
22.181	0.06	44362	keystroke_l	l	n/a
22.346	0.105	44692	keystroke_Key.space	Key.space	n/a
22.556	0.09	45112	keystroke_p	p	n/a
22.661	0.12	45322	keystroke_r	r	n/a
22.796	0.105	45592	keystroke_o	o	n/a
22.976	0.105	45952	keystroke_v	v	n/a
23.126	0.09	46252	keystroke_e	e	n/a
23.351	0.09	46702	keystroke_Key.enter	Key.enter	n/a
23.451	6.5325	46902	prompt	n/a	comfort photograph coupons updating\n
24.146	0.105	48292	keystroke_c	c	n/a
24.266	0.18	48532	keystroke_o	o	n/a
24.416	0.135	48832	keystroke_m	m	n/a
24.506	0.12	49012	keystroke_f	f	n/a
24.611	0.105	49222	keystroke_o	o	n/a
24.671	0.105	49342	keystroke_r	r	n/a
24.896	0.09	49792	keystroke_t	t	n/a
25.046	0.09	50092	keystroke_Key.space	Key.space	n/a
25.271	0.09	50542	keystroke_p	p	n/a
25.421	0.09	50842	keystroke_h	h	n/a
25.526	0.075	51052	keystroke_o	o	n/a
25.586	0.105	51172	keystroke_t	t	n/a
25.661	0.06	51322	keystroke_o	o	n/a
25.811	0.09	51622	keystroke_g	g	n/a
25.916	0.075	51832	keystroke_r	r	n/a
26.156	0.09	52312	keystroke_a	a	n/a
26.336	0.09	52672	keystroke_p	p	n/a
26.576	0.06	53152	keystroke_h	h	n/a
26.816	0.09	53632	keystroke_Key.space	Key.space	n/a
27.116	0.09	54232	keystroke_c	c	n/a
27.221	0.09	54442	keystroke_o	o	n/a
27.431	0.06	54862	keystroke_u	u	n/a
27.671	0.09	55342	keystroke_p	p	n/a
27.881	0.165	55762	keystroke_o	o	n/a
27.986	0.12	55972	keystroke_n	n	n/a
28.076	0.09	56152	keystroke_s	s	n/a
28.211	0.09	56422	keystroke_Key.space	Key.space	n/a
28.406	0.09	56812	keystroke_u	u	n/a
28.616	0.09	57232	keystroke_p	p	n/a
28.751	0.09	57502	keystroke_d	d	n/a
28.871	0.105	57742	keystroke_a	a	n/a
29.081	0.075	58162	keystroke_t	t	n/a
29.231	0.15	58462	keystroke_i	i	n/a
29.366	0.105	58732	keystroke_n	n	n/a
29.486	0.075	58972	keystroke_g	g	n/a
29.906	0.075	59812	keystroke_Key.enter	Key.enter	n/a
29.989	6.4895	59978	prompt	n/a	revolution reductions tracking daisy\n
30.836	0.075	61672	keystroke_r	r	n/a
30.896	0.075	61792	keystroke_e	e	n/a
31.076	0.12	62152	keystroke_v	v	n/a
31.181	0.075	62362	keystroke_o	o	n/a
31.346	0.09	62692	keystroke_l	l	n/a
31.556	0.075	63112	keystroke_u	u	n/a
31.691	0.09	63382	keystroke_t	t	n/a
31.796	0.06	63592	keystroke_i	i	n/a
31.916	0.165	63832	keystroke_o	o	n/a
32.036	0.105	64072	keystroke_n	n	n/a
32.216	0.12	64432	keystroke_Key.space	Key.space	n/a
32.351	0.135	64702	keystroke_r	r	n/a
32.426	0.075	64852	keystroke_e	e	n/a
32.621	0.06	65242	keystroke_d	d	n/a
32.726	0.075	65452	keystroke_u	u	n/a
32.861	0.075	65722	keystroke_c	c	n/a
33.086	0.075	66172	keystroke_t	t	n/a
33.176	0.075	66352	keystroke_i	i	n/a
33.341	0.135	66682	keystroke_o	o	n/a
33.431	0.12	66862	keystroke_n	n	n/a
33.836	0.12	67672	keystroke_s	s	n/a
33.971	0.105	67942	keystroke_Key.space	Key.space	n/a
34.196	0.09	68392	keystroke_t	t	n/a
34.271	0.105	68542	keystroke_r	r	n/a
34.496	0.105	68992	keystroke_a	a	n/a
34.691	0.075	69382	keystroke_c	c	n/a
34.811	0.06	69622	keystroke_k	k	n/a
34.976	0.09	69952	keystroke_i	i	n/a
35.036	0.12	70072	keystroke_n	n	n/a
35.201	0.03	70402	keystroke_g	g	n/a
35.396	0.09	70792	keystroke_Key.space	Key.space	n/a
35.576	0.075	71152	keystroke_d	d	n/a
35.711	0.075	71422	keystroke_a	a	n/a
35.756	0.075	71512	keystroke_i	i	n/a
35.876	0.09	71752	keystroke_s	s	n/a
35.981	0.09	71962	keystroke_y	y	n/a
36.386	0.09	72772	keystroke_Key.enter	Key.enter	n/a
36.484	6.9395	72968	prompt	n/a	hold honors galaxy assure\n
37.181	0.075	74362	keystroke_h	h	n/a
37.376	0.06	74752	keystroke_o	o	n/a
37.541	0.06	75082	keystroke_l	l	n/a
37.691	0.075	75382	keystroke_d	d	n/a
37.811	0.09	75622	keystroke_Key.space	Key.space	n/a
38.291	0.09	76582	keystroke_h	h	n/a
38.516	0.105	77032	keystroke_o	o	n/a
38.651	0.09	77302	keystroke_n	n	n/a
38.786	0.075	77572	keystroke_o	o	n/a
38.892	0.059	77784	keystroke_r	r	n/a
39.071	0.075	78142	keystroke_s	s	n/a
39.161	0.105	78322	keystroke_Key.space	Key.space	n/a
39.296	0.061	78592	keystroke_g	g	n/a
39.476	0.075	78952	keystroke_a	a	n/a
39.536	0.06	79072	keystroke_l	l	n/a
39.626	0.03	79252	keystroke_a	a	n/a
39.791	0.075	79582	keystroke_z	z	n/a
39.956	0.075	79912	keystroke_y	y	n/a
40.271	0.09	80542	keystroke_Key.space	Key.space	n/a
40.391	0.09	80782	keystroke_a	a	n/a
40.901	0.06	81802	keystroke_Key.backspace	Key.backspace	n/a
41.021	0.075	82042	keystroke_Key.backspace	Key.backspace	n/a
41.171	0.06	82342	keystroke_Key.backspace	Key.backspace	n/a
41.321	0.06	82642	keystroke_Key.backspace	Key.backspace	n/a
41.906	0.075	83812	keystroke_x	x	n/a
42.056	0.09	84112	keystroke_y	y	n/a
42.341	0.09	84682	keystroke_Key.space	Key.space	n/a
42.461	0.09	84922	keystroke_a	a	n/a
42.671	0.03	85342	keystroke_s	s	n/a
42.776	0.075	85552	keystroke_s	s	n/a
42.866	0.09	85732	keystroke_u	u	n/a
43.031	0.12	86062	keystroke_r	r	n/a
43.106	0.12	86212	keystroke_e	e	n/a
43.331	0.09	86662	keystroke_Key.enter	Key.enter	n/a
43.429	9.474	86858	prompt	n/a	ma'am janet arizona colleagues\n
44.231	0.09	88462	keystroke_m	m	n/a
44.876	0.076	89752	keystroke_a	a	n/a
45.356	0.09	90712	keystroke_'	'	n/a
45.701	0.06	91402	keystroke_a	a	n/a
45.926	0.12	91852	keystroke_m	m	n/a
46.916	0.075	93832	keystroke_Key.space	Key.space	n/a
47.231	0.09	94462	keystroke_j	j	n/a
47.352	0.074	94704	keystroke_a	a	n/a
47.411	0.09	94822	keystroke_n	n	n/a
47.546	0.105	95092	keystroke_e	e	n/a
47.771	0.06	95542	keystroke_t	t	n/a
48.056	0.06	96112	keystroke_Key.space	Key.space	n/a
48.236	0.105	96472	keystroke_a	a	n/a
48.416	0.075	96832	keystroke_r	r	n/a
48.506	0.09	97012	keystroke_i	i	n/a
48.791	0.105	97582	keystroke_z	z	n/a
48.897	0.149	97794	keystroke_o	o	n/a
49.001	0.12	98002	keystroke_n	n	n/a
49.241	0.12	98482	keystroke_a	a	n/a
49.526	0.075	99052	keystroke_Key.space	Key.space	n/a
50.306	0.075	100612	keystroke_c	c	n/a
50.411	0.09	100822	keystroke_o	o	n/a
50.711	0.06	101422	keystroke_l	l	n/a
50.846	0.06	101692	keystroke_l	l	n/a
50.981	0.045	101962	keystroke_e	e	n/a
52.076	0.09	104152	keystroke_a	a	n/a
52.332	0.089	104664	keystroke_g	g	n/a
52.406	0.09	104812	keystroke_u	u	n/a
52.511	0.09	105022	keystroke_e	e	n/a
52.692	0.089	105384	keystroke_s	s	n/a
52.841	0.06	105682	keystroke_Key.enter	Key.enter	n/a
52.909	6.6535	105818	prompt	n/a	edwards pursuant encourages volt\n
53.546	0.06	107092	keystroke_e	e	n/a
53.726	0.06	107452	keystroke_d	d	n/a
53.951	0.075	107902	keystroke_w	w	n/a
54.116	0.105	108232	keystroke_a	a	n/a
54.341	0.06	108682	keystroke_r	r	n/a
54.551	0.105	109102	keystroke_d	d	n/a
54.626	0.09	109252	keystroke_s	s	n/a
54.776	0.075	109552	keystroke_Key.space	Key.space	n/a
55.001	0.09	110002	keystroke_p	p	n/a
55.241	0.06	110482	keystroke_u	u	n/a
55.376	0.09	110752	keystroke_r	r	n/a
55.601	0.06	111202	keystroke_s	s	n/a
55.706	0.105	111412	keystroke_u	u	n/a
56.051	0.09	112102	keystroke_a	a	n/a
56.306	0.091	112612	keystroke_n	n	n/a
56.456	0.09	112912	keystroke_t	t	n/a
56.591	0.09	113182	keystroke_Key.space	Key.space	n/a
56.756	0.09	113512	keystroke_e	e	n/a
56.861	0.091	113722	keystroke_n	n	n/a
57.026	0.09	114052	keystroke_c	c	n/a
57.117	0.089	114234	keystroke_o	o	n/a
57.311	0.075	114622	keystroke_u	u	n/a
57.387	0.059	114774	keystroke_r	r	n/a
57.611	0.015	115222	keystroke_a	a	n/a
58.331	0.105	116662	keystroke_g	g	n/a
58.451	0.105	116902	keystroke_e	e	n/a
58.661	0.135	117322	keystroke_s	s	n/a
58.826	0.105	117652	keystroke_Key.space	Key.space	n/a
58.976	0.09	117952	keystroke_v	v	n/a
59.067	0.09	118134	keystroke_o	o	n/a
59.231	0.09	118462	keystroke_l	l	n/a
59.307	0.074	118614	keystroke_t	t	n/a
59.471	0.09	118942	keystroke_Key.enter	Key.enter	n/a
59.567	6.191	119134	prompt	n/a	yourself better termination bedroom\n
60.296	0.06	120592	keystroke_y	y	n/a
60.401	0.105	120802	keystroke_o	o	n/a
60.581	0.075	121162	keystroke_u	u	n/a
60.701	0.015	121402	keystroke_r	r	n/a
60.896	0.075	121792	keystroke_s	s	n/a
61.076	0.075	122152	keystroke_e	e	n/a
61.166	0.03	122332	keystroke_l	l	n/a
61.256	0.075	122512	keystroke_f	f	n/a
61.361	0.06	122722	keystroke_Key.space	Key.space	n/a
61.526	0.06	123052	keystroke_b	b	n/a
61.571	0.09	123142	keystroke_e	e	n/a
61.811	0.06	123622	keystroke_t	t	n/a
61.946	0.0455	123892	keystroke_t	t	n/a
62.1265	0.09	124253	keystroke_e	e	n/a
62.2765	0.09	124553	keystroke_r	r	n/a
62.3965	0.09	124793	keystroke_Key.space	Key.space	n/a
62.4865	0.075	124973	keystroke_t	t	n/a
62.6665	0.165	125333	keystroke_e	e	n/a
63.1765	0.09	126353	keystroke_r	r	n/a
63.2965	0.12	126593	keystroke_m	m	n/a
63.5215	0.105	127043	keystroke_i	i	n/a
63.6415	0.105	127283	keystroke_n	n	n/a
63.7615	0.06	127523	keystroke_a	a	n/a
63.9265	0.09	127853	keystroke_t	t	n/a
64.0315	0.075	128063	keystroke_i	i	n/a
64.1815	0.135	128363	keystroke_o	o	n/a
64.2565	0.12	128513	keystroke_n	n	n/a
64.4515	0.075	128903	keystroke_Key.space	Key.space	n/a
64.6165	0.09	129233	keystroke_b	b	n/a
64.6765	0.09	129353	keystroke_e	e	n/a
64.8565	0.105	129713	keystroke_d	d	n/a
65.0515	0.075	130103	keystroke_r	r	n/a
65.1715	0.09	130343	keystroke_o	o	n/a
65.3515	0.15	130703	keystroke_o	o	n/a
65.4865	0.09	130973	keystroke_m	m	n/a
65.6815	0.075	131363	keystroke_Key.enter	Key.enter	n/a
65.763	6.3405	131526	prompt	n/a	serious alexandria sega honolulu\n
66.2965	0.09	132593	keystroke_s	s	n/a
66.4915	0.075	132983	keystroke_e	e	n/a
66.6415	0.06	133283	keystroke_r	r	n/a
66.7165	0.075	133433	keystroke_i	i	n/a
66.8815	0.09	133763	keystroke_o	o	n/a
67.0615	0.09	134123	keystroke_u	u	n/a
67.1515	0.09	134303	keystroke_s	s	n/a
67.3315	0.09	134663	keystroke_Key.space	Key.space	n/a
67.4515	0.075	134903	keystroke_a	a	n/a
67.5115	0.105	135023	keystroke_l	l	n/a
67.6615	0.075	135323	keystroke_e	e	n/a
67.9315	0.06	135863	keystroke_x	x	n/a
68.0365	0.09	136073	keystroke_a	a	n/a
68.1415	0.075	136283	keystroke_n	n	n/a
68.2315	0.09	136463	keystroke_d	d	n/a
68.4715	0.09	136943	keystroke_r	r	n/a
68.5765	0.09	137153	keystroke_i	i	n/a
68.7115	0.075	137423	keystroke_a	a	n/a
68.8165	0.135	137633	keystroke_Key.space	Key.space	n/a
68.9815	0.075	137963	keystroke_s	s	n/a
69.1465	0.105	138293	keystroke_e	e	n/a
69.3565	0.075	138713	keystroke_g	g	n/a
69.5815	0.06	139163	keystroke_a	a	n/a
69.7165	0.09	139433	keystroke_Key.space	Key.space	n/a
69.9715	0.075	139943	keystroke_h	h	n/a
70.1965	0.105	140393	keystroke_o	o	n/a
70.3915	0.075	140783	keystroke_n	n	n/a
70.5265	0.09	141053	keystroke_o	o	n/a
70.7365	0.09	141473	keystroke_l	l	n/a
70.9915	0.075	141983	keystroke_u	u	n/a
71.2615	0.09	142523	keystroke_l	l	n/a
71.4865	0.06	142973	keystroke_u	u	n/a
72.0415	0.06	144083	keystroke_Key.enter	Key.enter	n/a
72.1085	5.4565	144217	prompt	n/a	bleeding cuba fires staying\n
72.7465	0.105	145493	keystroke_b	b	n/a
72.9565	0.09	145913	keystroke_l	l	n/a
73.1065	0.21	146213	keystroke_e	e	n/a
73.9315	0.075	147863	keystroke_e	e	n/a
74.1265	0.075	148253	keystroke_d	d	n/a
74.2315	0.135	148463	keystroke_i	i	n/a
74.3365	0.105	148673	keystroke_n	n	n/a
74.4265	0.06	148853	keystroke_g	g	n/a
74.5465	0.12	149093	keystroke_Key.space	Key.space	n/a
74.7565	0.045	149513	keystroke_c	c	n/a
74.8165	0.135	149633	keystroke_u	u	n/a
74.9065	0.135	149813	keystroke_b	b	n/a
75.0715	0.09	150143	keystroke_a	a	n/a
75.1765	0.105	150353	keystroke_Key.space	Key.space	n/a
75.3265	0.075	150653	keystroke_f	f	n/a
75.4015	0.105	150803	keystroke_i	i	n/a
75.5815	0.135	151163	keystroke_r	r	n/a
75.6715	0.105	151343	keystroke_e	e	n/a
75.9115	0.075	151823	keystroke_s	s	n/a
76.0615	0.105	152123	keystroke_Key.space	Key.space	n/a
76.1365	0.12	152273	keystroke_s	s	n/a
76.3615	0.09	152723	keystroke_t	t	n/a
76.5565	0.105	153113	keystroke_a	a	n/a
76.8265	0.09	153653	keystroke_y	y	n/a
76.9465	0.135	153893	keystroke_i	i	n/a
77.0365	0.105	154073	keystroke_n	n	n/a
77.1865	0.12	154373	keystroke_g	g	n/a
77.4715	0.09	154943	keystroke_Key.enter	Key.enter	n/a
77.57	5.228	155140	prompt	n/a	london where've answer pack\n
78.2965	0.0895	156593	keystroke_l	l	n/a
78.491	0.165	156982	keystroke_o	o	n/a
78.626	0.105	157252	keystroke_n	n	n/a
78.791	0.06	157582	keystroke_d	d	n/a
78.836	0.18	157672	keystroke_o	o	n/a
78.942	0.134	157884	keystroke_n	n	n/a
79.196	0.09	158392	keystroke_Key.space	Key.space	n/a
79.421	0.09	158842	keystroke_w	w	n/a
79.541	0.09	159082	keystroke_h	h	n/a
79.661	0.075	159322	keystroke_e	e	n/a
79.781	0.12	159562	keystroke_r	r	n/a
79.871	0.105	159742	keystroke_e	e	n/a
80.051	0.105	160102	keystroke_'	'	n/a
80.261	0.105	160522	keystroke_v	v	n/a
80.381	0.09	160762	keystroke_e	e	n/a
80.531	0.105	161062	keystroke_Key.space	Key.space	n/a
80.756	0.06	161512	keystroke_a	a	n/a
80.846	0.09	161692	keystroke_n	n	n/a
80.951	0.075	161902	keystroke_s	s	n/a
81.131	0.09	162262	keystroke_w	w	n/a
81.311	0.075	162622	keystroke_e	e	n/a
81.492	0.074	162984	keystroke_r	r	n/a
81.551	0.075	163102	keystroke_Key.space	Key.space	n/a
81.776	0.09	163552	keystroke_p	p	n/a
81.881	0.075	163762	keystroke_a	a	n/a
82.062	0.074	164124	keystroke_c	c	n/a
82.166	0.076	164332	keystroke_k	k	n/a
82.751	0.045	165502	keystroke_Key.enter	Key.enter	n/a
82.802	6.911	165604	prompt	n/a	almost nine subscribe produces\n
83.366	0.105	166732	keystroke_a	a	n/a
83.486	0.06	166972	keystroke_k	k	n/a
84.221	0.105	168442	keystroke_Key.backspace	Key.backspace	n/a
84.491	0.075	168982	keystroke_l	l	n/a
84.701	0.09	169402	keystroke_m	m	n/a
84.836	0.09	169672	keystroke_o	o	n/a
84.941	0.09	169882	keystroke_s	s	n/a
85.137	0.074	170274	keystroke_t	t	n/a
85.256	0.09	170512	keystroke_Key.space	Key.space	n/a
85.436	0.09	170872	keystroke_n	n	n/a
85.572	0.134	171144	keystroke_i	i	n/a
85.677	0.104	171354	keystroke_n	n	n/a
85.931	0.06	171862	keystroke_e	e	n/a
86.051	0.105	172102	keystroke_Key.space	Key.space	n/a
86.202	0.089	172404	keystroke_s	s	n/a
86.306	0.09	172612	keystroke_u	u	n/a
86.3515	0.1195	172703	keystroke_b	b	n/a
86.397	0.089	172794	keystroke_s	s	n/a
86.621	0.06	173242	keystroke_c	c	n/a
86.771	0.075	173542	keystroke_r	r	n/a
86.861	0.165	173722	keystroke_i	i	n/a
86.981	0.09	173962	keystroke_b	b	n/a
87.0855	0.075	174171	keystroke_e	e	n/a
87.1905	0.09	174381	keystroke_Key.space	Key.space	n/a
87.5955	0.06	175191	keystroke_r	r	n/a
87.9405	0.075	175881	keystroke_Key.backspace	Key.backspace	n/a
88.36	0.075	176720	keystroke_p	p	n/a
88.45	0.0755	176900	keystroke_r	r	n/a
88.5565	0.1035	177113	keystroke_o	o	n/a
88.69	0.076	177380	keystroke_d	d	n/a
88.825	0.06	177650	keystroke_u	u	n/a
88.99	0.1055	177980	keystroke_c	c	n/a
89.2015	0.0885	178403	keystroke_e	e	n/a
89.365	0.091	178730	keystroke_s	s	n/a
89.6205	0.09	179241	keystroke_Key.enter	Key.enter	n/a
89.7175	7.3	179435	prompt	n/a	francis worship finite ministers\n
90.4015	0.044	180803	keystroke_f	f	n/a
91.0305	0.0595	182061	keystroke_r	r	n/a
91.3155	0.075	182631	keystroke_a	a	n/a
91.4355	0.09	182871	keystroke_n	n	n/a
91.7055	0.075	183411	keystroke_x	x	n/a
91.7965	0.09	183593	keystroke_i	i	n/a
91.9005	0.105	183801	keystroke_s	s	n/a
92.0355	0.09	184071	keystroke_Key.space	Key.space	n/a
92.2305	0.105	184461	keystroke_w	w	n/a
92.485	0.09	184970	keystroke_o	o	n/a
92.65	0.0905	185300	keystroke_r	r	n/a
92.8765	0.0745	185753	keystroke_s	s	n/a
92.935	0.091	185870	keystroke_h	h	n/a
93.1155	0.09	186231	keystroke_i	i	n/a
93.7155	0.075	187431	keystroke_p	p	n/a
93.9405	0.105	187881	keystroke_Key.space	Key.space	n/a
94.15	0.09	188300	keystroke_f	f	n/a
94.225	0.121	188450	keystroke_i	i	n/a
94.346	0.075	188692	keystroke_n	n	n/a
94.435	0.105	188870	keystroke_i	i	n/a
94.6	0.121	189200	keystroke_t	t	n/a
94.705	0.105	189410	keystroke_e	e	n/a
94.855	0.075	189710	keystroke_Key.space	Key.space	n/a
95.065	0.091	190130	keystroke_m	m	n/a
95.26	0.105	190520	keystroke_i	i	n/a
95.32	0.09	190640	keystroke_n	n	n/a
95.456	0.075	190912	keystroke_i	i	n/a
95.546	0.089	191092	keystroke_s	s	n/a
96.115	0.12	192230	keystroke_t	t	n/a
96.371	0.104	192742	keystroke_e	e	n/a
96.52	0.106	193040	keystroke_r	r	n/a
96.7	0.09	193400	keystroke_s	s	n/a
96.925	0.09	193850	keystroke_Key.enter	Key.enter	n/a
97.022	5.4705	194044	prompt	n/a	dresses lines static verified\n
97.586	0.09	195172	keystroke_d	d	n/a
97.825	0.135	195650	keystroke_r	r	n/a
97.9	0.105	195800	keystroke_e	e	n/a
98.14	0.06	196280	keystroke_s	s	n/a
98.276	0.059	196552	keystroke_s	s	n/a
98.485	0.076	196970	keystroke_e	e	n/a
98.65	0.075	197300	keystroke_s	s	n/a
98.74	0.075	197480	keystroke_Key.space	Key.space	n/a
98.921	0.09	197842	keystroke_l	l	n/a
99.131	0.119	198262	keystroke_i	i	n/a
99.235	0.12	198470	keystroke_n	n	n/a
99.37	0.09	198740	keystroke_e	e	n/a
99.61	0.136	199220	keystroke_s	s	n/a
99.895	0.105	199790	keystroke_Key.space	Key.space	n/a
100.015	0.09	200030	keystroke_s	s	n/a
100.21	0.09	200420	keystroke_t	t	n/a
100.405	0.105	200810	keystroke_a	a	n/a
100.6	0.075	201200	keystroke_t	t	n/a
100.735	0.091	201470	keystroke_i	i	n/a
101.096	0.059	202192	keystroke_c	c	n/a
101.23	0.105	202460	keystroke_Key.space	Key.space	n/a
101.321	0.075	202642	keystroke_v	v	n/a
101.5	0.076	203000	keystroke_e	e	n/a
101.68	0.075	203360	keystroke_r	r	n/a
101.771	0.075	203542	keystroke_i	i	n/a
101.876	0.075	203752	keystroke_f	f	n/a
101.935	0.075	203870	keystroke_i	i	n/a
102.026	0.074	204052	keystroke_e	e	n/a
102.235	0.0895	204470	keystroke_d	d	n/a
102.415	0.0745	204830	keystroke_Key.enter	Key.enter	n/a
102.4975	6.01	204995	prompt	n/a	trade oclc questions pulse\n
103.091	0.06	206182	keystroke_r	r	n/a
103.48	0.09	206960	keystroke_Key.backspace	Key.backspace	n/a
103.6005	0.075	207201	keystroke_t	t	n/a
103.7805	0.045	207561	keystroke_r	r	n/a
104.005	0.075	208010	keystroke_a	a	n/a
104.185	0.09	208370	keystroke_d	d	n/a
104.32	0.091	208640	keystroke_e	e	n/a
104.545	0.105	209090	keystroke_Key.space	Key.space	n/a
105.025	0.091	210050	keystroke_o	o	n/a
105.265	0.075	210530	keystroke_c	c	n/a
105.4	0.075	210800	keystroke_l	l	n/a
105.521	0.074	211042	keystroke_c	c	n/a
105.821	0.089	211642	keystroke_Key.space	Key.space	n/a
106.135	0.075	212270	keystroke_q	q	n/a
106.345	0.09	212690	keystroke_u	u	n/a
106.466	0.074	212932	keystroke_e	e	n/a
106.616	0.104	213232	keystroke_s	s	n/a
106.81	0.09	213620	keystroke_t	t	n/a
106.886	0.06	213772	keystroke_i	i	n/a
107.035	0.12	214070	keystroke_o	o	n/a
107.125	0.09	214250	keystroke_n	n	n/a
107.23	0.06	214460	keystroke_s	s	n/a
107.32	0.09	214640	keystroke_Key.space	Key.space	n/a
107.56	0.09	215120	keystroke_p	p	n/a
107.831	0.074	215662	keystroke_u	u	n/a
108.055	0.06	216110	keystroke_l	l	n/a
108.131	0.089	216262	keystroke_s	s	n/a
108.325	0.105	216650	keystroke_e	e	n/a
108.431	0.074	216862	keystroke_Key.enter	Key.enter	n/a
108.512	5.5005	217024	prompt	n/a	bunch mills suspected redeem\n
109.18	0.09	218360	keystroke_b	b	n/a
109.315	0.12	218630	keystroke_u	u	n/a
109.496	0.09	218992	keystroke_n	n	n/a
109.615	0.06	219230	keystroke_c	c	n/a
109.705	0.091	219410	keystroke_h	h	n/a
109.825	0.09	219650	keystroke_Key.space	Key.space	n/a
110.05	0.091	220100	keystroke_m	m	n/a
110.2	0.09	220400	keystroke_i	i	n/a
110.456	0.045	220912	keystroke_l	l	n/a
110.575	0.06	221150	keystroke_l	l	n/a
110.681	0.074	221362	keystroke_s	s	n/a
110.8	0.09	221600	keystroke_Key.space	Key.space	n/a
111.025	0.075	222050	keystroke_s	s	n/a
111.176	0.075	222352	keystroke_u	u	n/a
111.295	0.091	222590	keystroke_s	s	n/a
111.416	0.075	222832	keystroke_p	p	n/a
111.52	0.075	223040	keystroke_e	e	n/a
111.76	0.09	223520	keystroke_c	c	n/a
112.001	0.075	224002	keystroke_t	t	n/a
112.21	0.075	224420	keystroke_e	e	n/a
112.39	0.09	224780	keystroke_d	d	n/a
112.495	0.09	224990	keystroke_Key.space	Key.space	n/a
112.66	0.105	225320	keystroke_r	r	n/a
112.721	0.104	225442	keystroke_e	e	n/a
113.185	0.09	226370	keystroke_d	d	n/a
113.396	0.044	226792	keystroke_e	e	n/a
113.515	0.076	227030	keystroke_e	e	n/a
113.605	0.105	227210	keystroke_m	m	n/a
113.92	0.09	227840	keystroke_Key.enter	Key.enter	n/a
114.0165	6.731	228033	prompt	n/a	sword interventions oxford enterprises\n
114.715	0.06	229430	keystroke_s	s	n/a
114.895	0.06	229790	keystroke_w	w	n/a
115.015	0.076	230030	keystroke_o	o	n/a
115.1205	0.0595	230241	keystroke_r	r	n/a
115.301	0.045	230602	keystroke_d	d	n/a
115.421	0.104	230842	keystroke_Key.space	Key.space	n/a
115.706	0.119	231412	keystroke_i	i	n/a
115.84	0.09	231680	keystroke_n	n	n/a
116.336	0.059	232672	keystroke_t	t	n/a
116.47	0.06	232940	keystroke_e	e	n/a
116.545	0.106	233090	keystroke_r	r	n/a
116.816	0.045	233632	keystroke_v	v	n/a
116.905	0.091	233810	keystroke_e	e	n/a
116.981	0.104	233962	keystroke_n	n	n/a
117.115	0.09	234230	keystroke_t	t	n/a
117.22	0.09	234440	keystroke_i	i	n/a
117.385	0.18	234770	keystroke_o	o	n/a
117.52	0.09	235040	keystroke_n	n	n/a
117.58	0.075	235160	keystroke_s	s	n/a
117.715	0.09	235430	keystroke_Key.space	Key.space	n/a
117.896	0.105	235792	keystroke_o	o	n/a
117.985	0.091	235970	keystroke_x	x	n/a
118.195	0.075	236390	keystroke_f	f	n/a
118.286	0.105	236572	keystroke_o	o	n/a
118.405	0.046	236810	keystroke_r	r	n/a
118.571	0.059	237142	keystroke_d	d	n/a
118.705	0.09	237410	keystroke_Key.space	Key.space	n/a
118.84	0.105	237680	keystroke_e	e	n/a
118.931	0.104	237862	keystroke_n	n	n/a
119.08	0.091	238160	keystroke_t	t	n/a
119.26	0.105	238520	keystroke_e	e	n/a
119.4245	0.075	238849	keystroke_r	r	n/a
119.5305	0.074	239061	keystroke_p	p	n/a
119.635	0.075	239270	keystroke_r	r	n/a
119.801	0.12	239602	keystroke_i	i	n/a
119.936	0.074	239872	keystroke_s	s	n/a
120.115	0.076	240230	keystroke_e	e	n/a
120.296	0.09	240592	keystroke_s	s	n/a
120.67	0.075	241340	keystroke_Key.enter	Key.enter	n/a
120.7515	6.2965	241503	prompt	n/a	sticker mercedes advisory advance\n
121.405	0.105	242810	keystroke_s	s	n/a
121.616	0.075	243232	keystroke_t	t	n/a
121.706	0.074	243412	keystroke_i	i	n/a
121.855	0.105	243710	keystroke_c	c	n/a
121.976	0.074	243952	keystroke_k	k	n/a
122.08	0.09	244160	keystroke_e	e	n/a
122.26	0.075	244520	keystroke_r	r	n/a
122.41	0.09	244820	keystroke_Key.space	Key.space	n/a
122.59	0.106	245180	keystroke_m	m	n/a
122.666	0.0905	245332	keystroke_e	e	n/a
122.8165	0.075	245633	keystroke_r	r	n/a
123.0565	0.074	246113	keystroke_c	c	n/a
123.1915	0.075	246383	keystroke_e	e	n/a
123.4315	0.06	246863	keystroke_d	d	n/a
123.6115	0.06	247223	keystroke_e	e	n/a
123.7915	0.06	247583	keystroke_s	s	n/a
123.9565	0.119	247913	keystroke_Key.space	Key.space	n/a
124.1815	0.06	248363	keystroke_a	a	n/a
124.3015	0.075	248603	keystroke_d	d	n/a
124.4965	0.075	248993	keystroke_v	v	n/a
124.6015	0.105	249203	keystroke_i	i	n/a
124.7215	0.045	249443	keystroke_s	s	n/a
124.8115	0.09	249623	keystroke_o	o	n/a
124.9765	0.075	249953	keystroke_r	r	n/a
125.2015	0.075	250403	keystroke_y	y	n/a
125.5605	0.09	251121	keystroke_Key.space	Key.space	n/a
125.8465	0.075	251693	keystroke_a	a	n/a
126.1165	0.075	252233	keystroke_d	d	n/a
126.3115	0.075	252623	keystroke_v	v	n/a
126.4755	0.075	252951	keystroke_a	a	n/a
126.5965	0.089	253193	keystroke_n	n	n/a
126.6715	0.075	253343	keystroke_c	c	n/a
126.7915	0.135	253583	keystroke_e	e	n/a
126.9415	0.105	253883	keystroke_Key.enter	Key.enter	n/a
127.0625	7.396	254125	prompt	n/a	generates suffer ministers target\n
127.7215	0.075	255443	keystroke_g	g	n/a
127.8865	0.075	255773	keystroke_e	e	n/a
127.9765	0.105	255953	keystroke_n	n	n/a
128.0355	0.076	256071	keystroke_e	e	n/a
128.2015	0.045	256403	keystroke_r	r	n/a
128.3515	0.06	256703	keystroke_a	a	n/a
128.5315	0.09	257063	keystroke_t	t	n/a
128.6055	0.076	257211	keystroke_e	e	n/a
128.8155	0.061	257631	keystroke_s	s	n/a
128.9055	0.09	257811	keystroke_Key.space	Key.space	n/a
128.9965	0.104	257993	keystroke_s	s	n/a
129.1315	0.09	258263	keystroke_u	u	n/a
129.2215	0.075	258443	keystroke_f	f	n/a
129.3565	0.075	258713	keystroke_f	f	n/a
129.4915	0.105	258983	keystroke_e	e	n/a
129.6715	0.075	259343	keystroke_r	r	n/a
129.7605	0.075	259521	keystroke_Key.space	Key.space	n/a
130.0015	0.059	260003	keystroke_m	m	n/a
130.3915	0.075	260783	keystroke_n	n	n/a
131.1415	0.059	262283	keystroke_Key.backspace	Key.backspace	n/a
131.4865	0.075	262973	keystroke_i	i	n/a
131.6515	0.09	263303	keystroke_n	n	n/a
131.7565	0.104	263513	keystroke_i	i	n/a
131.9515	0.105	263903	keystroke_s	s	n/a
132.8515	0.06	265703	keystroke_t	t	n/a
133.0155	0.09	266031	keystroke_e	e	n/a
133.1505	0.076	266301	keystroke_r	r	n/a
133.2865	0.104	266573	keystroke_s	s	n/a
133.4055	0.12	266811	keystroke_Key.space	Key.space	n/a
133.5405	0.076	267081	keystroke_t	t	n/a
133.7205	0.076	267441	keystroke_a	a	n/a
133.8715	0.075	267743	keystroke_r	r	n/a
134.0515	0.06	268103	keystroke_g	g	n/a
134.1405	0.09	268281	keystroke_e	e	n/a
134.3065	0.074	268613	keystroke_t	t	n/a
134.3965	0.06	268793	keystroke_Key.enter	Key.enter	n/a
134.464	6.4445	268928	prompt	n/a	foot enemies encounter jeans\n
135.3415	0.045	270683	keystroke_f	f	n/a
135.4165	0.075	270833	keystroke_o	o	n/a
135.5665	0.059	271133	keystroke_o	o	n/a
135.6415	0.089	271283	keystroke_t	t	n/a
135.8365	0.089	271673	keystroke_Key.space	Key.space	n/a
135.9715	0.075	271943	keystroke_e	e	n/a
136.0305	0.076	272061	keystroke_n	n	n/a
136.1065	0.075	272213	keystroke_e	e	n/a
136.3315	0.105	272663	keystroke_m	m	n/a
136.4965	0.089	272993	keystroke_i	i	n/a
136.6005	0.061	273201	keystroke_e	e	n/a
136.7665	0.06	273533	keystroke_s	s	n/a
136.9165	0.074	273833	keystroke_Key.space	Key.space	n/a
137.0965	0.074	274193	keystroke_e	e	n/a
137.1855	0.091	274371	keystroke_n	n	n/a
137.2915	0.105	274583	keystroke_c	c	n/a
137.3815	0.06	274763	keystroke_o	o	n/a
137.7565	0.105	275513	keystroke_n	n	n/a
138.1005	0.075	276201	keystroke_Key.backspace	Key.backspace	n/a
138.9715	0.075	277943	keystroke_u	u	n/a
139.1665	0.09	278333	keystroke_n	n	n/a
139.2405	0.045	278481	keystroke_t	t	n/a
139.3605	0.075	278721	keystroke_e	e	n/a
139.5255	0.061	279051	keystroke_r	r	n/a
139.6305	0.03	279261	keystroke_Key.space	Key.space	n/a
139.7055	0.075	279411	keystroke_j	j	n/a
139.9605	0.016	279921	keystroke_e	e	n/a
140.4255	0.045	280851	keystroke_a	a	n/a
140.4865	0.075	280973	keystroke_n	n	n/a
140.5765	0.09	281153	keystroke_s	s	n/a
140.8315	0.074	281663	keystroke_Key.enter	Key.enter	n/a
140.914	5.6945	281828	prompt	n/a	hardwood promoting mixing earlier\n
141.6105	0.061	283221	keystroke_h	h	n/a
141.6855	0.076	283371	keystroke_a	a	n/a
141.8215	0.06	283643	keystroke_r	r	n/a
142.0005	0.076	284001	keystroke_d	d	n/a
142.1355	0.09	284271	keystroke_w	w	n/a
142.3015	0.045	284603	keystroke_o	o	n/a
142.4365	0.074	284873	keystroke_o	o	n/a
142.5865	0.075	285173	keystroke_d	d	n/a
142.707	0.1035	285414	keystroke_Key.space	Key.space	n/a
142.9165	0.12	285833	keystroke_p	p	n/a
143.0515	0.045	286103	keystroke_r	r	n/a
143.1415	0.105	286283	keystroke_o	o	n/a
143.2915	0.105	286583	keystroke_m	m	n/a
143.4715	0.075	286943	keystroke_o	o	n/a
143.6505	0.106	287301	keystroke_t	t	n/a
143.7715	0.15	287543	keystroke_i	i	n/a
143.9055	0.121	287811	keystroke_n	n	n/a
144.0415	0.06	288083	keystroke_g	g	n/a
144.1605	0.106	288321	keystroke_Key.space	Key.space	n/a
144.3855	0.12	288771	keystroke_m	m	n/a
144.5815	0.074	289163	keystroke_i	i	n/a
144.6715	0.09	289343	keystroke_x	x	n/a
144.7915	0.12	289583	keystroke_i	i	n/a
144.8805	0.1055	289761	keystroke_n	n	n/a
145.0015	0.059	290003	keystroke_g	g	n/a
145.1215	0.119	290243	keystroke_Key.space	Key.space	n/a
145.5715	0.059	291143	keystroke_e	e	n/a
145.7515	0.059	291503	keystroke_a	a	n/a
145.9015	0.06	291803	keystroke_r	r	n/a
145.9465	0.09	291893	keystroke_l	l	n/a
146.1565	0.074	292313	keystroke_i	i	n/a
146.2455	0.076	292491	keystroke_e	e	n/a
146.3965	0.075	292793	keystroke_r	r	n/a
146.5465	0.06	293093	keystroke_Key.enter	Key.enter	n/a
146.613	6.0145	293226	prompt	n/a	maritime ranks flour clerk\n
147.1765	0.105	294353	keystroke_m	m	n/a
147.2965	0.0605	294593	keystroke_a	a	n/a
147.4315	0.075	294863	keystroke_r	r	n/a
147.522	0.0745	295044	keystroke_i	i	n/a
147.6115	0.06	295223	keystroke_t	t	n/a
147.7015	0.075	295403	keystroke_i	i	n/a
147.8665	0.105	295733	keystroke_m	m	n/a
147.986	0.091	295972	keystroke_e	e	n/a
148.106	0.1205	296212	keystroke_Key.space	Key.space	n/a
148.256	0.091	296512	keystroke_r	r	n/a
148.467	0.06	296934	keystroke_a	a	n/a
148.511	0.076	297022	keystroke_n	n	n/a
148.6915	0.12	297383	keystroke_k	k	n/a
148.917	0.06	297834	keystroke_s	s	n/a
149.037	0.09	298074	keystroke_Key.space	Key.space	n/a
149.2165	0.089	298433	keystroke_f	f	n/a
149.3365	0.075	298673	keystroke_l	l	n/a
149.487	0.09	298974	keystroke_o	o	n/a
149.6965	0.09	299393	keystroke_u	u	n/a
149.8465	0.075	299693	keystroke_r	r	n/a
149.937	0.135	299874	keystroke_Key.space	Key.space	n/a
150.102	0.075	300204	keystroke_c	c	n/a
150.192	0.0895	300384	keystroke_h	h	n/a
150.311	0.075	300622	keystroke_e	e	n/a
150.506	0.076	301012	keystroke_c	c	n/a
150.611	0.061	301222	keystroke_k	k	n/a
151.061	0.06	302122	keystroke_Key.backspace	Key.backspace	n/a
151.181	0.075	302362	keystroke_Key.backspace	Key.backspace	n/a
151.316	0.045	302632	keystroke_Key.backspace	Key.backspace	n/a
151.451	0.06	302902	keystroke_Key.backspace	Key.backspace	n/a
151.992	0.12	303984	keystroke_l	l	n/a
152.097	0.059	304194	keystroke_e	e	n/a
152.276	0.06	304552	keystroke_r	r	n/a
152.352	0.075	304704	keystroke_k	k	n/a
152.531	0.09	305062	keystroke_Key.enter	Key.enter	n/a
152.6275	6.926	305255	prompt	n/a	tribunal pirates hollywood nickel\n
153.297	0.075	306594	keystroke_t	t	n/a
153.447	0.074	306894	keystroke_r	r	n/a
153.537	0.104	307074	keystroke_i	i	n/a
153.731	0.091	307462	keystroke_b	b	n/a
153.852	0.105	307704	keystroke_u	u	n/a
154.062	0.09	308124	keystroke_n	n	n/a
154.196	0.09	308392	keystroke_a	a	n/a
154.332	0.075	308664	keystroke_l	l	n/a
154.542	0.075	309084	keystroke_Key.space	Key.space	n/a
154.737	0.075	309474	keystroke_p	p	n/a
154.947	0.09	309894	keystroke_i	i	n/a
155.067	0.06	310134	keystroke_r	r	n/a
155.382	0.075	310764	keystroke_a	a	n/a
155.607	0.104	311214	keystroke_t	t	n/a
155.727	0.09	311454	keystroke_e	e	n/a
155.922	0.075	311844	keystroke_s	s	n/a
156.027	0.075	312054	keystroke_Key.space	Key.space	n/a
156.192	0.075	312384	keystroke_h	h	n/a
156.386	0.091	312772	keystroke_o	o	n/a
156.581	0.046	313162	keystroke_l	l	n/a
156.702	0.075	313404	keystroke_l	l	n/a
156.792	0.06	313584	keystroke_y	y	n/a
157.107	0.09	314214	keystroke_w	w	n/a
157.212	0.075	314424	keystroke_o	o	n/a
157.556	0.076	315112	keystroke_o	o	n/a
157.706	0.061	315412	keystroke_d	d	n/a
157.826	0.075	315652	keystroke_Key.space	Key.space	n/a
158.022	0.03	316044	keystroke_n	n	n/a
158.067	0.105	316134	keystroke_i	i	n/a
158.202	0.075	316404	keystroke_c	c	n/a
158.307	0.09	316614	keystroke_k	k	n/a
158.922	0.075	317844	keystroke_e	e	n/a
159.042	0.075	318084	keystroke_l	l	n/a
159.432	0.119	318864	keystroke_Key.enter	Key.enter	n/a
159.5585	9.595	319117	prompt	n/a	klein robust sailing westminster\n
160.572	0.075	321144	keystroke_k	k	n/a
161.397	0.09	322794	keystroke_l	l	n/a
161.592	0.075	323184	keystroke_e	e	n/a
161.742	0.15	323484	keystroke_i	i	n/a
161.952	0.075	323904	keystroke_n	n	n/a
162.132	0.075	324264	keystroke_Key.space	Key.space	n/a
162.252	0.09	324504	keystroke_r	r	n/a
162.327	0.09	324654	keystroke_o	o	n/a
162.446	0.076	324892	keystroke_b	b	n/a
162.567	0.105	325134	keystroke_u	u	n/a
162.717	0.105	325434	keystroke_s	s	n/a
162.957	0.075	325914	keystroke_t	t	n/a
163.137	0.09	326274	keystroke_Key.space	Key.space	n/a
163.362	0.105	326724	keystroke_s	s	n/a
163.497	0.12	326994	keystroke_a	a	n/a
163.586	0.076	327172	keystroke_i	i	n/a
163.781	0.121	327562	keystroke_l	l	n/a
164.052	0.0745	328104	keystroke_i	i	n/a
164.5765	0.09	329153	keystroke_n	n	n/a
164.7115	0.075	329423	keystroke_g	g	n/a
164.8765	0.075	329753	keystroke_Key.space	Key.space	n/a
165.8515	0.075	331703	keystroke_w	w	n/a
166.0465	0.075	332093	keystroke_e	e	n/a
166.2415	0.09	332483	keystroke_s	s	n/a
166.5115	0.075	333023	keystroke_t	t	n/a
166.9315	0.12	333863	keystroke_m	m	n/a
167.3365	0.105	334673	keystroke_i	i	n/a
167.8165	0.075	335633	keystroke_n	n	n/a
168.0415	0.075	336083	keystroke_s	s	n/a
168.2665	0.075	336533	keystroke_t	t	n/a
168.4015	0.09	336803	keystroke_e	e	n/a
168.5815	0.105	337163	keystroke_r	r	n/a
169.0465	0.105	338093	keystroke_Key.enter	Key.enter	n/a
169.1575	4.871	338315	prompt	n/a	declare miracle hours italia\n
169.8265	0.075	339653	keystroke_d	d	n/a
169.9765	0.06	339953	keystroke_e	e	n/a
170.2015	0.06	340403	keystroke_c	c	n/a
170.2765	0.075	340553	keystroke_l	l	n/a
170.3965	0.06	340793	keystroke_a	a	n/a
170.6065	0.12	341213	keystroke_r	r	n/a
170.6965	0.09	341393	keystroke_e	e	n/a
170.8615	0.075	341723	keystroke_Key.space	Key.space	n/a
171.0265	0.12	342053	keystroke_m	m	n/a
171.1765	0.12	342353	keystroke_i	i	n/a
171.2815	0.075	342563	keystroke_r	r	n/a
171.4765	0.061	342953	keystroke_a	a	n/a
171.6115	0.09	343223	keystroke_c	c	n/a
171.6865	0.075	343373	keystroke_l	l	n/a
171.8365	0.09	343673	keystroke_e	e	n/a
171.9565	0.12	343913	keystroke_Key.space	Key.space	n/a
172.1215	0.075	344243	keystroke_h	h	n/a
172.2265	0.075	344453	keystroke_o	o	n/a
172.4375	0.059	344875	keystroke_u	u	n/a
172.5265	0.075	345053	keystroke_r	r	n/a
172.7215	0.06	345443	keystroke_s	s	n/a
172.8115	0.09	345623	keystroke_Key.space	Key.space	n/a
172.9915	0.075	345983	keystroke_i	i	n/a
173.1115	0.105	346223	keystroke_t	t	n/a
173.3815	0.06	346763	keystroke_a	a	n/a
173.4565	0.075	346913	keystroke_l	l	n/a
173.6365	0.105	347273	keystroke_i	i	n/a
173.7865	0.09	347573	keystroke_a	a	n/a
173.9665	0.06	347933	keystroke_Key.enter	Key.enter	n/a
174.0335	6.37	348067	prompt	n/a	movement expedia spectrum performs\n
174.7165	0.075	349433	keystroke_m	m	n/a
174.8515	0.105	349703	keystroke_o	o	n/a
174.9715	0.06	349943	keystroke_v	v	n/a
175.0915	0.09	350183	keystroke_e	e	n/a
175.1965	0.09	350393	keystroke_m	m	n/a
175.2715	0.075	350543	keystroke_e	e	n/a
175.4065	0.075	350813	keystroke_n	n	n/a
175.5265	0.06	351053	keystroke_t	t	n/a
175.6315	0.105	351263	keystroke_Key.space	Key.space	n/a
175.7515	0.06	351503	keystroke_e	e	n/a
176.0065	0.09	352013	keystroke_x	x	n/a
176.1115	0.09	352223	keystroke_p	p	n/a
176.2615	0.075	352523	keystroke_e	e	n/a
176.4415	0.075	352883	keystroke_d	d	n/a
176.5175	0.105	353035	keystroke_i	i	n/a
176.6965	0.075	353393	keystroke_a	a	n/a
176.8015	0.075	353603	keystroke_Key.space	Key.space	n/a
176.9365	0.105	353873	keystroke_s	s	n/a
177.0265	0.105	354053	keystroke_p	p	n/a
177.1465	0.075	354293	keystroke_e	e	n/a
177.3265	0.075	354653	keystroke_c	c	n/a
177.6265	0.09	355253	keystroke_t	t	n/a
177.7015	0.06	355403	keystroke_r	r	n/a
177.7915	0.075	355583	keystroke_u	u	n/a
178.0165	0.075	356033	keystroke_m	m	n/a
178.2115	0.06	356423	keystroke_Key.space	Key.space	n/a
178.3915	0.075	356783	keystroke_p	p	n/a
178.5115	0.09	357023	keystroke_e	e	n/a
178.8115	0.09	357623	keystroke_r	r	n/a
179.5765	0.09	359153	keystroke_f	f	n/a
179.7115	0.075	359423	keystroke_o	o	n/a
179.8465	0.09	359693	keystroke_r	r	n/a
179.9815	0.12	359963	keystroke_m	m	n/a
180.1165	0.075	360233	keystroke_s	s	n/a
180.3115	0.09	360623	keystroke_Key.enter	Key.enter	n/a
180.4145	9.2285	360829	prompt	n/a	productivity abraham spend andorra\n
181.0165	0.06	362033	keystroke_p	p	n/a
181.1515	0.075	362303	keystroke_r	r	n/a
181.2415	0.075	362483	keystroke_o	o	n/a
181.3615	0.09	362723	keystroke_d	d	n/a
181.5265	0.075	363053	keystroke_u	u	n/a
181.7665	0.0745	363533	keystroke_c	c	n/a
182.921	0.075	365842	keystroke_t	t	n/a
183.101	0.09	366202	keystroke_i	i	n/a
183.251	0.09	366502	keystroke_v	v	n/a
183.356	0.09	366712	keystroke_i	i	n/a
183.461	0.105	366922	keystroke_t	t	n/a
183.626	0.06	367252	keystroke_y	y	n/a
183.942	0.104	367884	keystroke_Key.space	Key.space	n/a
184.226	0.075	368452	keystroke_a	a	n/a
184.406	0.09	368812	keystroke_b	b	n/a
184.616	0.076	369232	keystroke_r	r	n/a
185.036	0.061	370072	keystroke_a	a	n/a
185.156	0.09	370312	keystroke_h	h	n/a
185.276	0.075	370552	keystroke_a	a	n/a
185.426	0.09	370852	keystroke_m	m	n/a
185.636	0.075	371272	keystroke_Key.space	Key.space	n/a
185.741	0.075	371482	keystroke_s	s	n/a
185.831	0.12	371662	keystroke_p	p	n/a
186.011	0.075	372022	keystroke_e	e	n/a
186.146	0.075	372292	keystroke_n	n	n/a
186.356	0.075	372712	keystroke_d	d	n/a
186.581	0.105	373162	keystroke_Key.space	Key.space	n/a
186.836	0.09	373672	keystroke_a	a	n/a
186.911	0.105	373822	keystroke_n	n	n/a
187.031	0.09	374062	keystroke_d	d	n/a
187.361	0.076	374722	keystroke_o	o	n/a
187.496	0.075	374992	keystroke_r	r	n/a
187.631	0.075	375262	keystroke_r	r	n/a
187.871	0.105	375742	keystroke_a	a	n/a
189.566	0.075	379132	keystroke_Key.enter	Key.enter	n/a
189.647	6.686	379294	prompt	n/a	studios bumper apparel mobiles\n
190.241	0.09	380482	keystroke_s	s	n/a
190.436	0.06	380872	keystroke_t	t	n/a
190.541	0.09	381082	keystroke_u	u	n/a
190.721	0.045	381442	keystroke_d	d	n/a
190.826	0.075	381652	keystroke_i	i	n/a
191.066	0.075	382132	keystroke_o	o	n/a
191.216	0.075	382432	keystroke_s	s	n/a
191.321	0.135	382642	keystroke_Key.space	Key.space	n/a
191.576	0.075	383152	keystroke_b	b	n/a
191.726	0.09	383452	keystroke_u	u	n/a
191.966	0.075	383932	keystroke_m	m	n/a
192.116	0.06	384232	keystroke_p	p	n/a
192.236	0.06	384472	keystroke_e	e	n/a
192.446	0.075	384892	keystroke_r	r	n/a
192.611	0.09	385222	keystroke_Key.space	Key.space	n/a
192.761	0.06	385522	keystroke_a	a	n/a
192.866	0.075	385732	keystroke_p	p	n/a
193.016	0.045	386032	keystroke_p	p	n/a
193.331	0.015	386662	keystroke_e	e	n/a
193.841	0.06	387682	keystroke_Key.backspace	Key.backspace	n/a
193.991	0.105	387982	keystroke_a	a	n/a
194.261	0.091	388522	keystroke_r	r	n/a
194.336	0.105	388672	keystroke_e	e	n/a
194.501	0.06	389002	keystroke_l	l	n/a
194.831	0.09	389662	keystroke_Key.space	Key.space	n/a
195.056	0.09	390112	keystroke_m	m	n/a
195.191	0.105	390382	keystroke_o	o	n/a
195.341	0.06	390682	keystroke_b	b	n/a
195.431	0.075	390862	keystroke_i	i	n/a
195.611	0.075	391222	keystroke_l	l	n/a
195.716	0.075	391432	keystroke_e	e	n/a
195.881	0.105	391762	keystroke_s	s	n/a
196.241	0.09	392482	keystroke_Key.enter	Key.enter	n/a
196.3395	6.3385	392679	prompt	n/a	mauritius cheats inter highs\n
196.886	0.075	393772	keystroke_m	m	n/a
197.126	0.09	394252	keystroke_a	a	n/a
197.441	0.09	394882	keystroke_u	u	n/a
197.651	0.12	395302	keystroke_r	r	n/a
197.876	0.09	395752	keystroke_i	i	n/a
198.671	0.06	397342	keystroke_t	t	n/a
199.091	0.09	398182	keystroke_i	i	n/a
199.301	0.105	398602	keystroke_u	u	n/a
199.421	0.105	398842	keystroke_s	s	n/a
199.616	0.075	399232	keystroke_Key.space	Key.space	n/a
199.737	0.104	399474	keystroke_c	c	n/a
199.826	0.12	399652	keystroke_h	h	n/a
199.961	0.061	399922	keystroke_e	e	n/a
200.141	0.075	400282	keystroke_a	a	n/a
200.396	0.06	400792	keystroke_t	t	n/a
200.576	0.075	401152	keystroke_s	s	n/a
200.681	0.075	401362	keystroke_Key.space	Key.space	n/a
200.846	0.15	401692	keystroke_i	i	n/a
200.922	0.149	401844	keystroke_n	n	n/a
201.041	0.06	402082	keystroke_t	t	n/a
201.176	0.09	402352	keystroke_e	e	n/a
201.371	0.09	402742	keystroke_r	r	n/a
201.491	0.075	402982	keystroke_Key.space	Key.space	n/a
201.701	0.06	403402	keystroke_h	h	n/a
201.866	0.075	403732	keystroke_i	i	n/a
201.956	0.06	403912	keystroke_g	g	n/a
202.076	0.075	404152	keystroke_h	h	n/a
202.211	0.09	404422	keystroke_s	s	n/a
202.601	0.075	405202	keystroke_Key.enter	Key.enter	n/a
202.685	5.9485	405370	prompt	n/a	stand projector fever cartoon\n
203.202	0.089	406404	keystroke_s	s	n/a
203.426	0.06	406852	keystroke_t	t	n/a
203.591	0.075	407182	keystroke_a	a	n/a
203.681	0.12	407362	keystroke_n	n	n/a
203.831	0.075	407662	keystroke_d	d	n/a
203.921	0.09	407842	keystroke_Key.space	Key.space	n/a
204.146	0.09	408292	keystroke_p	p	n/a
204.311	0.06	408622	keystroke_r	r	n/a
204.536	0.09	409072	keystroke_o	o	n/a
204.761	0.09	409522	keystroke_j	j	n/a
204.866	0.075	409732	keystroke_e	e	n/a
205.106	0.075	410212	keystroke_c	c	n/a
205.406	0.075	410812	keystroke_t	t	n/a
205.497	0.104	410994	keystroke_o	o	n/a
205.616	0.06	411232	keystroke_r	r	n/a
205.796	0.105	411592	keystroke_Key.space	Key.space	n/a
206.081	0.06	412162	keystroke_f	f	n/a
206.546	0.09	413092	keystroke_e	e	n/a
206.711	0.075	413422	keystroke_v	v	n/a
206.846	0.075	413692	keystroke_e	e	n/a
206.997	0.074	413994	keystroke_r	r	n/a
207.101	0.135	414202	keystroke_Key.space	Key.space	n/a
207.281	0.09	414562	keystroke_c	c	n/a
207.431	0.09	414862	keystroke_a	a	n/a
207.611	0.075	415222	keystroke_r	r	n/a
207.776	0.045	415552	keystroke_t	t	n/a
207.836	0.045	415672	keystroke_o	o	n/a
207.956	0.15	415912	keystroke_o	o	n/a
208.091	0.09	416182	keystroke_n	n	n/a
208.511	0.12	417022	keystroke_Key.enter	Key.enter	n/a
208.639	7.014	417278	prompt	n/a	delta extras drive champions\n
209.381	0.06	418762	keystroke_d	d	n/a
209.516	0.075	419032	keystroke_e	e	n/a
209.636	0.061	419272	keystroke_l	l	n/a
210.326	0.09	420652	keystroke_t	t	n/a
210.581	0.075	421162	keystroke_a	a	n/a
210.701	0.12	421402	keystroke_Key.space	Key.space	n/a
210.866	0.06	421732	keystroke_e	e	n/a
211.151	0.015	422302	keystroke_x	x	n/a
212.216	0.12	424432	keystroke_t	t	n/a
212.322	0.089	424644	keystroke_r	r	n/a
212.576	0.06	425152	keystroke_a	a	n/a
212.726	0.075	425452	keystroke_s	s	n/a
212.906	0.135	425812	keystroke_Key.space	Key.space	n/a
213.116	0.06	426232	keystroke_d	d	n/a
213.281	0.09	426562	keystroke_r	r	n/a
213.356	0.09	426712	keystroke_i	i	n/a
213.491	0.09	426982	keystroke_v	v	n/a
213.641	0.076	427282	keystroke_e	e	n/a
213.717	0.104	427434	keystroke_Key.space	Key.space	n/a
213.911	0.06	427822	keystroke_c	c	n/a
214.166	0.09	428332	keystroke_h	h	n/a
214.317	0.074	428634	keystroke_a	a	n/a
214.437	0.074	428874	keystroke_m	m	n/a
214.586	0.075	429172	keystroke_p	p	n/a
214.841	0.105	429682	keystroke_i	i	n/a
215.141	0.031	430282	keystroke_o	o	n/a
215.157	0.104	430314	keystroke_n	n	n/a
215.276	0.105	430552	keystroke_s	s	n/a
215.591	0.06	431182	keystroke_Key.enter	Key.enter	n/a
215.6565	6.118	431313	prompt	n/a	harold submit allows warranties\n
216.386	0.075	432772	keystroke_h	h	n/a
216.551	0.09	433102	keystroke_a	a	n/a
216.731	0.06	433462	keystroke_r	r	n/a
216.806	0.075	433612	keystroke_o	o	n/a
216.986	0.045	433972	keystroke_l	l	n/a
217.166	0.09	434332	keystroke_d	d	n/a
217.286	0.135	434572	keystroke_Key.space	Key.space	n/a
217.437	0.089	434874	keystroke_s	s	n/a
217.587	0.149	435174	keystroke_u	u	n/a
217.676	0.105	435352	keystroke_b	b	n/a
217.916	0.105	435832	keystroke_m	m	n/a
218.066	0.12	436132	keystroke_i	i	n/a
218.216	0.09	436432	keystroke_t	t	n/a
218.336	0.121	436672	keystroke_Key.space	Key.space	n/a
218.531	0.06	437062	keystroke_a	a	n/a
218.606	0.075	437212	keystroke_l	l	n/a
218.756	0.06	437512	keystroke_l	l	n/a
218.921	0.075	437842	keystroke_o	o	n/a
219.056	0.075	438112	keystroke_w	w	n/a
219.311	0.075	438622	keystroke_s	s	n/a
219.446	0.105	438892	keystroke_Key.space	Key.space	n/a
219.597	0.074	439194	keystroke_w	w	n/a
219.822	0.029	439644	keystroke_a	a	n/a
220.166	0.075	440332	keystroke_r	r	n/a
220.316	0.06	440632	keystroke_r	r	n/a
220.541	0.075	441082	keystroke_a	a	n/a
220.691	0.12	441382	keystroke_n	n	n/a
220.931	0.075	441862	keystroke_t	t	n/a
221.051	0.09	442102	keystroke_i	i	n/a
221.171	0.09	442342	keystroke_e	e	n/a
221.411	0.091	442822	keystroke_s	s	n/a
221.681	0.09	443362	keystroke_Key.enter	Key.enter	n/a
221.7805	5.483	443561	prompt	n/a	volt pads extent mistake\n
222.507	0.089	445014	keystroke_v	v	n/a
222.612	0.089	445224	keystroke_o	o	n/a
222.776	0.105	445552	keystroke_l	l	n/a
222.926	0.06	445852	keystroke_t	t	n/a
223.106	0.105	446212	keystroke_Key.space	Key.space	n/a
223.376	0.105	446752	keystroke_p	p	n/a
223.496	0.09	446992	keystroke_a	a	n/a
223.691	0.12	447382	keystroke_d	d	n/a
223.766	0.106	447532	keystroke_s	s	n/a
224.2615	0.135	448523	keystroke_Key.space	Key.space	n/a
224.4565	0.075	448913	keystroke_e	e	n/a
224.7115	0.135	449423	keystroke_x	x	n/a
225.0115	0.09	450023	keystroke_t	t	n/a
225.1015	0.135	450203	keystroke_e	e	n/a
225.2965	0.105	450593	keystroke_n	n	n/a
225.4465	0.075	450893	keystroke_d	d	n/a
225.5965	0.105	451193	keystroke_Key.space	Key.space	n/a
225.8965	0.15	451793	keystroke_m	m	n/a
226.1665	0.09	452333	keystroke_i	i	n/a
226.3615	0.09	452723	keystroke_s	s	n/a
226.5715	0.075	453143	keystroke_t	t	n/a
226.7665	0.075	453533	keystroke_a	a	n/a
226.8115	0.105	453623	keystroke_k	k	n/a
227.0215	0.09	454043	keystroke_e	e	n/a
227.1865	0.075	454373	keystroke_Key.enter	Key.enter	n/a
227.268	5.366	454536	prompt	n/a	parts engage comic meters\n
227.9665	0.075	455933	keystroke_p	p	n/a
228.1015	0.075	456203	keystroke_a	a	n/a
228.2515	0.09	456503	keystroke_r	r	n/a
228.4165	0.075	456833	keystroke_t	t	n/a
228.6565	0.09	457313	keystroke_s	s	n/a
228.7765	0.105	457553	keystroke_Key.space	Key.space	n/a
228.9415	0.09	457883	keystroke_e	e	n/a
229.0615	0.09	458123	keystroke_n	n	n/a
229.1515	0.075	458303	keystroke_g	g	n/a
229.3615	0.105	458723	keystroke_a	a	n/a
229.5865	0.105	459173	keystroke_g	g	n/a
229.6615	0.15	459323	keystroke_e	e	n/a
230.2315	0.09	460463	keystroke_Key.space	Key.space	n/a
230.3815	0.075	460763	keystroke_c	c	n/a
230.4575	0.149	460915	keystroke_o	o	n/a
230.6075	0.089	461215	keystroke_m	m	n/a
230.7575	0.119	461515	keystroke_i	i	n/a
230.9365	0.075	461873	keystroke_c	c	n/a
231.3415	0.09	462683	keystroke_Key.space	Key.space	n/a
231.5515	0.09	463103	keystroke_m	m	n/a
231.6865	0.075	463373	keystroke_e	e	n/a
231.8515	0.075	463703	keystroke_t	t	n/a
231.9415	0.135	463883	keystroke_e	e	n/a
232.0915	0.09	464183	keystroke_r	r	n/a
232.3015	0.075	464603	keystroke_s	s	n/a
232.5565	0.075	465113	keystroke_Key.enter	Key.enter	n/a
232.639	13.7495	465278	prompt	n/a	serving believed is economy\n
233.3815	0.075	466763	keystroke_s	s	n/a
233.5915	0.075	467183	keystroke_e	e	n/a
233.7865	0.075	467573	keystroke_r	r	n/a
234.0115	0.09	468023	keystroke_v	v	n/a
234.3415	0.135	468683	keystroke_i	i	n/a
234.4915	0.09	468983	keystroke_n	n	n/a
234.9865	0.03	469973	keystroke_g	g	n/a
235.5715	0.105	471143	keystroke_Key.space	Key.space	n/a
235.7815	0.06	471563	keystroke_b	b	n/a
235.9015	0.06	471803	keystroke_e	e	n/a
236.0065	0.105	472013	keystroke_l	l	n/a
236.2465	0.075	472493	keystroke_i	i	n/a
236.7265	0.09	473453	keystroke_e	e	n/a
237.1315	0.075	474263	keystroke_v	v	n/a
237.4015	0.075	474803	keystroke_e	e	n/a
237.5665	0.06	475133	keystroke_d	d	n/a
237.7915	0.12	475583	keystroke_Key.space	Key.space	n/a
238.0465	0.03	476093	keystroke_e	e	n/a
238.3765	0.075	476753	keystroke_Key.backspace	Key.backspace	n/a
238.7365	0.075	477473	keystroke_i	i	n/a
238.8715	0.09	477743	keystroke_s	s	n/a
239.0065	0.09	478013	keystroke_Key.space	Key.space	n/a
239.1115	0.075	478223	keystroke_e	e	n/a
239.3065	0.075	478613	keystroke_c	c	n/a
239.4415	0.06	478883	keystroke_o	o	n/a
239.6665	0.09	479333	keystroke_n	n	n/a
239.8165	0.165	479633	keystroke_o	o	n/a
239.9065	0.15	479813	keystroke_m	m	n/a
240.0715	0.075	480143	keystroke_y	y	n/a
240.2665	0.105	480533	keystroke_Key.space	Key.space	n/a
246.3745	0.012	492749	keystroke_Key.enter	Key.enter	n/a
246.405	7.2875	492810	prompt	n/a	chevrolet roman dishes national\n
247.2265	0.06	494453	keystroke_c	c	n/a
247.3465	0.075	494693	keystroke_h	h	n/a
247.7665	0.135	495533	keystroke_e	e	n/a
248.2915	0.045	496583	keystroke_v	v	n/a
248.9365	0.0595	497873	keystroke_r	r	n/a
249.251	0.105	498502	keystroke_o	o	n/a
249.416	0.105	498832	keystroke_l	l	n/a
249.566	0.09	499132	keystroke_e	e	n/a
249.731	0.075	499462	keystroke_t	t	n/a
249.866	0.09	499732	keystroke_Key.space	Key.space	n/a
250.031	0.075	500062	keystroke_r	r	n/a
250.151	0.135	500302	keystroke_o	o	n/a
250.346	0.09	500692	keystroke_m	m	n/a
250.481	0.075	500962	keystroke_a	a	n/a
250.571	0.12	501142	keystroke_n	n	n/a
250.856	0.09	501712	keystroke_Key.space	Key.space	n/a
251.051	0.075	502102	keystroke_d	d	n/a
251.141	0.06	502282	keystroke_i	i	n/a
251.231	0.06	502462	keystroke_s	s	n/a
251.351	0.09	502702	keystroke_h	h	n/a
251.441	0.105	502882	keystroke_e	e	n/a
251.666	0.06	503332	keystroke_s	s	n/a
251.756	0.075	503512	keystroke_Key.space	Key.space	n/a
251.936	0.075	503872	keystroke_n	n	n/a
252.026	0.06	504052	keystroke_a	a	n/a
252.236	0.06	504472	keystroke_t	t	n/a
252.281	0.09	504562	keystroke_i	i	n/a
252.446	0.135	504892	keystroke_o	o	n/a
252.551	0.105	505102	keystroke_n	n	n/a
252.776	0.075	505552	keystroke_a	a	n/a
252.881	0.075	505762	keystroke_l	l	n/a
253.646	0.045	507292	keystroke_Key.enter	Key.enter	n/a
253.6975	10.601	507395	prompt	n/a	established arcade clients microwave\n
254.366	0.06	508732	keystroke_e	e	n/a
254.591	0.075	509182	keystroke_s	s	n/a
254.771	0.075	509542	keystroke_t	t	n/a
254.951	0.075	509902	keystroke_a	a	n/a
255.056	0.075	510112	keystroke_b	b	n/a
255.266	0.105	510532	keystroke_l	l	n/a
255.506	0.09	511012	keystroke_i	i	n/a
255.641	0.075	511282	keystroke_s	s	n/a
255.761	0.105	511522	keystroke_h	h	n/a
255.851	0.09	511702	keystroke_e	e	n/a
256.046	0.06	512092	keystroke_d	d	n/a
256.166	0.105	512332	keystroke_Key.space	Key.space	n/a
256.316	0.06	512632	keystroke_c	c	n/a
256.451	0.09	512902	keystroke_a	a	n/a
256.646	0.06	513292	keystroke_r	r	n/a
257.591	0.045	515182	keystroke_Key.backspace	Key.backspace	n/a
257.726	0.045	515452	keystroke_Key.backspace	Key.backspace	n/a
257.861	0.06	515722	keystroke_Key.backspace	Key.backspace	n/a
258.131	0.075	516262	keystroke_a	a	n/a
258.326	0.06	516652	keystroke_r	r	n/a
258.566	0.045	517132	keystroke_c	c	n/a
258.656	0.105	517312	keystroke_a	a	n/a
258.836	0.09	517672	keystroke_d	d	n/a
258.956	0.15	517912	keystroke_e	e	n/a
259.766	0.09	519532	keystroke_Key.space	Key.space	n/a
259.931	0.03	519862	keystroke_c	c	n/a
260.006	0.06	520012	keystroke_l	l	n/a
260.951	0.075	521902	keystroke_i	i	n/a
261.086	0.15	522172	keystroke_e	e	n/a
261.791	0.12	523582	keystroke_n	n	n/a
261.941	0.075	523882	keystroke_t	t	n/a
262.271	0.06	524542	keystroke_s	s	n/a
262.406	0.09	524812	keystroke_Key.space	Key.space	n/a
262.616	0.075	525232	keystroke_m	m	n/a
262.796	0.09	525592	keystroke_i	i	n/a
262.961	0.075	525922	keystroke_c	c	n/a
263.126	0.105	526252	keystroke_r	r	n/a
263.201	0.12	526402	keystroke_o	o	n/a
263.381	0.075	526762	keystroke_w	w	n/a
263.546	0.105	527092	keystroke_a	a	n/a
263.771	0.09	527542	keystroke_v	v	n/a
263.906	0.12	527812	keystroke_e	e	n/a
264.221	0.075	528442	keystroke_Key.enter	Key.enter	n/a
264.3045	5.7685	528609	prompt	n/a	switches decrease neutral earl\n
264.866	0.09	529732	keystroke_s	s	n/a
265.061	0.09	530122	keystroke_w	w	n/a
265.196	0.105	530392	keystroke_i	i	n/a
265.316	0.06	530632	keystroke_t	t	n/a
265.586	0.09	531172	keystroke_c	c	n/a
265.706	0.075	531412	keystroke_h	h	n/a
265.796	0.075	531592	keystroke_e	e	n/a
266.006	0.06	532012	keystroke_s	s	n/a
266.366	0.105	532732	keystroke_Key.space	Key.space	n/a
266.546	0.075	533092	keystroke_d	d	n/a
266.696	0.075	533392	keystroke_e	e	n/a
266.906	0.09	533812	keystroke_c	c	n/a
267.146	0.12	534292	keystroke_r	r	n/a
267.251	0.075	534502	keystroke_e	e	n/a
267.446	0.075	534892	keystroke_a	a	n/a
267.596	0.075	535192	keystroke_s	s	n/a
267.776	0.06	535552	keystroke_e	e	n/a
267.896	0.06	535792	keystroke_Key.space	Key.space	n/a
268.031	0.105	536062	keystroke_n	n	n/a
268.106	0.09	536212	keystroke_e	e	n/a
268.211	0.105	536422	keystroke_u	u	n/a
268.346	0.105	536692	keystroke_t	t	n/a
268.436	0.075	536872	keystroke_r	r	n/a
268.616	0.075	537232	keystroke_a	a	n/a
268.706	0.06	537412	keystroke_l	l	n/a
268.916	0.075	537832	keystroke_Key.space	Key.space	n/a
269.201	0.06	538402	keystroke_e	e	n/a
269.366	0.075	538732	keystroke_a	a	n/a
269.531	0.06	539062	keystroke_r	r	n/a
269.606	0.075	539212	keystroke_l	l	n/a
269.981	0.09	539962	keystroke_Key.enter	Key.enter	n/a
270.078	6.656	540156	prompt	n/a	pumps basin techniques filme\n
270.746	0.105	541492	keystroke_p	p	n/a
271.001	0.09	542002	keystroke_u	u	n/a
271.196	0.105	542392	keystroke_m	m	n/a
271.361	0.075	542722	keystroke_p	p	n/a
271.496	0.06	542992	keystroke_s	s	n/a
271.631	0.075	543262	keystroke_Key.space	Key.space	n/a
271.796	0.09	543592	keystroke_b	b	n/a
271.856	0.06	543712	keystroke_a	a	n/a
272.006	0.06	544012	keystroke_s	s	n/a
272.067	0.104	544134	keystroke_i	i	n/a
272.141	0.12	544282	keystroke_n	n	n/a
272.381	0.105	544762	keystroke_Key.space	Key.space	n/a
272.531	0.12	545062	keystroke_t	t	n/a
272.636	0.105	545272	keystroke_e	e	n/a
272.876	0.09	545752	keystroke_c	c	n/a
272.967	0.119	545934	keystroke_h	h	n/a
273.191	0.075	546382	keystroke_n	n	n/a
273.311	0.105	546622	keystroke_i	i	n/a
273.476	0.09	546952	keystroke_q	q	n/a
273.596	0.09	547192	keystroke_u	u	n/a
273.746	0.075	547492	keystroke_e	e	n/a
273.926	0.075	547852	keystroke_s	s	n/a
274.061	0.09	548122	keystroke_Key.space	Key.space	n/a
275.081	0.075	550162	keystroke_f	f	n/a
275.216	0.075	550432	keystroke_i	i	n/a
275.651	0.09	551302	keystroke_Key.backspace	Key.backspace	n/a
276.026	0.075	552052	keystroke_i	i	n/a
276.236	0.09	552472	keystroke_l	l	n/a
276.356	0.09	552712	keystroke_m	m	n/a
276.476	0.09	552952	keystroke_e	e	n/a
276.641	0.09	553282	keystroke_Key.enter	Key.enter	n/a
276.743	4.985	553486	prompt	n/a	assistant tape renew moment\n
277.302	0.089	554604	keystroke_a	a	n/a
277.707	0.044	555414	keystroke_s	s	n/a
277.841	0.06	555682	keystroke_s	s	n/a
277.961	0.09	555922	keystroke_i	i	n/a
278.081	0.09	556162	keystroke_s	s	n/a
278.276	0.06	556552	keystroke_t	t	n/a
278.441	0.075	556882	keystroke_a	a	n/a
278.531	0.06	557062	keystroke_n	n	n/a
278.621	0.075	557242	keystroke_t	t	n/a
278.726	0.105	557452	keystroke_Key.space	Key.space	n/a
278.801	0.045	557602	keystroke_t	t	n/a
278.951	0.09	557902	keystroke_a	a	n/a
279.071	0.075	558142	keystroke_p	p	n/a
279.191	0.09	558382	keystroke_e	e	n/a
279.311	0.12	558622	keystroke_Key.space	Key.space	n/a
279.446	0.12	558892	keystroke_r	r	n/a
279.536	0.091	559072	keystroke_e	e	n/a
279.656	0.105	559312	keystroke_n	n	n/a
279.821	0.075	559642	keystroke_e	e	n/a
279.971	0.075	559942	keystroke_w	w	n/a
280.106	0.105	560212	keystroke_Key.space	Key.space	n/a
280.646	0.075	561292	keystroke_m	m	n/a
280.826	0.12	561652	keystroke_o	o	n/a
280.916	0.12	561832	keystroke_m	m	n/a
281.051	0.06	562102	keystroke_e	e	n/a
281.126	0.105	562252	keystroke_n	n	n/a
281.276	0.09	562552	keystroke_t	t	n/a
281.621	0.105	563242	keystroke_Key.enter	Key.enter	n/a
281.7325	6.941	563465	prompt	n/a	mailman matters homeless garlic\n
282.371	0.09	564742	keystroke_m	m	n/a
282.476	0.09	564952	keystroke_a	a	n/a
282.596	0.06	565192	keystroke_i	i	n/a
282.791	0.075	565582	keystroke_l	l	n/a
283.091	0.075	566182	keystroke_m	m	n/a
283.196	0.045	566392	keystroke_a	a	n/a
283.302	0.089	566604	keystroke_n	n	n/a
283.751	0.09	567502	keystroke_Key.space	Key.space	n/a
284.006	0.09	568012	keystroke_m	m	n/a
284.231	0.09	568462	keystroke_a	a	n/a
284.471	0.06	568942	keystroke_t	t	n/a
284.591	0.075	569182	keystroke_t	t	n/a
284.726	0.075	569452	keystroke_e	e	n/a
284.831	0.12	569662	keystroke_r	r	n/a
285.311	0.06	570622	keystroke_s	s	n/a
285.446	0.09	570892	keystroke_Key.space	Key.space	n/a
285.656	0.09	571312	keystroke_h	h	n/a
285.866	0.12	571732	keystroke_o	o	n/a
285.987	0.104	571974	keystroke_m	m	n/a
286.121	0.06	572242	keystroke_e	e	n/a
286.271	0.075	572542	keystroke_s	s	n/a
286.406	0.075	572812	keystroke_l	l	n/a
286.601	0.075	573202	keystroke_e	e	n/a
286.766	0.03	573532	keystroke_s	s	n/a
286.886	0.09	573772	keystroke_s	s	n/a
287.066	0.12	574132	keystroke_Key.space	Key.space	n/a
287.456	0.06	574912	keystroke_g	g	n/a
287.621	0.075	575242	keystroke_a	a	n/a
287.756	0.075	575512	keystroke_r	r	n/a
287.816	0.09	575632	keystroke_l	l	n/a
288.011	0.09	576022	keystroke_i	i	n/a
288.161	0.09	576322	keystroke_c	c	n/a
288.581	0.09	577162	keystroke_Key.enter	Key.enter	n/a
288.6785	7.0145	577357	prompt	n/a	exhaust anniversary passing brokers\n
289.301	0.075	578602	keystroke_e	e	n/a
289.571	0.075	579142	keystroke_x	x	n/a
289.856	0.075	579712	keystroke_h	h	n/a
289.976	0.06	579952	keystroke_a	a	n/a
290.051	0.12	580102	keystroke_u	u	n/a
290.186	0.105	580372	keystroke_s	s	n/a
290.396	0.075	580792	keystroke_t	t	n/a
290.546	0.105	581092	keystroke_Key.space	Key.space	n/a
290.696	0.075	581392	keystroke_a	a	n/a
290.891	0.075	581782	keystroke_n	n	n/a
291.071	0.045	582142	keystroke_n	n	n/a
291.176	0.12	582352	keystroke_i	i	n/a
291.266	0.09	582532	keystroke_v	v	n/a
291.401	0.105	582802	keystroke_e	e	n/a
291.581	0.09	583162	keystroke_r	r	n/a
291.926	0.075	583852	keystroke_s	s	n/a
292.106	0.06	584212	keystroke_a	a	n/a
292.257	0.074	584514	keystroke_r	r	n/a
292.346	0.105	584692	keystroke_y	y	n/a
292.556	0.09	585112	keystroke_Key.space	Key.space	n/a
292.841	0.09	585682	keystroke_p	p	n/a
292.961	0.06	585922	keystroke_a	a	n/a
293.141	0.03	586282	keystroke_s	s	n/a
293.246	0.075	586492	keystroke_s	s	n/a
293.336	0.105	586672	keystroke_i	i	n/a
293.411	0.105	586822	keystroke_n	n	n/a
293.546	0.061	587092	keystroke_g	g	n/a
293.636	0.09	587272	keystroke_Key.space	Key.space	n/a
293.846	0.075	587692	keystroke_b	b	n/a
293.966	0.105	587932	keystroke_r	r	n/a
294.101	0.165	588202	keystroke_o	o	n/a
294.237	0.089	588474	keystroke_k	k	n/a
294.476	0.075	588952	keystroke_e	e	n/a
294.612	0.089	589224	keystroke_r	r	n/a
294.836	0.045	589672	keystroke_s	s	n/a
295.616	0.075	591232	keystroke_Key.enter	Key.enter	n/a
295.697	5.546	591394	prompt	n/a	disorder visual gotta solomon\n
296.441	0.06	592882	keystroke_d	d	n/a
296.546	0.09	593092	keystroke_i	i	n/a
296.637	0.104	593274	keystroke_s	s	n/a
296.757	0.104	593514	keystroke_o	o	n/a
296.891	0.061	593782	keystroke_r	r	n/a
297.056	0.06	594112	keystroke_d	d	n/a
297.221	0.06	594442	keystroke_e	e	n/a
297.356	0.06	594712	keystroke_r	r	n/a
297.506	0.09	595012	keystroke_Key.space	Key.space	n/a
297.701	0.105	595402	keystroke_v	v	n/a
297.836	0.09	595672	keystroke_i	i	n/a
297.927	0.074	595854	keystroke_s	s	n/a
298.046	0.09	596092	keystroke_u	u	n/a
298.151	0.09	596302	keystroke_a	a	n/a
298.286	0.105	596572	keystroke_l	l	n/a
298.541	0.106	597082	keystroke_Key.space	Key.space	n/a
298.661	0.045	597322	keystroke_g	g	n/a
298.736	0.09	597472	keystroke_o	o	n/a
298.841	0.045	597682	keystroke_t	t	n/a
298.946	0.06	597892	keystroke_t	t	n/a
299.261	0.09	598522	keystroke_a	a	n/a
299.471	0.09	598942	keystroke_Key.space	Key.space	n/a
299.592	0.104	599184	keystroke_s	s	n/a
299.681	0.075	599362	keystroke_o	o	n/a
299.876	0.09	599752	keystroke_l	l	n/a
300.101	0.106	600202	keystroke_o	o	n/a
300.311	0.06	600622	keystroke_m	m	n/a
300.416	0.135	600832	keystroke_o	o	n/a
300.506	0.15	601012	keystroke_n	n	n/a
301.106	0.135	602212	keystroke_Key.enter	Key.enter	n/a
301.247	6.341	602494	prompt	n/a	millions notices grip nextel\n
301.886	0.09	603772	keystroke_m	m	n/a
302.036	0.09	604072	keystroke_i	i	n/a
302.261	0.06	604522	keystroke_l	l	n/a
302.411	0.076	604822	keystroke_l	l	n/a
302.606	0.075	605212	keystroke_i	i	n/a
302.741	0.18	605482	keystroke_o	o	n/a
302.876	0.105	605752	keystroke_n	n	n/a
303.357	0.014	606714	keystroke_s	s	n/a
303.401	0.075	606802	keystroke_Key.space	Key.space	n/a
303.626	0.03	607252	keystroke_n	n	n/a
303.716	0.091	607432	keystroke_o	o	n/a
303.837	0.074	607674	keystroke_t	t	n/a
303.941	0.075	607882	keystroke_i	i	n/a
304.181	0.045	608362	keystroke_c	c	n/a
304.526	0.075	609052	keystroke_e	e	n/a
304.721	0.09	609442	keystroke_s	s	n/a
304.871	0.09	609742	keystroke_Key.space	Key.space	n/a
305.051	0.09	610102	keystroke_g	g	n/a
305.246	0.09	610492	keystroke_r	r	n/a
305.396	0.105	610792	keystroke_i	i	n/a
305.621	0.075	611242	keystroke_p	p	n/a
305.846	0.075	611692	keystroke_Key.space	Key.space	n/a
306.011	0.105	612022	keystroke_n	n	n/a
306.146	0.061	612292	keystroke_e	e	n/a
306.356	0.105	612712	keystroke_x	x	n/a
306.581	0.09	613162	keystroke_t	t	n/a
306.686	0.12	613372	keystroke_e	e	n/a
306.836	0.135	613672	keystroke_l	l	n/a
307.466	0.12	614932	keystroke_Key.enter	Key.enter	n/a
307.5915	5.9965	615183	prompt	n/a	himself richmond unlike incorrect\n
308.367	0.014	616734	keystroke_h	h	n/a
308.546	0.076	617092	keystroke_i	i	n/a
308.757	0.089	617514	keystroke_m	m	n/a
308.876	0.06	617752	keystroke_s	s	n/a
309.041	0.06	618082	keystroke_e	e	n/a
309.117	0.074	618234	keystroke_l	l	n/a
309.402	0.089	618804	keystroke_f	f	n/a
309.566	0.105	619132	keystroke_Key.space	Key.space	n/a
309.686	0.06	619372	keystroke_r	r	n/a
309.776	0.091	619552	keystroke_i	i	n/a
309.897	0.104	619794	keystroke_c	c	n/a
309.986	0.106	619972	keystroke_h	h	n/a
310.226	0.09	620452	keystroke_m	m	n/a
310.391	0.165	620782	keystroke_o	o	n/a
310.496	0.12	620992	keystroke_n	n	n/a
310.646	0.076	621292	keystroke_d	d	n/a
310.736	0.09	621472	keystroke_Key.space	Key.space	n/a
310.961	0.09	621922	keystroke_u	u	n/a
311.126	0.075	622252	keystroke_n	n	n/a
311.336	0.076	622672	keystroke_l	l	n/a
311.561	0.09	623122	keystroke_i	i	n/a
311.727	0.074	623454	keystroke_k	k	n/a
311.891	0.045	623782	keystroke_e	e	n/a
311.996	0.09	623992	keystroke_Key.space	Key.space	n/a
312.207	0.119	624414	keystroke_i	i	n/a
312.266	0.135	624532	keystroke_n	n	n/a
312.416	0.105	624832	keystroke_c	c	n/a
312.506	0.105	625012	keystroke_o	o	n/a
312.641	0.09	625282	keystroke_r	r	n/a
312.791	0.06	625582	keystroke_r	r	n/a
312.971	0.075	625942	keystroke_e	e	n/a
313.166	0.09	626332	keystroke_c	c	n/a
313.362	0.104	626724	keystroke_t	t	n/a
313.496	0.09	626992	keystroke_Key.enter	Key.enter	n/a
313.5935	5.1855	627187	prompt	n/a	reviewing bottles gallery ends\n
314.321	0.09	628642	keystroke_r	r	n/a
314.426	0.105	628852	keystroke_e	e	n/a
314.622	0.074	629244	keystroke_v	v	n/a
314.741	0.09	629482	keystroke_i	i	n/a
314.936	0.12	629872	keystroke_e	e	n/a
315.041	0.09	630082	keystroke_w	w	n/a
315.176	0.165	630352	keystroke_i	i	n/a
315.327	0.074	630654	keystroke_n	n	n/a
315.431	0.045	630862	keystroke_g	g	n/a
315.506	0.075	631012	keystroke_Key.space	Key.space	n/a
315.671	0.075	631342	keystroke_b	b	n/a
315.836	0.075	631672	keystroke_o	o	n/a
315.941	0.061	631882	keystroke_t	t	n/a
316.061	0.076	632122	keystroke_t	t	n/a
316.166	0.09	632332	keystroke_l	l	n/a
316.287	0.075	632574	keystroke_e	e	n/a
316.571	0.016	633142	keystroke_s	s	n/a
316.601	0.06	633202	keystroke_Key.space	Key.space	n/a
316.736	0.06	633472	keystroke_g	g	n/a
316.856	0.105	633712	keystroke_a	a	n/a
316.946	0.045	633892	keystroke_l	l	n/a
317.066	0.06	634132	keystroke_l	l	n/a
317.156	0.075	634312	keystroke_e	e	n/a
317.321	0.09	634642	keystroke_r	r	n/a
317.516	0.075	635032	keystroke_y	y	n/a
317.651	0.09	635302	keystroke_Key.space	Key.space	n/a
317.801	0.075	635602	keystroke_e	e	n/a
317.891	0.12	635782	keystroke_n	n	n/a
318.116	0.21	636232	keystroke_d	d	n/a
318.311	0.075	636622	keystroke_s	s	n/a
318.656	0.12	637312	keystroke_Key.enter	Key.enter	n/a
318.784	6.219	637568	prompt	n/a	converted wonder florence researchers\n
319.391	0.09	638782	keystroke_c	c	n/a
319.511	0.136	639022	keystroke_o	o	n/a
319.601	0.135	639202	keystroke_n	n	n/a
319.676	0.105	639352	keystroke_v	v	n/a
319.856	0.076	639712	keystroke_e	e	n/a
320.006	0.106	640012	keystroke_r	r	n/a
320.187	0.074	640374	keystroke_t	t	n/a
320.366	0.075	640732	keystroke_e	e	n/a
320.562	0.044	641124	keystroke_d	d	n/a
320.666	0.105	641332	keystroke_Key.space	Key.space	n/a
320.816	0.091	641632	keystroke_w	w	n/a
320.921	0.105	641842	keystroke_o	o	n/a
320.966	0.15	641932	keystroke_n	n	n/a
321.102	0.044	642204	keystroke_d	d	n/a
321.222	0.074	642444	keystroke_e	e	n/a
321.401	0.09	642802	keystroke_r	r	n/a
321.641	0.075	643282	keystroke_Key.space	Key.space	n/a
321.761	0.061	643522	keystroke_f	f	n/a
321.926	0.09	643852	keystroke_l	l	n/a
322.152	0.089	644304	keystroke_o	o	n/a
322.316	0.06	644632	keystroke_r	r	n/a
322.467	0.09	644934	keystroke_e	e	n/a
322.601	0.091	645202	keystroke_n	n	n/a
322.751	0.105	645502	keystroke_c	c	n/a
322.887	0.075	645774	keystroke_e	e	n/a
322.976	0.105	645952	keystroke_Key.space	Key.space	n/a
323.096	0.075	646192	keystroke_r	r	n/a
323.276	0.046	646552	keystroke_e	e	n/a
323.441	0.06	646882	keystroke_s	s	n/a
323.606	0.045	647212	keystroke_e	e	n/a
323.787	0.06	647574	keystroke_a	a	n/a
323.952	0.06	647904	keystroke_r	r	n/a
324.131	0.076	648262	keystroke_c	c	n/a
324.237	0.119	648474	keystroke_h	h	n/a
324.326	0.075	648652	keystroke_e	e	n/a
324.491	0.031	648982	keystroke_r	r	n/a
324.656	0.061	649312	keystroke_s	s	n/a
324.912	0.089	649824	keystroke_Key.enter	Key.enter	n/a
325.008	5.7555	650016	prompt	n/a	bidding falls julie bestsellers\n
325.646	0.075	651292	keystroke_b	b	n/a
325.797	0.104	651594	keystroke_i	i	n/a
325.902	0.06	651804	keystroke_d	d	n/a
326.023	0.073	652046	keystroke_d	d	n/a
326.127	0.15	652254	keystroke_i	i	n/a
326.232	0.119	652464	keystroke_n	n	n/a
326.412	0.075	652824	keystroke_g	g	n/a
326.531	0.135	653062	keystroke_Key.space	Key.space	n/a
326.921	0.06	653842	keystroke_f	f	n/a
327.057	0.059	654114	keystroke_a	a	n/a
327.146	0.06	654292	keystroke_l	l	n/a
327.282	0.06	654564	keystroke_l	l	n/a
327.461	0.06	654922	keystroke_s	s	n/a
327.596	0.091	655192	keystroke_Key.space	Key.space	n/a
327.986	0.076	655972	keystroke_j	j	n/a
328.151	0.076	656302	keystroke_u	u	n/a
328.362	0.104	656724	keystroke_l	l	n/a
328.571	0.076	657142	keystroke_i	i	n/a
328.691	0.075	657382	keystroke_e	e	n/a
328.841	0.075	657682	keystroke_Key.space	Key.space	n/a
329.006	0.076	658012	keystroke_b	b	n/a
329.052	0.059	658104	keystroke_e	e	n/a
329.187	0.104	658374	keystroke_s	s	n/a
329.427	0.044	658854	keystroke_t	t	n/a
329.636	0.06	659272	keystroke_s	s	n/a
329.787	0.059	659574	keystroke_e	e	n/a
329.862	0.074	659724	keystroke_l	l	n/a
330.012	0.089	660024	keystroke_l	l	n/a
330.117	0.074	660234	keystroke_e	e	n/a
330.311	0.046	660622	keystroke_r	r	n/a
330.506	0.075	661012	keystroke_s	s	n/a
330.671	0.09	661342	keystroke_Key.enter	Key.enter	n/a
330.767	7.9925	661534	prompt	n/a	maldives palestine delivered brave\n
331.557	0.105	663114	keystroke_m	m	n/a
331.751	0.075	663502	keystroke_a	a	n/a
331.842	0.09	663684	keystroke_l	l	n/a
332.382	0.029	664764	keystroke_f	f	n/a
332.981	0.075	665962	keystroke_Key.backspace	Key.backspace	n/a
333.177	0.074	666354	keystroke_d	d	n/a
333.311	0.09	666622	keystroke_i	i	n/a
333.446	0.091	666892	keystroke_v	v	n/a
333.641	0.061	667282	keystroke_e	e	n/a
333.851	0.046	667702	keystroke_s	s	n/a
333.971	0.09	667942	keystroke_Key.space	Key.space	n/a
334.196	0.09	668392	keystroke_p	p	n/a
334.302	0.06	668604	keystroke_a	a	n/a
334.407	0.105	668814	keystroke_l	l	n/a
334.586	0.046	669172	keystroke_e	e	n/a
334.751	0.076	669502	keystroke_s	s	n/a
334.932	0.075	669864	keystroke_t	t	n/a
335.007	0.134	670014	keystroke_i	i	n/a
335.082	0.134	670164	keystroke_n	n	n/a
335.232	0.044	670464	keystroke_e	e	n/a
335.381	0.105	670762	keystroke_Key.space	Key.space	n/a
335.967	0.045	671934	keystroke_d	d	n/a
336.026	0.075	672052	keystroke_e	e	n/a
336.132	0.074	672264	keystroke_l	l	n/a
336.311	0.106	672622	keystroke_i	i	n/a
336.461	0.105	672922	keystroke_v	v	n/a
336.641	0.091	673282	keystroke_e	e	n/a
336.822	0.075	673644	keystroke_r	r	n/a
336.987	0.06	673974	keystroke_e	e	n/a
337.167	0.045	674334	keystroke_d	d	n/a
337.271	0.09	674542	keystroke_Key.space	Key.space	n/a
337.482	0.075	674964	keystroke_b	b	n/a
337.571	0.075	675142	keystroke_r	r	n/a
337.887	0.09	675774	keystroke_a	a	n/a
338.126	0.09	676252	keystroke_v	v	n/a
338.277	0.074	676554	keystroke_e	e	n/a
338.682	0.074	677364	keystroke_Key.enter	Key.enter	n/a
338.765	4.6575	677530	prompt	n/a	imagine dump nearly but\n
339.402	0.09	678804	keystroke_i	i	n/a
339.582	0.135	679164	keystroke_m	m	n/a
339.702	0.074	679404	keystroke_a	a	n/a
339.867	0.075	679734	keystroke_g	g	n/a
339.957	0.09	679914	keystroke_i	i	n/a
339.987	0.164	679974	keystroke_n	n	n/a
340.137	0.09	680274	keystroke_e	e	n/a
340.332	0.119	680664	keystroke_Key.space	Key.space	n/a
340.512	0.089	681024	keystroke_d	d	n/a
340.632	0.09	681264	keystroke_u	u	n/a
340.871	0.06	681742	keystroke_m	m	n/a
341.006	0.075	682012	keystroke_p	p	n/a
341.2	0.076	682400	keystroke_Key.space	Key.space	n/a
341.351	0.105	682702	keystroke_n	n	n/a
341.441	0.06	682882	keystroke_e	e	n/a
341.606	0.09	683212	keystroke_a	a	n/a
341.77	0.075	683540	keystroke_r	r	n/a
341.847	0.089	683694	keystroke_l	l	n/a
341.981	0.089	683962	keystroke_y	y	n/a
342.1	0.12	684200	keystroke_Key.space	Key.space	n/a
342.356	0.075	684712	keystroke_b	b	n/a
342.521	0.03	685042	keystroke_u	u	n/a
343.091	0.09	686182	keystroke_t	t	n/a
343.316	0.104	686632	keystroke_Key.enter	Key.enter	n/a
343.427	6.0115	686854	prompt	n/a	curious indication conducted jeep\n
344.141	0.105	688282	keystroke_c	c	n/a
344.29	0.091	688580	keystroke_u	u	n/a
344.426	0.09	688852	keystroke_r	r	n/a
344.531	0.09	689062	keystroke_i	i	n/a
344.696	0.09	689392	keystroke_o	o	n/a
344.921	0.105	689842	keystroke_u	u	n/a
345.056	0.075	690112	keystroke_s	s	n/a
345.25	0.091	690500	keystroke_Key.space	Key.space	n/a
345.596	0.165	691192	keystroke_i	i	n/a
345.746	0.105	691492	keystroke_n	n	n/a
345.836	0.075	691672	keystroke_d	d	n/a
345.925	0.106	691850	keystroke_i	i	n/a
346.046	0.03	692092	keystroke_c	c	n/a
346.136	0.089	692272	keystroke_a	a	n/a
346.316	0.105	692632	keystroke_t	t	n/a
346.406	0.09	692812	keystroke_i	i	n/a
346.571	0.135	693142	keystroke_o	o	n/a
346.646	0.135	693292	keystroke_n	n	n/a
346.841	0.135	693682	keystroke_Key.space	Key.space	n/a
347.201	0.044	694402	keystroke_c	c	n/a
347.261	0.105	694522	keystroke_o	o	n/a
347.367	0.089	694734	keystroke_n	n	n/a
347.471	0.06	694942	keystroke_d	d	n/a
347.576	0.09	695152	keystroke_u	u	n/a
347.681	0.09	695362	keystroke_c	c	n/a
347.921	0.075	695842	keystroke_t	t	n/a
348.131	0.06	696262	keystroke_e	e	n/a
348.296	0.075	696592	keystroke_d	d	n/a
348.416	0.074	696832	keystroke_Key.space	Key.space	n/a
348.611	0.075	697222	keystroke_j	j	n/a
348.776	0.045	697552	keystroke_e	e	n/a
348.911	0.015	697822	keystroke_e	e	n/a
349.031	0.075	698062	keystroke_p	p	n/a
349.346	0.089	698692	keystroke_Key.enter	Key.enter	n/a
349.4475	8.3755	698895	prompt	n/a	conservation lincoln mailed electrical\n
350.171	0.09	700342	keystroke_c	c	n/a
350.246	0.12	700492	keystroke_o	o	n/a
350.351	0.105	700702	keystroke_n	n	n/a
350.411	0.06	700822	keystroke_s	s	n/a
350.561	0.105	701122	keystroke_e	e	n/a
350.771	0.03	701542	keystroke_r	r	n/a
351.071	0.09	702142	keystroke_v	v	n/a
351.266	0.09	702532	keystroke_a	a	n/a
351.431	0.09	702862	keystroke_t	t	n/a
351.551	0.09	703102	keystroke_i	i	n/a
351.746	0.12	703492	keystroke_o	o	n/a
351.881	0.075	703762	keystroke_n	n	n/a
352.076	0.089	704152	keystroke_Key.space	Key.space	n/a
352.226	0.105	704452	keystroke_l	l	n/a
352.451	0.135	704902	keystroke_i	i	n/a
352.571	0.105	705142	keystroke_n	n	n/a
352.721	0.074	705442	keystroke_c	c	n/a
352.796	0.075	705592	keystroke_o	o	n/a
352.931	0.12	705862	keystroke_l	l	n/a
353.156	0.06	706312	keystroke_n	n	n/a
353.321	0.075	706642	keystroke_Key.space	Key.space	n/a
353.471	0.105	706942	keystroke_m	m	n/a
353.591	0.075	707182	keystroke_a	a	n/a
353.681	0.075	707362	keystroke_i	i	n/a
353.861	0.09	707722	keystroke_l	l	n/a
353.981	0.045	707962	keystroke_e	e	n/a
354.116	0.075	708232	keystroke_d	d	n/a
354.251	0.09	708502	keystroke_Key.space	Key.space	n/a
354.686	0.075	709372	keystroke_e	e	n/a
354.776	0.075	709552	keystroke_l	l	n/a
354.836	0.075	709672	keystroke_e	e	n/a
354.986	0.09	709972	keystroke_c	c	n/a
355.271	0.06	710542	keystroke_t	t	n/a
355.301	0.12	710602	keystroke_r	r	n/a
355.451	0.105	710902	keystroke_i	i	n/a
355.631	0.09	711262	keystroke_x	x	n/a
356.651	0.09	713302	keystroke_Key.backspace	Key.backspace	n/a
357.236	0.06	714472	keystroke_c	c	n/a
357.401	0.075	714802	keystroke_a	a	n/a
357.506	0.09	715012	keystroke_l	l	n/a
357.716	0.105	715432	keystroke_Key.enter	Key.enter	n/a
357.8275	7.255	715655	prompt	n/a	webster stands cardiovascular cruise\n
358.541	0.075	717082	keystroke_w	w	n/a
358.706	0.06	717412	keystroke_e	e	n/a
358.781	0.12	717562	keystroke_b	b	n/a
358.886	0.075	717772	keystroke_s	s	n/a
359.066	0.12	718132	keystroke_t	t	n/a
359.216	0.09	718432	keystroke_e	e	n/a
359.381	0.09	718762	keystroke_r	r	n/a
359.606	0.135	719212	keystroke_Key.space	Key.space	n/a
359.771	0.09	719542	keystroke_s	s	n/a
359.936	0.09	719872	keystroke_t	t	n/a
360.146	0.06	720292	keystroke_a	a	n/a
360.221	0.075	720442	keystroke_n	n	n/a
360.341	0.135	720682	keystroke_d	d	n/a
360.461	0.075	720922	keystroke_s	s	n/a
360.836	0.105	721672	keystroke_Key.space	Key.space	n/a
360.986	0.06	721972	keystroke_c	c	n/a
361.136	0.075	722272	keystroke_a	a	n/a
361.316	0.06	722632	keystroke_r	r	n/a
361.541	0.075	723082	keystroke_d	d	n/a
361.676	0.075	723352	keystroke_i	i	n/a
361.841	0.09	723682	keystroke_o	o	n/a
362.501	0.03	725002	keystroke_v	v	n/a
362.636	0.09	725272	keystroke_a	a	n/a
362.846	0.06	725692	keystroke_s	s	n/a
363.071	0.06	726142	keystroke_c	c	n/a
363.191	0.075	726382	keystroke_u	u	n/a
363.401	0.09	726802	keystroke_l	l	n/a
363.476	0.09	726952	keystroke_a	a	n/a
363.671	0.075	727342	keystroke_r	r	n/a
363.851	0.09	727702	keystroke_Key.space	Key.space	n/a
364.046	0.06	728092	keystroke_c	c	n/a
364.316	0.09	728632	keystroke_r	r	n/a
364.421	0.09	728842	keystroke_u	u	n/a
364.571	0.105	729142	keystroke_i	i	n/a
364.646	0.075	729292	keystroke_s	s	n/a
364.811	0.105	729622	keystroke_e	e	n/a
364.946	0.135	729892	keystroke_Key.enter	Key.enter	n/a
365.0865	5.306	730173	prompt	n/a	ballot candles paper provision\n
365.801	0.075	731602	keystroke_b	b	n/a
365.936	0.075	731872	keystroke_a	a	n/a
366.071	0.075	732142	keystroke_l	l	n/a
366.206	0.06	732412	keystroke_l	l	n/a
366.341	0.12	732682	keystroke_o	o	n/a
366.476	0.075	732952	keystroke_t	t	n/a
366.641	0.105	733282	keystroke_Key.space	Key.space	n/a
366.821	0.06	733642	keystroke_c	c	n/a
366.971	0.075	733942	keystroke_a	a	n/a
367.076	0.075	734152	keystroke_n	n	n/a
367.136	0.105	734272	keystroke_d	d	n/a
367.271	0.075	734542	keystroke_l	l	n/a
367.361	0.075	734722	keystroke_e	e	n/a
367.541	0.045	735082	keystroke_s	s	n/a
367.601	0.09	735202	keystroke_Key.space	Key.space	n/a
367.826	0.045	735652	keystroke_p	p	n/a
367.886	0.09	735772	keystroke_a	a	n/a
367.961	0.06	735922	keystroke_p	p	n/a
368.126	0.075	736252	keystroke_e	e	n/a
368.291	0.075	736582	keystroke_r	r	n/a
368.411	0.09	736822	keystroke_Key.space	Key.space	n/a
368.651	0.075	737302	keystroke_p	p	n/a
368.741	0.09	737482	keystroke_r	r	n/a
368.861	0.12	737722	keystroke_o	o	n/a
369.176	0.06	738352	keystroke_v	v	n/a
369.356	0.09	738712	keystroke_i	i	n/a
369.476	0.075	738952	keystroke_s	s	n/a
369.566	0.075	739132	keystroke_i	i	n/a
369.701	0.135	739402	keystroke_o	o	n/a
369.776	0.15	739552	keystroke_n	n	n/a
370.241	0.15	740482	keystroke_Key.enter	Key.enter	n/a
370.398	6.5945	740796	prompt	n/a	thumbzilla forward show surely\n
371.066	0.06	742132	keystroke_t	t	n/a
371.156	0.105	742312	keystroke_h	h	n/a
371.741	0.075	743482	keystroke_u	u	n/a
371.981	0.075	743962	keystroke_m	m	n/a
372.536	0.06	745072	keystroke_b	b	n/a
372.806	0.09	745612	keystroke_z	z	n/a
372.926	0.075	745852	keystroke_i	i	n/a
373.136	0.06	746272	keystroke_l	l	n/a
373.286	0.06	746572	keystroke_l	l	n/a
373.436	0.105	746872	keystroke_a	a	n/a
373.556	0.09	747112	keystroke_Key.space	Key.space	n/a
373.706	0.075	747412	keystroke_f	f	n/a
373.796	0.09	747592	keystroke_o	o	n/a
373.856	0.06	747712	keystroke_r	r	n/a
374.081	0.06	748162	keystroke_w	w	n/a
374.246	0.09	748492	keystroke_a	a	n/a
374.456	0.06	748912	keystroke_r	r	n/a
374.636	0.09	749272	keystroke_d	d	n/a
374.816	0.105	749632	keystroke_Key.space	Key.space	n/a
374.981	0.09	749962	keystroke_s	s	n/a
375.086	0.09	750172	keystroke_h	h	n/a
375.281	0.105	750562	keystroke_o	o	n/a
375.401	0.06	750802	keystroke_w	w	n/a
375.536	0.09	751072	keystroke_Key.space	Key.space	n/a
376.001	0.075	752002	keystroke_s	s	n/a
376.061	0.105	752122	keystroke_u	u	n/a
376.211	0.105	752422	keystroke_r	r	n/a
376.286	0.075	752572	keystroke_e	e	n/a
376.391	0.105	752782	keystroke_l	l	n/a
376.526	0.075	753052	keystroke_y	y	n/a
376.901	0.09	753802	keystroke_Key.enter	Key.enter	n/a
376.9965	6.086	753993	prompt	n/a	alot positioning task arabia\n
377.591	0.075	755182	keystroke_a	a	n/a
377.996	0.075	755992	keystroke_l	l	n/a
378.191	0.105	756382	keystroke_o	o	n/a
378.341	0.075	756682	keystroke_t	t	n/a
378.536	0.075	757072	keystroke_Key.space	Key.space	n/a
378.866	0.075	757732	keystroke_p	p	n/a
379.061	0.075	758122	keystroke_o	o	n/a
379.151	0.105	758302	keystroke_s	s	n/a
379.391	0.075	758782	keystroke_i	i	n/a
379.571	0.075	759142	keystroke_t	t	n/a
379.691	0.105	759382	keystroke_i	i	n/a
379.901	0.105	759802	keystroke_o	o	n/a
380.066	0.105	760132	keystroke_n	n	n/a
380.216	0.165	760432	keystroke_i	i	n/a
380.306	0.135	760612	keystroke_n	n	n/a
380.486	0.075	760972	keystroke_g	g	n/a
380.591	0.105	761182	keystroke_Key.space	Key.space	n/a
380.711	0.075	761422	keystroke_t	t	n/a
380.981	0.06	761962	keystroke_a	a	n/a
381.176	0.09	762352	keystroke_s	s	n/a
381.311	0.06	762622	keystroke_k	k	n/a
381.461	0.12	762922	keystroke_Key.space	Key.space	n/a
381.551	0.075	763102	keystroke_a	a	n/a
381.746	0.045	763492	keystroke_r	r	n/a
381.881	0.075	763762	keystroke_a	a	n/a
381.971	0.075	763942	keystroke_b	b	n/a
382.076	0.12	764152	keystroke_i	i	n/a
382.211	0.09	764422	keystroke_a	a	n/a
382.991	0.09	765982	keystroke_Key.enter	Key.enter	n/a
383.0865	6.3565	766173	prompt	n/a	psychology fund test closes\n
384.686	0.045	769372	keystroke_p	p	n/a
384.896	0.105	769792	keystroke_s	s	n/a
385.046	0.105	770092	keystroke_y	y	n/a
385.391	0.075	770782	keystroke_c	c	n/a
385.496	0.06	770992	keystroke_h	h	n/a
385.781	0.09	771562	keystroke_o	o	n/a
385.976	0.09	771952	keystroke_l	l	n/a
386.141	0.09	772282	keystroke_o	o	n/a
386.216	0.105	772432	keystroke_g	g	n/a
386.426	0.06	772852	keystroke_y	y	n/a
386.546	0.105	773092	keystroke_Key.space	Key.space	n/a
387.026	0.075	774052	keystroke_f	f	n/a
387.071	0.075	774142	keystroke_u	u	n/a
387.191	0.12	774382	keystroke_n	n	n/a
387.296	0.105	774592	keystroke_d	d	n/a
387.416	0.12	774832	keystroke_Key.space	Key.space	n/a
387.581	0.09	775162	keystroke_t	t	n/a
387.611	0.12	775222	keystroke_e	e	n/a
387.836	0.105	775672	keystroke_s	s	n/a
388.061	0.06	776122	keystroke_t	t	n/a
388.211	0.105	776422	keystroke_Key.space	Key.space	n/a
388.391	0.09	776782	keystroke_c	c	n/a
388.496	0.12	776992	keystroke_l	l	n/a
388.706	0.105	777412	keystroke_o	o	n/a
388.766	0.09	777532	keystroke_s	s	n/a
388.931	0.075	777862	keystroke_e	e	n/a
389.111	0.075	778222	keystroke_s	s	n/a
389.261	0.18	778522	keystroke_Key.enter	Key.enter	n/a
389.4475	5.9355	778895	prompt	n/a	ways experiencing revised recall\n
390.056	0.06	780112	keystroke_w	w	n/a
390.206	0.075	780412	keystroke_a	a	n/a
390.296	0.12	780592	keystroke_y	y	n/a
390.431	0.09	780862	keystroke_s	s	n/a
390.536	0.135	781072	keystroke_Key.space	Key.space	n/a
390.656	0.06	781312	keystroke_e	e	n/a
390.836	0.105	781672	keystroke_x	x	n/a
390.911	0.105	781822	keystroke_p	p	n/a
391.121	0.075	782242	keystroke_e	e	n/a
391.376	0.06	782752	keystroke_i	i	n/a
391.751	0.045	783502	keystroke_Key.backspace	Key.backspace	n/a
391.901	0.075	783802	keystroke_r	r	n/a
392.036	0.12	784072	keystroke_i	i	n/a
392.201	0.105	784402	keystroke_e	e	n/a
392.381	0.09	784762	keystroke_n	n	n/a
392.501	0.075	785002	keystroke_c	c	n/a
392.606	0.12	785212	keystroke_i	i	n/a
392.651	0.135	785302	keystroke_n	n	n/a
392.831	0.075	785662	keystroke_g	g	n/a
392.981	0.12	785962	keystroke_Key.space	Key.space	n/a
393.116	0.12	786232	keystroke_r	r	n/a
393.206	0.105	786412	keystroke_e	e	n/a
393.476	0.075	786952	keystroke_v	v	n/a
393.581	0.105	787162	keystroke_i	i	n/a
393.716	0.075	787432	keystroke_s	s	n/a
393.896	0.075	787792	keystroke_e	e	n/a
394.076	0.075	788152	keystroke_s	s	n/a
394.211	0.105	788422	keystroke_Key.space	Key.space	n/a
394.376	0.075	788752	keystroke_r	r	n/a
394.541	0.06	789082	keystroke_e	e	n/a
394.736	0.06	789472	keystroke_c	c	n/a
394.856	0.075	789712	keystroke_a	a	n/a
394.946	0.06	789892	keystroke_l	l	n/a
395.081	0.03	790162	keystroke_l	l	n/a
395.276	0.105	790552	keystroke_Key.enter	Key.enter	n/a
395.3885	8.44	790777	prompt	n/a	meat these're jurisdiction database\n
395.936	0.09	791872	keystroke_m	m	n/a
396.041	0.075	792082	keystroke_e	e	n/a
396.221	0.09	792442	keystroke_a	a	n/a
396.431	0.075	792862	keystroke_t	t	n/a
396.566	0.105	793132	keystroke_Key.space	Key.space	n/a
396.821	0.075	793642	keystroke_t	t	n/a
396.971	0.075	793942	keystroke_h	h	n/a
397.091	0.06	794182	keystroke_e	e	n/a
397.271	0.075	794542	keystroke_s	s	n/a
397.466	0.06	794932	keystroke_e	e	n/a
397.781	0.135	795562	keystroke_'	'	n/a
398.021	0.135	796042	keystroke_r	r	n/a
398.096	0.105	796192	keystroke_e	e	n/a
398.261	0.105	796522	keystroke_Key.space	Key.space	n/a
398.441	0.105	796882	keystroke_j	j	n/a
398.651	0.12	797302	keystroke_u	u	n/a
398.801	0.075	797602	keystroke_r	r	n/a
398.996	0.075	797992	keystroke_i	i	n/a
399.296	0.06	798592	keystroke_s	s	n/a
399.491	0.075	798982	keystroke_d	d	n/a
399.626	0.09	799252	keystroke_i	i	n/a
399.866	0.075	799732	keystroke_c	c	n/a
401.876	0.075	803752	keystroke_t	t	n/a
401.981	0.075	803962	keystroke_i	i	n/a
402.161	0.135	804322	keystroke_o	o	n/a
402.281	0.105	804562	keystroke_n	n	n/a
402.476	0.105	804952	keystroke_Key.space	Key.space	n/a
402.596	0.06	805192	keystroke_d	d	n/a
402.716	0.09	805432	keystroke_a	a	n/a
402.911	0.06	805822	keystroke_t	t	n/a
403.076	0.06	806152	keystroke_a	a	n/a
403.121	0.12	806242	keystroke_b	b	n/a
403.226	0.075	806452	keystroke_a	a	n/a
403.406	0.075	806812	keystroke_s	s	n/a
403.616	0.075	807232	keystroke_e	e	n/a
403.706	0.12	807412	keystroke_Key.enter	Key.enter	n/a
403.8335	6.6735	807667	prompt	n/a	characteristics buffer page unexpected\n
404.486	0.075	808972	keystroke_c	c	n/a
404.591	0.105	809182	keystroke_h	h	n/a
404.666	0.06	809332	keystroke_a	a	n/a
404.816	0.075	809632	keystroke_r	r	n/a
404.966	0.105	809932	keystroke_a	a	n/a
405.161	0.075	810322	keystroke_c	c	n/a
405.446	0.09	810892	keystroke_t	t	n/a
405.581	0.06	811162	keystroke_e	e	n/a
405.716	0.075	811432	keystroke_r	r	n/a
405.836	0.12	811672	keystroke_i	i	n/a
405.941	0.045	811882	keystroke_s	s	n/a
406.046	0.075	812092	keystroke_t	t	n/a
406.091	0.12	812182	keystroke_i	i	n/a
406.361	0.06	812722	keystroke_c	c	n/a
406.466	0.09	812932	keystroke_s	s	n/a
406.586	0.075	813172	keystroke_Key.space	Key.space	n/a
406.781	0.075	813562	keystroke_b	b	n/a
406.901	0.105	813802	keystroke_u	u	n/a
407.036	0.03	814072	keystroke_f	f	n/a
407.156	0.075	814312	keystroke_f	f	n/a
407.351	0.09	814702	keystroke_e	e	n/a
407.471	0.09	814942	keystroke_r	r	n/a
407.711	0.09	815422	keystroke_Key.space	Key.space	n/a
407.921	0.105	815842	keystroke_p	p	n/a
407.981	0.09	815962	keystroke_a	a	n/a
408.161	0.09	816322	keystroke_g	g	n/a
408.236	0.09	816472	keystroke_e	e	n/a
408.356	0.09	816712	keystroke_Key.space	Key.space	n/a
408.566	0.075	817132	keystroke_u	u	n/a
408.701	0.105	817402	keystroke_n	n	n/a
408.791	0.045	817582	keystroke_e	e	n/a
408.971	0.075	817942	keystroke_x	x	n/a
409.046	0.105	818092	keystroke_p	p	n/a
409.196	0.075	818392	keystroke_e	e	n/a
409.376	0.105	818752	keystroke_c	c	n/a
409.616	0.09	819232	keystroke_t	t	n/a
409.811	0.075	819622	keystroke_e	e	n/a
409.991	0.09	819982	keystroke_d	d	n/a
410.381	0.12	820762	keystroke_Key.enter	Key.enter	n/a
410.507	5.261	821014	prompt	n/a	acne tales denmark exploring\n
411.056	0.09	822112	keystroke_a	a	n/a
411.251	0.06	822502	keystroke_c	c	n/a
411.686	0.09	823372	keystroke_n	n	n/a
411.791	0.09	823582	keystroke_e	e	n/a
411.926	0.135	823852	keystroke_Key.space	Key.space	n/a
412.091	0.09	824182	keystroke_t	t	n/a
412.301	0.105	824602	keystroke_a	a	n/a
412.391	0.075	824782	keystroke_l	l	n/a
412.556	0.075	825112	keystroke_e	e	n/a
412.736	0.075	825472	keystroke_s	s	n/a
412.841	0.135	825682	keystroke_Key.space	Key.space	n/a
413.096	0.075	826192	keystroke_d	d	n/a
413.216	0.075	826432	keystroke_e	e	n/a
413.321	0.06	826642	keystroke_n	n	n/a
413.501	0.045	827002	keystroke_m	m	n/a
413.531	0.06	827062	keystroke_a	a	n/a
413.711	0.045	827422	keystroke_r	r	n/a
413.786	0.06	827572	keystroke_k	k	n/a
414.251	0.09	828502	keystroke_Key.space	Key.space	n/a
414.386	0.09	828772	keystroke_e	e	n/a
414.596	0.105	829192	keystroke_x	x	n/a
414.671	0.15	829342	keystroke_p	p	n/a
414.806	0.075	829612	keystroke_l	l	n/a
415.016	0.045	830032	keystroke_o	o	n/a
415.076	0.09	830152	keystroke_r	r	n/a
415.182	0.134	830364	keystroke_i	i	n/a
415.286	0.12	830572	keystroke_n	n	n/a
415.376	0.075	830752	keystroke_g	g	n/a
415.631	0.135	831262	keystroke_Key.enter	Key.enter	n/a
415.772	5.5605	831544	prompt	n/a	needs ethics supplements forbes\n
416.591	0.105	833182	keystroke_n	n	n/a
416.726	0.06	833452	keystroke_e	e	n/a
416.861	0.075	833722	keystroke_e	e	n/a
417.056	0.09	834112	keystroke_d	d	n/a
417.116	0.09	834232	keystroke_s	s	n/a
417.281	0.105	834562	keystroke_Key.space	Key.space	n/a
417.446	0.075	834892	keystroke_e	e	n/a
417.581	0.09	835162	keystroke_t	t	n/a
417.656	0.09	835312	keystroke_h	h	n/a
417.851	0.09	835702	keystroke_i	i	n/a
418.016	0.075	836032	keystroke_c	c	n/a
418.316	0.105	836632	keystroke_Key.space	Key.space	n/a
418.556	0.075	837112	keystroke_s	s	n/a
418.691	0.09	837382	keystroke_u	u	n/a
418.931	0.06	837862	keystroke_p	p	n/a
419.066	0.135	838132	keystroke_p	p	n/a
419.172	0.104	838344	keystroke_l	l	n/a
419.306	0.09	838612	keystroke_e	e	n/a
419.441	0.105	838882	keystroke_m	m	n/a
419.486	0.075	838972	keystroke_e	e	n/a
419.606	0.105	839212	keystroke_n	n	n/a
419.726	0.06	839452	keystroke_t	t	n/a
419.936	0.09	839872	keystroke_s	s	n/a
420.041	0.075	840082	keystroke_Key.space	Key.space	n/a
420.191	0.06	840382	keystroke_f	f	n/a
420.236	0.105	840472	keystroke_o	o	n/a
420.342	0.059	840684	keystroke_r	r	n/a
420.506	0.06	841012	keystroke_b	b	n/a
420.926	0.075	841852	keystroke_e	e	n/a
421.121	0.105	842242	keystroke_s	s	n/a
421.241	0.09	842482	keystroke_Key.enter	Key.enter	n/a
421.34	6.8635	842680	prompt	n/a	spouse enquiry updating voice\n
421.826	0.045	843652	keystroke_s	s	n/a
422.066	0.075	844132	keystroke_p	p	n/a
423.311	0.09	846622	keystroke_o	o	n/a
423.551	0.105	847102	keystroke_u	u	n/a
423.671	0.105	847342	keystroke_s	s	n/a
423.881	0.06	847762	keystroke_e	e	n/a
424.016	0.105	848032	keystroke_Key.space	Key.space	n/a
424.181	0.105	848362	keystroke_e	e	n/a
424.301	0.105	848602	keystroke_n	n	n/a
424.631	0.09	849262	keystroke_q	q	n/a
424.736	0.045	849472	keystroke_u	u	n/a
424.991	0.105	849982	keystroke_i	i	n/a
425.097	0.074	850194	keystroke_r	r	n/a
425.291	0.09	850582	keystroke_y	y	n/a
425.456	0.12	850912	keystroke_Key.space	Key.space	n/a
425.711	0.09	851422	keystroke_u	u	n/a
425.906	0.105	851812	keystroke_p	p	n/a
426.026	0.06	852052	keystroke_d	d	n/a
426.131	0.09	852262	keystroke_a	a	n/a
426.296	0.105	852592	keystroke_t	t	n/a
426.386	0.15	852772	keystroke_i	i	n/a
426.506	0.105	853012	keystroke_n	n	n/a
426.656	0.09	853312	keystroke_g	g	n/a
426.851	0.09	853702	keystroke_Key.space	Key.space	n/a
427.151	0.06	854302	keystroke_v	v	n/a
427.226	0.075	854452	keystroke_o	o	n/a
427.376	0.12	854752	keystroke_i	i	n/a
427.436	0.09	854872	keystroke_c	c	n/a
427.631	0.105	855262	keystroke_e	e	n/a
428.111	0.09	856222	keystroke_Key.enter	Key.enter	n/a
428.208	5.5305	856416	prompt	n/a	webmasters versus homeless gaps\n
428.921	0.0895	857842	keystroke_w	w	n/a
429.086	0.06	858172	keystroke_e	e	n/a
429.206	0.09	858412	keystroke_b	b	n/a
429.446	0.105	858892	keystroke_m	m	n/a
429.626	0.075	859252	keystroke_a	a	n/a
429.821	0.09	859642	keystroke_s	s	n/a
430.031	0.076	860062	keystroke_t	t	n/a
430.136	0.12	860272	keystroke_e	e	n/a
430.286	0.105	860572	keystroke_r	r	n/a
430.481	0.09	860962	keystroke_s	s	n/a
430.616	0.09	861232	keystroke_Key.space	Key.space	n/a
430.796	0.075	861592	keystroke_v	v	n/a
430.916	0.09	861832	keystroke_e	e	n/a
431.081	0.06	862162	keystroke_r	r	n/a
431.261	0.045	862522	keystroke_s	s	n/a
431.321	0.12	862642	keystroke_u	u	n/a
431.396	0.06	862792	keystroke_s	s	n/a
431.576	0.075	863152	keystroke_Key.space	Key.space	n/a
431.711	0.09	863422	keystroke_h	h	n/a
431.921	0.15	863842	keystroke_o	o	n/a
432.072	0.089	864144	keystroke_m	m	n/a
432.176	0.075	864352	keystroke_e	e	n/a
432.282	0.104	864564	keystroke_l	l	n/a
432.387	0.044	864774	keystroke_e	e	n/a
432.536	0.045	865072	keystroke_s	s	n/a
432.671	0.06	865342	keystroke_s	s	n/a
432.761	0.135	865522	keystroke_Key.space	Key.space	n/a
433.031	0.06	866062	keystroke_g	g	n/a
433.211	0.045	866422	keystroke_a	a	n/a
433.257	0.089	866514	keystroke_p	p	n/a
433.391	0.09	866782	keystroke_s	s	n/a
433.646	0.09	867292	keystroke_Key.enter	Key.enter	n/a
433.744	4.734	867488	prompt	n/a	bloom paste order victim\n
434.381	0.09	868762	keystroke_b	b	n/a
434.606	0.09	869212	keystroke_l	l	n/a
434.846	0.045	869692	keystroke_o	o	n/a
434.966	0.09	869932	keystroke_o	o	n/a
435.101	0.135	870202	keystroke_m	m	n/a
435.386	0.09	870772	keystroke_Key.space	Key.space	n/a
435.611	0.09	871222	keystroke_p	p	n/a
435.731	0.09	871462	keystroke_a	a	n/a
435.896	0.105	871792	keystroke_s	s	n/a
436.106	0.135	872212	keystroke_t	t	n/a
436.181	0.165	872362	keystroke_e	e	n/a
436.436	0.135	872872	keystroke_Key.space	Key.space	n/a
436.676	0.09	873352	keystroke_o	o	n/a
436.751	0.075	873502	keystroke_r	r	n/a
436.916	0.06	873832	keystroke_d	d	n/a
437.081	0.075	874162	keystroke_e	e	n/a
437.216	0.105	874432	keystroke_r	r	n/a
437.351	0.12	874702	keystroke_Key.space	Key.space	n/a
437.486	0.06	874972	keystroke_v	v	n/a
437.576	0.12	875152	keystroke_i	i	n/a
437.681	0.09	875362	keystroke_c	c	n/a
437.951	0.075	875902	keystroke_t	t	n/a
438.011	0.075	876022	keystroke_i	i	n/a
438.146	0.105	876292	keystroke_m	m	n/a
438.371	0.105	876742	keystroke_Key.enter	Key.enter	n/a
438.4825	6.91	876965	prompt	n/a	buyers reporting adelaide extend\n
439.196	0.06	878392	keystroke_b	b	n/a
439.376	0.105	878752	keystroke_u	u	n/a
439.526	0.075	879052	keystroke_y	y	n/a
439.766	0.075	879532	keystroke_e	e	n/a
439.916	0.075	879832	keystroke_r	r	n/a
440.126	0.075	880252	keystroke_s	s	n/a
440.456	0.075	880912	keystroke_Key.space	Key.space	n/a
440.681	0.105	881362	keystroke_r	r	n/a
440.757	0.089	881514	keystroke_e	e	n/a
440.876	0.09	881752	keystroke_p	p	n/a
441.041	0.105	882082	keystroke_o	o	n/a
441.161	0.06	882322	keystroke_r	r	n/a
441.311	0.045	882622	keystroke_t	t	n/a
441.371	0.15	882742	keystroke_i	i	n/a
441.491	0.12	882982	keystroke_n	n	n/a
441.686	0.075	883372	keystroke_g	g	n/a
442.076	0.105	884152	keystroke_Key.space	Key.space	n/a
442.3005	0.0605	884601	keystroke_a	a	n/a
442.525	0.09	885050	keystroke_d	d	n/a
442.84	0.061	885680	keystroke_e	e	n/a
442.975	0.06	885950	keystroke_l	l	n/a
443.126	0.059	886252	keystroke_a	a	n/a
443.23	0.12	886460	keystroke_i	i	n/a
444.055	0.09	888110	keystroke_d	d	n/a
444.175	0.09	888350	keystroke_e	e	n/a
444.28	0.135	888560	keystroke_Key.space	Key.space	n/a
444.355	0.045	888710	keystroke_e	e	n/a
444.52	0.105	889040	keystroke_x	x	n/a
444.746	0.089	889492	keystroke_t	t	n/a
444.85	0.09	889700	keystroke_e	e	n/a
444.985	0.09	889970	keystroke_n	n	n/a
445.105	0.105	890210	keystroke_d	d	n/a
445.27	0.12	890540	keystroke_Key.enter	Key.enter	n/a
445.397	6.7905	890794	prompt	n/a	fails investor cubic provision\n
446.395	0.075	892790	keystroke_f	f	n/a
447.071	0.074	894142	keystroke_a	a	n/a
447.22	0.09	894440	keystroke_i	i	n/a
447.43	0.09	894860	keystroke_l	l	n/a
447.595	0.075	895190	keystroke_s	s	n/a
447.685	0.09	895370	keystroke_Key.space	Key.space	n/a
447.865	0.15	895730	keystroke_i	i	n/a
447.955	0.15	895910	keystroke_n	n	n/a
448.06	0.091	896120	keystroke_v	v	n/a
448.21	0.075	896420	keystroke_e	e	n/a
448.375	0.105	896750	keystroke_s	s	n/a
448.585	0.105	897170	keystroke_t	t	n/a
448.675	0.09	897350	keystroke_o	o	n/a
448.766	0.134	897532	keystroke_r	r	n/a
449.125	0.09	898250	keystroke_Key.space	Key.space	n/a
449.425	0.075	898850	keystroke_c	c	n/a
449.485	0.165	898970	keystroke_u	u	n/a
449.605	0.09	899210	keystroke_b	b	n/a
449.755	0.105	899510	keystroke_i	i	n/a
449.89	0.09	899780	keystroke_c	c	n/a
450.04	0.105	900080	keystroke_Key.space	Key.space	n/a
450.325	0.075	900650	keystroke_p	p	n/a
450.445	0.075	900890	keystroke_r	r	n/a
450.535	0.09	901070	keystroke_o	o	n/a
450.611	0.089	901222	keystroke_v	v	n/a
450.775	0.075	901550	keystroke_i	i	n/a
450.895	0.091	901790	keystroke_s	s	n/a
451.39	0.075	902780	keystroke_i	i	n/a
451.57	0.15	903140	keystroke_o	o	n/a
451.69	0.12	903380	keystroke_n	n	n/a
452.095	0.09	904190	keystroke_Key.enter	Key.enter	n/a
452.193	5.7395	904386	prompt	n/a	office head concrete drain\n
452.725	0.09	905450	keystroke_o	o	n/a
452.905	0.045	905810	keystroke_f	f	n/a
453.04	0.046	906080	keystroke_f	f	n/a
453.115	0.105	906230	keystroke_i	i	n/a
453.25	0.15	906500	keystroke_c	c	n/a
453.445	0.09	906890	keystroke_e	e	n/a
453.55	0.12	907100	keystroke_Key.space	Key.space	n/a
453.79	0.105	907580	keystroke_h	h	n/a
453.865	0.06	907730	keystroke_e	e	n/a
454.06	0.06	908120	keystroke_a	a	n/a
454.24	0.09	908480	keystroke_d	d	n/a
454.57	0.135	909140	keystroke_Key.space	Key.space	n/a
454.885	0.09	909770	keystroke_c	c	n/a
454.961	0.15	909922	keystroke_o	o	n/a
455.065	0.135	910130	keystroke_n	n	n/a
455.126	0.089	910252	keystroke_c	c	n/a
455.44	0.076	910880	keystroke_r	r	n/a
455.545	0.091	911090	keystroke_e	e	n/a
455.771	0.089	911542	keystroke_e	e	n/a
456.265	0.03	912530	keystroke_Key.backspace	Key.backspace	n/a
456.49	0.12	912980	keystroke_t	t	n/a
456.58	0.12	913160	keystroke_e	e	n/a
456.79	0.09	913580	keystroke_Key.space	Key.space	n/a
456.925	0.09	913850	keystroke_d	d	n/a
457.18	0.076	914360	keystroke_r	r	n/a
457.345	0.105	914690	keystroke_a	a	n/a
457.39	0.165	914780	keystroke_i	i	n/a
457.51	0.135	915020	keystroke_n	n	n/a
457.84	0.09	915680	keystroke_Key.enter	Key.enter	n/a
457.937	5.351	915874	prompt	n/a	cape organic impression colored\n
458.636	0.044	917272	keystroke_c	c	n/a
458.756	0.089	917512	keystroke_a	a	n/a
458.861	0.074	917722	keystroke_p	p	n/a
459.01	0.076	918020	keystroke_e	e	n/a
459.16	0.105	918320	keystroke_Key.space	Key.space	n/a
459.355	0.105	918710	keystroke_o	o	n/a
459.461	0.074	918922	keystroke_r	r	n/a
459.596	0.059	919192	keystroke_g	g	n/a
459.7755	0.06	919551	keystroke_a	a	n/a
459.8505	0.075	919701	keystroke_n	n	n/a
459.9705	0.12	919941	keystroke_i	i	n/a
460.1205	0.075	920241	keystroke_c	c	n/a
460.2705	0.12	920541	keystroke_Key.space	Key.space	n/a
460.4805	0.135	920961	keystroke_i	i	n/a
460.7055	0.06	921411	keystroke_m	m	n/a
460.8555	0.045	921711	keystroke_p	p	n/a
461.0055	0.105	922011	keystroke_r	r	n/a
461.0805	0.075	922161	keystroke_e	e	n/a
461.2605	0.06	922521	keystroke_s	s	n/a
461.396	0.06	922792	keystroke_s	s	n/a
461.576	0.09	923152	keystroke_i	i	n/a
461.771	0.15	923542	keystroke_o	o	n/a
461.891	0.09	923782	keystroke_n	n	n/a
462.131	0.09	924262	keystroke_Key.space	Key.space	n/a
462.281	0.09	924562	keystroke_c	c	n/a
462.356	0.09	924712	keystroke_o	o	n/a
462.551	0.06	925102	keystroke_l	l	n/a
462.716	0.105	925432	keystroke_o	o	n/a
462.806	0.06	925612	keystroke_r	r	n/a
462.971	0.045	925942	keystroke_e	e	n/a
463.136	0.09	926272	keystroke_d	d	n/a
463.227	0.059	926454	keystroke_Key.enter	Key.enter	n/a
463.293	7.106	926586	prompt	n/a	trailer utah used leads\n
463.946	0.135	927892	keystroke_t	t	n/a
464.051	0.075	928102	keystroke_r	r	n/a
464.306	0.06	928612	keystroke_a	a	n/a
464.396	0.09	928792	keystroke_i	i	n/a
464.606	0.09	929212	keystroke_l	l	n/a
464.801	0.105	929602	keystroke_e	e	n/a
464.996	0.045	929992	keystroke_r	r	n/a
465.071	0.12	930142	keystroke_Key.space	Key.space	n/a
465.281	0.105	930562	keystroke_u	u	n/a
465.371	0.06	930742	keystroke_t	t	n/a
465.581	0.075	931162	keystroke_a	a	n/a
465.686	0.075	931372	keystroke_h	h	n/a
466.016	0.12	932032	keystroke_Key.space	Key.space	n/a
466.256	0.105	932512	keystroke_u	u	n/a
466.346	0.075	932692	keystroke_s	s	n/a
466.511	0.075	933022	keystroke_e	e	n/a
466.706	0.09	933412	keystroke_d	d	n/a
466.901	0.105	933802	keystroke_Key.space	Key.space	n/a
467.126	0.105	934252	keystroke_l	l	n/a
467.411	0.075	934822	keystroke_o	o	n/a
467.696	0.075	935392	keystroke_e	e	n/a
467.906	0.06	935812	keystroke_a	a	n/a
468.176	0.03	936352	keystroke_\	\	n/a
468.356	0.03	936712	keystroke_Key.backspace	Key.backspace	n/a
468.491	0.045	936982	keystroke_Key.backspace	Key.backspace	n/a
468.641	0.075	937282	keystroke_Key.backspace	Key.backspace	n/a
468.791	0.09	937582	keystroke_Key.backspace	Key.backspace	n/a
469.031	0.075	938062	keystroke_e	e	n/a
469.211	0.06	938422	keystroke_a	a	n/a
469.391	0.18	938782	keystroke_d	d	n/a
469.511	0.135	939022	keystroke_s	s	n/a
470.291	0.105	940582	keystroke_Key.enter	Key.enter	n/a
470.4035	7.8845	940807	prompt	n/a	continuity missouri abuse msgid\n
471.086	0.09	942172	keystroke_c	c	n/a
471.251	0.18	942502	keystroke_o	o	n/a
471.416	0.105	942832	keystroke_n	n	n/a
471.731	0.09	943462	keystroke_t	t	n/a
471.986	0.165	943972	keystroke_i	i	n/a
472.436	0.135	944872	keystroke_n	n	n/a
472.796	0.075	945592	keystroke_u	u	n/a
473.051	0.09	946102	keystroke_i	i	n/a
473.201	0.12	946402	keystroke_t	t	n/a
473.381	0.075	946762	keystroke_y	y	n/a
473.516	0.075	947032	keystroke_Key.space	Key.space	n/a
473.711	0.09	947422	keystroke_m	m	n/a
473.846	0.075	947692	keystroke_i	i	n/a
473.951	0.03	947902	keystroke_s	s	n/a
474.071	0.06	948142	keystroke_s	s	n/a
474.161	0.105	948322	keystroke_o	o	n/a
474.431	0.075	948862	keystroke_u	u	n/a
474.581	0.06	949162	keystroke_r	r	n/a
474.671	0.105	949342	keystroke_i	i	n/a
474.911	0.09	949822	keystroke_Key.space	Key.space	n/a
475.046	0.075	950092	keystroke_a	a	n/a
475.136	0.09	950272	keystroke_b	b	n/a
475.256	0.105	950512	keystroke_u	u	n/a
475.331	0.09	950662	keystroke_s	s	n/a
475.586	0.075	951172	keystroke_e	e	n/a
475.751	0.135	951502	keystroke_Key.space	Key.space	n/a
476.111	0.09	952222	keystroke_m	m	n/a
