onset	duration	sample	value	key	prompt_text
4.5355	7.202	9071	prompt	n/a	the quick brown fox jumps over a lazy dog\n
5.688	0.027	11376	keystroke_t	t	n/a
5.689	0.086	11378	keystroke_h	h	n/a
5.97	0.09	11940	keystroke_e	e	n/a
6.045	0.105	12090	keystroke_Key.space	Key.space	n/a
6.213	0.135	12426	keystroke_q	q	n/a
6.363	0.06	12726	keystroke_u	u	n/a
6.528	0.105	13056	keystroke_i	i	n/a
6.618	0.12	13236	keystroke_c	c	n/a
6.753	0.105	13506	keystroke_k	k	n/a
6.888	0.075	13776	keystroke_Key.space	Key.space	n/a
7.083	0.09	14166	keystroke_b	b	n/a
7.203	0.09	14406	keystroke_r	r	n/a
7.323	0.135	14646	keystroke_o	o	n/a
7.473	0.12	14946	keystroke_w	w	n/a
7.608	0.075	15216	keystroke_n	n	n/a
7.788	0.075	15576	keystroke_Key.space	Key.space	n/a
7.878	0.09	15756	keystroke_f	f	n/a
7.983	0.105	15966	keystroke_o	o	n/a
8.163	0.135	16326	keystroke_x	x	n/a
8.328	0.075	16656	keystroke_Key.space	Key.space	n/a
8.448	0.09	16896	keystroke_j	j	n/a
8.643	0.075	17286	keystroke_u	u	n/a
8.839	0.09	17678	keystroke_m	m	n/a
8.989	0.075	17978	keystroke_p	p	n/a
9.094	0.105	18188	keystroke_s	s	n/a
9.2885	0.045	18577	keystroke_Key.space	Key.space	n/a
9.4085	0.075	18817	keystroke_o	o	n/a
9.4685	0.105	18937	keystroke_v	v	n/a
9.6345	0.089	19269	keystroke_e	e	n/a
9.8135	0.091	19627	keystroke_r	r	n/a
9.9485	0.075	19897	keystroke_Key.space	Key.space	n/a
10.2785	0.121	20557	keystroke_a	a	n/a
10.4435	0.045	20887	keystroke_Key.space	Key.space	n/a
10.6235	0.06	21247	keystroke_l	l	n/a
10.6385	0.09	21277	keystroke_a	a	n/a
10.8185	0.12	21637	keystroke_z	z	n/a
10.9235	0.105	21847	keystroke_y	y	n/a
11.1335	0.105	22267	keystroke_Key.space	Key.space	n/a
11.2535	0.105	22507	keystroke_d	d	n/a
11.3435	0.09	22687	keystroke_o	o	n/a
11.4645	0.12	22929	keystroke_g	g	n/a
11.6435	0.09	23287	keystroke_Key.enter	Key.enter	n/a
11.745	4.3415	23490	prompt	n/a	drums whole promotes seal\n
12.514	0.105	25028	keystroke_d	d	n/a
12.694	0.105	25388	keystroke_r	r	n/a
12.784	0.09	25568	keystroke_u	u	n/a
12.994	0.09	25988	keystroke_m	m	n/a
13.144	0.105	26288	keystroke_s	s	n/a
13.294	0.09	26588	keystroke_Key.space	Key.space	n/a
13.399	0.105	26798	keystroke_w	w	n/a
13.505	0.089	27010	keystroke_h	h	n/a
13.744	0.06	27488	keystroke_o	o	n/a
13.9095	0.105	27819	keystroke_l	l	n/a
14.0285	0.09	28057	keystroke_e	e	n/a
14.1335	0.06	28267	keystroke_Key.space	Key.space	n/a
14.3135	0.075	28627	keystroke_p	p	n/a
14.4035	0.075	28807	keystroke_r	r	n/a
14.509	0.135	29018	keystroke_o	o	n/a
14.659	0.09	29318	keystroke_m	m	n/a
14.764	0.09	29528	keystroke_o	o	n/a
14.869	0.15	29738	keystroke_t	t	n/a
15.019	0.105	30038	keystroke_e	e	n/a
15.214	0.09	30428	keystroke_s	s	n/a
15.319	0.09	30638	keystroke_Key.space	Key.space	n/a
15.379	0.09	30758	keystroke_s	s	n/a
15.574	0.06	31148	keystroke_e	e	n/a
15.754	0.09	31508	keystroke_a	a	n/a
15.829	0.0595	31658	keystroke_l	l	n/a
15.9935	0.0905	31987	keystroke_Key.enter	Key.enter	n/a
16.092	6.114	32184	prompt	n/a	through solutions holes instrument\n
16.774	0.09	33548	keystroke_t	t	n/a
17.299	0.075	34598	keystroke_h	h	n/a
17.419	0.12	34838	keystroke_r	r	n/a
17.554	0.12	35108	keystroke_o	o	n/a
17.779	0.09	35558	keystroke_u	u	n/a
17.854	0.09	35708	keystroke_g	g	n/a
17.989	0.09	35978	keystroke_h	h	n/a
18.124	0.105	36248	keystroke_Key.space	Key.space	n/a
18.274	0.09	36548	keystroke_s	s	n/a
18.349	0.075	36698	keystroke_o	o	n/a
18.559	0.135	37118	keystroke_l	l	n/a
18.874	0.105	37748	keystroke_u	u	n/a
18.994	0.12	37988	keystroke_t	t	n/a
19.129	0.06	38258	keystroke_i	i	n/a
19.264	0.165	38528	keystroke_o	o	n/a
19.3695	0.0895	38739	keystroke_n	n	n/a
19.489	0.1055	38978	keystroke_s	s	n/a
19.6095	0.089	39219	keystroke_Key.space	Key.space	n/a
19.7745	0.075	39549	keystroke_h	h	n/a
19.9845	0.075	39969	keystroke_o	o	n/a
20.1645	0.104	40329	keystroke_l	l	n/a
20.2385	0.091	40477	keystroke_e	e	n/a
20.4335	0.06	40867	keystroke_s	s	n/a
20.5235	0.075	41047	keystroke_Key.space	Key.space	n/a
20.7045	0.135	41409	keystroke_i	i	n/a
20.7635	0.165	41527	keystroke_n	n	n/a
20.8545	0.164	41709	keystroke_s	s	n/a
21.1385	0.15	42277	keystroke_t	t	n/a
21.2295	0.09	42459	keystroke_r	r	n/a
21.3345	0.09	42669	keystroke_u	u	n/a
21.5885	0.106	43177	keystroke_m	m	n/a
21.7235	0.076	43447	keystroke_e	e	n/a
21.7685	0.105	43537	keystroke_n	n	n/a
21.9185	0.1055	43837	keystroke_t	t	n/a
22.129	0.075	44258	keystroke_Key.enter	Key.enter	n/a
22.21	5.6365	44420	prompt	n/a	recommends walker hosted concert\n
22.969	0.12	45938	keystroke_r	r	n/a
23.074	0.12	46148	keystroke_e	e	n/a
23.314	0.075	46628	keystroke_c	c	n/a
23.404	0.09	46808	keystroke_o	o	n/a
23.644	0.03	47288	keystroke_m	m	n/a
23.749	0.09	47498	keystroke_m	m	n/a
23.869	0.105	47738	keystroke_e	e	n/a
23.944	0.105	47888	keystroke_n	n	n/a
24.064	0.135	48128	keystroke_d	d	n/a
24.154	0.09	48308	keystroke_s	s	n/a
24.274	0.105	48548	keystroke_Key.space	Key.space	n/a
24.394	0.09	48788	keystroke_w	w	n/a
24.574	0.105	49148	keystroke_a	a	n/a
24.694	0.075	49388	keystroke_l	l	n/a
25.099	0.09	50198	keystroke_k	k	n/a
25.159	0.105	50318	keystroke_e	e	n/a
25.324	0.09	50648	keystroke_r	r	n/a
25.504	0.075	51008	keystroke_Key.space	Key.space	n/a
25.7435	0.061	51487	keystroke_h	h	n/a
25.9245	0.089	51849	keystroke_o	o	n/a
25.9685	0.106	51937	keystroke_s	s	n/a
26.2085	0.106	52417	keystroke_t	t	n/a
26.2545	0.105	52509	keystroke_e	e	n/a
26.4635	0.106	52927	keystroke_d	d	n/a
26.5695	0.09	53139	keystroke_Key.space	Key.space	n/a
26.7185	0.106	53437	keystroke_c	c	n/a
26.8085	0.136	53617	keystroke_o	o	n/a
26.8995	0.119	53799	keystroke_n	n	n/a
26.9295	0.075	53859	keystroke_c	c	n/a
27.1095	0.105	54219	keystroke_e	e	n/a
27.3045	0.09	54609	keystroke_r	r	n/a
27.4845	0.06	54969	keystroke_t	t	n/a
27.7545	0.09	55509	keystroke_Key.enter	Key.enter	n/a
27.851	6.8345	55702	prompt	n/a	finished knee democratic which's\n
28.4885	0.091	56977	keystroke_f	f	n/a
28.5945	0.12	57189	keystroke_i	i	n/a
28.7445	0.0745	57489	keystroke_n	n	n/a
28.834	0.104	57668	keystroke_i	i	n/a
28.924	0.0905	57848	keystroke_s	s	n/a
29.044	0.12	58088	keystroke_h	h	n/a
29.149	0.075	58298	keystroke_e	e	n/a
29.329	0.0605	58658	keystroke_d	d	n/a
29.614	0.105	59228	keystroke_Key.space	Key.space	n/a
29.8695	0.0895	59739	keystroke_k	k	n/a
30.004	0.0905	60008	keystroke_n	n	n/a
30.154	0.0895	60308	keystroke_e	e	n/a
30.2895	0.0895	60579	keystroke_e	e	n/a
30.8145	0.0745	61629	keystroke_d	d	n/a
30.9495	0.0595	61899	keystroke_Key.space	Key.space	n/a
31.2645	0.0445	62529	keystroke_Key.backspace	Key.backspace	n/a
31.3995	0.0285	62799	keystroke_Key.backspace	Key.backspace	n/a
31.6245	0.105	63249	keystroke_Key.space	Key.space	n/a
31.7145	0.075	63429	keystroke_d	d	n/a
31.8345	0.075	63669	keystroke_e	e	n/a
31.8945	0.09	63789	keystroke_m	m	n/a
32.0445	0.075	64089	keystroke_o	o	n/a
32.1645	0.0595	64329	keystroke_c	c	n/a
32.3145	0.075	64629	keystroke_r	r	n/a
32.509	0.1055	65018	keystroke_a	a	n/a
32.7195	0.0595	65439	keystroke_t	t	n/a
32.824	0.105	65648	keystroke_i	i	n/a
33.004	0.09	66008	keystroke_c	c	n/a
33.1385	0.0895	66277	keystroke_Key.space	Key.space	n/a
33.319	0.0755	66638	keystroke_w	w	n/a
33.439	0.09	66878	keystroke_h	h	n/a
33.634	0.075	67268	keystroke_i	i	n/a
33.724	0.075	67448	keystroke_c	c	n/a
33.829	0.105	67658	keystroke_h	h	n/a
34.369	0.06	68738	keystroke_'	'	n/a
34.444	0.105	68888	keystroke_s	s	n/a
34.579	0.105	69158	keystroke_Key.enter	Key.enter	n/a
34.691	6.806	69382	prompt	n/a	suitable virginia yours overcome\n
35.269	0.1205	70538	keystroke_s	s	n/a
35.374	0.075	70748	keystroke_u	u	n/a
35.524	0.09	71048	keystroke_i	i	n/a
35.599	0.06	71198	keystroke_t	t	n/a
35.8695	0.0745	71739	keystroke_b	b	n/a
36.274	0.045	72548	keystroke_Key.backspace	Key.backspace	n/a
36.408	0.06	72816	keystroke_a	a	n/a
37.369	0.075	74738	keystroke_b	b	n/a
37.579	0.09	75158	keystroke_l	l	n/a
37.699	0.09	75398	keystroke_e	e	n/a
37.834	0.09	75668	keystroke_Key.space	Key.space	n/a
37.984	0.09	75968	keystroke_v	v	n/a
38.075	0.074	76150	keystroke_i	i	n/a
38.164	0.075	76328	keystroke_r	r	n/a
38.254	0.105	76508	keystroke_i	i	n/a
38.299	0.075	76598	keystroke_g	g	n/a
38.419	0.09	76838	keystroke_n	n	n/a
38.554	0.09	77108	keystroke_i	i	n/a
38.704	0.105	77408	keystroke_a	a	n/a
38.854	0.09	77708	keystroke_Key.space	Key.space	n/a
39.094	0.075	78188	keystroke_y	y	n/a
39.184	0.075	78368	keystroke_o	o	n/a
39.364	0.09	78728	keystroke_u	u	n/a
39.439	0.075	78878	keystroke_r	r	n/a
39.634	0.09	79268	keystroke_s	s	n/a
39.739	0.06	79478	keystroke_Key.space	Key.space	n/a
39.949	0.075	79898	keystroke_o	o	n/a
40.234	0.105	80468	keystroke_v	v	n/a
40.384	0.09	80768	keystroke_e	e	n/a
40.564	0.075	81128	keystroke_r	r	n/a
40.819	0.075	81638	keystroke_c	c	n/a
40.969	0.15	81938	keystroke_o	o	n/a
41.104	0.105	82208	keystroke_m	m	n/a
41.194	0.105	82388	keystroke_e	e	n/a
41.434	0.06	82868	keystroke_Key.enter	Key.enter	n/a
41.501	7.375	83002	prompt	n/a	gentleman expect notre marking\n
42.124	0.075	84248	keystroke_g	g	n/a
42.304	0.075	84608	keystroke_e	e	n/a
42.394	0.075	84788	keystroke_n	n	n/a
42.529	0.075	85058	keystroke_t	t	n/a
42.649	0.09	85298	keystroke_l	l	n/a
42.754	0.075	85508	keystroke_e	e	n/a
42.994	0.075	85988	keystroke_m	m	n/a
43.144	0.09	86288	keystroke_a	a	n/a
43.234	0.09	86468	keystroke_n	n	n/a
43.414	0.075	86828	keystroke_Key.space	Key.space	n/a
43.429	0.045	86858	keystroke_e	e	n/a
43.609	0.12	87218	keystroke_x	x	n/a
43.744	0.09	87488	keystroke_p	p	n/a
43.849	0.09	87698	keystroke_e	e	n/a
44.074	0.12	88148	keystroke_c	c	n/a
44.284	0.09	88568	keystroke_t	t	n/a
44.404	0.06	88808	keystroke_Key.space	Key.space	n/a
44.584	0.075	89168	keystroke_n	n	n/a
44.689	0.09	89378	keystroke_o	o	n/a
44.809	0.045	89618	keystroke_t	t	n/a
45.004	0.135	90008	keystroke_r	r	n/a
45.094	0.12	90188	keystroke_e	e	n/a
45.259	0.075	90518	keystroke_Key.space	Key.space	n/a
45.454	0.075	90908	keystroke_m	m	n/a
45.544	0.105	91088	keystroke_a	a	n/a
45.784	0.06	91568	keystroke_r	r	n/a
45.934	0.045	91868	keystroke_k	k	n/a
46.099	0.12	92198	keystroke_i	i	n/a
46.219	0.12	92438	keystroke_n	n	n/a
46.324	0.105	92648	keystroke_g	g	n/a
47.659	0.075	95318	keystroke_'	'	n/a
48.229	0.075	96458	keystroke_Key.backspace	Key.backspace	n/a
48.784	0.09	97568	keystroke_Key.enter	Key.enter	n/a
48.8835	7.192	97767	prompt	n/a	fossil fragrances stephanie tribunal\n
49.609	0.105	99218	keystroke_f	f	n/a
49.715	0.089	99430	keystroke_o	o	n/a
49.864	0.045	99728	keystroke_s	s	n/a
49.984	0.105	99968	keystroke_s	s	n/a
50.074	0.09	100148	keystroke_i	i	n/a
50.284	0.075	100568	keystroke_l	l	n/a
50.449	0.105	100898	keystroke_Key.space	Key.space	n/a
50.509	0.09	101018	keystroke_f	f	n/a
50.674	0.075	101348	keystroke_r	r	n/a
50.869	0.105	101738	keystroke_a	a	n/a
51.064	0.09	102128	keystroke_g	g	n/a
51.469	0.09	102938	keystroke_a	a	n/a
51.754	0.075	103508	keystroke_n	n	n/a
52.129	0.045	104258	keystroke_Key.backspace	Key.backspace	n/a
52.249	0.075	104498	keystroke_Key.backspace	Key.backspace	n/a
52.534	0.075	105068	keystroke_r	r	n/a
52.744	0.075	105488	keystroke_a	a	n/a
52.834	0.075	105668	keystroke_n	n	n/a
52.969	0.09	105938	keystroke_c	c	n/a
53.134	0.075	106268	keystroke_e	e	n/a
53.314	0.06	106628	keystroke_s	s	n/a
53.389	0.12	106778	keystroke_Key.space	Key.space	n/a
53.464	0.075	106928	keystroke_s	s	n/a
53.659	0.105	107318	keystroke_t	t	n/a
53.734	0.12	107468	keystroke_e	e	n/a
53.839	0.075	107678	keystroke_p	p	n/a
53.959	0.045	107918	keystroke_h	h	n/a
54.139	0.105	108278	keystroke_a	a	n/a
54.229	0.06	108458	keystroke_n	n	n/a
54.349	0.105	108698	keystroke_i	i	n/a
54.454	0.12	108908	keystroke_e	e	n/a
54.589	0.105	109178	keystroke_Key.space	Key.space	n/a
54.739	0.105	109478	keystroke_t	t	n/a
54.829	0.105	109658	keystroke_r	r	n/a
54.874	0.135	109748	keystroke_i	i	n/a
55.054	0.09	110108	keystroke_b	b	n/a
55.204	0.105	110408	keystroke_u	u	n/a
55.399	0.09	110798	keystroke_n	n	n/a
55.474	0.12	110948	keystroke_a	a	n/a
55.609	0.09	111218	keystroke_l	l	n/a
55.984	0.09	111968	keystroke_Key.enter	Key.enter	n/a
56.079	5.0665	112158	prompt	n/a	sign oklahoma unique mail\n
56.749	0.105	113498	keystroke_s	s	n/a
56.839	0.12	113678	keystroke_i	i	n/a
56.944	0.06	113888	keystroke_g	g	n/a
57.049	0.075	114098	keystroke_n	n	n/a
57.274	0.045	114548	keystroke_Key.space	Key.space	n/a
57.619	0.06	115238	keystroke_o	o	n/a
57.844	0.06	115688	keystroke_k	k	n/a
58.024	0.06	116048	keystroke_l	l	n/a
58.189	0.09	116378	keystroke_a	a	n/a
58.309	0.075	116618	keystroke_h	h	n/a
58.534	0.105	117068	keystroke_o	o	n/a
58.714	0.09	117428	keystroke_m	m	n/a
58.819	0.075	117638	keystroke_a	a	n/a
58.924	0.105	117848	keystroke_Key.space	Key.space	n/a
59.164	0.09	118328	keystroke_u	u	n/a
59.314	0.105	118628	keystroke_n	n	n/a
59.434	0.09	118868	keystroke_i	i	n/a
59.584	0.075	119168	keystroke_q	q	n/a
59.689	0.09	119378	keystroke_u	u	n/a
59.839	0.09	119678	keystroke_e	e	n/a
59.989	0.09	119978	keystroke_Key.space	Key.space	n/a
60.259	0.075	120518	keystroke_m	m	n/a
60.349	0.06	120698	keystroke_a	a	n/a
60.679	0.075	121358	keystroke_i	i	n/a
60.874	0.06	121748	keystroke_l	l	n/a
61.084	0.06	122168	keystroke_Key.enter	Key.enter	n/a
61.1515	5.394	122303	prompt	n/a	doctrine ethical zones overhead\n
61.924	0.075	123848	keystroke_d	d	n/a
62.014	0.09	124028	keystroke_o	o	n/a
62.119	0.105	124238	keystroke_c	c	n/a
62.374	0.075	124748	keystroke_t	t	n/a
62.509	0.18	125018	keystroke_i	i	n/a
62.539	0.06	125078	keystroke_r	r	n/a
62.674	0.105	125348	keystroke_n	n	n/a
62.794	0.075	125588	keystroke_e	e	n/a
62.899	0.105	125798	keystroke_Key.space	Key.space	n/a
62.974	0.075	125948	keystroke_e	e	n/a
63.169	0.075	126338	keystroke_t	t	n/a
63.244	0.06	126488	keystroke_h	h	n/a
63.409	0.09	126818	keystroke_i	i	n/a
63.514	0.06	127028	keystroke_c	c	n/a
63.619	0.105	127238	keystroke_a	a	n/a
63.709	0.075	127418	keystroke_l	l	n/a
63.904	0.075	127808	keystroke_Key.space	Key.space	n/a
64.519	0.045	129038	keystroke_z	z	n/a
64.579	0.15	129158	keystroke_o	o	n/a
64.684	0.12	129368	keystroke_n	n	n/a
64.819	0.09	129638	keystroke_e	e	n/a
64.999	0.105	129998	keystroke_s	s	n/a
65.074	0.09	130148	keystroke_Key.space	Key.space	n/a
65.284	0.075	130568	keystroke_o	o	n/a
65.404	0.105	130808	keystroke_v	v	n/a
65.584	0.09	131168	keystroke_e	e	n/a
65.734	0.075	131468	keystroke_r	r	n/a
65.839	0.09	131678	keystroke_h	h	n/a
65.944	0.06	131888	keystroke_e	e	n/a
66.124	0.09	132248	keystroke_a	a	n/a
66.259	0.12	132518	keystroke_d	d	n/a
66.454	0.09	132908	keystroke_Key.enter	Key.enter	n/a
66.549	4.8425	133098	prompt	n/a	blend vice lancaster operation\n
67.324	0.09	134648	keystroke_b	b	n/a
67.429	0.075	134858	keystroke_l	l	n/a
67.534	0.09	135068	keystroke_e	e	n/a
67.669	0.09	135338	keystroke_n	n	n/a
67.789	0.09	135578	keystroke_d	d	n/a
67.894	0.105	135788	keystroke_Key.space	Key.space	n/a
68.089	0.06	136178	keystroke_v	v	n/a
68.194	0.075	136388	keystroke_i	i	n/a
68.299	0.105	136598	keystroke_c	c	n/a
68.449	0.105	136898	keystroke_e	e	n/a
68.539	0.075	137078	keystroke_Key.space	Key.space	n/a
68.719	0.075	137438	keystroke_l	l	n/a
68.779	0.09	137558	keystroke_a	a	n/a
68.884	0.105	137768	keystroke_n	n	n/a
69.004	0.045	138008	keystroke_c	c	n/a
69.079	0.105	138158	keystroke_a	a	n/a
69.274	0.105	138548	keystroke_s	s	n/a
69.499	0.09	138998	keystroke_t	t	n/a
69.604	0.105	139208	keystroke_e	e	n/a
69.769	0.075	139538	keystroke_r	r	n/a
69.889	0.09	139778	keystroke_Key.space	Key.space	n/a
70.114	0.075	140228	keystroke_o	o	n/a
70.264	0.075	140528	keystroke_p	p	n/a
70.324	0.105	140648	keystroke_e	e	n/a
70.459	0.09	140918	keystroke_r	r	n/a
70.624	0.075	141248	keystroke_a	a	n/a
70.789	0.09	141578	keystroke_t	t	n/a
70.849	0.075	141698	keystroke_i	i	n/a
70.999	0.135	141998	keystroke_o	o	n/a
71.104	0.09	142208	keystroke_n	n	n/a
71.314	0.075	142628	keystroke_Key.enter	Key.enter	n/a
71.3965	6.8645	142793	prompt	n/a	merchandise snap calculator guitars\n
72.004	0.165	144008	keystroke_m	m	n/a
72.274	0.105	144548	keystroke_e	e	n/a
72.424	0.09	144848	keystroke_r	r	n/a
72.664	0.06	145328	keystroke_c	c	n/a
72.739	0.105	145478	keystroke_h	h	n/a
72.829	0.075	145658	keystroke_a	a	n/a
72.889	0.12	145778	keystroke_n	n	n/a
73.114	0.09	146228	keystroke_d	d	n/a
73.249	0.09	146498	keystroke_i	i	n/a
73.324	0.09	146648	keystroke_s	s	n/a
73.489	0.06	146978	keystroke_e	e	n/a
73.609	0.06	147218	keystroke_Key.space	Key.space	n/a
73.684	0.075	147368	keystroke_s	s	n/a
73.834	0.09	147668	keystroke_n	n	n/a
73.954	0.09	147908	keystroke_a	a	n/a
74.059	0.075	148118	keystroke_p	p	n/a
74.254	0.09	148508	keystroke_Key.space	Key.space	n/a
74.345	0.059	148690	keystroke_c	c	n/a
74.449	0.105	148898	keystroke_a	a	n/a
74.539	0.09	149078	keystroke_l	l	n/a
74.689	0.075	149378	keystroke_c	c	n/a
74.854	0.075	149708	keystroke_u	u	n/a
75.694	0.075	151388	keystroke_l	l	n/a
75.889	0.075	151778	keystroke_a	a	n/a
76.144	0.06	152288	keystroke_t	t	n/a
76.219	0.075	152438	keystroke_o	o	n/a
76.309	0.09	152618	keystroke_r	r	n/a
76.489	0.06	152978	keystroke_Key.space	Key.space	n/a
76.594	0.075	153188	keystroke_g	g	n/a
76.699	0.075	153398	keystroke_u	u	n/a
76.849	0.09	153698	keystroke_i	i	n/a
76.94	0.074	153880	keystroke_t	t	n/a
77.509	0.09	155018	keystroke_a	a	n/a
77.839	0.06	155678	keystroke_r	r	n/a
78.004	0.09	156008	keystroke_s	s	n/a
78.184	0.075	156368	keystroke_Key.enter	Key.enter	n/a
78.266	6.31	156532	prompt	n/a	destiny injection soup smoking\n
79.009	0.105	158018	keystroke_d	d	n/a
79.174	0.075	158348	keystroke_e	e	n/a
79.354	0.075	158708	keystroke_s	s	n/a
79.564	0.105	159128	keystroke_t	t	n/a
79.714	0.15	159428	keystroke_i	i	n/a
79.819	0.12	159638	keystroke_n	n	n/a
79.894	0.06	159788	keystroke_y	y	n/a
80.059	0.105	160118	keystroke_Key.space	Key.space	n/a
80.284	0.09	160568	keystroke_i	i	n/a
80.375	0.119	160750	keystroke_n	n	n/a
80.524	0.105	161048	keystroke_j	j	n/a
80.734	0.06	161468	keystroke_f	f	n/a
81.364	0.06	162728	keystroke_Key.backspace	Key.backspace	n/a
81.454	0.09	162908	keystroke_e	e	n/a
81.679	0.105	163358	keystroke_c	c	n/a
81.919	0.105	163838	keystroke_t	t	n/a
81.979	0.075	163958	keystroke_i	i	n/a
82.114	0.165	164228	keystroke_o	o	n/a
82.234	0.075	164468	keystroke_n	n	n/a
82.429	0.075	164858	keystroke_Key.space	Key.space	n/a
82.549	0.12	165098	keystroke_s	s	n/a
82.624	0.075	165248	keystroke_o	o	n/a
82.819	0.06	165638	keystroke_u	u	n/a
83.044	0.075	166088	keystroke_p	p	n/a
83.299	0.045	166598	keystroke_Key.space	Key.space	n/a
83.494	0.105	166988	keystroke_s	s	n/a
83.584	0.06	167168	keystroke_m	m	n/a
83.704	0.18	167408	keystroke_o	o	n/a
83.869	0.09	167738	keystroke_k	k	n/a
84.064	0.105	168128	keystroke_i	i	n/a
84.124	0.135	168248	keystroke_n	n	n/a
84.214	0.09	168428	keystroke_g	g	n/a
84.454	0.12	168908	keystroke_Key.enter	Key.enter	n/a
84.581	5.425	169162	prompt	n/a	addiction mandatory place cream\n
85.174	0.105	170348	keystroke_a	a	n/a
85.429	0.06	170858	keystroke_d	d	n/a
85.564	0.075	171128	keystroke_d	d	n/a
85.684	0.075	171368	keystroke_i	i	n/a
85.774	0.105	171548	keystroke_c	c	n/a
85.969	0.09	171938	keystroke_t	t	n/a
86.029	0.06	172058	keystroke_i	i	n/a
86.194	0.12	172388	keystroke_o	o	n/a
86.269	0.09	172538	keystroke_n	n	n/a
86.449	0.09	172898	keystroke_Key.space	Key.space	n/a
86.659	0.075	173318	keystroke_m	m	n/a
86.749	0.06	173498	keystroke_a	a	n/a
86.824	0.09	173648	keystroke_n	n	n/a
86.899	0.075	173798	keystroke_d	d	n/a
87.004	0.075	174008	keystroke_a	a	n/a
87.229	0.075	174458	keystroke_t	t	n/a
87.334	0.09	174668	keystroke_o	o	n/a
87.394	0.09	174788	keystroke_r	r	n/a
87.559	0.075	175118	keystroke_y	y	n/a
87.709	0.09	175418	keystroke_Key.space	Key.space	n/a
87.994	0.165	175988	keystroke_p	p	n/a
88.144	0.09	176288	keystroke_l	l	n/a
88.204	0.105	176408	keystroke_a	a	n/a
88.384	0.12	176768	keystroke_c	c	n/a
88.564	0.09	177128	keystroke_e	e	n/a
88.849	0.09	177698	keystroke_Key.space	Key.space	n/a
88.924	0.09	177848	keystroke_c	c	n/a
89.179	0.135	178358	keystroke_r	r	n/a
89.329	0.105	178658	keystroke_e	e	n/a
89.569	0.105	179138	keystroke_a	a	n/a
89.704	0.09	179408	keystroke_m	m	n/a
89.929	0.075	179858	keystroke_Key.enter	Key.enter	n/a
90.0115	6.535	180023	prompt	n/a	where've behind pizza journals\n
90.574	0.105	181148	keystroke_w	w	n/a
90.709	0.09	181418	keystroke_h	h	n/a
90.889	0.12	181778	keystroke_e	e	n/a
92.089	0.105	184178	keystroke_r	r	n/a
92.719	0.105	185438	keystroke_e	e	n/a
92.854	0.09	185708	keystroke_'	'	n/a
93.019	0.105	186038	keystroke_v	v	n/a
93.154	0.09	186308	keystroke_e	e	n/a
93.319	0.09	186638	keystroke_Key.space	Key.space	n/a
93.544	0.105	187088	keystroke_b	b	n/a
93.664	0.06	187328	keystroke_e	e	n/a
93.709	0.12	187418	keystroke_h	h	n/a
93.934	0.15	187868	keystroke_i	i	n/a
94.069	0.09	188138	keystroke_n	n	n/a
94.204	0.12	188408	keystroke_d	d	n/a
94.384	0.075	188768	keystroke_Key.space	Key.space	n/a
94.594	0.105	189188	keystroke_p	p	n/a
94.834	0.075	189668	keystroke_i	i	n/a
94.894	0.09	189788	keystroke_z	z	n/a
95.059	0.06	190118	keystroke_z	z	n/a
95.149	0.105	190298	keystroke_a	a	n/a
95.269	0.075	190538	keystroke_Key.space	Key.space	n/a
95.404	0.06	190808	keystroke_j	j	n/a
95.599	0.09	191198	keystroke_o	o	n/a
95.794	0.075	191588	keystroke_u	u	n/a
95.884	0.105	191768	keystroke_r	r	n/a
96.004	0.09	192008	keystroke_n	n	n/a
96.139	0.075	192278	keystroke_a	a	n/a
96.244	0.03	192488	keystroke_l	l	n/a
96.319	0.09	192638	keystroke_s	s	n/a
96.454	0.09	192908	keystroke_Key.enter	Key.enter	n/a
96.5515	4.599	193103	prompt	n/a	moved surprised revealed gras\n
97.099	0.09	194198	keystroke_m	m	n/a
97.234	0.12	194468	keystroke_o	o	n/a
97.309	0.09	194618	keystroke_v	v	n/a
97.429	0.105	194858	keystroke_e	e	n/a
97.594	0.09	195188	keystroke_d	d	n/a
97.714	0.075	195428	keystroke_Key.space	Key.space	n/a
97.834	0.09	195668	keystroke_s	s	n/a
97.939	0.075	195878	keystroke_u	u	n/a
98.089	0.09	196178	keystroke_r	r	n/a
98.194	0.075	196388	keystroke_p	p	n/a
98.254	0.075	196508	keystroke_r	r	n/a
98.389	0.09	196778	keystroke_i	i	n/a
98.494	0.06	196988	keystroke_s	s	n/a
98.659	0.075	197318	keystroke_e	e	n/a
98.809	0.09	197618	keystroke_d	d	n/a
98.914	0.105	197828	keystroke_Key.space	Key.space	n/a
99.034	0.06	198068	keystroke_r	r	n/a
99.184	0.075	198368	keystroke_e	e	n/a
99.409	0.09	198818	keystroke_v	v	n/a
99.529	0.075	199058	keystroke_e	e	n/a
99.709	0.075	199418	keystroke_a	a	n/a
99.799	0.075	199598	keystroke_l	l	n/a
99.904	0.075	199808	keystroke_e	e	n/a
100.084	0.09	200168	keystroke_d	d	n/a
100.219	0.12	200438	keystroke_Key.space	Key.space	n/a
100.369	0.15	200738	keystroke_g	g	n/a
100.474	0.09	200948	keystroke_r	r	n/a
100.714	0.105	201428	keystroke_a	a	n/a
100.864	0.135	201728	keystroke_s	s	n/a
101.059	0.09	202118	keystroke_Key.enter	Key.enter	n/a
101.1555	5.111	202311	prompt	n/a	transfers designated threat forum\n
101.824	0.09	203648	keystroke_t	t	n/a
101.869	0.09	203738	keystroke_r	r	n/a
102.094	0.06	204188	keystroke_a	a	n/a
102.229	0.075	204458	keystroke_n	n	n/a
102.244	0.075	204488	keystroke_s	s	n/a
102.394	0.09	204788	keystroke_f	f	n/a
102.514	0.105	205028	keystroke_e	e	n/a
102.664	0.075	205328	keystroke_r	r	n/a
102.859	0.075	205718	keystroke_s	s	n/a
102.949	0.105	205898	keystroke_Key.space	Key.space	n/a
103.069	0.06	206138	keystroke_d	d	n/a
103.13	0.074	206260	keystroke_e	e	n/a
103.309	0.06	206618	keystroke_s	s	n/a
103.354	0.09	206708	keystroke_i	i	n/a
103.429	0.075	206858	keystroke_g	g	n/a
103.564	0.105	207128	keystroke_n	n	n/a
103.654	0.12	207308	keystroke_a	a	n/a
103.879	0.12	207758	keystroke_t	t	n/a
103.939	0.105	207878	keystroke_e	e	n/a
104.119	0.135	208238	keystroke_d	d	n/a
104.239	0.075	208478	keystroke_Key.space	Key.space	n/a
104.374	0.076	208748	keystroke_t	t	n/a
104.464	0.09	208928	keystroke_h	h	n/a
104.584	0.105	209168	keystroke_r	r	n/a
104.644	0.075	209288	keystroke_e	e	n/a
104.839	0.105	209678	keystroke_a	a	n/a
105.034	0.09	210068	keystroke_t	t	n/a
105.169	0.06	210338	keystroke_Key.space	Key.space	n/a
105.364	0.09	210728	keystroke_f	f	n/a
105.439	0.105	210878	keystroke_o	o	n/a
105.559	0.075	211118	keystroke_r	r	n/a
105.679	0.12	211358	keystroke_u	u	n/a
105.934	0.09	211868	keystroke_m	m	n/a
106.159	0.105	212318	keystroke_Key.enter	Key.enter	n/a
106.2715	9.7145	212543	prompt	n/a	hopkins identity namespace turkish\n
107.059	0.06	214118	keystroke_h	h	n/a
107.164	0.075	214328	keystroke_o	o	n/a
107.344	0.075	214688	keystroke_p	p	n/a
107.569	0.075	215138	keystroke_k	k	n/a
107.734	0.135	215468	keystroke_i	i	n/a
107.839	0.105	215678	keystroke_n	n	n/a
107.959	0.075	215918	keystroke_s	s	n/a
108.079	0.09	216158	keystroke_Key.space	Key.space	n/a
108.3035	0.1055	216607	keystroke_i	i	n/a
108.424	0.09	216848	keystroke_n	n	n/a
108.544	0.075	217088	keystroke_d	d	n/a
108.664	0.105	217328	keystroke_e	e	n/a
108.799	0.09	217598	keystroke_n	n	n/a
108.919	0.105	217838	keystroke_t	t	n/a
108.994	0.105	217988	keystroke_i	i	n/a
109.054	0.09	218108	keystroke_t	t	n/a
109.234	0.075	218468	keystroke_t	t	n/a
109.429	0.075	218858	keystroke_y	y	n/a
109.594	0.09	219188	keystroke_Key.space	Key.space	n/a
110.104	0.06	220208	keystroke_Key.backspace	Key.backspace	n/a
110.269	0.06	220538	keystroke_Key.backspace	Key.backspace	n/a
110.419	0.045	220838	keystroke_Key.backspace	Key.backspace	n/a
110.554	0.06	221108	keystroke_Key.backspace	Key.backspace	n/a
110.704	0.06	221408	keystroke_Key.backspace	Key.backspace	n/a
110.839	0.06	221678	keystroke_Key.backspace	Key.backspace	n/a
110.989	0.045	221978	keystroke_Key.backspace	Key.backspace	n/a
111.1385	0.045	222277	keystroke_Key.backspace	Key.backspace	n/a
111.349	0.06	222698	keystroke_Key.backspace	Key.backspace	n/a
111.694	0.09	223388	keystroke_Key.backspace	Key.backspace	n/a
112.069	0.075	224138	keystroke_d	d	n/a
112.204	0.105	224408	keystroke_e	e	n/a
112.324	0.0745	224648	keystroke_n	n	n/a
112.4285	0.075	224857	keystroke_t	t	n/a
112.519	0.075	225038	keystroke_i	i	n/a
112.579	0.075	225158	keystroke_t	t	n/a
113.119	0.075	226238	keystroke_y	y	n/a
113.2685	0.0755	226537	keystroke_Key.space	Key.space	n/a
113.4485	0.0755	226897	keystroke_n	n	n/a
113.7485	0.075	227497	keystroke_a	a	n/a
113.8535	0.09	227707	keystroke_m	m	n/a
114.0035	0.075	228007	keystroke_e	e	n/a
114.1835	0.045	228367	keystroke_s	s	n/a
114.2585	0.075	228517	keystroke_p	p	n/a
114.3485	0.06	228697	keystroke_a	a	n/a
114.5285	0.075	229057	keystroke_c	c	n/a
114.6635	0.105	229327	keystroke_e	e	n/a
114.7835	0.105	229567	keystroke_Key.space	Key.space	n/a
114.9035	0.075	229807	keystroke_t	t	n/a
115.009	0.0745	230018	keystroke_u	u	n/a
115.069	0.075	230138	keystroke_r	r	n/a
115.2335	0.075	230467	keystroke_k	k	n/a
115.4135	0.075	230827	keystroke_i	i	n/a
115.4735	0.09	230947	keystroke_s	s	n/a
115.5935	0.105	231187	keystroke_h	h	n/a
115.8785	0.105	231757	keystroke_Key.enter	Key.enter	n/a
115.9905	5.5305	231981	prompt	n/a	duration unlimited teachers meeting\n
116.689	0.0595	233378	keystroke_d	d	n/a
116.7935	0.06	233587	keystroke_u	u	n/a
116.8685	0.09	233737	keystroke_r	r	n/a
117.0785	0.09	234157	keystroke_a	a	n/a
117.2885	0.06	234577	keystroke_t	t	n/a
117.3335	0.075	234667	keystroke_i	i	n/a
117.4985	0.165	234997	keystroke_o	o	n/a
117.6185	0.09	235237	keystroke_n	n	n/a
117.8135	0.075	235627	keystroke_Key.space	Key.space	n/a
118.0235	0.105	236047	keystroke_u	u	n/a
118.1585	0.105	236317	keystroke_n	n	n/a
118.3685	0.09	236737	keystroke_l	l	n/a
118.5635	0.105	237127	keystroke_i	i	n/a
118.7435	0.09	237487	keystroke_m	m	n/a
118.8485	0.09	237697	keystroke_i	i	n/a
118.9395	0.119	237879	keystroke_t	t	n/a
119.0435	0.06	238087	keystroke_e	e	n/a
119.1935	0.09	238387	keystroke_d	d	n/a
119.2845	0.134	238569	keystroke_Key.space	Key.space	n/a
119.4335	0.105	238867	keystroke_t	t	n/a
119.5085	0.075	239017	keystroke_e	e	n/a
119.7035	0.075	239407	keystroke_a	a	n/a
119.8685	0.09	239737	keystroke_c	c	n/a
119.9735	0.105	239947	keystroke_h	h	n/a
120.0635	0.075	240127	keystroke_e	e	n/a
120.2285	0.06	240457	keystroke_r	r	n/a
120.3935	0.09	240787	keystroke_s	s	n/a
120.4845	0.059	240969	keystroke_Key.space	Key.space	n/a
120.6185	0.105	241237	keystroke_m	m	n/a
120.7535	0.045	241507	keystroke_e	e	n/a
120.8585	0.075	241717	keystroke_e	e	n/a
121.0235	0.09	242047	keystroke_t	t	n/a
121.0835	0.12	242167	keystroke_i	i	n/a
121.1735	0.105	242347	keystroke_n	n	n/a
121.2485	0.075	242497	keystroke_g	g	n/a
121.4435	0.075	242887	keystroke_Key.enter	Key.enter	n/a
121.5275	7.0275	243055	prompt	n/a	conclusions isle printers incentives\n
122.1335	0.18	244267	keystroke_c	c	n/a
122.3285	0.075	244657	keystroke_o	o	n/a
122.3885	0.0895	244777	keystroke_n	n	n/a
122.463	0.075	244926	keystroke_c	c	n/a
122.568	0.105	245136	keystroke_l	l	n/a
122.793	0.09	245586	keystroke_u	u	n/a
122.898	0.075	245796	keystroke_s	s	n/a
123.003	0.075	246006	keystroke_i	i	n/a
123.153	0.165	246306	keystroke_o	o	n/a
123.288	0.075	246576	keystroke_n	n	n/a
123.468	0.06	246936	keystroke_Key.space	Key.space	n/a
123.633	0.075	247266	keystroke_i	i	n/a
123.678	0.09	247356	keystroke_s	s	n/a
123.843	0.0895	247686	keystroke_l	l	n/a
124.068	0.075	248136	keystroke_e	e	n/a
124.173	0.09	248346	keystroke_Key.space	Key.space	n/a
124.383	0.075	248766	keystroke_p	p	n/a
124.488	0.09	248976	keystroke_r	r	n/a
124.593	0.15	249186	keystroke_i	i	n/a
124.713	0.12	249426	keystroke_n	n	n/a
124.758	0.06	249516	keystroke_t	t	n/a
124.923	0.075	249846	keystroke_e	e	n/a
125.088	0.06	250176	keystroke_r	r	n/a
125.268	0.06	250536	keystroke_s	s	n/a
125.358	0.075	250716	keystroke_Key.space	Key.space	n/a
125.538	0.12	251076	keystroke_i	i	n/a
125.613	0.105	251226	keystroke_n	n	n/a
125.673	0.06	251346	keystroke_c	c	n/a
125.793	0.105	251586	keystroke_e	e	n/a
125.823	0.12	251646	keystroke_n	n	n/a
126.123	0.075	252246	keystroke_t	t	n/a
126.243	0.075	252486	keystroke_i	i	n/a
126.528	0.0745	253056	keystroke_v	v	n/a
126.618	0.06	253236	keystroke_v	v	n/a
126.693	0.06	253386	keystroke_e	e	n/a
126.889	0.059	253778	keystroke_s	s	n/a
127.443	0.045	254886	keystroke_Key.backspace	Key.backspace	n/a
127.578	0.075	255156	keystroke_Key.backspace	Key.backspace	n/a
127.968	0.075	255936	keystroke_Key.backspace	Key.backspace	n/a
128.073	0.075	256146	keystroke_e	e	n/a
128.223	0.09	256446	keystroke_s	s	n/a
128.463	0.09	256926	keystroke_Key.enter	Key.enter	n/a
128.56	7.12	257120	prompt	n/a	johns treating examination butterfly\n
129.543	0.105	259086	keystroke_j	j	n/a
129.678	0.105	259356	keystroke_o	o	n/a
129.768	0.06	259536	keystroke_h	h	n/a
129.888	0.09	259776	keystroke_n	n	n/a
130.008	0.105	260016	keystroke_s	s	n/a
130.128	0.105	260256	keystroke_Key.space	Key.space	n/a
130.308	0.075	260616	keystroke_t	t	n/a
130.488	0.1195	260976	keystroke_r	r	n/a
130.593	0.075	261186	keystroke_e	e	n/a
130.803	0.075	261606	keystroke_a	a	n/a
130.968	0.09	261936	keystroke_t	t	n/a
131.043	0.1345	262086	keystroke_i	i	n/a
131.1475	0.105	262295	keystroke_n	n	n/a
131.268	0.045	262536	keystroke_g	g	n/a
131.418	0.12	262836	keystroke_Key.space	Key.space	n/a
131.523	0.0745	263046	keystroke_e	e	n/a
131.808	0.105	263616	keystroke_x	x	n/a
132.0925	0.06	264185	keystroke_m	m	n/a
132.4825	0.075	264965	keystroke_Key.backspace	Key.backspace	n/a
132.5725	0.075	265145	keystroke_a	a	n/a
132.7525	0.09	265505	keystroke_m	m	n/a
132.9475	0.1205	265895	keystroke_i	i	n/a
133.0225	0.105	266045	keystroke_n	n	n/a
133.1875	0.06	266375	keystroke_a	a	n/a
133.3675	0.075	266735	keystroke_t	t	n/a
133.4725	0.06	266945	keystroke_i	i	n/a
133.6225	0.105	267245	keystroke_o	o	n/a
133.6975	0.09	267395	keystroke_n	n	n/a
133.8475	0.105	267695	keystroke_Key.space	Key.space	n/a
134.0575	0.075	268115	keystroke_b	b	n/a
134.1775	0.09	268355	keystroke_u	u	n/a
134.3725	0.06	268745	keystroke_t	t	n/a
134.5225	0.045	269045	keystroke_t	t	n/a
134.7175	0.06	269435	keystroke_e	e	n/a
134.8675	0.045	269735	keystroke_r	r	n/a
135.0325	0.075	270065	keystroke_f	f	n/a
135.1525	0.09	270305	keystroke_l	l	n/a
135.2875	0.105	270575	keystroke_y	y	n/a
135.6025	0.075	271205	keystroke_Key.enter	Key.enter	n/a
135.6845	5.1585	271369	prompt	n/a	karl assessed mild fault\n
136.4425	0.09	272885	keystroke_k	k	n/a
136.6225	0.105	273245	keystroke_a	a	n/a
136.8775	0.105	273755	keystroke_r	r	n/a
136.9975	0.075	273995	keystroke_l	l	n/a
137.2675	0.015	274535	keystroke_Key.space	Key.space	n/a
137.2975	0.06	274595	keystroke_a	a	n/a
137.4625	0.06	274925	keystroke_s	s	n/a
137.6125	0.045	275225	keystroke_s	s	n/a
137.7775	0.075	275555	keystroke_e	e	n/a
137.9875	0.045	275975	keystroke_s	s	n/a
138.1075	0.075	276215	keystroke_s	s	n/a
138.3175	0.0595	276635	keystroke_e	e	n/a
138.476	0.054	276952	keystroke_d	d	n/a
138.59	0.0745	277180	keystroke_Key.space	Key.space	n/a
138.7545	0.106	277509	keystroke_m	m	n/a
138.9505	0.075	277901	keystroke_i	i	n/a
139.4005	0.075	278801	keystroke_l	l	n/a
139.5505	0.075	279101	keystroke_d	d	n/a
139.7155	0.075	279431	keystroke_Key.space	Key.space	n/a
139.8955	0.06	279791	keystroke_f	f	n/a
140.0455	0.075	280091	keystroke_a	a	n/a
140.1355	0.09	280271	keystroke_u	u	n/a
140.3305	0.09	280661	keystroke_l	l	n/a
140.4365	0.104	280873	keystroke_t	t	n/a
140.7805	0.06	281561	keystroke_Key.enter	Key.enter	n/a
140.8475	6.8195	281695	prompt	n/a	created barcelona expiration temperature\n
141.561	0.074	283122	keystroke_c	c	n/a
141.785	0.09	283570	keystroke_r	r	n/a
141.86	0.0755	283720	keystroke_e	e	n/a
142.0405	0.105	284081	keystroke_a	a	n/a
142.2505	0.105	284501	keystroke_t	t	n/a
142.3105	0.075	284621	keystroke_e	e	n/a
142.505	0.06	285010	keystroke_d	d	n/a
142.625	0.075	285250	keystroke_Key.space	Key.space	n/a
142.7755	0.0895	285551	keystroke_b	b	n/a
142.851	0.089	285702	keystroke_a	a	n/a
143.015	0.075	286030	keystroke_r	r	n/a
143.271	0.089	286542	keystroke_c	c	n/a
143.42	0.075	286840	keystroke_e	e	n/a
143.465	0.09	286930	keystroke_l	l	n/a
143.675	0.15	287350	keystroke_o	o	n/a
143.78	0.105	287560	keystroke_n	n	n/a
143.9	0.105	287800	keystroke_a	a	n/a
143.99	0.09	287980	keystroke_Key.space	Key.space	n/a
144.125	0.06	288250	keystroke_e	e	n/a
144.426	0.119	288852	keystroke_x	x	n/a
144.605	0.09	289210	keystroke_p	p	n/a
144.8	0.09	289600	keystroke_i	i	n/a
144.875	0.075	289750	keystroke_r	r	n/a
145.07	0.12	290140	keystroke_a	a	n/a
145.295	0.075	290590	keystroke_t	t	n/a
145.415	0.06	290830	keystroke_i	i	n/a
145.565	0.135	291130	keystroke_o	o	n/a
145.67	0.075	291340	keystroke_n	n	n/a
145.835	0.09	291670	keystroke_Key.space	Key.space	n/a
145.94	0.105	291880	keystroke_t	t	n/a
146.03	0.105	292060	keystroke_e	e	n/a
146.15	0.105	292300	keystroke_m	m	n/a
146.48	0.075	292960	keystroke_p	p	n/a
146.585	0.075	293170	keystroke_e	e	n/a
146.72	0.075	293440	keystroke_r	r	n/a
146.87	0.09	293740	keystroke_a	a	n/a
147.05	0.076	294100	keystroke_t	t	n/a
147.14	0.075	294280	keystroke_u	u	n/a
147.26	0.15	294520	keystroke_r	r	n/a
147.38	0.135	294760	keystroke_e	e	n/a
147.575	0.09	295150	keystroke_Key.enter	Key.enter	n/a
147.672	4.675	295344	prompt	n/a	baptist labor tumor post\n
148.46	0.06	296920	keystroke_b	b	n/a
148.625	0.136	297250	keystroke_a	a	n/a
148.745	0.075	297490	keystroke_p	p	n/a
148.895	0.06	297790	keystroke_t	t	n/a
149.135	0.09	298270	keystroke_i	i	n/a
149.255	0.09	298510	keystroke_s	s	n/a
149.435	0.075	298870	keystroke_t	t	n/a
149.54	0.075	299080	keystroke_Key.space	Key.space	n/a
149.675	0.09	299350	keystroke_l	l	n/a
149.795	0.09	299590	keystroke_a	a	n/a
149.915	0.075	299830	keystroke_b	b	n/a
150.08	0.09	300160	keystroke_o	o	n/a
150.23	0.09	300460	keystroke_r	r	n/a
150.335	0.075	300670	keystroke_Key.space	Key.space	n/a
150.53	0.076	301060	keystroke_t	t	n/a
150.635	0.075	301270	keystroke_u	u	n/a
150.845	0.09	301690	keystroke_m	m	n/a
150.98	0.12	301960	keystroke_o	o	n/a
151.085	0.075	302170	keystroke_r	r	n/a
151.205	0.09	302410	keystroke_Key.space	Key.space	n/a
151.415	0.045	302830	keystroke_p	p	n/a
151.55	0.075	303100	keystroke_o	o	n/a
151.61	0.121	303220	keystroke_s	s	n/a
152.135	0.06	304270	keystroke_t	t	n/a
152.27	0.075	304540	keystroke_Key.enter	Key.enter	n/a
152.351	3.6195	304702	prompt	n/a	skip surplus adds burn\n
152.945	0.075	305890	keystroke_s	s	n/a
153.05	0.075	306100	keystroke_k	k	n/a
153.23	0.0895	306460	keystroke_i	i	n/a
153.4095	0.0755	306819	keystroke_p	p	n/a
153.6045	0.0525	307209	keystroke_Key.space	Key.space	n/a
153.673	0.074	307346	keystroke_s	s	n/a
153.762	0.076	307524	keystroke_u	u	n/a
153.8665	0.09	307733	keystroke_r	r	n/a
154.019	0.1335	308038	keystroke_p	p	n/a
154.1375	0.0915	308275	keystroke_l	l	n/a
154.3325	0.09	308665	keystroke_u	u	n/a
154.4075	0.105	308815	keystroke_s	s	n/a
154.5575	0.105	309115	keystroke_Key.space	Key.space	n/a
154.6775	0.06	309355	keystroke_a	a	n/a
154.8575	0.0605	309715	keystroke_d	d	n/a
154.9925	0.0755	309985	keystroke_d	d	n/a
155.098	0.12	310196	keystroke_s	s	n/a
155.203	0.09	310406	keystroke_Key.space	Key.space	n/a
155.368	0.075	310736	keystroke_b	b	n/a
155.473	0.105	310946	keystroke_u	u	n/a
155.549	0.089	311098	keystroke_r	r	n/a
155.653	0.105	311306	keystroke_n	n	n/a
155.893	0.075	311786	keystroke_Key.enter	Key.enter	n/a
155.9755	4.105	311951	prompt	n/a	norm everybody wifi doing\n
156.6285	0.0745	313257	keystroke_n	n	n/a
156.7475	0.105	313495	keystroke_o	o	n/a
156.8375	0.075	313675	keystroke_r	r	n/a
156.9735	0.089	313947	keystroke_m	m	n/a
157.1375	0.105	314275	keystroke_Key.space	Key.space	n/a
157.1675	0.09	314335	keystroke_e	e	n/a
157.3175	0.09	314635	keystroke_v	v	n/a
157.468	0.0895	314936	keystroke_e	e	n/a
157.6035	0.0745	315207	keystroke_r	r	n/a
157.6635	0.0895	315327	keystroke_y	y	n/a
157.8585	0.0595	315717	keystroke_b	b	n/a
157.978	0.091	315956	keystroke_o	o	n/a
158.098	0.09	316196	keystroke_d	d	n/a
158.2335	0.074	316467	keystroke_y	y	n/a
158.4425	0.09	316885	keystroke_Key.space	Key.space	n/a
158.6075	0.0905	317215	keystroke_w	w	n/a
158.7275	0.075	317455	keystroke_i	i	n/a
158.7875	0.075	317575	keystroke_f	f	n/a
158.8785	0.089	317757	keystroke_i	i	n/a
159.0725	0.06	318145	keystroke_Key.space	Key.space	n/a
159.134	0.089	318268	keystroke_d	d	n/a
159.268	0.06	318536	keystroke_o	o	n/a
159.418	0.105	318836	keystroke_i	i	n/a
159.508	0.09	319016	keystroke_n	n	n/a
159.553	0.09	319106	keystroke_g	g	n/a
160.003	0.075	320006	keystroke_Key.enter	Key.enter	n/a
160.0855	5.6195	320171	prompt	n/a	suicide rankings member scary\n
160.663	0.06	321326	keystroke_s	s	n/a
160.738	0.075	321476	keystroke_u	u	n/a
160.918	0.045	321836	keystroke_i	i	n/a
161.5025	0.06	323005	keystroke_c	c	n/a
162.3125	0.03	324625	keystroke_i	i	n/a
162.328	0.0305	324656	keystroke_d	d	n/a
162.4035	0.0905	324807	keystroke_e	e	n/a
162.523	0.0895	325046	keystroke_Key.space	Key.space	n/a
162.6135	0.044	325227	keystroke_r	r	n/a
162.8235	0.029	325647	keystroke_a	a	n/a
162.8685	0.044	325737	keystroke_n	n	n/a
163.0775	0.061	326155	keystroke_k	k	n/a
163.2425	0.105	326485	keystroke_i	i	n/a
163.3185	0.105	326637	keystroke_n	n	n/a
163.3775	0.075	326755	keystroke_g	g	n/a
163.5275	0.075	327055	keystroke_s	s	n/a
163.618	0.0895	327236	keystroke_Key.space	Key.space	n/a
163.8275	0.0455	327655	keystroke_m	m	n/a
163.843	0.09	327686	keystroke_e	e	n/a
163.948	0.0895	327896	keystroke_m	m	n/a
164.0235	0.074	328047	keystroke_b	b	n/a
164.188	0.09	328376	keystroke_e	e	n/a
164.368	0.06	328736	keystroke_r	r	n/a
164.488	0.09	328976	keystroke_Key.space	Key.space	n/a
164.593	0.0605	329186	keystroke_s	s	n/a
164.7275	0.09	329455	keystroke_c	c	n/a
164.8625	0.121	329725	keystroke_a	a	n/a
165.0435	0.09	330087	keystroke_r	r	n/a
165.3575	0.076	330715	keystroke_y	y	n/a
165.6275	0.075	331255	keystroke_Key.enter	Key.enter	n/a
165.7095	6.0845	331419	prompt	n/a	strain scanning distinguished cheese\n
166.9175	0.076	333835	keystroke_s	s	n/a
167.1575	0.12	334315	keystroke_t	t	n/a
167.2625	0.09	334525	keystroke_r	r	n/a
167.4585	0.0745	334917	keystroke_a	a	n/a
167.503	0.1505	335006	keystroke_i	i	n/a
167.6075	0.09	335215	keystroke_n	n	n/a
167.7875	0.105	335575	keystroke_Key.space	Key.space	n/a
167.8775	0.061	335755	keystroke_s	s	n/a
168.0285	0.059	336057	keystroke_c	c	n/a
168.1475	0.09	336295	keystroke_a	a	n/a
168.3135	0.074	336627	keystroke_n	n	n/a
168.4625	0.0745	336925	keystroke_n	n	n/a
168.6425	0.15	337285	keystroke_i	i	n/a
168.7475	0.106	337495	keystroke_n	n	n/a
168.8685	0.074	337737	keystroke_g	g	n/a
168.9875	0.105	337975	keystroke_Key.space	Key.space	n/a
169.1525	0.075	338305	keystroke_d	d	n/a
169.2285	0.075	338457	keystroke_i	i	n/a
169.3325	0.075	338665	keystroke_s	s	n/a
169.4975	0.075	338995	keystroke_t	t	n/a
169.5875	0.09	339175	keystroke_i	i	n/a
169.6925	0.091	339385	keystroke_n	n	n/a
169.9175	0.06	339835	keystroke_g	g	n/a
170.0375	0.045	340075	keystroke_u	u	n/a
170.1725	0.075	340345	keystroke_i	i	n/a
170.2335	0.074	340467	keystroke_s	s	n/a
170.3985	0.089	340797	keystroke_h	h	n/a
170.4725	0.06	340945	keystroke_e	e	n/a
170.6375	0.076	341275	keystroke_d	d	n/a
170.7575	0.075	341515	keystroke_Key.space	Key.space	n/a
170.8925	0.09	341785	keystroke_c	c	n/a
170.9525	0.105	341905	keystroke_h	h	n/a
171.0875	0.0445	342175	keystroke_e	e	n/a
171.222	0.06	342444	keystroke_e	e	n/a
171.4035	0.059	342807	keystroke_s	s	n/a
171.537	0.075	343074	keystroke_e	e	n/a
171.717	0.075	343434	keystroke_Key.enter	Key.enter	n/a
171.7985	4.9775	343597	prompt	n/a	plants states reply fiscal\n
172.5275	0.105	345055	keystroke_p	p	n/a
172.6025	0.09	345205	keystroke_l	l	n/a
172.6935	0.089	345387	keystroke_a	a	n/a
172.8285	0.104	345657	keystroke_n	n	n/a
172.9175	0.075	345835	keystroke_t	t	n/a
173.0975	0.075	346195	keystroke_s	s	n/a
173.2325	0.075	346465	keystroke_Key.space	Key.space	n/a
173.3375	0.09	346675	keystroke_s	s	n/a
173.5175	0.06	347035	keystroke_t	t	n/a
173.6975	0.091	347395	keystroke_a	a	n/a
173.9075	0.12	347815	keystroke_t	t	n/a
173.9525	0.09	347905	keystroke_e	e	n/a
174.1625	0.075	348325	keystroke_s	s	n/a
174.2525	0.105	348505	keystroke_Key.space	Key.space	n/a
174.4175	0.105	348835	keystroke_r	r	n/a
174.5075	0.075	349015	keystroke_e	e	n/a
174.5825	0.135	349165	keystroke_p	p	n/a
174.7025	0.06	349405	keystroke_l	l	n/a
174.7925	0.075	349585	keystroke_y	y	n/a
175.0175	0.075	350035	keystroke_Key.space	Key.space	n/a
175.1685	0.044	350337	keystroke_d	d	n/a
175.6025	0.0755	351205	keystroke_Key.backspace	Key.backspace	n/a
175.723	0.075	351446	keystroke_f	f	n/a
175.858	0.09	351716	keystroke_i	i	n/a
175.964	0.089	351928	keystroke_s	s	n/a
176.293	0.045	352586	keystroke_c	c	n/a
176.398	0.09	352796	keystroke_a	a	n/a
176.503	0.06	353006	keystroke_l	l	n/a
176.683	0.09	353366	keystroke_Key.enter	Key.enter	n/a
176.782	5.1825	353564	prompt	n/a	don't greatly some students\n
177.4625	0.06	354925	keystroke_d	d	n/a
177.5525	0.165	355105	keystroke_o	o	n/a
177.6875	0.135	355375	keystroke_n	n	n/a
178.6025	0.09	357205	keystroke_'	'	n/a
178.7075	0.09	357415	keystroke_t	t	n/a
178.8575	0.105	357715	keystroke_Key.space	Key.space	n/a
179.0075	0.06	358015	keystroke_g	g	n/a
179.2475	0.105	358495	keystroke_r	r	n/a
179.323	0.0895	358646	keystroke_e	e	n/a
179.518	0.12	359036	keystroke_a	a	n/a
179.7575	0.06	359515	keystroke_t	t	n/a
179.8475	0.075	359695	keystroke_l	l	n/a
179.8925	0.075	359785	keystroke_y	y	n/a
180.0725	0.09	360145	keystroke_Key.space	Key.space	n/a
180.2825	0.0905	360565	keystroke_s	s	n/a
180.4635	0.149	360927	keystroke_o	o	n/a
180.5975	0.09	361195	keystroke_m	m	n/a
180.673	0.0595	361346	keystroke_e	e	n/a
180.7925	0.12	361585	keystroke_Key.space	Key.space	n/a
180.8675	0.075	361735	keystroke_s	s	n/a
181.0325	0.045	362065	keystroke_t	t	n/a
181.0785	0.089	362157	keystroke_u	u	n/a
181.243	0.075	362486	keystroke_d	d	n/a
181.3475	0.105	362695	keystroke_e	e	n/a
181.4375	0.1055	362875	keystroke_n	n	n/a
181.5125	0.0755	363025	keystroke_t	t	n/a
181.6925	0.0905	363385	keystroke_s	s	n/a
181.813	0.1495	363626	keystroke_Key.enter	Key.enter	n/a
181.9735	6.231	363947	prompt	n/a	pharmacology platinum editors plants\n
182.683	0.075	365366	keystroke_p	p	n/a
182.788	0.09	365576	keystroke_a	a	n/a
182.9825	0.075	365965	keystroke_r	r	n/a
183.1625	0.06	366325	keystroke_h	h	n/a
183.4025	0.09	366805	keystroke_m	m	n/a
183.5375	0.135	367075	keystroke_a	a	n/a
183.7925	0.06	367585	keystroke_c	c	n/a
183.8675	0.09	367735	keystroke_o	o	n/a
184.0625	0.075	368125	keystroke_l	l	n/a
184.2425	0.0595	368485	keystroke_o	o	n/a
184.362	0.09	368724	keystroke_g	g	n/a
184.6025	0.09	369205	keystroke_y	y	n/a
184.7075	0.09	369415	keystroke_Key.space	Key.space	n/a
184.9475	0.15	369895	keystroke_p	p	n/a
185.0675	0.105	370135	keystroke_l	l	n/a
185.2025	0.075	370405	keystroke_a	a	n/a
185.3675	0.075	370735	keystroke_t	t	n/a
185.4275	0.12	370855	keystroke_i	i	n/a
185.5775	0.09	371155	keystroke_n	n	n/a
185.7725	0.09	371545	keystroke_u	u	n/a
185.9825	0.075	371965	keystroke_m	m	n/a
186.1475	0.105	372295	keystroke_Key.space	Key.space	n/a
186.2375	0.06	372475	keystroke_e	e	n/a
186.4025	0.09	372805	keystroke_d	d	n/a
186.4775	0.06	372955	keystroke_i	i	n/a
186.5675	0.075	373135	keystroke_t	t	n/a
186.6575	0.075	373315	keystroke_o	o	n/a
186.7475	0.075	373495	keystroke_r	r	n/a
186.9425	0.09	373885	keystroke_s	s	n/a
187.0475	0.075	374095	keystroke_Key.space	Key.space	n/a
187.2875	0.15	374575	keystroke_p	p	n/a
187.3775	0.105	374755	keystroke_l	l	n/a
187.4835	0.089	374967	keystroke_a	a	n/a
187.5875	0.09	375175	keystroke_n	n	n/a
187.7075	0.06	375415	keystroke_t	t	n/a
187.8575	0.105	375715	keystroke_s	s	n/a
188.1275	0.075	376255	keystroke_Key.enter	Key.enter	n/a
188.2095	6.0405	376419	prompt	n/a	appearing incredible postcard spanking\n
188.7425	0.12	377485	keystroke_a	a	n/a
188.9375	0.09	377875	keystroke_p	p	n/a
189.0875	0.075	378175	keystroke_p	p	n/a
189.1775	0.06	378355	keystroke_e	e	n/a
189.3575	0.075	378715	keystroke_a	a	n/a
189.5225	0.06	379045	keystroke_r	r	n/a
189.5835	0.149	379167	keystroke_i	i	n/a
189.7025	0.105	379405	keystroke_n	n	n/a
189.8225	0.06	379645	keystroke_g	g	n/a
189.9425	0.09	379885	keystroke_Key.space	Key.space	n/a
190.1525	0.09	380305	keystroke_i	i	n/a
190.2125	0.09	380425	keystroke_n	n	n/a
190.2875	0.075	380575	keystroke_c	c	n/a
190.5275	0.135	381055	keystroke_r	r	n/a
190.6175	0.075	381235	keystroke_e	e	n/a
190.7835	0.104	381567	keystroke_d	d	n/a
190.8725	0.09	381745	keystroke_i	i	n/a
190.9775	0.075	381955	keystroke_b	b	n/a
191.0975	0.09	382195	keystroke_l	l	n/a
191.2475	0.09	382495	keystroke_e	e	n/a
191.3675	0.09	382735	keystroke_Key.space	Key.space	n/a
191.5925	0.0755	383185	keystroke_p	p	n/a
191.758	0.105	383516	keystroke_o	o	n/a
191.818	0.0895	383636	keystroke_s	s	n/a
191.9835	0.089	383967	keystroke_t	t	n/a
192.2225	0.06	384445	keystroke_c	c	n/a
192.342	0.12	384684	keystroke_a	a	n/a
192.537	0.0605	385074	keystroke_r	r	n/a
192.7175	0.075	385435	keystroke_d	d	n/a
192.8525	0.075	385705	keystroke_Key.space	Key.space	n/a
192.9725	0.09	385945	keystroke_s	s	n/a
193.0775	0.09	386155	keystroke_p	p	n/a
193.1525	0.09	386305	keystroke_a	a	n/a
193.2575	0.09	386515	keystroke_n	n	n/a
193.4075	0.09	386815	keystroke_k	k	n/a
193.5725	0.12	387145	keystroke_i	i	n/a
193.6785	0.119	387357	keystroke_n	n	n/a
193.7985	0.104	387597	keystroke_g	g	n/a
194.1875	0.06	388375	keystroke_Key.enter	Key.enter	n/a
194.256	5.229	388512	prompt	n/a	vary every committees allows\n
194.9075	0.06	389815	keystroke_v	v	n/a
195.0875	0.075	390175	keystroke_a	a	n/a
195.2385	0.059	390477	keystroke_r	r	n/a
195.3125	0.075	390625	keystroke_y	y	n/a
195.5225	0.105	391045	keystroke_Key.space	Key.space	n/a
195.5825	0.105	391165	keystroke_e	e	n/a
195.7175	0.12	391435	keystroke_v	v	n/a
195.8525	0.09	391705	keystroke_e	e	n/a
195.9875	0.12	391975	keystroke_r	r	n/a
196.0625	0.09	392125	keystroke_y	y	n/a
196.3175	0.06	392635	keystroke_Key.space	Key.space	n/a
196.423	0.075	392846	keystroke_c	c	n/a
196.528	0.105	393056	keystroke_o	o	n/a
196.768	0.061	393536	keystroke_m	m	n/a
196.918	0.06	393836	keystroke_m	m	n/a
197.083	0.06	394166	keystroke_i	i	n/a
197.233	0.06	394466	keystroke_t	t	n/a
197.353	0.075	394706	keystroke_t	t	n/a
197.623	0.045	395246	keystroke_e	e	n/a
197.7725	0.03	395545	keystroke_e	e	n/a
198.043	0.09	396086	keystroke_s	s	n/a
198.163	0.1045	396326	keystroke_Key.space	Key.space	n/a
198.2975	0.06	396595	keystroke_a	a	n/a
198.4325	0.076	396865	keystroke_l	l	n/a
198.5825	0.075	397165	keystroke_l	l	n/a
198.7325	0.09	397465	keystroke_o	o	n/a
198.838	0.075	397676	keystroke_w	w	n/a
199.048	0.12	398096	keystroke_s	s	n/a
199.423	0.06	398846	keystroke_Key.enter	Key.enter	n/a
199.4905	5.53	398981	prompt	n/a	maternity gale discounts jeep\n
200.158	0.105	400316	keystroke_m	m	n/a
200.248	0.075	400496	keystroke_a	a	n/a
200.4275	0.075	400855	keystroke_t	t	n/a
200.518	0.09	401036	keystroke_e	e	n/a
200.624	0.104	401248	keystroke_r	r	n/a
200.713	0.0895	401426	keystroke_n	n	n/a
200.848	0.12	401696	keystroke_i	i	n/a
200.938	0.075	401876	keystroke_t	t	n/a
201.058	0.09	402116	keystroke_y	y	n/a
201.253	0.09	402506	keystroke_Key.space	Key.space	n/a
201.448	0.075	402896	keystroke_g	g	n/a
201.628	0.09	403256	keystroke_a	a	n/a
201.719	0.074	403438	keystroke_l	l	n/a
201.883	0.12	403766	keystroke_e	e	n/a
202.183	0.09	404366	keystroke_Key.space	Key.space	n/a
202.393	0.06	404786	keystroke_i	i	n/a
202.813	0.06	405626	keystroke_Key.backspace	Key.backspace	n/a
202.903	0.09	405806	keystroke_d	d	n/a
203.053	0.09	406106	keystroke_i	i	n/a
203.128	0.075	406256	keystroke_s	s	n/a
203.263	0.09	406526	keystroke_c	c	n/a
203.338	0.09	406676	keystroke_o	o	n/a
203.533	0.09	407066	keystroke_u	u	n/a
203.668	0.105	407336	keystroke_n	n	n/a
203.743	0.06	407486	keystroke_t	t	n/a
203.923	0.09	407846	keystroke_s	s	n/a
204.0425	0.09	408085	keystroke_Key.space	Key.space	n/a
204.2685	0.059	408537	keystroke_j	j	n/a
204.4035	0.029	408807	keystroke_e	e	n/a
204.523	0.045	409046	keystroke_e	e	n/a
204.628	0.09	409256	keystroke_p	p	n/a
204.928	0.09	409856	keystroke_Key.enter	Key.enter	n/a
205.031	4.309	410062	prompt	n/a	admit reviews sweden race\n
205.573	0.075	411146	keystroke_a	a	n/a
205.723	0.075	411446	keystroke_d	d	n/a
205.813	0.09	411626	keystroke_m	m	n/a
205.978	0.075	411956	keystroke_i	i	n/a
206.083	0.075	412166	keystroke_t	t	n/a
206.233	0.09	412466	keystroke_Key.space	Key.space	n/a
206.383	0.09	412766	keystroke_r	r	n/a
206.458	0.09	412916	keystroke_e	e	n/a
206.653	0.075	413306	keystroke_v	v	n/a
206.743	0.105	413486	keystroke_i	i	n/a
206.923	0.15	413846	keystroke_e	e	n/a
207.013	0.09	414026	keystroke_w	w	n/a
207.238	0.09	414476	keystroke_s	s	n/a
207.478	0.0745	414956	keystroke_Key.space	Key.space	n/a
207.628	0.0895	415256	keystroke_s	s	n/a
207.8225	0.0755	415645	keystroke_w	w	n/a
207.989	0.074	415978	keystroke_e	e	n/a
208.168	0.09	416336	keystroke_d	d	n/a
208.273	0.09	416546	keystroke_e	e	n/a
208.348	0.105	416696	keystroke_n	n	n/a
208.528	0.12	417056	keystroke_Key.space	Key.space	n/a
208.603	0.06	417206	keystroke_r	r	n/a
208.768	0.075	417536	keystroke_a	a	n/a
208.919	0.104	417838	keystroke_c	c	n/a
209.068	0.105	418136	keystroke_e	e	n/a
209.263	0.075	418526	keystroke_Key.enter	Key.enter	n/a
209.3455	5.1845	418691	prompt	n/a	tribute evening collectibles carry\n
210.028	0.12	420056	keystroke_t	t	n/a
210.133	0.105	420266	keystroke_r	r	n/a
210.239	0.089	420478	keystroke_i	i	n/a
210.343	0.09	420686	keystroke_b	b	n/a
210.448	0.09	420896	keystroke_u	u	n/a
210.613	0.06	421226	keystroke_t	t	n/a
210.733	0.105	421466	keystroke_e	e	n/a
210.868	0.12	421736	keystroke_Key.space	Key.space	n/a
210.928	0.12	421856	keystroke_e	e	n/a
211.093	0.09	422186	keystroke_v	v	n/a
211.198	0.105	422396	keystroke_e	e	n/a
211.258	0.105	422516	keystroke_n	n	n/a
211.393	0.165	422786	keystroke_i	i	n/a
211.498	0.09	422996	keystroke_n	n	n/a
211.543	0.075	423086	keystroke_g	g	n/a
211.693	0.12	423386	keystroke_Key.space	Key.space	n/a
211.903	0.09	423806	keystroke_c	c	n/a
212.008	0.09	424016	keystroke_o	o	n/a
212.203	0.075	424406	keystroke_l	l	n/a
212.353	0.075	424706	keystroke_l	l	n/a
212.398	0.09	424796	keystroke_e	e	n/a
212.548	0.09	425096	keystroke_c	c	n/a
212.758	0.075	425516	keystroke_t	t	n/a
212.818	0.09	425636	keystroke_i	i	n/a
212.923	0.106	425846	keystroke_b	b	n/a
213.043	0.09	426086	keystroke_l	l	n/a
213.179	0.074	426358	keystroke_e	e	n/a
213.388	0.09	426776	keystroke_s	s	n/a
213.553	0.09	427106	keystroke_Key.space	Key.space	n/a
213.673	0.045	427346	keystroke_c	c	n/a
213.793	0.09	427586	keystroke_a	a	n/a
214.003	0.045	428006	keystroke_r	r	n/a
214.123	0.045	428246	keystroke_r	r	n/a
214.213	0.06	428426	keystroke_y	y	n/a
214.453	0.075	428906	keystroke_Key.enter	Key.enter	n/a
214.534	6.176	429068	prompt	n/a	draw shows eddie custom\n
215.113	0.09	430226	keystroke_s	s	n/a
215.338	0.03	430676	keystroke_r	r	n/a
215.623	0.075	431246	keystroke_Key.backspace	Key.backspace	n/a
215.743	0.075	431486	keystroke_Key.backspace	Key.backspace	n/a
215.879	0.074	431758	keystroke_d	d	n/a
216.103	0.075	432206	keystroke_r	r	n/a
216.283	0.09	432566	keystroke_a	a	n/a
216.448	0.09	432896	keystroke_w	w	n/a
216.568	0.09	433136	keystroke_Key.space	Key.space	n/a
216.673	0.09	433346	keystroke_s	s	n/a
216.779	0.074	433558	keystroke_h	h	n/a
216.973	0.091	433946	keystroke_o	o	n/a
217.078	0.045	434156	keystroke_w	w	n/a
217.228	0.075	434456	keystroke_s	s	n/a
217.363	0.09	434726	keystroke_Key.space	Key.space	n/a
217.558	0.045	435116	keystroke_e	e	n/a
217.768	0.075	435536	keystroke_d	d	n/a
217.903	0.075	435806	keystroke_d	d	n/a
217.993	0.12	435986	keystroke_i	i	n/a
218.158	0.09	436316	keystroke_e	e	n/a
218.293	0.06	436586	keystroke_Key.space	Key.space	n/a
218.549	0.104	437098	keystroke_c	c	n/a
218.743	0.061	437486	keystroke_u	u	n/a
218.923	0.075	437846	keystroke_s	s	n/a
219.178	0.105	438356	keystroke_o	o	n/a
219.193	0.0305	438386	keystroke_t	t	n/a
219.568	0.0755	439136	keystroke_Key.backspace	Key.backspace	n/a
219.718	0.03	439436	keystroke_Key.backspace	Key.backspace	n/a
220.123	0.06	440246	keystroke_t	t	n/a
220.198	0.165	440396	keystroke_o	o	n/a
220.3485	0.0895	440697	keystroke_m	m	n/a
220.5885	0.12	441177	keystroke_Key.enter	Key.enter	n/a
220.7145	5.696	441429	prompt	n/a	insulation nails highlighted nails\n
221.3535	0.12	442707	keystroke_i	i	n/a
221.4885	0.075	442977	keystroke_n	n	n/a
221.5795	0.104	443159	keystroke_s	s	n/a
221.6685	0.075	443337	keystroke_u	u	n/a
221.8635	0.075	443727	keystroke_l	l	n/a
221.9095	0.09	443819	keystroke_a	a	n/a
222.1035	0.105	444207	keystroke_t	t	n/a
222.2245	0.045	444449	keystroke_i	i	n/a
222.3595	0.135	444719	keystroke_o	o	n/a
222.4635	0.09	444927	keystroke_n	n	n/a
222.6435	0.06	445287	keystroke_Key.space	Key.space	n/a
222.7935	0.075	445587	keystroke_n	n	n/a
222.8535	0.106	445707	keystroke_a	a	n/a
222.9735	0.061	445947	keystroke_i	i	n/a
223.1535	0.06	446307	keystroke_l	l	n/a
223.2435	0.075	446487	keystroke_s	s	n/a
223.3335	0.075	446667	keystroke_Key.space	Key.space	n/a
223.5295	0.074	447059	keystroke_h	h	n/a
223.7095	0.074	447419	keystroke_i	i	n/a
223.8295	0.044	447659	keystroke_g	g	n/a
223.9045	0.09	447809	keystroke_h	h	n/a
224.1285	0.12	448257	keystroke_l	l	n/a
224.3535	0.06	448707	keystroke_i	i	n/a
224.3995	0.089	448799	keystroke_g	g	n/a
224.5185	0.075	449037	keystroke_h	h	n/a
224.6535	0.03	449307	keystroke_t	t	n/a
224.8045	0.074	449609	keystroke_e	e	n/a
224.9835	0.076	449967	keystroke_d	d	n/a
225.0735	0.075	450147	keystroke_Key.space	Key.space	n/a
225.2535	0.06	450507	keystroke_n	n	n/a
225.3145	0.089	450629	keystroke_a	a	n/a
225.4185	0.09	450837	keystroke_i	i	n/a
225.9735	0.075	451947	keystroke_l	l	n/a
226.0935	0.09	452187	keystroke_s	s	n/a
226.3185	0.09	452637	keystroke_Key.enter	Key.enter	n/a
226.414	5.7415	452828	prompt	n/a	luis contractors chambers cancelled\n
227.0535	0.091	454107	keystroke_l	l	n/a
227.2935	0.06	454587	keystroke_u	u	n/a
227.4135	0.105	454827	keystroke_i	i	n/a
227.5495	0.0735	455099	keystroke_s	s	n/a
227.668	0.075	455336	keystroke_Key.space	Key.space	n/a
227.788	0.09	455576	keystroke_c	c	n/a
227.848	0.121	455696	keystroke_o	o	n/a
227.923	0.1205	455846	keystroke_n	n	n/a
228.0735	0.105	456147	keystroke_t	t	n/a
228.1335	0.09	456267	keystroke_r	r	n/a
228.3435	0.09	456687	keystroke_a	a	n/a
228.5095	0.089	457019	keystroke_c	c	n/a
228.7345	0.059	457469	keystroke_t	t	n/a
228.8095	0.089	457619	keystroke_o	o	n/a
228.9145	0.074	457829	keystroke_r	r	n/a
229.1085	0.075	458217	keystroke_s	s	n/a
229.2285	0.09	458457	keystroke_Key.space	Key.space	n/a
229.3485	0.076	458697	keystroke_c	c	n/a
229.4395	0.104	458879	keystroke_h	h	n/a
229.5285	0.09	459057	keystroke_a	a	n/a
229.6485	0.09	459297	keystroke_m	m	n/a
229.934	0.09	459868	keystroke_b	b	n/a
230.098	0.0905	460196	keystroke_e	e	n/a
230.264	0.074	460528	keystroke_r	r	n/a
230.443	0.076	460886	keystroke_s	s	n/a
230.533	0.09	461066	keystroke_Key.space	Key.space	n/a
230.638	0.06	461276	keystroke_c	c	n/a
230.773	0.105	461546	keystroke_a	a	n/a
231.059	0.089	462118	keystroke_n	n	n/a
231.268	0.075	462536	keystroke_c	c	n/a
231.433	0.09	462866	keystroke_e	e	n/a
231.554	0.044	463108	keystroke_l	l	n/a
231.689	0.059	463378	keystroke_l	l	n/a
231.763	0.075	463526	keystroke_e	e	n/a
231.899	0.089	463798	keystroke_d	d	n/a
232.063	0.09	464126	keystroke_Key.enter	Key.enter	n/a
232.16	7.1955	464320	prompt	n/a	pantyhose obtaining bronze expenditures\n
232.873	0.075	465746	keystroke_p	p	n/a
233.054	0.089	466108	keystroke_a	a	n/a
233.188	0.0905	466376	keystroke_n	n	n/a
233.353	0.075	466706	keystroke_t	t	n/a
233.488	0.075	466976	keystroke_y	y	n/a
234.029	0.089	468058	keystroke_h	h	n/a
234.254	0.074	468508	keystroke_o	o	n/a
234.343	0.075	468686	keystroke_s	s	n/a
234.523	0.06	469046	keystroke_e	e	n/a
234.598	0.075	469196	keystroke_Key.space	Key.space	n/a
234.793	0.15	469586	keystroke_o	o	n/a
234.913	0.09	469826	keystroke_b	b	n/a
235.034	0.06	470068	keystroke_t	t	n/a
235.199	0.074	470398	keystroke_a	a	n/a
235.259	0.105	470518	keystroke_i	i	n/a
235.423	0.075	470846	keystroke_n	n	n/a
235.543	0.135	471086	keystroke_i	i	n/a
235.633	0.105	471266	keystroke_n	n	n/a
235.723	0.075	471446	keystroke_g	g	n/a
235.858	0.075	471716	keystroke_Key.space	Key.space	n/a
236.024	0.089	472048	keystroke_b	b	n/a
236.128	0.061	472256	keystroke_r	r	n/a
236.248	0.135	472496	keystroke_o	o	n/a
236.353	0.105	472706	keystroke_n	n	n/a
236.473	0.106	472946	keystroke_z	z	n/a
236.773	0.09	473546	keystroke_e	e	n/a
236.938	0.09	473876	keystroke_Key.space	Key.space	n/a
237.074	0.075	474148	keystroke_e	e	n/a
237.674	0.074	475348	keystroke_x	x	n/a
237.794	0.074	475588	keystroke_p	p	n/a
237.943	0.105	475886	keystroke_e	e	n/a
238.139	0.044	476278	keystroke_n	n	n/a
238.198	0.06	476396	keystroke_d	d	n/a
238.378	0.105	476756	keystroke_i	i	n/a
238.513	0.076	477026	keystroke_t	t	n/a
238.604	0.06	477208	keystroke_u	u	n/a
238.738	0.09	477476	keystroke_r	r	n/a
238.948	0.076	477896	keystroke_e	e	n/a
239.129	0.059	478258	keystroke_s	s	n/a
239.248	0.105	478496	keystroke_Key.enter	Key.enter	n/a
239.36	6.3405	478720	prompt	n/a	specified married moderator passenger\n
240.178	0.075	480356	keystroke_s	s	n/a
240.283	0.09	480566	keystroke_p	p	n/a
240.388	0.091	480776	keystroke_e	e	n/a
240.599	0.074	481198	keystroke_c	c	n/a
240.719	0.074	481438	keystroke_i	i	n/a
240.763	0.105	481526	keystroke_f	f	n/a
240.883	0.061	481766	keystroke_i	i	n/a
240.9595	0.0895	481919	keystroke_e	e	n/a
241.168	0.06	482336	keystroke_d	d	n/a
241.273	0.09	482546	keystroke_Key.space	Key.space	n/a
241.453	0.106	482906	keystroke_m	m	n/a
241.543	0.075	483086	keystroke_a	a	n/a
241.769	0.06	483538	keystroke_r	r	n/a
241.904	0.044	483808	keystroke_r	r	n/a
241.964	0.075	483928	keystroke_i	i	n/a
242.128	0.105	484256	keystroke_e	e	n/a
242.383	0.06	484766	keystroke_d	d	n/a
242.473	0.09	484946	keystroke_Key.space	Key.space	n/a
242.683	0.075	485366	keystroke_m	m	n/a
242.908	0.09	485816	keystroke_o	o	n/a
243.028	0.075	486056	keystroke_d	d	n/a
243.148	0.061	486296	keystroke_e	e	n/a
243.284	0.074	486568	keystroke_r	r	n/a
243.494	0.089	486988	keystroke_a	a	n/a
243.703	0.105	487406	keystroke_t	t	n/a
243.778	0.09	487556	keystroke_o	o	n/a
243.838	0.105	487676	keystroke_r	r	n/a
244.063	0.045	488126	keystroke_Key.space	Key.space	n/a
244.348	0.061	488696	keystroke_p	p	n/a
244.498	0.06	488996	keystroke_a	a	n/a
244.679	0.059	489358	keystroke_s	s	n/a
244.783	0.06	489566	keystroke_s	s	n/a
244.963	0.075	489926	keystroke_e	e	n/a
245.023	0.09	490046	keystroke_n	n	n/a
245.173	0.09	490346	keystroke_g	g	n/a
245.308	0.09	490616	keystroke_e	e	n/a
245.443	0.106	490886	keystroke_r	r	n/a
245.623	0.075	491246	keystroke_Key.enter	Key.enter	n/a
245.708	5.693	491416	prompt	n/a	catalyst kiss productivity prisoner\n
246.328	0.06	492656	keystroke_c	c	n/a
246.478	0.09	492956	keystroke_a	a	n/a
246.688	0.06	493376	keystroke_t	t	n/a
246.824	0.105	493648	keystroke_a	a	n/a
246.944	0.089	493888	keystroke_l	l	n/a
247.123	0.061	494246	keystroke_y	y	n/a
247.334	0.0745	494668	keystroke_s	s	n/a
247.529	0.075	495058	keystroke_t	t	n/a
247.633	0.075	495266	keystroke_Key.space	Key.space	n/a
247.784	0.074	495568	keystroke_k	k	n/a
247.949	0.09	495898	keystroke_i	i	n/a
248.084	0.06	496168	keystroke_s	s	n/a
248.233	0.061	496466	keystroke_s	s	n/a
248.338	0.075	496676	keystroke_Key.space	Key.space	n/a
248.549	0.075	497098	keystroke_p	p	n/a
248.698	0.075	497396	keystroke_r	r	n/a
248.789	0.075	497578	keystroke_o	o	n/a
248.894	0.074	497788	keystroke_d	d	n/a
248.983	0.09	497966	keystroke_u	u	n/a
249.088	0.06	498176	keystroke_c	c	n/a
249.299	0.074	498598	keystroke_t	t	n/a
249.509	0.074	499018	keystroke_i	i	n/a
249.629	0.075	499258	keystroke_v	v	n/a
249.719	0.105	499438	keystroke_i	i	n/a
249.839	0.09	499678	keystroke_t	t	n/a
250.019	0.075	500038	keystroke_y	y	n/a
250.153	0.09	500306	keystroke_Key.space	Key.space	n/a
250.363	0.09	500726	keystroke_p	p	n/a
250.483	0.076	500966	keystroke_r	r	n/a
250.619	0.089	501238	keystroke_i	i	n/a
250.738	0.09	501476	keystroke_s	s	n/a
250.843	0.105	501686	keystroke_o	o	n/a
250.904	0.12	501808	keystroke_n	n	n/a
250.979	0.105	501958	keystroke_e	e	n/a
251.113	0.105	502226	keystroke_r	r	n/a
251.294	0.104	502588	keystroke_Key.enter	Key.enter	n/a
251.4065	7.314	502813	prompt	n/a	stood conditional cohen pirates\n
251.954	0.089	503908	keystroke_s	s	n/a
252.178	0.076	504356	keystroke_t	t	n/a
252.343	0.061	504686	keystroke_o	o	n/a
252.463	0.105	504926	keystroke_o	o	n/a
252.614	0.089	505228	keystroke_d	d	n/a
252.704	0.089	505408	keystroke_Key.space	Key.space	n/a
253.034	0.06	506068	keystroke_c	c	n/a
253.108	0.135	506216	keystroke_o	o	n/a
253.229	0.089	506458	keystroke_n	n	n/a
253.319	0.09	506638	keystroke_d	d	n/a
253.423	0.09	506846	keystroke_i	i	n/a
253.588	0.075	507176	keystroke_t	t	n/a
253.619	0.06	507238	keystroke_i	i	n/a
253.784	0.134	507568	keystroke_o	o	n/a
253.873	0.106	507746	keystroke_n	n	n/a
253.993	0.106	507986	keystroke_a	a	n/a
254.113	0.091	508226	keystroke_l	l	n/a
254.279	0.075	508558	keystroke_Key.space	Key.space	n/a
254.489	0.074	508978	keystroke_c	c	n/a
254.579	0.075	509158	keystroke_o	o	n/a
254.788	0.091	509576	keystroke_h	h	n/a
254.893	0.075	509786	keystroke_e	e	n/a
254.999	0.089	509998	keystroke_n	n	n/a
255.194	0.06	510388	keystroke_Key.space	Key.space	n/a
255.374	0.075	510748	keystroke_p	p	n/a
255.583	0.075	511166	keystroke_i	i	n/a
255.659	0.105	511318	keystroke_r	r	n/a
255.839	0.074	511678	keystroke_t	t	n/a
256.019	0.09	512038	keystroke_a	a	n/a
256.259	0.105	512518	keystroke_e	e	n/a
256.484	0.09	512968	keystroke_s	s	n/a
256.874	0.06	513748	keystroke_Key.backspace	Key.backspace	n/a
257.023	0.06	514046	keystroke_Key.backspace	Key.backspace	n/a
257.698	0.091	515396	keystroke_Key.backspace	Key.backspace	n/a
257.834	0.059	515668	keystroke_Key.backspace	Key.backspace	n/a
258.029	0.075	516058	keystroke_a	a	n/a
258.209	0.135	516418	keystroke_t	t	n/a
258.299	0.105	516598	keystroke_e	e	n/a
258.479	0.09	516958	keystroke_s	s	n/a
258.629	0.089	517258	keystroke_Key.enter	Key.enter	n/a
258.725	6.5505	517450	prompt	n/a	hostel specify bird earliest\n
259.424	0.075	518848	keystroke_h	h	n/a
259.543	0.106	519086	keystroke_o	o	n/a
259.634	0.06	519268	keystroke_s	s	n/a
259.799	0.105	519598	keystroke_t	t	n/a
259.904	0.105	519808	keystroke_e	e	n/a
259.979	0.075	519958	keystroke_l	l	n/a
260.159	0.075	520318	keystroke_Key.space	Key.space	n/a
260.294	0.074	520588	keystroke_s	s	n/a
260.369	0.074	520738	keystroke_p	p	n/a
260.489	0.074	520978	keystroke_e	e	n/a
260.699	0.09	521398	keystroke_c	c	n/a
260.834	0.075	521668	keystroke_i	i	n/a
260.954	0.075	521908	keystroke_f	f	n/a
262.559	0.104	525118	keystroke_y	y	n/a
262.678	0.06	525356	keystroke_Key.space	Key.space	n/a
262.963	0.091	525926	keystroke_b	b	n/a
263.099	0.09	526198	keystroke_i	i	n/a
263.219	0.06	526438	keystroke_r	r	n/a
263.383	0.121	526766	keystroke_d	d	n/a
263.578	0.105	527156	keystroke_Key.space	Key.space	n/a
263.744	0.075	527488	keystroke_e	e	n/a
263.939	0.104	527878	keystroke_a	a	n/a
264.134	0.075	528268	keystroke_r	r	n/a
264.224	0.075	528448	keystroke_l	l	n/a
264.418	0.076	528836	keystroke_i	i	n/a
264.509	0.015	529018	keystroke_e	e	n/a
264.629	0.09	529258	keystroke_s	s	n/a
264.824	0.075	529648	keystroke_t	t	n/a
265.184	0.09	530368	keystroke_Key.enter	Key.enter	n/a
265.279	10.4365	530558	prompt	n/a	glossary you're except delays\n
266.159	0.09	532318	keystroke_g	g	n/a
266.234	0.09	532468	keystroke_l	l	n/a
266.414	0.075	532828	keystroke_o	o	n/a
266.564	0.09	533128	keystroke_s	s	n/a
266.699	0.075	533398	keystroke_s	s	n/a
266.8935	0.06	533787	keystroke_a	a	n/a
267.104	0.075	534208	keystroke_y	y	n/a
267.508	0.076	535016	keystroke_Key.backspace	Key.backspace	n/a
267.614	0.09	535228	keystroke_r	r	n/a
267.749	0.119	535498	keystroke_y	y	n/a
268.004	0.075	536008	keystroke_Key.space	Key.space	n/a
268.169	0.105	536338	keystroke_y	y	n/a
268.259	0.09	536518	keystroke_o	o	n/a
268.364	0.075	536728	keystroke_u	u	n/a
268.634	0.09	537268	keystroke_'	'	n/a
268.829	0.15	537658	keystroke_r	r	n/a
268.949	0.105	537898	keystroke_e	e	n/a
269.174	0.075	538348	keystroke_Key.space	Key.space	n/a
269.279	0.06	538558	keystroke_e	e	n/a
269.579	0.12	539158	keystroke_x	x	n/a
270.149	0.0745	540298	keystroke_c	c	n/a
270.3135	0.105	540627	keystroke_e	e	n/a
270.5835	0.0305	541167	keystroke_p	p	n/a
270.779	0.075	541558	keystroke_y	y	n/a
271.064	0.09	542128	keystroke_Key.space	Key.space	n/a
271.199	0.075	542398	keystroke_d	d	n/a
271.304	0.09	542608	keystroke_e	e	n/a
271.424	0.075	542848	keystroke_l	l	n/a
271.544	0.09	543088	keystroke_a	a	n/a
271.784	0.09	543568	keystroke_y	y	n/a
272.009	0.105	544018	keystroke_s	s	n/a
272.504	0.06	545008	keystroke_Key.backspace	Key.backspace	n/a
272.654	0.075	545308	keystroke_Key.backspace	Key.backspace	n/a
272.818	0.061	545636	keystroke_Key.backspace	Key.backspace	n/a
272.969	0.06	545938	keystroke_Key.backspace	Key.backspace	n/a
273.134	0.045	546268	keystroke_Key.backspace	Key.backspace	n/a
273.284	0.045	546568	keystroke_Key.backspace	Key.backspace	n/a
273.599	0.045	547198	keystroke_Key.backspace	Key.backspace	n/a
273.779	0.075	547558	keystroke_Key.backspace	Key.backspace	n/a
274.379	0.075	548758	keystroke_t	t	n/a
274.529	0.105	549058	keystroke_Key.space	Key.space	n/a
274.694	0.09	549388	keystroke_d	d	n/a
274.814	0.09	549628	keystroke_e	e	n/a
274.934	0.075	549868	keystroke_l	l	n/a
275.024	0.09	550048	keystroke_a	a	n/a
275.234	0.09	550468	keystroke_y	y	n/a
275.459	0.09	550918	keystroke_s	s	n/a
275.594	0.12	551188	keystroke_Key.enter	Key.enter	n/a
275.7205	6.9705	551441	prompt	n/a	investigation distances swim criticism\n
276.389	0.165	552778	keystroke_i	i	n/a
276.524	0.105	553048	keystroke_n	n	n/a
276.809	0.09	553618	keystroke_v	v	n/a
276.944	0.075	553888	keystroke_e	e	n/a
277.124	0.09	554248	keystroke_s	s	n/a
277.499	0.075	554998	keystroke_t	t	n/a
277.604	0.105	555208	keystroke_i	i	n/a
277.694	0.06	555388	keystroke_g	g	n/a
277.859	0.12	555718	keystroke_a	a	n/a
278.054	0.06	556108	keystroke_t	t	n/a
278.114	0.075	556228	keystroke_i	i	n/a
278.279	0.135	556558	keystroke_o	o	n/a
278.369	0.105	556738	keystroke_n	n	n/a
278.563	0.091	557126	keystroke_Key.space	Key.space	n/a
278.669	0.06	557338	keystroke_d	d	n/a
278.774	0.09	557548	keystroke_i	i	n/a
278.819	0.075	557638	keystroke_s	s	n/a
278.984	0.06	557968	keystroke_t	t	n/a
279.149	0.075	558298	keystroke_a	a	n/a
279.209	0.09	558418	keystroke_n	n	n/a
279.344	0.09	558688	keystroke_c	c	n/a
279.539	0.09	559078	keystroke_e	e	n/a
279.734	0.06	559468	keystroke_s	s	n/a
279.809	0.075	559618	keystroke_Key.space	Key.space	n/a
279.914	0.09	559828	keystroke_s	s	n/a
280.544	0.105	561088	keystroke_w	w	n/a
280.649	0.12	561298	keystroke_i	i	n/a
280.844	0.135	561688	keystroke_r	r	n/a
281.054	0.0905	562108	keystroke_m	m	n/a
281.249	0.105	562498	keystroke_Key.space	Key.space	n/a
281.369	0.075	562738	keystroke_c	c	n/a
281.534	0.09	563068	keystroke_r	r	n/a
281.639	0.075	563278	keystroke_i	i	n/a
281.744	0.075	563488	keystroke_t	t	n/a
281.864	0.075	563728	keystroke_i	i	n/a
282.059	0.06	564118	keystroke_c	c	n/a
282.134	0.105	564268	keystroke_i	i	n/a
282.224	0.09	564448	keystroke_s	s	n/a
282.359	0.09	564718	keystroke_m	m	n/a
282.599	0.09	565198	keystroke_Key.enter	Key.enter	n/a
282.6945	6.191	565389	prompt	n/a	active arch which's perspectives\n
283.439	0.09	566878	keystroke_a	a	n/a
283.619	0.09	567238	keystroke_c	c	n/a
283.844	0.06	567688	keystroke_t	t	n/a
283.919	0.09	567838	keystroke_i	i	n/a
284.099	0.09	568198	keystroke_v	v	n/a
284.234	0.075	568468	keystroke_e	e	n/a
284.384	0.105	568768	keystroke_Key.space	Key.space	n/a
284.504	0.075	569008	keystroke_a	a	n/a
284.669	0.06	569338	keystroke_r	r	n/a
284.879	0.075	569758	keystroke_c	c	n/a
285.313	0.121	570626	keystroke_h	h	n/a
285.568	0.0755	571136	keystroke_Key.space	Key.space	n/a
285.704	0.074	571408	keystroke_w	w	n/a
285.8235	0.075	571647	keystroke_h	h	n/a
286.033	0.06	572066	keystroke_i	i	n/a
286.138	0.075	572276	keystroke_c	c	n/a
286.259	0.075	572518	keystroke_h	h	n/a
286.634	0.074	573268	keystroke_'	'	n/a
286.813	0.091	573626	keystroke_s	s	n/a
286.918	0.09	573836	keystroke_Key.space	Key.space	n/a
287.144	0.059	574288	keystroke_p	p	n/a
287.219	0.075	574438	keystroke_e	e	n/a
287.398	0.046	574796	keystroke_r	r	n/a
287.579	0.06	575158	keystroke_s	s	n/a
287.668	0.091	575336	keystroke_p	p	n/a
287.743	0.061	575486	keystroke_e	e	n/a
287.938	0.075	575876	keystroke_c	c	n/a
288.149	0.06	576298	keystroke_t	t	n/a
288.194	0.089	576388	keystroke_i	i	n/a
288.329	0.09	576658	keystroke_v	v	n/a
288.478	0.091	576956	keystroke_e	e	n/a
288.658	0.076	577316	keystroke_s	s	n/a
288.794	0.089	577588	keystroke_Key.enter	Key.enter	n/a
288.891	8.3495	577782	prompt	n/a	rational cultures boxes pioneer\n
289.559	0.089	579118	keystroke_r	r	n/a
289.723	0.105	579446	keystroke_a	a	n/a
289.904	0.089	579808	keystroke_t	t	n/a
289.963	0.076	579926	keystroke_i	i	n/a
290.113	0.121	580226	keystroke_o	o	n/a
290.158	0.165	580316	keystroke_n	n	n/a
290.338	0.105	580676	keystroke_a	a	n/a
290.428	0.076	580856	keystroke_l	l	n/a
290.578	0.106	581156	keystroke_Key.space	Key.space	n/a
290.714	0.074	581428	keystroke_c	c	n/a
290.894	0.06	581788	keystroke_u	u	n/a
291.149	0.105	582298	keystroke_l	l	n/a
291.299	0.06	582598	keystroke_t	t	n/a
291.433	0.09	582866	keystroke_u	u	n/a
291.554	0.134	583108	keystroke_r	r	n/a
291.644	0.074	583288	keystroke_e	e	n/a
291.809	0.075	583618	keystroke_s	s	n/a
291.928	0.075	583856	keystroke_Key.space	Key.space	n/a
292.124	0.06	584248	keystroke_b	b	n/a
292.259	0.075	584518	keystroke_o	o	n/a
292.318	0.105	584636	keystroke_x	x	n/a
292.559	0.075	585118	keystroke_e	e	n/a
292.723	0.09	585446	keystroke_s	s	n/a
292.799	0.074	585598	keystroke_Key.space	Key.space	n/a
292.993	0.076	585986	keystroke_p	p	n/a
293.129	0.075	586258	keystroke_r	r	n/a
293.219	0.15	586438	keystroke_i	i	n/a
293.713	0.075	587426	keystroke_Key.backspace	Key.backspace	n/a
293.833	0.075	587666	keystroke_Key.backspace	Key.backspace	n/a
294.299	0.089	588598	keystroke_i	i	n/a
294.524	0.059	589048	keystroke_o	o	n/a
294.644	0.12	589288	keystroke_o	o	n/a
294.809	0.09	589618	keystroke_n	n	n/a
294.929	0.045	589858	keystroke_e	e	n/a
295.199	0.09	590398	keystroke_e	e	n/a
295.453	0.06	590906	keystroke_Key.backspace	Key.backspace	n/a
295.603	0.06	591206	keystroke_Key.backspace	Key.backspace	n/a
295.753	0.06	591506	keystroke_Key.backspace	Key.backspace	n/a
295.903	0.06	591806	keystroke_Key.backspace	Key.backspace	n/a
296.608	0.075	593216	keystroke_n	n	n/a
296.789	0.045	593578	keystroke_e	e	n/a
296.924	0.045	593848	keystroke_e	e	n/a
297.043	0.076	594086	keystroke_r	r	n/a
297.149	0.089	594298	keystroke_Key.enter	Key.enter	n/a
297.2445	4.316	594489	prompt	n/a	boys module hayes earth\n
297.928	0.09	595856	keystroke_b	b	n/a
298.063	0.105	596126	keystroke_o	o	n/a
298.184	0.09	596368	keystroke_y	y	n/a
298.4235	0.0595	596847	keystroke_s	s	n/a
298.513	0.075	597026	keystroke_Key.space	Key.space	n/a
298.709	0.075	597418	keystroke_m	m	n/a
298.843	0.105	597686	keystroke_o	o	n/a
299.009	0.074	598018	keystroke_d	d	n/a
299.099	0.119	598198	keystroke_u	u	n/a
299.369	0.06	598738	keystroke_l	l	n/a
299.488	0.075	598976	keystroke_e	e	n/a
299.578	0.105	599156	keystroke_Key.space	Key.space	n/a
299.789	0.074	599578	keystroke_h	h	n/a
299.938	0.076	599876	keystroke_a	a	n/a
299.999	0.074	599998	keystroke_y	y	n/a
300.179	0.075	600358	keystroke_e	e	n/a
300.359	0.104	600718	keystroke_s	s	n/a
300.478	0.105	600956	keystroke_Key.space	Key.space	n/a
300.599	0.045	601198	keystroke_e	e	n/a
300.763	0.106	601526	keystroke_a	a	n/a
300.974	0.044	601948	keystroke_r	r	n/a
301.108	0.076	602216	keystroke_t	t	n/a
301.198	0.076	602396	keystroke_h	h	n/a
301.469	0.089	602938	keystroke_Key.enter	Key.enter	n/a
301.565	7.271	603130	prompt	n/a	accounts industry irish vatican\n
302.113	0.091	604226	keystroke_a	a	n/a
302.339	0.06	604678	keystroke_c	c	n/a
302.458	0.091	604916	keystroke_c	c	n/a
302.579	0.074	605158	keystroke_o	o	n/a
302.924	0.105	605848	keystroke_n	n	n/a
303.313	0.06	606626	keystroke_Key.backspace	Key.backspace	n/a
303.644	0.105	607288	keystroke_u	u	n/a
303.869	0.0905	607738	keystroke_n	n	n/a
303.9745	0.0905	607949	keystroke_t	t	n/a
304.215	0.074	608430	keystroke_s	s	n/a
304.335	0.103	608670	keystroke_Key.space	Key.space	n/a
304.543	0.151	609086	keystroke_i	i	n/a
304.649	0.1195	609298	keystroke_n	n	n/a
304.858	0.107	609716	keystroke_d	d	n/a
305.025	0.105	610050	keystroke_u	u	n/a
305.1	0.105	610200	keystroke_s	s	n/a
305.339	0.121	610678	keystroke_t	t	n/a
305.445	0.12	610890	keystroke_r	r	n/a
305.534	0.121	611068	keystroke_y	y	n/a
305.789	0.105	611578	keystroke_Key.space	Key.space	n/a
306.225	0.119	612450	keystroke_i	i	n/a
306.509	0.105	613018	keystroke_r	r	n/a
306.659	0.09	613318	keystroke_i	i	n/a
306.884	0.12	613768	keystroke_s	s	n/a
307.019	0.105	614038	keystroke_h	h	n/a
307.229	0.105	614458	keystroke_Key.space	Key.space	n/a
307.424	0.075	614848	keystroke_v	v	n/a
307.649	0.09	615298	keystroke_a	a	n/a
307.889	0.0755	615778	keystroke_t	t	n/a
308.0685	0.061	616137	keystroke_i	i	n/a
308.2345	0.074	616469	keystroke_c	c	n/a
308.3545	0.1205	616709	keystroke_a	a	n/a
308.475	0.089	616950	keystroke_n	n	n/a
308.744	0.09	617488	keystroke_Key.enter	Key.enter	n/a
308.8395	7.0015	617679	prompt	n/a	warner occupations primary demanding\n
309.599	0.061	619198	keystroke_w	w	n/a
309.779	0.06	619558	keystroke_a	a	n/a
309.974	0.06	619948	keystroke_r	r	n/a
310.079	0.09	620158	keystroke_n	n	n/a
310.154	0.105	620308	keystroke_e	e	n/a
310.304	0.075	620608	keystroke_r	r	n/a
310.499	0.12	620998	keystroke_Key.space	Key.space	n/a
311.009	0.09	622018	keystroke_o	o	n/a
311.355	0.059	622710	keystroke_c	c	n/a
311.504	0.075	623008	keystroke_c	c	n/a
311.609	0.09	623218	keystroke_u	u	n/a
311.849	0.075	623698	keystroke_p	p	n/a
311.969	0.09	623938	keystroke_a	a	n/a
312.164	0.075	624328	keystroke_t	t	n/a
312.539	0.075	625078	keystroke_i	i	n/a
312.719	0.15	625438	keystroke_o	o	n/a
312.84	0.104	625680	keystroke_n	n	n/a
312.989	0.12	625978	keystroke_s	s	n/a
313.079	0.09	626158	keystroke_Key.space	Key.space	n/a
313.304	0.076	626608	keystroke_p	p	n/a
313.469	0.075	626938	keystroke_r	r	n/a
313.649	0.136	627298	keystroke_i	i	n/a
313.92	0.119	627840	keystroke_m	m	n/a
314.024	0.09	628048	keystroke_a	a	n/a
314.219	0.075	628438	keystroke_r	r	n/a
314.399	0.09	628798	keystroke_y	y	n/a
314.609	0.105	629218	keystroke_Key.space	Key.space	n/a
314.729	0.06	629458	keystroke_d	d	n/a
314.849	0.075	629698	keystroke_e	e	n/a
314.939	0.075	629878	keystroke_m	m	n/a
315.089	0.091	630178	keystroke_a	a	n/a
315.224	0.09	630448	keystroke_n	n	n/a
315.344	0.076	630688	keystroke_d	d	n/a
315.404	0.15	630808	keystroke_i	i	n/a
315.464	0.165	630928	keystroke_n	n	n/a
315.599	0.075	631198	keystroke_g	g	n/a
315.749	0.09	631498	keystroke_Key.enter	Key.enter	n/a
315.8445	5.9665	631689	prompt	n/a	catalogs foam kerry duplicate\n
316.529	0.075	633058	keystroke_c	c	n/a
316.694	0.075	633388	keystroke_a	a	n/a
316.889	0.03	633778	keystroke_t	t	n/a
317.099	0.12	634198	keystroke_a	a	n/a
317.279	0.075	634558	keystroke_l	l	n/a
317.459	0.105	634918	keystroke_o	o	n/a
317.609	0.09	635218	keystroke_g	g	n/a
317.79	0.089	635580	keystroke_s	s	n/a
317.969	0.09	635938	keystroke_Key.space	Key.space	n/a
318.105	0.074	636210	keystroke_f	f	n/a
318.269	0.075	636538	keystroke_o	o	n/a
318.569	0.06	637138	keystroke_a	a	n/a
318.689	0.106	637378	keystroke_m	m	n/a
318.884	0.09	637768	keystroke_Key.space	Key.space	n/a
319.019	0.09	638038	keystroke_k	k	n/a
319.14	0.089	638280	keystroke_e	e	n/a
319.349	0.06	638698	keystroke_r	r	n/a
319.469	0.105	638938	keystroke_r	r	n/a
319.544	0.105	639088	keystroke_y	y	n/a
319.799	0.105	639598	keystroke_Key.space	Key.space	n/a
319.949	0.09	639898	keystroke_d	d	n/a
320.054	0.075	640108	keystroke_u	u	n/a
320.294	0.12	640588	keystroke_p	p	n/a
320.384	0.09	640768	keystroke_l	l	n/a
320.579	0.106	641158	keystroke_i	i	n/a
320.714	0.075	641428	keystroke_c	c	n/a
320.819	0.135	641638	keystroke_a	a	n/a
321.105	0.044	642210	keystroke_t	t	n/a
321.134	0.18	642268	keystroke_e	e	n/a
321.719	0.09	643438	keystroke_Key.enter	Key.enter	n/a
321.817	4.7195	643634	prompt	n/a	organized highest wing movie\n
322.47	0.104	644940	keystroke_o	o	n/a
322.649	0.09	645298	keystroke_r	r	n/a
322.784	0.06	645568	keystroke_g	g	n/a
322.979	0.076	645958	keystroke_a	a	n/a
323.084	0.061	646168	keystroke_n	n	n/a
323.159	0.12	646318	keystroke_i	i	n/a
323.309	0.121	646618	keystroke_z	z	n/a
323.579	0.076	647158	keystroke_e	e	n/a
323.744	0.09	647488	keystroke_d	d	n/a
323.864	0.09	647728	keystroke_Key.space	Key.space	n/a
324.044	0.075	648088	keystroke_h	h	n/a
324.224	0.06	648448	keystroke_i	i	n/a
324.314	0.06	648628	keystroke_g	g	n/a
324.404	0.06	648808	keystroke_h	h	n/a
324.584	0.075	649168	keystroke_e	e	n/a
324.764	0.106	649528	keystroke_s	s	n/a
324.974	0.091	649948	keystroke_t	t	n/a
325.094	0.09	650188	keystroke_Key.space	Key.space	n/a
325.199	0.12	650398	keystroke_w	w	n/a
325.274	0.165	650548	keystroke_i	i	n/a
325.365	0.134	650730	keystroke_n	n	n/a
325.515	0.09	651030	keystroke_g	g	n/a
325.664	0.09	651328	keystroke_Key.space	Key.space	n/a
325.874	0.075	651748	keystroke_m	m	n/a
325.964	0.075	651928	keystroke_o	o	n/a
326.054	0.106	652108	keystroke_v	v	n/a
326.174	0.12	652348	keystroke_i	i	n/a
326.279	0.135	652558	keystroke_e	e	n/a
326.429	0.105	652858	keystroke_Key.enter	Key.enter	n/a
326.5455	6.096	653091	prompt	n/a	ratings matt bear classification\n
327.645	0.044	655290	keystroke_r	r	n/a
327.78	0.119	655560	keystroke_a	a	n/a
327.975	0.119	655950	keystroke_t	t	n/a
328.08	0.149	656160	keystroke_i	i	n/a
328.184	0.105	656368	keystroke_n	n	n/a
328.245	0.074	656490	keystroke_g	g	n/a
328.41	0.105	656820	keystroke_s	s	n/a
328.529	0.075	657058	keystroke_Key.space	Key.space	n/a
328.709	0.09	657418	keystroke_m	m	n/a
328.784	0.09	657568	keystroke_a	a	n/a
329.189	0.075	658378	keystroke_t	t	n/a
329.31	0.104	658620	keystroke_t	t	n/a
329.669	0.075	659338	keystroke_Key.space	Key.space	n/a
329.834	0.105	659668	keystroke_b	b	n/a
329.909	0.061	659818	keystroke_e	e	n/a
330.09	0.089	660180	keystroke_a	a	n/a
330.24	0.089	660480	keystroke_r	r	n/a
330.359	0.075	660718	keystroke_Key.space	Key.space	n/a
330.524	0.076	661048	keystroke_c	c	n/a
330.629	0.12	661258	keystroke_l	l	n/a
330.75	0.075	661500	keystroke_a	a	n/a
330.945	0.059	661890	keystroke_s	s	n/a
331.079	0.076	662158	keystroke_s	s	n/a
331.169	0.105	662338	keystroke_i	i	n/a
331.305	0.089	662610	keystroke_f	f	n/a
331.455	0.119	662910	keystroke_i	i	n/a
331.634	0.091	663268	keystroke_c	c	n/a
331.739	0.136	663478	keystroke_a	a	n/a
331.98	0.105	663960	keystroke_t	t	n/a
332.099	0.031	664198	keystroke_i	i	n/a
332.19	0.165	664380	keystroke_o	o	n/a
332.309	0.106	664618	keystroke_n	n	n/a
332.4	0.149	664800	keystroke_s	s	n/a
332.564	0.075	665128	keystroke_Key.enter	Key.enter	n/a
332.6455	6.1015	665291	prompt	n/a	forces seattle bunch requires\n
333.255	0.119	666510	keystroke_f	f	n/a
333.375	0.12	666750	keystroke_o	o	n/a
333.509	0.061	667018	keystroke_r	r	n/a
333.689	0.12	667378	keystroke_c	c	n/a
333.839	0.075	667678	keystroke_e	e	n/a
334.02	0.044	668040	keystroke_s	s	n/a
334.094	0.106	668188	keystroke_Key.space	Key.space	n/a
334.154	0.075	668308	keystroke_s	s	n/a
334.334	0.06	668668	keystroke_e	e	n/a
334.514	0.091	669028	keystroke_a	a	n/a
334.755	0.059	669510	keystroke_t	t	n/a
334.83	0.089	669660	keystroke_t	t	n/a
335.355	0.059	670710	keystroke_e	e	n/a
335.774	0.045	671548	keystroke_Key.backspace	Key.backspace	n/a
335.984	0.076	671968	keystroke_l	l	n/a
336.09	0.074	672180	keystroke_e	e	n/a
336.225	0.104	672450	keystroke_Key.space	Key.space	n/a
336.509	0.046	673018	keystroke_b	b	n/a
336.629	0.076	673258	keystroke_u	u	n/a
336.734	0.135	673468	keystroke_n	n	n/a
336.899	0.076	673798	keystroke_c	c	n/a
336.989	0.121	673978	keystroke_h	h	n/a
337.154	0.09	674308	keystroke_Key.space	Key.space	n/a
337.545	0.15	675090	keystroke_r	r	n/a
337.665	0.059	675330	keystroke_e	e	n/a
337.86	0.06	675720	keystroke_q	q	n/a
338.024	0.076	676048	keystroke_u	u	n/a
338.204	0.076	676408	keystroke_i	i	n/a
338.264	0.151	676528	keystroke_r	r	n/a
338.354	0.09	676708	keystroke_e	e	n/a
338.55	0.074	677100	keystroke_s	s	n/a
338.654	0.09	677308	keystroke_Key.enter	Key.enter	n/a
338.752	6.3095	677504	prompt	n/a	union capacity swedish skirts\n
339.389	0.105	678778	keystroke_u	u	n/a
339.57	0.089	679140	keystroke_n	n	n/a
339.72	0.105	679440	keystroke_i	i	n/a
339.915	0.165	679830	keystroke_o	o	n/a
340.02	0.105	680040	keystroke_n	n	n/a
340.199	0.15	680398	keystroke_Key.space	Key.space	n/a
340.395	0.119	680790	keystroke_c	c	n/a
340.664	0.09	681328	keystroke_a	a	n/a
340.799	0.076	681598	keystroke_p	p	n/a
340.92	0.074	681840	keystroke_a	a	n/a
341.115	0.089	682230	keystroke_c	c	n/a
341.505	0.105	683010	keystroke_i	i	n/a
342.164	0.091	684328	keystroke_t	t	n/a
342.315	0.074	684630	keystroke_y	y	n/a
342.494	0.09	684988	keystroke_Key.space	Key.space	n/a
342.854	0.106	685708	keystroke_s	s	n/a
343.154	0.075	686308	keystroke_w	w	n/a
343.319	0.076	686638	keystroke_e	e	n/a
343.53	0.09	687060	keystroke_d	d	n/a
343.605	0.075	687210	keystroke_i	i	n/a
343.725	0.075	687450	keystroke_s	s	n/a
343.83	0.104	687660	keystroke_h	h	n/a
344.054	0.06	688108	keystroke_Key.space	Key.space	n/a
344.145	0.119	688290	keystroke_s	s	n/a
344.28	0.075	688560	keystroke_k	k	n/a
344.43	0.09	688860	keystroke_i	i	n/a
344.505	0.075	689010	keystroke_r	r	n/a
344.655	0.089	689310	keystroke_t	t	n/a
344.8645	0.0895	689729	keystroke_s	s	n/a
344.969	0.09	689938	keystroke_Key.enter	Key.enter	n/a
345.0655	4.736	690131	prompt	n/a	spare territory goto hotel\n
345.584	0.075	691168	keystroke_s	s	n/a
345.6745	0.1045	691349	keystroke_p	p	n/a
345.809	0.12	691618	keystroke_a	a	n/a
346.019	0.12	692038	keystroke_r	r	n/a
346.095	0.104	692190	keystroke_e	e	n/a
346.214	0.105	692428	keystroke_Key.space	Key.space	n/a
346.334	0.06	692668	keystroke_t	t	n/a
346.424	0.12	692848	keystroke_e	e	n/a
346.679	0.06	693358	keystroke_r	r	n/a
346.814	0.06	693628	keystroke_r	r	n/a
346.949	0.09	693898	keystroke_i	i	n/a
347.145	0.059	694290	keystroke_t	t	n/a
347.264	0.09	694528	keystroke_o	o	n/a
347.369	0.105	694738	keystroke_r	r	n/a
347.714	0.09	695428	keystroke_y	y	n/a
347.894	0.09	695788	keystroke_Key.space	Key.space	n/a
348.074	0.09	696148	keystroke_g	g	n/a
348.209	0.06	696418	keystroke_o	o	n/a
348.27	0.059	696540	keystroke_t	t	n/a
348.374	0.06	696748	keystroke_o	o	n/a
348.614	0.045	697228	keystroke_Key.space	Key.space	n/a
349.139	0.06	698278	keystroke_h	h	n/a
349.229	0.075	698458	keystroke_o	o	n/a
349.394	0.105	698788	keystroke_t	t	n/a
349.484	0.135	698968	keystroke_e	e	n/a
349.545	0.089	699090	keystroke_l	l	n/a
349.694	0.105	699388	keystroke_Key.enter	Key.enter	n/a
349.806	5.6365	699612	prompt	n/a	clara bridal niagara sweden\n
350.549	0.091	701098	keystroke_c	c	n/a
350.654	0.09	701308	keystroke_l	l	n/a
350.759	0.09	701518	keystroke_a	a	n/a
350.954	0.075	701908	keystroke_r	r	n/a
351.119	0.075	702238	keystroke_a	a	n/a
351.194	0.06	702388	keystroke_Key.space	Key.space	n/a
351.359	0.12	702718	keystroke_b	b	n/a
351.524	0.09	703048	keystroke_r	r	n/a
351.629	0.09	703258	keystroke_i	i	n/a
351.749	0.09	703498	keystroke_d	d	n/a
351.899	0.06	703798	keystroke_a	a	n/a
351.974	0.09	703948	keystroke_l	l	n/a
352.169	0.06	704338	keystroke_Key.space	Key.space	n/a
352.349	0.045	704698	keystroke_n	n	n/a
352.425	0.104	704850	keystroke_i	i	n/a
352.514	0.09	705028	keystroke_a	a	n/a
352.724	0.105	705448	keystroke_g	g	n/a
352.859	0.105	705718	keystroke_r	r	n/a
353.564	0.06	707128	keystroke_Key.backspace	Key.backspace	n/a
353.7	0.104	707400	keystroke_a	a	n/a
353.999	0.09	707998	keystroke_r	r	n/a
354.209	0.075	708418	keystroke_a	a	n/a
354.389	0.105	708778	keystroke_Key.space	Key.space	n/a
354.524	0.106	709048	keystroke_s	s	n/a
354.704	0.06	709408	keystroke_w	w	n/a
354.824	0.075	709648	keystroke_e	e	n/a
355.005	0.089	710010	keystroke_d	d	n/a
355.139	0.06	710278	keystroke_e	e	n/a
355.169	0.075	710338	keystroke_n	n	n/a
355.349	0.09	710698	keystroke_Key.enter	Key.enter	n/a
355.448	5.018	710896	prompt	n/a	coupon longer andale exact\n
356.009	0.075	712018	keystroke_c	c	n/a
356.384	0.075	712768	keystroke_o	o	n/a
356.579	0.06	713158	keystroke_u	u	n/a
356.789	0.06	713578	keystroke_p	p	n/a
356.954	0.165	713908	keystroke_o	o	n/a
357.074	0.105	714148	keystroke_n	n	n/a
357.299	0.09	714598	keystroke_Key.space	Key.space	n/a
357.449	0.09	714898	keystroke_l	l	n/a
357.644	0.12	715288	keystroke_o	o	n/a
357.689	0.15	715378	keystroke_n	n	n/a
357.824	0.09	715648	keystroke_g	g	n/a
357.974	0.075	715948	keystroke_e	e	n/a
358.124	0.105	716248	keystroke_r	r	n/a
358.304	0.105	716608	keystroke_Key.space	Key.space	n/a
358.469	0.075	716938	keystroke_a	a	n/a
358.529	0.12	717058	keystroke_n	n	n/a
358.664	0.06	717328	keystroke_d	d	n/a
358.709	0.15	717418	keystroke_a	a	n/a
358.934	0.091	717868	keystroke_l	l	n/a
359.129	0.105	718258	keystroke_e	e	n/a
359.309	0.105	718618	keystroke_Key.space	Key.space	n/a
359.444	0.075	718888	keystroke_e	e	n/a
359.699	0.105	719398	keystroke_x	x	n/a
359.864	0.075	719728	keystroke_a	a	n/a
359.999	0.135	719998	keystroke_c	c	n/a
360.239	0.105	720478	keystroke_t	t	n/a
360.359	0.105	720718	keystroke_Key.enter	Key.enter	n/a
360.4715	5.6795	720943	prompt	n/a	aquarium asia perfect closure\n
361.124	0.105	722248	keystroke_a	a	n/a
361.769	0.105	723538	keystroke_q	q	n/a
362.069	0.12	724138	keystroke_u	u	n/a
362.249	0.12	724498	keystroke_a	a	n/a
362.504	0.105	725008	keystroke_r	r	n/a
362.639	0.075	725278	keystroke_i	i	n/a
362.819	0.09	725638	keystroke_u	u	n/a
363.029	0.09	726058	keystroke_m	m	n/a
363.224	0.105	726448	keystroke_Key.space	Key.space	n/a
363.284	0.09	726568	keystroke_a	a	n/a
363.434	0.09	726868	keystroke_s	s	n/a
363.539	0.09	727078	keystroke_i	i	n/a
363.614	0.105	727228	keystroke_a	a	n/a
363.734	0.105	727468	keystroke_Key.space	Key.space	n/a
363.959	0.09	727918	keystroke_p	p	n/a
364.064	0.075	728128	keystroke_e	e	n/a
364.214	0.075	728428	keystroke_r	r	n/a
364.379	0.075	728758	keystroke_f	f	n/a
364.469	0.075	728938	keystroke_e	e	n/a
364.619	0.105	729238	keystroke_c	c	n/a
364.859	0.09	729718	keystroke_t	t	n/a
364.979	0.105	729958	keystroke_Key.space	Key.space	n/a
365.174	0.075	730348	keystroke_c	c	n/a
365.264	0.09	730528	keystroke_l	l	n/a
365.414	0.105	730828	keystroke_o	o	n/a
365.549	0.105	731098	keystroke_s	s	n/a
365.669	0.105	731338	keystroke_u	u	n/a
365.804	0.135	731608	keystroke_r	r	n/a
365.879	0.166	731758	keystroke_e	e	n/a
366.029	0.12	732058	keystroke_Key.enter	Key.enter	n/a
366.156	5.1255	732312	prompt	n/a	poverty wagner charged strand\n
366.78	0.059	733560	keystroke_p	p	n/a
366.974	0.076	733948	keystroke_o	o	n/a
367.094	0.09	734188	keystroke_v	v	n/a
367.245	0.059	734490	keystroke_e	e	n/a
367.379	0.105	734758	keystroke_r	r	n/a
367.5595	0.0905	735119	keystroke_t	t	n/a
367.7395	0.075	735479	keystroke_y	y	n/a
367.9045	0.09	735809	keystroke_Key.space	Key.space	n/a
368.0845	0.105	736169	keystroke_w	w	n/a
368.3245	0.075	736649	keystroke_a	a	n/a
368.5195	0.075	737039	keystroke_g	g	n/a
368.5795	0.105	737159	keystroke_n	n	n/a
368.6855	0.074	737371	keystroke_e	e	n/a
368.8195	0.105	737639	keystroke_r	r	n/a
368.9845	0.075	737969	keystroke_Key.space	Key.space	n/a
369.1045	0.105	738209	keystroke_c	c	n/a
369.2245	0.09	738449	keystroke_h	h	n/a
369.2695	0.12	738539	keystroke_a	a	n/a
369.4495	0.075	738899	keystroke_r	r	n/a
369.6595	0.09	739319	keystroke_g	g	n/a
369.7345	0.12	739469	keystroke_e	e	n/a
370.0645	0.105	740129	keystroke_d	d	n/a
370.1995	0.105	740399	keystroke_Key.space	Key.space	n/a
370.3195	0.075	740639	keystroke_s	s	n/a
370.5445	0.12	741089	keystroke_t	t	n/a
370.6345	0.075	741269	keystroke_r	r	n/a
370.8445	0.09	741689	keystroke_a	a	n/a
370.9195	0.075	741839	keystroke_n	n	n/a
371.0245	0.105	742049	keystroke_d	d	n/a
371.1895	0.09	742379	keystroke_Key.enter	Key.enter	n/a
371.2865	6.145	742573	prompt	n/a	blah particle painted facilities\n
371.9395	0.105	743879	keystroke_b	b	n/a
372.1795	0.075	744359	keystroke_l	l	n/a
372.3295	0.09	744659	keystroke_a	a	n/a
372.4495	0.135	744899	keystroke_h	h	n/a
372.7045	0.075	745409	keystroke_Key.space	Key.space	n/a
372.9595	0.09	745919	keystroke_p	p	n/a
373.0645	0.105	746129	keystroke_a	a	n/a
373.2445	0.06	746489	keystroke_r	r	n/a
373.3945	0.06	746789	keystroke_t	t	n/a
373.4695	0.105	746939	keystroke_i	i	n/a
373.6495	0.075	747299	keystroke_c	c	n/a
373.7695	0.075	747539	keystroke_l	l	n/a
373.8745	0.105	747749	keystroke_e	e	n/a
373.9945	0.105	747989	keystroke_Key.space	Key.space	n/a
374.2495	0.12	748499	keystroke_p	p	n/a
374.3995	0.105	748799	keystroke_a	a	n/a
374.5195	0.12	749039	keystroke_i	i	n/a
374.6405	0.119	749281	keystroke_n	n	n/a
374.7445	0.09	749489	keystroke_t	t	n/a
374.8195	0.06	749639	keystroke_e	e	n/a
374.9995	0.045	749999	keystroke_d	d	n/a
375.1195	0.105	750239	keystroke_Key.space	Key.space	n/a
375.2845	0.075	750569	keystroke_f	f	n/a
375.4345	0.09	750869	keystroke_a	a	n/a
375.5995	0.09	751199	keystroke_c	c	n/a
375.7795	0.06	751559	keystroke_i	i	n/a
376.0195	0.03	752039	keystroke_l	l	n/a
376.4695	0.12	752939	keystroke_i	i	n/a
376.8145	0.09	753629	keystroke_t	t	n/a
376.9045	0.135	753809	keystroke_i	i	n/a
377.0545	0.09	754109	keystroke_e	e	n/a
377.2345	0.12	754469	keystroke_s	s	n/a
377.3395	0.09	754679	keystroke_Key.enter	Key.enter	n/a
377.4475	7.2585	754895	prompt	n/a	burlington inkjet hunting where's\n
378.1645	0.09	756329	keystroke_b	b	n/a
378.3145	0.09	756629	keystroke_u	u	n/a
378.4345	0.075	756869	keystroke_r	r	n/a
378.5395	0.105	757079	keystroke_l	l	n/a
378.7645	0.105	757529	keystroke_i	i	n/a
378.8545	0.135	757709	keystroke_n	n	n/a
378.9595	0.105	757919	keystroke_g	g	n/a
379.1395	0.09	758279	keystroke_t	t	n/a
379.1845	0.15	758369	keystroke_o	o	n/a
379.2745	0.105	758549	keystroke_n	n	n/a
379.4845	0.09	758969	keystroke_Key.space	Key.space	n/a
379.7395	0.1505	759479	keystroke_i	i	n/a
379.875	0.1035	759750	keystroke_n	n	n/a
380.0985	0.091	760197	keystroke_k	k	n/a
380.3245	0.075	760649	keystroke_j	j	n/a
380.4145	0.134	760829	keystroke_e	e	n/a
380.6095	0.09	761219	keystroke_t	t	n/a
380.7885	0.091	761577	keystroke_Key.space	Key.space	n/a
381.059	0.06	762118	keystroke_h	h	n/a
381.254	0.09	762508	keystroke_u	u	n/a
381.524	0.015	763048	keystroke_n	n	n/a
381.599	0.135	763198	keystroke_t	t	n/a
381.689	0.135	763378	keystroke_i	i	n/a
381.764	0.105	763528	keystroke_n	n	n/a
381.899	0.045	763798	keystroke_g	g	n/a
381.989	0.09	763978	keystroke_Key.space	Key.space	n/a
382.124	0.105	764248	keystroke_w	w	n/a
382.244	0.045	764488	keystroke_h	h	n/a
382.424	0.195	764848	keystroke_r	r	n/a
382.559	0.135	765118	keystroke_e	e	n/a
383.3385	0.06	766677	keystroke_Key.backspace	Key.backspace	n/a
383.4585	0.075	766917	keystroke_Key.backspace	Key.backspace	n/a
383.6395	0.09	767279	keystroke_e	e	n/a
383.7745	0.149	767549	keystroke_r	r	n/a
383.8785	0.091	767757	keystroke_e	e	n/a
384.2985	0.046	768597	keystroke_'	'	n/a
384.3885	0.076	768777	keystroke_s	s	n/a
384.6135	0.09	769227	keystroke_Key.enter	Key.enter	n/a
384.71	7.6165	769420	prompt	n/a	descriptions cheaper completing ending\n
385.5295	0.119	771059	keystroke_d	d	n/a
385.6935	0.045	771387	keystroke_e	e	n/a
385.8445	0.06	771689	keystroke_s	s	n/a
386.0085	0.045	772017	keystroke_c	c	n/a
386.1285	0.076	772257	keystroke_r	r	n/a
386.1895	0.09	772379	keystroke_i	i	n/a
386.3835	0.06	772767	keystroke_p	p	n/a
386.4585	0.09	772917	keystroke_t	t	n/a
386.5945	0.074	773189	keystroke_i	i	n/a
386.7585	0.15	773517	keystroke_o	o	n/a
386.8635	0.12	773727	keystroke_n	n	n/a
386.9535	0.075	773907	keystroke_s	s	n/a
387.0885	0.075	774177	keystroke_Key.space	Key.space	n/a
387.1485	0.106	774297	keystroke_c	c	n/a
387.2995	0.089	774599	keystroke_h	h	n/a
387.3745	0.059	774749	keystroke_e	e	n/a
387.5545	0.089	775109	keystroke_a	a	n/a
387.6295	0.075	775259	keystroke_p	p	n/a
387.8235	0.076	775647	keystroke_e	e	n/a
388.0045	0.12	776009	keystroke_r	r	n/a
388.2295	0.044	776459	keystroke_r	r	n/a
389.2485	0.06	778497	keystroke_Key.backspace	Key.backspace	n/a
389.729	0.105	779458	keystroke_Key.space	Key.space	n/a
389.939	0.09	779878	keystroke_c	c	n/a
390.299	0.15	780598	keystroke_o	o	n/a
390.434	0.105	780868	keystroke_m	m	n/a
390.614	0.15	781228	keystroke_p	p	n/a
390.719	0.09	781438	keystroke_l	l	n/a
390.794	0.09	781588	keystroke_e	e	n/a
390.944	0.105	781888	keystroke_t	t	n/a
391.034	0.09	782068	keystroke_e	e	n/a
391.125	0.119	782250	keystroke_i	i	n/a
391.184	0.15	782368	keystroke_n	n	n/a
391.319	0.075	782638	keystroke_g	g	n/a
391.439	0.09	782878	keystroke_Key.space	Key.space	n/a
391.574	0.105	783148	keystroke_e	e	n/a
391.679	0.105	783358	keystroke_n	n	n/a
391.799	0.105	783598	keystroke_d	d	n/a
391.889	0.135	783778	keystroke_i	i	n/a
391.964	0.135	783928	keystroke_n	n	n/a
392.039	0.135	784078	keystroke_g	g	n/a
392.249	0.075	784498	keystroke_Key.enter	Key.enter	n/a
392.3335	5.377	784667	prompt	n/a	yoga therefore kind jelsoft\n
393.134	0.09	786268	keystroke_y	y	n/a
393.239	0.09	786478	keystroke_o	o	n/a
393.539	0.045	787078	keystroke_g	g	n/a
393.719	0.105	787438	keystroke_a	a	n/a
393.839	0.09	787678	keystroke_Key.space	Key.space	n/a
393.974	0.075	787948	keystroke_t	t	n/a
394.064	0.105	788128	keystroke_h	h	n/a
394.139	0.06	788278	keystroke_e	e	n/a
394.214	0.135	788428	keystroke_r	r	n/a
394.319	0.075	788638	keystroke_e	e	n/a
394.574	0.105	789148	keystroke_f	f	n/a
394.874	0.09	789748	keystroke_o	o	n/a
395.039	0.12	790078	keystroke_r	r	n/a
395.129	0.105	790258	keystroke_e	e	n/a
395.3245	0.0745	790649	keystroke_Key.space	Key.space	n/a
395.534	0.045	791068	keystroke_k	k	n/a
395.699	0.135	791398	keystroke_i	i	n/a
395.804	0.105	791608	keystroke_n	n	n/a
395.894	0.105	791788	keystroke_d	d	n/a
396.269	0.135	792538	keystroke_Key.space	Key.space	n/a
396.464	0.075	792928	keystroke_j	j	n/a
396.599	0.06	793198	keystroke_e	e	n/a
396.674	0.075	793348	keystroke_l	l	n/a
396.839	0.105	793678	keystroke_s	s	n/a
396.959	0.075	793918	keystroke_o	o	n/a
397.199	0.135	794398	keystroke_f	f	n/a
397.499	0.105	794998	keystroke_t	t	n/a
397.634	0.075	795268	keystroke_Key.enter	Key.enter	n/a
397.717	6.549	795434	prompt	n/a	williams tropical depend prefer\n
398.309	0.09	796618	keystroke_w	w	n/a
398.444	0.075	796888	keystroke_i	i	n/a
398.669	0.045	797338	keystroke_l	l	n/a
398.789	0.06	797578	keystroke_l	l	n/a
398.955	0.104	797910	keystroke_i	i	n/a
399.089	0.06	798178	keystroke_a	a	n/a
399.164	0.12	798328	keystroke_m	m	n/a
399.299	0.105	798598	keystroke_s	s	n/a
399.419	0.06	798838	keystroke_Key.space	Key.space	n/a
399.674	0.06	799348	keystroke_t	t	n/a
399.824	0.075	799648	keystroke_r	r	n/a
399.884	0.06	799768	keystroke_o	o	n/a
400.079	0.03	800158	keystroke_p	p	n/a
400.229	0.105	800458	keystroke_i	i	n/a
400.349	0.045	800698	keystroke_c	c	n/a
400.454	0.105	800908	keystroke_a	a	n/a
400.544	0.075	801088	keystroke_l	l	n/a
400.724	0.12	801448	keystroke_Key.space	Key.space	n/a
400.859	0.075	801718	keystroke_d	d	n/a
401.009	0.105	802018	keystroke_e	e	n/a
401.204	0.09	802408	keystroke_f	f	n/a
401.309	0.09	802618	keystroke_e	e	n/a
401.639	0.075	803278	keystroke_Key.backspace	Key.backspace	n/a
401.789	0.075	803578	keystroke_Key.backspace	Key.backspace	n/a
402.629	0.09	805258	keystroke_p	p	n/a
402.734	0.075	805468	keystroke_e	e	n/a
402.854	0.09	805708	keystroke_n	n	n/a
402.989	0.075	805978	keystroke_d	d	n/a
403.094	0.075	806188	keystroke_Key.space	Key.space	n/a
403.274	0.09	806548	keystroke_p	p	n/a
403.349	0.075	806698	keystroke_r	r	n/a
403.559	0.105	807118	keystroke_e	e	n/a
403.754	0.105	807508	keystroke_f	f	n/a
403.904	0.09	807808	keystroke_e	e	n/a
404.039	0.105	808078	keystroke_r	r	n/a
404.189	0.075	808378	keystroke_Key.enter	Key.enter	n/a
404.271	4.766	808542	prompt	n/a	parts tell designers grenada\n
404.834	0.09	809668	keystroke_p	p	n/a
404.939	0.09	809878	keystroke_a	a	n/a
405.104	0.075	810208	keystroke_r	r	n/a
405.239	0.075	810478	keystroke_t	t	n/a
405.434	0.12	810868	keystroke_s	s	n/a
405.569	0.105	811138	keystroke_Key.space	Key.space	n/a
405.689	0.09	811378	keystroke_t	t	n/a
405.764	0.105	811528	keystroke_e	e	n/a
405.884	0.06	811768	keystroke_l	l	n/a
406.004	0.06	812008	keystroke_l	l	n/a
406.184	0.12	812368	keystroke_Key.space	Key.space	n/a
406.259	0.09	812518	keystroke_d	d	n/a
406.409	0.06	812818	keystroke_e	e	n/a
406.574	0.075	813148	keystroke_s	s	n/a
406.664	0.075	813328	keystroke_i	i	n/a
406.784	0.03	813568	keystroke_g	g	n/a
406.844	0.12	813688	keystroke_n	n	n/a
406.919	0.09	813838	keystroke_e	e	n/a
407.114	0.075	814228	keystroke_r	r	n/a
407.324	0.076	814648	keystroke_s	s	n/a
407.414	0.135	814828	keystroke_Key.space	Key.space	n/a
407.714	0.06	815428	keystroke_g	g	n/a
407.969	0.105	815938	keystroke_r	r	n/a
408.044	0.12	816088	keystroke_e	e	n/a
408.254	0.06	816508	keystroke_n	n	n/a
408.329	0.105	816658	keystroke_a	a	n/a
408.539	0.12	817078	keystroke_d	d	n/a
408.614	0.12	817228	keystroke_a	a	n/a
408.884	0.15	817768	keystroke_Key.enter	Key.enter	n/a
409.043	6.279	818086	prompt	n/a	introduces belief paperbacks anna\n
409.68	0.179	819360	keystroke_i	i	n/a
409.829	0.105	819658	keystroke_n	n	n/a
409.919	0.105	819838	keystroke_t	t	n/a
410.025	0.059	820050	keystroke_r	r	n/a
410.054	0.105	820108	keystroke_o	o	n/a
410.204	0.105	820408	keystroke_d	d	n/a
410.324	0.106	820648	keystroke_u	u	n/a
410.444	0.075	820888	keystroke_c	c	n/a
410.594	0.105	821188	keystroke_e	e	n/a
411.014	0.075	822028	keystroke_s	s	n/a
411.239	0.105	822478	keystroke_Key.space	Key.space	n/a
411.509	0.075	823018	keystroke_b	b	n/a
411.719	0.045	823438	keystroke_e	e	n/a
411.824	0.12	823648	keystroke_l	l	n/a
412.064	0.09	824128	keystroke_i	i	n/a
412.139	0.09	824278	keystroke_e	e	n/a
412.304	0.105	824608	keystroke_f	f	n/a
412.454	0.09	824908	keystroke_Key.space	Key.space	n/a
412.694	0.075	825388	keystroke_p	p	n/a
412.814	0.075	825628	keystroke_a	a	n/a
412.859	0.075	825718	keystroke_p	p	n/a
413.039	0.075	826078	keystroke_e	e	n/a
413.189	0.075	826378	keystroke_r	r	n/a
413.309	0.105	826618	keystroke_b	b	n/a
413.474	0.09	826948	keystroke_a	a	n/a
413.684	0.075	827368	keystroke_c	c	n/a
413.774	0.09	827548	keystroke_k	k	n/a
414.224	0.09	828448	keystroke_s	s	n/a
414.389	0.105	828778	keystroke_Key.space	Key.space	n/a
414.524	0.06	829048	keystroke_a	a	n/a
414.764	0.09	829528	keystroke_n	n	n/a
414.944	0.075	829888	keystroke_n	n	n/a
415.034	0.105	830068	keystroke_a	a	n/a
415.199	0.12	830398	keystroke_Key.enter	Key.enter	n/a
415.3295	7.5515	830659	prompt	n/a	compatibility genes parliamentary mature\n
415.994	0.09	831988	keystroke_c	c	n/a
416.114	0.165	832228	keystroke_o	o	n/a
416.309	0.09	832618	keystroke_m	m	n/a
416.474	0.09	832948	keystroke_p	p	n/a
416.594	0.105	833188	keystroke_a	a	n/a
416.879	0.105	833758	keystroke_t	t	n/a
417.299	0.075	834598	keystroke_i	i	n/a
417.554	0.09	835108	keystroke_b	b	n/a
417.764	0.105	835528	keystroke_i	i	n/a
418.034	0.09	836068	keystroke_l	l	n/a
418.229	0.105	836458	keystroke_i	i	n/a
418.379	0.09	836758	keystroke_t	t	n/a
418.529	0.075	837058	keystroke_y	y	n/a
418.679	0.105	837358	keystroke_Key.space	Key.space	n/a
418.874	0.075	837748	keystroke_g	g	n/a
419.099	0.0605	838198	keystroke_e	e	n/a
419.174	0.105	838348	keystroke_n	n	n/a
419.249	0.06	838498	keystroke_e	e	n/a
419.519	0.075	839038	keystroke_s	s	n/a
419.654	0.06	839308	keystroke_Key.space	Key.space	n/a
419.864	0.09	839728	keystroke_p	p	n/a
419.939	0.09	839878	keystroke_a	a	n/a
420.104	0.09	840208	keystroke_r	r	n/a
420.284	0.12	840568	keystroke_l	l	n/a
420.509	0.105	841018	keystroke_i	i	n/a
420.629	0.09	841258	keystroke_a	a	n/a
420.779	0.075	841558	keystroke_m	m	n/a
420.929	0.12	841858	keystroke_e	e	n/a
421.034	0.105	842068	keystroke_n	n	n/a
421.169	0.075	842338	keystroke_t	t	n/a
421.364	0.105	842728	keystroke_a	a	n/a
421.514	0.075	843028	keystroke_r	r	n/a
421.694	0.075	843388	keystroke_y	y	n/a
421.814	0.075	843628	keystroke_Key.space	Key.space	n/a
421.994	0.105	843988	keystroke_m	m	n/a
422.069	0.075	844138	keystroke_a	a	n/a
422.249	0.075	844498	keystroke_t	t	n/a
