onset	duration	sample	value	key	prompt_text
4.953	9.8635	9906	prompt	n/a	the quick brown fox jumps over a lazy dog\n
7.478	0.058	14956	keystroke_t	t	n/a
7.596	0.075	15192	keystroke_h	h	n/a
7.7165	0.0755	15433	keystroke_e	e	n/a
7.807	0.09	15614	keystroke_Key.space	Key.space	n/a
8.1975	0.12	16395	keystroke_q	q	n/a
8.3775	0.12	16755	keystroke_u	u	n/a
8.5125	0.09	17025	keystroke_i	i	n/a
8.5875	0.12	17175	keystroke_c	c	n/a
8.7825	0.09	17565	keystroke_k	k	n/a
9.1275	0.12	18255	keystroke_Key.space	Key.space	n/a
9.5025	0.075	19005	keystroke_b	b	n/a
9.7125	0.12	19425	keystroke_r	r	n/a
9.8175	0.075	19635	keystroke_o	o	n/a
9.9375	0.075	19875	keystroke_w	w	n/a
9.9975	0.12	19995	keystroke_n	n	n/a
10.1325	0.1045	20265	keystroke_Key.space	Key.space	n/a
10.312	0.1205	20624	keystroke_f	f	n/a
10.4475	0.06	20895	keystroke_o	o	n/a
10.5375	0.09	21075	keystroke_x	x	n/a
10.6565	0.136	21313	keystroke_Key.space	Key.space	n/a
10.9725	0.12	21945	keystroke_j	j	n/a
11.1825	0.075	22365	keystroke_u	u	n/a
11.3775	0.18	22755	keystroke_m	m	n/a
11.542	0.0905	23084	keystroke_p	p	n/a
11.6475	0.075	23295	keystroke_s	s	n/a
11.7675	0.1195	23535	keystroke_Key.space	Key.space	n/a
11.932	0.09	23864	keystroke_o	o	n/a
12.052	0.1655	24104	keystroke_v	v	n/a
12.2025	0.135	24405	keystroke_e	e	n/a
12.3225	0.105	24645	keystroke_r	r	n/a
12.5625	0.12	25125	keystroke_Key.space	Key.space	n/a
12.7125	0.105	25425	keystroke_a	a	n/a
12.8475	0.105	25695	keystroke_Key.space	Key.space	n/a
13.0275	0.12	26055	keystroke_l	l	n/a
13.1625	0.12	26325	keystroke_a	a	n/a
13.5825	0.105	27165	keystroke_z	z	n/a
13.7175	0.09	27435	keystroke_y	y	n/a
13.9125	0.1045	27825	keystroke_Key.space	Key.space	n/a
14.092	0.15	28184	keystroke_d	d	n/a
14.257	0.076	28514	keystroke_o	o	n/a
14.378	0.1045	28756	keystroke_g	g	n/a
14.752	0.06	29504	keystroke_Key.enter	Key.enter	n/a
14.8245	9.8745	29649	prompt	n/a	bears homeless honolulu spin\n
15.6525	0.149	31305	keystroke_b	b	n/a
15.7875	0.12	31575	keystroke_e	e	n/a
15.8475	0.1045	31695	keystroke_a	a	n/a
15.983	0.105	31966	keystroke_r	r	n/a
16.193	0.074	32386	keystroke_s	s	n/a
16.327	0.105	32654	keystroke_Key.space	Key.space	n/a
16.642	0.12	33284	keystroke_h	h	n/a
16.777	0.09	33554	keystroke_o	o	n/a
17.212	0.105	34424	keystroke_e	e	n/a
17.332	0.06	34664	keystroke_m	m	n/a
17.692	0.06	35384	keystroke_Key.backspace	Key.backspace	n/a
17.8275	0.09	35655	keystroke_Key.backspace	Key.backspace	n/a
18.0825	0.075	36165	keystroke_m	m	n/a
18.1875	0.09	36375	keystroke_e	e	n/a
18.3375	0.075	36675	keystroke_l	l	n/a
18.4875	0.105	36975	keystroke_e	e	n/a
18.7275	0.075	37455	keystroke_s	s	n/a
18.8775	0.075	37755	keystroke_s	s	n/a
18.9675	0.1045	37935	keystroke_Key.space	Key.space	n/a
19.282	0.12	38564	keystroke_h	h	n/a
19.387	0.15	38774	keystroke_o	o	n/a
20.167	0.12	40334	keystroke_u	u	n/a
20.647	0.09	41294	keystroke_Key.backspace	Key.backspace	n/a
20.9175	0.1045	41835	keystroke_n	n	n/a
21.5325	0.09	43065	keystroke_o	o	n/a
22.1175	0.075	44235	keystroke_l	l	n/a
22.4625	0.075	44925	keystroke_u	u	n/a
22.8975	0.09	45795	keystroke_l	l	n/a
23.092	0.06	46184	keystroke_u	u	n/a
23.527	0.09	47054	keystroke_Key.space	Key.space	n/a
23.977	0.09	47954	keystroke_s	s	n/a
24.082	0.0905	48164	keystroke_p	p	n/a
24.1875	0.15	48375	keystroke_i	i	n/a
24.3075	0.105	48615	keystroke_n	n	n/a
24.6375	0.06	49275	keystroke_Key.enter	Key.enter	n/a
24.705	9.7145	49410	prompt	n/a	breakfast backgrounds east naval\n
25.4925	0.09	50985	keystroke_b	b	n/a
25.8525	0.12	51705	keystroke_r	r	n/a
25.9275	0.135	51855	keystroke_e	e	n/a
26.0175	0.075	52035	keystroke_a	a	n/a
26.1975	0.06	52395	keystroke_k	k	n/a
26.5875	0.12	53175	keystroke_f	f	n/a
26.9925	0.135	53985	keystroke_a	a	n/a
27.1425	0.15	54285	keystroke_s	s	n/a
27.3075	0.105	54615	keystroke_t	t	n/a
27.4575	0.119	54915	keystroke_Key.space	Key.space	n/a
27.8025	0.119	55605	keystroke_b	b	n/a
28.0125	0.12	56025	keystroke_a	a	n/a
28.2075	0.12	56415	keystroke_c	c	n/a
28.3425	0.0605	56685	keystroke_k	k	n/a
28.597	0.105	57194	keystroke_g	g	n/a
28.837	0.15	57674	keystroke_r	r	n/a
28.927	0.12	57854	keystroke_o	o	n/a
29.182	0.09	58364	keystroke_n	n	n/a
29.782	0.045	59564	keystroke_Key.backspace	Key.backspace	n/a
30.097	0.06	60194	keystroke_u	u	n/a
30.322	0.075	60644	keystroke_n	n	n/a
30.442	0.09	60884	keystroke_d	d	n/a
30.667	0.075	61334	keystroke_s	s	n/a
31.1315	0.135	62263	keystroke_Key.space	Key.space	n/a
31.2975	0.15	62595	keystroke_e	e	n/a
31.4175	0.075	62835	keystroke_a	a	n/a
32.0775	0.12	64155	keystroke_s	s	n/a
32.2425	0.12	64485	keystroke_t	t	n/a
32.4075	0.12	64815	keystroke_Key.space	Key.space	n/a
32.6025	0.105	65205	keystroke_n	n	n/a
32.7675	0.105	65535	keystroke_a	a	n/a
32.8425	0.15	65685	keystroke_v	v	n/a
32.9775	0.1195	65955	keystroke_e	e	n/a
33.8175	0.09	67635	keystroke_Key.backspace	Key.backspace	n/a
33.9225	0.09	67845	keystroke_a	a	n/a
34.0725	0.105	68145	keystroke_l	l	n/a
34.3425	0.075	68685	keystroke_Key.enter	Key.enter	n/a
34.426	11.933	68852	prompt	n/a	handmade flows scores electron\n
35.287	0.105	70574	keystroke_h	h	n/a
35.377	0.15	70754	keystroke_a	a	n/a
35.542	0.135	71084	keystroke_m	m	n/a
35.692	0.105	71384	keystroke_d	d	n/a
36.502	0.06	73004	keystroke_Key.backspace	Key.backspace	n/a
36.652	0.075	73304	keystroke_Key.backspace	Key.backspace	n/a
36.817	0.045	73634	keystroke_Key.backspace	Key.backspace	n/a
37.537	0.105	75074	keystroke_a	a	n/a
37.777	0.09	75554	keystroke_n	n	n/a
37.883	0.104	75766	keystroke_d	d	n/a
38.152	0.135	76304	keystroke_m	m	n/a
38.258	0.119	76516	keystroke_a	a	n/a
38.423	0.0745	76846	keystroke_d	d	n/a
38.5875	0.09	77175	keystroke_e	e	n/a
38.6925	0.105	77385	keystroke_Key.space	Key.space	n/a
38.8875	0.12	77775	keystroke_f	f	n/a
38.9775	0.09	77955	keystroke_l	l	n/a
39.1725	0.06	78345	keystroke_o	o	n/a
39.5475	0.045	79095	keystroke_w	w	n/a
39.7275	0.12	79455	keystroke_s	s	n/a
39.8925	0.105	79785	keystroke_Key.space	Key.space	n/a
40.2075	0.135	80415	keystroke_s	s	n/a
40.4625	0.135	80925	keystroke_c	c	n/a
40.7925	0.09	81585	keystroke_r	r	n/a
40.8375	0.075	81675	keystroke_o	o	n/a
41.4225	0.075	82845	keystroke_Key.backspace	Key.backspace	n/a
41.5725	0.06	83145	keystroke_Key.backspace	Key.backspace	n/a
41.7975	0.0595	83595	keystroke_o	o	n/a
41.887	0.12	83774	keystroke_r	r	n/a
41.992	0.105	83984	keystroke_e	e	n/a
42.217	0.105	84434	keystroke_s	s	n/a
42.592	0.105	85184	keystroke_e	e	n/a
42.682	0.075	85364	keystroke_l	l	n/a
42.787	0.135	85574	keystroke_e	e	n/a
43.252	0.06	86504	keystroke_Key.backspace	Key.backspace	n/a
43.417	0.0605	86834	keystroke_Key.backspace	Key.backspace	n/a
43.5525	0.075	87105	keystroke_Key.backspace	Key.backspace	n/a
44.5125	0.075	89025	keystroke_Key.space	Key.space	n/a
44.8575	0.105	89715	keystroke_e	e	n/a
45.0075	0.105	90015	keystroke_l	l	n/a
45.1275	0.09	90255	keystroke_e	e	n/a
45.3525	0.12	90705	keystroke_c	c	n/a
45.6075	0.09	91215	keystroke_t	t	n/a
45.8175	0.105	91635	keystroke_r	r	n/a
45.9375	0.12	91875	keystroke_o	o	n/a
46.0125	0.12	92025	keystroke_n	n	n/a
46.2825	0.075	92565	keystroke_Key.enter	Key.enter	n/a
46.366	26.2735	92732	prompt	n/a	suspension parents temperatures allowance\n
47.2125	0.135	94425	keystroke_s	s	n/a
47.4525	0.12	94905	keystroke_u	u	n/a
47.6025	0.105	95205	keystroke_p	p	n/a
47.7825	0.105	95565	keystroke_s	s	n/a
48.6825	0.105	97365	keystroke_e	e	n/a
48.8175	0.09	97635	keystroke_n	n	n/a
49.072	0.121	98144	keystroke_s	s	n/a
49.237	0.21	98474	keystroke_i	i	n/a
49.372	0.136	98744	keystroke_o	o	n/a
49.478	0.104	98956	keystroke_n	n	n/a
49.612	0.1045	99224	keystroke_Key.space	Key.space	n/a
50.0025	0.06	100005	keystroke_p	p	n/a
50.0775	0.105	100155	keystroke_a	a	n/a
50.3175	0.12	100635	keystroke_r	r	n/a
53.86	0	107720	keystroke_Key.backspace	Key.backspace	n/a
54.1425	0.06	108285	keystroke_Key.backspace	Key.backspace	n/a
54.2925	0.06	108585	keystroke_Key.backspace	Key.backspace	n/a
54.4425	0.06	108885	keystroke_Key.backspace	Key.backspace	n/a
54.6075	0.045	109215	keystroke_Key.backspace	Key.backspace	n/a
54.7575	0.045	109515	keystroke_Key.backspace	Key.backspace	n/a
54.9075	0.06	109815	keystroke_Key.backspace	Key.backspace	n/a
55.072	0.045	110144	keystroke_Key.backspace	Key.backspace	n/a
55.222	0.045	110444	keystroke_Key.backspace	Key.backspace	n/a
55.372	0.06	110744	keystroke_Key.backspace	Key.backspace	n/a
55.537	0.06	111074	keystroke_Key.backspace	Key.backspace	n/a
55.867	0.105	111734	keystroke_e	e	n/a
56.002	0.075	112004	keystroke_n	n	n/a
56.182	0.09	112364	keystroke_s	s	n/a
56.497	0.225	112994	keystroke_i	i	n/a
56.602	0.135	113204	keystroke_o	o	n/a
56.707	0.1205	113414	keystroke_n	n	n/a
56.8875	0.09	113775	keystroke_Key.space	Key.space	n/a
59.8745	0.013	119749	keystroke_Key.backspace	Key.backspace	n/a
59.9775	0.075	119955	keystroke_Key.backspace	Key.backspace	n/a
60.1425	0.06	120285	keystroke_Key.backspace	Key.backspace	n/a
60.3075	0.06	120615	keystroke_Key.backspace	Key.backspace	n/a
60.4725	0.045	120945	keystroke_Key.backspace	Key.backspace	n/a
60.6225	0.06	121245	keystroke_Key.backspace	Key.backspace	n/a
60.7725	0.075	121545	keystroke_Key.backspace	Key.backspace	n/a
60.9525	0.075	121905	keystroke_Key.backspace	Key.backspace	n/a
61.2525	0.075	122505	keystroke_s	s	n/a
61.7925	0.105	123585	keystroke_p	p	n/a
62.0325	0.09	124065	keystroke_e	e	n/a
62.1525	0.105	124305	keystroke_n	n	n/a
62.347	0.075	124694	keystroke_s	s	n/a
62.467	0.18	124934	keystroke_i	i	n/a
62.572	0.12	125144	keystroke_o	o	n/a
62.662	0.135	125324	keystroke_n	n	n/a
62.812	0.105	125624	keystroke_Key.space	Key.space	n/a
63.533	0.089	127066	keystroke_p	p	n/a
63.6375	0.105	127275	keystroke_a	a	n/a
63.8325	0.12	127665	keystroke_r	r	n/a
64.4925	0.105	128985	keystroke_e	e	n/a
64.6425	0.09	129285	keystroke_n	n	n/a
64.7625	0.075	129525	keystroke_t	t	n/a
64.9725	0.075	129945	keystroke_s	s	n/a
65.0625	0.105	130125	keystroke_Key.space	Key.space	n/a
65.4225	0.105	130845	keystroke_t	t	n/a
65.4975	0.075	130995	keystroke_e	e	n/a
65.6625	0.15	131325	keystroke_m	m	n/a
65.7975	0.06	131595	keystroke_p	p	n/a
66.8175	0.075	133635	keystroke_a	a	n/a
67.2525	0.0445	134505	keystroke_Key.backspace	Key.backspace	n/a
67.312	0.12	134624	keystroke_e	e	n/a
67.657	0.12	135314	keystroke_r	r	n/a
68.272	0.091	136544	keystroke_a	a	n/a
68.497	0.12	136994	keystroke_t	t	n/a
68.692	0.075	137384	keystroke_u	u	n/a
68.782	0.075	137564	keystroke_r	r	n/a
68.812	0.12	137624	keystroke_e	e	n/a
69.022	0.1055	138044	keystroke_s	s	n/a
69.1415	0.121	138283	keystroke_Key.space	Key.space	n/a
69.3675	0.09	138735	keystroke_a	a	n/a
69.5175	0.075	139035	keystroke_l	l	n/a
69.6675	0.09	139335	keystroke_l	l	n/a
69.8925	0.075	139785	keystroke_o	o	n/a
70.0275	0.075	140055	keystroke_w	w	n/a
70.3125	0.045	140625	keystroke_e	e	n/a
70.9275	0.15	141855	keystroke_Key.backspace	Key.backspace	n/a
71.2725	0.12	142545	keystroke_a	a	n/a
71.4075	0.075	142815	keystroke_n	n	n/a
71.5575	0.09	143115	keystroke_c	c	n/a
71.7675	0.06	143535	keystroke_e	e	n/a
72.5625	0.075	145125	keystroke_Key.enter	Key.enter	n/a
72.644	9.416	145288	prompt	n/a	victim darwin there'll carries\n
73.4325	0.135	146865	keystroke_v	v	n/a
73.5825	0.06	147165	keystroke_i	i	n/a
73.6725	0.135	147345	keystroke_c	c	n/a
73.8975	0.15	147795	keystroke_t	t	n/a
74.632	0.09	149264	keystroke_i	i	n/a
74.707	0.03	149414	keystroke_m	m	n/a
74.752	0.12	149504	keystroke_Key.space	Key.space	n/a
75.0525	0.12	150105	keystroke_d	d	n/a
75.6525	0.21	151305	keystroke_a	a	n/a
75.907	0.09	151814	keystroke_r	r	n/a
76.252	0.09	152504	keystroke_w	w	n/a
76.537	0.12	153074	keystroke_i	i	n/a
76.642	0.15	153284	keystroke_n	n	n/a
76.807	0.1055	153614	keystroke_Key.space	Key.space	n/a
77.272	0.105	154544	keystroke_t	t	n/a
77.422	0.045	154844	keystroke_h	h	n/a
77.557	0.135	155114	keystroke_e	e	n/a
77.707	0.12	155414	keystroke_r	r	n/a
77.812	0.105	155624	keystroke_e	e	n/a
79.222	0.075	158444	keystroke_'	'	n/a
79.432	0.09	158864	keystroke_l	l	n/a
79.582	0.09	159164	keystroke_l	l	n/a
80.1075	0.09	160215	keystroke_Key.space	Key.space	n/a
80.7075	0.15	161415	keystroke_c	c	n/a
80.8575	0.09	161715	keystroke_a	a	n/a
81.0975	0.075	162195	keystroke_r	r	n/a
81.2625	0.09	162525	keystroke_r	r	n/a
81.4575	0.06	162915	keystroke_i	i	n/a
81.5475	0.105	163095	keystroke_e	e	n/a
81.8025	0.075	163605	keystroke_s	s	n/a
81.9825	0.075	163965	keystroke_Key.enter	Key.enter	n/a
82.067	10.6585	164134	prompt	n/a	pieces auctions exercise switching\n
82.927	0.075	165854	keystroke_p	p	n/a
83.107	0.075	166214	keystroke_i	i	n/a
83.722	0.09	167444	keystroke_e	e	n/a
84.022	0.105	168044	keystroke_c	c	n/a
84.607	0.105	169214	keystroke_e	e	n/a
84.832	0.06	169664	keystroke_s	s	n/a
84.967	0.0905	169934	keystroke_Key.space	Key.space	n/a
85.1625	0.105	170325	keystroke_a	a	n/a
85.4475	0.104	170895	keystroke_u	u	n/a
85.6875	0.135	171375	keystroke_c	c	n/a
86.0325	0.09	172065	keystroke_t	t	n/a
86.1225	0.195	172245	keystroke_i	i	n/a
86.2275	0.105	172455	keystroke_o	o	n/a
86.303	0.1045	172606	keystroke_n	n	n/a
86.4975	0.09	172995	keystroke_s	s	n/a
86.6765	0.106	173353	keystroke_Key.space	Key.space	n/a
86.948	0.105	173896	keystroke_e	e	n/a
87.172	0.135	174344	keystroke_x	x	n/a
87.592	0.075	175184	keystroke_e	e	n/a
88.237	0.136	176474	keystroke_r	r	n/a
88.642	0.12	177284	keystroke_c	c	n/a
88.777	0.075	177554	keystroke_i	i	n/a
88.942	0.075	177884	keystroke_s	s	n/a
89.602	0.075	179204	keystroke_e	e	n/a
89.797	0.12	179594	keystroke_Key.space	Key.space	n/a
90.112	0.03	180224	keystroke_w	w	n/a
90.652	0.075	181304	keystroke_Key.backspace	Key.backspace	n/a
90.757	0.105	181514	keystroke_s	s	n/a
91.042	0.09	182084	keystroke_w	w	n/a
91.267	0.06	182534	keystroke_i	i	n/a
91.507	0.09	183014	keystroke_t	t	n/a
91.822	0.12	183644	keystroke_c	c	n/a
91.957	0.105	183914	keystroke_h	h	n/a
92.047	0.15	184094	keystroke_i	i	n/a
92.167	0.12	184334	keystroke_n	n	n/a
92.272	0.105	184544	keystroke_g	g	n/a
92.647	0.075	185294	keystroke_Key.enter	Key.enter	n/a
92.734	10.895	185468	prompt	n/a	blackberry phenomenon retailers kept\n
93.5475	0.135	187095	keystroke_b	b	n/a
93.8625	0.075	187725	keystroke_l	l	n/a
93.9675	0.09	187935	keystroke_a	a	n/a
94.1325	0.1045	188265	keystroke_c	c	n/a
94.252	0.06	188504	keystroke_k	k	n/a
94.477	0.105	188954	keystroke_b	b	n/a
94.702	0.106	189404	keystroke_e	e	n/a
94.8975	0.09	189795	keystroke_r	r	n/a
95.0775	0.12	190155	keystroke_r	r	n/a
95.2575	0.09	190515	keystroke_y	y	n/a
95.4075	0.104	190815	keystroke_Key.space	Key.space	n/a
95.8725	0.105	191745	keystroke_p	p	n/a
96.0375	0.104	192075	keystroke_h	h	n/a
96.667	0.105	193334	keystroke_e	e	n/a
96.982	0.091	193964	keystroke_n	n	n/a
97.3565	0.105	194713	keystroke_o	o	n/a
97.822	0.075	195644	keystroke_m	m	n/a
98.2265	0.106	196453	keystroke_e	e	n/a
98.4375	0.03	196875	keystroke_n	n	n/a
99.232	0.091	198464	keystroke_o	o	n/a
99.352	0.15	198704	keystroke_n	n	n/a
100.162	0.105	200324	keystroke_Key.space	Key.space	n/a
100.507	0.09	201014	keystroke_r	r	n/a
100.567	0.106	201134	keystroke_e	e	n/a
100.9275	0.105	201855	keystroke_t	t	n/a
101.182	0.12	202364	keystroke_a	a	n/a
101.602	0.106	203204	keystroke_i	i	n/a
101.7675	0.105	203535	keystroke_l	l	n/a
101.9025	0.135	203805	keystroke_e	e	n/a
102.0075	0.105	204015	keystroke_r	r	n/a
102.2325	0.09	204465	keystroke_s	s	n/a
102.6225	0.09	205245	keystroke_Key.space	Key.space	n/a
102.7725	0.135	205545	keystroke_k	k	n/a
102.9375	0.105	205875	keystroke_e	e	n/a
103.1475	0.105	206295	keystroke_p	p	n/a
103.3425	0.105	206685	keystroke_t	t	n/a
103.5525	0.075	207105	keystroke_Key.enter	Key.enter	n/a
103.6345	12.0995	207269	prompt	n/a	surgeon architectural obituaries programs\n
104.4525	0.12	208905	keystroke_s	s	n/a
104.6925	0.09	209385	keystroke_u	u	n/a
105.0525	0.105	210105	keystroke_r	r	n/a
105.3225	0.045	210645	keystroke_g	g	n/a
106.2525	0.09	212505	keystroke_e	e	n/a
106.4925	0.09	212985	keystroke_o	o	n/a
106.5825	0.15	213165	keystroke_n	n	n/a
106.7475	0.09	213495	keystroke_Key.space	Key.space	n/a
107.182	0.12	214364	keystroke_a	a	n/a
107.407	0.09	214814	keystroke_r	r	n/a
107.677	0.12	215354	keystroke_c	c	n/a
107.917	0.0755	215834	keystroke_h	h	n/a
108.2025	0.09	216405	keystroke_i	i	n/a
108.4425	0.09	216885	keystroke_t	t	n/a
108.7275	0.09	217455	keystroke_e	e	n/a
108.9675	0.119	217935	keystroke_c	c	n/a
109.1925	0.12	218385	keystroke_t	t	n/a
109.4925	0.075	218985	keystroke_u	u	n/a
109.5975	0.179	219195	keystroke_r	r	n/a
109.7615	0.106	219523	keystroke_a	a	n/a
109.8825	0.12	219765	keystroke_l	l	n/a
110.0465	0.1205	220093	keystroke_Key.space	Key.space	n/a
110.5565	0.075	221113	keystroke_o	o	n/a
110.6915	0.106	221383	keystroke_b	b	n/a
110.932	0.075	221864	keystroke_i	i	n/a
111.352	0.105	222704	keystroke_t	t	n/a
111.922	0.06	223844	keystroke_u	u	n/a
112.177	0.09	224354	keystroke_a	a	n/a
112.7325	0.105	225465	keystroke_r	r	n/a
113.0775	0.075	226155	keystroke_i	i	n/a
113.6175	0.09	227235	keystroke_e	e	n/a
113.8425	0.06	227685	keystroke_s	s	n/a
113.9625	0.09	227925	keystroke_Key.space	Key.space	n/a
114.4725	0.075	228945	keystroke_p	p	n/a
114.6075	0.105	229215	keystroke_r	r	n/a
114.7125	0.09	229425	keystroke_o	o	n/a
114.8475	0.09	229695	keystroke_g	g	n/a
115.042	0.151	230084	keystroke_r	r	n/a
115.1765	0.106	230353	keystroke_a	a	n/a
115.3265	0.1505	230653	keystroke_m	m	n/a
115.507	0.09	231014	keystroke_s	s	n/a
115.657	0.075	231314	keystroke_Key.enter	Key.enter	n/a
115.7385	8.6955	231477	prompt	n/a	council winning ease birth\n
116.557	0.135	233114	keystroke_c	c	n/a
116.662	0.12	233324	keystroke_o	o	n/a
116.767	0.12	233534	keystroke_n	n	n/a
117.202	0.061	234404	keystroke_u	u	n/a
117.727	0.06	235454	keystroke_Key.backspace	Key.backspace	n/a
117.877	0.0595	235754	keystroke_Key.backspace	Key.backspace	n/a
118.117	0.0455	236234	keystroke_u	u	n/a
118.5525	0.105	237105	keystroke_c	c	n/a
119.407	0.06	238814	keystroke_Key.backspace	Key.backspace	n/a
119.647	0.075	239294	keystroke_n	n	n/a
119.902	0.12	239804	keystroke_c	c	n/a
120.052	0.0605	240104	keystroke_i	i	n/a
120.2325	0.09	240465	keystroke_l	l	n/a
120.3825	0.135	240765	keystroke_Key.space	Key.space	n/a
120.7125	0.09	241425	keystroke_w	w	n/a
121.087	0.075	242174	keystroke_i	i	n/a
121.327	0.06	242654	keystroke_n	n	n/a
121.477	0.09	242954	keystroke_n	n	n/a
121.597	0.12	243194	keystroke_i	i	n/a
121.687	0.09	243374	keystroke_n	n	n/a
121.822	0.105	243644	keystroke_g	g	n/a
121.912	0.075	243824	keystroke_Key.space	Key.space	n/a
122.197	0.12	244394	keystroke_e	e	n/a
122.422	0.135	244844	keystroke_a	a	n/a
122.647	0.09	245294	keystroke_s	s	n/a
122.962	0.105	245924	keystroke_e	e	n/a
123.142	0.105	246284	keystroke_Key.space	Key.space	n/a
123.382	0.105	246764	keystroke_b	b	n/a
123.712	0.105	247424	keystroke_i	i	n/a
123.832	0.105	247664	keystroke_r	r	n/a
124.027	0.09	248054	keystroke_t	t	n/a
124.147	0.09	248294	keystroke_h	h	n/a
124.3725	0.059	248745	keystroke_Key.enter	Key.enter	n/a
124.4385	9.7905	248877	prompt	n/a	blond math editing clearance\n
125.2125	0.119	250425	keystroke_b	b	n/a
125.3765	0.076	250753	keystroke_l	l	n/a
125.5565	0.075	251113	keystroke_o	o	n/a
125.6475	0.09	251295	keystroke_n	n	n/a
125.7215	0.075	251443	keystroke_d	d	n/a
126.442	0.09	252884	keystroke_Key.space	Key.space	n/a
126.907	0.136	253814	keystroke_m	m	n/a
126.997	0.12	253994	keystroke_a	a	n/a
127.147	0.121	254294	keystroke_t	t	n/a
127.387	0.06	254774	keystroke_h	h	n/a
127.507	0.1195	255014	keystroke_Key.space	Key.space	n/a
128.0625	0.075	256125	keystroke_e	e	n/a
128.2575	0.09	256515	keystroke_d	d	n/a
128.4075	0.075	256815	keystroke_i	i	n/a
128.6175	0.075	257235	keystroke_t	t	n/a
128.7675	0.09	257535	keystroke_t	t	n/a
128.8575	0.09	257715	keystroke_i	i	n/a
128.9175	0.105	257835	keystroke_n	n	n/a
129.097	0.09	258194	keystroke_g	g	n/a
129.247	0.09	258494	keystroke_Key.space	Key.space	n/a
129.997	0.06	259994	keystroke_Key.backspace	Key.backspace	n/a
130.162	0.045	260324	keystroke_Key.backspace	Key.backspace	n/a
130.312	0.045	260624	keystroke_Key.backspace	Key.backspace	n/a
130.447	0.075	260894	keystroke_Key.backspace	Key.backspace	n/a
131.0465	0.06	262093	keystroke_Key.backspace	Key.backspace	n/a
131.3315	0.135	262663	keystroke_i	i	n/a
131.4365	0.106	262873	keystroke_n	n	n/a
131.6015	0.061	263203	keystroke_g	g	n/a
131.6465	0.075	263293	keystroke_Key.space	Key.space	n/a
132.2465	0.12	264493	keystroke_c	c	n/a
132.3815	0.091	264763	keystroke_l	l	n/a
132.5315	0.12	265063	keystroke_e	e	n/a
132.6365	0.136	265273	keystroke_a	a	n/a
132.8165	0.105	265633	keystroke_r	r	n/a
133.372	0.136	266744	keystroke_a	a	n/a
133.627	0.075	267254	keystroke_n	n	n/a
133.747	0.075	267494	keystroke_c	c	n/a
133.927	0.075	267854	keystroke_e	e	n/a
134.182	0.045	268364	keystroke_Key.enter	Key.enter	n/a
134.235	10.719	268470	prompt	n/a	taxation damaged belgium derby\n
135.1725	0.149	270345	keystroke_t	t	n/a
135.3365	0.106	270673	keystroke_a	a	n/a
135.6375	0.119	271275	keystroke_x	x	n/a
135.9225	0.119	271845	keystroke_a	a	n/a
136.1765	0.09	272353	keystroke_t	t	n/a
136.7915	0.1805	273583	keystroke_i	i	n/a
136.8815	0.135	273763	keystroke_o	o	n/a
137.002	0.1195	274004	keystroke_n	n	n/a
137.137	0.1055	274274	keystroke_Key.space	Key.space	n/a
137.542	0.135	275084	keystroke_d	d	n/a
137.722	0.12	275444	keystroke_a	a	n/a
137.887	0.12	275774	keystroke_m	m	n/a
138.008	0.119	276016	keystroke_a	a	n/a
138.457	0.12	276914	keystroke_g	g	n/a
138.727	0.135	277454	keystroke_e	e	n/a
139.027	0.105	278054	keystroke_d	d	n/a
139.297	0.0455	278594	keystroke_Key.space	Key.space	n/a
139.5225	0.09	279045	keystroke_b	b	n/a
139.6575	0.075	279315	keystroke_l	l	n/a
139.9725	0.075	279945	keystroke_e	e	n/a
140.5575	0.06	281115	keystroke_Key.backspace	Key.backspace	n/a
140.6925	0.075	281385	keystroke_Key.backspace	Key.backspace	n/a
140.7675	0.075	281535	keystroke_e	e	n/a
140.9325	0.09	281865	keystroke_l	l	n/a
141.442	0.105	282884	keystroke_g	g	n/a
141.727	0.075	283454	keystroke_i	i	n/a
141.937	0.06	283874	keystroke_u	u	n/a
142.177	0.105	284354	keystroke_m	m	n/a
142.297	0.105	284594	keystroke_Key.space	Key.space	n/a
143.662	0.0905	287324	keystroke_d	d	n/a
144.0075	0.1495	288015	keystroke_e	e	n/a
144.142	0.106	288284	keystroke_r	r	n/a
144.397	0.105	288794	keystroke_b	b	n/a
144.622	0.06	289244	keystroke_y	y	n/a
144.862	0.09	289724	keystroke_Key.enter	Key.enter	n/a
144.96	9.729	289920	prompt	n/a	urls philippines consistency grace\n
146.257	0.075	292514	keystroke_u	u	n/a
146.452	0.135	292904	keystroke_r	r	n/a
146.602	0.09	293204	keystroke_l	l	n/a
146.737	0.075	293474	keystroke_s	s	n/a
146.902	0.105	293804	keystroke_Key.space	Key.space	n/a
147.262	0.105	294524	keystroke_p	p	n/a
147.487	0.075	294974	keystroke_h	h	n/a
148.3425	0.09	296685	keystroke_i	i	n/a
148.6425	0.105	297285	keystroke_l	l	n/a
148.8225	0.075	297645	keystroke_i	i	n/a
149.242	0.075	298484	keystroke_p	p	n/a
149.4225	0.06	298845	keystroke_p	p	n/a
149.6475	0.09	299295	keystroke_i	i	n/a
149.7525	0.105	299505	keystroke_n	n	n/a
149.9625	0.075	299925	keystroke_e	e	n/a
150.1725	0.075	300345	keystroke_s	s	n/a
150.2915	0.075	300583	keystroke_Key.space	Key.space	n/a
150.5475	0.15	301095	keystroke_c	c	n/a
150.6665	0.091	301333	keystroke_o	o	n/a
150.7415	0.105	301483	keystroke_n	n	n/a
151.0425	0.075	302085	keystroke_s	s	n/a
152.1525	0.06	304305	keystroke_i	i	n/a
152.3175	0.12	304635	keystroke_s	s	n/a
152.6025	0.09	305205	keystroke_t	t	n/a
152.8125	0.105	305625	keystroke_e	e	n/a
152.962	0.09	305924	keystroke_n	n	n/a
153.097	0.12	306194	keystroke_c	c	n/a
153.232	0.06	306464	keystroke_y	y	n/a
153.352	0.12	306704	keystroke_Key.space	Key.space	n/a
153.607	0.105	307214	keystroke_g	g	n/a
153.832	0.15	307664	keystroke_r	r	n/a
153.952	0.12	307904	keystroke_a	a	n/a
154.207	0.105	308414	keystroke_c	c	n/a
154.4165	0.061	308833	keystroke_e	e	n/a
154.6265	0.06	309253	keystroke_Key.enter	Key.enter	n/a
154.695	12.7585	309390	prompt	n/a	hosted prospects context concern\n
155.527	0.12	311054	keystroke_h	h	n/a
155.632	0.075	311264	keystroke_o	o	n/a
155.737	0.12	311474	keystroke_s	s	n/a
155.917	0.075	311834	keystroke_t	t	n/a
156.262	0.0745	312524	keystroke_e	e	n/a
156.4715	0.075	312943	keystroke_d	d	n/a
156.6515	0.03	313303	keystroke_Key.space	Key.space	n/a
156.9815	0.09	313963	keystroke_p	p	n/a
157.1315	0.105	314263	keystroke_o	o	n/a
157.2815	0.105	314563	keystroke_r	r	n/a
157.5225	0.059	315045	keystroke_s	s	n/a
159.292	0.06	318584	keystroke_Key.backspace	Key.backspace	n/a
159.4575	0.0595	318915	keystroke_Key.backspace	Key.backspace	n/a
159.607	0.0755	319214	keystroke_Key.backspace	Key.backspace	n/a
159.8175	0.105	319635	keystroke_r	r	n/a
159.9975	0.06	319995	keystroke_o	o	n/a
160.1625	0.09	320325	keystroke_s	s	n/a
161.6025	0.0745	323205	keystroke_p	p	n/a
161.767	0.09	323534	keystroke_e	e	n/a
161.977	0.09	323954	keystroke_c	c	n/a
162.172	0.075	324344	keystroke_t	t	n/a
162.472	0.06	324944	keystroke_s	s	n/a
163.0565	0.105	326113	keystroke_Key.space	Key.space	n/a
163.3265	0.165	326653	keystroke_c	c	n/a
163.4775	0.089	326955	keystroke_o	o	n/a
163.5515	0.09	327103	keystroke_n	n	n/a
163.9865	0.075	327973	keystroke_t	t	n/a
164.2115	0.076	328423	keystroke_e	e	n/a
164.4525	0.089	328905	keystroke_x	x	n/a
164.6465	0.09	329293	keystroke_t	t	n/a
165.1265	0.09	330253	keystroke_Key.space	Key.space	n/a
165.4265	0.12	330853	keystroke_c	c	n/a
165.5615	0.061	331123	keystroke_o	o	n/a
165.6075	0.09	331215	keystroke_n	n	n/a
166.2525	0.075	332505	keystroke_c	c	n/a
166.5075	0.1195	333015	keystroke_e	e	n/a
166.612	0.09	333224	keystroke_r	r	n/a
166.792	0.09	333584	keystroke_t	t	n/a
167.0615	0.06	334123	keystroke_n	n	n/a
167.3775	0.074	334755	keystroke_Key.enter	Key.enter	n/a
167.459	11.29	334918	prompt	n/a	arrangement rouge inspection mightn't\n
168.757	0.105	337514	keystroke_a	a	n/a
168.982	0.0905	337964	keystroke_r	r	n/a
169.1475	0.12	338295	keystroke_r	r	n/a
169.4025	0.1045	338805	keystroke_a	a	n/a
169.867	0.06	339734	keystroke_n	n	n/a
169.957	0.105	339914	keystroke_g	g	n/a
170.122	0.136	340244	keystroke_e	e	n/a
170.602	0.105	341204	keystroke_m	m	n/a
170.662	0.105	341324	keystroke_e	e	n/a
170.797	0.075	341594	keystroke_n	n	n/a
170.887	0.09	341774	keystroke_t	t	n/a
171.022	0.12	342044	keystroke_Key.space	Key.space	n/a
171.382	0.135	342764	keystroke_r	r	n/a
171.502	0.12	343004	keystroke_o	o	n/a
171.592	0.105	343184	keystroke_u	u	n/a
171.757	0.105	343514	keystroke_g	g	n/a
172.417	0.06	344834	keystroke_e	e	n/a
172.567	0.1055	345134	keystroke_Key.space	Key.space	n/a
172.8075	0.09	345615	keystroke_i	i	n/a
172.9115	0.1355	345823	keystroke_n	n	n/a
173.242	0.075	346484	keystroke_s	s	n/a
173.5115	0.105	347023	keystroke_p	p	n/a
173.7225	0.104	347445	keystroke_e	e	n/a
173.9615	0.121	347923	keystroke_c	c	n/a
174.562	0.09	349124	keystroke_t	t	n/a
174.787	0.195	349574	keystroke_i	i	n/a
174.862	0.105	349724	keystroke_o	o	n/a
174.952	0.12	349904	keystroke_n	n	n/a
175.102	0.12	350204	keystroke_Key.space	Key.space	n/a
175.402	0.135	350804	keystroke_m	m	n/a
175.522	0.105	351044	keystroke_i	i	n/a
175.747	0.12	351494	keystroke_g	g	n/a
175.897	0.075	351794	keystroke_h	h	n/a
176.032	0.09	352064	keystroke_t	t	n/a
176.902	0.105	353804	keystroke_n	n	n/a
177.2165	0.105	354433	keystroke_'	'	n/a
177.4415	0.09	354883	keystroke_t	t	n/a
178.672	0.0755	357344	keystroke_Key.enter	Key.enter	n/a
178.7545	10.644	357509	prompt	n/a	countries accidents motherboard foot\n
179.737	0.09	359474	keystroke_c	c	n/a
179.842	0.09	359684	keystroke_o	o	n/a
179.917	0.12	359834	keystroke_n	n	n/a
180.532	0.06	361064	keystroke_Key.backspace	Key.backspace	n/a
180.772	0.03	361544	keystroke_u	u	n/a
180.937	0.075	361874	keystroke_n	n	n/a
181.147	0.075	362294	keystroke_t	t	n/a
181.342	0.105	362684	keystroke_r	r	n/a
181.477	0.075	362954	keystroke_i	i	n/a
181.597	0.075	363194	keystroke_e	e	n/a
181.792	0.06	363584	keystroke_s	s	n/a
181.927	0.075	363854	keystroke_Key.space	Key.space	n/a
182.317	0.09	364634	keystroke_a	a	n/a
182.602	0.075	365204	keystroke_c	c	n/a
182.782	0.105	365564	keystroke_c	c	n/a
183.082	0.045	366164	keystroke_i	i	n/a
183.3215	0.075	366643	keystroke_d	d	n/a
183.5015	0.06	367003	keystroke_e	e	n/a
183.6065	0.076	367213	keystroke_n	n	n/a
183.7415	0.075	367483	keystroke_t	t	n/a
183.997	0.0595	367994	keystroke_s	s	n/a
184.732	0.09	369464	keystroke_Key.space	Key.space	n/a
185.1065	0.135	370213	keystroke_m	m	n/a
185.2265	0.135	370453	keystroke_o	o	n/a
185.3765	0.0905	370753	keystroke_n	n	n/a
186.1275	0.09	372255	keystroke_Key.backspace	Key.backspace	n/a
186.2625	0.105	372525	keystroke_t	t	n/a
186.4125	0.06	372825	keystroke_h	h	n/a
186.5175	0.105	373035	keystroke_e	e	n/a
186.6075	0.105	373215	keystroke_r	r	n/a
186.8925	0.15	373785	keystroke_b	b	n/a
187.0725	0.075	374145	keystroke_o	o	n/a
187.1775	0.12	374355	keystroke_a	a	n/a
187.372	0.075	374744	keystroke_r	r	n/a
187.582	0.0905	375164	keystroke_d	d	n/a
188.4675	0.135	376935	keystroke_Key.space	Key.space	n/a
188.6625	0.135	377325	keystroke_f	f	n/a
188.8575	0.06	377715	keystroke_o	o	n/a
188.9925	0.0895	377985	keystroke_o	o	n/a
189.172	0.06	378344	keystroke_t	t	n/a
189.337	0.06	378674	keystroke_Key.enter	Key.enter	n/a
189.4035	11.0955	378807	prompt	n/a	exceptional dover substantially necessity\n
190.2665	0.12	380533	keystroke_e	e	n/a
190.5215	0.105	381043	keystroke_x	x	n/a
191.0465	0.09	382093	keystroke_c	c	n/a
191.257	0.0595	382514	keystroke_e	e	n/a
191.5265	0.075	383053	keystroke_p	p	n/a
192.3365	0.105	384673	keystroke_t	t	n/a
192.5015	0.21	385003	keystroke_i	i	n/a
192.6065	0.12	385213	keystroke_o	o	n/a
192.6965	0.12	385393	keystroke_n	n	n/a
192.8615	0.09	385723	keystroke_a	a	n/a
192.9965	0.0905	385993	keystroke_l	l	n/a
193.147	0.09	386294	keystroke_Key.space	Key.space	n/a
193.717	0.1205	387434	keystroke_d	d	n/a
193.9425	0.075	387885	keystroke_o	o	n/a
194.1965	0.151	388393	keystroke_v	v	n/a
194.6175	0.12	389235	keystroke_e	e	n/a
194.7225	0.09	389445	keystroke_r	r	n/a
194.9465	0.1055	389893	keystroke_Key.space	Key.space	n/a
195.157	0.12	390314	keystroke_s	s	n/a
195.337	0.06	390674	keystroke_u	u	n/a
195.502	0.09	391004	keystroke_b	b	n/a
195.757	0.0905	391514	keystroke_s	s	n/a
196.042	0.105	392084	keystroke_t	t	n/a
196.267	0.105	392534	keystroke_a	a	n/a
196.4765	0.075	392953	keystroke_n	n	n/a
197.0015	0.106	394003	keystroke_t	t	n/a
197.1815	0.09	394363	keystroke_i	i	n/a
197.4365	0.09	394873	keystroke_a	a	n/a
197.5715	0.0755	395143	keystroke_l	l	n/a
197.7365	0.09	395473	keystroke_l	l	n/a
197.9465	0.075	395893	keystroke_y	y	n/a
198.0665	0.135	396133	keystroke_Key.space	Key.space	n/a
198.3065	0.105	396613	keystroke_n	n	n/a
198.4415	0.09	396883	keystroke_e	e	n/a
198.6965	0.12	397393	keystroke_c	c	n/a
199.0265	0.12	398053	keystroke_e	e	n/a
199.2965	0.045	398593	keystroke_s	s	n/a
199.4465	0.06	398893	keystroke_s	s	n/a
199.6565	0.075	399313	keystroke_i	i	n/a
199.8815	0.0905	399763	keystroke_t	t	n/a
200.032	0.0745	400064	keystroke_y	y	n/a
200.4065	0.09	400813	keystroke_Key.enter	Key.enter	n/a
200.506	9.413	401012	prompt	n/a	barriers beer cables oldest\n
201.3525	0.12	402705	keystroke_b	b	n/a
201.6825	0.105	403365	keystroke_a	a	n/a
202.0125	0.075	404025	keystroke_r	r	n/a
202.1765	0.09	404353	keystroke_r	r	n/a
202.3865	0.061	404773	keystroke_i	i	n/a
202.4775	0.105	404955	keystroke_e	e	n/a
203.512	0.06	407024	keystroke_r	r	n/a
203.737	0.075	407474	keystroke_s	s	n/a
203.932	0.09	407864	keystroke_Key.space	Key.space	n/a
204.187	0.09	408374	keystroke_b	b	n/a
204.547	0.045	409094	keystroke_e	e	n/a
204.787	0.075	409574	keystroke_r	r	n/a
205.3565	0.06	410713	keystroke_Key.backspace	Key.backspace	n/a
205.4465	0.12	410893	keystroke_e	e	n/a
205.5515	0.105	411103	keystroke_r	r	n/a
205.7765	0.075	411553	keystroke_Key.space	Key.space	n/a
206.3465	0.165	412693	keystroke_c	c	n/a
206.4815	0.105	412963	keystroke_a	a	n/a
206.6765	0.1055	413353	keystroke_b	b	n/a
206.917	0.075	413834	keystroke_l	l	n/a
207.037	0.075	414074	keystroke_e	e	n/a
207.427	0.09	414854	keystroke_s	s	n/a
207.892	0.105	415784	keystroke_Key.space	Key.space	n/a
208.252	0.075	416504	keystroke_o	o	n/a
208.792	0.075	417584	keystroke_l	l	n/a
208.927	0.09	417854	keystroke_d	d	n/a
209.212	0.075	418424	keystroke_e	e	n/a
209.452	0.0745	418904	keystroke_s	s	n/a
209.6315	0.09	419263	keystroke_t	t	n/a
209.8565	0.06	419713	keystroke_Key.enter	Key.enter	n/a
209.925	7.6285	419850	prompt	n/a	algebra auctions plot travis\n
210.6665	0.09	421333	keystroke_a	a	n/a
210.8015	0.105	421603	keystroke_l	l	n/a
211.0865	0.105	422173	keystroke_g	g	n/a
211.4615	0.09	422923	keystroke_e	e	n/a
211.7465	0.09	423493	keystroke_b	b	n/a
212.1515	0.1505	424303	keystroke_r	r	n/a
212.272	0.105	424544	keystroke_a	a	n/a
212.4815	0.0905	424963	keystroke_Key.space	Key.space	n/a
212.677	0.135	425354	keystroke_a	a	n/a
212.932	0.105	425864	keystroke_u	u	n/a
213.0815	0.135	426163	keystroke_c	c	n/a
213.3665	0.12	426733	keystroke_t	t	n/a
213.4725	0.314	426945	keystroke_i	i	n/a
213.6065	0.15	427213	keystroke_o	o	n/a
213.7415	0.15	427483	keystroke_n	n	n/a
213.9965	0.105	427993	keystroke_s	s	n/a
214.252	0.12	428504	keystroke_Key.space	Key.space	n/a
214.7175	0.12	429435	keystroke_p	p	n/a
215.1365	0.075	430273	keystroke_l	l	n/a
215.3165	0.075	430633	keystroke_o	o	n/a
215.5415	0.09	431083	keystroke_t	t	n/a
215.6765	0.09	431353	keystroke_Key.space	Key.space	n/a
216.1715	0.06	432343	keystroke_t	t	n/a
216.517	0.15	433034	keystroke_r	r	n/a
216.652	0.09	433304	keystroke_a	a	n/a
216.907	0.12	433814	keystroke_v	v	n/a
217.072	0.09	434144	keystroke_i	i	n/a
217.222	0.09	434444	keystroke_s	s	n/a
217.462	0.0895	434924	keystroke_Key.enter	Key.enter	n/a
217.563	7.7155	435126	prompt	n/a	likewise write door featured\n
218.2425	0.104	436485	keystroke_l	l	n/a
218.3915	0.075	436783	keystroke_i	i	n/a
218.6615	0.075	437323	keystroke_k	k	n/a
219.1265	0.12	438253	keystroke_e	e	n/a
219.5165	0.12	439033	keystroke_w	w	n/a
220.0715	0.075	440143	keystroke_i	i	n/a
220.1615	0.105	440323	keystroke_s	s	n/a
220.2215	0.12	440443	keystroke_e	e	n/a
220.4475	0.075	440895	keystroke_Key.space	Key.space	n/a
221.212	0.12	442424	keystroke_w	w	n/a
221.512	0.12	443024	keystroke_r	r	n/a
221.647	0.075	443294	keystroke_i	i	n/a
221.812	0.09	443624	keystroke_t	t	n/a
221.887	0.105	443774	keystroke_e	e	n/a
222.022	0.105	444044	keystroke_Key.space	Key.space	n/a
222.517	0.135	445034	keystroke_d	d	n/a
222.682	0.075	445364	keystroke_o	o	n/a
222.847	0.075	445694	keystroke_o	o	n/a
222.997	0.1055	445994	keystroke_r	r	n/a
223.1465	0.09	446293	keystroke_Key.space	Key.space	n/a
223.7775	0.09	447555	keystroke_f	f	n/a
223.9425	0.164	447885	keystroke_e	e	n/a
224.0625	0.104	448125	keystroke_a	a	n/a
224.3175	0.119	448635	keystroke_t	t	n/a
224.5565	0.06	449113	keystroke_u	u	n/a
224.6465	0.136	449293	keystroke_r	r	n/a
224.7515	0.15	449503	keystroke_e	e	n/a
225.0365	0.0755	450073	keystroke_d	d	n/a
225.232	0.045	450464	keystroke_Key.enter	Key.enter	n/a
225.2825	12.356	450565	prompt	n/a	membrane athletics cursor continuous\n
226.0725	0.135	452145	keystroke_m	m	n/a
226.3265	0.09	452653	keystroke_e	e	n/a
226.4025	0.12	452805	keystroke_m	m	n/a
227.332	0.075	454664	keystroke_b	b	n/a
227.677	0.165	455354	keystroke_r	r	n/a
227.827	0.105	455654	keystroke_a	a	n/a
227.977	0.09	455954	keystroke_n	n	n/a
228.097	0.105	456194	keystroke_c	c	n/a
228.307	0.075	456614	keystroke_e	e	n/a
229.0865	0.06	458173	keystroke_Key.backspace	Key.backspace	n/a
229.2515	0.075	458503	keystroke_Key.backspace	Key.backspace	n/a
229.4315	0.075	458863	keystroke_e	e	n/a
229.597	0.06	459194	keystroke_Key.space	Key.space	n/a
230.302	0.09	460604	keystroke_a	a	n/a
230.782	0.12	461564	keystroke_t	t	n/a
230.932	0.075	461864	keystroke_h	h	n/a
231.217	0.075	462434	keystroke_l	l	n/a
231.742	0.09	463484	keystroke_e	e	n/a
232.087	0.105	464174	keystroke_t	t	n/a
232.267	0.06	464534	keystroke_i	i	n/a
232.387	0.12	464774	keystroke_c	c	n/a
232.627	0.075	465254	keystroke_s	s	n/a
232.777	0.09	465554	keystroke_Key.space	Key.space	n/a
233.062	0.135	466124	keystroke_c	c	n/a
233.257	0.045	466514	keystroke_u	u	n/a
233.482	0.105	466964	keystroke_r	r	n/a
233.827	0.075	467654	keystroke_s	s	n/a
234.397	0.09	468794	keystroke_o	o	n/a
234.592	0.09	469184	keystroke_r	r	n/a
234.683	0.104	469366	keystroke_Key.space	Key.space	n/a
235.072	0.12	470144	keystroke_c	c	n/a
235.267	0.1195	470534	keystroke_o	o	n/a
235.552	0.075	471104	keystroke_n	n	n/a
235.822	0.075	471644	keystroke_t	t	n/a
235.942	0.09	471884	keystroke_i	i	n/a
236.047	0.15	472094	keystroke_n	n	n/a
236.752	0.06	473504	keystroke_u	u	n/a
237.007	0.1055	474014	keystroke_o	o	n/a
237.1575	0.09	474315	keystroke_u	u	n/a
237.3375	0.06	474675	keystroke_s	s	n/a
237.5615	0.075	475123	keystroke_Key.enter	Key.enter	n/a
237.644	8.6945	475288	prompt	n/a	despite lead responded furnished\n
238.4775	0.105	476955	keystroke_d	d	n/a
238.6875	0.105	477375	keystroke_e	e	n/a
239.0775	0.089	478155	keystroke_s	s	n/a
239.662	0.1045	479324	keystroke_p	p	n/a
239.857	0.0745	479714	keystroke_i	i	n/a
240.0515	0.1355	480103	keystroke_t	t	n/a
240.172	0.09	480344	keystroke_e	e	n/a
240.292	0.12	480584	keystroke_Key.space	Key.space	n/a
240.487	0.12	480974	keystroke_l	l	n/a
240.592	0.12	481184	keystroke_e	e	n/a
240.7265	0.15	481453	keystroke_a	a	n/a
240.9965	0.09	481993	keystroke_d	d	n/a
241.1765	0.105	482353	keystroke_Key.space	Key.space	n/a
241.7165	0.135	483433	keystroke_r	r	n/a
241.7915	0.12	483583	keystroke_e	e	n/a
242.0315	0.105	484063	keystroke_s	s	n/a
242.1965	0.1055	484393	keystroke_p	p	n/a
242.377	0.165	484754	keystroke_o	o	n/a
242.527	0.075	485054	keystroke_n	n	n/a
243.2025	0.105	486405	keystroke_d	d	n/a
243.4275	0.075	486855	keystroke_e	e	n/a
243.6075	0.09	487215	keystroke_d	d	n/a
243.7275	0.135	487455	keystroke_Key.space	Key.space	n/a
244.4175	0.135	488835	keystroke_f	f	n/a
244.642	0.075	489284	keystroke_u	u	n/a
244.972	0.09	489944	keystroke_r	r	n/a
245.212	0.105	490424	keystroke_n	n	n/a
245.377	0.09	490754	keystroke_i	i	n/a
245.527	0.105	491054	keystroke_s	s	n/a
245.647	0.075	491294	keystroke_h	h	n/a
245.857	0.09	491714	keystroke_e	e	n/a
246.067	0.12	492134	keystroke_d	d	n/a
246.247	0.0895	492494	keystroke_Key.enter	Key.enter	n/a
246.3435	12.1605	492687	prompt	n/a	what're yard scientific predictions\n
247.1765	0.15	494353	keystroke_w	w	n/a
247.4465	0.061	494893	keystroke_h	h	n/a
247.5365	0.1205	495073	keystroke_a	a	n/a
248.287	0.105	496574	keystroke_t	t	n/a
248.452	0.105	496904	keystroke_'	'	n/a
248.692	0.105	497384	keystroke_r	r	n/a
248.842	0.09	497684	keystroke_Key.space	Key.space	n/a
249.397	0.075	498794	keystroke_Key.backspace	Key.backspace	n/a
249.532	0.09	499064	keystroke_e	e	n/a
249.682	0.09	499364	keystroke_Key.space	Key.space	n/a
250.177	0.03	500354	keystroke_y	y	n/a
250.222	0.12	500444	keystroke_a	a	n/a
250.4165	0.105	500833	keystroke_r	r	n/a
250.6115	0.09	501223	keystroke_d	d	n/a
250.7165	0.105	501433	keystroke_Key.space	Key.space	n/a
251.407	0.105	502814	keystroke_s	s	n/a
251.662	0.1345	503324	keystroke_c	c	n/a
251.9315	0.075	503863	keystroke_i	i	n/a
252.2165	0.12	504433	keystroke_e	e	n/a
252.4415	0.06	504883	keystroke_n	n	n/a
253.1925	0.12	506385	keystroke_t	t	n/a
253.3725	0.075	506745	keystroke_i	i	n/a
253.5075	0.12	507015	keystroke_f	f	n/a
253.9725	0.075	507945	keystroke_i	i	n/a
254.0915	0.121	508183	keystroke_c	c	n/a
254.2425	0.089	508485	keystroke_Key.space	Key.space	n/a
255.5025	0.089	511005	keystroke_p	p	n/a
255.907	0.165	511814	keystroke_r	r	n/a
256.042	0.105	512084	keystroke_e	e	n/a
256.342	0.12	512684	keystroke_d	d	n/a
256.582	0.06	513164	keystroke_i	i	n/a
256.7475	0.045	513495	keystroke_t	t	n/a
257.1975	0.089	514395	keystroke_Key.backspace	Key.backspace	n/a
257.4975	0.135	514995	keystroke_c	c	n/a
257.7665	0.106	515533	keystroke_t	t	n/a
257.8875	0.194	515775	keystroke_i	i	n/a
257.9915	0.105	515983	keystroke_o	o	n/a
258.0665	0.12	516133	keystroke_n	n	n/a
258.2325	0.09	516465	keystroke_s	s	n/a
258.4265	0.075	516853	keystroke_Key.enter	Key.enter	n/a
258.5095	8.769	517019	prompt	n/a	vsnet origin ongoing incl\n
259.6265	0.061	519253	keystroke_v	v	n/a
260.0325	0.09	520065	keystroke_s	s	n/a
260.2425	0.105	520485	keystroke_n	n	n/a
260.4075	0.12	520815	keystroke_e	e	n/a
260.5725	0.105	521145	keystroke_t	t	n/a
260.7065	0.0905	521413	keystroke_Key.space	Key.space	n/a
261.157	0.09	522314	keystroke_o	o	n/a
261.277	0.1195	522554	keystroke_r	r	n/a
261.757	0.075	523514	keystroke_i	i	n/a
261.892	0.075	523784	keystroke_g	g	n/a
262.342	0.135	524684	keystroke_i	i	n/a
262.447	0.15	524894	keystroke_n	n	n/a
262.612	0.105	525224	keystroke_Key.space	Key.space	n/a
262.972	0.0905	525944	keystroke_o	o	n/a
263.0465	0.105	526093	keystroke_n	n	n/a
263.3025	0.044	526605	keystroke_g	g	n/a
263.7965	0.24	527593	keystroke_o	o	n/a
264.0215	0.135	528043	keystroke_i	i	n/a
264.1415	0.105	528283	keystroke_n	n	n/a
264.3515	0.09	528703	keystroke_g	g	n/a
265.267	0.045	530534	keystroke_Key.space	Key.space	n/a
265.477	0.09	530954	keystroke_i	i	n/a
266.002	0.075	532004	keystroke_n	n	n/a
266.692	0.1495	533384	keystroke_c	c	n/a
266.8425	0.089	533685	keystroke_l	l	n/a
267.2165	0.06	534433	keystroke_Key.enter	Key.enter	n/a
267.284	20.08	534568	prompt	n/a	incorporated tennessee elimination responded\n
268.2815	0.075	536563	keystroke_i	i	n/a
268.4165	0.105	536833	keystroke_n	n	n/a
269.2415	0.165	538483	keystroke_c	c	n/a
269.467	0.105	538934	keystroke_o	o	n/a
269.902	0.1205	539804	keystroke_r	r	n/a
270.3975	0.09	540795	keystroke_p	p	n/a
271.057	0.105	542114	keystroke_o	o	n/a
271.207	0.15	542414	keystroke_r	r	n/a
271.312	0.135	542624	keystroke_a	a	n/a
271.462	0.12	542924	keystroke_t	t	n/a
271.612	0.09	543224	keystroke_e	e	n/a
271.822	0.09	543644	keystroke_d	d	n/a
271.927	0.135	543854	keystroke_Key.space	Key.space	n/a
272.167	0.1045	544334	keystroke_t	t	n/a
272.2415	0.105	544483	keystroke_e	e	n/a
272.4665	0.09	544933	keystroke_n	n	n/a
272.767	0.075	545534	keystroke_n	n	n/a
273.472	0.1045	546944	keystroke_e	e	n/a
274.0575	0.045	548115	keystroke_s	s	n/a
274.1925	0.089	548385	keystroke_s	s	n/a
274.4025	0.12	548805	keystroke_e	e	n/a
274.972	0.075	549944	keystroke_e	e	n/a
275.497	0.045	550994	keystroke_Key.space	Key.space	n/a
275.557	0.09	551114	keystroke_e	e	n/a
275.722	0.09	551444	keystroke_l	l	n/a
276.037	0.09	552074	keystroke_i	i	n/a
276.232	0.15	552464	keystroke_m	m	n/a
279.159	0.043	558318	keystroke_i	i	n/a
279.262	0.12	558524	keystroke_n	n	n/a
279.487	0.105	558974	keystroke_a	a	n/a
279.652	0.135	559304	keystroke_t	t	n/a
280.252	0.2245	560504	keystroke_i	i	n/a
280.3865	0.136	560773	keystroke_o	o	n/a
280.4615	0.165	560923	keystroke_n	n	n/a
280.6415	0.09	561283	keystroke_Key.space	Key.space	n/a
281.0315	0.105	562063	keystroke_e	e	n/a
281.4965	0.075	562993	keystroke_Key.backspace	Key.backspace	n/a
281.5865	0.15	563173	keystroke_r	r	n/a
281.6915	0.09	563383	keystroke_e	e	n/a
281.9165	0.105	563833	keystroke_s	s	n/a
282.1115	0.09	564223	keystroke_p	p	n/a
282.2765	0.1205	564553	keystroke_o	o	n/a
282.382	0.105	564764	keystroke_n	n	n/a
282.652	0.12	565304	keystroke_s	s	n/a
282.892	0.105	565784	keystroke_e	e	n/a
283.447	0.06	566894	keystroke_Key.backspace	Key.backspace	n/a
283.612	0.105	567224	keystroke_d	d	n/a
284.692	0.09	569384	keystroke_Key.backspace	Key.backspace	n/a
284.857	0.09	569714	keystroke_d	d	n/a
285.037	0.09	570074	keystroke_e	e	n/a
285.247	0.045	570494	keystroke_d	d	n/a
285.5625	0.059	571125	keystroke_Key.backspace	Key.backspace	n/a
285.7115	0.06	571423	keystroke_Key.backspace	Key.backspace	n/a
285.8765	0.06	571753	keystroke_Key.backspace	Key.backspace	n/a
286.0115	0.075	572023	keystroke_Key.backspace	Key.backspace	n/a
286.5815	0.09	573163	keystroke_d	d	n/a
286.7765	0.09	573553	keystroke_e	e	n/a
286.9715	0.0905	573943	keystroke_d	d	n/a
287.287	0.075	574574	keystroke_Key.enter	Key.enter	n/a
287.37	7.4635	574740	prompt	n/a	claims disclaimer many checklist\n
288.592	0.12	577184	keystroke_c	c	n/a
288.727	0.075	577454	keystroke_l	l	n/a
288.862	0.075	577724	keystroke_a	a	n/a
289.132	0.09	578264	keystroke_i	i	n/a
289.267	0.12	578534	keystroke_m	m	n/a
289.462	0.075	578924	keystroke_s	s	n/a
289.657	0.105	579314	keystroke_Key.space	Key.space	n/a
289.957	0.12	579914	keystroke_d	d	n/a
290.107	0.075	580214	keystroke_i	i	n/a
290.242	0.105	580484	keystroke_s	s	n/a
290.497	0.12	580994	keystroke_c	c	n/a
290.812	0.09	581624	keystroke_l	l	n/a
291.262	0.105	582524	keystroke_a	a	n/a
291.547	0.075	583094	keystroke_i	i	n/a
291.742	0.105	583484	keystroke_m	m	n/a
291.997	0.1045	583994	keystroke_e	e	n/a
292.087	0.12	584174	keystroke_r	r	n/a
292.207	0.105	584414	keystroke_Key.space	Key.space	n/a
292.462	0.12	584924	keystroke_m	m	n/a
292.552	0.1195	585104	keystroke_a	a	n/a
292.6565	0.105	585313	keystroke_n	n	n/a
292.8665	0.0605	585733	keystroke_y	y	n/a
293.002	0.1055	586004	keystroke_Key.space	Key.space	n/a
293.4675	0.105	586935	keystroke_c	c	n/a
293.5875	0.09	587175	keystroke_h	h	n/a
293.6925	0.105	587385	keystroke_e	e	n/a
293.9325	0.12	587865	keystroke_c	c	n/a
294.0525	0.075	588105	keystroke_k	k	n/a
294.2325	0.12	588465	keystroke_l	l	n/a
294.3975	0.06	588795	keystroke_i	i	n/a
294.5025	0.105	589005	keystroke_s	s	n/a
294.6375	0.105	589275	keystroke_t	t	n/a
294.7715	0.06	589543	keystroke_Key.enter	Key.enter	n/a
294.8405	9.383	589681	prompt	n/a	located demonstrates painful meal\n
295.822	0.09	591644	keystroke_l	l	n/a
295.987	0.075	591974	keystroke_o	o	n/a
296.092	0.15	592184	keystroke_c	c	n/a
296.287	0.075	592574	keystroke_a	a	n/a
296.422	0.12	592844	keystroke_t	t	n/a
296.527	0.09	593054	keystroke_e	e	n/a
296.722	0.0755	593444	keystroke_d	d	n/a
296.8865	0.075	593773	keystroke_Key.space	Key.space	n/a
297.697	0.105	595394	keystroke_d	d	n/a
297.907	0.09	595814	keystroke_e	e	n/a
298.042	0.12	596084	keystroke_m	m	n/a
298.747	0.105	597494	keystroke_o	o	n/a
299.032	0.075	598064	keystroke_n	n	n/a
299.542	0.135	599084	keystroke_s	s	n/a
299.767	0.075	599534	keystroke_t	t	n/a
299.947	0.12	599894	keystroke_r	r	n/a
300.022	0.165	600044	keystroke_a	a	n/a
300.172	0.12	600344	keystroke_t	t	n/a
300.712	0.09	601424	keystroke_e	e	n/a
300.952	0.075	601904	keystroke_s	s	n/a
301.2215	0.075	602443	keystroke_Key.space	Key.space	n/a
301.7015	0.105	603403	keystroke_p	p	n/a
301.867	0.1045	603734	keystroke_a	a	n/a
302.0015	0.135	604003	keystroke_i	i	n/a
302.1215	0.09	604243	keystroke_n	n	n/a
302.4215	0.12	604843	keystroke_f	f	n/a
302.587	0.075	605174	keystroke_u	u	n/a
302.812	0.105	605624	keystroke_l	l	n/a
302.977	0.105	605954	keystroke_Key.space	Key.space	n/a
303.217	0.12	606434	keystroke_m	m	n/a
303.322	0.105	606644	keystroke_e	e	n/a
303.382	0.12	606764	keystroke_a	a	n/a
303.907	0.09	607814	keystroke_l	l	n/a
304.147	0.075	608294	keystroke_Key.enter	Key.enter	n/a
304.228	15.5055	608456	prompt	n/a	overview positive bryant jamie\n
304.972	0.09	609944	keystroke_o	o	n/a
305.092	0.15	610184	keystroke_v	v	n/a
305.257	0.09	610514	keystroke_e	e	n/a
305.362	0.075	610724	keystroke_r	r	n/a
305.767	0.135	611534	keystroke_v	v	n/a
305.887	0.0595	611774	keystroke_i	i	n/a
306.0215	0.15	612043	keystroke_e	e	n/a
306.1415	0.135	612283	keystroke_w	w	n/a
306.712	0.075	613424	keystroke_p	p	n/a
306.847	0.09	613694	keystroke_o	o	n/a
307.042	0.09	614084	keystroke_s	s	n/a
307.297	0.045	614594	keystroke_i	i	n/a
307.477	0.075	614954	keystroke_t	t	n/a
307.642	0.075	615284	keystroke_i	i	n/a
307.807	0.135	615614	keystroke_v	v	n/a
307.972	0.105	615944	keystroke_e	e	n/a
308.227	0.09	616454	keystroke_Key.space	Key.space	n/a
308.497	0.09	616994	keystroke_b	b	n/a
308.767	0.12	617534	keystroke_r	r	n/a
308.9325	0.1195	617865	keystroke_y	y	n/a
310.687	0.0605	621374	keystroke_Key.backspace	Key.backspace	n/a
310.8525	0.06	621705	keystroke_Key.backspace	Key.backspace	n/a
311.0165	0.06	622033	keystroke_Key.backspace	Key.backspace	n/a
311.1825	0.075	622365	keystroke_Key.backspace	Key.backspace	n/a
311.3325	0.09	622665	keystroke_Key.backspace	Key.backspace	n/a
311.4965	0.075	622993	keystroke_Key.backspace	Key.backspace	n/a
311.6615	0.0755	623323	keystroke_Key.backspace	Key.backspace	n/a
311.842	0.06	623684	keystroke_Key.backspace	Key.backspace	n/a
311.992	0.075	623984	keystroke_Key.backspace	Key.backspace	n/a
312.172	0.075	624344	keystroke_Key.backspace	Key.backspace	n/a
312.382	0.075	624764	keystroke_Key.backspace	Key.backspace	n/a
312.742	0.06	625484	keystroke_Key.backspace	Key.backspace	n/a
313.147	0.06	626294	keystroke_Key.space	Key.space	n/a
313.9115	0.09	627823	keystroke_p	p	n/a
314.0465	0.09	628093	keystroke_o	o	n/a
314.2565	0.105	628513	keystroke_s	s	n/a
314.4215	0.09	628843	keystroke_i	i	n/a
314.6165	0.09	629233	keystroke_t	t	n/a
314.7515	0.06	629503	keystroke_i	i	n/a
314.8565	0.135	629713	keystroke_v	v	n/a
314.9615	0.105	629923	keystroke_e	e	n/a
315.0815	0.105	630163	keystroke_Key.space	Key.space	n/a
315.4575	0.089	630915	keystroke_b	b	n/a
316.1765	0.12	632353	keystroke_r	r	n/a
316.3565	0.09	632713	keystroke_y	y	n/a
316.672	0.105	633344	keystroke_a	a	n/a
316.792	0.09	633584	keystroke_n	n	n/a
317.077	0.09	634154	keystroke_t	t	n/a
317.227	0.09	634454	keystroke_Key.space	Key.space	n/a
317.932	0.12	635864	keystroke_j	j	n/a
318.097	0.12	636194	keystroke_a	a	n/a
318.427	0.135	636854	keystroke_m	m	n/a
319.132	0.09	638264	keystroke_i	i	n/a
319.282	0.075	638564	keystroke_e	e	n/a
319.7175	0.015	639435	keystroke_Key.enter	Key.enter	n/a
319.74	11.829	639480	prompt	n/a	commissions inquiry awful financing\n
321.352	0.03	642704	keystroke_c	c	n/a
321.397	0.075	642794	keystroke_o	o	n/a
321.637	0.06	643274	keystroke_m	m	n/a
321.787	0.075	643574	keystroke_m	m	n/a
322.147	0.06	644294	keystroke_i	i	n/a
322.327	0.09	644654	keystroke_s	s	n/a
322.507	0.075	645014	keystroke_s	s	n/a
322.8215	0.18	645643	keystroke_i	i	n/a
322.9415	0.1355	645883	keystroke_o	o	n/a
323.0315	0.1055	646063	keystroke_n	n	n/a
323.272	0.09	646544	keystroke_s	s	n/a
323.497	0.105	646994	keystroke_Key.space	Key.space	n/a
323.722	0.105	647444	keystroke_i	i	n/a
323.842	0.12	647684	keystroke_n	n	n/a
324.2165	0.12	648433	keystroke_q	q	n/a
324.7565	0.045	649513	keystroke_u	u	n/a
324.8765	0.09	649753	keystroke_i	i	n/a
325.267	0.12	650534	keystroke_r	r	n/a
325.447	0.075	650894	keystroke_y	y	n/a
325.612	0.075	651224	keystroke_Key.space	Key.space	n/a
326.0475	0.12	652095	keystroke_a	a	n/a
326.2275	0.149	652455	keystroke_w	w	n/a
326.4225	0.075	652845	keystroke_a	a	n/a
327.2165	0.09	654433	keystroke_Key.backspace	Key.backspace	n/a
327.3365	0.135	654673	keystroke_f	f	n/a
327.5325	0.074	655065	keystroke_u	u	n/a
327.9815	0.0905	655963	keystroke_l	l	n/a
328.2215	0.06	656443	keystroke_Key.space	Key.space	n/a
329.0465	0.136	658093	keystroke_f	f	n/a
329.2265	0.09	658453	keystroke_i	i	n/a
329.3465	0.135	658693	keystroke_n	n	n/a
329.6025	0.104	659205	keystroke_a	a	n/a
329.7215	0.061	659443	keystroke_n	n	n/a
330.667	0.15	661334	keystroke_c	c	n/a
330.862	0.09	661724	keystroke_i	i	n/a
330.982	0.12	661964	keystroke_n	n	n/a
331.147	0.105	662294	keystroke_g	g	n/a
331.507	0.06	663014	keystroke_Key.enter	Key.enter	n/a
331.5745	9.744	663149	prompt	n/a	pulse history cams improvements\n
332.482	0.09	664964	keystroke_p	p	n/a
332.692	0.0595	665384	keystroke_u	u	n/a
332.9315	0.075	665863	keystroke_l	l	n/a
333.217	0.105	666434	keystroke_s	s	n/a
333.607	0.09	667214	keystroke_e	e	n/a
333.817	0.105	667634	keystroke_Key.space	Key.space	n/a
334.087	0.12	668174	keystroke_h	h	n/a
334.177	0.09	668354	keystroke_i	i	n/a
334.282	0.15	668564	keystroke_s	s	n/a
334.492	0.135	668984	keystroke_t	t	n/a
334.642	0.09	669284	keystroke_o	o	n/a
334.762	0.1345	669524	keystroke_r	r	n/a
334.972	0.075	669944	keystroke_y	y	n/a
335.122	0.105	670244	keystroke_Key.space	Key.space	n/a
335.437	0.12	670874	keystroke_c	c	n/a
336.3825	0.12	672765	keystroke_a	a	n/a
336.5175	0.12	673035	keystroke_m	m	n/a
336.742	0.105	673484	keystroke_s	s	n/a
336.892	0.06	673784	keystroke_Key.space	Key.space	n/a
337.372	0.09	674744	keystroke_i	i	n/a
337.6425	0.21	675285	keystroke_m	m	n/a
338.1815	0.09	676363	keystroke_p	p	n/a
338.3615	0.076	676723	keystroke_o	o	n/a
338.9015	0.0905	677803	keystroke_Key.backspace	Key.backspace	n/a
339.037	0.105	678074	keystroke_r	r	n/a
339.187	0.075	678374	keystroke_o	o	n/a
339.547	0.12	679094	keystroke_v	v	n/a
340.2665	0.1055	680533	keystroke_e	e	n/a
340.402	0.12	680804	keystroke_m	m	n/a
340.537	0.15	681074	keystroke_e	e	n/a
340.672	0.075	681344	keystroke_n	n	n/a
340.807	0.105	681614	keystroke_t	t	n/a
341.047	0.105	682094	keystroke_s	s	n/a
341.242	0.075	682484	keystroke_Key.enter	Key.enter	n/a
341.326	6.9825	682652	prompt	n/a	editions rocky prix duty\n
342.157	0.105	684314	keystroke_e	e	n/a
342.4415	0.135	684883	keystroke_d	d	n/a
342.6365	0.075	685273	keystroke_i	i	n/a
342.8465	0.1055	685693	keystroke_t	t	n/a
342.937	0.2395	685874	keystroke_i	i	n/a
343.0715	0.12	686143	keystroke_o	o	n/a
343.1615	0.135	686323	keystroke_n	n	n/a
343.3115	0.105	686623	keystroke_s	s	n/a
344.287	0.105	688574	keystroke_Key.space	Key.space	n/a
344.602	0.15	689204	keystroke_r	r	n/a
344.767	0.135	689534	keystroke_o	o	n/a
345.427	0.105	690854	keystroke_c	c	n/a
345.562	0.105	691124	keystroke_k	k	n/a
345.937	0.045	691874	keystroke_y	y	n/a
346.012	0.15	692024	keystroke_Key.space	Key.space	n/a
346.402	0.105	692804	keystroke_p	p	n/a
346.7015	0.105	693403	keystroke_r	r	n/a
346.8365	0.06	693673	keystroke_i	i	n/a
346.9715	0.12	693943	keystroke_x	x	n/a
347.1065	0.12	694213	keystroke_Key.space	Key.space	n/a
347.3315	0.135	694663	keystroke_d	d	n/a
347.5115	0.03	695023	keystroke_u	u	n/a
347.7965	0.135	695593	keystroke_t	t	n/a
347.9915	0.075	695983	keystroke_y	y	n/a
348.2165	0.09	696433	keystroke_Key.enter	Key.enter	n/a
348.314	6.1445	696628	prompt	n/a	mounting myself drinking logs\n
349.0565	0.165	698113	keystroke_m	m	n/a
349.2365	0.075	698473	keystroke_o	o	n/a
349.6565	0.06	699313	keystroke_u	u	n/a
349.8815	0.09	699763	keystroke_n	n	n/a
350.0765	0.12	700153	keystroke_t	t	n/a
350.2115	0.12	700423	keystroke_i	i	n/a
350.2865	0.135	700573	keystroke_n	n	n/a
350.4365	0.105	700873	keystroke_g	g	n/a
350.5565	0.06	701113	keystroke_Key.space	Key.space	n/a
350.9915	0.06	701983	keystroke_m	m	n/a
351.1715	0.0905	702343	keystroke_y	y	n/a
351.322	0.135	702644	keystroke_s	s	n/a
351.427	0.12	702854	keystroke_e	e	n/a
351.592	0.075	703184	keystroke_l	l	n/a
351.7415	0.12	703483	keystroke_f	f	n/a
351.8465	0.075	703693	keystroke_Key.space	Key.space	n/a
352.1015	0.135	704203	keystroke_d	d	n/a
352.3265	0.12	704653	keystroke_r	r	n/a
352.4165	0.075	704833	keystroke_i	i	n/a
352.5075	0.1495	705015	keystroke_n	n	n/a
352.627	0.12	705254	keystroke_k	k	n/a
353.077	0.105	706154	keystroke_i	i	n/a
353.152	0.12	706304	keystroke_n	n	n/a
353.257	0.09	706514	keystroke_g	g	n/a
353.347	0.074	706694	keystroke_Key.space	Key.space	n/a
353.782	0.06	707564	keystroke_l	l	n/a
353.932	0.0745	707864	keystroke_o	o	n/a
354.0375	0.1195	708075	keystroke_g	g	n/a
354.2475	0.105	708495	keystroke_s	s	n/a
354.3825	0.075	708765	keystroke_Key.enter	Key.enter	n/a
354.4735	9.315	708947	prompt	n/a	cherry nancy walk remained\n
355.552	0.12	711104	keystroke_c	c	n/a
355.762	0.075	711524	keystroke_h	h	n/a
355.9715	0.105	711943	keystroke_e	e	n/a
356.1815	0.105	712363	keystroke_r	r	n/a
356.3615	0.09	712723	keystroke_r	r	n/a
356.5265	0.09	713053	keystroke_y	y	n/a
356.6615	0.105	713323	keystroke_Key.space	Key.space	n/a
356.9465	0.105	713893	keystroke_n	n	n/a
357.0525	0.119	714105	keystroke_a	a	n/a
357.5915	0.135	715183	keystroke_c	c	n/a
358.237	0.075	716474	keystroke_Key.backspace	Key.backspace	n/a
358.477	0.09	716954	keystroke_n	n	n/a
358.582	0.09	717164	keystroke_c	c	n/a
358.732	0.06	717464	keystroke_y	y	n/a
358.927	0.075	717854	keystroke_Key.space	Key.space	n/a
359.377	0.1645	718754	keystroke_w	w	n/a
359.4815	0.15	718963	keystroke_a	a	n/a
359.6615	0.12	719323	keystroke_l	l	n/a
359.8115	0.12	719623	keystroke_k	k	n/a
360.3065	0.09	720613	keystroke_Key.space	Key.space	n/a
360.8175	0.119	721635	keystroke_r	r	n/a
360.9065	0.121	721813	keystroke_e	e	n/a
362.1515	0.1355	724303	keystroke_m	m	n/a
362.272	0.135	724544	keystroke_a	a	n/a
362.872	0.12	725744	keystroke_i	i	n/a
363.022	0.135	726044	keystroke_n	n	n/a
363.337	0.09	726674	keystroke_e	e	n/a
363.531	0.121	727062	keystroke_d	d	n/a
363.711	0.075	727422	keystroke_Key.enter	Key.enter	n/a
363.794	11.1695	727588	prompt	n/a	threats dist scenarios sponsorship\n
364.777	0.1195	729554	keystroke_t	t	n/a
364.9115	0.06	729823	keystroke_h	h	n/a
365.1215	0.18	730243	keystroke_r	r	n/a
365.2715	0.18	730543	keystroke_e	e	n/a
365.4665	0.1205	730933	keystroke_a	a	n/a
366.067	0.105	732134	keystroke_t	t	n/a
366.322	0.105	732644	keystroke_s	s	n/a
366.457	0.09	732914	keystroke_Key.space	Key.space	n/a
366.727	0.1345	733454	keystroke_d	d	n/a
366.8465	0.075	733693	keystroke_i	i	n/a
366.9515	0.105	733903	keystroke_s	s	n/a
367.1615	0.09	734323	keystroke_t	t	n/a
367.2815	0.06	734563	keystroke_Key.space	Key.space	n/a
367.8375	0.119	735675	keystroke_c	c	n/a
368.3915	0.075	736783	keystroke_Key.backspace	Key.backspace	n/a
368.5265	0.105	737053	keystroke_s	s	n/a
368.8415	0.1505	737683	keystroke_c	c	n/a
369.592	0.105	739184	keystroke_e	e	n/a
369.892	0.105	739784	keystroke_n	n	n/a
370.4615	0.09	740923	keystroke_a	a	n/a
370.7315	0.09	741463	keystroke_r	r	n/a
371.586	0.166	743172	keystroke_i	i	n/a
371.692	0.12	743384	keystroke_o	o	n/a
371.842	0.09	743684	keystroke_s	s	n/a
371.947	0.105	743894	keystroke_Key.space	Key.space	n/a
372.292	0.135	744584	keystroke_s	s	n/a
372.502	0.09	745004	keystroke_p	p	n/a
372.637	0.12	745274	keystroke_o	o	n/a
372.757	0.12	745514	keystroke_n	n	n/a
373.1765	0.105	746353	keystroke_s	s	n/a
373.6115	0.09	747223	keystroke_o	o	n/a
373.7615	0.106	747523	keystroke_r	r	n/a
374.1515	0.105	748303	keystroke_s	s	n/a
374.3165	0.18	748633	keystroke_h	h	n/a
374.4215	0.18	748843	keystroke_i	i	n/a
374.5725	0.09	749145	keystroke_p	p	n/a
374.9015	0.06	749803	keystroke_Key.enter	Key.enter	n/a
374.9695	7.389	749939	prompt	n/a	metres bracket resource sold\n
375.997	0.135	751994	keystroke_m	m	n/a
376.147	0.12	752294	keystroke_e	e	n/a
376.372	0.09	752744	keystroke_t	t	n/a
376.597	0.135	753194	keystroke_r	r	n/a
376.747	0.15	753494	keystroke_e	e	n/a
377.077	0.075	754154	keystroke_s	s	n/a
377.347	0.105	754694	keystroke_Key.space	Key.space	n/a
377.632	0.105	755264	keystroke_b	b	n/a
377.947	0.195	755894	keystroke_r	r	n/a
378.187	0.135	756374	keystroke_a	a	n/a
378.5765	0.12	757153	keystroke_c	c	n/a
378.6815	0.105	757363	keystroke_k	k	n/a
378.8615	0.105	757723	keystroke_e	e	n/a
379.0265	0.105	758053	keystroke_t	t	n/a
379.1615	0.105	758323	keystroke_Key.space	Key.space	n/a
379.6265	0.135	759253	keystroke_r	r	n/a
379.7315	0.09	759463	keystroke_e	e	n/a
379.912	0.12	759824	keystroke_s	s	n/a
380.317	0.135	760634	keystroke_o	o	n/a
380.572	0.06	761144	keystroke_u	u	n/a
380.707	0.135	761414	keystroke_r	r	n/a
381.1415	0.106	762283	keystroke_c	c	n/a
381.3815	0.06	762763	keystroke_e	e	n/a
381.5315	0.135	763063	keystroke_Key.space	Key.space	n/a
381.6825	0.134	763365	keystroke_s	s	n/a
381.8015	0.075	763603	keystroke_o	o	n/a
381.9665	0.09	763933	keystroke_l	l	n/a
382.0865	0.12	764173	keystroke_d	d	n/a
382.2815	0.075	764563	keystroke_Key.enter	Key.enter	n/a
382.363	8.9955	764726	prompt	n/a	developed full mustn't geological\n
383.1815	0.09	766363	keystroke_d	d	n/a
383.3615	0.075	766723	keystroke_e	e	n/a
383.5115	0.15	767023	keystroke_v	v	n/a
383.6315	0.105	767263	keystroke_e	e	n/a
383.8115	0.105	767623	keystroke_l	l	n/a
384.0065	0.18	768013	keystroke_o	o	n/a
384.1415	0.12	768283	keystroke_p	p	n/a
384.4115	0.12	768823	keystroke_e	e	n/a
384.6815	0.09	769363	keystroke_d	d	n/a
384.7865	0.12	769573	keystroke_Key.space	Key.space	n/a
385.0265	0.135	770053	keystroke_f	f	n/a
385.1765	0.06	770353	keystroke_u	u	n/a
385.372	0.06	770744	keystroke_l	l	n/a
385.507	0.105	771014	keystroke_l	l	n/a
385.627	0.105	771254	keystroke_Key.space	Key.space	n/a
385.807	0.15	771614	keystroke_m	m	n/a
386.062	0.12	772124	keystroke_u	u	n/a
386.212	0.165	772424	keystroke_s	s	n/a
386.437	0.12	772874	keystroke_t	t	n/a
386.812	0.12	773624	keystroke_n	n	n/a
387.292	0.09	774584	keystroke_'	'	n/a
387.457	0.0895	774914	keystroke_t	t	n/a
387.6665	0.03	775333	keystroke_Key.space	Key.space	n/a
388.2965	0.135	776593	keystroke_g	g	n/a
388.6115	0.105	777223	keystroke_e	e	n/a
388.8065	0.06	777613	keystroke_o	o	n/a
389.392	0.0895	778784	keystroke_l	l	n/a
389.5865	0.075	779173	keystroke_o	o	n/a
389.7665	0.09	779533	keystroke_g	g	n/a
390.517	0.015	781034	keystroke_i	i	n/a
390.547	0.225	781094	keystroke_c	c	n/a
390.742	0.135	781484	keystroke_a	a	n/a
390.922	0.105	781844	keystroke_l	l	n/a
391.297	0.06	782594	keystroke_Key.enter	Key.enter	n/a
391.3645	6.535	782729	prompt	n/a	thumbs hands respond rice\n
392.2265	0.12	784453	keystroke_t	t	n/a
392.3615	0.075	784723	keystroke_h	h	n/a
392.5715	0.075	785143	keystroke_u	u	n/a
392.8115	0.1355	785623	keystroke_m	m	n/a
392.976	0.12	785952	keystroke_b	b	n/a
393.247	0.105	786494	keystroke_s	s	n/a
393.7865	0.105	787573	keystroke_Key.space	Key.space	n/a
394.0415	0.06	788083	keystroke_h	h	n/a
394.1165	0.12	788233	keystroke_a	a	n/a
394.2515	0.09	788503	keystroke_n	n	n/a
394.3565	0.12	788713	keystroke_d	d	n/a
394.8965	0.015	789793	keystroke_s	s	n/a
394.9265	0.105	789853	keystroke_Key.space	Key.space	n/a
395.3765	0.075	790753	keystroke_r	r	n/a
395.4215	0.09	790843	keystroke_e	e	n/a
395.6015	0.12	791203	keystroke_s	s	n/a
395.7665	0.075	791533	keystroke_p	p	n/a
395.8865	0.12	791773	keystroke_o	o	n/a
395.9915	0.12	791983	keystroke_n	n	n/a
396.2015	0.0895	792403	keystroke_d	d	n/a
396.756	0.1205	793512	keystroke_Key.space	Key.space	n/a
397.2215	0.135	794443	keystroke_r	r	n/a
397.3415	0.075	794683	keystroke_i	i	n/a
397.4615	0.12	794923	keystroke_c	c	n/a
397.657	0.09	795314	keystroke_e	e	n/a
397.822	0.074	795644	keystroke_Key.enter	Key.enter	n/a
397.904	11.3945	795808	prompt	n/a	process space relationships moscow\n
398.902	0.104	797804	keystroke_p	p	n/a
399.127	0.134	798254	keystroke_r	r	n/a
399.276	0.075	798552	keystroke_o	o	n/a
399.412	0.15	798824	keystroke_c	c	n/a
399.6525	0.1035	799305	keystroke_e	e	n/a
399.891	0.061	799782	keystroke_s	s	n/a
400.041	0.075	800082	keystroke_s	s	n/a
400.146	0.1365	800292	keystroke_Key.space	Key.space	n/a
400.537	0.12	801074	keystroke_s	s	n/a
400.687	0.075	801374	keystroke_p	p	n/a
400.792	0.12	801584	keystroke_a	a	n/a
400.987	0.1195	801974	keystroke_c	c	n/a
401.1815	0.105	802363	keystroke_e	e	n/a
401.3165	0.105	802633	keystroke_Key.space	Key.space	n/a
401.7065	0.12	803413	keystroke_r	r	n/a
401.7815	0.105	803563	keystroke_e	e	n/a
401.9465	0.09	803893	keystroke_l	l	n/a
402.0515	0.09	804103	keystroke_a	a	n/a
402.1865	0.105	804373	keystroke_t	t	n/a
402.3815	0.18	804763	keystroke_i	i	n/a
402.4715	0.12	804943	keystroke_o	o	n/a
402.5765	0.09	805153	keystroke_n	n	n/a
402.8015	0.105	805603	keystroke_s	s	n/a
402.9965	0.135	805993	keystroke_h	h	n/a
403.0875	0.149	806175	keystroke_i	i	n/a
403.2215	0.09	806443	keystroke_p	p	n/a
403.4915	0.091	806983	keystroke_s	s	n/a
404.0465	0.015	808093	keystroke_Key.space	Key.space	n/a
404.1965	0.135	808393	keystroke_m	m	n/a
404.2725	0.119	808545	keystroke_a	a	n/a
404.857	0.12	809714	keystroke_s	s	n/a
405.637	0.12	811274	keystroke_c	c	n/a
406.087	0.06	812174	keystroke_Key.backspace	Key.backspace	n/a
406.237	0.075	812474	keystroke_Key.backspace	Key.backspace	n/a
406.387	0.075	812774	keystroke_Key.backspace	Key.backspace	n/a
406.642	0.06	813284	keystroke_o	o	n/a
406.762	0.1195	813524	keystroke_c	c	n/a
407.841	0.076	815682	keystroke_Key.backspace	Key.backspace	n/a
407.902	0.105	815804	keystroke_s	s	n/a
408.127	0.119	816254	keystroke_c	c	n/a
408.6215	0.075	817243	keystroke_o	o	n/a
409.0265	0.1205	818053	keystroke_w	w	n/a
409.222	0.075	818444	keystroke_Key.enter	Key.enter	n/a
409.304	14.065	818608	prompt	n/a	paperback roller spine marathon\n
410.2575	0.074	820515	keystroke_p	p	n/a
410.3915	0.12	820783	keystroke_a	a	n/a
410.5265	0.09	821053	keystroke_p	p	n/a
410.9765	0.135	821953	keystroke_e	e	n/a
411.0965	0.105	822193	keystroke_r	r	n/a
411.4565	0.135	822913	keystroke_b	b	n/a
411.5765	0.12	823153	keystroke_a	a	n/a
411.7415	0.09	823483	keystroke_c	c	n/a
411.8165	0.09	823633	keystroke_k	k	n/a
411.9365	0.135	823873	keystroke_Key.space	Key.space	n/a
412.1915	0.105	824383	keystroke_r	r	n/a
412.3265	0.075	824653	keystroke_o	o	n/a
412.7165	0.075	825433	keystroke_l	l	n/a
412.8665	0.075	825733	keystroke_l	l	n/a
412.9865	0.1205	825973	keystroke_e	e	n/a
413.077	0.119	826154	keystroke_r	r	n/a
413.211	0.075	826422	keystroke_Key.space	Key.space	n/a
413.422	0.119	826844	keystroke_s	s	n/a
413.557	0.075	827114	keystroke_p	p	n/a
413.676	0.166	827352	keystroke_i	i	n/a
413.827	0.089	827654	keystroke_n	n	n/a
414.141	0.06	828282	keystroke_e	e	n/a
414.906	0.1355	829812	keystroke_m	m	n/a
415.027	0.0745	830054	keystroke_a	a	n/a
415.5365	0.045	831073	keystroke_r	r	n/a
415.9265	0.06	831853	keystroke_Key.backspace	Key.backspace	n/a
416.0915	0.06	832183	keystroke_Key.backspace	Key.backspace	n/a
416.2415	0.075	832483	keystroke_Key.backspace	Key.backspace	n/a
416.6615	0.075	833323	keystroke_Key.backspace	Key.backspace	n/a
417.4415	0.121	834883	keystroke_m	m	n/a
417.6215	0.135	835243	keystroke_a	a	n/a
418.972	0.0595	837944	keystroke_Key.backspace	Key.backspace	n/a
419.167	0.045	838334	keystroke_Key.backspace	Key.backspace	n/a
419.661	0.061	839322	keystroke_Key.space	Key.space	n/a
420.547	0.135	841094	keystroke_m	m	n/a
421.3265	0.06	842653	keystroke_a	a	n/a
421.5815	0.12	843163	keystroke_r	r	n/a
421.8065	0.1055	843613	keystroke_a	a	n/a
422.107	0.105	844214	keystroke_t	t	n/a
422.632	0.105	845264	keystroke_h	h	n/a
422.812	0.105	845624	keystroke_o	o	n/a
422.932	0.1195	845864	keystroke_n	n	n/a
423.3065	0.06	846613	keystroke_Key.enter	Key.enter	n/a
423.377	18.8315	846754	prompt	n/a	ronald functioning headset actively\n
424.2965	0.15	848593	keystroke_r	r	n/a
424.4615	0.075	848923	keystroke_o	o	n/a
424.7015	0.075	849403	keystroke_n	n	n/a
425.7365	0.12	851473	keystroke_a	a	n/a
426.0065	0.075	852013	keystroke_l	l	n/a
426.441	0.075	852882	keystroke_d	d	n/a
426.576	0.1055	853152	keystroke_Key.space	Key.space	n/a
426.952	0.135	853904	keystroke_f	f	n/a
427.117	0.105	854234	keystroke_u	u	n/a
427.5965	0.135	855193	keystroke_n	n	n/a
427.822	0.1645	855644	keystroke_c	c	n/a
428.0015	0.09	856003	keystroke_h	h	n/a
428.3015	0.12	856603	keystroke_t	t	n/a
428.3765	0.21	856753	keystroke_i	i	n/a
428.4815	0.15	856963	keystroke_o	o	n/a
428.5725	0.149	857145	keystroke_n	n	n/a
428.8565	0.1355	857713	keystroke_i	i	n/a
428.977	0.135	857954	keystroke_n	n	n/a
429.097	0.12	858194	keystroke_g	g	n/a
429.202	0.09	858404	keystroke_Key.space	Key.space	n/a
429.592	0.075	859184	keystroke_h	h	n/a
429.652	0.165	859304	keystroke_e	e	n/a
429.727	0.135	859454	keystroke_a	a	n/a
432.0535	0.028	864107	keystroke_Key.backspace	Key.backspace	n/a
432.1715	0.09	864343	keystroke_Key.backspace	Key.backspace	n/a
432.3365	0.075	864673	keystroke_Key.backspace	Key.backspace	n/a
432.5015	0.06	865003	keystroke_Key.backspace	Key.backspace	n/a
432.6515	0.06	865303	keystroke_Key.backspace	Key.backspace	n/a
432.802	0.06	865604	keystroke_Key.backspace	Key.backspace	n/a
432.967	0.045	865934	keystroke_Key.backspace	Key.backspace	n/a
433.102	0.074	866204	keystroke_Key.backspace	Key.backspace	n/a
433.267	0.06	866534	keystroke_Key.backspace	Key.backspace	n/a
433.447	0.059	866894	keystroke_Key.backspace	Key.backspace	n/a
433.641	0.06	867282	keystroke_Key.backspace	Key.backspace	n/a
433.926	0.061	867852	keystroke_Key.backspace	Key.backspace	n/a
434.4065	0.105	868813	keystroke_t	t	n/a
434.7665	0.24	869533	keystroke_i	i	n/a
435.276	0.105	870552	keystroke_o	o	n/a
435.442	0.104	870884	keystroke_n	n	n/a
435.802	0.135	871604	keystroke_i	i	n/a
435.922	0.105	871844	keystroke_n	n	n/a
436.057	0.09	872114	keystroke_g	g	n/a
436.162	0.075	872324	keystroke_Key.space	Key.space	n/a
437.212	0.074	874424	keystroke_h	h	n/a
437.272	0.119	874544	keystroke_e	e	n/a
437.361	0.181	874722	keystroke_a	a	n/a
437.916	0.106	875832	keystroke_d	d	n/a
438.171	0.105	876342	keystroke_s	s	n/a
438.5465	0.165	877093	keystroke_e	e	n/a
438.7565	0.106	877513	keystroke_t	t	n/a
439.4015	0.12	878803	keystroke_Key.space	Key.space	n/a
439.7915	0.0755	879583	keystroke_s	s	n/a
440.257	0.075	880514	keystroke_Key.backspace	Key.backspace	n/a
440.332	0.105	880664	keystroke_a	a	n/a
440.542	0.135	881084	keystroke_c	c	n/a
440.842	0.12	881684	keystroke_t	t	n/a
440.992	0.0745	881984	keystroke_i	i	n/a
441.1115	0.12	882223	keystroke_v	v	n/a
441.5615	0.09	883123	keystroke_e	e	n/a
441.6815	0.105	883363	keystroke_l	l	n/a
441.9065	0.075	883813	keystroke_y	y	n/a
442.1315	0.075	884263	keystroke_Key.enter	Key.enter	n/a
442.2145	6.189	884429	prompt	n/a	tend raymond prominent signs\n
443.121	0.09	886242	keystroke_t	t	n/a
443.286	0.135	886572	keystroke_e	e	n/a
443.436	0.075	886872	keystroke_n	n	n/a
443.526	0.09	887052	keystroke_d	d	n/a
443.661	0.1205	887322	keystroke_Key.space	Key.space	n/a
443.9475	0.165	887895	keystroke_r	r	n/a
444.0665	0.15	888133	keystroke_a	a	n/a
444.2615	0.09	888523	keystroke_y	y	n/a
444.5915	0.12	889183	keystroke_m	m	n/a
444.7265	0.075	889453	keystroke_o	o	n/a
444.7865	0.105	889573	keystroke_n	n	n/a
444.9215	0.09	889843	keystroke_d	d	n/a
445.0415	0.0745	890083	keystroke_Key.space	Key.space	n/a
445.507	0.03	891014	keystroke_p	p	n/a
445.597	0.135	891194	keystroke_r	r	n/a
445.717	0.09	891434	keystroke_o	o	n/a
446.1515	0.12	892303	keystroke_m	m	n/a
446.3015	0.105	892603	keystroke_i	i	n/a
446.4215	0.105	892843	keystroke_n	n	n/a
446.7965	0.09	893593	keystroke_e	e	n/a
446.9615	0.0895	893923	keystroke_n	n	n/a
447.082	0.105	894164	keystroke_t	t	n/a
447.3065	0.105	894613	keystroke_Key.space	Key.space	n/a
447.5615	0.1045	895123	keystroke_s	s	n/a
447.6365	0.0745	895273	keystroke_i	i	n/a
447.7865	0.105	895573	keystroke_g	g	n/a
447.8775	0.074	895755	keystroke_n	n	n/a
448.0865	0.12	896173	keystroke_s	s	n/a
448.3265	0.075	896653	keystroke_Key.enter	Key.enter	n/a
448.41	14.789	896820	prompt	n/a	positions trim acquisitions undertaken\n
449.3165	0.1055	898633	keystroke_p	p	n/a
449.512	0.105	899024	keystroke_r	r	n/a
449.632	0.075	899264	keystroke_o	o	n/a
449.767	0.12	899534	keystroke_s	s	n/a
449.917	0.105	899834	keystroke_t	t	n/a
451.551	0.075	903102	keystroke_Key.backspace	Key.backspace	n/a
451.731	0.061	903462	keystroke_Key.backspace	Key.backspace	n/a
451.881	0.075	903762	keystroke_Key.backspace	Key.backspace	n/a
452.061	0.0605	904122	keystroke_Key.backspace	Key.backspace	n/a
452.962	0.06	905924	keystroke_o	o	n/a
453.127	0.075	906254	keystroke_s	s	n/a
453.5765	0.075	907153	keystroke_i	i	n/a
453.7115	0.09	907423	keystroke_t	t	n/a
453.8165	0.24	907633	keystroke_i	i	n/a
453.9215	0.135	907843	keystroke_o	o	n/a
454.0265	0.12	908053	keystroke_n	n	n/a
454.1765	0.105	908353	keystroke_s	s	n/a
454.3265	0.105	908653	keystroke_Key.space	Key.space	n/a
454.6715	0.09	909343	keystroke_t	t	n/a
454.9265	0.105	909853	keystroke_r	r	n/a
455.0615	0.12	910123	keystroke_i	i	n/a
455.2115	0.135	910423	keystroke_m	m	n/a
455.9915	0.09	911983	keystroke_Key.space	Key.space	n/a
456.2465	0.12	912493	keystroke_a	a	n/a
456.532	0.105	913064	keystroke_c	c	n/a
456.937	0.105	913874	keystroke_q	q	n/a
457.4465	0.075	914893	keystroke_u	u	n/a
457.5965	0.075	915193	keystroke_i	i	n/a
457.7765	0.106	915553	keystroke_s	s	n/a
459.5765	0.075	919153	keystroke_i	i	n/a
459.8315	0.015	919663	keystroke_t	t	n/a
459.9515	0.21	919903	keystroke_i	i	n/a
460.0715	0.135	920143	keystroke_o	o	n/a
460.1765	0.105	920353	keystroke_n	n	n/a
460.342	0.09	920684	keystroke_s	s	n/a
460.507	0.09	921014	keystroke_Key.space	Key.space	n/a
460.927	0.09	921854	keystroke_u	u	n/a
461.137	0.09	922274	keystroke_n	n	n/a
461.272	0.06	922544	keystroke_d	d	n/a
461.437	0.075	922874	keystroke_e	e	n/a
461.497	0.105	922994	keystroke_r	r	n/a
461.7065	0.12	923413	keystroke_t	t	n/a
461.8415	0.12	923683	keystroke_a	a	n/a
462.0065	0.09	924013	keystroke_k	k	n/a
462.1115	0.09	924223	keystroke_e	e	n/a
462.7865	0.06	925573	keystroke_n	n	n/a
463.132	0.059	926264	keystroke_Key.enter	Key.enter	n/a
463.207	11.4325	926414	prompt	n/a	technology powers botswana inherited\n
464.077	0.105	928154	keystroke_t	t	n/a
464.226	0.12	928452	keystroke_e	e	n/a
464.3915	0.06	928783	keystroke_n	n	n/a
465.0065	0.0755	930013	keystroke_Key.backspace	Key.backspace	n/a
465.127	0.12	930254	keystroke_c	c	n/a
465.292	0.06	930584	keystroke_h	h	n/a
465.502	0.105	931004	keystroke_n	n	n/a
465.727	0.0595	931454	keystroke_o	o	n/a
465.8915	0.09	931783	keystroke_l	l	n/a
466.0565	0.075	932113	keystroke_o	o	n/a
466.1765	0.09	932353	keystroke_g	g	n/a
466.9865	0.0605	933973	keystroke_y	y	n/a
467.152	0.12	934304	keystroke_Key.space	Key.space	n/a
467.497	0.09	934994	keystroke_p	p	n/a
467.647	0.09	935294	keystroke_o	o	n/a
467.752	0.12	935504	keystroke_w	w	n/a
467.842	0.12	935684	keystroke_e	e	n/a
467.917	0.105	935834	keystroke_r	r	n/a
468.127	0.075	936254	keystroke_s	s	n/a
468.262	0.105	936524	keystroke_Key.space	Key.space	n/a
468.607	0.12	937214	keystroke_b	b	n/a
469.011	0.061	938022	keystroke_o	o	n/a
469.117	0.09	938234	keystroke_t	t	n/a
470.242	0.105	940484	keystroke_s	s	n/a
470.497	0.195	940994	keystroke_w	w	n/a
470.707	0.12	941414	keystroke_a	a	n/a
471.052	0.075	942104	keystroke_n	n	n/a
471.202	0.105	942404	keystroke_a	a	n/a
471.742	0.104	943484	keystroke_Key.space	Key.space	n/a
472.042	0.105	944084	keystroke_i	i	n/a
472.162	0.105	944324	keystroke_n	n	n/a
473.212	0.074	946424	keystroke_h	h	n/a
473.512	0.12	947024	keystroke_e	e	n/a
473.662	0.104	947324	keystroke_r	r	n/a
473.857	0.06	947714	keystroke_i	i	n/a
473.976	0.105	947952	keystroke_t	t	n/a
474.141	0.12	948282	keystroke_e	e	n/a
474.366	0.105	948732	keystroke_d	d	n/a
474.562	0.074	949124	keystroke_Key.enter	Key.enter	n/a
474.645	9.3235	949290	prompt	n/a	repairs fortune norwegian yesterday\n
475.4315	0.12	950863	keystroke_r	r	n/a
475.5215	0.09	951043	keystroke_e	e	n/a
476.0615	0.105	952123	keystroke_p	p	n/a
476.1965	0.12	952393	keystroke_a	a	n/a
476.4515	0.06	952903	keystroke_i	i	n/a
476.6165	0.0755	953233	keystroke_r	r	n/a
476.857	0.09	953714	keystroke_s	s	n/a
477.067	0.12	954134	keystroke_Key.space	Key.space	n/a
477.442	0.135	954884	keystroke_f	f	n/a
477.772	0.09	955544	keystroke_o	o	n/a
477.967	0.105	955934	keystroke_r	r	n/a
478.162	0.075	956324	keystroke_t	t	n/a
478.612	0.06	957224	keystroke_u	u	n/a
478.822	0.075	957644	keystroke_n	n	n/a
478.972	0.075	957944	keystroke_e	e	n/a
479.136	0.09	958272	keystroke_Key.space	Key.space	n/a
479.737	0.165	959474	keystroke_n	n	n/a
479.872	0.075	959744	keystroke_o	o	n/a
480.006	0.12	960012	keystroke_r	r	n/a
480.412	0.119	960824	keystroke_w	w	n/a
480.591	0.12	961182	keystroke_e	e	n/a
480.937	0.105	961874	keystroke_g	g	n/a
481.342	0.09	962684	keystroke_i	i	n/a
481.492	0.09	962984	keystroke_a	a	n/a
481.612	0.09	963224	keystroke_n	n	n/a
481.852	0.075	963704	keystroke_Key.space	Key.space	n/a
482.227	0.06	964454	keystroke_y	y	n/a
482.362	0.165	964724	keystroke_e	e	n/a
482.512	0.164	965024	keystroke_s	s	n/a
482.691	0.075	965382	keystroke_t	t	n/a
482.752	0.15	965504	keystroke_e	e	n/a
482.887	0.119	965774	keystroke_r	r	n/a
483.1115	0.165	966223	keystroke_d	d	n/a
483.2465	0.12	966493	keystroke_a	a	n/a
483.427	0.075	966854	keystroke_y	y	n/a
483.8615	0.1055	967723	keystroke_Key.enter	Key.enter	n/a
483.976	12.7125	967952	prompt	n/a	exempt tourist xanax baseball\n
484.942	0.09	969884	keystroke_e	e	n/a
485.167	0.134	970334	keystroke_x	x	n/a
485.572	0.104	971144	keystroke_m	m	n/a
486.157	0.0595	972314	keystroke_Key.backspace	Key.backspace	n/a
486.562	0.089	973124	keystroke_e	e	n/a
486.8015	0.105	973603	keystroke_m	m	n/a
487.3865	0.105	974773	keystroke_p	p	n/a
487.582	0.105	975164	keystroke_l	l	n/a
488.437	0.075	976874	keystroke_Key.backspace	Key.backspace	n/a
488.557	0.09	977114	keystroke_t	t	n/a
488.707	0.09	977414	keystroke_Key.space	Key.space	n/a
489.232	0.12	978464	keystroke_t	t	n/a
489.862	0.09	979724	keystroke_o	o	n/a
490.387	0.059	980774	keystroke_u	u	n/a
490.507	0.105	981014	keystroke_r	r	n/a
490.732	0.075	981464	keystroke_i	i	n/a
490.867	0.12	981734	keystroke_s	s	n/a
491.0765	0.075	982153	keystroke_t	t	n/a
491.1665	0.105	982333	keystroke_Key.space	Key.space	n/a
491.5565	0.06	983113	keystroke_a	a	n/a
491.961	0.075	983922	keystroke_Key.backspace	Key.backspace	n/a
492.126	0.165	984252	keystroke_x	x	n/a
492.591	0.1205	985182	keystroke_a	a	n/a
493.0865	0.105	986173	keystroke_n	n	n/a
493.2665	0.135	986533	keystroke_a	a	n/a
493.8065	0.135	987613	keystroke_x	x	n/a
494.1365	0.09	988273	keystroke_Key.space	Key.space	n/a
494.4815	0.105	988963	keystroke_b	b	n/a
494.7665	0.105	989533	keystroke_a	a	n/a
495.0065	0.0905	990013	keystroke_s	s	n/a
495.6215	0.09	991243	keystroke_e	e	n/a
495.907	0.165	991814	keystroke_b	b	n/a
496.057	0.105	992114	keystroke_a	a	n/a
496.252	0.09	992504	keystroke_l	l	n/a
496.402	0.09	992804	keystroke_l	l	n/a
496.612	0.075	993224	keystroke_Key.enter	Key.enter	n/a
496.699	5.5995	993398	prompt	n/a	crafts cure ugly for\n
497.587	0.165	995174	keystroke_c	c	n/a
497.842	0.15	995684	keystroke_r	r	n/a
497.977	0.135	995954	keystroke_a	a	n/a
498.157	0.15	996314	keystroke_f	f	n/a
498.397	0.12	996794	keystroke_t	t	n/a
498.637	0.09	997274	keystroke_s	s	n/a
498.756	0.105	997512	keystroke_Key.space	Key.space	n/a
498.967	0.134	997934	keystroke_c	c	n/a
499.177	0.104	998354	keystroke_u	u	n/a
499.266	0.166	998532	keystroke_r	r	n/a
499.401	0.105	998802	keystroke_e	e	n/a
499.537	0.119	999074	keystroke_Key.space	Key.space	n/a
500.0615	0.076	1000123	keystroke_u	u	n/a
500.2265	0.105	1000453	keystroke_g	g	n/a
500.4665	0.075	1000933	keystroke_l	l	n/a
500.7365	0.105	1001473	keystroke_e	e	n/a
501.3065	0.075	1002613	keystroke_Key.backspace	Key.backspace	n/a
501.5615	0.075	1003123	keystroke_y	y	n/a
501.6665	0.105	1003333	keystroke_Key.space	Key.space	n/a
501.8015	0.15	1003603	keystroke_f	f	n/a
501.9065	0.09	1003813	keystroke_o	o	n/a
502.0415	0.12	1004083	keystroke_r	r	n/a
502.2215	0.075	1004443	keystroke_Key.enter	Key.enter	n/a
502.3035	9.625	1004607	prompt	n/a	town construct destination thumb\n
503.152	0.12	1006304	keystroke_t	t	n/a
503.347	0.074	1006694	keystroke_o	o	n/a
503.436	0.105	1006872	keystroke_w	w	n/a
503.572	0.12	1007144	keystroke_n	n	n/a
503.706	0.09	1007412	keystroke_Key.space	Key.space	n/a
504.096	0.165	1008192	keystroke_c	c	n/a
504.171	0.12	1008342	keystroke_o	o	n/a
504.276	0.105	1008552	keystroke_n	n	n/a
504.501	0.12	1009002	keystroke_s	s	n/a
504.726	0.075	1009452	keystroke_t	t	n/a
504.9065	0.12	1009813	keystroke_r	r	n/a
505.1765	0.075	1010353	keystroke_u	u	n/a
505.2665	0.135	1010533	keystroke_c	c	n/a
505.4615	0.105	1010923	keystroke_t	t	n/a
506.2265	0.12	1012453	keystroke_Key.space	Key.space	n/a
506.3915	0.105	1012783	keystroke_d	d	n/a
506.5865	0.105	1013173	keystroke_e	e	n/a
506.8115	0.165	1013623	keystroke_s	s	n/a
506.9615	0.105	1013923	keystroke_t	t	n/a
507.1565	0.12	1014313	keystroke_i	i	n/a
507.2615	0.135	1014523	keystroke_n	n	n/a
507.4115	0.105	1014823	keystroke_a	a	n/a
507.6665	0.09	1015333	keystroke_t	t	n/a
507.7715	0.165	1015543	keystroke_i	i	n/a
507.8465	0.135	1015693	keystroke_o	o	n/a
507.9515	0.12	1015903	keystroke_n	n	n/a
508.2965	0.12	1016593	keystroke_t	t	n/a
508.6265	0.075	1017253	keystroke_u	u	n/a
509.032	0.0745	1018064	keystroke_Key.backspace	Key.backspace	n/a
509.4515	0.075	1018903	keystroke_Key.backspace	Key.backspace	n/a
509.7965	0.075	1019593	keystroke_Key.space	Key.space	n/a
510.4715	0.105	1020943	keystroke_t	t	n/a
510.5915	0.075	1021183	keystroke_h	h	n/a
510.7865	0.075	1021573	keystroke_u	u	n/a
511.1615	0.09	1022323	keystroke_m	m	n/a
511.3565	0.09	1022713	keystroke_b	b	n/a
511.8365	0.09	1023673	keystroke_Key.enter	Key.enter	n/a
511.9345	9.6835	1023869	prompt	n/a	administrator directories came japanese\n
512.647	0.12	1025294	keystroke_a	a	n/a
512.902	0.09	1025804	keystroke_d	d	n/a
513.022	0.15	1026044	keystroke_m	m	n/a
513.187	0.105	1026374	keystroke_i	i	n/a
513.277	0.15	1026554	keystroke_n	n	n/a
513.397	0.09	1026794	keystroke_i	i	n/a
513.576	0.135	1027152	keystroke_s	s	n/a
513.742	0.089	1027484	keystroke_t	t	n/a
513.937	0.104	1027874	keystroke_r	r	n/a
513.981	0.181	1027962	keystroke_a	a	n/a
514.131	0.135	1028262	keystroke_t	t	n/a
514.356	0.076	1028712	keystroke_o	o	n/a
514.507	0.119	1029014	keystroke_r	r	n/a
514.627	0.059	1029254	keystroke_Key.space	Key.space	n/a
515.4665	0.135	1030933	keystroke_d	d	n/a
515.6165	0.075	1031233	keystroke_i	i	n/a
516.247	0.075	1032494	keystroke_r	r	n/a
516.607	0.075	1033214	keystroke_e	e	n/a
516.891	0.136	1033782	keystroke_c	c	n/a
517.1465	0.1645	1034293	keystroke_t	t	n/a
517.371	0.09	1034742	keystroke_o	o	n/a
517.506	0.1355	1035012	keystroke_r	r	n/a
517.8215	0.075	1035643	keystroke_i	i	n/a
517.9565	0.09	1035913	keystroke_e	e	n/a
518.1665	0.09	1036333	keystroke_s	s	n/a
518.2865	0.09	1036573	keystroke_Key.space	Key.space	n/a
519.037	0.165	1038074	keystroke_c	c	n/a
519.157	0.105	1038314	keystroke_a	a	n/a
519.322	0.105	1038644	keystroke_m	m	n/a
519.577	0.09	1039154	keystroke_e	e	n/a
519.832	0.044	1039664	keystroke_Key.space	Key.space	n/a
520.432	0.105	1040864	keystroke_j	j	n/a
520.552	0.135	1041104	keystroke_a	a	n/a
520.807	0.075	1041614	keystroke_p	p	n/a
520.912	0.134	1041824	keystroke_a	a	n/a
521.076	0.075	1042152	keystroke_n	n	n/a
521.166	0.09	1042332	keystroke_e	e	n/a
521.346	0.135	1042692	keystroke_s	s	n/a
521.451	0.091	1042902	keystroke_e	e	n/a
521.556	0.06	1043112	keystroke_Key.enter	Key.enter	n/a
521.623	15.7155	1043246	prompt	n/a	solved worcester minutes having\n
522.6515	0.12	1045303	keystroke_s	s	n/a
522.9965	0.0595	1045993	keystroke_o	o	n/a
523.176	0.075	1046352	keystroke_l	l	n/a
523.281	0.136	1046562	keystroke_v	v	n/a
523.387	0.12	1046774	keystroke_e	e	n/a
523.626	0.105	1047252	keystroke_d	d	n/a
523.776	0.09	1047552	keystroke_Key.space	Key.space	n/a
524.256	0.1055	1048512	keystroke_w	w	n/a
524.4665	0.075	1048933	keystroke_o	o	n/a
524.6015	0.12	1049203	keystroke_r	r	n/a
525.067	0.105	1050134	keystroke_c	c	n/a
525.397	0.12	1050794	keystroke_e	e	n/a
525.667	0.105	1051334	keystroke_s	s	n/a
526.012	0.105	1052024	keystroke_t	t	n/a
526.207	0.135	1052414	keystroke_e	e	n/a
526.312	0.12	1052624	keystroke_r	r	n/a
526.491	0.106	1052982	keystroke_Key.space	Key.space	n/a
526.792	0.12	1053584	keystroke_m	m	n/a
526.942	0.105	1053884	keystroke_i	i	n/a
527.017	0.195	1054034	keystroke_n	n	n/a
527.167	0.09	1054334	keystroke_i	i	n/a
529.2665	0.075	1058533	keystroke_Key.backspace	Key.backspace	n/a
529.6115	0.045	1059223	keystroke_u	u	n/a
530.0465	0.09	1060093	keystroke_t	t	n/a
530.2415	0.075	1060483	keystroke_i	i	n/a
530.4665	0.12	1060933	keystroke_e	e	n/a
530.7215	0.09	1061443	keystroke_s	s	n/a
530.9315	0.03	1061863	keystroke_Key.space	Key.space	n/a
531.3365	0.06	1062673	keystroke_h	h	n/a
533.994	0.001	1067988	keystroke_Key.backspace	Key.backspace	n/a
534.096	0.06	1068192	keystroke_Key.backspace	Key.backspace	n/a
534.276	0.045	1068552	keystroke_Key.backspace	Key.backspace	n/a
534.426	0.06	1068852	keystroke_Key.backspace	Key.backspace	n/a
534.606	0.06	1069212	keystroke_Key.backspace	Key.backspace	n/a
534.936	0.09	1069872	keystroke_e	e	n/a
535.177	0.075	1070354	keystroke_s	s	n/a
535.3265	0.09	1070653	keystroke_Key.space	Key.space	n/a
536.0165	0.09	1072033	keystroke_h	h	n/a
536.1365	0.105	1072273	keystroke_a	a	n/a
536.5265	0.1355	1073053	keystroke_v	v	n/a
536.647	0.12	1073294	keystroke_i	i	n/a
536.737	0.105	1073474	keystroke_n	n	n/a
536.842	0.09	1073684	keystroke_g	g	n/a
537.247	0.089	1074494	keystroke_Key.enter	Key.enter	n/a
537.3435	10.585	1074687	prompt	n/a	drinking careers containing nominated\n
538.056	0.136	1076112	keystroke_d	d	n/a
538.4315	0.1195	1076863	keystroke_r	r	n/a
538.5215	0.0745	1077043	keystroke_i	i	n/a
538.626	0.135	1077252	keystroke_n	n	n/a
538.716	0.0755	1077432	keystroke_k	k	n/a
538.8665	0.105	1077733	keystroke_i	i	n/a
538.9565	0.076	1077913	keystroke_n	n	n/a
539.0325	0.074	1078065	keystroke_g	g	n/a
539.1515	0.03	1078303	keystroke_Key.space	Key.space	n/a
540.1115	0.15	1080223	keystroke_c	c	n/a
540.2765	0.12	1080553	keystroke_a	a	n/a
540.5165	0.105	1081033	keystroke_r	r	n/a
540.8165	0.075	1081633	keystroke_e	e	n/a
540.9815	0.1055	1081963	keystroke_e	e	n/a
541.162	0.09	1082324	keystroke_r	r	n/a
541.432	0.074	1082864	keystroke_s	s	n/a
541.686	0.0155	1083372	keystroke_Key.space	Key.space	n/a
541.8515	0.135	1083703	keystroke_c	c	n/a
541.9415	0.105	1083883	keystroke_o	o	n/a
542.0315	0.1045	1084063	keystroke_n	n	n/a
542.226	0.075	1084452	keystroke_t	t	n/a
542.947	0.105	1085894	keystroke_a	a	n/a
543.082	0.09	1086164	keystroke_i	i	n/a
543.217	0.12	1086434	keystroke_n	n	n/a
543.562	0.105	1087124	keystroke_i	i	n/a
543.667	0.105	1087334	keystroke_n	n	n/a
543.832	0.09	1087664	keystroke_g	g	n/a
544.837	0.075	1089674	keystroke_Key.space	Key.space	n/a
545.077	0.15	1090154	keystroke_n	n	n/a
545.197	0.075	1090394	keystroke_o	o	n/a
546.112	0.105	1092224	keystroke_m	m	n/a
546.382	0.06	1092764	keystroke_i	i	n/a
546.921	0.076	1093842	keystroke_n	n	n/a
547.0415	0.105	1094083	keystroke_a	a	n/a
547.2215	0.09	1094443	keystroke_t	t	n/a
547.4915	0.09	1094983	keystroke_e	e	n/a
547.6865	0.075	1095373	keystroke_d	d	n/a
547.852	0.075	1095704	keystroke_Key.enter	Key.enter	n/a
547.9345	6.759	1095869	prompt	n/a	jpeg until passport drag\n
548.857	0.1045	1097714	keystroke_j	j	n/a
549.3665	0.075	1098733	keystroke_p	p	n/a
549.7415	0.105	1099483	keystroke_e	e	n/a
549.9215	0.105	1099843	keystroke_g	g	n/a
550.1915	0.0745	1100383	keystroke_Key.space	Key.space	n/a
550.5815	0.06	1101163	keystroke_u	u	n/a
550.7765	0.105	1101553	keystroke_n	n	n/a
550.9265	0.09	1101853	keystroke_t	t	n/a
551.0315	0.075	1102063	keystroke_i	i	n/a
551.4815	0.09	1102963	keystroke_l	l	n/a
551.7365	0.06	1103473	keystroke_Key.space	Key.space	n/a
552.1565	0.09	1104313	keystroke_p	p	n/a
552.2765	0.1045	1104553	keystroke_a	a	n/a
552.5465	0.06	1105093	keystroke_s	s	n/a
552.6965	0.075	1105393	keystroke_s	s	n/a
553.252	0.09	1106504	keystroke_p	p	n/a
553.417	0.09	1106834	keystroke_o	o	n/a
553.522	0.09	1107044	keystroke_r	r	n/a
553.702	0.075	1107404	keystroke_t	t	n/a
553.792	0.09	1107584	keystroke_Key.space	Key.space	n/a
553.987	0.15	1107974	keystroke_d	d	n/a
554.152	0.135	1108304	keystroke_r	r	n/a
554.257	0.12	1108514	keystroke_a	a	n/a
554.392	0.105	1108784	keystroke_g	g	n/a
554.616	0.075	1109232	keystroke_Key.enter	Key.enter	n/a
554.6985	10.6445	1109397	prompt	n/a	beneath villages handhelds electro\n
555.5165	0.09	1111033	keystroke_b	b	n/a
555.6515	0.09	1111303	keystroke_e	e	n/a
555.8015	0.09	1111603	keystroke_n	n	n/a
555.9815	0.09	1111963	keystroke_e	e	n/a
556.3565	0.12	1112713	keystroke_a	a	n/a
556.7465	0.09	1113493	keystroke_t	t	n/a
556.9115	0.075	1113823	keystroke_h	h	n/a
557.0765	0.105	1114153	keystroke_Key.space	Key.space	n/a
557.3015	0.135	1114603	keystroke_v	v	n/a
557.4515	0.075	1114903	keystroke_i	i	n/a
557.6465	0.075	1115293	keystroke_l	l	n/a
557.7965	0.09	1115593	keystroke_l	l	n/a
557.9765	0.06	1115953	keystroke_i	i	n/a
558.1115	0.15	1116223	keystroke_a	a	n/a
558.3065	0.1345	1116613	keystroke_g	g	n/a
558.4115	0.1045	1116823	keystroke_e	e	n/a
559.1315	0.045	1118263	keystroke_Key.backspace	Key.backspace	n/a
559.1465	0.015	1118293	keystroke_=	=	n/a
559.2815	0.06	1118563	keystroke_Key.backspace	Key.backspace	n/a
559.4315	0.045	1118863	keystroke_Key.backspace	Key.backspace	n/a
559.5665	0.06	1119133	keystroke_Key.backspace	Key.backspace	n/a
559.7165	0.075	1119433	keystroke_Key.backspace	Key.backspace	n/a
559.912	0.105	1119824	keystroke_a	a	n/a
560.017	0.12	1120034	keystroke_g	g	n/a
560.122	0.105	1120244	keystroke_e	e	n/a
560.287	0.075	1120574	keystroke_Key.space	Key.space	n/a
560.767	0.06	1121534	keystroke_Key.backspace	Key.backspace	n/a
560.872	0.09	1121744	keystroke_s	s	n/a
561.022	0.0595	1122044	keystroke_Key.space	Key.space	n/a
561.7115	0.06	1123423	keystroke_h	h	n/a
561.7865	0.09	1123573	keystroke_a	a	n/a
561.8915	0.09	1123783	keystroke_n	n	n/a
562.0115	0.09	1124023	keystroke_d	d	n/a
562.2965	0.075	1124593	keystroke_h	h	n/a
562.4915	0.1195	1124983	keystroke_e	e	n/a
562.656	0.075	1125312	keystroke_l	l	n/a
562.776	0.105	1125552	keystroke_d	d	n/a
563.181	0.09	1126362	keystroke_s	s	n/a
563.331	0.075	1126662	keystroke_Key.space	Key.space	n/a
563.812	0.119	1127624	keystroke_e	e	n/a
564.081	0.076	1128162	keystroke_l	l	n/a
564.261	0.09	1128522	keystroke_e	e	n/a
564.516	0.075	1129032	keystroke_c	c	n/a
564.681	0.09	1129362	keystroke_t	t	n/a
564.891	0.105	1129782	keystroke_r	r	n/a
565.026	0.105	1130052	keystroke_o	o	n/a
565.266	0.075	1130532	keystroke_Key.enter	Key.enter	n/a
565.348	20.305	1130696	prompt	n/a	absence advertising paxil tribune\n
566.151	0.12	1132302	keystroke_a	a	n/a
566.511	0.09	1133022	keystroke_b	b	n/a
566.7065	0.12	1133413	keystroke_a	a	n/a
567.1415	0.06	1134283	keystroke_Key.backspace	Key.backspace	n/a
567.2465	0.105	1134493	keystroke_s	s	n/a
567.6215	0.12	1135243	keystroke_e	e	n/a
567.8015	0.0755	1135603	keystroke_n	n	n/a
568.267	0.09	1136534	keystroke_c	c	n/a
568.431	0.106	1136862	keystroke_e	e	n/a
568.852	0.105	1137704	keystroke_a	a	n/a
569.092	0.105	1138184	keystroke_d	d	n/a
569.377	0.135	1138754	keystroke_v	v	n/a
569.872	0.135	1139744	keystroke_e	e	n/a
570.037	0.105	1140074	keystroke_r	r	n/a
570.247	0.075	1140494	keystroke_t	t	n/a
570.487	0.06	1140974	keystroke_i	i	n/a
570.637	0.104	1141274	keystroke_s	s	n/a
570.756	0.151	1141512	keystroke_i	i	n/a
570.891	0.105	1141782	keystroke_n	n	n/a
571.012	0.074	1142024	keystroke_g	g	n/a
571.431	0.075	1142862	keystroke_Key.space	Key.space	n/a
574.4615	0.06	1148923	keystroke_Key.backspace	Key.backspace	n/a
574.6415	0.045	1149283	keystroke_Key.backspace	Key.backspace	n/a
574.7915	0.06	1149583	keystroke_Key.backspace	Key.backspace	n/a
574.9865	0.1505	1149973	keystroke_Key.backspace	Key.backspace	n/a
575.212	0.105	1150424	keystroke_Key.backspace	Key.backspace	n/a
575.497	0.105	1150994	keystroke_Key.backspace	Key.backspace	n/a
575.751	0.06	1151502	keystroke_Key.backspace	Key.backspace	n/a
576.876	0.105	1153752	keystroke_Key.space	Key.space	n/a
577.1165	0.12	1154233	keystroke_a	a	n/a
577.3565	0.075	1154713	keystroke_d	d	n/a
578.0615	0.135	1156123	keystroke_v	v	n/a
578.3615	0.15	1156723	keystroke_e	e	n/a
578.5265	0.12	1157053	keystroke_r	r	n/a
579.1265	0.105	1158253	keystroke_t	t	n/a
579.2615	0.075	1158523	keystroke_i	i	n/a
579.3965	0.09	1158793	keystroke_s	s	n/a
579.5015	0.105	1159003	keystroke_i	i	n/a
579.6515	0.12	1159303	keystroke_n	n	n/a
579.7865	0.12	1159573	keystroke_g	g	n/a
579.8915	0.075	1159783	keystroke_Key.space	Key.space	n/a
580.731	0.105	1161462	keystroke_p	p	n/a
581.211	0.075	1162422	keystroke_a	a	n/a
581.466	0.135	1162932	keystroke_x	x	n/a
581.751	0.075	1163502	keystroke_i	i	n/a
581.991	0.075	1163982	keystroke_l	l	n/a
582.261	0.105	1164522	keystroke_Key.space	Key.space	n/a
583.5815	0.105	1167163	keystroke_t	t	n/a
584.1515	0.1045	1168303	keystroke_r	r	n/a
584.436	0.075	1168872	keystroke_i	i	n/a
584.736	0.135	1169472	keystroke_b	b	n/a
585.096	0.045	1170192	keystroke_u	u	n/a
585.306	0.09	1170612	keystroke_n	n	n/a
585.411	0.075	1170822	keystroke_e	e	n/a
585.576	0.075	1171152	keystroke_Key.enter	Key.enter	n/a
585.6625	12.726	1171325	prompt	n/a	princess pulse removable element\n
586.6415	0.105	1173283	keystroke_p	p	n/a
586.8815	0.12	1173763	keystroke_r	r	n/a
587.077	0.105	1174154	keystroke_i	i	n/a
587.211	0.105	1174422	keystroke_n	n	n/a
587.451	0.136	1174902	keystroke_c	c	n/a
587.692	0.09	1175384	keystroke_e	e	n/a
587.946	0.06	1175892	keystroke_s	s	n/a
588.096	0.076	1176192	keystroke_s	s	n/a
588.5165	0.105	1177033	keystroke_p	p	n/a
588.7415	0.075	1177483	keystroke_u	u	n/a
588.9215	0.09	1177843	keystroke_l	l	n/a
589.0865	0.165	1178173	keystroke_s	s	n/a
589.2065	0.12	1178413	keystroke_e	e	n/a
589.9265	0.09	1179853	keystroke_Key.backspace	Key.backspace	n/a
590.1065	0.06	1180213	keystroke_Key.backspace	Key.backspace	n/a
590.2715	0.075	1180543	keystroke_Key.backspace	Key.backspace	n/a
590.4215	0.075	1180843	keystroke_Key.backspace	Key.backspace	n/a
590.5865	0.075	1181173	keystroke_Key.backspace	Key.backspace	n/a
591.0665	0.105	1182133	keystroke_Key.space	Key.space	n/a
591.7415	0.075	1183483	keystroke_p	p	n/a
591.9815	0.0745	1183963	keystroke_u	u	n/a
592.2965	0.0595	1184593	keystroke_l	l	n/a
592.8965	0.165	1185793	keystroke_s	s	n/a
593.0315	0.135	1186063	keystroke_e	e	n/a
593.2415	0.105	1186483	keystroke_Key.space	Key.space	n/a
593.976	0.135	1187952	keystroke_r	r	n/a
594.082	0.105	1188164	keystroke_e	e	n/a
594.202	0.164	1188404	keystroke_m	m	n/a
594.322	0.09	1188644	keystroke_o	o	n/a
594.351	0.136	1188702	keystroke_v	v	n/a
594.456	0.105	1188912	keystroke_e	e	n/a
595.251	0.09	1190502	keystroke_Key.backspace	Key.backspace	n/a
595.611	0.105	1191222	keystroke_a	a	n/a
595.971	0.09	1191942	keystroke_b	b	n/a
596.121	0.075	1192242	keystroke_l	l	n/a
596.257	0.09	1192514	keystroke_e	e	n/a
596.406	0.045	1192812	keystroke_Key.space	Key.space	n/a
597.1115	0.09	1194223	keystroke_e	e	n/a
597.2315	0.105	1194463	keystroke_l	l	n/a
597.3365	0.09	1194673	keystroke_e	e	n/a
597.5015	0.105	1195003	keystroke_m	m	n/a
597.6215	0.105	1195243	keystroke_e	e	n/a
597.7565	0.075	1195513	keystroke_n	n	n/a
597.8915	0.09	1195783	keystroke_t	t	n/a
598.2815	0.105	1196563	keystroke_Key.enter	Key.enter	n/a
598.3945	10.0435	1196789	prompt	n/a	tabs dispatched formal receptor\n
599.6315	0.15	1199263	keystroke_t	t	n/a
599.8265	0.09	1199653	keystroke_a	a	n/a
599.977	0.119	1199954	keystroke_b	b	n/a
600.201	0.09	1200402	keystroke_s	s	n/a
600.9515	0.015	1201903	keystroke_Key.space	Key.space	n/a
601.1915	0.135	1202383	keystroke_d	d	n/a
601.3415	0.06	1202683	keystroke_i	i	n/a
601.4615	0.09	1202923	keystroke_s	s	n/a
601.9865	0.075	1203973	keystroke_p	p	n/a
602.0765	0.135	1204153	keystroke_a	a	n/a
602.6015	0.105	1205203	keystroke_t	t	n/a
602.8715	0.12	1205743	keystroke_c	c	n/a
603.0365	0.06	1206073	keystroke_h	h	n/a
603.1265	0.09	1206253	keystroke_e	e	n/a
603.3365	0.075	1206673	keystroke_d	d	n/a
603.456	0.075	1206912	keystroke_Key.space	Key.space	n/a
603.8615	0.105	1207723	keystroke_f	f	n/a
604.1015	0.09	1208203	keystroke_r	r	n/a
604.7015	0.075	1209403	keystroke_Key.backspace	Key.backspace	n/a
604.9265	0.075	1209853	keystroke_o	o	n/a
605.0315	0.09	1210063	keystroke_r	r	n/a
605.1815	0.075	1210363	keystroke_m	m	n/a
605.6765	0.105	1211353	keystroke_a	a	n/a
605.8115	0.09	1211623	keystroke_l	l	n/a
605.9905	0.076	1211981	keystroke_Key.space	Key.space	n/a
606.3365	0.105	1212673	keystroke_r	r	n/a
606.4265	0.09	1212853	keystroke_e	e	n/a
606.6815	0.105	1213363	keystroke_c	c	n/a
607.251	0.075	1214502	keystroke_e	e	n/a
607.626	0.09	1215252	keystroke_p	p	n/a
607.851	0.12	1215702	keystroke_t	t	n/a
608.0015	0.09	1216003	keystroke_o	o	n/a
608.1365	0.105	1216273	keystroke_r	r	n/a
608.3465	0.09	1216693	keystroke_Key.enter	Key.enter	n/a
608.443	12.625	1216886	prompt	n/a	plates publicly falls challenges\n
609.517	0.075	1219034	keystroke_p	p	n/a
609.651	0.121	1219302	keystroke_l	l	n/a
609.772	0.149	1219544	keystroke_a	a	n/a
610.072	0.059	1220144	keystroke_t	t	n/a
610.162	0.104	1220324	keystroke_e	e	n/a
610.387	0.075	1220774	keystroke_s	s	n/a
610.521	0.09	1221042	keystroke_Key.space	Key.space	n/a
611.6015	0.09	1223203	keystroke_p	p	n/a
611.7815	0.075	1223563	keystroke_u	u	n/a
612.0815	0.105	1224163	keystroke_b	b	n/a
612.3065	0.12	1224613	keystroke_l	l	n/a
612.5315	0.045	1225063	keystroke_i	i	n/a
613.2215	0.075	1226443	keystroke_Key.backspace	Key.backspace	n/a
613.6115	0.06	1227223	keystroke_Key.backspace	Key.backspace	n/a
613.9115	0.06	1227823	keystroke_i	i	n/a
614.106	0.105	1228212	keystroke_l	l	n/a
615.276	0.0905	1230552	keystroke_Key.backspace	Key.backspace	n/a
615.4115	0.09	1230823	keystroke_Key.backspace	Key.backspace	n/a
615.9965	0.12	1231993	keystroke_l	l	n/a
616.1765	0.075	1232353	keystroke_i	i	n/a
616.2965	0.15	1232593	keystroke_c	c	n/a
616.4915	0.135	1232983	keystroke_l	l	n/a
616.746	0.075	1233492	keystroke_y	y	n/a
616.866	0.12	1233732	keystroke_Key.space	Key.space	n/a
617.316	0.165	1234632	keystroke_f	f	n/a
617.436	0.12	1234872	keystroke_a	a	n/a
617.586	0.075	1235172	keystroke_l	l	n/a
617.736	0.075	1235472	keystroke_l	l	n/a
617.826	0.105	1235652	keystroke_s	s	n/a
617.991	0.0755	1235982	keystroke_Key.space	Key.space	n/a
618.3365	0.135	1236673	keystroke_c	c	n/a
618.7865	0.06	1237573	keystroke_h	h	n/a
618.9065	0.12	1237813	keystroke_a	a	n/a
619.7315	0.06	1239463	keystroke_l	l	n/a
619.8665	0.075	1239733	keystroke_l	l	n/a
620.0165	0.09	1240033	keystroke_e	e	n/a
620.1515	0.06	1240303	keystroke_n	n	n/a
620.4065	0.09	1240813	keystroke_g	g	n/a
620.6165	0.09	1241233	keystroke_e	e	n/a
620.8565	0.075	1241713	keystroke_s	s	n/a
620.9915	0.0745	1241983	keystroke_Key.enter	Key.enter	n/a
621.073	11.56	1242146	prompt	n/a	equivalent stating pump gaps\n
622.086	0.1505	1244172	keystroke_e	e	n/a
622.2515	0.119	1244503	keystroke_q	q	n/a
622.6115	0.089	1245223	keystroke_u	u	n/a
623.3915	0.09	1246783	keystroke_i	i	n/a
623.5565	0.135	1247113	keystroke_v	v	n/a
623.8865	0.105	1247773	keystroke_a	a	n/a
624.0515	0.09	1248103	keystroke_l	l	n/a
624.3815	0.12	1248763	keystroke_e	e	n/a
624.4865	0.075	1248973	keystroke_n	n	n/a
624.6215	0.09	1249243	keystroke_t	t	n/a
624.6965	0.105	1249393	keystroke_Key.space	Key.space	n/a
625.0115	0.1195	1250023	keystroke_s	s	n/a
625.176	0.12	1250352	keystroke_t	t	n/a
625.281	0.15	1250562	keystroke_a	a	n/a
625.416	0.12	1250832	keystroke_t	t	n/a
625.596	0.12	1251192	keystroke_i	i	n/a
625.701	0.105	1251402	keystroke_n	n	n/a
625.791	0.106	1251582	keystroke_g	g	n/a
627.3065	0.09	1254613	keystroke_Key.space	Key.space	n/a
628.056	0.09	1256112	keystroke_p	p	n/a
628.311	0.03	1256622	keystroke_i	i	n/a
628.326	0.06	1256652	keystroke_u	u	n/a
628.566	0.195	1257132	keystroke_m	m	n/a
628.746	0.075	1257492	keystroke_p	p	n/a
629.151	0.06	1258302	keystroke_Key.backspace	Key.backspace	n/a
629.316	0.045	1258632	keystroke_Key.backspace	Key.backspace	n/a
629.4365	0.0745	1258873	keystroke_Key.backspace	Key.backspace	n/a
629.586	0.075	1259172	keystroke_Key.backspace	Key.backspace	n/a
630.2165	0.1045	1260433	keystroke_u	u	n/a
630.531	0.1655	1261062	keystroke_m	m	n/a
630.7865	0.105	1261573	keystroke_p	p	n/a
631.1165	0.105	1262233	keystroke_Key.space	Key.space	n/a
631.5515	0.15	1263103	keystroke_g	g	n/a
631.6715	0.135	1263343	keystroke_a	a	n/a
632.1965	0.09	1264393	keystroke_p	p	n/a
632.347	0.09	1264694	keystroke_s	s	n/a
632.5415	0.09	1265083	keystroke_Key.enter	Key.enter	n/a
632.6375	12.2205	1265275	prompt	n/a	increased comments blind goes\n
633.6365	0.075	1267273	keystroke_i	i	n/a
633.7715	0.09	1267543	keystroke_n	n	n/a
634.0265	0.135	1268053	keystroke_c	c	n/a
634.2365	0.165	1268473	keystroke_r	r	n/a
634.3415	0.15	1268683	keystroke_e	e	n/a
635.181	0.105	1270362	keystroke_a	a	n/a
635.421	0.12	1270842	keystroke_s	s	n/a
635.766	0.105	1271532	keystroke_e	e	n/a
635.976	0.12	1271952	keystroke_d	d	n/a
636.2165	0.09	1272433	keystroke_Key.space	Key.space	n/a
636.5315	0.165	1273063	keystroke_c	c	n/a
636.6365	0.09	1273273	keystroke_o	o	n/a
636.8465	0.075	1273693	keystroke_m	m	n/a
636.9965	0.1045	1273993	keystroke_m	m	n/a
637.5215	0.15	1275043	keystroke_e	e	n/a
637.6565	0.06	1275313	keystroke_n	n	n/a
637.7915	0.105	1275583	keystroke_t	t	n/a
638.0465	0.075	1276093	keystroke_s	s	n/a
638.3615	0.105	1276723	keystroke_b	b	n/a
638.4515	0.12	1276903	keystroke_l	l	n/a
638.6165	0.12	1277233	keystroke_i	i	n/a
638.7665	0.105	1277533	keystroke_n	n	n/a
639.0055	0.09	1278011	keystroke_d	d	n/a
639.831	0.075	1279662	keystroke_Key.backspace	Key.backspace	n/a
640.011	0.06	1280022	keystroke_Key.backspace	Key.backspace	n/a
640.176	0.045	1280352	keystroke_Key.backspace	Key.backspace	n/a
640.326	0.075	1280652	keystroke_Key.backspace	Key.backspace	n/a
640.476	0.075	1280952	keystroke_Key.backspace	Key.backspace	n/a
641.046	0.06	1282092	keystroke_Key.space	Key.space	n/a
641.751	0.09	1283502	keystroke_l	l	n/a
642.201	0.075	1284402	keystroke_Key.backspace	Key.backspace	n/a
642.336	0.09	1284672	keystroke_b	b	n/a
642.4865	0.1195	1284973	keystroke_l	l	n/a
643.2665	0.09	1286533	keystroke_i	i	n/a
643.416	0.105	1286832	keystroke_n	n	n/a
643.537	0.104	1287074	keystroke_d	d	n/a
643.701	0.105	1287402	keystroke_Key.space	Key.space	n/a
644.001	0.12	1288002	keystroke_g	g	n/a
644.106	0.076	1288212	keystroke_o	o	n/a
644.256	0.1055	1288512	keystroke_e	e	n/a
644.4815	0.1045	1288963	keystroke_s	s	n/a
644.796	0.06	1289592	keystroke_Key.enter	Key.enter	n/a
644.8635	8.1995	1289727	prompt	n/a	postings pregnant before difficult\n
645.7565	0.105	1291513	keystroke_p	p	n/a
645.9215	0.09	1291843	keystroke_o	o	n/a
646.1315	0.12	1292263	keystroke_s	s	n/a
646.3115	0.12	1292623	keystroke_t	t	n/a
646.3865	0.12	1292773	keystroke_i	i	n/a
646.4915	0.105	1292983	keystroke_n	n	n/a
646.6115	0.12	1293223	keystroke_g	g	n/a
646.8365	0.105	1293673	keystroke_s	s	n/a
647.0015	0.105	1294003	keystroke_Key.space	Key.space	n/a
647.3915	0.09	1294783	keystroke_p	p	n/a
647.5415	0.135	1295083	keystroke_r	r	n/a
647.6465	0.09	1295293	keystroke_e	e	n/a
648.0065	0.105	1296013	keystroke_g	g	n/a
648.681	0.105	1297362	keystroke_n	n	n/a
648.816	0.135	1297632	keystroke_a	a	n/a
648.936	0.09	1297872	keystroke_n	n	n/a
649.251	0.0895	1298502	keystroke_t	t	n/a
649.5805	0.12	1299161	keystroke_Key.space	Key.space	n/a
649.896	0.091	1299792	keystroke_b	b	n/a
650.001	0.12	1300002	keystroke_e	e	n/a
650.151	0.15	1300302	keystroke_f	f	n/a
650.346	0.06	1300692	keystroke_o	o	n/a
650.421	0.12	1300842	keystroke_r	r	n/a
650.511	0.12	1301022	keystroke_e	e	n/a
