onset	duration	sample	value	key	prompt_text
4.454	11.3745	8908	prompt	n/a	the quick brown fox jumps over a lazy dog\n
5.881	0.012	11762	keystroke_t	t	n/a
5.968	0.1205	11936	keystroke_h	h	n/a
6.1935	0.119	12387	keystroke_e	e	n/a
6.4625	0.107	12925	keystroke_Key.space	Key.space	n/a
7.0945	0.135	14189	keystroke_q	q	n/a
7.2145	0.06	14429	keystroke_u	u	n/a
7.4245	0.089	14849	keystroke_i	i	n/a
7.694	0.1645	15388	keystroke_c	c	n/a
7.8885	0.045	15777	keystroke_k	k	n/a
8.1735	0.12	16347	keystroke_Key.space	Key.space	n/a
8.3535	0.1055	16707	keystroke_b	b	n/a
8.519	0.105	17038	keystroke_o	o	n/a
8.7445	0.1045	17489	keystroke_w	w	n/a
9.2545	0.09	18509	keystroke_Key.backspace	Key.backspace	n/a
9.4345	0.12	18869	keystroke_Key.backspace	Key.backspace	n/a
9.839	0.045	19678	keystroke_r	r	n/a
9.914	0.075	19828	keystroke_o	o	n/a
10.094	0.09	20188	keystroke_w	w	n/a
10.244	0.105	20488	keystroke_n	n	n/a
10.424	0.105	20848	keystroke_Key.space	Key.space	n/a
10.784	0.075	21568	keystroke_d	d	n/a
10.904	0.135	21808	keystroke_o	o	n/a
11.099	0.12	22198	keystroke_x	x	n/a
11.309	0.105	22618	keystroke_Key.backspace	Key.backspace	n/a
11.504	0.075	23008	keystroke_Key.backspace	Key.backspace	n/a
11.654	0.12	23308	keystroke_Key.backspace	Key.backspace	n/a
12.059	0.06	24118	keystroke_f	f	n/a
12.1495	0.0895	24299	keystroke_o	o	n/a
12.284	0.135	24568	keystroke_x	x	n/a
12.4645	0.104	24929	keystroke_Key.space	Key.space	n/a
12.6145	0.105	25229	keystroke_j	j	n/a
12.7945	0.135	25589	keystroke_u	u	n/a
12.9595	0.045	25919	keystroke_m	m	n/a
13.2145	0.105	26429	keystroke_p	p	n/a
13.3495	0.1195	26699	keystroke_s	s	n/a
13.529	0.1045	27058	keystroke_Key.space	Key.space	n/a
13.6495	0.1195	27299	keystroke_o	o	n/a
13.784	0.045	27568	keystroke_v	v	n/a
13.934	0.1205	27868	keystroke_e	e	n/a
14.0095	0.09	28019	keystroke_r	r	n/a
14.1145	0.074	28229	keystroke_Key.space	Key.space	n/a
14.2335	0.106	28467	keystroke_a	a	n/a
14.3245	0.06	28649	keystroke_Key.space	Key.space	n/a
14.5345	0.075	29069	keystroke_l	l	n/a
14.6395	0.15	29279	keystroke_a	a	n/a
14.7745	0.105	29549	keystroke_z	z	n/a
14.9695	0.09	29939	keystroke_y	y	n/a
15.0895	0.105	30179	keystroke_Key.space	Key.space	n/a
15.2545	0.09	30509	keystroke_d	d	n/a
15.3745	0.105	30749	keystroke_o	o	n/a
15.5095	0.06	31019	keystroke_g	g	n/a
15.7345	0.09	31469	keystroke_Key.enter	Key.enter	n/a
15.836	13.551	31672	prompt	n/a	temporarily profession circles speaking\n
16.5295	0.12	33059	keystroke_r	r	n/a
16.6645	0.105	33329	keystroke_e	e	n/a
17.1435	0.061	34287	keystroke_Key.backspace	Key.backspace	n/a
17.3095	0.09	34619	keystroke_Key.backspace	Key.backspace	n/a
17.4595	0.105	34919	keystroke_t	t	n/a
17.5945	0.09	35189	keystroke_e	e	n/a
17.7295	0.06	35459	keystroke_m	m	n/a
17.9695	0.105	35939	keystroke_p	p	n/a
18.4795	0.075	36959	keystroke_o	o	n/a
18.7345	0.135	37469	keystroke_r	r	n/a
19.1245	0.135	38249	keystroke_a	a	n/a
20.0395	0.09	40079	keystroke_r	r	n/a
20.2645	0.075	40529	keystroke_i	i	n/a
20.4895	0.105	40979	keystroke_l	l	n/a
20.6095	0.15	41219	keystroke_y	y	n/a
20.8795	0.09	41759	keystroke_Key.space	Key.space	n/a
21.0745	0.105	42149	keystroke_p	p	n/a
21.2395	0.075	42479	keystroke_r	r	n/a
21.3295	0.09	42659	keystroke_o	o	n/a
21.8395	0.1205	43679	keystroke_f	f	n/a
22.0045	0.09	44009	keystroke_e	e	n/a
22.2745	0.075	44549	keystroke_s	s	n/a
22.4245	0.09	44849	keystroke_s	s	n/a
22.5295	0.075	45059	keystroke_i	i	n/a
22.7245	0.075	45449	keystroke_o	o	n/a
22.9495	0.075	45899	keystroke_n	n	n/a
23.114	0.135	46228	keystroke_Key.space	Key.space	n/a
23.4745	0.075	46949	keystroke_c	c	n/a
23.7745	0.09	47549	keystroke_i	i	n/a
23.8945	0.075	47789	keystroke_r	r	n/a
24.1945	0.06	48389	keystroke_c	c	n/a
24.3145	0.12	48629	keystroke_l	l	n/a
24.4195	0.075	48839	keystroke_e	e	n/a
24.5995	0.075	49199	keystroke_s	s	n/a
24.8695	0.075	49739	keystroke_s	s	n/a
25.094	0.075	50188	keystroke_Key.backspace	Key.backspace	n/a
25.244	0.105	50488	keystroke_Key.backspace	Key.backspace	n/a
25.334	0.1205	50668	keystroke_Key.space	Key.space	n/a
25.4695	0.075	50939	keystroke_s	s	n/a
25.7845	0.09	51569	keystroke_Key.backspace	Key.backspace	n/a
25.9495	0.09	51899	keystroke_Key.backspace	Key.backspace	n/a
25.9795	0.105	51959	keystroke_s	s	n/a
26.1145	0.105	52229	keystroke_Key.space	Key.space	n/a
26.564	0.045	53128	keystroke_p	p	n/a
26.639	0.09	53278	keystroke_s	s	n/a
26.984	0.075	53968	keystroke_Key.backspace	Key.backspace	n/a
27.149	0.09	54298	keystroke_Key.backspace	Key.backspace	n/a
27.24	0.074	54480	keystroke_s	s	n/a
27.344	0.075	54688	keystroke_p	p	n/a
27.554	0.12	55108	keystroke_r	r	n/a
27.989	0.09	55978	keystroke_Key.backspace	Key.backspace	n/a
28.124	0.075	56248	keystroke_e	e	n/a
28.259	0.12	56518	keystroke_a	a	n/a
28.394	0.105	56788	keystroke_k	k	n/a
28.604	0.135	57208	keystroke_i	i	n/a
28.814	0.12	57628	keystroke_n	n	n/a
28.95	0.089	57900	keystroke_g	g	n/a
29.294	0.09	58588	keystroke_Key.enter	Key.enter	n/a
29.393	8.814	58786	prompt	n/a	towards brand product looksmart\n
30.105	0.074	60210	keystroke_t	t	n/a
30.359	0.046	60718	keystroke_w	w	n/a
30.629	0.135	61258	keystroke_Key.backspace	Key.backspace	n/a
30.735	0.104	61470	keystroke_o	o	n/a
30.869	0.105	61738	keystroke_w	w	n/a
31.199	0.09	62398	keystroke_a	a	n/a
31.409	0.03	62818	keystroke_r	r	n/a
31.559	0.21	63118	keystroke_d	d	n/a
31.784	0.075	63568	keystroke_s	s	n/a
31.964	0.09	63928	keystroke_Key.space	Key.space	n/a
32.744	0.105	65488	keystroke_b	b	n/a
32.924	0.075	65848	keystroke_r	r	n/a
33.089	0.091	66178	keystroke_a	a	n/a
33.194	0.09	66388	keystroke_n	n	n/a
33.269	0.105	66538	keystroke_d	d	n/a
33.689	0.075	67378	keystroke_Key.space	Key.space	n/a
34.274	0.075	68548	keystroke_p	p	n/a
34.409	0.061	68818	keystroke_r	r	n/a
34.484	0.091	68968	keystroke_o	o	n/a
34.634	0.105	69268	keystroke_d	d	n/a
34.829	0.09	69658	keystroke_u	u	n/a
34.889	0.105	69778	keystroke_c	c	n/a
35.1	0.06	70200	keystroke_t	t	n/a
35.669	0.075	71338	keystroke_Key.space	Key.space	n/a
35.999	0.075	71998	keystroke_l	l	n/a
36.165	0.074	72330	keystroke_o	o	n/a
36.314	0.121	72628	keystroke_o	o	n/a
36.405	0.105	72810	keystroke_k	k	n/a
36.524	0.09	73048	keystroke_s	s	n/a
36.825	0.074	73650	keystroke_a	a	n/a
37.079	0.105	74158	keystroke_Key.backspace	Key.backspace	n/a
37.499	0.06	74998	keystroke_m	m	n/a
37.605	0.164	75210	keystroke_a	a	n/a
37.755	0.075	75510	keystroke_r	r	n/a
37.934	0.091	75868	keystroke_t	t	n/a
38.129	0.075	76258	keystroke_Key.enter	Key.enter	n/a
38.2115	6.6855	76423	prompt	n/a	urban existing recall less\n
39.015	0.105	78030	keystroke_u	u	n/a
39.18	0.074	78360	keystroke_r	r	n/a
39.314	0.06	78628	keystroke_b	b	n/a
39.434	0.091	78868	keystroke_a	a	n/a
39.539	0.076	79078	keystroke_n	n	n/a
39.764	0.12	79528	keystroke_Key.space	Key.space	n/a
40.155	0.03	80310	keystroke_s	s	n/a
40.484	0.09	80968	keystroke_Key.backspace	Key.backspace	n/a
40.65	0.075	81300	keystroke_e	e	n/a
40.829	0.181	81658	keystroke_x	x	n/a
41.985	0.09	83970	keystroke_i	i	n/a
42.195	0.09	84390	keystroke_s	s	n/a
42.39	0.075	84780	keystroke_t	t	n/a
42.494	0.076	84988	keystroke_i	i	n/a
42.614	0.106	85228	keystroke_n	n	n/a
42.735	0.06	85470	keystroke_g	g	n/a
42.855	0.09	85710	keystroke_Key.space	Key.space	n/a
42.99	0.105	85980	keystroke_r	r	n/a
43.08	0.09	86160	keystroke_e	e	n/a
43.5	0.105	87000	keystroke_c	c	n/a
43.635	0.105	87270	keystroke_a	a	n/a
43.71	0.09	87420	keystroke_l	l	n/a
43.89	0.06	87780	keystroke_l	l	n/a
43.995	0.105	87990	keystroke_Key.space	Key.space	n/a
44.235	0.075	88470	keystroke_l	l	n/a
44.325	0.06	88650	keystroke_e	e	n/a
44.505	0.074	89010	keystroke_s	s	n/a
44.685	0.06	89370	keystroke_s	s	n/a
44.805	0.09	89610	keystroke_Key.enter	Key.enter	n/a
44.9025	6.7445	89805	prompt	n/a	opponents yellow loose values\n
45.51	0.105	91020	keystroke_o	o	n/a
45.914	0.075	91828	keystroke_p	p	n/a
46.08	0.06	92160	keystroke_p	p	n/a
46.245	0.105	92490	keystroke_o	o	n/a
46.71	0.105	93420	keystroke_n	n	n/a
46.889	0.091	93778	keystroke_e	e	n/a
47.04	0.12	94080	keystroke_n	n	n/a
47.175	0.06	94350	keystroke_t	t	n/a
47.43	0.09	94860	keystroke_s	s	n/a
47.535	0.105	95070	keystroke_Key.space	Key.space	n/a
48.105	0.045	96210	keystroke_y	y	n/a
48.255	0.12	96510	keystroke_e	e	n/a
48.48	0.075	96960	keystroke_l	l	n/a
48.63	0.09	97260	keystroke_l	l	n/a
48.765	0.12	97530	keystroke_o	o	n/a
48.9	0.135	97800	keystroke_w	w	n/a
49.245	0.195	98490	keystroke_Key.space	Key.space	n/a
49.56	0.06	99120	keystroke_l	l	n/a
49.725	0.075	99450	keystroke_o	o	n/a
49.875	0.12	99750	keystroke_o	o	n/a
50.01	0.06	100020	keystroke_s	s	n/a
50.205	0.075	100410	keystroke_e	e	n/a
50.25	0.09	100500	keystroke_Key.space	Key.space	n/a
50.505	0.12	101010	keystroke_v	v	n/a
50.745	0.12	101490	keystroke_a	a	n/a
50.88	0.075	101760	keystroke_l	l	n/a
51.105	0.09	102210	keystroke_u	u	n/a
51.195	0.075	102390	keystroke_e	e	n/a
51.39	0.09	102780	keystroke_s	s	n/a
51.54	0.105	103080	keystroke_Key.enter	Key.enter	n/a
51.6515	10.8405	103303	prompt	n/a	russian remarkable zinc conducting\n
52.275	0.09	104550	keystroke_r	r	n/a
52.44	0.09	104880	keystroke_u	u	n/a
52.575	0.075	105150	keystroke_s	s	n/a
52.74	0.075	105480	keystroke_s	s	n/a
52.83	0.09	105660	keystroke_i	i	n/a
52.965	0.105	105930	keystroke_a	a	n/a
53.085	0.09	106170	keystroke_n	n	n/a
53.19	0.105	106380	keystroke_Key.space	Key.space	n/a
53.415	0.09	106830	keystroke_r	r	n/a
53.76	0.075	107520	keystroke_e	e	n/a
54.045	0.06	108090	keystroke_n	n	n/a
54.465	0.105	108930	keystroke_Key.backspace	Key.backspace	n/a
54.735	0.075	109470	keystroke_m	m	n/a
54.855	0.09	109710	keystroke_a	a	n/a
55.035	0.075	110070	keystroke_r	r	n/a
55.2	0.09	110400	keystroke_k	k	n/a
55.86	0.09	111720	keystroke_a	a	n/a
56.175	0.09	112350	keystroke_l	l	n/a
56.5045	0.09	113009	keystroke_Key.backspace	Key.backspace	n/a
56.6095	0.06	113219	keystroke_b	b	n/a
56.6995	0.09	113399	keystroke_l	l	n/a
56.8195	0.105	113639	keystroke_e	e	n/a
56.9395	0.105	113879	keystroke_Key.space	Key.space	n/a
57.1795	0.09	114359	keystroke_s	s	n/a
57.4795	0.06	114959	keystroke_Key.backspace	Key.backspace	n/a
57.5405	0.104	115081	keystroke_z	z	n/a
57.6595	0.09	115319	keystroke_i	i	n/a
57.7645	0.075	115529	keystroke_n	n	n/a
57.9595	0.075	115919	keystroke_k	k	n/a
58.3195	0.105	116639	keystroke_Key.backspace	Key.backspace	n/a
58.3945	0.135	116789	keystroke_c	c	n/a
58.9645	0.135	117929	keystroke_Key.space	Key.space	n/a
59.2345	0.12	118469	keystroke_c	c	n/a
59.3405	0.074	118681	keystroke_o	o	n/a
59.5345	0.075	119069	keystroke_n	n	n/a
59.6395	0.09	119279	keystroke_d	d	n/a
59.8195	0.075	119639	keystroke_u	u	n/a
59.9395	0.075	119879	keystroke_c	c	n/a
60.1195	0.09	120239	keystroke_t	t	n/a
60.1795	0.09	120359	keystroke_i	i	n/a
60.3745	0.06	120749	keystroke_o	o	n/a
60.5095	0.09	121019	keystroke_n	n	n/a
61.0645	0.03	122129	keystroke_Key.backspace	Key.backspace	n/a
61.2145	0.135	122429	keystroke_Key.backspace	Key.backspace	n/a
61.3655	0.089	122731	keystroke_g	g	n/a
61.6795	0.105	123359	keystroke_Key.backspace	Key.backspace	n/a
61.9345	0.075	123869	keystroke_n	n	n/a
62.0395	0.075	124079	keystroke_g	g	n/a
62.3995	0.09	124799	keystroke_Key.enter	Key.enter	n/a
62.4985	9.5485	124997	prompt	n/a	nightlife blast psychology shield\n
63.3605	0.044	126721	keystroke_n	n	n/a
63.5405	0.104	127081	keystroke_i	i	n/a
63.7045	0.06	127409	keystroke_g	g	n/a
63.7945	0.09	127589	keystroke_h	h	n/a
63.8995	0.06	127799	keystroke_t	t	n/a
64.1695	0.09	128339	keystroke_l	l	n/a
64.3645	0.091	128729	keystroke_i	i	n/a
64.8145	0.12	129629	keystroke_f	f	n/a
65.0095	0.105	130019	keystroke_e	e	n/a
65.1445	0.075	130289	keystroke_Key.space	Key.space	n/a
65.5045	0.06	131009	keystroke_b	b	n/a
65.5805	0.104	131161	keystroke_l	l	n/a
65.6995	0.12	131399	keystroke_a	a	n/a
65.8345	0.091	131669	keystroke_d	d	n/a
65.8945	0.09	131789	keystroke_e	e	n/a
66.1795	0.075	132359	keystroke_Key.backspace	Key.backspace	n/a
66.3445	0.105	132689	keystroke_Key.backspace	Key.backspace	n/a
66.3905	0.165	132781	keystroke_s	s	n/a
66.5405	0.074	133081	keystroke_t	t	n/a
67.0495	0.09	134099	keystroke_Key.space	Key.space	n/a
67.3495	0.091	134699	keystroke_p	p	n/a
67.5145	0.105	135029	keystroke_s	s	n/a
67.6955	0.075	135391	keystroke_y	y	n/a
67.8145	0.105	135629	keystroke_c	c	n/a
68.5945	0.075	137189	keystroke_h	h	n/a
68.9845	0.075	137969	keystroke_o	o	n/a
69.1655	0.105	138331	keystroke_l	l	n/a
69.3295	0.09	138659	keystroke_o	o	n/a
69.4945	0.075	138989	keystroke_g	g	n/a
69.6155	0.075	139231	keystroke_y	y	n/a
69.7045	0.12	139409	keystroke_Key.space	Key.space	n/a
70.0045	0.075	140009	keystroke_s	s	n/a
70.0945	0.09	140189	keystroke_h	h	n/a
70.3045	0.091	140609	keystroke_i	i	n/a
70.4255	0.06	140851	keystroke_e	e	n/a
70.5295	0.076	141059	keystroke_k	k	n/a
70.6495	0.106	141299	keystroke_d	d	n/a
70.9345	0.09	141869	keystroke_Key.backspace	Key.backspace	n/a
71.1295	0.045	142259	keystroke_Key.backspace	Key.backspace	n/a
71.4905	0.044	142981	keystroke_l	l	n/a
71.5955	0.105	143191	keystroke_d	d	n/a
71.9695	0.075	143939	keystroke_Key.enter	Key.enter	n/a
72.054	6.473	144108	prompt	n/a	engines sector kitty degree\n
72.7955	0.089	145591	keystroke_e	e	n/a
72.9605	0.06	145921	keystroke_n	n	n/a
73.0495	0.12	146099	keystroke_g	g	n/a
73.1845	0.136	146369	keystroke_i	i	n/a
73.2895	0.106	146579	keystroke_n	n	n/a
73.3795	0.091	146759	keystroke_e	e	n/a
73.5145	0.075	147029	keystroke_Key.space	Key.space	n/a
73.6355	0.119	147271	keystroke_s	s	n/a
73.8755	0.075	147751	keystroke_e	e	n/a
74.3255	0.074	148651	keystroke_c	c	n/a
74.6395	0.106	149279	keystroke_o	o	n/a
74.9245	0.06	149849	keystroke_Key.backspace	Key.backspace	n/a
74.9705	0.075	149941	keystroke_t	t	n/a
75.0455	0.105	150091	keystroke_o	o	n/a
75.1655	0.135	150331	keystroke_r	r	n/a
75.5695	0.135	151139	keystroke_Key.space	Key.space	n/a
76.0805	0.089	152161	keystroke_k	k	n/a
76.2295	0.091	152459	keystroke_i	i	n/a
76.3795	0.091	152759	keystroke_t	t	n/a
76.5595	0.076	153119	keystroke_t	t	n/a
76.6645	0.076	153329	keystroke_y	y	n/a
76.7545	0.105	153509	keystroke_Key.space	Key.space	n/a
77.3405	0.104	154681	keystroke_d	d	n/a
77.4905	0.104	154981	keystroke_e	e	n/a
77.7595	0.12	155519	keystroke_g	g	n/a
77.9095	0.12	155819	keystroke_r	r	n/a
78.1355	0.074	156271	keystroke_e	e	n/a
78.3145	0.076	156629	keystroke_e	e	n/a
78.4505	0.075	156901	keystroke_Key.enter	Key.enter	n/a
78.532	8.9355	157064	prompt	n/a	commodity reward vintage yesterday\n
79.2155	0.119	158431	keystroke_c	c	n/a
79.3205	0.105	158641	keystroke_o	o	n/a
79.6205	0.075	159241	keystroke_m	m	n/a
79.7855	0.075	159571	keystroke_m	m	n/a
80.1755	0.09	160351	keystroke_o	o	n/a
80.4305	0.09	160861	keystroke_d	d	n/a
80.5795	0.091	161159	keystroke_i	i	n/a
81.1055	0.104	162211	keystroke_t	t	n/a
81.1955	0.09	162391	keystroke_y	y	n/a
81.3905	0.15	162781	keystroke_Key.space	Key.space	n/a
82.0805	0.12	164161	keystroke_r	r	n/a
82.1855	0.135	164371	keystroke_e	e	n/a
82.5305	0.06	165061	keystroke_w	w	n/a
82.9355	0.12	165871	keystroke_a	a	n/a
83.1605	0.075	166321	keystroke_r	r	n/a
83.3555	0.12	166711	keystroke_d	d	n/a
83.8195	0.091	167639	keystroke_Key.space	Key.space	n/a
84.2555	0.105	168511	keystroke_v	v	n/a
84.4055	0.09	168811	keystroke_i	i	n/a
84.5705	0.09	169141	keystroke_n	n	n/a
84.6755	0.06	169351	keystroke_t	t	n/a
84.8855	0.075	169771	keystroke_a	a	n/a
85.0505	0.06	170101	keystroke_g	g	n/a
85.1405	0.09	170281	keystroke_e	e	n/a
85.2455	0.09	170491	keystroke_Key.space	Key.space	n/a
85.6805	0.09	171361	keystroke_y	y	n/a
85.7555	0.09	171511	keystroke_e	e	n/a
85.9805	0.09	171961	keystroke_s	s	n/a
86.1455	0.09	172291	keystroke_t	t	n/a
86.2955	0.135	172591	keystroke_e	e	n/a
86.4005	0.1045	172801	keystroke_r	r	n/a
86.625	0.075	173250	keystroke_d	d	n/a
86.641	0.149	173282	keystroke_a	a	n/a
86.835	0.09	173670	keystroke_y	y	n/a
87.42	0.045	174840	keystroke_Key.enter	Key.enter	n/a
87.4725	9.82	174945	prompt	n/a	class sophisticated travis rating\n
88.321	0.104	176642	keystroke_c	c	n/a
88.47	0.045	176940	keystroke_l	l	n/a
88.5	0.15	177000	keystroke_a	a	n/a
88.605	0.12	177210	keystroke_s	s	n/a
88.8	0.09	177600	keystroke_s	s	n/a
89.025	0.09	178050	keystroke_Key.space	Key.space	n/a
89.22	0.09	178440	keystroke_s	s	n/a
89.475	0.075	178950	keystroke_o	o	n/a
89.865	0.09	179730	keystroke_p	p	n/a
90.165	0.06	180330	keystroke_h	h	n/a
90.42	0.105	180840	keystroke_i	i	n/a
90.555	0.09	181110	keystroke_s	s	n/a
90.84	0.075	181680	keystroke_t	t	n/a
91.005	0.09	182010	keystroke_i	i	n/a
91.14	0.105	182280	keystroke_c	c	n/a
91.575	0.09	183150	keystroke_a	a	n/a
92.085	0.135	184170	keystroke_r	r	n/a
92.355	0.045	184710	keystroke_e	e	n/a
92.49	0.12	184980	keystroke_Key.backspace	Key.backspace	n/a
92.655	0.12	185310	keystroke_Key.backspace	Key.backspace	n/a
92.715	0.09	185430	keystroke_t	t	n/a
92.865	0.165	185730	keystroke_e	e	n/a
92.955	0.195	185910	keystroke_d	d	n/a
93.21	0.15	186420	keystroke_Key.space	Key.space	n/a
93.855	0.09	187710	keystroke_t	t	n/a
94.005	0.09	188010	keystroke_r	r	n/a
94.23	0.075	188460	keystroke_a	a	n/a
94.56	0.075	189120	keystroke_i	i	n/a
94.845	0.09	189690	keystroke_Key.backspace	Key.backspace	n/a
95.205	0.075	190410	keystroke_v	v	n/a
95.505	0.105	191010	keystroke_i	i	n/a
95.626	0.089	191252	keystroke_s	s	n/a
95.835	0.135	191670	keystroke_Key.space	Key.space	n/a
96.045	0.075	192090	keystroke_r	r	n/a
96.24	0.091	192480	keystroke_a	a	n/a
96.375	0.12	192750	keystroke_t	t	n/a
96.57	0.12	193140	keystroke_i	i	n/a
96.72	0.03	193440	keystroke_i	i	n/a
96.735	0.105	193470	keystroke_n	n	n/a
96.855	0.105	193710	keystroke_g	g	n/a
97.2	0.09	194400	keystroke_Key.enter	Key.enter	n/a
97.299	8.049	194598	prompt	n/a	optimum mysterious hear shipping\n
98.04	0.09	196080	keystroke_o	o	n/a
98.235	0.075	196470	keystroke_p	p	n/a
98.415	0.075	196830	keystroke_t	t	n/a
98.505	0.09	197010	keystroke_i	i	n/a
99.255	0.09	198510	keystroke_m	m	n/a
99.495	0.091	198990	keystroke_u	u	n/a
99.691	0.089	199382	keystroke_m	m	n/a
99.885	0.15	199770	keystroke_Key.space	Key.space	n/a
100.336	0.089	200672	keystroke_m	m	n/a
100.545	0.09	201090	keystroke_y	y	n/a
100.62	0.12	201240	keystroke_s	s	n/a
100.771	0.089	201542	keystroke_t	t	n/a
100.875	0.135	201750	keystroke_e	e	n/a
100.965	0.12	201930	keystroke_r	r	n/a
101.13	0.09	202260	keystroke_i	i	n/a
101.34	0.091	202680	keystroke_o	o	n/a
101.505	0.135	203010	keystroke_u	u	n/a
101.655	0.12	203310	keystroke_s	s	n/a
101.745	0.15	203490	keystroke_Key.space	Key.space	n/a
102.451	0.089	204902	keystroke_h	h	n/a
102.555	0.075	205110	keystroke_e	e	n/a
102.72	0.121	205440	keystroke_a	a	n/a
102.81	0.105	205620	keystroke_r	r	n/a
102.945	0.075	205890	keystroke_Key.space	Key.space	n/a
103.08	0.091	206160	keystroke_s	s	n/a
103.155	0.09	206310	keystroke_h	h	n/a
103.365	0.09	206730	keystroke_i	i	n/a
103.606	0.075	207212	keystroke_p	p	n/a
103.786	0.059	207572	keystroke_p	p	n/a
103.966	0.09	207932	keystroke_i	i	n/a
103.996	0.044	207992	keystroke_o	o	n/a
104.191	0.104	208382	keystroke_u	u	n/a
104.49	0.06	208980	keystroke_Key.backspace	Key.backspace	n/a
104.67	0.06	209340	keystroke_Key.backspace	Key.backspace	n/a
104.701	0.089	209402	keystroke_n	n	n/a
104.941	0.074	209882	keystroke_g	g	n/a
105.255	0.091	210510	keystroke_Key.enter	Key.enter	n/a
105.3555	10.087	210711	prompt	n/a	could deep tutorial hierarchy\n
106.35	0.061	212700	keystroke_c	c	n/a
106.696	0.09	213392	keystroke_l	l	n/a
107.265	0.12	214530	keystroke_Key.backspace	Key.backspace	n/a
107.611	0.075	215222	keystroke_o	o	n/a
107.836	0.06	215672	keystroke_u	u	n/a
108.03	0.106	216060	keystroke_l	l	n/a
108.121	0.15	216242	keystroke_d	d	n/a
108.345	0.12	216690	keystroke_Key.space	Key.space	n/a
108.871	0.089	217742	keystroke_d	d	n/a
109.035	0.076	218070	keystroke_e	e	n/a
109.201	0.09	218402	keystroke_e	e	n/a
109.485	0.091	218970	keystroke_p	p	n/a
109.636	0.12	219272	keystroke_Key.space	Key.space	n/a
110.026	0.134	220052	keystroke_t	t	n/a
110.295	0.09	220590	keystroke_o	o	n/a
110.925	0.09	221850	keystroke_Key.backspace	Key.backspace	n/a
111.301	0.075	222602	keystroke_u	u	n/a
111.586	0.074	223172	keystroke_t	t	n/a
112.081	0.075	224162	keystroke_o	o	n/a
112.246	0.06	224492	keystroke_r	r	n/a
112.321	0.09	224642	keystroke_i	i	n/a
112.546	0.105	225092	keystroke_a	a	n/a
112.711	0.09	225422	keystroke_l	l	n/a
112.86	0.106	225720	keystroke_Key.space	Key.space	n/a
113.221	0.09	226442	keystroke_h	h	n/a
113.446	0.075	226892	keystroke_i	i	n/a
113.535	0.136	227070	keystroke_e	e	n/a
113.656	0.105	227312	keystroke_r	r	n/a
113.911	0.105	227822	keystroke_a	a	n/a
114.166	0.075	228332	keystroke_r	r	n/a
114.316	0.089	228632	keystroke_c	c	n/a
114.451	0.075	228902	keystroke_h	h	n/a
114.646	0.09	229292	keystroke_y	y	n/a
114.661	0.03	229322	keystroke_u	u	n/a
115.08	0.136	230160	keystroke_Key.backspace	Key.backspace	n/a
115.351	0.089	230702	keystroke_Key.enter	Key.enter	n/a
115.45	11.9925	230900	prompt	n/a	considerations memory capable subsequent\n
116.206	0.075	232412	keystroke_c	c	n/a
116.5655	0.12	233131	keystroke_o	o	n/a
116.851	0.0745	233702	keystroke_n	n	n/a
117.316	0.1195	234632	keystroke_s	s	n/a
118.0355	0.09	236071	keystroke_i	i	n/a
118.1705	0.135	236341	keystroke_d	d	n/a
118.3355	0.1505	236671	keystroke_e	e	n/a
118.4555	0.105	236911	keystroke_r	r	n/a
118.6655	0.09	237331	keystroke_a	a	n/a
118.8005	0.09	237601	keystroke_t	t	n/a
118.9355	0.09	237871	keystroke_i	i	n/a
119.1305	0.0755	238261	keystroke_o	o	n/a
119.4455	0.075	238891	keystroke_n	n	n/a
119.5505	0.15	239101	keystroke_s	s	n/a
119.7305	0.1505	239461	keystroke_Key.space	Key.space	n/a
120.1955	0.09	240391	keystroke_m	m	n/a
120.3005	0.105	240601	keystroke_e	e	n/a
120.4205	0.075	240841	keystroke_m	m	n/a
120.6005	0.09	241201	keystroke_o	o	n/a
120.7205	0.1055	241441	keystroke_r	r	n/a
120.9605	0.09	241921	keystroke_y	y	n/a
121.1705	0.135	242341	keystroke_Key.space	Key.space	n/a
121.7555	0.075	243511	keystroke_c	c	n/a
121.9805	0.075	243961	keystroke_a	a	n/a
122.0705	0.105	244141	keystroke_p	p	n/a
122.1905	0.075	244381	keystroke_a	a	n/a
122.506	0.0745	245012	keystroke_b	b	n/a
122.6405	0.0905	245281	keystroke_l	l	n/a
122.7605	0.12	245521	keystroke_e	e	n/a
122.8955	0.12	245791	keystroke_Key.space	Key.space	n/a
123.586	0.1045	247172	keystroke_s	s	n/a
123.7205	0.09	247441	keystroke_u	u	n/a
123.9305	0.075	247861	keystroke_b	b	n/a
124.531	0.119	249062	keystroke_s	s	n/a
124.86	0.166	249720	keystroke_d	d	n/a
125.385	0.105	250770	keystroke_Key.backspace	Key.backspace	n/a
125.731	0.045	251462	keystroke_e	e	n/a
126.031	0.059	252062	keystroke_q	q	n/a
126.121	0.09	252242	keystroke_u	u	n/a
126.316	0.075	252632	keystroke_e	e	n/a
126.451	0.075	252902	keystroke_n	n	n/a
126.586	0.165	253172	keystroke_t	t	n/a
126.796	0.119	253592	keystroke_Key.space	Key.space	n/a
127.08	0.075	254160	keystroke_Key.backspace	Key.backspace	n/a
127.366	0.074	254732	keystroke_Key.enter	Key.enter	n/a
127.447	12.1755	254894	prompt	n/a	fault these're trend functionality\n
128.086	0.09	256172	keystroke_c	c	n/a
128.266	0.105	256532	keystroke_a	a	n/a
128.386	0.06	256772	keystroke_u	u	n/a
128.596	0.045	257192	keystroke_l	l	n/a
128.82	0.09	257640	keystroke_Key.backspace	Key.backspace	n/a
129	0.075	258000	keystroke_Key.backspace	Key.backspace	n/a
129.15	0.075	258300	keystroke_Key.backspace	Key.backspace	n/a
129.3	0.105	258600	keystroke_Key.backspace	Key.backspace	n/a
129.375	0.075	258750	keystroke_f	f	n/a
129.481	0.105	258962	keystroke_a	a	n/a
129.541	0.09	259082	keystroke_i	i	n/a
129.766	0.09	259532	keystroke_l	l	n/a
129.811	0.119	259622	keystroke_y	y	n/a
130.111	0.06	260222	keystroke_Key.backspace	Key.backspace	n/a
130.29	0.075	260580	keystroke_Key.backspace	Key.backspace	n/a
130.471	0.06	260942	keystroke_Key.backspace	Key.backspace	n/a
130.966	0.059	261932	keystroke_u	u	n/a
131.161	0.105	262322	keystroke_l	l	n/a
131.236	0.12	262472	keystroke_t	t	n/a
131.4	0.151	262800	keystroke_Key.space	Key.space	n/a
132.301	0.075	264602	keystroke_t	t	n/a
132.466	0.075	264932	keystroke_h	h	n/a
132.571	0.105	265142	keystroke_e	e	n/a
132.811	0.075	265622	keystroke_s	s	n/a
134.221	0.075	268442	keystroke_e	e	n/a
134.656	0.105	269312	keystroke_'	'	n/a
134.746	0.15	269492	keystroke_r	r	n/a
134.851	0.12	269702	keystroke_e	e	n/a
134.986	0.105	269972	keystroke_Key.space	Key.space	n/a
135.601	0.06	271202	keystroke_t	t	n/a
135.931	0.15	271862	keystroke_r	r	n/a
136.096	0.12	272192	keystroke_e	e	n/a
136.306	0.105	272612	keystroke_n	n	n/a
136.426	0.135	272852	keystroke_d	d	n/a
136.68	0.106	273360	keystroke_Key.space	Key.space	n/a
137.236	0.105	274472	keystroke_f	f	n/a
137.386	0.09	274772	keystroke_u	u	n/a
137.491	0.105	274982	keystroke_n	n	n/a
137.581	0.105	275162	keystroke_c	c	n/a
137.791	0.09	275582	keystroke_t	t	n/a
137.836	0.09	275672	keystroke_i	i	n/a
138.001	0.075	276002	keystroke_o	o	n/a
138.151	0.09	276302	keystroke_n	n	n/a
138.286	0.12	276572	keystroke_a	a	n/a
138.421	0.075	276842	keystroke_l	l	n/a
138.571	0.105	277142	keystroke_i	i	n/a
138.721	0.03	277442	keystroke_t	t	n/a
138.901	0.09	277802	keystroke_y	y	n/a
139.546	0.075	279092	keystroke_Key.enter	Key.enter	n/a
139.628	9.8495	279256	prompt	n/a	quarterly painted observe household\n
140.461	0.12	280922	keystroke_q	q	n/a
140.641	0.075	281282	keystroke_u	u	n/a
140.971	0.12	281942	keystroke_a	a	n/a
141.226	0.045	282452	keystroke_r	r	n/a
141.421	0.045	282842	keystroke_t	t	n/a
141.946	0.12	283892	keystroke_e	e	n/a
142.006	0.12	284012	keystroke_r	r	n/a
142.201	0.09	284402	keystroke_l	l	n/a
142.336	0.105	284672	keystroke_y	y	n/a
142.531	0.105	285062	keystroke_Key.space	Key.space	n/a
143.1905	0.091	286381	keystroke_p	p	n/a
143.3255	0.105	286651	keystroke_a	a	n/a
143.4455	0.09	286891	keystroke_i	i	n/a
143.6555	0.075	287311	keystroke_n	n	n/a
143.7605	0.075	287521	keystroke_t	t	n/a
143.9405	0.09	287881	keystroke_e	e	n/a
144.0155	0.15	288031	keystroke_d	d	n/a
144.1955	0.12	288391	keystroke_Key.space	Key.space	n/a
144.5705	0.09	289141	keystroke_o	o	n/a
144.7205	0.106	289441	keystroke_v	v	n/a
145.2005	0.09	290401	keystroke_Key.backspace	Key.backspace	n/a
145.2315	0.09	290463	keystroke_b	b	n/a
145.5305	0.106	291061	keystroke_s	s	n/a
145.7855	0.06	291571	keystroke_e	e	n/a
145.7865	0.014	291573	keystroke_r	r	n/a
145.9955	0.03	291991	keystroke_r	r	n/a
146.4005	0.06	292801	keystroke_Key.backspace	Key.backspace	n/a
146.7455	0.105	293491	keystroke_v	v	n/a
146.9405	0.165	293881	keystroke_e	e	n/a
147.1205	0.135	294241	keystroke_Key.space	Key.space	n/a
147.7205	0.075	295441	keystroke_h	h	n/a
147.946	0.105	295892	keystroke_o	o	n/a
148.171	0.075	296342	keystroke_u	u	n/a
148.276	0.06	296552	keystroke_s	s	n/a
148.456	0.06	296912	keystroke_e	e	n/a
148.726	0.075	297452	keystroke_h	h	n/a
148.831	0.105	297662	keystroke_o	o	n/a
148.996	0.12	297992	keystroke_l	l	n/a
149.101	0.105	298202	keystroke_d	d	n/a
149.401	0.075	298802	keystroke_Key.enter	Key.enter	n/a
149.4845	9.1605	298969	prompt	n/a	mothers glasgow chassis afghanistan\n
150.286	0.06	300572	keystroke_m	m	n/a
150.451	0.09	300902	keystroke_o	o	n/a
150.542	0.104	301084	keystroke_t	t	n/a
150.706	0.075	301412	keystroke_h	h	n/a
150.751	0.09	301502	keystroke_e	e	n/a
150.826	0.105	301652	keystroke_r	r	n/a
151.021	0.09	302042	keystroke_s	s	n/a
151.126	0.075	302252	keystroke_Key.space	Key.space	n/a
151.381	0.075	302762	keystroke_g	g	n/a
151.621	0.09	303242	keystroke_l	l	n/a
151.816	0.12	303632	keystroke_a	a	n/a
151.906	0.12	303812	keystroke_s	s	n/a
152.236	0.045	304472	keystroke_g	g	n/a
152.311	0.0895	304622	keystroke_o	o	n/a
152.4605	0.105	304921	keystroke_w	w	n/a
152.6105	0.105	305221	keystroke_Key.space	Key.space	n/a
153.3455	0.09	306691	keystroke_c	c	n/a
153.8705	0.075	307741	keystroke_h	h	n/a
154.0055	0.09	308011	keystroke_a	a	n/a
154.0655	0.09	308131	keystroke_s	s	n/a
154.2755	0.06	308551	keystroke_s	s	n/a
154.3805	0.075	308761	keystroke_i	i	n/a
154.4705	0.105	308941	keystroke_s	s	n/a
154.6205	0.135	309241	keystroke_Key.space	Key.space	n/a
155.4905	0.105	310981	keystroke_a	a	n/a
155.6105	0.09	311221	keystroke_f	f	n/a
155.8655	0.06	311731	keystroke_g	g	n/a
156.3005	0.075	312601	keystroke_a	a	n/a
156.5705	0.105	313141	keystroke_Key.backspace	Key.backspace	n/a
156.8105	0.075	313621	keystroke_h	h	n/a
156.9305	0.105	313861	keystroke_a	a	n/a
157.0365	0.089	314073	keystroke_n	n	n/a
157.2905	0.09	314581	keystroke_i	i	n/a
157.6355	0.105	315271	keystroke_s	s	n/a
157.8455	0.09	315691	keystroke_t	t	n/a
158.0855	0.105	316171	keystroke_a	a	n/a
158.2355	0.075	316471	keystroke_n	n	n/a
158.5805	0.06	317161	keystroke_Key.enter	Key.enter	n/a
158.65	7.733	317300	prompt	n/a	article class internationally designated\n
159.2405	0.135	318481	keystroke_a	a	n/a
159.5105	0.075	319021	keystroke_r	r	n/a
159.7205	0.06	319441	keystroke_t	t	n/a
159.8555	0.075	319711	keystroke_i	i	n/a
159.9755	0.105	319951	keystroke_c	c	n/a
160.1255	0.09	320251	keystroke_l	l	n/a
160.2165	0.119	320433	keystroke_e	e	n/a
160.3505	0.105	320701	keystroke_Key.space	Key.space	n/a
160.7105	0.09	321421	keystroke_c	c	n/a
160.8305	0.105	321661	keystroke_l	l	n/a
160.9505	0.105	321901	keystroke_a	a	n/a
161.0105	0.09	322021	keystroke_s	s	n/a
161.1905	0.09	322381	keystroke_s	s	n/a
161.3405	0.105	322681	keystroke_Key.space	Key.space	n/a
161.4905	0.105	322981	keystroke_i	i	n/a
161.6255	0.075	323251	keystroke_n	n	n/a
161.6855	0.075	323371	keystroke_t	t	n/a
161.8205	0.105	323641	keystroke_e	e	n/a
161.8805	0.09	323761	keystroke_r	r	n/a
162.0005	0.09	324001	keystroke_n	n	n/a
162.1055	0.09	324211	keystroke_a	a	n/a
162.2255	0.105	324451	keystroke_t	t	n/a
162.3755	0.06	324751	keystroke_i	i	n/a
162.5255	0.075	325051	keystroke_o	o	n/a
162.6755	0.075	325351	keystroke_n	n	n/a
162.7655	0.09	325531	keystroke_a	a	n/a
162.8705	0.075	325741	keystroke_l	l	n/a
163.0205	0.075	326041	keystroke_l	l	n/a
163.0805	0.105	326161	keystroke_y	y	n/a
163.2455	0.12	326491	keystroke_Key.space	Key.space	n/a
164.0105	0.045	328021	keystroke_s	s	n/a
164.3405	0.105	328681	keystroke_Key.backspace	Key.backspace	n/a
164.4005	0.135	328801	keystroke_d	d	n/a
164.5205	0.075	329041	keystroke_e	e	n/a
164.7305	0.075	329461	keystroke_s	s	n/a
164.8505	0.075	329701	keystroke_i	i	n/a
165.2555	0.06	330511	keystroke_g	g	n/a
165.5105	0.06	331021	keystroke_n	n	n/a
165.6455	0.09	331291	keystroke_a	a	n/a
165.7955	0.09	331591	keystroke_t	t	n/a
165.9305	0.105	331861	keystroke_e	e	n/a
166.1255	0.09	332251	keystroke_d	d	n/a
166.2905	0.09	332581	keystroke_Key.enter	Key.enter	n/a
166.388	9.025	332776	prompt	n/a	reviewed xerox process academics\n
167.1905	0.09	334381	keystroke_r	r	n/a
167.3255	0.09	334651	keystroke_e	e	n/a
167.5055	0.09	335011	keystroke_v	v	n/a
167.6405	0.105	335281	keystroke_i	i	n/a
167.7605	0.12	335521	keystroke_e	e	n/a
167.8355	0.12	335671	keystroke_w	w	n/a
168.226	0.15	336452	keystroke_e	e	n/a
168.346	0.12	336692	keystroke_d	d	n/a
168.496	0.09	336992	keystroke_Key.space	Key.space	n/a
169.231	0.09	338462	keystroke_x	x	n/a
169.381	0.15	338762	keystroke_e	e	n/a
169.666	0.105	339332	keystroke_r	r	n/a
169.966	0.09	339932	keystroke_e	e	n/a
170.461	0.164	340922	keystroke_Key.backspace	Key.backspace	n/a
170.611	0.09	341222	keystroke_o	o	n/a
170.716	0.105	341432	keystroke_x	x	n/a
170.956	0.15	341912	keystroke_Key.space	Key.space	n/a
171.481	0.09	342962	keystroke_p	p	n/a
171.631	0.09	343262	keystroke_r	r	n/a
171.751	0.09	343502	keystroke_o	o	n/a
171.901	0.09	343802	keystroke_c	c	n/a
172.036	0.09	344072	keystroke_e	e	n/a
172.276	0.075	344552	keystroke_s	s	n/a
172.426	0.105	344852	keystroke_s	s	n/a
172.591	0.135	345182	keystroke_Key.space	Key.space	n/a
172.906	0.075	345812	keystroke_a	a	n/a
173.251	0.12	346502	keystroke_c	c	n/a
173.431	0.12	346862	keystroke_a	a	n/a
173.956	0.075	347912	keystroke_d	d	n/a
174.061	0.09	348122	keystroke_e	e	n/a
174.196	0.12	348392	keystroke_m	m	n/a
174.346	0.12	348692	keystroke_i	i	n/a
174.541	0.075	349082	keystroke_x	x	n/a
174.871	0.105	349742	keystroke_Key.backspace	Key.backspace	n/a
174.961	0.105	349922	keystroke_c	c	n/a
175.096	0.165	350192	keystroke_s	s	n/a
175.336	0.075	350672	keystroke_Key.enter	Key.enter	n/a
175.4185	6.8345	350837	prompt	n/a	xhtml idea be bikini\n
176.581	0.105	353162	keystroke_x	x	n/a
176.776	0.09	353552	keystroke_h	h	n/a
177.196	0.09	354392	keystroke_t	t	n/a
177.421	0.075	354842	keystroke_m	m	n/a
177.616	0.105	355232	keystroke_l	l	n/a
177.781	0.165	355562	keystroke_Key.space	Key.space	n/a
178.186	0.06	356372	keystroke_i	i	n/a
178.276	0.1345	356552	keystroke_d	d	n/a
178.3805	0.105	356761	keystroke_e	e	n/a
178.6055	0.09	357211	keystroke_a	a	n/a
178.9655	0.075	357931	keystroke_Key.space	Key.space	n/a
179.4455	0.105	358891	keystroke_b	b	n/a
179.7005	0.09	359401	keystroke_e	e	n/a
179.9855	0.06	359971	keystroke_Key.space	Key.space	n/a
180.2705	0.09	360541	keystroke_b	b	n/a
180.4655	0.105	360931	keystroke_i	i	n/a
180.6755	0.09	361351	keystroke_n	n	n/a
181.2155	0.165	362431	keystroke_Key.backspace	Key.backspace	n/a
181.3655	0.09	362731	keystroke_k	k	n/a
181.5155	0.105	363031	keystroke_i	i	n/a
181.6955	0.075	363391	keystroke_n	n	n/a
181.8005	0.12	363601	keystroke_i	i	n/a
182.1755	0.075	364351	keystroke_Key.enter	Key.enter	n/a
182.2595	6.7135	364519	prompt	n/a	thompson cons pushing creates\n
183.0005	0.105	366001	keystroke_t	t	n/a
183.0905	0.075	366181	keystroke_h	h	n/a
183.2855	0.12	366571	keystroke_i	i	n/a
183.5705	0.12	367141	keystroke_Key.backspace	Key.backspace	n/a
183.6755	0.135	367351	keystroke_o	o	n/a
183.8555	0.12	367711	keystroke_m	m	n/a
184.1405	0.105	368281	keystroke_p	p	n/a
184.3655	0.12	368731	keystroke_s	s	n/a
184.5155	0.075	369031	keystroke_o	o	n/a
184.7255	0.075	369451	keystroke_n	n	n/a
184.8905	0.105	369781	keystroke_Key.space	Key.space	n/a
185.2655	0.105	370531	keystroke_c	c	n/a
185.4005	0.09	370801	keystroke_o	o	n/a
185.5805	0.075	371161	keystroke_n	n	n/a
185.6855	0.105	371371	keystroke_s	s	n/a
185.8055	0.12	371611	keystroke_Key.space	Key.space	n/a
185.9855	0.075	371971	keystroke_p	p	n/a
186.1955	0.09	372391	keystroke_u	u	n/a
186.3005	0.09	372601	keystroke_s	s	n/a
186.4055	0.045	372811	keystroke_h	h	n/a
186.5405	0.135	373081	keystroke_i	i	n/a
186.6455	0.105	373291	keystroke_n	n	n/a
186.7355	0.06	373471	keystroke_g	g	n/a
186.8255	0.09	373651	keystroke_Key.space	Key.space	n/a
187.0805	0.075	374161	keystroke_b	b	n/a
187.2005	0.105	374401	keystroke_r	r	n/a
187.4555	0.06	374911	keystroke_Key.backspace	Key.backspace	n/a
187.6055	0.105	375211	keystroke_Key.backspace	Key.backspace	n/a
187.6505	0.105	375301	keystroke_c	c	n/a
187.8905	0.12	375781	keystroke_r	r	n/a
187.9955	0.105	375991	keystroke_e	e	n/a
188.2205	0.075	376441	keystroke_a	a	n/a
188.3555	0.075	376711	keystroke_t	t	n/a
188.4755	0.105	376951	keystroke_e	e	n/a
188.7455	0.09	377491	keystroke_s	s	n/a
188.8955	0.075	377791	keystroke_Key.enter	Key.enter	n/a
188.978	7.7345	377956	prompt	n/a	folder finances director read\n
189.7055	0.105	379411	keystroke_d	d	n/a
189.9905	0.075	379981	keystroke_Key.backspace	Key.backspace	n/a
190.0805	0.06	380161	keystroke_f	f	n/a
190.1555	0.09	380311	keystroke_i	i	n/a
190.3205	0.091	380641	keystroke_l	l	n/a
190.5905	0.045	381181	keystroke_Key.backspace	Key.backspace	n/a
190.7555	0.09	381511	keystroke_Key.backspace	Key.backspace	n/a
190.8005	0.136	381601	keystroke_o	o	n/a
190.9365	0.104	381873	keystroke_l	l	n/a
191.0255	0.12	382051	keystroke_d	d	n/a
191.1305	0.165	382261	keystroke_e	e	n/a
191.2805	0.09	382561	keystroke_r	r	n/a
191.4455	0.075	382891	keystroke_Key.space	Key.space	n/a
192.0155	0.12	384031	keystroke_f	f	n/a
192.1205	0.165	384241	keystroke_i	i	n/a
192.2555	0.105	384511	keystroke_n	n	n/a
192.5105	0.075	385021	keystroke_a	a	n/a
192.6305	0.09	385261	keystroke_n	n	n/a
193.1255	0.09	386251	keystroke_c	c	n/a
193.3055	0.075	386611	keystroke_e	e	n/a
193.5155	0.075	387031	keystroke_s	s	n/a
193.6055	0.075	387211	keystroke_Key.space	Key.space	n/a
193.8755	0.12	387751	keystroke_d	d	n/a
193.9805	0.091	387961	keystroke_i	i	n/a
194.1305	0.09	388261	keystroke_r	r	n/a
194.2505	0.105	388501	keystroke_e	e	n/a
194.4005	0.09	388801	keystroke_c	c	n/a
194.6255	0.075	389251	keystroke_t	t	n/a
195.1205	0.09	390241	keystroke_o	o	n/a
195.2405	0.12	390481	keystroke_r	r	n/a
195.4055	0.105	390811	keystroke_Key.space	Key.space	n/a
195.6455	0.165	391291	keystroke_r	r	n/a
195.7655	0.12	391531	keystroke_e	e	n/a
196.2605	0.12	392521	keystroke_a	a	n/a
196.3355	0.135	392671	keystroke_d	d	n/a
196.6355	0.075	393271	keystroke_Key.enter	Key.enter	n/a
196.7175	9.82	393435	prompt	n/a	implied template packard my\n
198.1065	0.044	396213	keystroke_i	i	n/a
198.2555	0.09	396511	keystroke_n	n	n/a
198.7655	0.09	397531	keystroke_Key.backspace	Key.backspace	n/a
198.9615	0.089	397923	keystroke_m	m	n/a
199.3205	0.075	398641	keystroke_p	p	n/a
199.4255	0.105	398851	keystroke_l	l	n/a
199.6805	0.09	399361	keystroke_i	i	n/a
199.8755	0.135	399751	keystroke_e	e	n/a
199.9655	0.18	399931	keystroke_d	d	n/a
200.1905	0.135	400381	keystroke_Key.space	Key.space	n/a
200.5205	0.105	401041	keystroke_t	t	n/a
200.7305	0.105	401461	keystroke_e	e	n/a
201.2705	0.09	402541	keystroke_m	m	n/a
201.5105	0.135	403021	keystroke_p	p	n/a
201.6155	0.105	403231	keystroke_l	l	n/a
201.8105	0.105	403621	keystroke_a	a	n/a
202.1105	0.12	404221	keystroke_t	t	n/a
202.2155	0.151	404431	keystroke_e	e	n/a
202.3665	0.119	404733	keystroke_Key.space	Key.space	n/a
203.4755	0.09	406951	keystroke_p	p	n/a
203.5815	0.104	407163	keystroke_a	a	n/a
203.7005	0.105	407401	keystroke_c	c	n/a
203.8505	0.075	407701	keystroke_k	k	n/a
204.3155	0.12	408631	keystroke_a	a	n/a
204.9605	0.12	409921	keystroke_r	r	n/a
205.1865	0.089	410373	keystroke_d	d	n/a
205.2905	0.06	410581	keystroke_Key.space	Key.space	n/a
205.4705	0.06	410941	keystroke_m	m	n/a
205.5765	0.089	411153	keystroke_y	y	n/a
206.4615	0.074	412923	keystroke_Key.enter	Key.enter	n/a
206.542	8.4555	413084	prompt	n/a	warning academic hints pledge\n
207.4655	0.105	414931	keystroke_w	w	n/a
207.6465	0.119	415293	keystroke_a	a	n/a
207.7355	0.105	415471	keystroke_r	r	n/a
207.8855	0.075	415771	keystroke_n	n	n/a
208.0355	0.12	416071	keystroke_i	i	n/a
208.1855	0.091	416371	keystroke_n	n	n/a
208.2905	0.045	416581	keystroke_g	g	n/a
208.3655	0.09	416731	keystroke_Key.space	Key.space	n/a
208.6515	0.119	417303	keystroke_c	c	n/a
209.0855	0.105	418171	keystroke_Key.backspace	Key.backspace	n/a
209.1605	0.106	418321	keystroke_a	a	n/a
209.3255	0.135	418651	keystroke_c	c	n/a
209.5355	0.106	419071	keystroke_a	a	n/a
209.7315	0.12	419463	keystroke_d	d	n/a
209.9265	0.059	419853	keystroke_e	e	n/a
210.0605	0.06	420121	keystroke_m	m	n/a
210.1505	0.105	420301	keystroke_i	i	n/a
210.3615	0.09	420723	keystroke_c	c	n/a
210.9455	0.105	421891	keystroke_Key.space	Key.space	n/a
211.2765	0.075	422553	keystroke_h	h	n/a
211.4715	0.104	422943	keystroke_i	i	n/a
211.5915	0.089	423183	keystroke_n	n	n/a
211.6665	0.075	423333	keystroke_t	t	n/a
211.9215	0.089	423843	keystroke_s	s	n/a
211.9955	0.09	423991	keystroke_Key.space	Key.space	n/a
212.2365	0.105	424473	keystroke_p	p	n/a
212.3115	0.12	424623	keystroke_l	l	n/a
212.5355	0.091	425071	keystroke_e	e	n/a
212.8665	0.104	425733	keystroke_a	a	n/a
213.0315	0.164	426063	keystroke_d	d	n/a
213.3905	0.061	426781	keystroke_Key.backspace	Key.backspace	n/a
213.6005	0.06	427201	keystroke_Key.backspace	Key.backspace	n/a
213.6465	0.06	427293	keystroke_d	d	n/a
213.8265	0.059	427653	keystroke_f	f	n/a
213.9165	0.135	427833	keystroke_e	e	n/a
214.3205	0.09	428641	keystroke_Key.backspace	Key.backspace	n/a
214.4855	0.105	428971	keystroke_Key.backspace	Key.backspace	n/a
214.5605	0.105	429121	keystroke_g	g	n/a
214.6515	0.105	429303	keystroke_e	e	n/a
214.9065	0.089	429813	keystroke_Key.enter	Key.enter	n/a
215.002	8.861	430004	prompt	n/a	appointed competitive pork existence\n
215.7315	0.09	431463	keystroke_a	a	n/a
215.9115	0.074	431823	keystroke_p	p	n/a
216.0615	0.075	432123	keystroke_p	p	n/a
216.2265	0.089	432453	keystroke_o	o	n/a
216.4215	0.105	432843	keystroke_i	i	n/a
216.6155	0.061	433231	keystroke_n	n	n/a
217.1565	0.06	434313	keystroke_t	t	n/a
217.3065	0.15	434613	keystroke_e	e	n/a
217.4115	0.12	434823	keystroke_d	d	n/a
217.5615	0.09	435123	keystroke_Key.space	Key.space	n/a
217.8615	0.09	435723	keystroke_c	c	n/a
217.9365	0.09	435873	keystroke_o	o	n/a
218.0715	0.09	436143	keystroke_m	m	n/a
218.2665	0.105	436533	keystroke_p	p	n/a
218.4165	0.12	436833	keystroke_e	e	n/a
218.6405	0.091	437281	keystroke_t	t	n/a
218.8205	0.106	437641	keystroke_i	i	n/a
218.9565	0.074	437913	keystroke_t	t	n/a
219.0615	0.105	438123	keystroke_i	i	n/a
219.1815	0.09	438363	keystroke_v	v	n/a
219.3315	0.105	438663	keystroke_e	e	n/a
219.4955	0.135	438991	keystroke_Key.space	Key.space	n/a
219.8865	0.075	439773	keystroke_o	o	n/a
220.2155	0.166	440431	keystroke_Key.backspace	Key.backspace	n/a
220.3365	0.09	440673	keystroke_p	p	n/a
220.5465	0.105	441093	keystroke_o	o	n/a
220.7265	0.09	441453	keystroke_r	r	n/a
220.8465	0.09	441693	keystroke_k	k	n/a
221.0405	0.136	442081	keystroke_Key.space	Key.space	n/a
221.4165	0.075	442833	keystroke_e	e	n/a
221.6265	0.18	443253	keystroke_x	x	n/a
222.1815	0.105	444363	keystroke_i	i	n/a
222.4515	0.105	444903	keystroke_s	s	n/a
222.7515	0.06	445503	keystroke_t	t	n/a
223.0965	0.06	446193	keystroke_e	e	n/a
223.2165	0.074	446433	keystroke_n	n	n/a
223.3215	0.12	446643	keystroke_c	c	n/a
223.4565	0.105	446913	keystroke_e	e	n/a
223.7565	0.104	447513	keystroke_Key.enter	Key.enter	n/a
223.868	9.28	447736	prompt	n/a	interstate cheese sense nightlife\n
224.6265	0.075	449253	keystroke_i	i	n/a
224.8205	0.061	449641	keystroke_n	n	n/a
224.9115	0.074	449823	keystroke_t	t	n/a
225.0305	0.166	450061	keystroke_e	e	n/a
225.1515	0.105	450303	keystroke_r	r	n/a
225.5265	0.18	451053	keystroke_s	s	n/a
225.6905	0.075	451381	keystroke_t	t	n/a
225.8715	0.059	451743	keystroke_a	a	n/a
226.5015	0.12	453003	keystroke_e	e	n/a
226.8305	0.105	453661	keystroke_Key.backspace	Key.backspace	n/a
226.8915	0.12	453783	keystroke_r	r	n/a
226.9815	0.15	453963	keystroke_e	e	n/a
227.1605	0.166	454321	keystroke_Key.space	Key.space	n/a
227.4905	0.09	454981	keystroke_Key.backspace	Key.backspace	n/a
227.6855	0.076	455371	keystroke_Key.backspace	Key.backspace	n/a
227.8655	0.105	455731	keystroke_Key.backspace	Key.backspace	n/a
227.9405	0.076	455881	keystroke_t	t	n/a
228.0315	0.165	456063	keystroke_e	e	n/a
228.1805	0.12	456361	keystroke_Key.space	Key.space	n/a
228.8115	0.12	457623	keystroke_c	c	n/a
229.0065	0.09	458013	keystroke_h	h	n/a
229.1115	0.09	458223	keystroke_e	e	n/a
229.2765	0.075	458553	keystroke_e	e	n/a
229.4855	0.046	458971	keystroke_s	s	n/a
229.6515	0.075	459303	keystroke_e	e	n/a
229.7405	0.09	459481	keystroke_Key.space	Key.space	n/a
229.9815	0.075	459963	keystroke_s	s	n/a
230.1765	0.044	460353	keystroke_e	e	n/a
230.2515	0.075	460503	keystroke_n	n	n/a
230.3705	0.061	460741	keystroke_s	s	n/a
230.5665	0.09	461133	keystroke_e	e	n/a
230.6855	0.09	461371	keystroke_Key.space	Key.space	n/a
231.1065	0.074	462213	keystroke_n	n	n/a
231.2865	0.09	462573	keystroke_i	i	n/a
231.4205	0.076	462841	keystroke_g	g	n/a
231.5415	0.074	463083	keystroke_h	h	n/a
231.6315	0.075	463263	keystroke_t	t	n/a
231.7955	0.091	463591	keystroke_l	l	n/a
231.9915	0.09	463983	keystroke_i	i	n/a
232.0965	0.12	464193	keystroke_f	f	n/a
232.1715	0.12	464343	keystroke_e	e	n/a
232.4705	0.046	464941	keystroke_'	'	n/a
232.8615	0.075	465723	keystroke_Key.backspace	Key.backspace	n/a
233.0715	0.074	466143	keystroke_Key.enter	Key.enter	n/a
233.1525	8.2015	466305	prompt	n/a	bras guide system engaged\n
233.8965	0.12	467793	keystroke_c	c	n/a
234.1965	0.135	468393	keystroke_r	r	n/a
234.5115	0.105	469023	keystroke_Key.backspace	Key.backspace	n/a
234.7065	0.12	469413	keystroke_Key.backspace	Key.backspace	n/a
235.1715	0.09	470343	keystroke_b	b	n/a
235.2465	0.105	470493	keystroke_r	r	n/a
235.5165	0.12	471033	keystroke_a	a	n/a
235.5765	0.135	471153	keystroke_s	s	n/a
236.0865	0.09	472173	keystroke_Key.space	Key.space	n/a
236.7015	0.075	473403	keystroke_g	g	n/a
236.8215	0.075	473643	keystroke_u	u	n/a
237.0015	0.09	474003	keystroke_i	i	n/a
237.0465	0.15	474093	keystroke_d	d	n/a
237.1365	0.15	474273	keystroke_e	e	n/a
237.3465	0.105	474693	keystroke_Key.space	Key.space	n/a
238.0065	0.12	476013	keystroke_s	s	n/a
238.2315	0.06	476463	keystroke_y	y	n/a
238.2615	0.105	476523	keystroke_s	s	n/a
238.4265	0.105	476853	keystroke_t	t	n/a
238.5315	0.09	477063	keystroke_e	e	n/a
238.6065	0.075	477213	keystroke_m	m	n/a
238.7265	0.12	477453	keystroke_Key.space	Key.space	n/a
239.4765	0.06	478953	keystroke_e	e	n/a
239.5965	0.075	479193	keystroke_n	n	n/a
239.7615	0.075	479523	keystroke_g	g	n/a
239.9715	0.075	479943	keystroke_a	a	n/a
240.241	0.091	480482	keystroke_g	g	n/a
241.066	0.075	482132	keystroke_e	e	n/a
241.291	0.06	482582	keystroke_Key.enter	Key.enter	n/a
241.359	6.2345	482718	prompt	n/a	dogs mall prison promised\n
242.461	0.06	484922	keystroke_d	d	n/a
242.536	0.105	485072	keystroke_o	o	n/a
242.671	0.0765	485342	keystroke_g	g	n/a
242.851	0.105	485702	keystroke_s	s	n/a
243.017	0.074	486034	keystroke_Key.space	Key.space	n/a
243.346	0.0905	486692	keystroke_m	m	n/a
243.706	0.1055	487412	keystroke_a	a	n/a
243.841	0.075	487682	keystroke_l	l	n/a
243.991	0.105	487982	keystroke_l	l	n/a
244.126	0.135	488252	keystroke_Key.space	Key.space	n/a
244.471	0.091	488942	keystroke_r	r	n/a
244.681	0.12	489362	keystroke_Key.backspace	Key.backspace	n/a
244.831	0.09	489662	keystroke_p	p	n/a
244.981	0.105	489962	keystroke_r	r	n/a
245.131	0.1055	490262	keystroke_i	i	n/a
245.416	0.105	490832	keystroke_s	s	n/a
245.5065	0.091	491013	keystroke_o	o	n/a
245.6865	0.075	491373	keystroke_n	n	n/a
245.8215	0.105	491643	keystroke_Key.space	Key.space	n/a
245.9865	0.09	491973	keystroke_p	p	n/a
246.1515	0.09	492303	keystroke_r	r	n/a
246.5565	0.075	493113	keystroke_o	o	n/a
246.7515	0.075	493503	keystroke_m	m	n/a
246.9165	0.09	493833	keystroke_i	i	n/a
247.0365	0.09	494073	keystroke_s	s	n/a
247.2465	0.135	494493	keystroke_e	e	n/a
247.3665	0.12	494733	keystroke_d	d	n/a
247.5015	0.09	495003	keystroke_Key.enter	Key.enter	n/a
247.5995	7.299	495199	prompt	n/a	state designing larry overhead\n
248.2365	0.105	496473	keystroke_s	s	n/a
248.5665	0.075	497133	keystroke_t	t	n/a
248.7165	0.12	497433	keystroke_a	a	n/a
249.0465	0.03	498093	keystroke_t	t	n/a
249.0915	0.15	498183	keystroke_e	e	n/a
249.3165	0.15	498633	keystroke_Key.space	Key.space	n/a
250.0365	0.12	500073	keystroke_d	d	n/a
250.1715	0.105	500343	keystroke_e	e	n/a
250.3815	0.09	500763	keystroke_s	s	n/a
250.6665	0.09	501333	keystroke_i	i	n/a
250.8765	0.075	501753	keystroke_g	g	n/a
251.1315	0.09	502263	keystroke_n	n	n/a
251.4615	0.105	502923	keystroke_i	i	n/a
251.6115	0.09	503223	keystroke_n	n	n/a
251.7315	0.09	503463	keystroke_g	g	n/a
252.1365	0.135	504273	keystroke_Key.space	Key.space	n/a
252.3765	0.09	504753	keystroke_l	l	n/a
252.4815	0.105	504963	keystroke_a	a	n/a
252.7215	0.06	505443	keystroke_r	r	n/a
252.8865	0.075	505773	keystroke_r	r	n/a
252.9915	0.075	505983	keystroke_y	y	n/a
253.1265	0.135	506253	keystroke_Key.space	Key.space	n/a
253.3215	0.09	506643	keystroke_o	o	n/a
253.4415	0.09	506883	keystroke_v	v	n/a
253.6215	0.12	507243	keystroke_e	e	n/a
253.6815	0.12	507363	keystroke_r	r	n/a
253.9965	0.105	507993	keystroke_h	h	n/a
254.1315	0.12	508263	keystroke_e	e	n/a
254.4765	0.105	508953	keystroke_a	a	n/a
254.5515	0.135	509103	keystroke_d	d	n/a
254.8665	0.03	509733	keystroke_Key.enter	Key.enter	n/a
254.9035	10.0305	509807	prompt	n/a	computing western carmen lighter\n
255.7215	0.105	511443	keystroke_c	c	n/a
255.8275	0.104	511655	keystroke_o	o	n/a
255.9765	0.075	511953	keystroke_m	m	n/a
256.1565	0.105	512313	keystroke_p	p	n/a
256.4115	0.09	512823	keystroke_u	u	n/a
256.6515	0.12	513303	keystroke_t	t	n/a
256.8015	0.18	513603	keystroke_i	i	n/a
256.9215	0.105	513843	keystroke_n	n	n/a
257.0115	0.09	514023	keystroke_g	g	n/a
257.1315	0.075	514263	keystroke_Key.space	Key.space	n/a
257.4315	0.135	514863	keystroke_e	e	n/a
257.9115	0.12	515823	keystroke_Key.backspace	Key.backspace	n/a
258.0165	0.105	516033	keystroke_w	w	n/a
258.3015	0.12	516603	keystroke_s	s	n/a
258.5715	0.12	517143	keystroke_Key.backspace	Key.backspace	n/a
259.3965	0.075	518793	keystroke_e	e	n/a
259.5915	0.105	519183	keystroke_s	s	n/a
259.7715	0.075	519543	keystroke_t	t	n/a
259.9065	0.105	519813	keystroke_e	e	n/a
259.9815	0.12	519963	keystroke_r	r	n/a
260.1765	0.075	520353	keystroke_n	n	n/a
260.2965	0.105	520593	keystroke_Key.space	Key.space	n/a
261.2415	0.12	522483	keystroke_c	c	n/a
261.4365	0.09	522873	keystroke_a	a	n/a
261.6465	0.06	523293	keystroke_r	r	n/a
261.7365	0.09	523473	keystroke_m	m	n/a
261.8865	0.105	523773	keystroke_e	e	n/a
261.9615	0.091	523923	keystroke_r	r	n/a
262.2015	0.091	524403	keystroke_n	n	n/a
262.8615	0.09	525723	keystroke_Key.backspace	Key.backspace	n/a
263.0415	0.09	526083	keystroke_Key.backspace	Key.backspace	n/a
263.1925	0.074	526385	keystroke_n	n	n/a
263.3115	0.12	526623	keystroke_Key.space	Key.space	n/a
263.6125	0.089	527225	keystroke_l	l	n/a
263.8215	0.075	527643	keystroke_i	i	n/a
263.9415	0.075	527883	keystroke_g	g	n/a
264.1225	0.044	528245	keystroke_h	h	n/a
264.4065	0.075	528813	keystroke_t	t	n/a
264.6165	0.105	529233	keystroke_e	e	n/a
264.6615	0.105	529323	keystroke_r	r	n/a
264.8565	0.075	529713	keystroke_Key.enter	Key.enter	n/a
264.9375	8.621	529875	prompt	n/a	integrate death affair festivals\n
265.6365	0.09	531273	keystroke_i	i	n/a
265.8765	0.075	531753	keystroke_n	n	n/a
266.5065	0.075	533013	keystroke_t	t	n/a
266.7465	0.135	533493	keystroke_e	e	n/a
267.2115	0.075	534423	keystroke_g	g	n/a
267.4065	0.09	534813	keystroke_r	r	n/a
267.6465	0.09	535293	keystroke_a	a	n/a
267.7515	0.135	535503	keystroke_t	t	n/a
267.9015	0.09	535803	keystroke_e	e	n/a
267.9165	0.105	535833	keystroke_Key.space	Key.space	n/a
268.4715	0.12	536943	keystroke_d	d	n/a
268.6075	0.134	537215	keystroke_e	e	n/a
268.8465	0.106	537693	keystroke_a	a	n/a
269.0725	0.089	538145	keystroke_t	t	n/a
269.1915	0.09	538383	keystroke_h	h	n/a
269.3115	0.12	538623	keystroke_Key.space	Key.space	n/a
269.6715	0.12	539343	keystroke_a	a	n/a
270.1065	0.09	540213	keystroke_f	f	n/a
270.2715	0.09	540543	keystroke_f	f	n/a
270.3915	0.121	540783	keystroke_a	a	n/a
270.5565	0.075	541113	keystroke_i	i	n/a
270.6765	0.12	541353	keystroke_r	r	n/a
270.8115	0.105	541623	keystroke_Key.space	Key.space	n/a
271.2165	0.06	542433	keystroke_e	e	n/a
271.5015	0.15	543003	keystroke_Key.backspace	Key.backspace	n/a
271.6225	0.12	543245	keystroke_f	f	n/a
271.7865	0.105	543573	keystroke_e	e	n/a
272.0115	0.076	544023	keystroke_s	s	n/a
272.2375	0.074	544475	keystroke_t	t	n/a
272.4475	0.074	544895	keystroke_i	i	n/a
272.7315	0.031	545463	keystroke_v	v	n/a
273.0015	0.046	546003	keystroke_a	a	n/a
273.1225	0.089	546245	keystroke_l	l	n/a
273.2565	0.12	546513	keystroke_s	s	n/a
273.4815	0.075	546963	keystroke_Key.enter	Key.enter	n/a
273.566	10.238	547132	prompt	n/a	radios proposed handbags northeast\n
274.3065	0.06	548613	keystroke_r	r	n/a
274.5165	0.075	549033	keystroke_a	a	n/a
274.7865	0.091	549573	keystroke_i	i	n/a
275.1015	0.09	550203	keystroke_Key.backspace	Key.backspace	n/a
275.1625	0.105	550325	keystroke_d	d	n/a
275.2675	0.074	550535	keystroke_i	i	n/a
275.4465	0.091	550893	keystroke_o	o	n/a
275.5385	0.104	551077	keystroke_s	s	n/a
275.7015	0.18	551403	keystroke_Key.space	Key.space	n/a
276.3625	0.105	552725	keystroke_p	p	n/a
276.5275	0.105	553055	keystroke_r	r	n/a
276.6615	0.091	553323	keystroke_o	o	n/a
276.9025	0.075	553805	keystroke_p	p	n/a
277.0975	0.09	554195	keystroke_o	o	n/a
277.2015	0.076	554403	keystroke_s	s	n/a
277.3815	0.136	554763	keystroke_e	e	n/a
277.4725	0.15	554945	keystroke_d	d	n/a
277.7415	0.12	555483	keystroke_Key.space	Key.space	n/a
278.4775	0.105	556955	keystroke_h	h	n/a
278.5965	0.106	557193	keystroke_a	a	n/a
278.8075	0.105	557615	keystroke_d	d	n/a
279.2265	0.105	558453	keystroke_Key.backspace	Key.backspace	n/a
279.4975	0.075	558995	keystroke_n	n	n/a
279.6165	0.106	559233	keystroke_d	d	n/a
279.9025	0.075	559805	keystroke_b	b	n/a
279.9925	0.135	559985	keystroke_a	a	n/a
280.2015	0.106	560403	keystroke_g	g	n/a
280.3815	0.106	560763	keystroke_s	s	n/a
280.5315	0.075	561063	keystroke_Key.space	Key.space	n/a
280.8025	0.044	561605	keystroke_n	n	n/a
281.1765	0.106	562353	keystroke_o	o	n/a
281.3425	0.09	562685	keystroke_r	r	n/a
281.5375	0.075	563075	keystroke_t	t	n/a
281.6425	0.074	563285	keystroke_h	h	n/a
282.1375	0.06	564275	keystroke_e	e	n/a
282.2875	0.164	564575	keystroke_a	a	n/a
282.3915	0.151	564783	keystroke_s	s	n/a
282.5565	0.091	565113	keystroke_y	y	n/a
283.1415	0.091	566283	keystroke_Key.backspace	Key.backspace	n/a
283.5925	0.09	567185	keystroke_t	t	n/a
283.7275	0.075	567455	keystroke_Key.enter	Key.enter	n/a
283.808	9.7915	567616	prompt	n/a	option oecd programme obesity\n
284.8075	0.075	569615	keystroke_o	o	n/a
285.2575	0.045	570515	keystroke_p	p	n/a
285.7675	0.105	571535	keystroke_t	t	n/a
285.9165	0.076	571833	keystroke_i	i	n/a
286.1125	0.09	572225	keystroke_o	o	n/a
286.3225	0.09	572645	keystroke_n	n	n/a
286.5025	0.089	573005	keystroke_Key.space	Key.space	n/a
286.8025	0.09	573605	keystroke_o	o	n/a
287.1175	0.105	574235	keystroke_e	e	n/a
287.6125	0.104	575225	keystroke_c	c	n/a
287.8675	0.09	575735	keystroke_d	d	n/a
288.2115	0.106	576423	keystroke_Key.space	Key.space	n/a
288.7065	0.06	577413	keystroke_Key.backspace	Key.backspace	n/a
289.0525	0.104	578105	keystroke_Key.space	Key.space	n/a
289.1725	0.09	578345	keystroke_p	p	n/a
289.3825	0.09	578765	keystroke_r	r	n/a
289.5325	0.09	579065	keystroke_o	o	n/a
289.9225	0.105	579845	keystroke_g	g	n/a
290.0575	0.105	580115	keystroke_r	r	n/a
290.2975	0.12	580595	keystroke_a	a	n/a
290.4475	0.06	580895	keystroke_m	m	n/a
290.5825	0.09	581165	keystroke_m	m	n/a
290.6725	0.15	581345	keystroke_e	e	n/a
290.8375	0.119	581675	keystroke_Key.space	Key.space	n/a
291.2125	0.075	582425	keystroke_o	o	n/a
291.4225	0.045	582845	keystroke_b	b	n/a
291.6325	0.105	583265	keystroke_e	e	n/a
291.9175	0.03	583835	keystroke_s	s	n/a
292.0375	0.045	584075	keystroke_s	s	n/a
292.1875	0.075	584375	keystroke_i	i	n/a
292.5175	0.09	585035	keystroke_Key.backspace	Key.backspace	n/a
292.6675	0.135	585335	keystroke_Key.backspace	Key.backspace	n/a
292.7575	0.105	585515	keystroke_i	i	n/a
292.8925	0.105	585785	keystroke_t	t	n/a
293.1625	0.075	586325	keystroke_y	y	n/a
293.5225	0.075	587045	keystroke_Key.enter	Key.enter	n/a
293.6055	11.2735	587211	prompt	n/a	sandra enhancement beautifully graphics\n
294.7525	0.105	589505	keystroke_s	s	n/a
294.9025	0.105	589805	keystroke_a	a	n/a
295.0375	0.09	590075	keystroke_n	n	n/a
295.2475	0.09	590495	keystroke_d	d	n/a
295.4575	0.105	590915	keystroke_r	r	n/a
295.6975	0.09	591395	keystroke_a	a	n/a
295.8175	0.12	591635	keystroke_Key.space	Key.space	n/a
296.0875	0.09	592175	keystroke_e	e	n/a
296.2825	0.075	592565	keystroke_c	c	n/a
296.9275	0.09	593855	keystroke_Key.backspace	Key.backspace	n/a
297.1375	0.09	594275	keystroke_n	n	n/a
297.7075	0.105	595415	keystroke_h	h	n/a
297.9025	0.15	595805	keystroke_a	a	n/a
298.0825	0.075	596165	keystroke_n	n	n/a
298.1725	0.12	596345	keystroke_c	c	n/a
298.2775	0.09	596555	keystroke_e	e	n/a
298.4275	0.09	596855	keystroke_m	m	n/a
298.5325	0.09	597065	keystroke_e	e	n/a
298.6525	0.09	597305	keystroke_n	n	n/a
298.7725	0.0895	597545	keystroke_t	t	n/a
298.892	0.12	597784	keystroke_Key.space	Key.space	n/a
299.297	0.075	598594	keystroke_b	b	n/a
299.387	0.105	598774	keystroke_e	e	n/a
299.582	0.121	599164	keystroke_a	a	n/a
299.822	0.105	599644	keystroke_u	u	n/a
300.137	0.031	600274	keystroke_r	r	n/a
300.737	0.135	601474	keystroke_Key.backspace	Key.backspace	n/a
301.038	0.09	602076	keystroke_t	t	n/a
301.187	0.06	602374	keystroke_i	i	n/a
301.337	0.105	602674	keystroke_f	f	n/a
301.862	0.075	603724	keystroke_u	u	n/a
302.238	0.089	604476	keystroke_l	l	n/a
302.402	0.09	604804	keystroke_l	l	n/a
302.582	0.09	605164	keystroke_y	y	n/a
302.687	0.105	605374	keystroke_Key.space	Key.space	n/a
303.362	0.09	606724	keystroke_g	g	n/a
303.467	0.09	606934	keystroke_r	r	n/a
303.662	0.106	607324	keystroke_a	a	n/a
303.722	0.075	607444	keystroke_p	p	n/a
304.037	0.06	608074	keystroke_h	h	n/a
304.262	0.091	608524	keystroke_i	i	n/a
304.337	0.135	608674	keystroke_c	c	n/a
304.457	0.09	608914	keystroke_s	s	n/a
304.787	0.09	609574	keystroke_Key.enter	Key.enter	n/a
304.884	6.4005	609768	prompt	n/a	russian subscriber cricket oils\n
305.688	0.075	611376	keystroke_r	r	n/a
305.792	0.076	611584	keystroke_u	u	n/a
305.957	0.03	611914	keystroke_s	s	n/a
306.107	0.045	612214	keystroke_s	s	n/a
306.168	0.075	612336	keystroke_i	i	n/a
306.303	0.074	612606	keystroke_a	a	n/a
306.422	0.075	612844	keystroke_n	n	n/a
306.482	0.105	612964	keystroke_Key.space	Key.space	n/a
306.708	0.09	613416	keystroke_s	s	n/a
306.827	0.076	613654	keystroke_u	u	n/a
306.947	0.075	613894	keystroke_b	b	n/a
307.427	0.091	614854	keystroke_s	s	n/a
307.547	0.106	615094	keystroke_c	c	n/a
307.728	0.074	615456	keystroke_r	r	n/a
307.848	0.075	615696	keystroke_i	i	n/a
308.103	0.105	616206	keystroke_e	e	n/a
308.387	0.105	616774	keystroke_Key.backspace	Key.backspace	n/a
308.448	0.12	616896	keystroke_b	b	n/a
308.642	0.136	617284	keystroke_e	e	n/a
308.733	0.135	617466	keystroke_r	r	n/a
308.837	0.135	617674	keystroke_Key.space	Key.space	n/a
309.092	0.075	618184	keystroke_c	c	n/a
309.228	0.09	618456	keystroke_r	r	n/a
309.303	0.09	618606	keystroke_i	i	n/a
309.483	0.12	618966	keystroke_c	c	n/a
309.588	0.075	619176	keystroke_k	k	n/a
309.828	0.075	619656	keystroke_e	e	n/a
310.067	0.091	620134	keystroke_t	t	n/a
310.202	0.105	620404	keystroke_Key.space	Key.space	n/a
310.412	0.09	620824	keystroke_o	o	n/a
310.653	0.089	621306	keystroke_i	i	n/a
310.862	0.091	621724	keystroke_l	l	n/a
310.968	0.09	621936	keystroke_s	s	n/a
311.222	0.06	622444	keystroke_Key.enter	Key.enter	n/a
311.2895	7.076	622579	prompt	n/a	dicke harmful jane petite\n
312.213	0.074	624426	keystroke_d	d	n/a
312.318	0.06	624636	keystroke_i	i	n/a
312.437	0.09	624874	keystroke_c	c	n/a
312.543	0.075	625086	keystroke_k	k	n/a
312.647	0.106	625294	keystroke_e	e	n/a
312.753	0.104	625506	keystroke_Key.space	Key.space	n/a
313.337	0.076	626674	keystroke_h	h	n/a
313.428	0.075	626856	keystroke_a	a	n/a
313.607	0.061	627214	keystroke_r	r	n/a
313.698	0.09	627396	keystroke_m	m	n/a
314.133	0.119	628266	keystroke_f	f	n/a
314.223	0.075	628446	keystroke_u	u	n/a
314.478	0.12	628956	keystroke_l	l	n/a
314.642	0.136	629284	keystroke_Key.space	Key.space	n/a
316.203	0.075	632406	keystroke_j	j	n/a
316.293	0.075	632586	keystroke_a	a	n/a
316.443	0.075	632886	keystroke_n	n	n/a
316.548	0.059	633096	keystroke_e	e	n/a
316.623	0.09	633246	keystroke_Key.space	Key.space	n/a
316.878	0.075	633756	keystroke_p	p	n/a
317.013	0.089	634026	keystroke_e	e	n/a
317.568	0.09	635136	keystroke_t	t	n/a
317.763	0.105	635526	keystroke_i	i	n/a
317.882	0.106	635764	keystroke_t	t	n/a
318.018	0.105	636036	keystroke_e	e	n/a
318.288	0.075	636576	keystroke_Key.enter	Key.enter	n/a
318.371	5.529	636742	prompt	n/a	disable look mexico those\n
319.098	0.105	638196	keystroke_d	d	n/a
319.233	0.075	638466	keystroke_i	i	n/a
319.338	0.105	638676	keystroke_s	s	n/a
319.503	0.09	639006	keystroke_a	a	n/a
319.728	0.075	639456	keystroke_b	b	n/a
319.893	0.075	639786	keystroke_l	l	n/a
319.983	0.12	639966	keystroke_e	e	n/a
320.073	0.15	640146	keystroke_Key.space	Key.space	n/a
320.508	0.075	641016	keystroke_k	k	n/a
320.793	0.119	641586	keystroke_Key.backspace	Key.backspace	n/a
320.928	0.09	641856	keystroke_l	l	n/a
321.093	0.075	642186	keystroke_o	o	n/a
321.243	0.135	642486	keystroke_o	o	n/a
321.348	0.105	642696	keystroke_k	k	n/a
321.498	0.12	642996	keystroke_Key.space	Key.space	n/a
321.663	0.06	643326	keystroke_m	m	n/a
321.768	0.105	643536	keystroke_e	e	n/a
322.008	0.165	644016	keystroke_x	x	n/a
322.383	0.09	644766	keystroke_i	i	n/a
322.578	0.105	645156	keystroke_c	c	n/a
322.668	0.09	645336	keystroke_o	o	n/a
322.803	0.105	645606	keystroke_Key.space	Key.space	n/a
323.103	0.075	646206	keystroke_t	t	n/a
323.193	0.06	646386	keystroke_h	h	n/a
323.403	0.06	646806	keystroke_o	o	n/a
323.508	0.075	647016	keystroke_s	s	n/a
323.703	0.075	647406	keystroke_e	e	n/a
323.808	0.09	647616	keystroke_Key.enter	Key.enter	n/a
323.9055	9.1595	647811	prompt	n/a	solutions chelsea loved attachments\n
324.618	0.06	649236	keystroke_s	s	n/a
324.753	0.06	649506	keystroke_o	o	n/a
324.903	0.09	649806	keystroke_l	l	n/a
325.113	0.075	650226	keystroke_u	u	n/a
325.233	0.09	650466	keystroke_t	t	n/a
325.338	0.09	650676	keystroke_i	i	n/a
325.503	0.06	651006	keystroke_o	o	n/a
325.668	0.09	651336	keystroke_n	n	n/a
325.743	0.105	651486	keystroke_s	s	n/a
325.863	0.09	651726	keystroke_Key.space	Key.space	n/a
326.118	0.015	652236	keystroke_c	c	n/a
326.193	0.03	652386	keystroke_h	h	n/a
326.208	0.09	652416	keystroke_e	e	n/a
326.418	0.09	652836	keystroke_l	l	n/a
326.568	0.09	653136	keystroke_e	e	n/a
326.898	0.105	653796	keystroke_Key.backspace	Key.backspace	n/a
326.958	0.075	653916	keystroke_s	s	n/a
327.123	0.09	654246	keystroke_e	e	n/a
327.303	0.09	654606	keystroke_a	a	n/a
327.4675	0.105	654935	keystroke_Key.space	Key.space	n/a
327.8435	0.075	655687	keystroke_l	l	n/a
328.0085	0.105	656017	keystroke_o	o	n/a
328.0985	0.075	656197	keystroke_v	v	n/a
328.2485	0.15	656497	keystroke_e	e	n/a
328.3685	0.105	656737	keystroke_r	r	n/a
328.6525	0.09	657305	keystroke_Key.backspace	Key.backspace	n/a
328.7285	0.135	657457	keystroke_d	d	n/a
329.0425	0.121	658085	keystroke_Key.space	Key.space	n/a
329.2985	0.075	658597	keystroke_a	a	n/a
329.5535	0.045	659107	keystroke_t	t	n/a
329.7035	0.075	659407	keystroke_t	t	n/a
329.9135	0.075	659827	keystroke_a	a	n/a
330.0935	0.075	660187	keystroke_t	t	n/a
330.2885	0.09	660577	keystroke_c	c	n/a
330.4235	0.09	660847	keystroke_h	h	n/a
331.4435	0.075	662887	keystroke_m	m	n/a
331.5935	0.045	663187	keystroke_e	e	n/a
331.6835	0.09	663367	keystroke_n	n	n/a
331.8035	0.09	663607	keystroke_t	t	n/a
331.9075	0.106	663815	keystroke_Key.space	Key.space	n/a
332.2235	0.104	664447	keystroke_Key.backspace	Key.backspace	n/a
332.3135	0.12	664627	keystroke_s	s	n/a
332.4185	0.12	664837	keystroke_Key.space	Key.space	n/a
332.7035	0.104	665407	keystroke_Key.backspace	Key.backspace	n/a
333.0035	0.059	666007	keystroke_Key.enter	Key.enter	n/a
333.07	10.15	666140	prompt	n/a	laden unusual fellowship horrible\n
333.7985	0.12	667597	keystroke_a	a	n/a
334.0835	0.135	668167	keystroke_Key.backspace	Key.backspace	n/a
334.2485	0.045	668497	keystroke_l	l	n/a
334.2635	0.015	668527	keystroke_;	;	n/a
334.6675	0.076	669335	keystroke_Key.backspace	Key.backspace	n/a
334.7885	0.09	669577	keystroke_a	a	n/a
334.9085	0.105	669817	keystroke_d	d	n/a
335.0285	0.06	670057	keystroke_e	e	n/a
335.1485	0.09	670297	keystroke_n	n	n/a
335.3135	0.12	670627	keystroke_Key.space	Key.space	n/a
335.9285	0.075	671857	keystroke_u	u	n/a
336.1235	0.09	672247	keystroke_n	n	n/a
336.3335	0.105	672667	keystroke_u	u	n/a
336.4985	0.12	672997	keystroke_s	s	n/a
336.7985	0.09	673597	keystroke_u	u	n/a
336.8735	0.09	673747	keystroke_a	a	n/a
337.0385	0.075	674077	keystroke_l	l	n/a
337.1585	0.165	674317	keystroke_Key.space	Key.space	n/a
337.9385	0.105	675877	keystroke_d	d	n/a
338.3735	0.09	676747	keystroke_f	f	n/a
338.5685	0.06	677137	keystroke_Key.backspace	Key.backspace	n/a
338.7185	0.105	677437	keystroke_Key.backspace	Key.backspace	n/a
338.793	0.06	677586	keystroke_f	f	n/a
339.0935	0.1345	678187	keystroke_e	e	n/a
339.2435	0.075	678487	keystroke_l	l	n/a
339.3935	0.1045	678787	keystroke_l	l	n/a
339.543	0.105	679086	keystroke_o	o	n/a
339.663	0.09	679326	keystroke_w	w	n/a
339.903	0.09	679806	keystroke_s	s	n/a
339.978	0.075	679956	keystroke_h	h	n/a
340.218	0.09	680436	keystroke_i	i	n/a
340.428	0.105	680856	keystroke_o	o	n/a
340.773	0.12	681546	keystroke_Key.backspace	Key.backspace	n/a
340.878	0.105	681756	keystroke_p	p	n/a
341.058	0.1355	682116	keystroke_Key.space	Key.space	n/a
342.0035	0.0445	684007	keystroke_h	h	n/a
342.198	0.09	684396	keystroke_o	o	n/a
342.318	0.075	684636	keystroke_r	r	n/a
342.483	0.075	684966	keystroke_r	r	n/a
342.588	0.075	685176	keystroke_i	i	n/a
342.693	0.09	685386	keystroke_b	b	n/a
342.798	0.12	685596	keystroke_l	l	n/a
342.933	0.075	685866	keystroke_e	e	n/a
343.143	0.075	686286	keystroke_Key.enter	Key.enter	n/a
343.224	6.7315	686448	prompt	n/a	surely internet seat signatures\n
344.043	0.075	688086	keystroke_s	s	n/a
344.148	0.075	688296	keystroke_u	u	n/a
344.253	0.1055	688506	keystroke_r	r	n/a
344.328	0.12	688656	keystroke_e	e	n/a
344.463	0.015	688926	keystroke_l	l	n/a
344.643	0.075	689286	keystroke_y	y	n/a
345.033	0.09	690066	keystroke_Key.space	Key.space	n/a
345.333	0.09	690666	keystroke_i	i	n/a
345.483	0.105	690966	keystroke_n	n	n/a
345.633	0.09	691266	keystroke_t	t	n/a
345.738	0.15	691476	keystroke_e	e	n/a
345.873	0.105	691746	keystroke_r	r	n/a
345.963	0.075	691926	keystroke_n	n	n/a
346.803	0.12	693606	keystroke_e	e	n/a
346.953	0.105	693906	keystroke_t	t	n/a
347.118	0.09	694236	keystroke_Key.space	Key.space	n/a
347.733	0.09	695466	keystroke_s	s	n/a
347.973	0.075	695946	keystroke_e	e	n/a
348.138	0.09	696276	keystroke_a	a	n/a
348.258	0.09	696516	keystroke_t	t	n/a
348.363	0.075	696726	keystroke_Key.space	Key.space	n/a
348.513	0.105	697026	keystroke_s	s	n/a
348.633	0.075	697266	keystroke_i	i	n/a
348.798	0.045	697596	keystroke_g	g	n/a
348.888	0.075	697776	keystroke_n	n	n/a
349.068	0.09	698136	keystroke_a	a	n/a
349.233	0.075	698466	keystroke_t	t	n/a
349.353	0.09	698706	keystroke_u	u	n/a
349.458	0.09	698916	keystroke_r	r	n/a
349.533	0.105	699066	keystroke_e	e	n/a
349.743	0.09	699486	keystroke_s	s	n/a
349.878	0.075	699756	keystroke_Key.enter	Key.enter	n/a
349.9605	6.61	699921	prompt	n/a	joshua contribute absent changes\n
350.763	0.075	701526	keystroke_j	j	n/a
350.928	0.075	701856	keystroke_o	o	n/a
351.078	0.075	702156	keystroke_s	s	n/a
351.168	0.045	702336	keystroke_h	h	n/a
351.333	0.06	702666	keystroke_u	u	n/a
351.408	0.09	702816	keystroke_a	a	n/a
351.543	0.12	703086	keystroke_Key.space	Key.space	n/a
352.038	0.075	704076	keystroke_c	c	n/a
352.083	0.075	704166	keystroke_o	o	n/a
352.263	0.075	704526	keystroke_n	n	n/a
352.368	0.075	704736	keystroke_t	t	n/a
352.458	0.105	704916	keystroke_r	r	n/a
352.533	0.09	705066	keystroke_i	i	n/a
352.698	0.075	705396	keystroke_b	b	n/a
352.788	0.075	705576	keystroke_u	u	n/a
353.058	0.15	706116	keystroke_t	t	n/a
353.178	0.135	706356	keystroke_e	e	n/a
353.314	0.119	706628	keystroke_Key.space	Key.space	n/a
353.913	0.09	707826	keystroke_a	a	n/a
354.153	0.06	708306	keystroke_b	b	n/a
354.348	0.09	708696	keystroke_e	e	n/a
354.678	0.105	709356	keystroke_Key.backspace	Key.backspace	n/a
354.738	0.06	709476	keystroke_s	s	n/a
354.918	0.06	709836	keystroke_e	e	n/a
355.038	0.06	710076	keystroke_n	n	n/a
355.158	0.09	710316	keystroke_t	t	n/a
355.263	0.09	710526	keystroke_Key.space	Key.space	n/a
355.488	0.075	710976	keystroke_c	c	n/a
355.623	0.075	711246	keystroke_h	h	n/a
355.713	0.105	711426	keystroke_a	a	n/a
355.863	0.09	711726	keystroke_n	n	n/a
355.983	0.075	711966	keystroke_g	g	n/a
356.088	0.06	712176	keystroke_e	e	n/a
356.283	0.09	712566	keystroke_s	s	n/a
356.508	0.06	713016	keystroke_Key.enter	Key.enter	n/a
356.5745	12.3255	713149	prompt	n/a	airplane transexual substitute mechanism\n
357.4085	0.075	714817	keystroke_a	a	n/a
357.5135	0.06	715027	keystroke_i	i	n/a
357.6635	0.06	715327	keystroke_t	t	n/a
357.9935	0.12	715987	keystroke_Key.backspace	Key.backspace	n/a
358.1435	0.015	716287	keystroke_r	r	n/a
358.2485	0.135	716497	keystroke_p	p	n/a
358.3535	0.12	716707	keystroke_l	l	n/a
358.4885	0.12	716977	keystroke_a	a	n/a
358.6985	0.075	717397	keystroke_n	n	n/a
358.7885	0.135	717577	keystroke_e	e	n/a
358.9235	0.12	717847	keystroke_Key.space	Key.space	n/a
359.4785	0.075	718957	keystroke_t	t	n/a
359.8835	0.075	719767	keystroke_r	r	n/a
360.0785	0.09	720157	keystroke_a	a	n/a
360.1835	0.075	720367	keystroke_n	n	n/a
360.3335	0.075	720667	keystroke_s	s	n/a
360.5285	0.075	721057	keystroke_e	e	n/a
360.7835	0.1355	721567	keystroke_x	x	n/a
361.0085	0.075	722017	keystroke_u	u	n/a
361.2185	0.09	722437	keystroke_a	a	n/a
361.3685	0.075	722737	keystroke_l	l	n/a
361.5485	0.12	723097	keystroke_Key.space	Key.space	n/a
361.9085	0.09	723817	keystroke_s	s	n/a
362.0285	0.09	724057	keystroke_u	u	n/a
362.2385	0.075	724477	keystroke_b	b	n/a
362.7335	0.12	725467	keystroke_s	s	n/a
363.3485	0.09	726697	keystroke_t	t	n/a
363.5735	0.075	727147	keystroke_i	i	n/a
363.8735	0.09	727747	keystroke_t	t	n/a
364.2035	0.09	728407	keystroke_u	u	n/a
364.4585	0.09	728917	keystroke_e	e	n/a
364.8485	0.135	729697	keystroke_Key.backspace	Key.backspace	n/a
364.9385	0.15	729877	keystroke_t	t	n/a
365.0585	0.135	730117	keystroke_e	e	n/a
365.1785	0.105	730357	keystroke_Key.space	Key.space	n/a
365.8085	0.09	731617	keystroke_m	m	n/a
365.9135	0.106	731827	keystroke_e	e	n/a
366.1835	0.06	732367	keystroke_h	h	n/a
366.5285	0.075	733057	keystroke_Key.backspace	Key.backspace	n/a
366.6935	0.09	733387	keystroke_c	c	n/a
367.3535	0.06	734707	keystroke_h	h	n/a
367.5035	0.09	735007	keystroke_a	a	n/a
367.6085	0.075	735217	keystroke_n	n	n/a
367.7885	0.09	735577	keystroke_i	i	n/a
367.8935	0.075	735787	keystroke_c	c	n/a
368.253	0.06	736506	keystroke_Key.backspace	Key.backspace	n/a
368.403	0.0755	736806	keystroke_s	s	n/a
368.463	0.0905	736926	keystroke_m	m	n/a
368.8535	0.045	737707	keystroke_Key.enter	Key.enter	n/a
368.906	11.274	737812	prompt	n/a	watershed delay violin compiled\n
369.8135	0.045	739627	keystroke_w	w	n/a
370.1885	0.105	740377	keystroke_a	a	n/a
370.4435	0.075	740887	keystroke_t	t	n/a
370.6235	0.1045	741247	keystroke_e	e	n/a
370.698	0.09	741396	keystroke_r	r	n/a
370.908	0.06	741816	keystroke_s	s	n/a
370.998	0.1055	741996	keystroke_h	h	n/a
371.208	0.12	742416	keystroke_e	e	n/a
371.358	0.09	742716	keystroke_d	d	n/a
371.8085	0.0895	743617	keystroke_Key.space	Key.space	n/a
371.883	0.1205	743766	keystroke_d	d	n/a
371.988	0.0905	743976	keystroke_e	e	n/a
372.093	0.075	744186	keystroke_k	k	n/a
372.228	0.105	744456	keystroke_a	a	n/a
372.648	0.06	745296	keystroke_Key.backspace	Key.backspace	n/a
372.813	0.135	745626	keystroke_Key.backspace	Key.backspace	n/a
372.918	0.09	745836	keystroke_l	l	n/a
373.263	0.0905	746526	keystroke_a	a	n/a
373.3835	0.0895	746767	keystroke_y	y	n/a
373.533	0.135	747066	keystroke_Key.space	Key.space	n/a
374.553	0.075	749106	keystroke_v	v	n/a
374.673	0.06	749346	keystroke_i	i	n/a
374.958	0.105	749916	keystroke_o	o	n/a
375.468	0.09	750936	keystroke_l	l	n/a
375.693	0.15	751386	keystroke_i	i	n/a
375.828	0.12	751656	keystroke_n	n	n/a
376.053	0.12	752106	keystroke_Key.space	Key.space	n/a
376.503	0.12	753006	keystroke_c	c	n/a
376.608	0.106	753216	keystroke_o	o	n/a
376.758	0.075	753516	keystroke_m	m	n/a
378.003	0.105	756006	keystroke_p	p	n/a
378.138	0.09	756276	keystroke_l	l	n/a
378.408	0.09	756816	keystroke_Key.backspace	Key.backspace	n/a
378.618	0.06	757236	keystroke_u	u	n/a
378.829	0.059	757658	keystroke_l	l	n/a
379.158	0.045	758316	keystroke_Key.backspace	Key.backspace	n/a
379.323	0.075	758646	keystroke_Key.backspace	Key.backspace	n/a
379.518	0.076	759036	keystroke_i	i	n/a
379.713	0.075	759426	keystroke_l	l	n/a
379.803	0.15	759606	keystroke_e	e	n/a
379.893	0.151	759786	keystroke_d	d	n/a
380.088	0.09	760176	keystroke_Key.enter	Key.enter	n/a
380.1855	6.1305	760371	prompt	n/a	arrest katie doctor kingston\n
380.838	0.075	761676	keystroke_a	a	n/a
381.064	0.059	762128	keystroke_r	r	n/a
381.198	0.105	762396	keystroke_r	r	n/a
381.424	0.074	762848	keystroke_e	e	n/a
381.618	0.091	763236	keystroke_s	s	n/a
381.723	0.075	763446	keystroke_t	t	n/a
381.828	0.06	763656	keystroke_Key.space	Key.space	n/a
382.053	0.075	764106	keystroke_k	k	n/a
382.234	0.074	764468	keystroke_a	a	n/a
382.413	0.09	764826	keystroke_t	t	n/a
382.563	0.075	765126	keystroke_i	i	n/a
382.683	0.196	765366	keystroke_e	e	n/a
383.043	0.12	766086	keystroke_Key.space	Key.space	n/a
383.403	0.075	766806	keystroke_d	d	n/a
383.523	0.075	767046	keystroke_o	o	n/a
383.614	0.074	767228	keystroke_c	c	n/a
383.809	0.06	767618	keystroke_t	t	n/a
383.898	0.075	767796	keystroke_o	o	n/a
383.989	0.104	767978	keystroke_r	r	n/a
384.123	0.12	768246	keystroke_Key.space	Key.space	n/a
384.483	0.09	768966	keystroke_k	k	n/a
384.648	0.1055	769296	keystroke_i	i	n/a
384.7985	0.09	769597	keystroke_n	n	n/a
385.0685	0.075	770137	keystroke_g	g	n/a
385.4735	0.06	770947	keystroke_s	s	n/a
385.6985	0.09	771397	keystroke_t	t	n/a
385.7135	0.09	771427	keystroke_o	o	n/a
385.8935	0.075	771787	keystroke_n	n	n/a
386.2235	0.09	772447	keystroke_Key.enter	Key.enter	n/a
386.3215	13.539	772643	prompt	n/a	you'll config endangered sublime\n
387.2435	0.075	774487	keystroke_y	y	n/a
387.3335	0.075	774667	keystroke_o	o	n/a
387.5585	0.03	775117	keystroke_u	u	n/a
387.9485	0.09	775897	keystroke_;	;	n/a
388.5035	0.09	777007	keystroke_Key.backspace	Key.backspace	n/a
388.7135	0.105	777427	keystroke_'	'	n/a
389.1785	0.075	778357	keystroke_;	;	n/a
389.3585	0.06	778717	keystroke_;	;	n/a
389.8085	0.09	779617	keystroke_Key.backspace	Key.backspace	n/a
389.9735	0.135	779947	keystroke_Key.backspace	Key.backspace	n/a
390.1235	0.075	780247	keystroke_l	l	n/a
390.2735	0.09	780547	keystroke_l	l	n/a
390.4685	0.165	780937	keystroke_Key.space	Key.space	n/a
391.3085	0.075	782617	keystroke_c	c	n/a
391.3685	0.075	782737	keystroke_o	o	n/a
391.5185	0.09	783037	keystroke_n	n	n/a
392.0735	0.075	784147	keystroke_f	f	n/a
392.4185	0.075	784837	keystroke_i	i	n/a
392.7035	0.06	785407	keystroke_g	g	n/a
392.8235	0.165	785647	keystroke_Key.space	Key.space	n/a
393.5585	0.075	787117	keystroke_e	e	n/a
393.8135	0.105	787627	keystroke_n	n	n/a
395.5235	0.105	791047	keystroke_d	d	n/a
395.7785	0.105	791557	keystroke_a	a	n/a
395.9435	0.09	791887	keystroke_n	n	n/a
396.0935	0.12	792187	keystroke_g	g	n/a
396.4535	0.18	792907	keystroke_e	e	n/a
396.6485	0.12	793297	keystroke_r	r	n/a
396.9035	0.075	793807	keystroke_e	e	n/a
396.9635	0.12	793927	keystroke_d	d	n/a
397.1435	0.075	794287	keystroke_Key.space	Key.space	n/a
397.9535	0.045	795907	keystroke_s	s	n/a
398.0735	0.045	796147	keystroke_u	u	n/a
398.1785	0.075	796357	keystroke_b	b	n/a
398.2685	0.12	796537	keystroke_l	l	n/a
398.4785	0.165	796957	keystroke_i	i	n/a
398.6135	0.09	797227	keystroke_n	n	n/a
398.6885	0.105	797377	keystroke_e	e	n/a
399.0785	0.075	798157	keystroke_Key.backspace	Key.backspace	n/a
399.2435	0.09	798487	keystroke_Key.backspace	Key.backspace	n/a
399.5135	0.06	799027	keystroke_m	m	n/a
399.6335	0.09	799267	keystroke_e	e	n/a
399.7685	0.09	799537	keystroke_Key.enter	Key.enter	n/a
399.8645	11.2775	799729	prompt	n/a	funded converted photographers printers\n
400.8035	0.06	801607	keystroke_f	f	n/a
400.8785	0.1205	801757	keystroke_u	u	n/a
401.013	0.031	802026	keystroke_n	n	n/a
401.029	0.075	802058	keystroke_d	d	n/a
401.149	0.12	802298	keystroke_e	e	n/a
401.254	0.12	802508	keystroke_d	d	n/a
401.434	0.089	802868	keystroke_Key.space	Key.space	n/a
402.994	0.09	805988	keystroke_c	c	n/a
403.084	0.075	806168	keystroke_o	o	n/a
403.248	0.091	806496	keystroke_v	v	n/a
403.728	0.091	807456	keystroke_Key.backspace	Key.backspace	n/a
403.924	0.075	807848	keystroke_n	n	n/a
404.044	0.09	808088	keystroke_v	v	n/a
404.269	0.105	808538	keystroke_e	e	n/a
404.419	0.105	808838	keystroke_r	r	n/a
404.659	0.075	809318	keystroke_t	t	n/a
404.869	0.135	809738	keystroke_e	e	n/a
404.974	0.105	809948	keystroke_d	d	n/a
405.123	0.076	810246	keystroke_Key.space	Key.space	n/a
405.424	0.075	810848	keystroke_p	p	n/a
405.799	0.06	811598	keystroke_o	o	n/a
406.039	0.075	812078	keystroke_Key.backspace	Key.backspace	n/a
406.503	0.046	813006	keystroke_h	h	n/a
406.594	0.09	813188	keystroke_o	o	n/a
406.729	0.075	813458	keystroke_t	t	n/a
407.044	0.09	814088	keystroke_o	o	n/a
408.034	0.119	816068	keystroke_g	g	n/a
408.169	0.105	816338	keystroke_r	r	n/a
408.379	0.12	816758	keystroke_a	a	n/a
408.468	0.061	816936	keystroke_p	p	n/a
408.889	0.134	817778	keystroke_h	h	n/a
409.174	0.12	818348	keystroke_e	e	n/a
409.279	0.105	818558	keystroke_r	r	n/a
409.474	0.105	818948	keystroke_s	s	n/a
409.609	0.09	819218	keystroke_Key.space	Key.space	n/a
409.864	0.075	819728	keystroke_p	p	n/a
409.999	0.105	819998	keystroke_r	r	n/a
410.089	0.15	820178	keystroke_i	i	n/a
410.224	0.105	820448	keystroke_n	n	n/a
410.314	0.105	820628	keystroke_t	t	n/a
410.464	0.135	820928	keystroke_e	e	n/a
410.614	0.06	821228	keystroke_r	r	n/a
410.899	0.105	821798	keystroke_s	s	n/a
411.064	0.075	822128	keystroke_Key.enter	Key.enter	n/a
411.1475	10.1935	822295	prompt	n/a	terrorist daren't butterfly realistic\n
412.0395	0.075	824079	keystroke_t	t	n/a
412.2345	0.12	824469	keystroke_e	e	n/a
412.3395	0.09	824679	keystroke_r	r	n/a
412.504	0.09	825008	keystroke_r	r	n/a
412.609	0.105	825218	keystroke_o	o	n/a
412.729	0.105	825458	keystroke_r	r	n/a
413.0595	0.09	826119	keystroke_i	i	n/a
413.1645	0.105	826329	keystroke_s	s	n/a
413.3145	0.09	826629	keystroke_t	t	n/a
413.4495	0.09	826899	keystroke_Key.space	Key.space	n/a
413.6745	0.104	827349	keystroke_d	d	n/a
413.9745	0.075	827949	keystroke_a	a	n/a
414.1695	0.06	828339	keystroke_r	r	n/a
414.3495	0.09	828699	keystroke_e	e	n/a
414.4095	0.075	828819	keystroke_n	n	n/a
414.6945	0.12	829389	keystroke_;	;	n/a
414.7845	0.15	829569	keystroke_t	t	n/a
415.1595	0.06	830319	keystroke_Key.backspace	Key.backspace	n/a
415.3095	0.12	830619	keystroke_Key.backspace	Key.backspace	n/a
415.3845	0.12	830769	keystroke_'	'	n/a
415.4895	0.1345	830979	keystroke_t	t	n/a
415.669	0.12	831338	keystroke_Key.space	Key.space	n/a
416.389	0.03	832778	keystroke_b	b	n/a
416.464	0.075	832928	keystroke_u	u	n/a
416.69	0.074	833380	keystroke_t	t	n/a
416.854	0.075	833708	keystroke_t	t	n/a
417.049	0.135	834098	keystroke_e	e	n/a
417.139	0.075	834278	keystroke_r	r	n/a
417.409	0.03	834818	keystroke_g	g	n/a
417.484	0.09	834968	keystroke_l	l	n/a
417.634	0.12	835268	keystroke_y	y	n/a
417.889	0.06	835778	keystroke_Key.backspace	Key.backspace	n/a
418.039	0.075	836078	keystroke_Key.backspace	Key.backspace	n/a
418.189	0.135	836378	keystroke_Key.backspace	Key.backspace	n/a
418.279	0.105	836558	keystroke_f	f	n/a
418.385	0.074	836770	keystroke_l	l	n/a
418.534	0.135	837068	keystroke_y	y	n/a
419.014	0.135	838028	keystroke_Key.space	Key.space	n/a
419.569	0.105	839138	keystroke_r	r	n/a
419.734	0.045	839468	keystroke_e	e	n/a
419.869	0.105	839738	keystroke_a	a	n/a
420.019	0.105	840038	keystroke_l	l	n/a
420.259	0.075	840518	keystroke_i	i	n/a
420.424	0.09	840848	keystroke_s	s	n/a
420.709	0.06	841418	keystroke_t	t	n/a
420.784	0.09	841568	keystroke_i	i	n/a
420.949	0.135	841898	keystroke_c	c	n/a
421.309	0.03	842618	keystroke_Key.enter	Key.enter	n/a
421.347	8.889	842694	prompt	n/a	elliott appearing posted divided\n
422.014	0.09	844028	keystroke_e	e	n/a
422.164	0.09	844328	keystroke_l	l	n/a
422.389	0.09	844778	keystroke_l	l	n/a
423.409	0.061	846818	keystroke_i	i	n/a
423.739	0.075	847478	keystroke_t	t	n/a
423.964	0.15	847928	keystroke_Key.backspace	Key.backspace	n/a
424.084	0.106	848168	keystroke_o	o	n/a
424.175	0.104	848350	keystroke_t	t	n/a
424.309	0.12	848618	keystroke_Key.space	Key.space	n/a
424.564	0.135	849128	keystroke_a	a	n/a
424.729	0.075	849458	keystroke_p	p	n/a
424.894	0.09	849788	keystroke_p	p	n/a
424.999	0.06	849998	keystroke_e	e	n/a
425.119	0.105	850238	keystroke_a	a	n/a
425.299	0.076	850598	keystroke_r	r	n/a
425.434	0.09	850868	keystroke_i	i	n/a
425.539	0.091	851078	keystroke_n	n	n/a
425.644	0.075	851288	keystroke_g	g	n/a
425.734	0.06	851468	keystroke_Key.space	Key.space	n/a
425.959	0.075	851918	keystroke_p	p	n/a
426.124	0.106	852248	keystroke_o	o	n/a
426.214	0.135	852428	keystroke_s	s	n/a
426.364	0.075	852728	keystroke_t	t	n/a
426.545	0.104	853090	keystroke_e	e	n/a
426.634	0.076	853268	keystroke_d	d	n/a
426.7235	0.0755	853447	keystroke_Key.space	Key.space	n/a
426.859	0.121	853718	keystroke_a	a	n/a
427.189	0.105	854378	keystroke_Key.backspace	Key.backspace	n/a
427.3845	0.089	854769	keystroke_d	d	n/a
427.5785	0.121	855157	keystroke_i	i	n/a
427.8645	0.0905	855729	keystroke_c	c	n/a
428.4345	0.075	856869	keystroke_v	v	n/a
428.5385	0.12	857077	keystroke_Key.backspace	Key.backspace	n/a
428.734	0.1345	857468	keystroke_Key.backspace	Key.backspace	n/a
428.8395	0.06	857679	keystroke_v	v	n/a
428.9885	0.075	857977	keystroke_i	i	n/a
429.5435	0.12	859087	keystroke_d	d	n/a
429.8595	0.135	859719	keystroke_e	e	n/a
429.9495	0.119	859899	keystroke_d	d	n/a
430.1595	0.074	860319	keystroke_Key.enter	Key.enter	n/a
430.2415	6.6995	860483	prompt	n/a	rebound stands babies trigger\n
431.0745	0.105	862149	keystroke_r	r	n/a
431.2395	0.12	862479	keystroke_e	e	n/a
431.5845	0.059	863169	keystroke_b	b	n/a
431.8245	0.09	863649	keystroke_o	o	n/a
432.0485	0.136	864097	keystroke_u	u	n/a
432.1545	0.09	864309	keystroke_n	n	n/a
432.2285	0.076	864457	keystroke_d	d	n/a
432.3335	0.09	864667	keystroke_Key.space	Key.space	n/a
432.6485	0.076	865297	keystroke_s	s	n/a
432.9795	0.06	865959	keystroke_t	t	n/a
433.1585	0.121	866317	keystroke_a	a	n/a
433.3095	0.09	866619	keystroke_n	n	n/a
433.5045	0.195	867009	keystroke_d	d	n/a
433.6845	0.119	867369	keystroke_s	s	n/a
433.8335	0.09	867667	keystroke_Key.space	Key.space	n/a
434.2235	0.076	868447	keystroke_p	p	n/a
434.4335	0.121	868867	keystroke_Key.backspace	Key.backspace	n/a
434.6145	0.09	869229	keystroke_b	b	n/a
434.9445	0.044	869889	keystroke_a	a	n/a
435.1085	0.076	870217	keystroke_b	b	n/a
435.2295	0.105	870459	keystroke_i	i	n/a
435.4095	0.029	870819	keystroke_e	e	n/a
435.5885	0.091	871177	keystroke_s	s	n/a
435.7545	0.104	871509	keystroke_Key.space	Key.space	n/a
435.9795	0.105	871959	keystroke_t	t	n/a
436.1135	0.106	872227	keystroke_r	r	n/a
436.2345	0.074	872469	keystroke_i	i	n/a
436.3245	0.075	872649	keystroke_g	g	n/a
436.5045	0.059	873009	keystroke_g	g	n/a
436.6395	0.12	873279	keystroke_e	e	n/a
436.7295	0.105	873459	keystroke_r	r	n/a
436.8645	0.074	873729	keystroke_Key.enter	Key.enter	n/a
436.9465	18.9415	873893	prompt	n/a	manager contributing findarticles parade\n
437.6595	0.09	875319	keystroke_m	m	n/a
437.7945	0.09	875589	keystroke_a	a	n/a
438.0195	0.075	876039	keystroke_n	n	n/a
438.9045	0.09	877809	keystroke_a	a	n/a
439.0545	0.105	878109	keystroke_g	g	n/a
439.2345	0.12	878469	keystroke_e	e	n/a
439.3245	0.105	878649	keystroke_r	r	n/a
439.4135	0.136	878827	keystroke_Key.space	Key.space	n/a
439.7595	0.075	879519	keystroke_c	c	n/a
439.9395	0.09	879879	keystroke_o	o	n/a
440.1195	0.075	880239	keystroke_n	n	n/a
440.2545	0.105	880509	keystroke_t	t	n/a
440.3445	0.105	880689	keystroke_r	r	n/a
440.4645	0.105	880929	keystroke_i	i	n/a
440.7045	0.09	881409	keystroke_b	b	n/a
441.0045	0.09	882009	keystroke_u	u	n/a
441.4995	0.105	882999	keystroke_t	t	n/a
441.6795	0.09	883359	keystroke_i	i	n/a
441.8145	0.09	883629	keystroke_n	n	n/a
441.9645	0.09	883929	keystroke_g	g	n/a
442.0995	0.09	884199	keystroke_Key.space	Key.space	n/a
442.8195	0.105	885639	keystroke_f	f	n/a
442.9545	0.09	885909	keystroke_i	i	n/a
443.1345	0.12	886269	keystroke_n	n	n/a
443.8695	0.09	887739	keystroke_a	a	n/a
444.1995	0.09	888399	keystroke_r	r	n/a
444.5595	0.09	889119	keystroke_t	t	n/a
445.5195	0.09	891039	keystroke_i	i	n/a
445.6995	0.12	891399	keystroke_c	c	n/a
445.8345	0.105	891669	keystroke_l	l	n/a
447.3045	0.09	894609	keystroke_Key.left	Key.left	n/a
447.4995	0.09	894999	keystroke_Key.left	Key.left	n/a
447.6645	0.09	895329	keystroke_Key.left	Key.left	n/a
447.8445	0.09	895689	keystroke_Key.left	Key.left	n/a
448.1445	0.135	896289	keystroke_Key.left	Key.left	n/a
448.4745	0.105	896949	keystroke_Key.left	Key.left	n/a
449.3595	0.06	898719	keystroke_Key.right	Key.right	n/a
449.5395	0.075	899079	keystroke_Key.right	Key.right	n/a
449.6895	0.09	899379	keystroke_Key.right	Key.right	n/a
449.8695	0.09	899739	keystroke_Key.right	Key.right	n/a
450.0495	0.06	900099	keystroke_Key.right	Key.right	n/a
450.2145	0.075	900429	keystroke_Key.right	Key.right	n/a
451.5345	0.075	903069	keystroke_Key.backspace	Key.backspace	n/a
451.7145	0.06	903429	keystroke_Key.backspace	Key.backspace	n/a
451.8795	0.09	903759	keystroke_Key.backspace	Key.backspace	n/a
452.0295	0.105	904059	keystroke_Key.backspace	Key.backspace	n/a
452.2095	0.105	904419	keystroke_Key.backspace	Key.backspace	n/a
452.4195	0.09	904839	keystroke_Key.backspace	Key.backspace	n/a
452.5995	0.105	905199	keystroke_d	d	n/a
453.0045	0.075	906009	keystroke_a	a	n/a
453.2445	0.045	906489	keystroke_r	r	n/a
453.4845	0.09	906969	keystroke_t	t	n/a
454.0395	0.09	908079	keystroke_i	i	n/a
454.2495	0.075	908499	keystroke_c	c	n/a
454.3395	0.09	908679	keystroke_l	l	n/a
454.4445	0.105	908889	keystroke_e	e	n/a
454.6545	0.105	909309	keystroke_s	s	n/a
454.7895	0.135	909579	keystroke_Key.space	Key.space	n/a
455.0445	0.075	910089	keystroke_p	p	n/a
455.1495	0.135	910299	keystroke_a	a	n/a
455.2695	0.09	910539	keystroke_r	r	n/a
455.4345	0.075	910869	keystroke_a	a	n/a
455.5105	0.149	911021	keystroke_d	d	n/a
455.6295	0.105	911259	keystroke_e	e	n/a
455.8095	0.075	911619	keystroke_Key.enter	Key.enter	n/a
455.8935	9.924	911787	prompt	n/a	engaging hitachi activists scheme\n
456.8895	0.075	913779	keystroke_e	e	n/a
456.9945	0.075	913989	keystroke_n	n	n/a
457.7595	0.06	915519	keystroke_g	g	n/a
457.9695	0.075	915939	keystroke_a	a	n/a
458.885	0.09	917770	keystroke_g	g	n/a
459.23	0.165	918460	keystroke_i	i	n/a
459.365	0.105	918730	keystroke_n	n	n/a
459.485	0.075	918970	keystroke_g	g	n/a
459.59	0.075	919180	keystroke_Key.space	Key.space	n/a
460.01	0.075	920020	keystroke_h	h	n/a
460.22	0.09	920440	keystroke_i	i	n/a
460.28	0.09	920560	keystroke_t	t	n/a
460.895	0.075	921790	keystroke_a	a	n/a
461.12	0.06	922240	keystroke_t	t	n/a
461.315	0.075	922630	keystroke_c	c	n/a
461.42	0.075	922840	keystroke_h	h	n/a
461.57	0.12	923140	keystroke_Key.space	Key.space	n/a
462.35	0.12	924700	keystroke_a	a	n/a
462.485	0.09	924970	keystroke_c	c	n/a
462.725	0.045	925450	keystroke_t	t	n/a
462.8	0.075	925600	keystroke_i	i	n/a
462.92	0.105	925840	keystroke_v	v	n/a
463.61	0.09	927220	keystroke_i	i	n/a
463.73	0.09	927460	keystroke_s	s	n/a
463.88	0.075	927760	keystroke_t	t	n/a
464.09	0.105	928180	keystroke_s	s	n/a
464.24	0.075	928480	keystroke_Key.space	Key.space	n/a
464.435	0.105	928870	keystroke_s	s	n/a
464.615	0.165	929230	keystroke_c	c	n/a
464.945	0.105	929890	keystroke_h	h	n/a
465.29	0.09	930580	keystroke_e	e	n/a
465.395	0.075	930790	keystroke_m	m	n/a
465.515	0.09	931030	keystroke_e	e	n/a
465.74	0.075	931480	keystroke_Key.enter	Key.enter	n/a
465.823	11.6195	931646	prompt	n/a	convenience reducing anyone republicans\n
466.415	0.09	932830	keystroke_c	c	n/a
466.595	0.09	933190	keystroke_i	i	n/a
466.85	0.045	933700	keystroke_b	b	n/a
467.3	0.09	934600	keystroke_Key.backspace	Key.backspace	n/a
467.48	0.075	934960	keystroke_Key.backspace	Key.backspace	n/a
467.51	0.105	935020	keystroke_o	o	n/a
467.735	0.09	935470	keystroke_n	n	n/a
468.56	0.06	937120	keystroke_v	v	n/a
468.755	0.105	937510	keystroke_e	e	n/a
469.175	0.105	938350	keystroke_n	n	n/a
469.505	0.09	939010	keystroke_i	i	n/a
469.805	0.105	939610	keystroke_e	e	n/a
469.97	0.075	939940	keystroke_n	n	n/a
470.075	0.135	940150	keystroke_c	c	n/a
470.18	0.12	940360	keystroke_e	e	n/a
470.315	0.09	940630	keystroke_Key.space	Key.space	n/a
470.57	0.075	941140	keystroke_r	r	n/a
470.765	0.15	941530	keystroke_e	e	n/a
470.9	0.105	941800	keystroke_d	d	n/a
471.065	0.075	942130	keystroke_u	u	n/a
471.17	0.12	942340	keystroke_c	c	n/a
471.335	0.15	942670	keystroke_i	i	n/a
471.485	0.105	942970	keystroke_n	n	n/a
471.62	0.105	943240	keystroke_g	g	n/a
472.085	0.09	944170	keystroke_a	a	n/a
472.205	0.09	944410	keystroke_n	n	n/a
472.385	0.045	944770	keystroke_y	y	n/a
472.61	0.06	945220	keystroke_o	o	n/a
472.925	0.105	945850	keystroke_Key.backspace	Key.backspace	n/a
473.12	0.09	946240	keystroke_Key.backspace	Key.backspace	n/a
473.315	0.075	946630	keystroke_Key.backspace	Key.backspace	n/a
473.48	0.0905	946960	keystroke_Key.backspace	Key.backspace	n/a
473.7805	0.165	947561	keystroke_Key.space	Key.space	n/a
474.0355	0.075	948071	keystroke_a	a	n/a
474.8155	0.165	949631	keystroke_n	n	n/a
474.9505	0.075	949901	keystroke_y	y	n/a
475.1755	0.075	950351	keystroke_o	o	n/a
475.3555	0.09	950711	keystroke_n	n	n/a
475.4755	0.09	950951	keystroke_e	e	n/a
475.5805	0.075	951161	keystroke_Key.space	Key.space	n/a
475.7305	0.12	951461	keystroke_r	r	n/a
475.8205	0.12	951641	keystroke_e	e	n/a
476.0005	0.09	952001	keystroke_p	p	n/a
476.2705	0.09	952541	keystroke_u	u	n/a
476.3905	0.075	952781	keystroke_b	b	n/a
476.5255	0.105	953051	keystroke_l	l	n/a
476.7205	0.09	953441	keystroke_i	i	n/a
476.8255	0.075	953651	keystroke_c	c	n/a
476.9605	0.075	953921	keystroke_a	a	n/a
477.0655	0.075	954131	keystroke_n	n	n/a
477.1705	0.105	954341	keystroke_s	s	n/a
477.3655	0.075	954731	keystroke_Key.enter	Key.enter	n/a
477.447	8.831	954894	prompt	n/a	louise outdoor chase interviews\n
478.2205	0.09	956441	keystroke_l	l	n/a
478.5655	0.06	957131	keystroke_o	o	n/a
478.8355	0.075	957671	keystroke_u	u	n/a
479.0155	0.075	958031	keystroke_i	i	n/a
479.1055	0.135	958211	keystroke_s	s	n/a
479.361	0.1045	958722	keystroke_e	e	n/a
479.6005	0.09	959201	keystroke_Key.space	Key.space	n/a
479.9605	0.075	959921	keystroke_i	i	n/a
480.606	0.165	961212	keystroke_Key.backspace	Key.backspace	n/a
480.741	0.105	961482	keystroke_o	o	n/a
480.996	0.075	961992	keystroke_u	u	n/a
481.116	0.075	962232	keystroke_t	t	n/a
481.476	0.09	962952	keystroke_d	d	n/a
481.536	0.075	963072	keystroke_o	o	n/a
481.701	0.075	963402	keystroke_o	o	n/a
481.761	0.135	963522	keystroke_r	r	n/a
481.941	0.15	963882	keystroke_Key.space	Key.space	n/a
482.601	0.06	965202	keystroke_x	x	n/a
482.691	0.09	965382	keystroke_h	h	n/a
482.796	0.105	965592	keystroke_a	a	n/a
482.916	0.105	965832	keystroke_s	s	n/a
483.306	0.075	966612	keystroke_Key.backspace	Key.backspace	n/a
483.486	0.09	966972	keystroke_Key.backspace	Key.backspace	n/a
483.681	0.045	967362	keystroke_Key.backspace	Key.backspace	n/a
483.816	0.075	967632	keystroke_Key.backspace	Key.backspace	n/a
484.176	0.105	968352	keystroke_c	c	n/a
484.371	0.075	968742	keystroke_h	h	n/a
484.461	0.105	968922	keystroke_a	a	n/a
484.521	0.075	969042	keystroke_s	s	n/a
484.716	0.09	969432	keystroke_e	e	n/a
484.746	0.09	969492	keystroke_Key.space	Key.space	n/a
484.911	0.12	969822	keystroke_i	i	n/a
485.016	0.105	970032	keystroke_n	n	n/a
485.076	0.09	970152	keystroke_t	t	n/a
485.181	0.15	970362	keystroke_e	e	n/a
485.286	0.09	970572	keystroke_r	r	n/a
485.541	0.09	971082	keystroke_v	v	n/a
485.646	0.12	971292	keystroke_i	i	n/a
485.781	0.105	971562	keystroke_e	e	n/a
485.856	0.12	971712	keystroke_w	w	n/a
486.111	0.045	972222	keystroke_s	s	n/a
486.186	0.09	972372	keystroke_Key.enter	Key.enter	n/a
486.286	8.738	972572	prompt	n/a	circuits calling guys hampton\n
487.026	0.105	974052	keystroke_c	c	n/a
487.206	0.075	974412	keystroke_i	i	n/a
487.296	0.105	974592	keystroke_r	r	n/a
488.271	0.105	976542	keystroke_c	c	n/a
488.586	0.06	977172	keystroke_u	u	n/a
488.766	0.09	977532	keystroke_i	i	n/a
488.901	0.06	977802	keystroke_t	t	n/a
489.156	0.105	978312	keystroke_s	s	n/a
489.276	0.075	978552	keystroke_Key.space	Key.space	n/a
490.7465	0.074	981493	keystroke_c	c	n/a
490.8365	0.119	981673	keystroke_a	a	n/a
490.9715	0.045	981943	keystroke_l	l	n/a
491.0905	0.091	982181	keystroke_l	l	n/a
491.3015	0.134	982603	keystroke_i	i	n/a
491.4805	0.091	982961	keystroke_n	n	n/a
491.5855	0.121	983171	keystroke_g	g	n/a
491.7505	0.12	983501	keystroke_Key.space	Key.space	n/a
492.7565	0.075	985513	keystroke_g	g	n/a
492.8465	0.089	985693	keystroke_u	u	n/a
493.0865	0.06	986173	keystroke_y	y	n/a
493.1765	0.12	986353	keystroke_s	s	n/a
493.3555	0.105	986711	keystroke_Key.space	Key.space	n/a
493.5365	0.104	987073	keystroke_h	h	n/a
493.6855	0.076	987371	keystroke_a	a	n/a
493.8055	0.091	987611	keystroke_m	m	n/a
494.0315	0.09	988063	keystroke_p	p	n/a
494.2865	0.075	988573	keystroke_t	t	n/a
494.3465	0.09	988693	keystroke_o	o	n/a
494.6165	0.075	989233	keystroke_n	n	n/a
494.9465	0.075	989893	keystroke_Key.enter	Key.enter	n/a
495.0295	6.67	990059	prompt	n/a	member message plaza beast\n
495.8765	0.105	991753	keystroke_m	m	n/a
495.9965	0.089	991993	keystroke_e	e	n/a
496.1005	0.076	992201	keystroke_m	m	n/a
496.3265	0.0745	992653	keystroke_b	b	n/a
496.3715	0.1045	992743	keystroke_e	e	n/a
496.446	0.105	992892	keystroke_r	r	n/a
496.626	0.105	993252	keystroke_Key.space	Key.space	n/a
497.211	0.045	994422	keystroke_m	m	n/a
497.286	0.09	994572	keystroke_e	e	n/a
497.511	0.075	995022	keystroke_s	s	n/a
497.661	0.105	995322	keystroke_s	s	n/a
497.811	0.09	995622	keystroke_a	a	n/a
497.931	0.09	995862	keystroke_g	g	n/a
498.066	0.09	996132	keystroke_e	e	n/a
498.201	0.06	996402	keystroke_Key.space	Key.space	n/a
498.621	0.06	997242	keystroke_o	o	n/a
499.236	0.15	998472	keystroke_Key.backspace	Key.backspace	n/a
499.311	0.15	998622	keystroke_p	p	n/a
499.416	0.12	998832	keystroke_l	l	n/a
499.671	0.12	999342	keystroke_a	a	n/a
500.241	0.18	1000482	keystroke_z	z	n/a
500.436	0.135	1000872	keystroke_a	a	n/a
500.556	0.12	1001112	keystroke_Key.space	Key.space	n/a
500.781	0.075	1001562	keystroke_b	b	n/a
500.841	0.12	1001682	keystroke_e	e	n/a
501.066	0.105	1002132	keystroke_a	a	n/a
501.141	0.151	1002282	keystroke_s	s	n/a
501.336	0.09	1002672	keystroke_t	t	n/a
501.621	0.075	1003242	keystroke_Key.enter	Key.enter	n/a
501.7055	9.2785	1003411	prompt	n/a	controversy not acquire therapeutic\n
502.476	0.12	1004952	keystroke_c	c	n/a
502.611	0.03	1005222	keystroke_o	o	n/a
502.776	0.12	1005552	keystroke_n	n	n/a
503.016	0.045	1006032	keystroke_t	t	n/a
503.721	0.075	1007442	keystroke_r	r	n/a
503.841	0.105	1007682	keystroke_o	o	n/a
504.321	0.105	1008642	keystroke_v	v	n/a
504.501	0.105	1009002	keystroke_e	e	n/a
504.696	0.075	1009392	keystroke_r	r	n/a
504.906	0.09	1009812	keystroke_s	s	n/a
505.056	0.06	1010112	keystroke_y	y	n/a
505.191	0.12	1010382	keystroke_Key.space	Key.space	n/a
505.626	0.075	1011252	keystroke_n	n	n/a
505.806	0.09	1011612	keystroke_o	o	n/a
505.881	0.075	1011762	keystroke_t	t	n/a
506.016	0.06	1012032	keystroke_Key.space	Key.space	n/a
506.331	0.09	1012662	keystroke_a	a	n/a
506.541	0.09	1013082	keystroke_q	q	n/a
506.796	0.105	1013592	keystroke_u	u	n/a
507.216	0.075	1014432	keystroke_i	i	n/a
507.321	0.15	1014642	keystroke_r	r	n/a
507.441	0.105	1014882	keystroke_e	e	n/a
507.561	0.09	1015122	keystroke_Key.space	Key.space	n/a
507.921	0.076	1015842	keystroke_t	t	n/a
508.071	0.09	1016142	keystroke_h	h	n/a
508.191	0.135	1016382	keystroke_e	e	n/a
508.296	0.075	1016592	keystroke_r	r	n/a
508.476	0.075	1016952	keystroke_a	a	n/a
508.686	0.09	1017372	keystroke_p	p	n/a
508.942	0.089	1017884	keystroke_u	u	n/a
509.421	0.105	1018842	keystroke_Key.backspace	Key.backspace	n/a
509.556	0.075	1019112	keystroke_e	e	n/a
509.722	0.059	1019444	keystroke_u	u	n/a
510.516	0.06	1021032	keystroke_t	t	n/a
510.577	0.089	1021154	keystroke_i	i	n/a
510.696	0.135	1021392	keystroke_c	c	n/a
510.891	0.09	1021782	keystroke_Key.enter	Key.enter	n/a
510.991	8.4375	1021982	prompt	n/a	spotlight pills jonathan conscious\n
511.731	0.105	1023462	keystroke_s	s	n/a
511.852	0.089	1023704	keystroke_p	p	n/a
512.061	0.09	1024122	keystroke_o	o	n/a
512.241	0.06	1024482	keystroke_t	t	n/a
512.332	0.074	1024664	keystroke_l	l	n/a
512.526	0.075	1025052	keystroke_i	i	n/a
512.616	0.061	1025232	keystroke_g	g	n/a
512.766	0.075	1025532	keystroke_h	h	n/a
512.856	0.076	1025712	keystroke_t	t	n/a
512.961	0.09	1025922	keystroke_Key.space	Key.space	n/a
513.456	0.06	1026912	keystroke_p	p	n/a
513.666	0.075	1027332	keystroke_i	i	n/a
513.906	0.09	1027812	keystroke_l	l	n/a
514.071	0.076	1028142	keystroke_l	l	n/a
514.147	0.104	1028294	keystroke_s	s	n/a
514.296	0.12	1028592	keystroke_Key.space	Key.space	n/a
515.061	0.075	1030122	keystroke_j	j	n/a
515.241	0.075	1030482	keystroke_o	o	n/a
515.436	0.075	1030872	keystroke_n	n	n/a
515.556	0.09	1031112	keystroke_a	a	n/a
515.841	0.061	1031682	keystroke_t	t	n/a
515.946	0.076	1031892	keystroke_h	h	n/a
516.082	0.09	1032164	keystroke_a	a	n/a
516.173	0.073	1032346	keystroke_n	n	n/a
516.336	0.12	1032672	keystroke_Key.space	Key.space	n/a
517.311	0.105	1034622	keystroke_c	c	n/a
517.386	0.106	1034772	keystroke_o	o	n/a
517.566	0.075	1035132	keystroke_n	n	n/a
517.701	0.076	1035402	keystroke_s	s	n/a
518.602	0.074	1037204	keystroke_c	c	n/a
518.692	0.059	1037384	keystroke_i	i	n/a
518.872	0.059	1037744	keystroke_o	o	n/a
519.052	0.074	1038104	keystroke_u	u	n/a
519.082	0.119	1038164	keystroke_s	s	n/a
519.351	0.075	1038702	keystroke_Key.enter	Key.enter	n/a
519.4335	7.8555	1038867	prompt	n/a	ghost fees defects his\n
520.2815	0.06	1040563	keystroke_g	g	n/a
520.4615	0.06	1040923	keystroke_h	h	n/a
520.6415	0.105	1041283	keystroke_o	o	n/a
520.7615	0.075	1041523	keystroke_s	s	n/a
520.9865	0.09	1041973	keystroke_Key.space	Key.space	n/a
521.3165	0.105	1042633	keystroke_Key.backspace	Key.backspace	n/a
521.4225	0.089	1042845	keystroke_t	t	n/a
521.5715	0.075	1043143	keystroke_Key.space	Key.space	n/a
521.7215	0.06	1043443	keystroke_g	g	n/a
521.7965	0.09	1043593	keystroke_e	e	n/a
522.1115	0.09	1044223	keystroke_Key.backspace	Key.backspace	n/a
522.2765	0.09	1044553	keystroke_Key.backspace	Key.backspace	n/a
522.3365	0.12	1044673	keystroke_f	f	n/a
522.6065	0.075	1045213	keystroke_e	e	n/a
522.8015	0.045	1045603	keystroke_e	e	n/a
523.0265	0.18	1046053	keystroke_s	s	n/a
524.1965	0.15	1048393	keystroke_Key.space	Key.space	n/a
524.5265	0.18	1049053	keystroke_d	d	n/a
524.8565	0.12	1049713	keystroke_e	e	n/a
525.2165	0.12	1050433	keystroke_f	f	n/a
525.3815	0.12	1050763	keystroke_e	e	n/a
525.7115	0.09	1051423	keystroke_c	c	n/a
525.9515	0.06	1051903	keystroke_t	t	n/a
526.1765	0.09	1052353	keystroke_s	s	n/a
526.3415	0.105	1052683	keystroke_Key.space	Key.space	n/a
526.6865	0.045	1053373	keystroke_h	h	n/a
526.8665	0.105	1053733	keystroke_i	i	n/a
526.9565	0.12	1053913	keystroke_s	s	n/a
527.1965	0.09	1054393	keystroke_Key.enter	Key.enter	n/a
527.2945	8.3045	1054589	prompt	n/a	admit browser legislature granted\n
528.0815	0.165	1056163	keystroke_a	a	n/a
528.2615	0.105	1056523	keystroke_d	d	n/a
529.3415	0.075	1058683	keystroke_m	m	n/a
529.4915	0.09	1058983	keystroke_i	i	n/a
529.5965	0.075	1059193	keystroke_t	t	n/a
529.6865	0.09	1059373	keystroke_Key.space	Key.space	n/a
529.9715	0.06	1059943	keystroke_b	b	n/a
530.1065	0.105	1060213	keystroke_r	r	n/a
530.2715	0.105	1060543	keystroke_o	o	n/a
530.4365	0.09	1060873	keystroke_w	w	n/a
530.7965	0.075	1061593	keystroke_s	s	n/a
531.0215	0.075	1062043	keystroke_e	e	n/a
531.2015	0.09	1062403	keystroke_r	r	n/a
531.3365	0.075	1062673	keystroke_Key.space	Key.space	n/a
531.5465	0.09	1063093	keystroke_l	l	n/a
531.6515	0.09	1063303	keystroke_e	e	n/a
531.8015	0.09	1063603	keystroke_g	g	n/a
531.9365	0.09	1063873	keystroke_i	i	n/a
532.0565	0.12	1064113	keystroke_s	s	n/a
532.1915	0.075	1064383	keystroke_t	t	n/a
532.9715	0.15	1065943	keystroke_Key.backspace	Key.backspace	n/a
533.0915	0.12	1066183	keystroke_l	l	n/a
533.2715	0.135	1066543	keystroke_a	a	n/a
533.4815	0.105	1066963	keystroke_t	t	n/a
533.6765	0.09	1067353	keystroke_u	u	n/a
533.7815	0.135	1067563	keystroke_r	r	n/a
533.9315	0.045	1067863	keystroke_e	e	n/a
534.0215	0.075	1068043	keystroke_Key.space	Key.space	n/a
534.3365	0.105	1068673	keystroke_g	g	n/a
534.4115	0.12	1068823	keystroke_r	r	n/a
534.6215	0.105	1069243	keystroke_a	a	n/a
534.7565	0.09	1069513	keystroke_n	n	n/a
535.1165	0.045	1070233	keystroke_t	t	n/a
535.2665	0.15	1070533	keystroke_e	e	n/a
535.3565	0.12	1070713	keystroke_d	d	n/a
535.5065	0.09	1071013	keystroke_Key.enter	Key.enter	n/a
535.605	9.339	1071210	prompt	n/a	guide shop clusters successfully\n
536.5715	0.075	1073143	keystroke_g	g	n/a
536.7665	0.105	1073533	keystroke_u	u	n/a
536.9465	0.12	1073893	keystroke_i	i	n/a
537.0215	0.165	1074043	keystroke_d	d	n/a
537.1565	0.12	1074313	keystroke_e	e	n/a
537.3365	0.12	1074673	keystroke_Key.space	Key.space	n/a
537.8015	0.09	1075603	keystroke_s	s	n/a
537.9065	0.09	1075813	keystroke_h	h	n/a
538.1465	0.09	1076293	keystroke_i	i	n/a
538.3715	0.06	1076743	keystroke_o	o	n/a
538.4915	0.135	1076983	keystroke_Key.space	Key.space	n/a
538.8215	0.015	1077643	keystroke_Key.backspace	Key.backspace	n/a
538.8815	0.105	1077763	keystroke_Key.backspace	Key.backspace	n/a
539.0615	0.15	1078123	keystroke_Key.backspace	Key.backspace	n/a
539.1515	0.105	1078303	keystroke_o	o	n/a
539.3615	0.09	1078723	keystroke_p	p	n/a
539.4815	0.105	1078963	keystroke_Key.space	Key.space	n/a
539.6615	0.12	1079323	keystroke_c	c	n/a
539.7665	0.075	1079533	keystroke_l	l	n/a
539.992	0.105	1079984	keystroke_u	u	n/a
540.112	0.075	1080224	keystroke_s	s	n/a
540.247	0.09	1080494	keystroke_t	t	n/a
540.397	0.12	1080794	keystroke_e	e	n/a
540.502	0.12	1081004	keystroke_r	r	n/a
540.697	0.135	1081394	keystroke_s	s	n/a
541.057	0.15	1082114	keystroke_Key.space	Key.space	n/a
541.867	0.105	1083734	keystroke_s	s	n/a
542.002	0.09	1084004	keystroke_u	u	n/a
542.362	0.09	1084724	keystroke_c	c	n/a
542.527	0.105	1085054	keystroke_c	c	n/a
542.677	0.09	1085354	keystroke_e	e	n/a
542.917	0.06	1085834	keystroke_s	s	n/a
543.067	0.075	1086134	keystroke_s	s	n/a
543.232	0.09	1086464	keystroke_f	f	n/a
543.323	0.074	1086646	keystroke_u	u	n/a
543.562	0.03	1087124	keystroke_k	k	n/a
543.697	0.105	1087394	keystroke_l	l	n/a
543.967	0.06	1087934	keystroke_Key.backspace	Key.backspace	n/a
544.132	0.09	1088264	keystroke_Key.backspace	Key.backspace	n/a
544.4015	0.075	1088803	keystroke_l	l	n/a
544.5365	0.105	1089073	keystroke_l	l	n/a
544.6565	0.09	1089313	keystroke_y	y	n/a
544.8665	0.075	1089733	keystroke_Key.enter	Key.enter	n/a
544.95	5.409	1089900	prompt	n/a	cooked onion our sized\n
