onset	duration	sample	value	key	prompt_text
12.893	0.123	25786	keystroke_j	j	n/a
12.9595	0.0905	25919	keystroke_o	o	n/a
13.062	0.112	26124	keystroke_s	s	n/a
13.0955	0.089	26191	keystroke_e	e	n/a
13.196	0.0895	26392	keystroke_p	p	n/a
13.219	0.112	26438	keystroke_h	h	n/a
13.297	0.068	26594	keystroke_z	z	n/a
13.489	0.056	26978	keystroke_Key.tab	Key.tab	n/a
13.8705	0.0915	27741	keystroke_Key.space	Key.space	n/a
14.1415	0.0665	28283	keystroke_Key.down	Key.down	n/a
14.276	0.067	28552	keystroke_Key.down	Key.down	n/a
14.557	0.0675	29114	keystroke_Key.space	Key.space	n/a
14.76	0.0895	29520	keystroke_Key.tab	Key.tab	n/a
15.3	0.18	30600	keystroke_Key.cmd	Key.cmd	n/a
15.3895	0.068	30779	keystroke_v	v	n/a
15.8175	0.0785	31635	keystroke_Key.tab	Key.tab	n/a
16.1785	0.0885	32357	keystroke_Key.tab	Key.tab	n/a
16.571	0.0695	33142	keystroke_Key.space	Key.space	n/a
24.5075	13.5195	49015	prompt	n/a	the quick brown fox jumps over a lazy dog\n
26.583	0.068	53166	keystroke_t	t	n/a
26.741	0.0785	53482	keystroke_h	h	n/a
26.865	0.113	53730	keystroke_e	e	n/a
26.955	0.112	53910	keystroke_Key.space	Key.space	n/a
27.034	0.0895	54068	keystroke_q	q	n/a
27.1795	0.1125	54359	keystroke_u	u	n/a
27.2585	0.0565	54517	keystroke_i	i	n/a
27.3375	0.0785	54675	keystroke_c	c	n/a
27.45	0.101	54900	keystroke_k	k	n/a
27.529	0.0785	55058	keystroke_Key.space	Key.space	n/a
27.6745	0.1015	55349	keystroke_b	b	n/a
28.5085	0.055	57017	keystroke_Key.backspace	Key.backspace	n/a
28.6425	0.0565	57285	keystroke_Key.backspace	Key.backspace	n/a
28.7665	0.0785	57533	keystroke_Key.backspace	Key.backspace	n/a
28.912	0.068	57824	keystroke_c	c	n/a
29.0025	0.101	58005	keystroke_k	k	n/a
29.1145	0.079	58229	keystroke_Key.space	Key.space	n/a
29.9135	0.079	59827	keystroke_b	b	n/a
30.1045	0.0695	60209	keystroke_r	r	n/a
30.285	0.1345	60570	keystroke_o	o	n/a
30.7685	0.045	61537	keystroke_Key.backspace	Key.backspace	n/a
30.8925	0.0565	61785	keystroke_Key.backspace	Key.backspace	n/a
31.0045	0.069	62009	keystroke_Key.backspace	Key.backspace	n/a
31.95	0.0675	63900	keystroke_b	b	n/a
32.152	0.0565	64304	keystroke_r	r	n/a
32.4225	0.0785	64845	keystroke_o	o	n/a
32.6025	0.0785	65205	keystroke_w	w	n/a
32.749	0.0915	65498	keystroke_n	n	n/a
32.985	0.0785	65970	keystroke_Key.space	Key.space	n/a
33.255	0.0675	66510	keystroke_f	f	n/a
33.345	0.0785	66690	keystroke_o	o	n/a
33.435	0.0565	66870	keystroke_x	x	n/a
33.626	0.0785	67252	keystroke_Key.space	Key.space	n/a
33.762	0.0785	67524	keystroke_j	j	n/a
33.9525	0.067	67905	keystroke_u	u	n/a
34.1325	0.112	68265	keystroke_m	m	n/a
34.1995	0.1015	68399	keystroke_p	p	n/a
34.335	0.0785	68670	keystroke_s	s	n/a
34.5265	0.0895	69053	keystroke_Key.space	Key.space	n/a
35.8535	0.0455	71707	keystroke_o	o	n/a
35.9445	0.0895	71889	keystroke_v	v	n/a
36.112	0.113	72224	keystroke_e	e	n/a
36.169	0.09	72338	keystroke_r	r	n/a
36.3265	0.078	72653	keystroke_Key.space	Key.space	n/a
36.484	0.09	72968	keystroke_a	a	n/a
36.63	0.0785	73260	keystroke_Key.space	Key.space	n/a
36.7645	0.09	73529	keystroke_l	l	n/a
36.8435	0.079	73687	keystroke_a	a	n/a
37.012	0.068	74024	keystroke_z	z	n/a
37.114	0.0895	74228	keystroke_y	y	n/a
37.215	0.09	74430	keystroke_Key.space	Key.space	n/a
37.3285	0.0795	74657	keystroke_d	d	n/a
37.417	0.0795	74834	keystroke_o	o	n/a
37.519	0.067	75038	keystroke_g	g	n/a
37.9575	0.067	75915	keystroke_Key.enter	Key.enter	n/a
38.033	8.4755	76066	prompt	n/a	design complete iowa shirts\n
38.6995	0.0455	77399	keystroke_d	d	n/a
38.9025	0.0565	77805	keystroke_e	e	n/a
39.0595	0.057	78119	keystroke_s	s	n/a
39.1735	0.067	78347	keystroke_i	i	n/a
39.24	0.0785	78480	keystroke_g	g	n/a
39.364	0.0895	78728	keystroke_n	n	n/a
39.4085	0.0905	78817	keystroke_Key.space	Key.space	n/a
39.6	0.101	79200	keystroke_c	c	n/a
39.724	0.146	79448	keystroke_o	o	n/a
39.814	0.1905	79628	keystroke_m	m	n/a
39.971	0.136	79942	keystroke_p	p	n/a
40.2075	0.0675	80415	keystroke_l	l	n/a
40.3195	0.136	80639	keystroke_e	e	n/a
40.4665	0.0895	80933	keystroke_t	t	n/a
40.5455	0.1115	81091	keystroke_e	e	n/a
40.702	0.1015	81404	keystroke_Key.space	Key.space	n/a
41.896	0.089	83792	keystroke_i	i	n/a
42.48	0.0895	84960	keystroke_o	o	n/a
42.6035	0.0675	85207	keystroke_w	w	n/a
42.986	0.0905	85972	keystroke_a	a	n/a
43.1995	0.079	86399	keystroke_Key.space	Key.space	n/a
44.0215	0.0785	88043	keystroke_s	s	n/a
44.1675	0.1015	88335	keystroke_h	h	n/a
44.2125	0.0905	88425	keystroke_i	i	n/a
44.3365	0.0675	88673	keystroke_r	r	n/a
44.5285	0.055	89057	keystroke_t	t	n/a
45.5735	0.068	91147	keystroke_s	s	n/a
45.72	0.101	91440	keystroke_Key.space	Key.space	n/a
46.114	0.0565	92228	keystroke_Key.backspace	Key.backspace	n/a
46.44	0.0675	92880	keystroke_Key.enter	Key.enter	n/a
46.5145	7.105	93029	prompt	n/a	closing graduate searched stanley\n
47.7115	0.0785	95423	keystroke_c	c	n/a
47.801	0.0905	95602	keystroke_l	l	n/a
48.0265	0.0785	96053	keystroke_o	o	n/a
48.1405	0.0775	96281	keystroke_s	s	n/a
48.2625	0.1575	96525	keystroke_i	i	n/a
48.375	0.101	96750	keystroke_n	n	n/a
48.4535	0.125	96907	keystroke_g	g	n/a
48.769	0.0115	97538	keystroke_Key.space	Key.space	n/a
49.962	0.079	99924	keystroke_g	g	n/a
50.1415	0.09	100283	keystroke_r	r	n/a
50.22	0.079	100440	keystroke_a	a	n/a
50.434	0.0785	100868	keystroke_d	d	n/a
50.7155	0.0895	101431	keystroke_u	u	n/a
50.816	0.0565	101632	keystroke_a	a	n/a
51.0305	0.112	102061	keystroke_t	t	n/a
51.1655	0.1135	102331	keystroke_e	e	n/a
51.255	0.079	102510	keystroke_Key.space	Key.space	n/a
51.401	0.079	102802	keystroke_s	s	n/a
51.5475	0.1015	103095	keystroke_e	e	n/a
51.66	0.114	103320	keystroke_a	a	n/a
51.739	0.0675	103478	keystroke_r	r	n/a
51.919	0.0895	103838	keystroke_c	c	n/a
52.02	0.138	104040	keystroke_h	h	n/a
52.189	0.112	104378	keystroke_i	i	n/a
52.2675	0.1015	104535	keystroke_n	n	n/a
52.324	0.09	104648	keystroke_g	g	n/a
52.38	0.079	104760	keystroke_Key.space	Key.space	n/a
52.504	0.1465	105008	keystroke_s	s	n/a
52.616	0.102	105232	keystroke_t	t	n/a
52.7515	0.0895	105503	keystroke_a	a	n/a
52.875	0.1015	105750	keystroke_n	n	n/a
53.045	0.078	106090	keystroke_l	l	n/a
53.1565	0.068	106313	keystroke_e	e	n/a
53.269	0.079	106538	keystroke_y	y	n/a
53.539	0.079	107078	keystroke_Key.enter	Key.enter	n/a
53.6275	6.2235	107255	prompt	n/a	indians brazilian force spatial\n
54.259	0.101	108518	keystroke_i	i	n/a
54.3265	0.102	108653	keystroke_n	n	n/a
54.4505	0.0675	108901	keystroke_d	d	n/a
54.552	0.0785	109104	keystroke_i	i	n/a
54.6635	0.0565	109327	keystroke_a	a	n/a
54.765	0.0915	109530	keystroke_n	n	n/a
54.8665	0.09	109733	keystroke_s	s	n/a
54.979	0.079	109958	keystroke_Key.space	Key.space	n/a
55.1135	0.0565	110227	keystroke_b	b	n/a
55.2825	0.09	110565	keystroke_r	r	n/a
55.35	0.0785	110700	keystroke_a	a	n/a
55.53	0.0785	111060	keystroke_z	z	n/a
55.8005	0.1795	111601	keystroke_i	i	n/a
56.0475	0.158	112095	keystroke_l	l	n/a
56.25	0.1125	112500	keystroke_i	i	n/a
56.419	0.0895	112838	keystroke_a	a	n/a
56.5435	0.1115	113087	keystroke_n	n	n/a
56.7335	0.09	113467	keystroke_Key.space	Key.space	n/a
56.903	0.0895	113806	keystroke_f	f	n/a
57.004	0.0785	114008	keystroke_o	o	n/a
57.0935	0.068	114187	keystroke_r	r	n/a
57.296	0.079	114592	keystroke_c	c	n/a
57.454	0.091	114908	keystroke_e	e	n/a
57.533	0.0675	115066	keystroke_Key.space	Key.space	n/a
57.6455	0.101	115291	keystroke_s	s	n/a
57.8025	0.101	115605	keystroke_p	p	n/a
57.881	0.0905	115762	keystroke_a	a	n/a
58.016	0.0905	116032	keystroke_t	t	n/a
58.129	0.079	116258	keystroke_i	i	n/a
58.2305	0.0895	116461	keystroke_a	a	n/a
58.3315	0.0925	116663	keystroke_l	l	n/a
59.7935	0.0565	119587	keystroke_Key.enter	Key.enter	n/a
59.8565	7.3525	119713	prompt	n/a	smithsonian representation mathematical environmental\n
60.6935	0.09	121387	keystroke_s	s	n/a
60.919	0.157	121838	keystroke_m	m	n/a
61.031	0.1125	122062	keystroke_i	i	n/a
61.1905	0.055	122381	keystroke_t	t	n/a
61.29	0.113	122580	keystroke_h	h	n/a
61.414	0.079	122828	keystroke_s	s	n/a
61.5265	0.1015	123053	keystroke_o	o	n/a
61.684	0.135	123368	keystroke_n	n	n/a
61.785	0.09	123570	keystroke_i	i	n/a
61.9085	0.079	123817	keystroke_a	a	n/a
62.024	0.0995	124048	keystroke_n	n	n/a
62.112	0.089	124224	keystroke_Key.space	Key.space	n/a
62.246	0.124	124492	keystroke_r	r	n/a
62.314	0.0895	124628	keystroke_e	e	n/a
62.471	0.1015	124942	keystroke_p	p	n/a
62.606	0.124	125212	keystroke_r	r	n/a
62.6965	0.112	125393	keystroke_e	e	n/a
62.843	0.1135	125686	keystroke_s	s	n/a
62.9105	0.0895	125821	keystroke_e	e	n/a
63.0575	0.1005	126115	keystroke_n	n	n/a
63.1465	0.09	126293	keystroke_t	t	n/a
63.248	0.112	126496	keystroke_a	a	n/a
63.3265	0.0785	126653	keystroke_t	t	n/a
63.428	0.1915	126856	keystroke_i	i	n/a
63.5065	0.146	127013	keystroke_o	o	n/a
63.608	0.112	127216	keystroke_n	n	n/a
63.6865	0.101	127373	keystroke_Key.space	Key.space	n/a
63.857	0.1105	127714	keystroke_m	m	n/a
63.9565	0.1235	127913	keystroke_a	a	n/a
64.069	0.09	128138	keystroke_t	t	n/a
64.1925	0.09	128385	keystroke_h	h	n/a
64.339	0.135	128678	keystroke_e	e	n/a
64.474	0.101	128948	keystroke_m	m	n/a
64.586	0.0795	129172	keystroke_a	a	n/a
64.6315	0.092	129263	keystroke_t	t	n/a
64.7785	0.079	129557	keystroke_i	i	n/a
64.8675	0.1125	129735	keystroke_c	c	n/a
64.946	0.1015	129892	keystroke_a	a	n/a
65.0585	0.079	130117	keystroke_l	l	n/a
65.16	0.09	130320	keystroke_Key.space	Key.space	n/a
65.3065	0.0785	130613	keystroke_e	e	n/a
65.4075	0.101	130815	keystroke_n	n	n/a
65.531	0.079	131062	keystroke_v	v	n/a
65.5985	0.08	131197	keystroke_i	i	n/a
65.734	0.0785	131468	keystroke_r	r	n/a
65.801	0.1015	131602	keystroke_o	o	n/a
65.891	0.0905	131782	keystroke_n	n	n/a
66.128	0.1005	132256	keystroke_m	m	n/a
66.2515	0.067	132503	keystroke_e	e	n/a
66.375	0.1015	132750	keystroke_n	n	n/a
66.488	0.1125	132976	keystroke_t	t	n/a
66.623	0.1125	133246	keystroke_a	a	n/a
66.7465	0.0895	133493	keystroke_l	l	n/a
67.118	0.09	134236	keystroke_Key.enter	Key.enter	n/a
67.2145	7.7005	134429	prompt	n/a	theater thread organizer sponsor\n
68.074	0.0895	136148	keystroke_t	t	n/a
68.231	0.079	136462	keystroke_h	h	n/a
68.345	0.1005	136690	keystroke_e	e	n/a
68.434	0.124	136868	keystroke_a	a	n/a
68.5465	0.101	137093	keystroke_t	t	n/a
68.9175	0.113	137835	keystroke_e	e	n/a
69.1655	0.101	138331	keystroke_r	r	n/a
69.3675	0.0785	138735	keystroke_Key.space	Key.space	n/a
69.8745	0.078	139749	keystroke_t	t	n/a
70.031	0.1015	140062	keystroke_h	h	n/a
70.148	0.0755	140296	keystroke_e	e	n/a
70.2785	0.113	140557	keystroke_a	a	n/a
70.6285	0.0665	141257	keystroke_Key.backspace	Key.backspace	n/a
70.931	0.0345	141862	keystroke_Key.backspace	Key.backspace	n/a
71.057	0.144	142114	keystroke_r	r	n/a
71.1565	0.0895	142313	keystroke_e	e	n/a
71.2235	0.124	142447	keystroke_a	a	n/a
71.325	0.1125	142650	keystroke_d	d	n/a
71.471	0.079	142942	keystroke_Key.space	Key.space	n/a
71.6285	0.068	143257	keystroke_o	o	n/a
71.73	0.0675	143460	keystroke_r	r	n/a
71.899	0.101	143798	keystroke_g	g	n/a
71.9905	0.1105	143981	keystroke_a	a	n/a
72.1575	0.1015	144315	keystroke_n	n	n/a
72.214	0.0895	144428	keystroke_i	i	n/a
72.3155	0.1005	144631	keystroke_z	z	n/a
72.5405	0.1005	145081	keystroke_e	e	n/a
72.596	0.09	145192	keystroke_r	r	n/a
72.9675	0.1125	145935	keystroke_Key.space	Key.space	n/a
73.1365	0.0785	146273	keystroke_s	s	n/a
73.2825	0.1235	146565	keystroke_p	p	n/a
73.3615	0.1575	146723	keystroke_o	o	n/a
73.4855	0.123	146971	keystroke_n	n	n/a
73.5975	0.079	147195	keystroke_s	s	n/a
73.7235	0.0765	147447	keystroke_o	o	n/a
73.834	0.0785	147668	keystroke_r	r	n/a
74.1825	0.0675	148365	keystroke_s	s	n/a
74.5425	0.0675	149085	keystroke_Key.backspace	Key.backspace	n/a
74.8575	0.0565	149715	keystroke_Key.enter	Key.enter	n/a
74.9225	4.7515	149845	prompt	n/a	hired saturn public howdy\n
75.5785	0.1225	151157	keystroke_h	h	n/a
75.656	0.0905	151312	keystroke_i	i	n/a
75.8135	0.0795	151627	keystroke_r	r	n/a
76.084	0.0675	152168	keystroke_e	e	n/a
76.286	0.057	152572	keystroke_d	d	n/a
76.4435	0.102	152887	keystroke_Key.space	Key.space	n/a
76.6915	0.09	153383	keystroke_s	s	n/a
76.8825	0.1015	153765	keystroke_a	a	n/a
76.995	0.09	153990	keystroke_t	t	n/a
77.1525	0.102	154305	keystroke_u	u	n/a
77.243	0.08	154486	keystroke_r	r	n/a
77.389	0.1015	154778	keystroke_n	n	n/a
77.5125	0.079	155025	keystroke_Key.space	Key.space	n/a
77.7035	0.1355	155407	keystroke_p	p	n/a
77.7825	0.113	155565	keystroke_u	u	n/a
77.918	0.09	155836	keystroke_b	b	n/a
78.0305	0.123	156061	keystroke_l	l	n/a
78.1085	0.0905	156217	keystroke_i	i	n/a
78.188	0.091	156376	keystroke_c	c	n/a
78.3115	0.0785	156623	keystroke_Key.space	Key.space	n/a
78.4575	0.124	156915	keystroke_h	h	n/a
78.5585	0.068	157117	keystroke_o	o	n/a
78.649	0.0795	157298	keystroke_w	w	n/a
78.829	0.056	157658	keystroke_d	d	n/a
79.179	0.0885	158358	keystroke_y	y	n/a
79.605	0.0675	159210	keystroke_Key.enter	Key.enter	n/a
79.68	3.7705	159360	prompt	n/a	eating boots craig mass\n
80.201	0.09	160402	keystroke_e	e	n/a
80.3135	0.1245	160627	keystroke_a	a	n/a
80.4035	0.09	160807	keystroke_t	t	n/a
80.5725	0.09	161145	keystroke_i	i	n/a
80.618	0.112	161236	keystroke_n	n	n/a
80.6965	0.0785	161393	keystroke_g	g	n/a
80.741	0.1015	161482	keystroke_Key.space	Key.space	n/a
81.0115	0.011	162023	keystroke_b	b	n/a
81.0785	0.045	162157	keystroke_o	o	n/a
81.2255	0.056	162451	keystroke_o	o	n/a
81.3155	0.056	162631	keystroke_t	t	n/a
81.4725	0.101	162945	keystroke_s	s	n/a
81.551	0.1015	163102	keystroke_Key.space	Key.space	n/a
81.9335	0.0795	163867	keystroke_c	c	n/a
82.1255	0.0895	164251	keystroke_r	r	n/a
82.226	0.1025	164452	keystroke_a	a	n/a
82.395	0.068	164790	keystroke_i	i	n/a
82.497	0.078	164994	keystroke_g	g	n/a
82.62	0.079	165240	keystroke_Key.space	Key.space	n/a
82.779	0.1015	165558	keystroke_m	m	n/a
82.891	0.0565	165782	keystroke_a	a	n/a
83.048	0.0785	166096	keystroke_s	s	n/a
83.205	0.068	166410	keystroke_s	s	n/a
83.386	0.0625	166772	keystroke_Key.enter	Key.enter	n/a
83.4615	4.6635	166923	prompt	n/a	heath reporter airlines rainbow\n
84.197	0.093	168394	keystroke_h	h	n/a
84.29	0.1015	168580	keystroke_e	e	n/a
84.3735	0.103	168747	keystroke_a	a	n/a
84.4765	0.0835	168953	keystroke_l	l	n/a
84.61	0.0715	169220	keystroke_t	t	n/a
84.7195	0.095	169439	keystroke_h	h	n/a
84.833	0.099	169666	keystroke_Key.space	Key.space	n/a
85.0285	0.149	170057	keystroke_r	r	n/a
85.1195	0.103	170239	keystroke_e	e	n/a
85.309	0.116	170618	keystroke_p	p	n/a
85.3825	0.098	170765	keystroke_o	o	n/a
85.522	0.0695	171044	keystroke_r	r	n/a
85.68	0.098	171360	keystroke_t	t	n/a
85.829	0.1215	171658	keystroke_e	e	n/a
85.896	0.1115	171792	keystroke_r	r	n/a
85.9735	0.089	171947	keystroke_Key.space	Key.space	n/a
86.0965	0.1015	172193	keystroke_a	a	n/a
86.2425	0.085	172485	keystroke_i	i	n/a
86.333	0.092	172666	keystroke_r	r	n/a
86.4905	0.135	172981	keystroke_l	l	n/a
86.5695	0.1345	173139	keystroke_i	i	n/a
86.6485	0.126	173297	keystroke_n	n	n/a
86.7495	0.1465	173499	keystroke_e	e	n/a
86.8505	0.1125	173701	keystroke_s	s	n/a
86.9515	0.13	173903	keystroke_Key.space	Key.space	n/a
87.0865	0.1065	174173	keystroke_r	r	n/a
87.177	0.0815	174354	keystroke_a	a	n/a
87.347	0.0995	174694	keystroke_i	i	n/a
87.4015	0.125	174803	keystroke_n	n	n/a
87.5265	0.089	175053	keystroke_b	b	n/a
87.649	0.1015	175298	keystroke_o	o	n/a
87.7625	0.0795	175525	keystroke_w	w	n/a
88.065	0.059	176130	keystroke_Key.enter	Key.enter	n/a
88.131	4.863	176262	prompt	n/a	lights study duties replied\n
88.6725	0.1125	177345	keystroke_l	l	n/a
88.751	0.1015	177502	keystroke_i	i	n/a
88.886	0.0905	177772	keystroke_g	g	n/a
88.9655	0.091	177931	keystroke_h	h	n/a
89.0665	0.0675	178133	keystroke_t	t	n/a
89.2235	0.1015	178447	keystroke_s	s	n/a
89.291	0.0795	178582	keystroke_Key.space	Key.space	n/a
89.4825	0.1015	178965	keystroke_s	s	n/a
89.5615	0.09	179123	keystroke_t	t	n/a
89.7075	0.0785	179415	keystroke_u	u	n/a
89.8085	0.1015	179617	keystroke_d	d	n/a
89.9325	0.0905	179865	keystroke_y	y	n/a
90.034	0.0785	180068	keystroke_Key.space	Key.space	n/a
90.349	0.0795	180698	keystroke_d	d	n/a
90.5595	0.0705	181119	keystroke_u	u	n/a
90.799	0.0795	181598	keystroke_t	t	n/a
91.0235	0.0795	182047	keystroke_i	i	n/a
91.226	0.113	182452	keystroke_e	e	n/a
91.418	0.095	182836	keystroke_s	s	n/a
91.62	0.079	183240	keystroke_Key.space	Key.space	n/a
91.845	0.146	183690	keystroke_r	r	n/a
91.9575	0.1015	183915	keystroke_e	e	n/a
92.1035	0.1015	184207	keystroke_p	p	n/a
92.171	0.147	184342	keystroke_l	l	n/a
92.2615	0.1015	184523	keystroke_i	i	n/a
92.374	0.0785	184748	keystroke_e	e	n/a
92.657	0.077	185314	keystroke_d	d	n/a
92.9365	0.0565	185873	keystroke_Key.enter	Key.enter	n/a
93.0005	4.0995	186001	prompt	n/a	pushing zone incredible newest\n
93.59	0.1	187180	keystroke_p	p	n/a
93.6565	0.079	187313	keystroke_u	u	n/a
93.735	0.09	187470	keystroke_s	s	n/a
93.8815	0.1235	187763	keystroke_h	h	n/a
94.016	0.1355	188032	keystroke_i	i	n/a
94.1065	0.1015	188213	keystroke_n	n	n/a
94.1855	0.078	188371	keystroke_g	g	n/a
94.2305	0.0895	188461	keystroke_Key.space	Key.space	n/a
94.376	0.09	188752	keystroke_z	z	n/a
94.4895	0.112	188979	keystroke_o	o	n/a
94.59	0.113	189180	keystroke_n	n	n/a
94.6915	0.1015	189383	keystroke_e	e	n/a
94.7705	0.0895	189541	keystroke_Key.space	Key.space	n/a
95.0285	0.09	190057	keystroke_i	i	n/a
95.085	0.09	190170	keystroke_n	n	n/a
95.1635	0.093	190327	keystroke_c	c	n/a
95.3665	0.112	190733	keystroke_r	r	n/a
95.434	0.0895	190868	keystroke_e	e	n/a
95.5915	0.0895	191183	keystroke_d	d	n/a
95.7155	0.067	191431	keystroke_i	i	n/a
95.805	0.079	191610	keystroke_b	b	n/a
95.906	0.091	191812	keystroke_l	l	n/a
95.997	0.089	191994	keystroke_e	e	n/a
96.0635	0.079	192127	keystroke_Key.space	Key.space	n/a
96.1655	0.1005	192331	keystroke_n	n	n/a
96.257	0.133	192514	keystroke_e	e	n/a
96.356	0.124	192712	keystroke_w	w	n/a
96.5135	0.158	193027	keystroke_e	e	n/a
96.705	0.1235	193410	keystroke_s	s	n/a
96.7955	0.1005	193591	keystroke_t	t	n/a
97.02	0.079	194040	keystroke_Key.enter	Key.enter	n/a
97.1055	5.125	194211	prompt	n/a	deaf informal reservation critical\n
97.65	0.0905	195300	keystroke_d	d	n/a
97.808	0.123	195616	keystroke_e	e	n/a
97.875	0.137	195750	keystroke_a	a	n/a
97.9655	0.113	195931	keystroke_f	f	n/a
98.112	0.1005	196224	keystroke_Key.space	Key.space	n/a
98.4715	0.124	196943	keystroke_i	i	n/a
98.5615	0.1015	197123	keystroke_n	n	n/a
98.674	0.101	197348	keystroke_f	f	n/a
98.764	0.101	197528	keystroke_o	o	n/a
98.876	0.0905	197752	keystroke_r	r	n/a
98.979	0.1	197958	keystroke_m	m	n/a
99.09	0.068	198180	keystroke_a	a	n/a
99.1805	0.078	198361	keystroke_l	l	n/a
99.3045	0.078	198609	keystroke_Key.space	Key.space	n/a
99.6525	0.1125	199305	keystroke_r	r	n/a
99.776	0.0905	199552	keystroke_e	e	n/a
99.8785	0.134	199757	keystroke_s	s	n/a
99.9675	0.135	199935	keystroke_e	e	n/a
100.0805	0.0895	200161	keystroke_r	r	n/a
100.2715	0.09	200543	keystroke_v	v	n/a
100.384	0.101	200768	keystroke_a	a	n/a
100.474	0.0785	200948	keystroke_t	t	n/a
100.586	0.137	201172	keystroke_i	i	n/a
100.6425	0.1235	201285	keystroke_o	o	n/a
100.7325	0.1125	201465	keystroke_n	n	n/a
100.79	0.1	201580	keystroke_Key.space	Key.space	n/a
100.969	0.1015	201938	keystroke_c	c	n/a
101.16	0.0725	202320	keystroke_r	r	n/a
101.2515	0.0905	202503	keystroke_i	i	n/a
101.38	0.0725	202760	keystroke_t	t	n/a
101.509	0.081	203018	keystroke_i	i	n/a
101.5825	0.1075	203165	keystroke_c	c	n/a
101.661	0.0855	203322	keystroke_a	a	n/a
101.8045	0.11	203609	keystroke_l	l	n/a
102.165	0.0645	204330	keystroke_Key.enter	Key.enter	n/a
102.242	4.4435	204484	prompt	n/a	hash delhi males hotels\n
102.916	0.0795	205832	keystroke_h	h	n/a
103.0055	0.113	206011	keystroke_a	a	n/a
103.1065	0.0905	206213	keystroke_s	s	n/a
103.242	0.078	206484	keystroke_h	h	n/a
103.3325	0.0665	206665	keystroke_Key.space	Key.space	n/a
103.479	0.0775	206958	keystroke_d	d	n/a
103.6245	0.0785	207249	keystroke_e	e	n/a
103.737	0.09	207474	keystroke_l	l	n/a
103.9285	0.1235	207857	keystroke_h	h	n/a
104.018	0.079	208036	keystroke_i	i	n/a
104.153	0.0785	208306	keystroke_Key.space	Key.space	n/a
104.3455	0.1005	208691	keystroke_m	m	n/a
104.423	0.101	208846	keystroke_a	a	n/a
104.547	0.0785	209094	keystroke_l	l	n/a
104.648	0.1235	209296	keystroke_e	e	n/a
104.7385	0.1235	209477	keystroke_s	s	n/a
104.8505	0.0785	209701	keystroke_Key.space	Key.space	n/a
104.986	0.123	209972	keystroke_h	h	n/a
105.0755	0.1015	210151	keystroke_o	o	n/a
105.1915	0.075	210383	keystroke_t	t	n/a
105.29	0.101	210580	keystroke_e	e	n/a
105.4355	0.1015	210871	keystroke_l	l	n/a
105.548	0.079	211096	keystroke_s	s	n/a
106.5715	0.1125	213143	keystroke_Key.enter	Key.enter	n/a
106.6925	4.6045	213385	prompt	n/a	restored visited harper young\n
107.3025	0.113	214605	keystroke_r	r	n/a
107.359	0.147	214718	keystroke_e	e	n/a
107.496	0.1105	214992	keystroke_s	s	n/a
107.663	0.1125	215326	keystroke_t	t	n/a
107.809	0.09	215618	keystroke_o	o	n/a
107.8995	0.1235	215799	keystroke_r	r	n/a
107.979	0.101	215958	keystroke_e	e	n/a
108.158	0.09	216316	keystroke_d	d	n/a
108.2365	0.103	216473	keystroke_Key.space	Key.space	n/a
108.4615	0.0905	216923	keystroke_v	v	n/a
108.5855	0.0785	217171	keystroke_i	i	n/a
108.6865	0.069	217373	keystroke_s	s	n/a
108.833	0.079	217666	keystroke_i	i	n/a
108.9005	0.0895	217801	keystroke_t	t	n/a
109.0575	0.0565	218115	keystroke_e	e	n/a
109.2155	0.0795	218431	keystroke_d	d	n/a
109.2715	0.079	218543	keystroke_Key.space	Key.space	n/a
109.396	0.089	218792	keystroke_h	h	n/a
109.474	0.112	218948	keystroke_a	a	n/a
109.575	0.081	219150	keystroke_r	r	n/a
109.7325	0.113	219465	keystroke_p	p	n/a
109.9125	0.1355	219825	keystroke_e	e	n/a
109.9805	0.1125	219961	keystroke_r	r	n/a
110.1155	0.0795	220231	keystroke_Key.space	Key.space	n/a
110.318	0.0785	220636	keystroke_y	y	n/a
110.464	0.125	220928	keystroke_o	o	n/a
110.5535	0.0915	221107	keystroke_u	u	n/a
110.745	0.1015	221490	keystroke_n	n	n/a
110.903	0.067	221806	keystroke_g	g	n/a
111.2405	0.0555	222481	keystroke_Key.enter	Key.enter	n/a
111.303	4.1125	222606	prompt	n/a	winning soap crash yards\n
112.0055	0.0565	224011	keystroke_w	w	n/a
112.073	0.124	224146	keystroke_i	i	n/a
112.1405	0.1015	224281	keystroke_n	n	n/a
112.3315	0.0915	224663	keystroke_n	n	n/a
112.423	0.156	224846	keystroke_i	i	n/a
112.5455	0.101	225091	keystroke_n	n	n/a
112.6125	0.0795	225225	keystroke_g	g	n/a
112.669	0.079	225338	keystroke_Key.space	Key.space	n/a
112.8045	0.09	225609	keystroke_s	s	n/a
112.929	0.0775	225858	keystroke_o	o	n/a
112.995	0.0905	225990	keystroke_a	a	n/a
113.198	0.1015	226396	keystroke_p	p	n/a
113.379	0.089	226758	keystroke_Key.space	Key.space	n/a
113.907	0.067	227814	keystroke_c	c	n/a
114.098	0.0675	228196	keystroke_r	r	n/a
114.1895	0.1105	228379	keystroke_a	a	n/a
114.2895	0.078	228579	keystroke_s	s	n/a
114.424	0.09	228848	keystroke_h	h	n/a
114.5255	0.09	229051	keystroke_Key.space	Key.space	n/a
114.6825	0.08	229365	keystroke_y	y	n/a
114.7395	0.112	229479	keystroke_a	a	n/a
114.84	0.08	229680	keystroke_r	r	n/a
115.0225	0.1105	230045	keystroke_d	d	n/a
115.09	0.1005	230180	keystroke_s	s	n/a
115.3695	0.0445	230739	keystroke_Key.enter	Key.enter	n/a
115.4225	3.3245	230845	prompt	n/a	dinner at solo fail\n
115.9905	0.0765	231981	keystroke_d	d	n/a
116.1	0.1125	232200	keystroke_i	i	n/a
116.19	0.0905	232380	keystroke_n	n	n/a
116.348	0.079	232696	keystroke_n	n	n/a
116.449	0.124	232898	keystroke_e	e	n/a
116.529	0.1115	233058	keystroke_r	r	n/a
116.618	0.09	233236	keystroke_Key.space	Key.space	n/a
116.7305	0.135	233461	keystroke_a	a	n/a
116.8315	0.147	233663	keystroke_t	t	n/a
116.966	0.0795	233932	keystroke_Key.space	Key.space	n/a
117.1465	0.0675	234293	keystroke_s	s	n/a
117.248	0.0675	234496	keystroke_o	o	n/a
117.529	0.056	235058	keystroke_l	l	n/a
117.6755	0.0675	235351	keystroke_o	o	n/a
117.812	0.0885	235624	keystroke_Key.space	Key.space	n/a
118.024	0.0785	236048	keystroke_f	f	n/a
118.148	0.0905	236296	keystroke_a	a	n/a
118.2495	0.135	236499	keystroke_i	i	n/a
118.329	0.1115	236658	keystroke_l	l	n/a
118.699	0.0465	237398	keystroke_Key.enter	Key.enter	n/a
118.753	7.7435	237506	prompt	n/a	salaries advice serving thomson\n
119.543	0.069	239086	keystroke_s	s	n/a
119.712	0.089	239424	keystroke_a	a	n/a
119.847	0.0785	239694	keystroke_l	l	n/a
119.9365	0.0785	239873	keystroke_a	a	n/a
120.129	0.089	240258	keystroke_r	r	n/a
120.2515	0.079	240503	keystroke_i	i	n/a
120.3415	0.124	240683	keystroke_e	e	n/a
120.42	0.1025	240840	keystroke_s	s	n/a
120.533	0.0895	241066	keystroke_Key.space	Key.space	n/a
120.679	0.1015	241358	keystroke_a	a	n/a
120.7575	0.1015	241515	keystroke_d	d	n/a
120.949	0.113	241898	keystroke_v	v	n/a
121.1855	0.067	242371	keystroke_i	i	n/a
121.2975	0.079	242595	keystroke_c	c	n/a
121.489	0.056	242978	keystroke_e	e	n/a
121.9165	0.067	243833	keystroke_Key.space	Key.space	n/a
122.6925	0.0675	245385	keystroke_s	s	n/a
123.673	0.0995	247346	keystroke_e	e	n/a
123.93	0.09	247860	keystroke_r	r	n/a
124.223	0.067	248446	keystroke_v	v	n/a
124.3465	0.1345	248693	keystroke_i	i	n/a
124.4925	0.1155	248985	keystroke_n	n	n/a
124.6285	0.1005	249257	keystroke_g	g	n/a
124.718	0.09	249436	keystroke_Key.space	Key.space	n/a
124.977	0.0785	249954	keystroke_t	t	n/a
125.1	0.1355	250200	keystroke_h	h	n/a
125.269	0.1235	250538	keystroke_o	o	n/a
125.37	0.1125	250740	keystroke_m	m	n/a
125.506	0.0895	251012	keystroke_s	s	n/a
125.6515	0.112	251303	keystroke_o	o	n/a
125.741	0.124	251482	keystroke_n	n	n/a
126.4285	0.067	252857	keystroke_Key.enter	Key.enter	n/a
126.502	6.1145	253004	prompt	n/a	beneath atomic incidents indirect\n
127.114	0.045	254228	keystroke_b	b	n/a
127.2265	0.0795	254453	keystroke_e	e	n/a
127.362	0.101	254724	keystroke_n	n	n/a
127.4965	0.101	254993	keystroke_e	e	n/a
127.5865	0.135	255173	keystroke_a	a	n/a
127.71	0.09	255420	keystroke_t	t	n/a
127.8675	0.102	255735	keystroke_h	h	n/a
128.0365	0.079	256073	keystroke_Key.space	Key.space	n/a
128.374	0.0895	256748	keystroke_a	a	n/a
128.5885	0.067	257177	keystroke_t	t	n/a
128.779	0.1575	257558	keystroke_o	o	n/a
128.914	0.158	257828	keystroke_m	m	n/a
129.0825	0.0795	258165	keystroke_i	i	n/a
129.218	0.056	258436	keystroke_c	c	n/a
129.3865	0.0785	258773	keystroke_Key.space	Key.space	n/a
129.634	0.1575	259268	keystroke_i	i	n/a
129.769	0.09	259538	keystroke_n	n	n/a
129.872	0.101	259744	keystroke_c	c	n/a
129.9825	0.0905	259965	keystroke_i	i	n/a
130.118	0.056	260236	keystroke_d	d	n/a
130.264	0.0785	260528	keystroke_e	e	n/a
130.3765	0.0785	260753	keystroke_n	n	n/a
130.4555	0.056	260911	keystroke_t	t	n/a
130.58	0.1005	261160	keystroke_s	s	n/a
130.681	0.078	261362	keystroke_Key.space	Key.space	n/a
130.872	0.1005	261744	keystroke_i	i	n/a
130.9285	0.1235	261857	keystroke_n	n	n/a
131.1195	0.078	262239	keystroke_d	d	n/a
131.5575	0.09	263115	keystroke_i	i	n/a
131.67	0.1355	263340	keystroke_r	r	n/a
131.76	0.0905	263520	keystroke_e	e	n/a
131.9405	0.068	263881	keystroke_c	c	n/a
132.109	0.0675	264218	keystroke_t	t	n/a
132.559	0.0565	265118	keystroke_Key.enter	Key.enter	n/a
132.6245	6.1345	265249	prompt	n/a	harvey sale detail featuring\n
133.38	0.092	266760	keystroke_h	h	n/a
133.472	0.133	266944	keystroke_a	a	n/a
133.573	0.1335	267146	keystroke_r	r	n/a
133.8195	0.0895	267639	keystroke_v	v	n/a
133.9545	0.0905	267909	keystroke_e	e	n/a
134.1	0.09	268200	keystroke_y	y	n/a
134.2015	0.079	268403	keystroke_Key.space	Key.space	n/a
134.3475	0.1245	268695	keystroke_s	s	n/a
134.4495	0.0895	268899	keystroke_a	a	n/a
134.5505	0.09	269101	keystroke_l	l	n/a
134.6965	0.067	269393	keystroke_e	e	n/a
135.079	0.09	270158	keystroke_Key.space	Key.space	n/a
135.36	0.09	270720	keystroke_s	s	n/a
135.653	0.0675	271306	keystroke_Key.backspace	Key.backspace	n/a
135.7315	0.068	271463	keystroke_d	d	n/a
135.8665	0.101	271733	keystroke_e	e	n/a
136.0015	0.09	272003	keystroke_t	t	n/a
136.1255	0.09	272251	keystroke_a	a	n/a
136.1815	0.135	272363	keystroke_i	i	n/a
136.2495	0.1125	272499	keystroke_l	l	n/a
136.3955	0.101	272791	keystroke_Key.space	Key.space	n/a
136.5975	0.045	273195	keystroke_d	d	n/a
136.89	0.079	273780	keystroke_Key.backspace	Key.backspace	n/a
136.992	0.09	273984	keystroke_f	f	n/a
137.1725	0.1	274345	keystroke_e	e	n/a
137.262	0.123	274524	keystroke_a	a	n/a
137.3965	0.101	274793	keystroke_t	t	n/a
137.5425	0.0905	275085	keystroke_u	u	n/a
137.6665	0.135	275333	keystroke_r	r	n/a
137.9595	0.1355	275919	keystroke_i	i	n/a
138.049	0.113	276098	keystroke_n	n	n/a
138.173	0.0675	276346	keystroke_g	g	n/a
138.7015	0.0565	277403	keystroke_Key.enter	Key.enter	n/a
138.7655	4.3475	277531	prompt	n/a	affair light scuba issued\n
139.3315	0.101	278663	keystroke_a	a	n/a
139.512	0.078	279024	keystroke_f	f	n/a
139.6695	0.1025	279339	keystroke_f	f	n/a
139.7925	0.114	279585	keystroke_a	a	n/a
139.95	0.0795	279900	keystroke_i	i	n/a
140.074	0.101	280148	keystroke_r	r	n/a
140.198	0.079	280396	keystroke_Key.space	Key.space	n/a
140.3895	0.1005	280779	keystroke_l	l	n/a
140.4565	0.09	280913	keystroke_i	i	n/a
140.58	0.092	281160	keystroke_g	g	n/a
140.6595	0.1005	281319	keystroke_h	h	n/a
140.7725	0.089	281545	keystroke_t	t	n/a
140.85	0.079	281700	keystroke_Key.space	Key.space	n/a
141.0305	0.0785	282061	keystroke_s	s	n/a
141.2665	0.0785	282533	keystroke_c	c	n/a
141.4015	0.1045	282803	keystroke_u	u	n/a
141.503	0.09	283006	keystroke_b	b	n/a
141.6155	0.067	283231	keystroke_a	a	n/a
141.75	0.079	283500	keystroke_Key.space	Key.space	n/a
141.964	0.0905	283928	keystroke_i	i	n/a
142.245	0.0565	284490	keystroke_s	s	n/a
142.3915	0.068	284783	keystroke_s	s	n/a
142.5065	0.089	285013	keystroke_u	u	n/a
142.617	0.0785	285234	keystroke_e	e	n/a
142.797	0.056	285594	keystroke_d	d	n/a
143.045	0.0665	286090	keystroke_Key.enter	Key.enter	n/a
143.119	5.1685	286238	prompt	n/a	inquiries rare tulsa avenue\n
143.73	0.0905	287460	keystroke_i	i	n/a
143.933	0.1015	287866	keystroke_n	n	n/a
144.09	0.102	288180	keystroke_q	q	n/a
144.272	0.134	288544	keystroke_u	u	n/a
144.373	0.089	288746	keystroke_i	i	n/a
144.653	0.09	289306	keystroke_r	r	n/a
144.822	0.0895	289644	keystroke_i	i	n/a
144.934	0.1235	289868	keystroke_e	e	n/a
145.0125	0.1355	290025	keystroke_s	s	n/a
145.1595	0.0795	290319	keystroke_Key.space	Key.space	n/a
145.519	0.09	291038	keystroke_r	r	n/a
145.62	0.1125	291240	keystroke_a	a	n/a
145.71	0.1355	291420	keystroke_r	r	n/a
145.8225	0.1015	291645	keystroke_e	e	n/a
145.9695	0.102	291939	keystroke_Key.space	Key.space	n/a
146.3515	0.0565	292703	keystroke_t	t	n/a
146.4525	0.0905	292905	keystroke_u	u	n/a
146.645	0.078	293290	keystroke_l	l	n/a
146.734	0.101	293468	keystroke_s	s	n/a
146.824	0.09	293648	keystroke_a	a	n/a
147.0155	0.101	294031	keystroke_Key.space	Key.space	n/a
147.2515	0.0905	294503	keystroke_a	a	n/a
147.3975	0.09	294795	keystroke_v	v	n/a
147.5325	0.0905	295065	keystroke_e	e	n/a
147.6455	0.0785	295291	keystroke_n	n	n/a
147.8255	0.0815	295651	keystroke_u	u	n/a
147.9155	0.0795	295831	keystroke_e	e	n/a
148.219	0.067	296438	keystroke_Key.enter	Key.enter	n/a
148.2935	8.1625	296587	prompt	n/a	indiana additions irish required\n
148.872	0.124	297744	keystroke_i	i	n/a
148.962	0.09	297924	keystroke_n	n	n/a
149.0855	0.0785	298171	keystroke_d	d	n/a
149.187	0.0895	298374	keystroke_i	i	n/a
149.3785	0.078	298757	keystroke_a	a	n/a
149.513	0.101	299026	keystroke_n	n	n/a
149.625	0.0815	299250	keystroke_a	a	n/a
149.8055	0.0675	299611	keystroke_Key.space	Key.space	n/a
149.9635	0.0665	299927	keystroke_a	a	n/a
150.1425	0.057	300285	keystroke_d	d	n/a
150.2895	0.056	300579	keystroke_d	d	n/a
150.3125	0.0555	300625	keystroke_i	i	n/a
150.4805	0.079	300961	keystroke_t	t	n/a
150.5255	0.1465	301051	keystroke_i	i	n/a
150.6155	0.1235	301231	keystroke_o	o	n/a
150.7065	0.1	301413	keystroke_n	n	n/a
150.818	0.0675	301636	keystroke_s	s	n/a
150.942	0.0785	301884	keystroke_Key.space	Key.space	n/a
151.583	0.079	303166	keystroke_i	i	n/a
151.6955	0.079	303391	keystroke_r	r	n/a
151.887	0.0895	303774	keystroke_i	i	n/a
152.1675	0.0795	304335	keystroke_s	s	n/a
152.339	0.099	304678	keystroke_h	h	n/a
152.6965	0.0785	305393	keystroke_Key.space	Key.space	n/a
152.877	0.102	305754	keystroke_r	r	n/a
152.933	0.2025	305866	keystroke_e	e	n/a
153.1465	0.101	306293	keystroke_s	s	n/a
153.5745	0.0675	307149	keystroke_Key.backspace	Key.backspace	n/a
153.8465	0.076	307693	keystroke_q	q	n/a
154.0355	0.1235	308071	keystroke_u	u	n/a
154.114	0.1015	308228	keystroke_i	i	n/a
154.2265	0.135	308453	keystroke_r	r	n/a
154.295	0.0895	308590	keystroke_e	e	n/a
154.4625	0.079	308925	keystroke_d	d	n/a
156.375	0.08	312750	keystroke_Key.enter	Key.enter	n/a
156.462	5.4945	312924	prompt	n/a	nations cute establishment attitudes\n
157.174	0.09	314348	keystroke_n	n	n/a
157.322	0.0995	314644	keystroke_a	a	n/a
157.4555	0.09	314911	keystroke_t	t	n/a
157.579	0.1685	315158	keystroke_i	i	n/a
157.658	0.1345	315316	keystroke_o	o	n/a
157.759	0.1135	315518	keystroke_n	n	n/a
157.849	0.1015	315698	keystroke_s	s	n/a
157.9615	0.09	315923	keystroke_Key.space	Key.space	n/a
158.1975	0.1145	316395	keystroke_c	c	n/a
158.3785	0.1	316757	keystroke_u	u	n/a
158.49	0.1155	316980	keystroke_t	t	n/a
158.591	0.1245	317182	keystroke_e	e	n/a
158.7265	0.102	317453	keystroke_Key.space	Key.space	n/a
158.8615	0.101	317723	keystroke_e	e	n/a
158.9965	0.135	317993	keystroke_s	s	n/a
159.109	0.1125	318218	keystroke_t	t	n/a
159.245	0.0775	318490	keystroke_a	a	n/a
159.3675	0.079	318735	keystroke_b	b	n/a
159.4915	0.09	318983	keystroke_l	l	n/a
159.548	0.101	319096	keystroke_i	i	n/a
159.6375	0.0785	319275	keystroke_s	s	n/a
159.739	0.101	319478	keystroke_h	h	n/a
159.9415	0.09	319883	keystroke_m	m	n/a
160.055	0.078	320110	keystroke_e	e	n/a
160.1555	0.09	320311	keystroke_n	n	n/a
160.256	0.079	320512	keystroke_t	t	n/a
160.3015	0.0895	320603	keystroke_Key.space	Key.space	n/a
160.5045	0.1115	321009	keystroke_a	a	n/a
160.7855	0.045	321571	keystroke_t	t	n/a
160.9425	0.079	321885	keystroke_t	t	n/a
161.045	0.089	322090	keystroke_i	i	n/a
161.1675	0.079	322335	keystroke_t	t	n/a
161.269	0.09	322538	keystroke_u	u	n/a
161.382	0.079	322764	keystroke_d	d	n/a
161.5615	0.1235	323123	keystroke_e	e	n/a
161.6515	0.09	323303	keystroke_s	s	n/a
161.878	0.0775	323756	keystroke_Key.enter	Key.enter	n/a
161.9625	10.1535	323925	prompt	n/a	unto consistently records football\n
167.164	0.0675	334328	keystroke_u	u	n/a
167.355	0.101	334710	keystroke_n	n	n/a
167.49	0.068	334980	keystroke_t	t	n/a
167.6255	0.0675	335251	keystroke_o	o	n/a
167.7385	0.0895	335477	keystroke_Key.space	Key.space	n/a
168.0075	0.0675	336015	keystroke_c	c	n/a
168.109	0.1015	336218	keystroke_o	o	n/a
168.1885	0.1005	336377	keystroke_n	n	n/a
168.3115	0.1015	336623	keystroke_s	s	n/a
168.5255	0.0895	337051	keystroke_i	i	n/a
168.818	0.1345	337636	keystroke_s	s	n/a
169.099	0.1015	338198	keystroke_t	t	n/a
169.256	0.0905	338512	keystroke_e	e	n/a
169.3805	0.101	338761	keystroke_n	n	n/a
169.493	0.0685	338986	keystroke_t	t	n/a
169.6285	0.123	339257	keystroke_l	l	n/a
169.7175	0.113	339435	keystroke_y	y	n/a
169.819	0.1025	339638	keystroke_Key.space	Key.space	n/a
169.954	0.124	339908	keystroke_r	r	n/a
170.021	0.091	340042	keystroke_e	e	n/a
170.2355	0.069	340471	keystroke_c	c	n/a
170.3385	0.067	340677	keystroke_o	o	n/a
170.439	0.077	340878	keystroke_r	r	n/a
170.5835	0.124	341167	keystroke_d	d	n/a
170.651	0.1125	341302	keystroke_s	s	n/a
170.7865	0.09	341573	keystroke_Key.space	Key.space	n/a
170.888	0.09	341776	keystroke_f	f	n/a
171.0115	0.0445	342023	keystroke_o	o	n/a
171.146	0.079	342292	keystroke_o	o	n/a
171.2715	0.067	342543	keystroke_t	t	n/a
171.4505	0.09	342901	keystroke_b	b	n/a
171.5515	0.079	343103	keystroke_a	a	n/a
171.664	0.0575	343328	keystroke_l	l	n/a
171.811	0.067	343622	keystroke_l	l	n/a
172.058	0.0565	344116	keystroke_Key.enter	Key.enter	n/a
172.123	3.659	344246	prompt	n/a	chair safe statewide span\n
172.6765	0.079	345353	keystroke_c	c	n/a
172.7785	0.0895	345557	keystroke_h	h	n/a
172.879	0.068	345758	keystroke_a	a	n/a
173.0045	0.077	346009	keystroke_i	i	n/a
173.0925	0.08	346185	keystroke_r	r	n/a
173.1495	0.079	346299	keystroke_Key.space	Key.space	n/a
173.2955	0.1245	346591	keystroke_s	s	n/a
173.3965	0.101	346793	keystroke_a	a	n/a
173.475	0.1365	346950	keystroke_f	f	n/a
173.5995	0.113	347199	keystroke_e	e	n/a
173.6895	0.0895	347379	keystroke_Key.space	Key.space	n/a
173.88	0.102	347760	keystroke_s	s	n/a
173.993	0.0895	347986	keystroke_t	t	n/a
174.0955	0.0775	348191	keystroke_a	a	n/a
174.162	0.146	348324	keystroke_t	t	n/a
174.263	0.1125	348526	keystroke_e	e	n/a
174.353	0.1235	348706	keystroke_w	w	n/a
174.512	0.0995	349024	keystroke_i	i	n/a
174.6345	0.067	349269	keystroke_d	d	n/a
174.7805	0.091	349561	keystroke_e	e	n/a
174.8815	0.0795	349763	keystroke_Key.space	Key.space	n/a
175.016	0.1355	350032	keystroke_s	s	n/a
175.219	0.1015	350438	keystroke_p	p	n/a
175.32	0.1015	350640	keystroke_a	a	n/a
175.433	0.1125	350866	keystroke_n	n	n/a
175.703	0.078	351406	keystroke_Key.enter	Key.enter	n/a
175.788	5.2265	351576	prompt	n/a	primary louisiana leslie certain\n
176.4675	0.102	352935	keystroke_p	p	n/a
176.5915	0.0895	353183	keystroke_r	r	n/a
176.705	0.1	353410	keystroke_i	i	n/a
176.761	0.112	353522	keystroke_m	m	n/a
176.8505	0.112	353701	keystroke_a	a	n/a
176.9175	0.0785	353835	keystroke_r	r	n/a
177.053	0.1015	354106	keystroke_y	y	n/a
177.1425	0.09	354285	keystroke_Key.space	Key.space	n/a
177.3005	0.067	354601	keystroke_l	l	n/a
177.4915	0.101	354983	keystroke_o	o	n/a
177.559	0.1125	355118	keystroke_u	u	n/a
177.7615	0.09	355523	keystroke_i	i	n/a
177.908	0.0785	355816	keystroke_s	s	n/a
178.178	0.011	356356	keystroke_i	i	n/a
178.234	0.09	356468	keystroke_a	a	n/a
178.3575	0.102	356715	keystroke_n	n	n/a
178.4815	0.09	356963	keystroke_a	a	n/a
178.7065	0.0675	357413	keystroke_Key.space	Key.space	n/a
178.8415	0.101	357683	keystroke_l	l	n/a
178.9875	0.0675	357975	keystroke_e	e	n/a
179.1345	0.0895	358269	keystroke_s	s	n/a
179.338	0.133	358676	keystroke_l	l	n/a
179.4265	0.1125	358853	keystroke_i	i	n/a
179.719	0.0675	359438	keystroke_e	e	n/a
179.854	0.079	359708	keystroke_Key.space	Key.space	n/a
180.0455	0.0785	360091	keystroke_c	c	n/a
180.2475	0.1015	360495	keystroke_e	e	n/a
180.3155	0.0895	360631	keystroke_r	r	n/a
180.4955	0.079	360991	keystroke_t	t	n/a
180.5855	0.0785	361171	keystroke_a	a	n/a
180.6865	0.1125	361373	keystroke_i	i	n/a
180.754	0.113	361508	keystroke_n	n	n/a
180.934	0.079	361868	keystroke_Key.enter	Key.enter	n/a
181.021	4.5715	362042	prompt	n/a	earl continuity class dare\n
181.609	0.0905	363218	keystroke_e	e	n/a
181.733	0.1345	363466	keystroke_a	a	n/a
181.8345	0.0895	363669	keystroke_r	r	n/a
181.971	0.077	363942	keystroke_l	l	n/a
182.038	0.0885	364076	keystroke_Key.space	Key.space	n/a
182.2285	0.0785	364457	keystroke_c	c	n/a
182.2955	0.125	364591	keystroke_o	o	n/a
182.3965	0.1465	364793	keystroke_n	n	n/a
182.5315	0.0565	365063	keystroke_t	t	n/a
182.6335	0.123	365267	keystroke_i	i	n/a
182.7005	0.101	365401	keystroke_n	n	n/a
182.937	0.125	365874	keystroke_u	u	n/a
183.0385	0.101	366077	keystroke_i	i	n/a
183.162	0.0895	366324	keystroke_t	t	n/a
183.308	0.101	366616	keystroke_y	y	n/a
183.4215	0.0775	366843	keystroke_Key.space	Key.space	n/a
183.612	0.0785	367224	keystroke_c	c	n/a
183.7355	0.0565	367471	keystroke_l	l	n/a
183.8145	0.0675	367629	keystroke_a	a	n/a
183.9825	0.0565	367965	keystroke_s	s	n/a
184.1405	0.1125	368281	keystroke_s	s	n/a
184.2415	0.0895	368483	keystroke_Key.space	Key.space	n/a
184.534	0.056	369068	keystroke_d	d	n/a
184.984	0.09	369968	keystroke_a	a	n/a
185.175	0.079	370350	keystroke_r	r	n/a
185.3325	0.068	370665	keystroke_e	e	n/a
185.524	0.0675	371048	keystroke_Key.enter	Key.enter	n/a
185.599	8.2845	371198	prompt	n/a	submission concerned flexible gray\n
186.5055	0.0755	373011	keystroke_s	s	n/a
186.6825	0.0795	373365	keystroke_u	u	n/a
186.7855	0.0665	373571	keystroke_b	b	n/a
186.942	0.1015	373884	keystroke_m	m	n/a
187.0205	0.091	374041	keystroke_i	i	n/a
187.1665	0.056	374333	keystroke_s	s	n/a
187.3015	0.079	374603	keystroke_s	s	n/a
187.3915	0.17	374783	keystroke_i	i	n/a
187.4705	0.112	374941	keystroke_o	o	n/a
187.5495	0.1005	375099	keystroke_n	n	n/a
187.6285	0.078	375257	keystroke_Key.space	Key.space	n/a
187.7965	0.09	375593	keystroke_c	c	n/a
187.8975	0.081	375795	keystroke_o	o	n/a
187.9425	0.102	375885	keystroke_n	n	n/a
188.0445	0.0785	376089	keystroke_c	c	n/a
188.224	0.114	376448	keystroke_e	e	n/a
188.2805	0.0675	376561	keystroke_r	r	n/a
188.449	0.09	376898	keystroke_n	n	n/a
188.5615	0.0675	377123	keystroke_e	e	n/a
188.7195	0.1005	377439	keystroke_d	d	n/a
188.809	0.0795	377618	keystroke_Key.space	Key.space	n/a
188.967	0.0895	377934	keystroke_f	f	n/a
189.1125	0.092	378225	keystroke_l	l	n/a
189.1805	0.091	378361	keystroke_e	e	n/a
190.0015	0.07	380003	keystroke_x	x	n/a
190.1535	0.0515	380307	keystroke_i	i	n/a
190.238	0.0785	380476	keystroke_b	b	n/a
190.3625	0.078	380725	keystroke_l	l	n/a
190.4625	0.068	380925	keystroke_e	e	n/a
191.599	0.09	383198	keystroke_Key.space	Key.space	n/a
191.8015	0.09	383603	keystroke_g	g	n/a
192.0045	0.0335	384009	keystroke_a	a	n/a
192.409	0.057	384818	keystroke_Key.backspace	Key.backspace	n/a
192.511	0.09	385022	keystroke_r	r	n/a
192.6005	0.0675	385201	keystroke_a	a	n/a
192.7125	0.102	385425	keystroke_y	y	n/a
193.8155	0.067	387631	keystroke_Key.enter	Key.enter	n/a
193.8895	5.633	387779	prompt	n/a	halo jean mercedes textbooks\n
194.5465	0.079	389093	keystroke_h	h	n/a
194.648	0.09	389296	keystroke_a	a	n/a
194.7715	0.057	389543	keystroke_l	l	n/a
194.918	0.067	389836	keystroke_o	o	n/a
195.055	0.088	390110	keystroke_Key.space	Key.space	n/a
195.233	0.079	390466	keystroke_j	j	n/a
195.4125	0.091	390825	keystroke_e	e	n/a
195.514	0.114	391028	keystroke_a	a	n/a
195.661	0.101	391322	keystroke_n	n	n/a
195.773	0.079	391546	keystroke_Key.space	Key.space	n/a
196.0765	0.1015	392153	keystroke_m	m	n/a
196.2565	0.113	392513	keystroke_e	e	n/a
196.347	0.0785	392694	keystroke_r	r	n/a
196.5495	0.0785	393099	keystroke_c	c	n/a
196.74	0.0565	393480	keystroke_e	e	n/a
196.9215	0.055	393843	keystroke_d	d	n/a
197.0665	0.079	394133	keystroke_e	e	n/a
197.3255	0.0115	394651	keystroke_s	s	n/a
197.3815	0.0795	394763	keystroke_Key.space	Key.space	n/a
197.652	0.09	395304	keystroke_t	t	n/a
197.7525	0.103	395505	keystroke_e	e	n/a
197.967	0.067	395934	keystroke_x	x	n/a
198.1465	0.0565	396293	keystroke_t	t	n/a
198.327	0.0675	396654	keystroke_b	b	n/a
198.417	0.056	396834	keystroke_o	o	n/a
198.552	0.1025	397104	keystroke_o	o	n/a
198.6195	0.1025	397239	keystroke_k	k	n/a
198.722	0.077	397444	keystroke_s	s	n/a
199.4625	0.059	398925	keystroke_Key.enter	Key.enter	n/a
199.528	4.852	399056	prompt	n/a	relocation norway named president\n
200.3515	0.0225	400703	keystroke_r	r	n/a
200.363	0.079	400726	keystroke_e	e	n/a
200.509	0.0565	401018	keystroke_l	l	n/a
200.655	0.0675	401310	keystroke_o	o	n/a
200.7565	0.0785	401513	keystroke_c	c	n/a
200.869	0.124	401738	keystroke_a	a	n/a
200.982	0.0795	401964	keystroke_t	t	n/a
201.0615	0.1565	402123	keystroke_i	i	n/a
201.1505	0.112	402301	keystroke_o	o	n/a
201.2515	0.0905	402503	keystroke_n	n	n/a
201.2965	0.1125	402593	keystroke_Key.space	Key.space	n/a
201.488	0.1125	402976	keystroke_n	n	n/a
201.601	0.078	403202	keystroke_o	o	n/a
201.724	0.0905	403448	keystroke_r	r	n/a
201.8815	0.124	403763	keystroke_w	w	n/a
201.983	0.0785	403966	keystroke_a	a	n/a
202.1405	0.0675	404281	keystroke_y	y	n/a
202.231	0.078	404462	keystroke_Key.space	Key.space	n/a
202.422	0.09	404844	keystroke_n	n	n/a
202.5005	0.09	405001	keystroke_a	a	n/a
202.6385	0.087	405277	keystroke_m	m	n/a
202.725	0.068	405450	keystroke_e	e	n/a
202.9165	0.0795	405833	keystroke_d	d	n/a
203.0185	0.0675	406037	keystroke_Key.space	Key.space	n/a
203.164	0.124	406328	keystroke_p	p	n/a
203.2885	0.101	406577	keystroke_r	r	n/a
203.345	0.089	406690	keystroke_e	e	n/a
203.513	0.0785	407026	keystroke_s	s	n/a
203.6705	0.0675	407341	keystroke_i	i	n/a
203.7495	0.056	407499	keystroke_d	d	n/a
203.8845	0.0895	407769	keystroke_e	e	n/a
204.0305	0.101	408061	keystroke_n	n	n/a
204.143	0.0685	408286	keystroke_t	t	n/a
204.3005	0.0785	408601	keystroke_Key.enter	Key.enter	n/a
204.386	4.7655	408772	prompt	n/a	fisher oughtn't factors jack\n
205.0875	0.102	410175	keystroke_f	f	n/a
205.2565	0.0795	410513	keystroke_i	i	n/a
205.347	0.079	410694	keystroke_s	s	n/a
205.4595	0.09	410919	keystroke_h	h	n/a
205.5715	0.113	411143	keystroke_e	e	n/a
205.628	0.112	411256	keystroke_r	r	n/a
205.7175	0.079	411435	keystroke_Key.space	Key.space	n/a
205.9225	0.1325	411845	keystroke_o	o	n/a
206.022	0.101	412044	keystroke_u	u	n/a
206.1685	0.078	412337	keystroke_g	g	n/a
206.292	0.1005	412584	keystroke_h	h	n/a
206.4265	0.0785	412853	keystroke_t	t	n/a
206.607	0.101	413214	keystroke_n	n	n/a
206.775	0.103	413550	keystroke_'	'	n/a
207.023	0.0785	414046	keystroke_t	t	n/a
207.2595	0.068	414519	keystroke_Key.space	Key.space	n/a
207.473	0.09	414946	keystroke_f	f	n/a
207.5405	0.0785	415081	keystroke_a	a	n/a
207.6975	0.079	415395	keystroke_c	c	n/a
207.9005	0.0895	415801	keystroke_t	t	n/a
208.047	0.0785	416094	keystroke_o	o	n/a
208.1145	0.0785	416229	keystroke_r	r	n/a
208.2825	0.1125	416565	keystroke_s	s	n/a
208.365	0.076	416730	keystroke_Key.space	Key.space	n/a
208.546	0.103	417092	keystroke_j	j	n/a
208.648	0.113	417296	keystroke_a	a	n/a
208.7395	0.0955	417479	keystroke_c	c	n/a
208.863	0.0935	417726	keystroke_k	k	n/a
209.062	0.069	418124	keystroke_Key.enter	Key.enter	n/a
209.171	8.113	418342	prompt	n/a	globe lasting builds arrest\n
209.967	0.0675	419934	keystroke_g	g	n/a
210.0845	0.042	420169	keystroke_l	l	n/a
210.1995	0.095	420399	keystroke_o	o	n/a
210.7415	0.095	421483	keystroke_b	b	n/a
210.885	0.1015	421770	keystroke_e	e	n/a
210.9885	0.08	421977	keystroke_Key.space	Key.space	n/a
211.276	0.0795	422552	keystroke_l	l	n/a
211.4325	0.1095	422865	keystroke_a	a	n/a
211.5425	0.1045	423085	keystroke_s	s	n/a
211.7265	0.0785	423453	keystroke_t	t	n/a
212.2805	0.075	424561	keystroke_i	i	n/a
212.343	0.092	424686	keystroke_n	n	n/a
212.479	0.0795	424958	keystroke_e	e	n/a
212.783	0.0895	425566	keystroke_Key.space	Key.space	n/a
213.267	0.0225	426534	keystroke_Key.backspace	Key.backspace	n/a
213.39	0.059	426780	keystroke_Key.backspace	Key.backspace	n/a
213.5705	0.0675	427141	keystroke_g	g	n/a
213.683	0.079	427366	keystroke_Key.space	Key.space	n/a
214.0315	0.0565	428063	keystroke_g	g	n/a
214.583	0.0675	429166	keystroke_Key.backspace	Key.backspace	n/a
214.7065	0.0785	429413	keystroke_b	b	n/a
214.864	0.169	429728	keystroke_u	u	n/a
214.9545	0.1685	429909	keystroke_i	i	n/a
215.045	0.134	430090	keystroke_l	l	n/a
215.213	0.0675	430426	keystroke_d	d	n/a
215.3705	0.0785	430741	keystroke_s	s	n/a
215.5505	0.09	431101	keystroke_Key.space	Key.space	n/a
215.989	0.09	431978	keystroke_a	a	n/a
216.158	0.09	432316	keystroke_r	r	n/a
216.328	0.111	432656	keystroke_r	r	n/a
216.496	0.1585	432992	keystroke_e	e	n/a
216.5965	0.146	433193	keystroke_s	s	n/a
216.709	0.09	433418	keystroke_t	t	n/a
217.2155	0.067	434431	keystroke_Key.enter	Key.enter	n/a
217.291	10.1985	434582	prompt	n/a	thou clients consists robert\n
218.0255	0.056	436051	keystroke_t	t	n/a
218.115	0.113	436230	keystroke_o	o	n/a
218.195	0.0895	436390	keystroke_u	u	n/a
218.903	0.0455	437806	keystroke_Key.backspace	Key.backspace	n/a
219.038	0.0785	438076	keystroke_Key.backspace	Key.backspace	n/a
219.263	0.0925	438526	keystroke_h	h	n/a
219.4655	0.1575	438931	keystroke_o	o	n/a
219.6455	0.09	439291	keystroke_u	u	n/a
219.962	0.0775	439924	keystroke_Key.space	Key.space	n/a
220.534	0.09	441068	keystroke_c	c	n/a
220.658	0.1015	441316	keystroke_l	l	n/a
220.7145	0.1015	441429	keystroke_i	i	n/a
220.8265	0.0785	441653	keystroke_e	e	n/a
220.962	0.1345	441924	keystroke_n	n	n/a
221.1205	0.0775	442241	keystroke_t	t	n/a
221.299	0.0795	442598	keystroke_s	s	n/a
221.4455	0.067	442891	keystroke_Key.space	Key.space	n/a
221.7715	0.0785	443543	keystroke_c	c	n/a
221.9295	0.124	443859	keystroke_o	o	n/a
222.031	0.114	444062	keystroke_n	n	n/a
222.188	0.079	444376	keystroke_s	s	n/a
222.379	0.079	444758	keystroke_i	i	n/a
222.5145	0.1135	445029	keystroke_s	s	n/a
222.638	0.113	445276	keystroke_t	t	n/a
222.8295	0.0915	445659	keystroke_s	s	n/a
222.998	0.0805	445996	keystroke_Key.space	Key.space	n/a
225.833	0.0905	451666	keystroke_r	r	n/a
225.979	0.0905	451958	keystroke_o	o	n/a
226.105	0.133	452210	keystroke_b	b	n/a
226.3845	0.1375	452769	keystroke_e	e	n/a
226.488	0.076	452976	keystroke_r	r	n/a
226.6655	0.0565	453331	keystroke_t	t	n/a
227.431	0.057	454862	keystroke_Key.enter	Key.enter	n/a
227.496	5.9545	454992	prompt	n/a	appearing gotta loans mighty\n
228.1785	0.0625	456357	keystroke_a	a	n/a
228.4455	0.0445	456891	keystroke_p	p	n/a
228.592	0.0765	457184	keystroke_p	p	n/a
228.706	0.097	457412	keystroke_e	e	n/a
228.7695	0.1465	457539	keystroke_a	a	n/a
228.871	0.0915	457742	keystroke_r	r	n/a
229.0175	0.1235	458035	keystroke_i	i	n/a
229.1075	0.09	458215	keystroke_n	n	n/a
229.19	0.066	458380	keystroke_g	g	n/a
229.2565	0.1345	458513	keystroke_Key.space	Key.space	n/a
229.447	0.0875	458894	keystroke_g	g	n/a
229.58	0.0445	459160	keystroke_o	o	n/a
229.706	0.057	459412	keystroke_t	t	n/a
229.8635	0.0995	459727	keystroke_t	t	n/a
229.8835	0.0225	459767	keystroke_a	a	n/a
230.0185	0.0675	460037	keystroke_a	a	n/a
230.356	0.0455	460712	keystroke_Key.backspace	Key.backspace	n/a
230.491	0.0675	460982	keystroke_Key.backspace	Key.backspace	n/a
230.8845	0.079	461769	keystroke_a	a	n/a
231.121	0.0675	462242	keystroke_Key.space	Key.space	n/a
231.3115	0.0675	462623	keystroke_l	l	n/a
231.469	0.0905	462938	keystroke_o	o	n/a
231.595	0.088	463190	keystroke_a	a	n/a
231.739	0.1015	463478	keystroke_n	n	n/a
231.897	0.067	463794	keystroke_s	s	n/a
232.0655	0.0675	464131	keystroke_Key.space	Key.space	n/a
232.2455	0.135	464491	keystroke_m	m	n/a
232.3465	0.0905	464693	keystroke_i	i	n/a
232.471	0.079	464942	keystroke_g	g	n/a
232.5715	0.1015	465143	keystroke_h	h	n/a
232.6955	0.0675	465391	keystroke_t	t	n/a
232.945	0.0665	465890	keystroke_y	y	n/a
233.395	0.054	466790	keystroke_Key.enter	Key.enter	n/a
233.4575	5.8555	466915	prompt	n/a	visibility romance attack million\n
234.0345	0.0785	468069	keystroke_v	v	n/a
234.147	0.045	468294	keystroke_i	i	n/a
234.2375	0.0785	468475	keystroke_s	s	n/a
234.3495	0.0675	468699	keystroke_i	i	n/a
234.4735	0.0895	468947	keystroke_b	b	n/a
234.5965	0.1125	469193	keystroke_i	i	n/a
234.687	0.158	469374	keystroke_l	l	n/a
234.7995	0.112	469599	keystroke_i	i	n/a
234.9235	0.0555	469847	keystroke_t	t	n/a
235.024	0.0905	470048	keystroke_y	y	n/a
235.126	0.0555	470252	keystroke_Key.space	Key.space	n/a
235.3505	0.09	470701	keystroke_r	r	n/a
235.487	0.133	470974	keystroke_o	o	n/a
235.6545	0.0785	471309	keystroke_m	m	n/a
235.745	0.089	471490	keystroke_a	a	n/a
235.89	0.0905	471780	keystroke_n	n	n/a
235.9915	0.0675	471983	keystroke_c	c	n/a
236.161	0.078	472322	keystroke_e	e	n/a
236.273	0.0675	472546	keystroke_Key.space	Key.space	n/a
236.421	0.088	472842	keystroke_a	a	n/a
236.554	0.058	473108	keystroke_t	t	n/a
236.6895	0.0895	473379	keystroke_t	t	n/a
236.7905	0.0455	473581	keystroke_a	a	n/a
236.9375	0.067	473875	keystroke_c	c	n/a
237.016	0.0895	474032	keystroke_k	k	n/a
237.229	0.0675	474458	keystroke_Key.space	Key.space	n/a
237.3535	0.146	474707	keystroke_m	m	n/a
237.4655	0.113	474931	keystroke_i	i	n/a
237.7465	0.1355	475493	keystroke_l	l	n/a
238.0055	0.1015	476011	keystroke_l	l	n/a
238.242	0.1365	476484	keystroke_i	i	n/a
238.343	0.124	476686	keystroke_o	o	n/a
238.445	0.1115	476890	keystroke_n	n	n/a
238.579	0.068	477158	keystroke_s	s	n/a
238.962	0.067	477924	keystroke_Key.backspace	Key.backspace	n/a
239.245	0.0665	478490	keystroke_Key.enter	Key.enter	n/a
239.32	5.234	478640	prompt	n/a	fits andy designs liable\n
240.3005	0.0785	480601	keystroke_f	f	n/a
240.413	0.0675	480826	keystroke_i	i	n/a
240.5255	0.0695	481051	keystroke_t	t	n/a
240.6945	0.0895	481389	keystroke_s	s	n/a
240.7955	0.0915	481591	keystroke_Key.space	Key.space	n/a
241.5825	0.079	483165	keystroke_a	a	n/a
241.729	0.113	483458	keystroke_n	n	n/a
241.8535	0.0555	483707	keystroke_d	d	n/a
242	0.078	484000	keystroke_y	y	n/a
242.1005	0.0895	484201	keystroke_Key.space	Key.space	n/a
242.3945	0.055	484789	keystroke_d	d	n/a
242.5505	0.0895	485101	keystroke_e	e	n/a
242.663	0.112	485326	keystroke_s	s	n/a
242.8425	0.079	485685	keystroke_i	i	n/a
242.945	0.078	485890	keystroke_g	g	n/a
243.0565	0.1125	486113	keystroke_n	n	n/a
243.1915	0.079	486383	keystroke_s	s	n/a
243.338	0.079	486676	keystroke_Key.space	Key.space	n/a
243.518	0.102	487036	keystroke_l	l	n/a
243.587	0.088	487174	keystroke_i	i	n/a
243.6975	0.0905	487395	keystroke_a	a	n/a
243.8895	0.0785	487779	keystroke_b	b	n/a
243.99	0.09	487980	keystroke_l	l	n/a
244.114	0.079	488228	keystroke_e	e	n/a
244.4865	0.0665	488973	keystroke_Key.enter	Key.enter	n/a
244.56	6.1035	489120	prompt	n/a	chains planner buses instruments\n
245.1945	0.056	490389	keystroke_c	c	n/a
245.2865	0.067	490573	keystroke_h	h	n/a
245.374	0.09	490748	keystroke_a	a	n/a
245.509	0.069	491018	keystroke_i	i	n/a
245.7005	0.0895	491401	keystroke_n	n	n/a
245.8125	0.057	491625	keystroke_s	s	n/a
245.948	0.0895	491896	keystroke_Key.space	Key.space	n/a
246.15	0.1045	492300	keystroke_p	p	n/a
246.218	0.09	492436	keystroke_l	l	n/a
246.3305	0.09	492661	keystroke_a	a	n/a
246.4545	0.0675	492909	keystroke_n	n	n/a
246.6005	0.0785	493201	keystroke_n	n	n/a
246.7015	0.1235	493403	keystroke_e	e	n/a
246.769	0.1015	493538	keystroke_r	r	n/a
246.859	0.079	493718	keystroke_Key.space	Key.space	n/a
247.0055	0.09	494011	keystroke_b	b	n/a
247.187	0.0775	494374	keystroke_u	u	n/a
247.309	0.0565	494618	keystroke_s	s	n/a
247.7935	0.0665	495587	keystroke_e	e	n/a
247.984	0.07	495968	keystroke_s	s	n/a
248.164	0.0905	496328	keystroke_Key.space	Key.space	n/a
248.3895	0.101	496779	keystroke_i	i	n/a
248.4675	0.1125	496935	keystroke_n	n	n/a
248.5695	0.078	497139	keystroke_s	s	n/a
248.715	0.079	497430	keystroke_t	t	n/a
248.8735	0.0895	497747	keystroke_r	r	n/a
248.9745	0.0795	497949	keystroke_u	u	n/a
249.179	0.0875	498358	keystroke_m	m	n/a
249.2895	0.0785	498579	keystroke_e	e	n/a
249.4025	0.078	498805	keystroke_n	n	n/a
249.4805	0.0675	498961	keystroke_t	t	n/a
249.628	0.0775	499256	keystroke_s	s	n/a
250.5825	0.079	501165	keystroke_Key.enter	Key.enter	n/a
250.6715	4.7385	501343	prompt	n/a	minimal driving reviews cables\n
251.303	0.113	502606	keystroke_m	m	n/a
251.428	0.145	502856	keystroke_i	i	n/a
251.562	0.1125	503124	keystroke_n	n	n/a
251.6865	0.1455	503373	keystroke_i	i	n/a
251.798	0.113	503596	keystroke_m	m	n/a
251.9215	0.1015	503843	keystroke_a	a	n/a
252.0455	0.0785	504091	keystroke_l	l	n/a
252.1355	0.0905	504271	keystroke_Key.space	Key.space	n/a
252.2485	0.0675	504497	keystroke_d	d	n/a
252.383	0.079	504766	keystroke_r	r	n/a
252.518	0.07	505036	keystroke_i	i	n/a
252.597	0.0785	505194	keystroke_v	v	n/a
252.7205	0.1015	505441	keystroke_i	i	n/a
252.7885	0.09	505577	keystroke_n	n	n/a
252.845	0.09	505690	keystroke_g	g	n/a
252.9235	0.078	505847	keystroke_Key.space	Key.space	n/a
253.103	0.1255	506206	keystroke_r	r	n/a
253.195	0.088	506390	keystroke_e	e	n/a
253.3735	0.0805	506747	keystroke_v	v	n/a
253.5085	0.0895	507017	keystroke_i	i	n/a
253.5875	0.1455	507175	keystroke_e	e	n/a
253.7115	0.157	507423	keystroke_w	w	n/a
254.0035	0.101	508007	keystroke_s	s	n/a
254.217	0.09	508434	keystroke_Key.space	Key.space	n/a
254.4415	0.09	508883	keystroke_c	c	n/a
254.5445	0.088	509089	keystroke_a	a	n/a
254.6895	0.0785	509379	keystroke_b	b	n/a
254.79	0.102	509580	keystroke_l	l	n/a
254.903	0.159	509806	keystroke_e	e	n/a
255.038	0.0785	510076	keystroke_s	s	n/a
255.354	0.055	510708	keystroke_Key.enter	Key.enter	n/a
255.4155	9.9295	510831	prompt	n/a	sharing closest radiation audit\n
255.938	0.0785	511876	keystroke_s	s	n/a
256.1535	0.0665	512307	keystroke_h	h	n/a
256.23	0.1125	512460	keystroke_a	a	n/a
256.309	0.0785	512618	keystroke_r	r	n/a
256.4665	0.1015	512933	keystroke_i	i	n/a
256.534	0.1015	513068	keystroke_n	n	n/a
256.5905	0.1125	513181	keystroke_g	g	n/a
256.6805	0.067	513361	keystroke_Key.space	Key.space	n/a
256.928	0.092	513856	keystroke_c	c	n/a
257.029	0.0575	514058	keystroke_l	l	n/a
257.164	0.0805	514328	keystroke_o	o	n/a
257.288	0.0905	514576	keystroke_s	s	n/a
257.502	0.067	515004	keystroke_e	e	n/a
258.1425	0.079	516285	keystroke_t	t	n/a
258.975	0.068	517950	keystroke_Key.backspace	Key.backspace	n/a
259.0545	0.101	518109	keystroke_s	s	n/a
259.0995	0.113	518199	keystroke_t	t	n/a
259.235	0.0775	518470	keystroke_Key.space	Key.space	n/a
262.9585	0.1125	525917	keystroke_r	r	n/a
263.116	0.0785	526232	keystroke_a	a	n/a
263.2955	0.0675	526591	keystroke_d	d	n/a
263.509	0.069	527018	keystroke_i	i	n/a
263.6215	0.079	527243	keystroke_a	a	n/a
263.8585	0.067	527717	keystroke_t	t	n/a
263.9815	0.135	527963	keystroke_i	i	n/a
264.0715	0.147	528143	keystroke_o	o	n/a
264.185	0.112	528370	keystroke_n	n	n/a
264.2975	0.089	528595	keystroke_Key.space	Key.space	n/a
264.4545	0.09	528909	keystroke_a	a	n/a
264.601	0.078	529202	keystroke_u	u	n/a
264.7245	0.0555	529449	keystroke_d	d	n/a
264.837	0.091	529674	keystroke_i	i	n/a
264.9945	0.045	529989	keystroke_t	t	n/a
265.2755	0.0675	530551	keystroke_Key.enter	Key.enter	n/a
265.3505	7.2045	530701	prompt	n/a	familiar weird criminal possibly\n
265.984	0.079	531968	keystroke_f	f	n/a
266.074	0.1125	532148	keystroke_a	a	n/a
266.2315	0.1805	532463	keystroke_m	m	n/a
266.468	0.1575	532936	keystroke_l	l	n/a
266.997	0.056	533994	keystroke_Key.backspace	Key.backspace	n/a
267.2325	0.1375	534465	keystroke_i	i	n/a
267.323	0.124	534646	keystroke_l	l	n/a
267.571	0.0785	535142	keystroke_a	a	n/a
267.953	0.1015	535906	keystroke_Key.backspace	Key.backspace	n/a
268.178	0.0915	536356	keystroke_i	i	n/a
268.2565	0.147	536513	keystroke_a	a	n/a
268.3805	0.0785	536761	keystroke_r	r	n/a
268.572	0.0895	537144	keystroke_Key.space	Key.space	n/a
268.7405	0.1015	537481	keystroke_w	w	n/a
269.1115	0.0785	538223	keystroke_e	e	n/a
269.2805	0.079	538561	keystroke_i	i	n/a
269.3815	0.0795	538763	keystroke_r	r	n/a
269.573	0.079	539146	keystroke_d	d	n/a
269.6295	0.101	539259	keystroke_Key.space	Key.space	n/a
269.8885	0.09	539777	keystroke_c	c	n/a
270.124	0.034	540248	keystroke_r	r	n/a
270.214	0.114	540428	keystroke_i	i	n/a
270.2945	0.167	540589	keystroke_m	m	n/a
270.4725	0.113	540945	keystroke_i	i	n/a
270.5745	0.1235	541149	keystroke_n	n	n/a
270.7205	0.079	541441	keystroke_a	a	n/a
270.822	0.0785	541644	keystroke_l	l	n/a
270.923	0.101	541846	keystroke_Key.space	Key.space	n/a
271.0915	0.124	542183	keystroke_p	p	n/a
271.1705	0.112	542341	keystroke_o	o	n/a
271.3165	0.113	542633	keystroke_s	s	n/a
271.678	0.0775	543356	keystroke_s	s	n/a
271.836	0.0665	543672	keystroke_i	i	n/a
271.958	0.079	543916	keystroke_b	b	n/a
272.0595	0.0785	544119	keystroke_l	l	n/a
272.2055	0.101	544411	keystroke_y	y	n/a
272.4755	0.0785	544951	keystroke_Key.enter	Key.enter	n/a
272.561	15.688	545122	prompt	n/a	variety tennessee roommate pleased\n
275.0405	0.0785	550081	keystroke_v	v	n/a
275.1755	0.09	550351	keystroke_a	a	n/a
275.4115	0.1125	550823	keystroke_r	r	n/a
275.6255	0.0785	551251	keystroke_i	i	n/a
275.749	0.079	551498	keystroke_e	e	n/a
275.9405	0.0675	551881	keystroke_t	t	n/a
276.165	0.0905	552330	keystroke_y	y	n/a
276.278	0.0675	552556	keystroke_Key.space	Key.space	n/a
276.84	0.0685	553680	keystroke_t	t	n/a
277.021	0.0675	554042	keystroke_e	e	n/a
277.516	0.045	555032	keystroke_n	n	n/a
277.65	0.0795	555300	keystroke_n	n	n/a
277.786	0.067	555572	keystroke_e	e	n/a
277.9995	0.0785	555999	keystroke_e	e	n/a
278.4045	0.0565	556809	keystroke_Key.backspace	Key.backspace	n/a
278.539	0.068	557078	keystroke_s	s	n/a
278.6855	0.09	557371	keystroke_s	s	n/a
278.8995	0.056	557799	keystroke_e	e	n/a
279.0565	0.08	558113	keystroke_s	s	n/a
279.1695	0.034	558339	keystroke_s	s	n/a
279.338	0.045	558676	keystroke_s	s	n/a
279.6085	0.0555	559217	keystroke_Key.backspace	Key.backspace	n/a
279.732	0.0675	559464	keystroke_Key.backspace	Key.backspace	n/a
280.3505	0.068	560701	keystroke_Key.backspace	Key.backspace	n/a
280.497	0.0785	560994	keystroke_e	e	n/a
280.8905	0.0675	561781	keystroke_Key.space	Key.space	n/a
283.67	0.056	567340	keystroke_r	r	n/a
283.849	0.079	567698	keystroke_o	o	n/a
284.0405	0.1015	568081	keystroke_o	o	n/a
284.1755	0.09	568351	keystroke_m	m	n/a
284.369	0.067	568738	keystroke_m	m	n/a
284.513	0.0785	569026	keystroke_a	a	n/a
284.738	0.0675	569476	keystroke_t	t	n/a
285.7165	0.068	571433	keystroke_e	e	n/a
285.953	0.0675	571906	keystroke_Key.space	Key.space	n/a
286.29	0.113	572580	keystroke_p	p	n/a
286.3695	0.101	572739	keystroke_l	l	n/a
286.5155	0.079	573031	keystroke_e	e	n/a
286.786	0.067	573572	keystroke_a	a	n/a
286.9545	0.067	573909	keystroke_s	s	n/a
287.1455	0.079	574291	keystroke_e	e	n/a
287.6855	0.0675	575371	keystroke_d	d	n/a
288.1805	0.0675	576361	keystroke_Key.enter	Key.enter	n/a
288.255	13.269	576510	prompt	n/a	confidential single placing latina\n
288.9565	0.0675	577913	keystroke_c	c	n/a
289.058	0.1125	578116	keystroke_o	o	n/a
289.137	0.1015	578274	keystroke_n	n	n/a
289.2495	0.056	578499	keystroke_f	f	n/a
289.362	0.0785	578724	keystroke_i	i	n/a
289.4855	0.056	578971	keystroke_d	d	n/a
289.6205	0.067	579241	keystroke_e	e	n/a
289.767	0.1025	579534	keystroke_n	n	n/a
290.0145	0.045	580029	keystroke_t	t	n/a
290.678	0.1015	581356	keystroke_i	i	n/a
290.9145	0.056	581829	keystroke_a	a	n/a
290.9945	0.0665	581989	keystroke_l	l	n/a
291.1395	0.079	582279	keystroke_Key.space	Key.space	n/a
297.485	0.0785	594970	keystroke_s	s	n/a
297.6085	0.123	595217	keystroke_i	i	n/a
297.6755	0.0905	595351	keystroke_n	n	n/a
297.755	0.0785	595510	keystroke_g	g	n/a
297.878	0.09	595756	keystroke_l	l	n/a
297.979	0.0675	595958	keystroke_e	e	n/a
298.1035	0.101	596207	keystroke_Key.space	Key.space	n/a
298.2945	0.1015	596589	keystroke_p	p	n/a
298.3395	0.1015	596679	keystroke_l	l	n/a
298.4295	0.0895	596859	keystroke_a	a	n/a
298.598	0.09	597196	keystroke_c	c	n/a
298.7985	0.0475	597597	keystroke_e	e	n/a
298.981	0.101	597962	keystroke_d	d	n/a
299.1045	0.0785	598209	keystroke_Key.space	Key.space	n/a
299.554	0.057	599108	keystroke_Key.backspace	Key.backspace	n/a
299.689	0.068	599378	keystroke_Key.backspace	Key.backspace	n/a
299.838	0.0535	599676	keystroke_Key.backspace	Key.backspace	n/a
300.072	0.124	600144	keystroke_i	i	n/a
300.1505	0.113	600301	keystroke_n	n	n/a
300.2745	0.09	600549	keystroke_g	g	n/a
300.3645	0.08	600729	keystroke_Key.space	Key.space	n/a
300.499	0.0795	600998	keystroke_l	l	n/a
300.5895	0.0795	601179	keystroke_a	a	n/a
300.713	0.0785	601426	keystroke_t	t	n/a
300.815	0.1135	601630	keystroke_i	i	n/a
300.882	0.113	601764	keystroke_n	n	n/a
300.9715	0.0795	601943	keystroke_a	a	n/a
301.456	0.067	602912	keystroke_Key.enter	Key.enter	n/a
301.5295	4.6745	603059	prompt	n/a	revisions weblogs twist funky\n
302.164	0.1245	604328	keystroke_r	r	n/a
302.266	0.067	604532	keystroke_e	e	n/a
302.436	0.077	604872	keystroke_v	v	n/a
302.5695	0.056	605139	keystroke_i	i	n/a
302.661	0.067	605322	keystroke_s	s	n/a
302.7495	0.1235	605499	keystroke_i	i	n/a
302.817	0.1575	605634	keystroke_o	o	n/a
302.9295	0.112	605859	keystroke_n	n	n/a
303.0645	0.067	606129	keystroke_s	s	n/a
303.2	0.0895	606400	keystroke_Key.space	Key.space	n/a
303.346	0.101	606692	keystroke_w	w	n/a
303.424	0.079	606848	keystroke_e	e	n/a
303.582	0.101	607164	keystroke_b	b	n/a
303.7955	0.068	607591	keystroke_l	l	n/a
303.942	0.09	607884	keystroke_o	o	n/a
304.122	0.0675	608244	keystroke_g	g	n/a
304.2695	0.0885	608539	keystroke_s	s	n/a
304.3915	0.103	608783	keystroke_Key.space	Key.space	n/a
304.561	0.0785	609122	keystroke_t	t	n/a
304.6735	0.101	609347	keystroke_w	w	n/a
304.831	0.067	609662	keystroke_i	i	n/a
304.9205	0.124	609841	keystroke_s	s	n/a
305.0335	0.1235	610067	keystroke_t	t	n/a
305.146	0.067	610292	keystroke_Key.space	Key.space	n/a
305.281	0.0805	610562	keystroke_f	f	n/a
305.371	0.09	610742	keystroke_u	u	n/a
305.5615	0.1245	611123	keystroke_n	n	n/a
305.6635	0.09	611327	keystroke_k	k	n/a
305.866	0.09	611732	keystroke_y	y	n/a
306.113	0.09	612226	keystroke_Key.enter	Key.enter	n/a
306.2095	3.5495	612419	prompt	n/a	ma'am rear just hans\n
306.8445	0.0785	613689	keystroke_m	m	n/a
306.9355	0.089	613871	keystroke_a	a	n/a
307.171	0.0785	614342	keystroke_'	'	n/a
307.497	0.0785	614994	keystroke_a	a	n/a
307.621	0.0675	615242	keystroke_m	m	n/a
307.802	0.077	615604	keystroke_Key.space	Key.space	n/a
307.9695	0.1235	615939	keystroke_r	r	n/a
308.0375	0.1005	616075	keystroke_e	e	n/a
308.161	0.1235	616322	keystroke_a	a	n/a
308.273	0.113	616546	keystroke_r	r	n/a
308.3975	0.0665	616795	keystroke_Key.space	Key.space	n/a
308.5315	0.0795	617063	keystroke_j	j	n/a
308.7025	0.0765	617405	keystroke_u	u	n/a
308.7905	0.101	617581	keystroke_s	s	n/a
308.8355	0.101	617671	keystroke_t	t	n/a
308.903	0.079	617806	keystroke_Key.space	Key.space	n/a
309.0495	0.079	618099	keystroke_h	h	n/a
309.1395	0.1015	618279	keystroke_a	a	n/a
309.286	0.101	618572	keystroke_n	n	n/a
309.398	0.0565	618796	keystroke_s	s	n/a
309.7025	0.056	619405	keystroke_Key.enter	Key.enter	n/a
309.7655	4.235	619531	prompt	n/a	tied said international rome\n
310.4445	0.068	620889	keystroke_t	t	n/a
310.613	0.056	621226	keystroke_i	i	n/a
310.703	0.0675	621406	keystroke_e	e	n/a
310.883	0.079	621766	keystroke_d	d	n/a
310.9735	0.0785	621947	keystroke_Key.space	Key.space	n/a
311.1195	0.0785	622239	keystroke_s	s	n/a
311.266	0.0895	622532	keystroke_a	a	n/a
311.4115	0.079	622823	keystroke_i	i	n/a
311.479	0.0795	622958	keystroke_d	d	n/a
311.5475	0.101	623095	keystroke_Key.space	Key.space	n/a
311.682	0.1235	623364	keystroke_i	i	n/a
311.772	0.1125	623544	keystroke_n	n	n/a
311.896	0.078	623792	keystroke_t	t	n/a
312.0645	0.0895	624129	keystroke_e	e	n/a
312.111	0.089	624222	keystroke_r	r	n/a
312.2685	0.1005	624537	keystroke_n	n	n/a
312.379	0.1355	624758	keystroke_a	a	n/a
312.481	0.09	624962	keystroke_t	t	n/a
312.604	0.2145	625208	keystroke_i	i	n/a
312.6945	0.1465	625389	keystroke_o	o	n/a
312.796	0.1125	625592	keystroke_n	n	n/a
312.886	0.0895	625772	keystroke_a	a	n/a
313.032	0.1125	626064	keystroke_l	l	n/a
313.156	0.0895	626312	keystroke_Key.space	Key.space	n/a
313.3355	0.09	626671	keystroke_r	r	n/a
313.459	0.1585	626918	keystroke_o	o	n/a
313.5715	0.1245	627143	keystroke_m	m	n/a
313.7295	0.0565	627459	keystroke_e	e	n/a
313.9205	0.0785	627841	keystroke_Key.enter	Key.enter	n/a
314.008	4.898	628016	prompt	n/a	monday edition encouraging views\n
314.573	0.1355	629146	keystroke_m	m	n/a
314.686	0.135	629372	keystroke_o	o	n/a
314.832	0.1015	629664	keystroke_n	n	n/a
314.9555	0.101	629911	keystroke_d	d	n/a
315.0235	0.08	630047	keystroke_a	a	n/a
315.1245	0.101	630249	keystroke_y	y	n/a
315.226	0.102	630452	keystroke_Key.space	Key.space	n/a
315.4395	0.1125	630879	keystroke_e	e	n/a
315.6645	0.09	631329	keystroke_d	d	n/a
315.7775	0.078	631555	keystroke_i	i	n/a
315.903	0.0875	631806	keystroke_t	t	n/a
316.002	0.1355	632004	keystroke_i	i	n/a
316.081	0.157	632162	keystroke_o	o	n/a
316.1945	0.111	632389	keystroke_n	n	n/a
316.272	0.1015	632544	keystroke_Key.space	Key.space	n/a
316.396	0.101	632792	keystroke_e	e	n/a
316.6775	0.1345	633355	keystroke_n	n	n/a
316.836	0.0885	633672	keystroke_c	c	n/a
316.9585	0.146	633917	keystroke_o	o	n/a
317.0705	0.1015	634141	keystroke_u	u	n/a
317.172	0.0785	634344	keystroke_r	r	n/a
317.273	0.079	634546	keystroke_a	a	n/a
317.498	0.068	634996	keystroke_g	g	n/a
317.6215	0.114	635243	keystroke_i	i	n/a
317.69	0.112	635380	keystroke_n	n	n/a
317.836	0.125	635672	keystroke_g	g	n/a
317.9375	0.09	635875	keystroke_Key.space	Key.space	n/a
318.117	0.0675	636234	keystroke_v	v	n/a
318.2295	0.09	636459	keystroke_i	i	n/a
318.3645	0.1235	636729	keystroke_e	e	n/a
318.4435	0.0895	636887	keystroke_w	w	n/a
318.612	0.0785	637224	keystroke_s	s	n/a
318.8485	0.0565	637697	keystroke_Key.enter	Key.enter	n/a
318.912	4.696	637824	prompt	n/a	stakeholders slowly showed arab\n
319.5235	0.101	639047	keystroke_s	s	n/a
319.647	0.1015	639294	keystroke_t	t	n/a
319.737	0.0905	639474	keystroke_a	a	n/a
319.8715	0.113	639743	keystroke_k	k	n/a
319.9735	0.0675	639947	keystroke_e	e	n/a
320.142	0.1125	640284	keystroke_h	h	n/a
320.209	0.079	640418	keystroke_o	o	n/a
320.378	0.079	640756	keystroke_l	l	n/a
320.4905	0.079	640981	keystroke_d	d	n/a
320.637	0.1245	641274	keystroke_e	e	n/a
320.728	0.0665	641456	keystroke_r	r	n/a
320.8625	0.0895	641725	keystroke_s	s	n/a
320.9745	0.0675	641949	keystroke_Key.space	Key.space	n/a
321.144	0.1005	642288	keystroke_s	s	n/a
321.256	0.08	642512	keystroke_l	l	n/a
321.413	0.079	642826	keystroke_o	o	n/a
321.5035	0.067	643007	keystroke_w	w	n/a
321.672	0.1015	643344	keystroke_l	l	n/a
321.751	0.09	643502	keystroke_y	y	n/a
321.852	0.1235	643704	keystroke_Key.space	Key.space	n/a
321.9645	0.0905	643929	keystroke_s	s	n/a
322.1225	0.1135	644245	keystroke_h	h	n/a
322.212	0.091	644424	keystroke_o	o	n/a
322.358	0.1035	644716	keystroke_w	w	n/a
322.505	0.0785	645010	keystroke_e	e	n/a
322.7405	0.012	645481	keystroke_d	d	n/a
322.786	0.101	645572	keystroke_Key.space	Key.space	n/a
322.9205	0.124	645841	keystroke_a	a	n/a
323.0115	0.0915	646023	keystroke_r	r	n/a
323.157	0.0905	646314	keystroke_a	a	n/a
323.3035	0.091	646607	keystroke_b	b	n/a
323.551	0.056	647102	keystroke_Key.enter	Key.enter	n/a
323.6155	15.417	647231	prompt	n/a	exotic vegetation birthday candles\n
324.2255	0.079	648451	keystroke_e	e	n/a
324.3945	0.0905	648789	keystroke_x	x	n/a
324.5635	0.079	649127	keystroke_o	o	n/a
324.7545	0.045	649509	keystroke_c	c	n/a
325.1255	0.069	650251	keystroke_Key.backspace	Key.backspace	n/a
325.272	0.079	650544	keystroke_t	t	n/a
325.4295	0.1015	650859	keystroke_i	i	n/a
325.5195	0.0785	651039	keystroke_c	c	n/a
325.645	0.0995	651290	keystroke_Key.space	Key.space	n/a
325.902	0.1015	651804	keystroke_v	v	n/a
326.0595	0.0785	652119	keystroke_e	e	n/a
326.183	0.079	652366	keystroke_g	g	n/a
326.5445	0.1675	653089	keystroke_a	a	n/a
326.702	0.0885	653404	keystroke_t	t	n/a
326.8925	0.1685	653785	keystroke_i	i	n/a
326.9945	0.1335	653989	keystroke_o	o	n/a
327.0945	0.124	654189	keystroke_n	n	n/a
327.2295	0.09	654459	keystroke_Key.space	Key.space	n/a
327.533	0.069	655066	keystroke_b	b	n/a
327.657	0.1015	655314	keystroke_i	i	n/a
327.77	0.0675	655540	keystroke_r	r	n/a
327.9495	0.0675	655899	keystroke_t	t	n/a
328.062	0.1015	656124	keystroke_h	h	n/a
328.1975	0.1005	656395	keystroke_d	d	n/a
328.2755	0.0905	656551	keystroke_a	a	n/a
328.4685	0.1005	656937	keystroke_y	y	n/a
328.5905	0.079	657181	keystroke_Key.space	Key.space	n/a
328.7705	0.079	657541	keystroke_c	c	n/a
328.9175	0.09	657835	keystroke_a	a	n/a
329.041	0.09	658082	keystroke_n	n	n/a
329.198	0.09	658396	keystroke_d	d	n/a
329.369	0.088	658738	keystroke_l	l	n/a
329.5245	0.113	659049	keystroke_e	e	n/a
329.907	0.338	659814	keystroke_Key.backspace	Key.backspace	n/a
330.369	0.0445	660738	keystroke_Key.backspace	Key.backspace	n/a
330.537	0.045	661074	keystroke_Key.backspace	Key.backspace	n/a
330.683	0.0565	661366	keystroke_Key.backspace	Key.backspace	n/a
330.8635	0.056	661727	keystroke_Key.backspace	Key.backspace	n/a
331.0545	0.0565	662109	keystroke_Key.backspace	Key.backspace	n/a
331.236	0.0545	662472	keystroke_Key.backspace	Key.backspace	n/a
331.415	0.0335	662830	keystroke_Key.backspace	Key.backspace	n/a
331.5615	0.044	663123	keystroke_Key.backspace	Key.backspace	n/a
331.7185	0.056	663437	keystroke_Key.backspace	Key.backspace	n/a
331.887	0.045	663774	keystroke_Key.backspace	Key.backspace	n/a
332.045	0.0555	664090	keystroke_Key.backspace	Key.backspace	n/a
332.213	0.034	664426	keystroke_Key.backspace	Key.backspace	n/a
332.371	0.0445	664742	keystroke_Key.backspace	Key.backspace	n/a
332.5395	0.046	665079	keystroke_Key.backspace	Key.backspace	n/a
332.7195	0.056	665439	keystroke_Key.backspace	Key.backspace	n/a
332.922	0.068	665844	keystroke_Key.backspace	Key.backspace	n/a
333.137	0.0775	666274	keystroke_Key.backspace	Key.backspace	n/a
335.627	0.055	671254	keystroke_e	e	n/a
335.8825	0.091	671765	keystroke_t	t	n/a
336.006	0.1005	672012	keystroke_a	a	n/a
336.0875	0.064	672175	keystroke_t	t	n/a
336.221	0.2215	672442	keystroke_i	i	n/a
336.309	0.172	672618	keystroke_o	o	n/a
336.446	0.1105	672892	keystroke_n	n	n/a
336.512	0.0895	673024	keystroke_Key.space	Key.space	n/a
336.759	0.102	673518	keystroke_b	b	n/a
336.9055	0.081	673811	keystroke_i	i	n/a
336.9865	0.078	673973	keystroke_r	r	n/a
337.163	0.0795	674326	keystroke_t	t	n/a
337.287	0.1045	674574	keystroke_h	h	n/a
337.411	0.1015	674822	keystroke_d	d	n/a
337.49	0.0895	674980	keystroke_a	a	n/a
337.613	0.1015	675226	keystroke_y	y	n/a
337.7035	0.079	675407	keystroke_Key.space	Key.space	n/a
337.853	0.099	675706	keystroke_c	c	n/a
337.986	0.1	675972	keystroke_a	a	n/a
338.131	0.101	676262	keystroke_n	n	n/a
338.2655	0.079	676531	keystroke_d	d	n/a
338.4015	0.078	676803	keystroke_l	l	n/a
338.502	0.113	677004	keystroke_e	e	n/a
338.682	0.079	677364	keystroke_s	s	n/a
338.9745	0.057	677949	keystroke_Key.enter	Key.enter	n/a
339.04	5.6055	678080	prompt	n/a	companies germany carefully admit\n
339.7195	0.066	679439	keystroke_c	c	n/a
339.886	0.1585	679772	keystroke_o	o	n/a
339.9755	0.193	679951	keystroke_m	m	n/a
340.133	0.1125	680266	keystroke_p	p	n/a
340.2905	0.113	680581	keystroke_a	a	n/a
340.4275	0.1335	680855	keystroke_n	n	n/a
340.516	0.1025	681032	keystroke_i	i	n/a
340.652	0.145	681304	keystroke_e	e	n/a
340.7855	0.1015	681571	keystroke_s	s	n/a
340.9205	0.079	681841	keystroke_Key.space	Key.space	n/a
341.0445	0.1125	682089	keystroke_g	g	n/a
341.202	0.1015	682404	keystroke_e	e	n/a
341.371	0.09	682742	keystroke_r	r	n/a
341.63	0.1125	683260	keystroke_m	m	n/a
341.787	0.091	683574	keystroke_a	a	n/a
341.9335	0.0895	683867	keystroke_n	n	n/a
342.147	0.079	684294	keystroke_y	y	n/a
342.2375	0.0785	684475	keystroke_Key.space	Key.space	n/a
342.3945	0.091	684789	keystroke_c	c	n/a
342.541	0.1345	685082	keystroke_a	a	n/a
342.687	0.1125	685374	keystroke_r	r	n/a
342.778	0.089	685556	keystroke_e	e	n/a
342.9455	0.079	685891	keystroke_f	f	n/a
343.081	0.1465	686162	keystroke_u	u	n/a
343.194	0.0915	686388	keystroke_l	l	n/a
343.385	0.112	686770	keystroke_l	l	n/a
343.4745	0.09	686949	keystroke_y	y	n/a
343.598	0.0905	687196	keystroke_Key.space	Key.space	n/a
343.734	0.112	687468	keystroke_a	a	n/a
343.868	0.09	687736	keystroke_d	d	n/a
343.992	0.1465	687984	keystroke_m	m	n/a
344.095	0.124	688190	keystroke_i	i	n/a
344.296	0.067	688592	keystroke_t	t	n/a
344.588	0.0565	689176	keystroke_Key.enter	Key.enter	n/a
344.651	6.036	689302	prompt	n/a	blessed direct breath strap\n
345.3305	0.0675	690661	keystroke_b	b	n/a
345.556	0.045	691112	keystroke_e	e	n/a
345.8595	0.0685	691719	keystroke_Key.backspace	Key.backspace	n/a
346.085	0.067	692170	keystroke_l	l	n/a
346.2425	0.0445	692485	keystroke_e	e	n/a
346.4225	0.056	692845	keystroke_s	s	n/a
346.5905	0.068	693181	keystroke_s	s	n/a
346.782	0.07	693564	keystroke_e	e	n/a
346.9735	0.0565	693947	keystroke_d	d	n/a
347.131	0.0785	694262	keystroke_Key.space	Key.space	n/a
347.5475	0.0675	695095	keystroke_d	d	n/a
347.6945	0.0665	695389	keystroke_i	i	n/a
347.8395	0.1465	695679	keystroke_r	r	n/a
347.9525	0.0895	695905	keystroke_e	e	n/a
348.178	0.0575	696356	keystroke_c	c	n/a
348.3575	0.0895	696715	keystroke_t	t	n/a
348.458	0.079	696916	keystroke_Key.space	Key.space	n/a
348.628	0.0775	697256	keystroke_b	b	n/a
348.8525	0.123	697705	keystroke_r	r	n/a
348.9645	0.135	697929	keystroke_e	e	n/a
349.088	0.147	698176	keystroke_a	a	n/a
349.257	0.0905	698514	keystroke_t	t	n/a
349.4145	0.113	698829	keystroke_h	h	n/a
349.5495	0.0795	699099	keystroke_Key.space	Key.space	n/a
349.7295	0.135	699459	keystroke_s	s	n/a
349.831	0.1015	699662	keystroke_t	t	n/a
350.011	0.124	700022	keystroke_r	r	n/a
350.1015	0.1005	700203	keystroke_a	a	n/a
350.281	0.113	700562	keystroke_p	p	n/a
350.6185	0.0675	701237	keystroke_Key.enter	Key.enter	n/a
350.6925	5.8105	701385	prompt	n/a	interpreted science installations dealt\n
351.334	0.111	702668	keystroke_i	i	n/a
351.455	0.109	702910	keystroke_n	n	n/a
351.5525	0.0805	703105	keystroke_t	t	n/a
351.701	0.1115	703402	keystroke_e	e	n/a
351.772	0.096	703544	keystroke_r	r	n/a
351.9365	0.0775	703873	keystroke_p	p	n/a
352.025	0.131	704050	keystroke_r	r	n/a
352.115	0.115	704230	keystroke_e	e	n/a
352.2535	0.0865	704507	keystroke_t	t	n/a
352.3965	0.1015	704793	keystroke_e	e	n/a
352.599	0.0905	705198	keystroke_d	d	n/a
352.6795	0.077	705359	keystroke_Key.space	Key.space	n/a
352.8245	0.067	705649	keystroke_s	s	n/a
352.9815	0.081	705963	keystroke_c	c	n/a
353.0965	0.076	706193	keystroke_i	i	n/a
353.1865	0.0765	706373	keystroke_e	e	n/a
353.308	0.101	706616	keystroke_n	n	n/a
353.387	0.078	706774	keystroke_c	c	n/a
353.555	0.101	707110	keystroke_e	e	n/a
353.6335	0.0785	707267	keystroke_Key.space	Key.space	n/a
353.769	0.135	707538	keystroke_i	i	n/a
353.8475	0.124	707695	keystroke_n	n	n/a
353.9265	0.123	707853	keystroke_s	s	n/a
353.995	0.1	707990	keystroke_t	t	n/a
354.106	0.0675	708212	keystroke_a	a	n/a
354.207	0.0565	708414	keystroke_l	l	n/a
354.3425	0.0895	708685	keystroke_l	l	n/a
354.4545	0.113	708909	keystroke_a	a	n/a
354.501	0.0775	709002	keystroke_t	t	n/a
354.59	0.2025	709180	keystroke_i	i	n/a
354.669	0.1455	709338	keystroke_o	o	n/a
354.77	0.1255	709540	keystroke_n	n	n/a
354.871	0.115	709742	keystroke_s	s	n/a
354.972	0.08	709944	keystroke_Key.space	Key.space	n/a
355.1525	0.079	710305	keystroke_d	d	n/a
355.3325	0.1015	710665	keystroke_e	e	n/a
355.366	0.1125	710732	keystroke_a	a	n/a
355.5345	0.1125	711069	keystroke_l	l	n/a
355.692	0.0785	711384	keystroke_t	t	n/a
356.435	0.067	712870	keystroke_Key.enter	Key.enter	n/a
356.5085	5.1715	713017	prompt	n/a	structural carriers witch irish\n
357.1095	0.079	714219	keystroke_s	s	n/a
357.3345	0.056	714669	keystroke_t	t	n/a
357.492	0.0785	714984	keystroke_r	r	n/a
357.6385	0.0895	715277	keystroke_u	u	n/a
357.74	0.079	715480	keystroke_c	c	n/a
357.9535	0.0785	715907	keystroke_t	t	n/a
358.0885	0.09	716177	keystroke_u	u	n/a
358.201	0.101	716402	keystroke_r	r	n/a
358.2795	0.1015	716559	keystroke_a	a	n/a
358.415	0.0795	716830	keystroke_l	l	n/a
358.516	0.0895	717032	keystroke_Key.space	Key.space	n/a
358.707	0.079	717414	keystroke_c	c	n/a
358.9095	0.1465	717819	keystroke_a	a	n/a
359.045	0.0785	718090	keystroke_r	r	n/a
359.1905	0.0905	718381	keystroke_r	r	n/a
359.3595	0.0785	718719	keystroke_i	i	n/a
359.472	0.1135	718944	keystroke_e	e	n/a
359.5395	0.0905	719079	keystroke_r	r	n/a
359.7085	0.101	719417	keystroke_s	s	n/a
359.821	0.0675	719642	keystroke_Key.space	Key.space	n/a
359.956	0.09	719912	keystroke_w	w	n/a
360.1695	0.0915	720339	keystroke_i	i	n/a
360.305	0.067	720610	keystroke_t	t	n/a
360.4965	0.078	720993	keystroke_c	c	n/a
360.597	0.0785	721194	keystroke_h	h	n/a
360.687	0.091	721374	keystroke_Key.space	Key.space	n/a
360.835	0.089	721670	keystroke_i	i	n/a
360.9465	0.067	721893	keystroke_r	r	n/a
361.115	0.09	722230	keystroke_i	i	n/a
361.216	0.0675	722432	keystroke_s	s	n/a
361.3395	0.09	722679	keystroke_h	h	n/a
361.5985	0.08	723197	keystroke_Key.enter	Key.enter	n/a
361.6875	5.604	723375	prompt	n/a	profits herself unemployment nurse\n
362.3415	0.101	724683	keystroke_p	p	n/a
362.476	0.0685	724952	keystroke_r	r	n/a
362.5785	0.078	725157	keystroke_o	o	n/a
362.69	0.079	725380	keystroke_f	f	n/a
362.814	0.0675	725628	keystroke_i	i	n/a
363.095	0.067	726190	keystroke_t	t	n/a
363.2525	0.078	726505	keystroke_s	s	n/a
363.3645	0.0675	726729	keystroke_Key.space	Key.space	n/a
363.511	0.0895	727022	keystroke_h	h	n/a
363.624	0.089	727248	keystroke_e	e	n/a
363.657	0.1015	727314	keystroke_r	r	n/a
363.848	0.102	727696	keystroke_s	s	n/a
363.972	0.0905	727944	keystroke_e	e	n/a
364.13	0.0785	728260	keystroke_l	l	n/a
364.1975	0.112	728395	keystroke_f	f	n/a
364.2755	0.0795	728551	keystroke_Key.space	Key.space	n/a
364.3885	0.0785	728777	keystroke_u	u	n/a
364.5905	0.102	729181	keystroke_n	n	n/a
364.726	0.079	729452	keystroke_e	e	n/a
364.8605	0.1805	729721	keystroke_m	m	n/a
364.996	0.1235	729992	keystroke_p	p	n/a
365.0745	0.09	730149	keystroke_l	l	n/a
365.2655	0.103	730531	keystroke_o	o	n/a
365.345	0.101	730690	keystroke_y	y	n/a
365.6035	0.112	731207	keystroke_m	m	n/a
365.7495	0.0785	731499	keystroke_e	e	n/a
365.8735	0.1015	731747	keystroke_n	n	n/a
365.986	0.0785	731972	keystroke_t	t	n/a
366.1445	0.0665	732289	keystroke_Key.space	Key.space	n/a
366.324	0.089	732648	keystroke_n	n	n/a
366.515	0.0795	733030	keystroke_u	u	n/a
366.6165	0.078	733233	keystroke_r	r	n/a
366.8185	0.124	733637	keystroke_s	s	n/a
366.931	0.101	733862	keystroke_e	e	n/a
367.223	0.0675	734446	keystroke_Key.enter	Key.enter	n/a
367.297	4.9455	734594	prompt	n/a	basis babes an reward\n
367.9775	0.0675	735955	keystroke_b	b	n/a
368.146	0.056	736292	keystroke_i	i	n/a
368.519	0.066	737038	keystroke_Key.backspace	Key.backspace	n/a
368.6635	0.0685	737327	keystroke_a	a	n/a
368.8325	0.0685	737665	keystroke_s	s	n/a
368.969	0.066	737938	keystroke_i	i	n/a
369.0685	0.067	738137	keystroke_s	s	n/a
369.1925	0.0685	738385	keystroke_Key.space	Key.space	n/a
369.3275	0.078	738655	keystroke_b	b	n/a
369.429	0.1345	738858	keystroke_a	a	n/a
369.711	0.01	739422	keystroke_b	b	n/a
369.9125	0.0675	739825	keystroke_e	e	n/a
370.0925	0.056	740185	keystroke_s	s	n/a
370.228	0.0775	740456	keystroke_Key.space	Key.space	n/a
370.3625	0.078	740725	keystroke_a	a	n/a
370.475	0.0895	740950	keystroke_n	n	n/a
370.5985	0.103	741197	keystroke_Key.space	Key.space	n/a
370.7445	0.1125	741489	keystroke_a	a	n/a
371.0945	0.0775	742189	keystroke_Key.backspace	Key.backspace	n/a
371.3185	0.1125	742637	keystroke_r	r	n/a
371.442	0.0785	742884	keystroke_e	e	n/a
371.622	0.113	743244	keystroke_w	w	n/a
371.735	0.1125	743470	keystroke_a	a	n/a
371.8355	0.0795	743671	keystroke_r	r	n/a
372.0165	0.067	744033	keystroke_d	d	n/a
372.185	0.056	744370	keystroke_Key.enter	Key.enter	n/a
372.2475	4.359	744495	prompt	n/a	yorkshire cedar town timer\n
372.9045	0.0805	745809	keystroke_y	y	n/a
373.085	0.0785	746170	keystroke_o	o	n/a
373.22	0.067	746440	keystroke_r	r	n/a
373.3095	0.09	746619	keystroke_k	k	n/a
373.4345	0.078	746869	keystroke_s	s	n/a
373.568	0.1125	747136	keystroke_h	h	n/a
373.6475	0.0895	747295	keystroke_i	i	n/a
373.794	0.1245	747588	keystroke_r	r	n/a
373.8835	0.1125	747767	keystroke_e	e	n/a
374.007	0.0785	748014	keystroke_Key.space	Key.space	n/a
374.187	0.0795	748374	keystroke_c	c	n/a
374.39	0.0895	748780	keystroke_e	e	n/a
374.604	0.067	749208	keystroke_d	d	n/a
374.817	0.1355	749634	keystroke_a	a	n/a
374.9635	0.101	749927	keystroke_r	r	n/a
375.0755	0.0925	750151	keystroke_Key.space	Key.space	n/a
375.29	0.0445	750580	keystroke_t	t	n/a
375.391	0.0895	750782	keystroke_o	o	n/a
375.5035	0.079	751007	keystroke_w	w	n/a
375.6165	0.089	751233	keystroke_n	n	n/a
375.706	0.113	751412	keystroke_Key.space	Key.space	n/a
375.83	0.0785	751660	keystroke_t	t	n/a
375.9535	0.112	751907	keystroke_i	i	n/a
376.032	0.136	752064	keystroke_m	m	n/a
376.1785	0.1465	752357	keystroke_e	e	n/a
376.2795	0.0905	752559	keystroke_r	r	n/a
376.5385	0.067	753077	keystroke_Key.enter	Key.enter	n/a
376.6125	6.126	753225	prompt	n/a	passenger roulette juvenile beast\n
377.361	0.0905	754722	keystroke_p	p	n/a
377.4605	0.09	754921	keystroke_a	a	n/a
377.6745	0.045	755349	keystroke_s	s	n/a
377.7985	0.0795	755597	keystroke_s	s	n/a
377.956	0.09	755912	keystroke_e	e	n/a
378.0795	0.0905	756159	keystroke_n	n	n/a
378.215	0.0895	756430	keystroke_g	g	n/a
378.406	0.1235	756812	keystroke_e	e	n/a
378.4625	0.112	756925	keystroke_r	r	n/a
378.552	0.1015	757104	keystroke_Key.space	Key.space	n/a
378.6875	0.09	757375	keystroke_r	r	n/a
378.8345	0.1335	757669	keystroke_o	o	n/a
378.935	0.0895	757870	keystroke_u	u	n/a
379.34	0.0785	758680	keystroke_l	l	n/a
379.576	0.0685	759152	keystroke_e	e	n/a
379.8345	0.0565	759669	keystroke_t	t	n/a
380.0035	0.057	760007	keystroke_t	t	n/a
380.1275	0.1125	760255	keystroke_e	e	n/a
380.2175	0.09	760435	keystroke_Key.space	Key.space	n/a
380.375	0.0785	760750	keystroke_j	j	n/a
380.532	0.0905	761064	keystroke_u	u	n/a
380.6675	0.0895	761335	keystroke_v	v	n/a
380.802	0.1015	761604	keystroke_e	e	n/a
380.9275	0.111	761855	keystroke_n	n	n/a
381.061	0.146	762122	keystroke_i	i	n/a
381.196	0.09	762392	keystroke_l	l	n/a
381.3645	0.1015	762729	keystroke_e	e	n/a
381.4775	0.0905	762955	keystroke_Key.space	Key.space	n/a
381.6005	0.124	763201	keystroke_b	b	n/a
381.781	0.101	763562	keystroke_e	e	n/a
381.9275	0.1125	763855	keystroke_a	a	n/a
382.141	0.1575	764282	keystroke_s	s	n/a
382.2875	0.0905	764575	keystroke_t	t	n/a
382.67	0.0675	765340	keystroke_Key.enter	Key.enter	n/a
382.7455	6.2025	765491	prompt	n/a	districts represent cologne prospect\n
383.39	0.0675	766780	keystroke_d	d	n/a
383.491	0.079	766982	keystroke_i	i	n/a
383.626	0.093	767252	keystroke_s	s	n/a
383.8285	0.0675	767657	keystroke_t	t	n/a
383.9865	0.078	767973	keystroke_r	r	n/a
384.076	0.079	768152	keystroke_i	i	n/a
384.234	0.078	768468	keystroke_c	c	n/a
384.4245	0.0565	768849	keystroke_t	t	n/a
384.5715	0.08	769143	keystroke_s	s	n/a
384.685	0.0775	769370	keystroke_Key.space	Key.space	n/a
384.8415	0.1005	769683	keystroke_r	r	n/a
384.8975	0.101	769795	keystroke_e	e	n/a
385.1785	0.0115	770357	keystroke_p	p	n/a
385.235	0.112	770470	keystroke_r	r	n/a
385.3925	0.1125	770785	keystroke_e	e	n/a
385.551	0.111	771102	keystroke_s	s	n/a
385.6285	0.1015	771257	keystroke_e	e	n/a
385.7975	0.101	771595	keystroke_n	n	n/a
385.911	0.0775	771822	keystroke_t	t	n/a
386.0225	0.0675	772045	keystroke_Key.space	Key.space	n/a
386.236	0.0785	772472	keystroke_c	c	n/a
386.326	0.079	772652	keystroke_o	o	n/a
386.4945	0.057	772989	keystroke_l	l	n/a
386.6525	0.0785	773305	keystroke_o	o	n/a
386.8105	0.067	773621	keystroke_g	g	n/a
386.945	0.09	773890	keystroke_n	n	n/a
387.1245	0.0345	774249	keystroke_e	e	n/a
387.406	0.0785	774812	keystroke_Key.space	Key.space	n/a
387.6645	0.102	775329	keystroke_p	p	n/a
387.789	0.0675	775578	keystroke_r	r	n/a
387.89	0.0895	775780	keystroke_o	o	n/a
387.991	0.068	775982	keystroke_s	s	n/a
388.1605	0.0905	776321	keystroke_p	p	n/a
388.261	0.0575	776522	keystroke_e	e	n/a
388.4525	0.0675	776905	keystroke_c	c	n/a
388.6545	0.068	777309	keystroke_t	t	n/a
388.8795	0.0675	777759	keystroke_Key.enter	Key.enter	n/a
388.9535	5.012	777907	prompt	n/a	reviewed assure tragedy alternate\n
389.532	0.1465	779064	keystroke_r	r	n/a
389.6675	0.0675	779335	keystroke_e	e	n/a
389.836	0.0915	779672	keystroke_v	v	n/a
389.9485	0.079	779897	keystroke_i	i	n/a
390.061	0.101	780122	keystroke_e	e	n/a
390.1285	0.124	780257	keystroke_w	w	n/a
390.264	0.1005	780528	keystroke_e	e	n/a
390.4775	0.09	780955	keystroke_d	d	n/a
390.5565	0.1345	781113	keystroke_Key.space	Key.space	n/a
390.702	0.0675	781404	keystroke_a	a	n/a
390.792	0.0785	781584	keystroke_s	s	n/a
390.961	0.1015	781922	keystroke_s	s	n/a
391.1525	0.0785	782305	keystroke_u	u	n/a
391.2645	0.1465	782529	keystroke_r	r	n/a
391.3995	0.09	782799	keystroke_e	e	n/a
391.501	0.0785	783002	keystroke_Key.space	Key.space	n/a
391.659	0.09	783318	keystroke_t	t	n/a
391.8275	0.1015	783655	keystroke_r	r	n/a
391.906	0.0785	783812	keystroke_a	a	n/a
392.0525	0.101	784105	keystroke_g	g	n/a
392.1645	0.102	784329	keystroke_e	e	n/a
392.368	0.067	784736	keystroke_d	d	n/a
392.491	0.1125	784982	keystroke_y	y	n/a
392.626	0.0785	785252	keystroke_Key.space	Key.space	n/a
392.7495	0.079	785499	keystroke_a	a	n/a
392.84	0.101	785680	keystroke_l	l	n/a
392.9865	0.078	785973	keystroke_t	t	n/a
393.1325	0.1235	786265	keystroke_e	e	n/a
393.222	0.0675	786444	keystroke_r	r	n/a
393.3235	0.101	786647	keystroke_n	n	n/a
393.4135	0.1015	786827	keystroke_a	a	n/a
393.504	0.157	787008	keystroke_t	t	n/a
393.6275	0.101	787255	keystroke_e	e	n/a
393.9085	0.056	787817	keystroke_Key.enter	Key.enter	n/a
393.9725	7.092	787945	prompt	n/a	ericsson interstate english partition\n
394.5385	0.079	789077	keystroke_e	e	n/a
395.0335	0.0675	790067	keystroke_r	r	n/a
395.3145	0.0795	790629	keystroke_i	i	n/a
395.518	0.0555	791036	keystroke_c	c	n/a
395.7645	0.09	791529	keystroke_s	s	n/a
395.956	0.068	791912	keystroke_s	s	n/a
396.091	0.1365	792182	keystroke_o	o	n/a
396.249	0.123	792498	keystroke_n	n	n/a
396.3945	0.079	792789	keystroke_Key.space	Key.space	n/a
396.507	0.1125	793014	keystroke_i	i	n/a
396.62	0.1125	793240	keystroke_n	n	n/a
396.9015	0.011	793803	keystroke_t	t	n/a
396.9795	0.124	793959	keystroke_e	e	n/a
397.0475	0.0785	794095	keystroke_r	r	n/a
397.218	0.1105	794436	keystroke_s	s	n/a
397.306	0.1015	794612	keystroke_t	t	n/a
397.419	0.1235	794838	keystroke_a	a	n/a
397.5315	0.1575	795063	keystroke_t	t	n/a
397.678	0.146	795356	keystroke_e	e	n/a
397.756	0.0565	795512	keystroke_Key.space	Key.space	n/a
398.802	0.068	797604	keystroke_e	e	n/a
398.915	0.1025	797830	keystroke_n	n	n/a
399.0275	0.067	798055	keystroke_g	g	n/a
399.1395	0.124	798279	keystroke_l	l	n/a
399.23	0.09	798460	keystroke_i	i	n/a
399.3535	0.079	798707	keystroke_s	s	n/a
399.4445	0.1005	798889	keystroke_h	h	n/a
399.5565	0.1005	799113	keystroke_Key.space	Key.space	n/a
399.6795	0.09	799359	keystroke_p	p	n/a
399.826	0.1245	799652	keystroke_a	a	n/a
399.9185	0.0875	799837	keystroke_r	r	n/a
400.119	0.0785	800238	keystroke_t	t	n/a
400.2535	0.0785	800507	keystroke_i	i	n/a
400.366	0.09	800732	keystroke_t	t	n/a
400.479	0.1685	800958	keystroke_i	i	n/a
400.5685	0.182	801137	keystroke_o	o	n/a
400.737	0.102	801474	keystroke_n	n	n/a
401.007	0.0565	802014	keystroke_Key.enter	Key.enter	n/a
401.0705	6.317	802141	prompt	n/a	protect jennifer postings comment\n
401.772	0.0905	803544	keystroke_p	p	n/a
401.93	0.0675	803860	keystroke_r	r	n/a
402.0195	0.0675	804039	keystroke_o	o	n/a
402.1665	0.0895	804333	keystroke_t	t	n/a
402.3015	0.0895	804603	keystroke_e	e	n/a
402.504	0.081	805008	keystroke_c	c	n/a
402.672	0.0905	805344	keystroke_t	t	n/a
402.718	0.0895	805436	keystroke_Key.space	Key.space	n/a
402.886	0.101	805772	keystroke_j	j	n/a
402.9985	0.0675	805997	keystroke_e	e	n/a
403.134	0.09	806268	keystroke_n	n	n/a
403.2685	0.0675	806537	keystroke_f	f	n/a
403.359	0.0785	806718	keystroke_i	i	n/a
403.7185	0.068	807437	keystroke_Key.backspace	Key.backspace	n/a
403.8645	0.068	807729	keystroke_Key.backspace	Key.backspace	n/a
404.1015	0.078	808203	keystroke_n	n	n/a
404.3145	0.0705	808629	keystroke_i	i	n/a
404.4845	0.1005	808969	keystroke_f	f	n/a
404.7315	0.0895	809463	keystroke_e	e	n/a
404.8885	0.101	809777	keystroke_r	r	n/a
405.0015	0.0895	810003	keystroke_Key.space	Key.space	n/a
405.159	0.135	810318	keystroke_p	p	n/a
405.361	0.101	810722	keystroke_o	o	n/a
405.497	0.078	810994	keystroke_s	s	n/a
405.6425	0.103	811285	keystroke_t	t	n/a
405.7675	0.1225	811535	keystroke_i	i	n/a
405.8565	0.123	811713	keystroke_n	n	n/a
405.9465	0.078	811893	keystroke_g	g	n/a
406.0695	0.113	812139	keystroke_s	s	n/a
406.171	0.079	812342	keystroke_Key.space	Key.space	n/a
406.374	0.09	812748	keystroke_c	c	n/a
406.4975	0.0785	812995	keystroke_o	o	n/a
406.587	0.0465	813174	keystroke_m	m	n/a
406.722	0.079	813444	keystroke_m	m	n/a
406.8465	0.0785	813693	keystroke_e	e	n/a
406.9475	0.101	813895	keystroke_n	n	n/a
407.0715	0.0895	814143	keystroke_t	t	n/a
407.3295	0.057	814659	keystroke_Key.enter	Key.enter	n/a
407.3925	4.2585	814785	prompt	n/a	number it'd rail absolute\n
408.1285	0.068	816257	keystroke_n	n	n/a
408.2975	0.056	816595	keystroke_u	u	n/a
408.4675	0.111	816935	keystroke_m	m	n/a
408.5675	0.0895	817135	keystroke_b	b	n/a
408.7475	0.1015	817495	keystroke_e	e	n/a
408.7695	0.125	817539	keystroke_r	r	n/a
408.8945	0.0665	817789	keystroke_Key.space	Key.space	n/a
409.0285	0.0905	818057	keystroke_i	i	n/a
409.175	0.0785	818350	keystroke_t	t	n/a
409.334	0.1	818668	keystroke_'	'	n/a
409.501	0.0675	819002	keystroke_d	d	n/a
409.625	0.103	819250	keystroke_Key.space	Key.space	n/a
409.8945	0.1015	819789	keystroke_r	r	n/a
410.03	0.067	820060	keystroke_a	a	n/a
410.1315	0.1125	820263	keystroke_i	i	n/a
410.187	0.1245	820374	keystroke_l	l	n/a
410.3225	0.09	820645	keystroke_Key.space	Key.space	n/a
410.4685	0.0675	820937	keystroke_a	a	n/a
410.581	0.09	821162	keystroke_b	b	n/a
410.7275	0.0895	821455	keystroke_s	s	n/a
410.8285	0.0675	821657	keystroke_o	o	n/a
411.0085	0.1125	822017	keystroke_l	l	n/a
411.087	0.114	822174	keystroke_u	u	n/a
411.222	0.1465	822444	keystroke_t	t	n/a
411.357	0.0795	822714	keystroke_e	e	n/a
411.5945	0.0555	823189	keystroke_Key.enter	Key.enter	n/a
411.6565	6.172	823313	prompt	n/a	homeless reporter annie pavilion\n
412.291	0.113	824582	keystroke_h	h	n/a
412.471	0.1465	824942	keystroke_o	o	n/a
412.606	0.1015	825212	keystroke_m	m	n/a
412.7415	0.079	825483	keystroke_e	e	n/a
412.8875	0.0805	825775	keystroke_l	l	n/a
412.989	0.067	825978	keystroke_e	e	n/a
413.1685	0.068	826337	keystroke_s	s	n/a
413.328	0.0885	826656	keystroke_s	s	n/a
413.428	0.0675	826856	keystroke_Key.space	Key.space	n/a
413.597	0.1115	827194	keystroke_r	r	n/a
413.664	0.101	827328	keystroke_e	e	n/a
413.855	0.09	827710	keystroke_p	p	n/a
413.901	0.101	827802	keystroke_o	o	n/a
414.024	0.0785	828048	keystroke_r	r	n/a
414.204	0.079	828408	keystroke_t	t	n/a
414.3835	0.1015	828767	keystroke_e	e	n/a
414.4285	0.124	828857	keystroke_r	r	n/a
414.541	0.068	829082	keystroke_Key.space	Key.space	n/a
414.6315	0.0795	829263	keystroke_a	a	n/a
414.789	0.0795	829578	keystroke_n	n	n/a
414.957	0.1125	829914	keystroke_n	n	n/a
415.0585	0.09	830117	keystroke_i	i	n/a
415.1945	0.089	830389	keystroke_e	e	n/a
415.3625	0.09	830725	keystroke_Key.space	Key.space	n/a
415.5535	0.135	831107	keystroke_p	p	n/a
415.6885	0.113	831377	keystroke_a	a	n/a
415.8125	0.101	831625	keystroke_r	r	n/a
416.206	0.0675	832412	keystroke_Key.backspace	Key.backspace	n/a
416.341	0.079	832682	keystroke_v	v	n/a
416.501	0.088	833002	keystroke_i	i	n/a
416.7015	0.0895	833403	keystroke_l	l	n/a
416.9035	0.135	833807	keystroke_i	i	n/a
417.0045	0.192	834009	keystroke_o	o	n/a
417.208	0.112	834416	keystroke_n	n	n/a
417.7475	0.08	835495	keystroke_Key.enter	Key.enter	n/a
417.834	5.868	835668	prompt	n/a	corruption chat loved mpeg\n
418.557	0.0795	837114	keystroke_c	c	n/a
418.6815	0.09	837363	keystroke_o	o	n/a
418.7825	0.09	837565	keystroke_r	r	n/a
419.1205	0.0555	838241	keystroke_r	r	n/a
419.3115	0.112	838623	keystroke_p	p	n/a
419.6485	0.056	839297	keystroke_Key.backspace	Key.backspace	n/a
419.8515	0.1235	839703	keystroke_u	u	n/a
419.93	0.1015	839860	keystroke_p	p	n/a
420.076	0.091	840152	keystroke_t	t	n/a
420.201	0.2015	840402	keystroke_i	i	n/a
420.2675	0.146	840535	keystroke_o	o	n/a
420.459	0.102	840918	keystroke_Key.space	Key.space	n/a
420.965	0.079	841930	keystroke_Key.backspace	Key.backspace	n/a
421.212	0.1015	842424	keystroke_n	n	n/a
421.381	0.0795	842762	keystroke_Key.space	Key.space	n/a
421.5725	0.0785	843145	keystroke_c	c	n/a
421.696	0.102	843392	keystroke_h	h	n/a
421.809	0.102	843618	keystroke_a	a	n/a
421.9445	0.1115	843889	keystroke_t	t	n/a
422.0565	0.067	844113	keystroke_Key.space	Key.space	n/a
422.191	0.0675	844382	keystroke_l	l	n/a
422.361	0.0555	844722	keystroke_o	o	n/a
422.461	0.113	844922	keystroke_v	v	n/a
422.5965	0.1005	845193	keystroke_e	e	n/a
422.8105	0.09	845621	keystroke_d	d	n/a
422.868	0.0885	845736	keystroke_Key.space	Key.space	n/a
423.035	0.1465	846070	keystroke_m	m	n/a
423.1475	0.113	846295	keystroke_p	p	n/a
423.283	0.0895	846566	keystroke_e	e	n/a
423.4175	0.09	846835	keystroke_g	g	n/a
423.62	0.081	847240	keystroke_Key.enter	Key.enter	n/a
423.709	5.031	847418	prompt	n/a	arrested carter archives handle\n
424.261	0.0675	848522	keystroke_a	a	n/a
424.408	0.0785	848816	keystroke_r	r	n/a
424.5535	0.1125	849107	keystroke_r	r	n/a
424.7015	0.134	849403	keystroke_e	e	n/a
424.802	0.135	849604	keystroke_s	s	n/a
424.9135	0.1355	849827	keystroke_t	t	n/a
425.0175	0.077	850035	keystroke_e	e	n/a
425.2175	0.0785	850435	keystroke_d	d	n/a
425.3185	0.0675	850637	keystroke_Key.space	Key.space	n/a
425.511	0.067	851022	keystroke_c	c	n/a
425.623	0.1345	851246	keystroke_a	a	n/a
425.7125	0.09	851425	keystroke_r	r	n/a
425.881	0.09	851762	keystroke_t	t	n/a
426.039	0.1125	852078	keystroke_e	e	n/a
426.095	0.1015	852190	keystroke_r	r	n/a
426.174	0.0905	852348	keystroke_Key.space	Key.space	n/a
426.545	0.079	853090	keystroke_a	a	n/a
426.725	0.0695	853450	keystroke_r	r	n/a
426.9165	0.0785	853833	keystroke_c	c	n/a
427.0405	0.1115	854081	keystroke_h	h	n/a
427.1075	0.101	854215	keystroke_i	i	n/a
427.22	0.0805	854440	keystroke_v	v	n/a
427.367	0.0775	854734	keystroke_e	e	n/a
427.5685	0.068	855137	keystroke_s	s	n/a
427.704	0.078	855408	keystroke_Key.space	Key.space	n/a
427.8385	0.079	855677	keystroke_h	h	n/a
427.9285	0.0905	855857	keystroke_a	a	n/a
428.03	0.0905	856060	keystroke_n	n	n/a
428.1535	0.0805	856307	keystroke_d	d	n/a
428.255	0.068	856510	keystroke_l	l	n/a
428.3565	0.0555	856713	keystroke_e	e	n/a
428.684	0.055	857368	keystroke_Key.enter	Key.enter	n/a
428.7455	5.8	857491	prompt	n/a	manufacturing spell region miller\n
429.4475	0.056	858895	keystroke_m	m	n/a
429.55	0.089	859100	keystroke_a	a	n/a
429.695	0.0785	859390	keystroke_n	n	n/a
429.8975	0.0675	859795	keystroke_u	u	n/a
430.044	0.09	860088	keystroke_f	f	n/a
430.1455	0.0785	860291	keystroke_a	a	n/a
430.291	0.079	860582	keystroke_c	c	n/a
430.4825	0.0785	860965	keystroke_t	t	n/a
430.64	0.0905	861280	keystroke_u	u	n/a
430.7415	0.0785	861483	keystroke_r	r	n/a
430.887	0.135	861774	keystroke_i	i	n/a
430.989	0.1125	861978	keystroke_n	n	n/a
431.09	0.1125	862180	keystroke_g	g	n/a
431.191	0.0905	862382	keystroke_Key.space	Key.space	n/a
431.6635	0.079	863327	keystroke_s	s	n/a
431.7985	0.113	863597	keystroke_p	p	n/a
431.9225	0.079	863845	keystroke_e	e	n/a
432.2485	0.056	864497	keystroke_l	l	n/a
432.3945	0.068	864789	keystroke_l	l	n/a
432.6535	0.0115	865307	keystroke_Key.space	Key.space	n/a
432.8115	0.1005	865623	keystroke_r	r	n/a
432.9235	0.09	865847	keystroke_e	e	n/a
433.094	0.0775	866188	keystroke_g	g	n/a
433.1945	0.1455	866389	keystroke_i	i	n/a
433.2945	0.147	866589	keystroke_o	o	n/a
433.419	0.1015	866838	keystroke_n	n	n/a
433.531	0.08	867062	keystroke_Key.space	Key.space	n/a
433.6775	0.0905	867355	keystroke_m	m	n/a
433.8235	0.09	867647	keystroke_i	i	n/a
433.891	0.0805	867782	keystroke_l	l	n/a
434.0605	0.0675	868121	keystroke_l	l	n/a
434.1835	0.1125	868367	keystroke_e	e	n/a
434.251	0.09	868502	keystroke_r	r	n/a
434.501	0.0435	869002	keystroke_Key.enter	Key.enter	n/a
434.551	5.4385	869102	prompt	n/a	welsh descending inside bases\n
435.118	0.101	870236	keystroke_w	w	n/a
435.2415	0.09	870483	keystroke_e	e	n/a
435.378	0.088	870756	keystroke_l	l	n/a
435.5895	0.068	871179	keystroke_s	s	n/a
435.7135	0.1035	871427	keystroke_h	h	n/a
435.916	0.079	871832	keystroke_Key.space	Key.space	n/a
436.277	0.0675	872554	keystroke_d	d	n/a
436.445	0.0905	872890	keystroke_e	e	n/a
436.5685	0.102	873137	keystroke_s	s	n/a
437.244	0.09	874488	keystroke_c	c	n/a
437.48	0.0675	874960	keystroke_e	e	n/a
437.6275	0.111	875255	keystroke_n	n	n/a
437.761	0.068	875522	keystroke_d	d	n/a
437.8965	0.1235	875793	keystroke_i	i	n/a
437.964	0.1135	875928	keystroke_n	n	n/a
438.031	0.09	876062	keystroke_g	g	n/a
438.1105	0.0785	876221	keystroke_Key.space	Key.space	n/a
438.268	0.112	876536	keystroke_i	i	n/a
438.3465	0.101	876693	keystroke_n	n	n/a
438.459	0.0685	876918	keystroke_s	s	n/a
438.5945	0.0785	877189	keystroke_i	i	n/a
438.6725	0.0675	877345	keystroke_d	d	n/a
438.8185	0.0905	877637	keystroke_e	e	n/a
438.8975	0.0675	877795	keystroke_Key.space	Key.space	n/a
439.021	0.102	878042	keystroke_b	b	n/a
439.1565	0.09	878313	keystroke_a	a	n/a
439.2125	0.1575	878425	keystroke_s	s	n/a
439.3365	0.1245	878673	keystroke_e	e	n/a
439.4485	0.09	878897	keystroke_s	s	n/a
439.934	0.0545	879868	keystroke_Key.enter	Key.enter	n/a
439.9955	11.818	879991	prompt	n/a	amongst hats stopped explaining\n
446.5365	0.0675	893073	keystroke_a	a	n/a
446.6375	0.135	893275	keystroke_m	m	n/a
446.953	0.0335	893906	keystroke_o	o	n/a
446.964	0.1025	893928	keystroke_n	n	n/a
447.0875	0.068	894175	keystroke_g	g	n/a
447.2565	0.112	894513	keystroke_s	s	n/a
447.324	0.1125	894648	keystroke_t	t	n/a
447.4945	0.0995	894989	keystroke_Key.space	Key.space	n/a
447.7175	0.1125	895435	keystroke_h	h	n/a
447.7965	0.101	895593	keystroke_a	a	n/a
447.875	0.079	895750	keystroke_t	t	n/a
448.044	0.09	896088	keystroke_s	s	n/a
448.145	0.09	896290	keystroke_Key.space	Key.space	n/a
448.561	0.079	897122	keystroke_s	s	n/a
448.764	0.0695	897528	keystroke_t	t	n/a
449.09	0.0785	898180	keystroke_o	o	n/a
449.675	0.0925	899350	keystroke_p	p	n/a
449.867	0.067	899734	keystroke_p	p	n/a
449.9795	0.056	899959	keystroke_e	e	n/a
450.159	0.09	900318	keystroke_d	d	n/a
450.261	0.089	900522	keystroke_Key.space	Key.space	n/a
450.4065	0.0445	900813	keystroke_e	e	n/a
450.5645	0.08	901129	keystroke_x	x	n/a
450.667	0.111	901334	keystroke_p	p	n/a
450.734	0.1	901468	keystroke_l	l	n/a
450.8565	0.068	901713	keystroke_a	a	n/a
450.9915	0.124	901983	keystroke_i	i	n/a
451.104	0.124	902208	keystroke_n	n	n/a
451.239	0.135	902478	keystroke_i	i	n/a
451.351	0.1015	902702	keystroke_n	n	n/a
451.475	0.0675	902950	keystroke_g	g	n/a
451.745	0.0675	903490	keystroke_Key.enter	Key.enter	n/a
451.8205	5.6975	903641	prompt	n/a	couples judgment twin harry\n
452.4205	0.101	904841	keystroke_c	c	n/a
452.568	0.145	905136	keystroke_o	o	n/a
452.657	0.1005	905314	keystroke_u	u	n/a
452.859	0.1125	905718	keystroke_p	p	n/a
452.928	0.111	905856	keystroke_l	l	n/a
453.061	0.0905	906122	keystroke_e	e	n/a
453.2865	0.0905	906573	keystroke_s	s	n/a
453.8715	0.0565	907743	keystroke_Key.backspace	Key.backspace	n/a
454.0625	0.101	908125	keystroke_s	s	n/a
454.233	0.088	908466	keystroke_Key.space	Key.space	n/a
454.3885	0.0905	908777	keystroke_j	j	n/a
454.5575	0.079	909115	keystroke_u	u	n/a
454.67	0.0785	909340	keystroke_d	d	n/a
454.8505	0.09	909701	keystroke_g	g	n/a
454.94	0.1125	909880	keystroke_e	e	n/a
