onset	duration	sample	value	key	prompt_text
2.6975	12.089	5395	prompt	n/a	the quick brown fox jumps over a lazy dog\n
4.7035	0.079	9407	keystroke_t	t	n/a
4.8065	0.072	9613	keystroke_h	h	n/a
4.8795	0.071	9759	keystroke_e	e	n/a
4.9905	0.08	9981	keystroke_Key.space	Key.space	n/a
5.5825	0.128	11165	keystroke_q	q	n/a
5.7185	0.072	11437	keystroke_u	u	n/a
5.9035	0.079	11807	keystroke_i	i	n/a
6.0145	0.088	12029	keystroke_c	c	n/a
6.127	0.081	12254	keystroke_k	k	n/a
6.255	0.104	12510	keystroke_Key.space	Key.space	n/a
6.468	0.0715	12936	keystroke_b	b	n/a
6.8115	0.08	13623	keystroke_o	o	n/a
7.1265	0.0805	14253	keystroke_Key.backspace	Key.backspace	n/a
7.263	0.1115	14526	keystroke_r	r	n/a
7.4305	0.0965	14861	keystroke_o	o	n/a
7.575	0.072	15150	keystroke_w	w	n/a
7.751	0.08	15502	keystroke_n	n	n/a
7.9835	0.08	15967	keystroke_Key.space	Key.space	n/a
9.735	0.072	19470	keystroke_f	f	n/a
9.847	0.088	19694	keystroke_o	o	n/a
10.071	0.072	20142	keystroke_x	x	n/a
10.183	0.08	20366	keystroke_Key.space	Key.space	n/a
10.455	0.088	20910	keystroke_j	j	n/a
10.615	0.08	21230	keystroke_u	u	n/a
10.799	0.0645	21598	keystroke_m	m	n/a
10.9195	0.08	21839	keystroke_p	p	n/a
11.0475	0.072	22095	keystroke_s	s	n/a
11.1835	0.08	22367	keystroke_Key.space	Key.space	n/a
11.3035	0.08	22607	keystroke_o	o	n/a
11.4155	0.104	22831	keystroke_v	v	n/a
11.5835	0.096	23167	keystroke_e	e	n/a
11.7915	0.088	23583	keystroke_r	r	n/a
12.0315	0.096	24063	keystroke_Key.space	Key.space	n/a
12.1595	0.096	24319	keystroke_a	a	n/a
12.2635	0.08	24527	keystroke_Key.space	Key.space	n/a
12.4555	0.096	24911	keystroke_l	l	n/a
12.6475	0.096	25295	keystroke_a	a	n/a
13.104	0.12	26208	keystroke_z	z	n/a
13.3675	0.096	26735	keystroke_y	y	n/a
13.6475	0.072	27295	keystroke_Key.space	Key.space	n/a
13.8555	0.104	27711	keystroke_d	d	n/a
13.9915	0.088	27983	keystroke_o	o	n/a
14.1595	0.072	28319	keystroke_g	g	n/a
14.7035	0.08	29407	keystroke_Key.enter	Key.enter	n/a
14.794	13.4325	29588	prompt	n/a	browsing who ensemble seniors\n
15.7195	0.0805	31439	keystroke_b	b	n/a
15.944	0.088	31888	keystroke_r	r	n/a
16.0795	0.0805	32159	keystroke_o	o	n/a
16.4715	0.0965	32943	keystroke_w	w	n/a
16.9605	0.127	33921	keystroke_z	z	n/a
17.1755	0.097	34351	keystroke_i	i	n/a
17.304	0.096	34608	keystroke_n	n	n/a
17.44	0.08	34880	keystroke_g	g	n/a
17.592	0.071	35184	keystroke_Key.space	Key.space	n/a
17.7035	0.072	35407	keystroke_w	w	n/a
17.8155	0.064	35631	keystroke_h	h	n/a
17.9995	0.1045	35999	keystroke_o	o	n/a
18.1355	0.088	36271	keystroke_Key.space	Key.space	n/a
18.2955	0.088	36591	keystroke_e	e	n/a
18.4955	0.08	36991	keystroke_n	n	n/a
19.672	0.096	39344	keystroke_Key.backspace	Key.backspace	n/a
19.8795	0.072	39759	keystroke_Key.backspace	Key.backspace	n/a
20.0475	0.072	40095	keystroke_Key.backspace	Key.backspace	n/a
20.2155	0.072	40431	keystroke_Key.backspace	Key.backspace	n/a
20.3835	0.064	40767	keystroke_Key.backspace	Key.backspace	n/a
20.5595	0.064	41119	keystroke_Key.backspace	Key.backspace	n/a
20.7355	0.072	41471	keystroke_Key.backspace	Key.backspace	n/a
20.9125	0.072	41825	keystroke_Key.backspace	Key.backspace	n/a
21.0805	0.088	42161	keystroke_Key.backspace	Key.backspace	n/a
21.2645	0.072	42529	keystroke_Key.backspace	Key.backspace	n/a
21.4485	0.056	42897	keystroke_Key.backspace	Key.backspace	n/a
21.6405	0.088	43281	keystroke_s	s	n/a
21.7765	0.088	43553	keystroke_i	i	n/a
21.9045	0.08	43809	keystroke_n	n	n/a
22.0405	0.072	44081	keystroke_g	g	n/a
22.1685	0.08	44337	keystroke_Key.space	Key.space	n/a
22.3765	0.048	44753	keystroke_w	w	n/a
22.4725	0.072	44945	keystroke_h	h	n/a
22.656	0.088	45312	keystroke_o	o	n/a
22.816	0.104	45632	keystroke_Key.space	Key.space	n/a
22.968	0.088	45936	keystroke_e	e	n/a
23.144	0.0725	46288	keystroke_n	n	n/a
23.36	0.088	46720	keystroke_s	s	n/a
23.801	0.087	47602	keystroke_e	e	n/a
24.104	0.024	48208	keystroke_v	v	n/a
24.552	0.088	49104	keystroke_Key.backspace	Key.backspace	n/a
24.784	0.088	49568	keystroke_m	m	n/a
25	0.096	50000	keystroke_b	b	n/a
25.3285	0.0955	50657	keystroke_l	l	n/a
25.6005	0.096	51201	keystroke_e	e	n/a
25.9925	0.096	51985	keystroke_Key.space	Key.space	n/a
26.2565	0.088	52513	keystroke_s	s	n/a
26.4325	0.088	52865	keystroke_e	e	n/a
26.5605	0.08	53121	keystroke_n	n	n/a
26.7125	0.088	53425	keystroke_i	i	n/a
26.9205	0.096	53841	keystroke_o	o	n/a
27.2165	0.12	54433	keystroke_r	r	n/a
27.7605	0.088	55521	keystroke_s	s	n/a
28.1445	0.08	56289	keystroke_Key.enter	Key.enter	n/a
28.233	10.5785	56466	prompt	n/a	savage reflect adipex dropped\n
28.8325	0.096	57665	keystroke_s	s	n/a
29.0165	0.096	58033	keystroke_a	a	n/a
29.2165	0.104	58433	keystroke_v	v	n/a
29.4485	0.096	58897	keystroke_a	a	n/a
29.6725	0.08	59345	keystroke_g	g	n/a
29.8245	0.096	59649	keystroke_e	e	n/a
30.0485	0.104	60097	keystroke_Key.space	Key.space	n/a
30.3045	0.08	60609	keystroke_r	r	n/a
30.4485	0.088	60897	keystroke_e	e	n/a
30.7295	0.023	61459	keystroke_g	g	n/a
31.1365	0.088	62273	keystroke_Key.backspace	Key.backspace	n/a
31.8485	0.08	63697	keystroke_f	f	n/a
31.9685	0.08	63937	keystroke_l	l	n/a
32.0565	0.072	64113	keystroke_e	e	n/a
32.225	0.096	64450	keystroke_c	c	n/a
32.513	0.072	65026	keystroke_t	t	n/a
32.841	0.104	65682	keystroke_Key.space	Key.space	n/a
33.153	0.096	66306	keystroke_a	a	n/a
33.401	0.104	66802	keystroke_d	d	n/a
33.585	0.08	67170	keystroke_i	i	n/a
33.809	0.088	67618	keystroke_p	p	n/a
33.993	0.08	67986	keystroke_e	e	n/a
34.241	0.088	68482	keystroke_x	x	n/a
34.801	0.096	69602	keystroke_Key.space	Key.space	n/a
35.033	0.096	70066	keystroke_d	d	n/a
35.241	0.08	70482	keystroke_r	r	n/a
35.793	0.088	71586	keystroke_o	o	n/a
36.017	0.064	72034	keystroke_p	p	n/a
36.153	0.072	72306	keystroke_p	p	n/a
36.273	0.08	72546	keystroke_e	e	n/a
36.457	0.088	72914	keystroke_d	d	n/a
38.7295	0.08	77459	keystroke_Key.enter	Key.enter	n/a
38.8185	7.7215	77637	prompt	n/a	connections hired deviant 'tis\n
39.5855	0.08	79171	keystroke_c	c	n/a
39.6975	0.088	79395	keystroke_o	o	n/a
39.8655	0.072	79731	keystroke_n	n	n/a
40.0175	0.088	80035	keystroke_n	n	n/a
40.1535	0.088	80307	keystroke_e	e	n/a
40.3535	0.104	80707	keystroke_c	c	n/a
40.6175	0.072	81235	keystroke_t	t	n/a
40.7535	0.088	81507	keystroke_i	i	n/a
40.9615	0.08	81923	keystroke_o	o	n/a
41.1375	0.088	82275	keystroke_n	n	n/a
41.3055	0.096	82611	keystroke_s	s	n/a
41.4415	0.072	82883	keystroke_Key.space	Key.space	n/a
41.6255	0.08	83251	keystroke_h	h	n/a
41.8175	0.08	83635	keystroke_i	i	n/a
41.9375	0.096	83875	keystroke_r	r	n/a
42.0735	0.08	84147	keystroke_e	e	n/a
42.2735	0.088	84547	keystroke_d	d	n/a
42.5215	0.08	85043	keystroke_Key.space	Key.space	n/a
42.8095	0.096	85619	keystroke_d	d	n/a
42.9775	0.088	85955	keystroke_e	e	n/a
43.1855	0.08	86371	keystroke_v	v	n/a
43.3055	0.08	86611	keystroke_i	i	n/a
43.4095	0.08	86819	keystroke_a	a	n/a
43.5055	0.08	87011	keystroke_n	n	n/a
43.6255	0.08	87251	keystroke_t	t	n/a
43.8575	0.088	87715	keystroke_Key.space	Key.space	n/a
45.6575	0.096	91315	keystroke_'	'	n/a
46.0015	0.072	92003	keystroke_t	t	n/a
46.1615	0.088	92323	keystroke_i	i	n/a
46.3135	0.08	92627	keystroke_s	s	n/a
46.4735	0.064	92947	keystroke_Key.enter	Key.enter	n/a
46.5455	11.708	93091	prompt	n/a	client vote colon verified\n
47.354	0.096	94708	keystroke_c	c	n/a
47.5375	0.112	95075	keystroke_l	l	n/a
47.858	0.064	95716	keystroke_e	e	n/a
48.1695	0.072	96339	keystroke_Key.backspace	Key.backspace	n/a
48.426	0.088	96852	keystroke_i	i	n/a
48.578	0.072	97156	keystroke_e	e	n/a
48.682	0.072	97364	keystroke_n	n	n/a
48.954	0.072	97908	keystroke_t	t	n/a
49.194	0.088	98388	keystroke_Key.space	Key.space	n/a
49.442	0.0635	98884	keystroke_b	b	n/a
49.5775	0.08	99155	keystroke_o	o	n/a
49.7615	0.064	99523	keystroke_t	t	n/a
50.002	0.088	100004	keystroke_Key.backspace	Key.backspace	n/a
50.17	0.072	100340	keystroke_Key.backspace	Key.backspace	n/a
50.314	0.072	100628	keystroke_Key.backspace	Key.backspace	n/a
50.426	0.08	100852	keystroke_v	v	n/a
50.626	0.072	101252	keystroke_o	o	n/a
50.77	0.08	101540	keystroke_t	t	n/a
50.978	0.088	101956	keystroke_e	e	n/a
52.082	0.112	104164	keystroke_Key.space	Key.space	n/a
52.346	0.096	104692	keystroke_c	c	n/a
52.45	0.096	104900	keystroke_o	o	n/a
52.666	0.072	105332	keystroke_l	l	n/a
52.826	0.088	105652	keystroke_o	o	n/a
52.986	0.088	105972	keystroke_n	n	n/a
53.202	0.096	106404	keystroke_Key.space	Key.space	n/a
53.466	0.096	106932	keystroke_v	v	n/a
53.69	0.096	107380	keystroke_e	e	n/a
53.866	0.088	107732	keystroke_r	r	n/a
54.018	0.088	108036	keystroke_i	i	n/a
54.978	0.088	109956	keystroke_f	f	n/a
55.13	0.08	110260	keystroke_i	i	n/a
55.25	0.08	110500	keystroke_e	e	n/a
55.434	0.096	110868	keystroke_d	d	n/a
58.1785	0.072	116357	keystroke_Key.enter	Key.enter	n/a
58.258	7.691	116516	prompt	n/a	why's committees john rice\n
59.434	0.096	118868	keystroke_w	w	n/a
59.546	0.064	119092	keystroke_h	h	n/a
59.706	0.072	119412	keystroke_y	y	n/a
60.034	0.104	120068	keystroke_s	s	n/a
61.034	0.104	122068	keystroke_Key.backspace	Key.backspace	n/a
61.386	0.112	122772	keystroke_'	'	n/a
61.626	0.088	123252	keystroke_s	s	n/a
61.826	0.088	123652	keystroke_Key.space	Key.space	n/a
62.074	0.088	124148	keystroke_c	c	n/a
62.194	0.08	124388	keystroke_o	o	n/a
62.362	0.064	124724	keystroke_m	m	n/a
62.498	0.08	124996	keystroke_m	m	n/a
62.794	0.096	125588	keystroke_i	i	n/a
63.074	0.08	126148	keystroke_t	t	n/a
63.242	0.08	126484	keystroke_t	t	n/a
63.402	0.104	126804	keystroke_e	e	n/a
63.834	0.088	127668	keystroke_e	e	n/a
64.05	0.08	128100	keystroke_s	s	n/a
64.442	0.08	128884	keystroke_Key.space	Key.space	n/a
64.634	0.064	129268	keystroke_j	j	n/a
64.786	0.072	129572	keystroke_o	o	n/a
64.962	0.088	129924	keystroke_i	i	n/a
65.154	0.048	130308	keystroke_n	n	n/a
65.282	0.088	130564	keystroke_Key.space	Key.space	n/a
65.434	0.072	130868	keystroke_r	r	n/a
65.522	0.064	131044	keystroke_i	i	n/a
65.658	0.064	131316	keystroke_c	c	n/a
65.77	0.072	131540	keystroke_e	e	n/a
65.874	0.072	131748	keystroke_Key.enter	Key.enter	n/a
65.9555	11.3765	131911	prompt	n/a	received medication banks enlarge\n
66.642	0.096	133284	keystroke_r	r	n/a
66.826	0.088	133652	keystroke_e	e	n/a
67.186	0.088	134372	keystroke_c	c	n/a
67.81	0.1045	135620	keystroke_e	e	n/a
68.1385	0.104	136277	keystroke_o	o	n/a
68.3455	0.073	136691	keystroke_v	v	n/a
68.6655	0.072	137331	keystroke_Key.backspace	Key.backspace	n/a
68.8015	0.072	137603	keystroke_Key.backspace	Key.backspace	n/a
69.0345	0.072	138069	keystroke_i	i	n/a
69.5215	0.08	139043	keystroke_v	v	n/a
70.3215	0.113	140643	keystroke_e	e	n/a
70.9385	0.095	141877	keystroke_d	d	n/a
71.8175	0.097	143635	keystroke_Key.space	Key.space	n/a
72.0655	0.105	144131	keystroke_m	m	n/a
72.1785	0.08	144357	keystroke_e	e	n/a
72.3385	0.096	144677	keystroke_d	d	n/a
72.441	0.073	144882	keystroke_i	i	n/a
72.626	0.087	145252	keystroke_c	c	n/a
72.777	0.088	145554	keystroke_a	a	n/a
72.977	0.064	145954	keystroke_t	t	n/a
73.178	0.079	146356	keystroke_i	i	n/a
73.378	0.088	146756	keystroke_o	o	n/a
73.538	0.08	147076	keystroke_n	n	n/a
73.8985	0.095	147797	keystroke_Key.space	Key.space	n/a
74.2025	0.08	148405	keystroke_b	b	n/a
74.3855	0.0885	148771	keystroke_a	a	n/a
74.529	0.089	149058	keystroke_n	n	n/a
74.754	0.111	149508	keystroke_k	k	n/a
75.017	0.089	150034	keystroke_s	s	n/a
75.369	0.104	150738	keystroke_Key.space	Key.space	n/a
75.561	0.096	151122	keystroke_e	e	n/a
75.674	0.079	151348	keystroke_n	n	n/a
75.921	0.097	151842	keystroke_l	l	n/a
76.034	0.104	152068	keystroke_a	a	n/a
76.218	0.088	152436	keystroke_r	r	n/a
76.442	0.072	152884	keystroke_g	g	n/a
76.609	0.089	153218	keystroke_e	e	n/a
77.241	0.088	154482	keystroke_Key.enter	Key.enter	n/a
77.339	7.976	154678	prompt	n/a	generating traffic cruises wearing\n
78.57	0.072	157140	keystroke_g	g	n/a
78.714	0.071	157428	keystroke_e	e	n/a
78.818	0.0785	157636	keystroke_n	n	n/a
78.9125	0.08	157825	keystroke_e	e	n/a
79.0485	0.0735	158097	keystroke_r	r	n/a
79.2005	0.113	158401	keystroke_a	a	n/a
79.5045	0.072	159009	keystroke_t	t	n/a
79.6415	0.0805	159283	keystroke_i	i	n/a
79.842	0.08	159684	keystroke_n	n	n/a
79.954	0.079	159908	keystroke_g	g	n/a
80.057	0.096	160114	keystroke_Key.space	Key.space	n/a
80.4485	0.096	160897	keystroke_t	t	n/a
80.7375	0.103	161475	keystroke_r	r	n/a
80.9535	0.096	161907	keystroke_a	a	n/a
81.1615	0.087	162323	keystroke_f	f	n/a
81.3605	0.081	162721	keystroke_f	f	n/a
81.5455	0.103	163091	keystroke_i	i	n/a
81.7695	0.095	163539	keystroke_c	c	n/a
82.0645	0.096	164129	keystroke_Key.space	Key.space	n/a
82.3445	0.097	164689	keystroke_c	c	n/a
82.5605	0.073	165121	keystroke_r	r	n/a
82.7045	0.0805	165409	keystroke_u	u	n/a
82.889	0.073	165778	keystroke_i	i	n/a
83.025	0.08	166050	keystroke_s	s	n/a
83.201	0.064	166402	keystroke_e	e	n/a
83.361	0.08	166722	keystroke_s	s	n/a
83.601	0.08	167202	keystroke_Key.space	Key.space	n/a
83.865	0.12	167730	keystroke_w	w	n/a
84.129	0.088	168258	keystroke_e	e	n/a
84.305	0.096	168610	keystroke_a	a	n/a
84.513	0.096	169026	keystroke_r	r	n/a
84.721	0.12	169442	keystroke_i	i	n/a
84.825	0.088	169650	keystroke_n	n	n/a
84.929	0.072	169858	keystroke_g	g	n/a
85.249	0.064	170498	keystroke_Key.enter	Key.enter	n/a
85.3215	7.634	170643	prompt	n/a	response feels york plenty\n
85.897	0.088	171794	keystroke_r	r	n/a
86.065	0.08	172130	keystroke_e	e	n/a
86.2405	0.096	172481	keystroke_s	s	n/a
86.6325	0.112	173265	keystroke_p	p	n/a
86.8885	0.088	173777	keystroke_o	o	n/a
87.0405	0.08	174081	keystroke_n	n	n/a
87.3765	0.104	174753	keystroke_s	s	n/a
87.6005	0.072	175201	keystroke_e	e	n/a
87.7285	0.096	175457	keystroke_Key.space	Key.space	n/a
87.8965	0.096	175793	keystroke_f	f	n/a
88.3685	0.08	176737	keystroke_e	e	n/a
88.5445	0.088	177089	keystroke_e	e	n/a
88.8245	0.128	177649	keystroke_l	l	n/a
89.1445	0.088	178289	keystroke_s	s	n/a
89.2885	0.08	178577	keystroke_Key.space	Key.space	n/a
90.1765	0.072	180353	keystroke_y	y	n/a
90.3045	0.08	180609	keystroke_o	o	n/a
90.4805	0.08	180961	keystroke_r	r	n/a
90.7285	0.088	181457	keystroke_k	k	n/a
91.0485	0.104	182097	keystroke_Key.space	Key.space	n/a
91.2485	0.088	182497	keystroke_p	p	n/a
91.4085	0.096	182817	keystroke_l	l	n/a
91.5445	0.096	183089	keystroke_e	e	n/a
91.6485	0.072	183297	keystroke_n	n	n/a
91.8005	0.072	183601	keystroke_t	t	n/a
92.3685	0.096	184737	keystroke_y	y	n/a
92.8805	0.072	185761	keystroke_Key.enter	Key.enter	n/a
92.9615	5.897	185923	prompt	n/a	edgar terms towns style\n
93.7285	0.104	187457	keystroke_e	e	n/a
93.9685	0.112	187937	keystroke_d	d	n/a
94.2805	0.08	188561	keystroke_g	g	n/a
94.5925	0.088	189185	keystroke_a	a	n/a
94.864	0.12	189728	keystroke_r	r	n/a
95.256	0.096	190512	keystroke_Key.space	Key.space	n/a
95.4	0.073	190800	keystroke_t	t	n/a
95.52	0.088	191040	keystroke_e	e	n/a
95.672	0.08	191344	keystroke_r	r	n/a
95.808	0.096	191616	keystroke_m	m	n/a
96.008	0.088	192016	keystroke_s	s	n/a
96.224	0.088	192448	keystroke_Key.space	Key.space	n/a
96.528	0.072	193056	keystroke_t	t	n/a
96.648	0.104	193296	keystroke_o	o	n/a
96.824	0.048	193648	keystroke_w	w	n/a
96.968	0.088	193936	keystroke_n	n	n/a
97.328	0.088	194656	keystroke_s	s	n/a
97.52	0.096	195040	keystroke_Key.space	Key.space	n/a
97.712	0.096	195424	keystroke_s	s	n/a
97.936	0.088	195872	keystroke_t	t	n/a
98.152	0.072	196304	keystroke_y	y	n/a
98.264	0.088	196528	keystroke_l	l	n/a
98.368	0.08	196736	keystroke_e	e	n/a
98.784	0.072	197568	keystroke_Key.enter	Key.enter	n/a
98.8635	8.763	197727	prompt	n/a	survivor couple greeting secretary\n
99.536	0.104	199072	keystroke_s	s	n/a
99.696	0.064	199392	keystroke_u	u	n/a
99.888	0.08	199776	keystroke_r	r	n/a
100.392	0.104	200784	keystroke_v	v	n/a
100.72	0.088	201440	keystroke_i	i	n/a
100.968	0.088	201936	keystroke_v	v	n/a
101.144	0.088	202288	keystroke_o	o	n/a
101.344	0.096	202688	keystroke_r	r	n/a
101.736	0.088	203472	keystroke_Key.space	Key.space	n/a
101.937	0.095	203874	keystroke_c	c	n/a
102.048	0.072	204096	keystroke_o	o	n/a
102.184	0.072	204368	keystroke_u	u	n/a
102.344	0.112	204688	keystroke_p	p	n/a
102.496	0.104	204992	keystroke_l	l	n/a
102.664	0.088	205328	keystroke_e	e	n/a
102.776	0.096	205552	keystroke_Key.space	Key.space	n/a
103.096	0.104	206192	keystroke_g	g	n/a
103.336	0.08	206672	keystroke_r	r	n/a
103.512	0.08	207024	keystroke_e	e	n/a
103.68	0.08	207360	keystroke_e	e	n/a
103.848	0.088	207696	keystroke_t	t	n/a
103.968	0.088	207936	keystroke_i	i	n/a
104.072	0.088	208144	keystroke_n	n	n/a
104.192	0.08	208384	keystroke_g	g	n/a
104.368	0.096	208736	keystroke_Key.space	Key.space	n/a
104.552	0.088	209104	keystroke_s	s	n/a
104.76	0.072	209520	keystroke_e	e	n/a
104.96	0.088	209920	keystroke_c	c	n/a
105.1675	0.072	210335	keystroke_r	r	n/a
105.2955	0.088	210591	keystroke_e	e	n/a
105.48	0.096	210960	keystroke_t	t	n/a
105.904	0.104	211808	keystroke_a	a	n/a
106.16	0.096	212320	keystroke_t	t	n/a
106.76	0.104	213520	keystroke_Key.backspace	Key.backspace	n/a
106.929	0.103	213858	keystroke_r	r	n/a
107.168	0.088	214336	keystroke_y	y	n/a
107.544	0.08	215088	keystroke_Key.enter	Key.enter	n/a
107.6315	8.05	215263	prompt	n/a	styles johnson occasions incidents\n
108.2	0.104	216400	keystroke_s	s	n/a
108.416	0.096	216832	keystroke_t	t	n/a
108.632	0.072	217264	keystroke_y	y	n/a
108.728	0.072	217456	keystroke_l	l	n/a
108.848	0.088	217696	keystroke_e	e	n/a
109.04	0.08	218080	keystroke_s	s	n/a
109.384	0.08	218768	keystroke_Key.space	Key.space	n/a
109.616	0.104	219232	keystroke_j	j	n/a
109.8	0.072	219600	keystroke_o	o	n/a
110.04	0.088	220080	keystroke_h	h	n/a
110.36	0.0955	220720	keystroke_n	n	n/a
110.6795	0.1045	221359	keystroke_s	s	n/a
110.7915	0.088	221583	keystroke_o	o	n/a
110.9675	0.088	221935	keystroke_n	n	n/a
111.168	0.0955	222336	keystroke_Key.space	Key.space	n/a
111.456	0.0795	222912	keystroke_o	o	n/a
111.5915	0.08	223183	keystroke_c	c	n/a
111.752	0.08	223504	keystroke_c	c	n/a
111.904	0.104	223808	keystroke_a	a	n/a
112.112	0.112	224224	keystroke_s	s	n/a
112.488	0.112	224976	keystroke_i	i	n/a
112.712	0.08	225424	keystroke_o	o	n/a
112.864	0.096	225728	keystroke_n	n	n/a
113.7995	0.088	227599	keystroke_Key.space	Key.space	n/a
114.0315	0.0805	228063	keystroke_i	i	n/a
114.2075	0.072	228415	keystroke_n	n	n/a
114.5915	0.0805	229183	keystroke_c	c	n/a
114.712	0.08	229424	keystroke_i	i	n/a
114.832	0.081	229664	keystroke_d	d	n/a
115.032	0.0955	230064	keystroke_e	e	n/a
115.1435	0.0725	230287	keystroke_n	n	n/a
115.256	0.064	230512	keystroke_t	t	n/a
115.44	0.088	230880	keystroke_s	s	n/a
115.6075	0.0725	231215	keystroke_Key.enter	Key.enter	n/a
115.6855	9.172	231371	prompt	n/a	feels placing compatibility dodge\n
116.416	0.08	232832	keystroke_f	f	n/a
116.608	0.072	233216	keystroke_e	e	n/a
116.776	0.08	233552	keystroke_e	e	n/a
116.904	0.088	233808	keystroke_l	l	n/a
117.088	0.08	234176	keystroke_s	s	n/a
117.256	0.08	234512	keystroke_Key.space	Key.space	n/a
117.424	0.08	234848	keystroke_p	p	n/a
117.584	0.08	235168	keystroke_l	l	n/a
117.7045	0.0955	235409	keystroke_a	a	n/a
117.936	0.0885	235872	keystroke_c	c	n/a
118.04	0.088	236080	keystroke_i	i	n/a
118.152	0.072	236304	keystroke_n	n	n/a
118.312	0.064	236624	keystroke_g	g	n/a
118.44	0.088	236880	keystroke_Key.space	Key.space	n/a
119.2	0.088	238400	keystroke_c	c	n/a
119.336	0.08	238672	keystroke_o	o	n/a
119.496	0.072	238992	keystroke_m	m	n/a
119.648	0.088	239296	keystroke_p	p	n/a
120.504	0.104	241008	keystroke_a	a	n/a
120.736	0.08	241472	keystroke_t	t	n/a
120.888	0.096	241776	keystroke_i	i	n/a
121.256	0.088	242512	keystroke_b	b	n/a
121.776	0.144	243552	keystroke_i	i	n/a
122.136	0.12	244272	keystroke_l	l	n/a
122.392	0.072	244784	keystroke_i	i	n/a
122.592	0.096	245184	keystroke_t	t	n/a
122.984	0.08	245968	keystroke_y	y	n/a
123.464	0.096	246928	keystroke_Key.space	Key.space	n/a
123.88	0.12	247760	keystroke_d	d	n/a
124.04	0.088	248080	keystroke_o	o	n/a
124.192	0.088	248384	keystroke_d	d	n/a
124.416	0.064	248832	keystroke_g	g	n/a
124.536	0.08	249072	keystroke_e	e	n/a
124.784	0.072	249568	keystroke_Key.enter	Key.enter	n/a
124.8635	8.658	249727	prompt	n/a	characteristics doing module ment\n
125.496	0.088	250992	keystroke_c	c	n/a
125.624	0.072	251248	keystroke_h	h	n/a
125.752	0.088	251504	keystroke_a	a	n/a
125.928	0.088	251856	keystroke_r	r	n/a
126.52	0.0635	253040	keystroke_a	a	n/a
126.792	0.1115	253584	keystroke_c	c	n/a
127.1035	0.088	254207	keystroke_t	t	n/a
127.4	0.08	254800	keystroke_e	e	n/a
127.6075	0.088	255215	keystroke_r	r	n/a
127.7595	0.104	255519	keystroke_i	i	n/a
127.9435	0.096	255887	keystroke_s	s	n/a
128.1515	0.072	256303	keystroke_t	t	n/a
128.2715	0.08	256543	keystroke_i	i	n/a
128.4475	0.072	256895	keystroke_c	c	n/a
128.6555	0.088	257311	keystroke_s	s	n/a
129.0395	0.0955	258079	keystroke_Key.space	Key.space	n/a
129.216	0.112	258432	keystroke_d	d	n/a
129.352	0.08	258704	keystroke_o	o	n/a
129.536	0.088	259072	keystroke_i	i	n/a
129.616	0.088	259232	keystroke_n	n	n/a
129.768	0.064	259536	keystroke_g	g	n/a
129.959	0.096	259918	keystroke_Key.space	Key.space	n/a
130.191	0.081	260382	keystroke_m	m	n/a
130.336	0.088	260672	keystroke_o	o	n/a
130.44	0.088	260880	keystroke_d	d	n/a
130.696	0.071	261392	keystroke_u	u	n/a
131.136	0.127	262272	keystroke_Key.backspace	Key.backspace	n/a
131.536	0.08	263072	keystroke_u	u	n/a
131.784	0.079	263568	keystroke_l	l	n/a
131.968	0.071	263936	keystroke_e	e	n/a
132.111	0.088	264222	keystroke_Key.space	Key.space	n/a
132.312	0.079	264624	keystroke_m	m	n/a
132.583	0.097	265166	keystroke_e	e	n/a
132.752	0.088	265504	keystroke_n	n	n/a
132.888	0.079	265776	keystroke_t	t	n/a
133.432	0.087	266864	keystroke_Key.enter	Key.enter	n/a
133.527	10.442	267054	prompt	n/a	prior bang dakota seniors\n
134.104	0.12	268208	keystroke_p	p	n/a
134.287	0.081	268574	keystroke_r	r	n/a
134.423	0.08	268846	keystroke_i	i	n/a
134.632	0.072	269264	keystroke_o	o	n/a
134.752	0.072	269504	keystroke_r	r	n/a
134.911	0.088	269822	keystroke_Key.space	Key.space	n/a
135.184	0.071	270368	keystroke_b	b	n/a
135.359	0.081	270718	keystroke_a	a	n/a
135.471	0.073	270942	keystroke_n	n	n/a
135.584	0.079	271168	keystroke_d	d	n/a
135.951	0.089	271902	keystroke_Key.space	Key.space	n/a
136.168	0.095	272336	keystroke_d	d	n/a
136.448	0.096	272896	keystroke_a	a	n/a
136.672	0.1195	273344	keystroke_k	k	n/a
136.9035	0.088	273807	keystroke_o	o	n/a
137.1435	0.111	274287	keystroke_t	t	n/a
137.472	0.072	274944	keystroke_a	a	n/a
137.632	0.08	275264	keystroke_Key.space	Key.space	n/a
137.767	0.073	275534	keystroke_s	s	n/a
138.063	0.088	276126	keystroke_Key.backspace	Key.backspace	n/a
138.504	0.128	277008	keystroke_s	s	n/a
138.7505	0.081	277501	keystroke_e	e	n/a
138.8945	0.112	277789	keystroke_n	n	n/a
139.0715	0.088	278143	keystroke_o	o	n/a
139.376	0.096	278752	keystroke_i	i	n/a
141.183	0.0955	282366	keystroke_Key.backspace	Key.backspace	n/a
141.3825	0.08	282765	keystroke_Key.backspace	Key.backspace	n/a
142.0715	0.0725	284143	keystroke_i	i	n/a
142.2555	0.072	284511	keystroke_o	o	n/a
142.368	0.072	284736	keystroke_r	r	n/a
143.0305	0.088	286061	keystroke_s	s	n/a
143.8705	0.096	287741	keystroke_Key.enter	Key.enter	n/a
143.9745	6.7785	287949	prompt	n/a	believed days articles hands\n
144.7355	0.088	289471	keystroke_b	b	n/a
144.9195	0.079	289839	keystroke_e	e	n/a
145.0395	0.096	290079	keystroke_l	l	n/a
145.2305	0.08	290461	keystroke_i	i	n/a
145.3185	0.089	290637	keystroke_e	e	n/a
145.4955	0.087	290991	keystroke_v	v	n/a
145.6625	0.072	291325	keystroke_e	e	n/a
145.8475	0.08	291695	keystroke_d	d	n/a
146.1025	0.08	292205	keystroke_Key.space	Key.space	n/a
146.2635	0.095	292527	keystroke_d	d	n/a
146.4235	0.071	292847	keystroke_a	a	n/a
146.6625	0.057	293325	keystroke_y	y	n/a
146.9665	0.088	293933	keystroke_s	s	n/a
147.1345	0.088	294269	keystroke_Key.space	Key.space	n/a
147.3515	0.096	294703	keystroke_a	a	n/a
147.5195	0.087	295039	keystroke_r	r	n/a
147.7195	0.071	295439	keystroke_t	t	n/a
147.8225	0.08	295645	keystroke_i	i	n/a
148.0315	0.104	296063	keystroke_c	c	n/a
148.2235	0.08	296447	keystroke_l	l	n/a
148.3515	0.079	296703	keystroke_e	e	n/a
149.5265	0.048	299053	keystroke_s	s	n/a
149.8305	0.072	299661	keystroke_Key.space	Key.space	n/a
150.0465	0.08	300093	keystroke_h	h	n/a
150.1435	0.087	300287	keystroke_a	a	n/a
150.2625	0.064	300525	keystroke_n	n	n/a
150.3435	0.063	300687	keystroke_d	d	n/a
150.4625	0.08	300925	keystroke_s	s	n/a
150.6785	0.072	301357	keystroke_Key.enter	Key.enter	n/a
150.758	8.4345	301516	prompt	n/a	california wall exhaust fathers\n
151.4555	0.08	302911	keystroke_c	c	n/a
151.5905	0.088	303181	keystroke_a	a	n/a
151.7025	0.121	303405	keystroke_l	l	n/a
151.9985	0.08	303997	keystroke_i	i	n/a
152.3115	0.112	304623	keystroke_f	f	n/a
152.5835	0.103	305167	keystroke_o	o	n/a
152.7585	0.088	305517	keystroke_r	r	n/a
152.9755	0.071	305951	keystroke_n	n	n/a
153.1115	0.071	306223	keystroke_i	i	n/a
153.1995	0.096	306399	keystroke_a	a	n/a
153.8945	0.104	307789	keystroke_Key.space	Key.space	n/a
154.2465	0.088	308493	keystroke_w	w	n/a
154.4385	0.08	308877	keystroke_a	a	n/a
154.5195	0.095	309039	keystroke_l	l	n/a
154.7195	0.08	309439	keystroke_l	l	n/a
154.855	0.08	309710	keystroke_Key.space	Key.space	n/a
155.127	0.088	310254	keystroke_e	e	n/a
155.343	0.096	310686	keystroke_x	x	n/a
155.607	0.08	311214	keystroke_h	h	n/a
155.767	0.088	311534	keystroke_a	a	n/a
155.895	0.08	311790	keystroke_u	u	n/a
156.015	0.088	312030	keystroke_s	s	n/a
156.327	0.088	312654	keystroke_t	t	n/a
156.751	0.088	313502	keystroke_Key.space	Key.space	n/a
157.551	0.12	315102	keystroke_f	f	n/a
157.751	0.088	315502	keystroke_a	a	n/a
157.919	0.072	315838	keystroke_t	t	n/a
158.007	0.072	316014	keystroke_h	h	n/a
158.095	0.064	316190	keystroke_e	e	n/a
158.175	0.072	316350	keystroke_r	r	n/a
158.335	0.088	316670	keystroke_s	s	n/a
159.111	0.08	318222	keystroke_Key.enter	Key.enter	n/a
159.1965	8.5	318393	prompt	n/a	nelson achievement where've finding\n
159.823	0.08	319646	keystroke_n	n	n/a
159.919	0.088	319838	keystroke_e	e	n/a
160.047	0.096	320094	keystroke_l	l	n/a
160.183	0.08	320366	keystroke_s	s	n/a
160.287	0.096	320574	keystroke_o	o	n/a
160.415	0.072	320830	keystroke_n	n	n/a
160.623	0.096	321246	keystroke_Key.space	Key.space	n/a
160.767	0.088	321534	keystroke_a	a	n/a
160.967	0.088	321934	keystroke_c	c	n/a
161.111	0.088	322222	keystroke_h	h	n/a
161.479	0.088	322958	keystroke_i	i	n/a
161.839	0.104	323678	keystroke_e	e	n/a
162.135	0.04	324270	keystroke_v	v	n/a
162.863	0.088	325726	keystroke_e	e	n/a
162.999	0.104	325998	keystroke_m	m	n/a
163.135	0.096	326270	keystroke_e	e	n/a
163.215	0.072	326430	keystroke_n	n	n/a
163.343	0.08	326686	keystroke_t	t	n/a
163.487	0.08	326974	keystroke_Key.space	Key.space	n/a
163.759	0.088	327518	keystroke_w	w	n/a
163.895	0.072	327790	keystroke_h	h	n/a
163.991	0.096	327982	keystroke_e	e	n/a
164.111	0.128	328222	keystroke_r	r	n/a
164.199	0.104	328398	keystroke_e	e	n/a
164.671	0.104	329342	keystroke_'	'	n/a
165.119	0.088	330238	keystroke_v	v	n/a
165.583	0.08	331166	keystroke_e	e	n/a
165.855	0.096	331710	keystroke_Key.space	Key.space	n/a
166.111	0.096	332222	keystroke_f	f	n/a
166.255	0.088	332510	keystroke_i	i	n/a
166.383	0.072	332766	keystroke_n	n	n/a
166.495	0.088	332990	keystroke_d	d	n/a
166.607	0.0875	333214	keystroke_i	i	n/a
166.6705	0.088	333341	keystroke_n	n	n/a
166.8145	0.0725	333629	keystroke_g	g	n/a
167.5985	0.096	335197	keystroke_Key.enter	Key.enter	n/a
167.7025	6.0815	335405	prompt	n/a	seasons trim dance break\n
168.4225	0.112	336845	keystroke_s	s	n/a
168.6305	0.088	337261	keystroke_e	e	n/a
168.8145	0.088	337629	keystroke_a	a	n/a
168.9585	0.08	337917	keystroke_s	s	n/a
169.0785	0.104	338157	keystroke_o	o	n/a
169.2625	0.088	338525	keystroke_n	n	n/a
169.5905	0.088	339181	keystroke_s	s	n/a
169.8465	0.08	339693	keystroke_Key.space	Key.space	n/a
170.0465	0.08	340093	keystroke_t	t	n/a
170.1985	0.08	340397	keystroke_r	r	n/a
170.3505	0.08	340701	keystroke_i	i	n/a
170.5585	0.088	341117	keystroke_m	m	n/a
170.7345	0.096	341469	keystroke_Key.space	Key.space	n/a
170.9265	0.104	341853	keystroke_d	d	n/a
171.0945	0.08	342189	keystroke_a	a	n/a
171.1985	0.072	342397	keystroke_n	n	n/a
171.3185	0.064	342637	keystroke_c	c	n/a
171.4465	0.08	342893	keystroke_e	e	n/a
171.6225	0.088	343245	keystroke_Key.space	Key.space	n/a
171.9105	0.072	343821	keystroke_v	v	n/a
172.3985	0.08	344797	keystroke_Key.backspace	Key.backspace	n/a
172.4865	0.104	344973	keystroke_b	b	n/a
172.7025	0.096	345405	keystroke_r	r	n/a
172.8625	0.096	345725	keystroke_e	e	n/a
173.0305	0.096	346061	keystroke_a	a	n/a
173.1825	0.096	346365	keystroke_k	k	n/a
173.7025	0.08	347405	keystroke_Key.enter	Key.enter	n/a
173.792	8.0325	347584	prompt	n/a	triangle jill hazard existed\n
174.4305	0.072	348861	keystroke_t	t	n/a
174.6065	0.104	349213	keystroke_r	r	n/a
174.9665	0.12	349933	keystroke_i	i	n/a
175.2145	0.08	350429	keystroke_a	a	n/a
175.4225	0.104	350845	keystroke_n	n	n/a
175.7105	0.096	351421	keystroke_g	g	n/a
175.8945	0.12	351789	keystroke_l	l	n/a
176.1185	0.088	352237	keystroke_e	e	n/a
176.3985	0.088	352797	keystroke_Key.space	Key.space	n/a
176.6305	0.08	353261	keystroke_j	j	n/a
176.8065	0.072	353613	keystroke_i	i	n/a
177.0385	0.072	354077	keystroke_l	l	n/a
177.1905	0.088	354381	keystroke_l	l	n/a
177.3185	0.104	354637	keystroke_Key.space	Key.space	n/a
177.5425	0.072	355085	keystroke_h	h	n/a
177.6865	0.088	355373	keystroke_a	a	n/a
177.9105	0.08	355821	keystroke_z	z	n/a
178.2065	0.08	356413	keystroke_a	a	n/a
178.4865	0.088	356973	keystroke_t	t	n/a
178.7425	0.088	357485	keystroke_d	d	n/a
179.0705	0.072	358141	keystroke_Key.backspace	Key.backspace	n/a
179.1905	0.088	358381	keystroke_Key.backspace	Key.backspace	n/a
179.2705	0.08	358541	keystroke_r	r	n/a
179.4385	0.088	358877	keystroke_d	d	n/a
179.9665	0.096	359933	keystroke_Key.space	Key.space	n/a
180.1985	0.088	360397	keystroke_e	e	n/a
180.4385	0.08	360877	keystroke_x	x	n/a
180.7665	0.096	361533	keystroke_i	i	n/a
181.0305	0.104	362061	keystroke_s	s	n/a
181.2465	0.08	362493	keystroke_t	t	n/a
181.3825	0.08	362765	keystroke_e	e	n/a
181.5505	0.088	363101	keystroke_d	d	n/a
181.7505	0.072	363501	keystroke_Key.enter	Key.enter	n/a
181.83	10.419	363660	prompt	n/a	demonstrate matt skilled founder\n
182.4625	0.112	364925	keystroke_d	d	n/a
182.6705	0.072	365341	keystroke_r	r	n/a
182.7745	0.112	365549	keystroke_m	m	n/a
182.9345	0.088	365869	keystroke_o	o	n/a
183.0705	0.104	366141	keystroke_n	n	n/a
183.4545	0.096	366909	keystroke_Key.backspace	Key.backspace	n/a
183.6305	0.088	367261	keystroke_Key.backspace	Key.backspace	n/a
183.7905	0.088	367581	keystroke_Key.backspace	Key.backspace	n/a
183.9665	0.064	367933	keystroke_Key.backspace	Key.backspace	n/a
184.2865	0.08	368573	keystroke_e	e	n/a
184.7505	0.064	369501	keystroke_,	,	n/a
185.1745	0.096	370349	keystroke_Key.backspace	Key.backspace	n/a
185.7105	0.08	371421	keystroke_m	m	n/a
185.8385	0.072	371677	keystroke_o	o	n/a
185.9505	0.056	371901	keystroke_n	n	n/a
186.1025	0.088	372205	keystroke_s	s	n/a
186.3025	0.08	372605	keystroke_t	t	n/a
186.4705	0.096	372941	keystroke_r	r	n/a
186.6785	0.072	373357	keystroke_a	a	n/a
186.8545	0.072	373709	keystroke_t	t	n/a
186.9665	0.088	373933	keystroke_e	e	n/a
187.1025	0.088	374205	keystroke_Key.space	Key.space	n/a
187.2705	0.096	374541	keystroke_m	m	n/a
187.3745	0.088	374749	keystroke_a	a	n/a
187.5585	0.08	375117	keystroke_t	t	n/a
187.7185	0.072	375437	keystroke_t	t	n/a
187.8385	0.08	375677	keystroke_Key.space	Key.space	n/a
187.9745	0.088	375949	keystroke_s	s	n/a
188.0945	0.088	376189	keystroke_k	k	n/a
188.2625	0.088	376525	keystroke_i	i	n/a
188.4785	0.072	376957	keystroke_l	l	n/a
188.6465	0.08	377293	keystroke_l	l	n/a
188.7505	0.064	377501	keystroke_e	e	n/a
188.9105	0.088	377821	keystroke_d	d	n/a
189.0385	0.072	378077	keystroke_Key.space	Key.space	n/a
189.3265	0.072	378653	keystroke_g	g	n/a
189.4465	0.072	378893	keystroke_o	o	n/a
189.5985	0.072	379197	keystroke_u	u	n/a
190.0065	0.088	380013	keystroke_Key.backspace	Key.backspace	n/a
190.1665	0.088	380333	keystroke_Key.backspace	Key.backspace	n/a
190.3345	0.072	380669	keystroke_Key.backspace	Key.backspace	n/a
191.0065	0.072	382013	keystroke_f	f	n/a
191.0865	0.056	382173	keystroke_o	o	n/a
191.2225	0.072	382445	keystroke_u	u	n/a
191.3985	0.064	382797	keystroke_n	n	n/a
191.4705	0.064	382941	keystroke_d	d	n/a
191.5825	0.08	383165	keystroke_e	e	n/a
191.7185	0.072	383437	keystroke_r	r	n/a
192.1665	0.08	384333	keystroke_Key.enter	Key.enter	n/a
192.255	7.7045	384510	prompt	n/a	meant loss honduras produced\n
192.7905	0.088	385581	keystroke_m	m	n/a
192.8945	0.072	385789	keystroke_e	e	n/a
193.0385	0.08	386077	keystroke_a	a	n/a
193.1505	0.08	386301	keystroke_n	n	n/a
193.3025	0.072	386605	keystroke_t	t	n/a
193.4385	0.072	386877	keystroke_Key.space	Key.space	n/a
193.5825	0.08	387165	keystroke_l	l	n/a
193.7505	0.064	387501	keystroke_o	o	n/a
193.8465	0.072	387693	keystroke_s	s	n/a
193.9905	0.088	387981	keystroke_s	s	n/a
194.3825	0.096	388765	keystroke_Key.space	Key.space	n/a
195.2545	0.12	390509	keystroke_h	h	n/a
195.7025	0.112	391405	keystroke_o	o	n/a
195.9585	0.096	391917	keystroke_n	n	n/a
196.1905	0.104	392381	keystroke_d	d	n/a
196.3105	0.072	392621	keystroke_u	u	n/a
196.4705	0.096	392941	keystroke_r	r	n/a
196.6305	0.08	393261	keystroke_a	a	n/a
196.7905	0.08	393581	keystroke_s	s	n/a
197.2705	0.072	394541	keystroke_Key.space	Key.space	n/a
197.4465	0.096	394893	keystroke_p	p	n/a
197.5825	0.08	395165	keystroke_r	r	n/a
197.7025	0.072	395405	keystroke_o	o	n/a
198.0705	0.104	396141	keystroke_d	d	n/a
198.2305	0.096	396461	keystroke_u	u	n/a
198.3825	0.08	396765	keystroke_c	c	n/a
198.5425	0.072	397085	keystroke_e	e	n/a
198.7345	0.088	397469	keystroke_d	d	n/a
199.87	0.088	399740	keystroke_Key.enter	Key.enter	n/a
199.966	9.154	399932	prompt	n/a	giant half chorus provide\n
201.126	0.08	402252	keystroke_g	g	n/a
201.238	0.088	402476	keystroke_i	i	n/a
201.59	0.112	403180	keystroke_a	a	n/a
201.734	0.08	403468	keystroke_n	n	n/a
202.11	0.096	404220	keystroke_t	t	n/a
202.79	0.08	405580	keystroke_Key.space	Key.space	n/a
202.974	0.088	405948	keystroke_h	h	n/a
203.086	0.096	406172	keystroke_a	a	n/a
203.23	0.104	406460	keystroke_l	l	n/a
203.494	0.096	406988	keystroke_f	f	n/a
204.03	0.096	408060	keystroke_Key.space	Key.space	n/a
204.254	0.096	408508	keystroke_c	c	n/a
204.382	0.072	408764	keystroke_h	h	n/a
204.542	0.096	409084	keystroke_o	o	n/a
204.806	0.08	409612	keystroke_r	r	n/a
204.966	0.088	409932	keystroke_u	u	n/a
205.638	0.08	411276	keystroke_s	s	n/a
206.366	0.072	412732	keystroke_Key.space	Key.space	n/a
206.55	0.104	413100	keystroke_p	p	n/a
206.686	0.088	413372	keystroke_r	r	n/a
206.806	0.08	413612	keystroke_o	o	n/a
207.806	0.168	415612	keystroke_v	v	n/a
208.174	0.096	416348	keystroke_i	i	n/a
208.342	0.104	416684	keystroke_d	d	n/a
208.566	0.088	417132	keystroke_e	e	n/a
209.046	0.072	418092	keystroke_Key.enter	Key.enter	n/a
209.126	9.1455	418252	prompt	n/a	connecticut pulse stomach configured\n
209.8615	0.096	419723	keystroke_c	c	n/a
209.9735	0.072	419947	keystroke_o	o	n/a
210.1255	0.056	420251	keystroke_n	n	n/a
210.2615	0.064	420523	keystroke_n	n	n/a
210.3335	0.072	420667	keystroke_e	e	n/a
210.4855	0.088	420971	keystroke_c	c	n/a
210.6935	0.072	421387	keystroke_t	t	n/a
211.0135	0.096	422027	keystroke_i	i	n/a
211.4455	0.104	422891	keystroke_c	c	n/a
211.7175	0.08	423435	keystroke_u	u	n/a
211.8775	0.08	423755	keystroke_t	t	n/a
212.3095	0.088	424619	keystroke_Key.space	Key.space	n/a
212.5815	0.096	425163	keystroke_p	p	n/a
212.7895	0.08	425579	keystroke_u	u	n/a
212.9895	0.072	425979	keystroke_l	l	n/a
213.1015	0.072	426203	keystroke_e	e	n/a
213.5975	0.088	427195	keystroke_Key.backspace	Key.backspace	n/a
213.7025	0.079	427405	keystroke_s	s	n/a
213.8695	0.072	427739	keystroke_e	e	n/a
214.3655	0.096	428731	keystroke_Key.space	Key.space	n/a
214.5975	0.088	429195	keystroke_c	c	n/a
214.9415	0.088	429883	keystroke_Key.backspace	Key.backspace	n/a
215.0375	0.096	430075	keystroke_s	s	n/a
215.2375	0.08	430475	keystroke_t	t	n/a
215.3895	0.096	430779	keystroke_o	o	n/a
215.6375	0.088	431275	keystroke_m	m	n/a
215.7655	0.096	431531	keystroke_a	a	n/a
215.9975	0.08	431995	keystroke_c	c	n/a
216.0855	0.08	432171	keystroke_h	h	n/a
216.4215	0.08	432843	keystroke_Key.space	Key.space	n/a
216.6215	0.096	433243	keystroke_c	c	n/a
216.7255	0.064	433451	keystroke_o	o	n/a
216.8695	0.08	433739	keystroke_n	n	n/a
217.0615	0.072	434123	keystroke_f	f	n/a
217.2055	0.096	434411	keystroke_i	i	n/a
217.4055	0.064	434811	keystroke_g	g	n/a
217.4935	0.064	434987	keystroke_u	u	n/a
217.6135	0.064	435227	keystroke_r	r	n/a
217.6935	0.08	435387	keystroke_e	e	n/a
217.8615	0.08	435723	keystroke_d	d	n/a
218.1975	0.072	436395	keystroke_Key.enter	Key.enter	n/a
218.277	7.2095	436554	prompt	n/a	markers most consists movies\n
218.8135	0.104	437627	keystroke_m	m	n/a
218.9185	0.095	437837	keystroke_a	a	n/a
219.0775	0.072	438155	keystroke_r	r	n/a
219.1655	0.072	438331	keystroke_k	k	n/a
219.2855	0.072	438571	keystroke_e	e	n/a
219.4295	0.056	438859	keystroke_r	r	n/a
219.6455	0.096	439291	keystroke_s	s	n/a
220.1495	0.08	440299	keystroke_Key.space	Key.space	n/a
220.3015	0.072	440603	keystroke_c	c	n/a
220.5895	0.072	441179	keystroke_Key.backspace	Key.backspace	n/a
220.7815	0.08	441563	keystroke_m	m	n/a
220.9335	0.072	441867	keystroke_o	o	n/a
221.0535	0.048	442107	keystroke_n	n	n/a
221.3575	0.072	442715	keystroke_Key.backspace	Key.backspace	n/a
221.5175	0.096	443035	keystroke_s	s	n/a
221.8055	0.096	443611	keystroke_t	t	n/a
222.2775	0.112	444555	keystroke_Key.space	Key.space	n/a
222.4775	0.104	444955	keystroke_c	c	n/a
222.6055	0.112	445211	keystroke_o	o	n/a
222.8375	0.0795	445675	keystroke_n	n	n/a
223.189	0.088	446378	keystroke_s	s	n/a
223.349	0.088	446698	keystroke_i	i	n/a
223.485	0.096	446970	keystroke_s	s	n/a
223.677	0.088	447354	keystroke_t	t	n/a
223.909	0.096	447818	keystroke_s	s	n/a
224.213	0.08	448426	keystroke_Key.space	Key.space	n/a
224.381	0.08	448762	keystroke_m	m	n/a
224.509	0.096	449018	keystroke_o	o	n/a
224.653	0.096	449306	keystroke_v	v	n/a
224.805	0.088	449610	keystroke_i	i	n/a
224.949	0.08	449898	keystroke_e	e	n/a
225.205	0.08	450410	keystroke_s	s	n/a
225.405	0.08	450810	keystroke_Key.enter	Key.enter	n/a
225.4925	7.539	450985	prompt	n/a	author fill spelling andrew\n
226.669	0.104	453338	keystroke_a	a	n/a
226.885	0.096	453770	keystroke_u	u	n/a
227.093	0.088	454186	keystroke_t	t	n/a
227.277	0.088	454554	keystroke_h	h	n/a
227.421	0.096	454842	keystroke_o	o	n/a
227.829	0.08	455658	keystroke_r	r	n/a
228.037	0.08	456074	keystroke_Key.space	Key.space	n/a
228.205	0.104	456410	keystroke_f	f	n/a
228.349	0.104	456698	keystroke_i	i	n/a
228.605	0.088	457210	keystroke_l	l	n/a
228.773	0.096	457546	keystroke_l	l	n/a
228.909	0.096	457818	keystroke_Key.space	Key.space	n/a
229.085	0.088	458170	keystroke_s	s	n/a
229.189	0.08	458378	keystroke_p	p	n/a
229.309	0.08	458618	keystroke_e	e	n/a
229.469	0.088	458938	keystroke_l	l	n/a
229.645	0.088	459290	keystroke_l	l	n/a
229.853	0.12	459706	keystroke_i	i	n/a
229.949	0.112	459898	keystroke_n	n	n/a
230.117	0.072	460234	keystroke_g	g	n/a
230.277	0.104	460554	keystroke_Key.space	Key.space	n/a
230.581	0.088	461162	keystroke_a	a	n/a
230.709	0.08	461418	keystroke_n	n	n/a
231.053	0.072	462106	keystroke_s	s	n/a
231.333	0.08	462666	keystroke_Key.backspace	Key.backspace	n/a
231.429	0.096	462858	keystroke_d	d	n/a
231.645	0.12	463290	keystroke_r	r	n/a
231.973	0.096	463946	keystroke_e	e	n/a
232.213	0.088	464426	keystroke_w	w	n/a
232.941	0.088	465882	keystroke_Key.enter	Key.enter	n/a
233.0375	8.5455	466075	prompt	n/a	valid early fantastic equation\n
233.781	0.088	467562	keystroke_v	v	n/a
234.061	0.104	468122	keystroke_a	a	n/a
234.277	0.096	468554	keystroke_l	l	n/a
234.485	0.072	468970	keystroke_i	i	n/a
234.677	0.104	469354	keystroke_d	d	n/a
234.925	0.096	469850	keystroke_Key.space	Key.space	n/a
235.165	0.096	470330	keystroke_e	e	n/a
235.509	0.104	471018	keystroke_a	a	n/a
235.741	0.088	471482	keystroke_r	r	n/a
236.213	0.112	472426	keystroke_l	l	n/a
236.517	0.08	473034	keystroke_y	y	n/a
237.077	0.096	474154	keystroke_Key.space	Key.space	n/a
237.301	0.096	474602	keystroke_f	f	n/a
237.485	0.08	474970	keystroke_a	a	n/a
237.653	0.08	475306	keystroke_n	n	n/a
238.093	0.096	476186	keystroke_t	t	n/a
238.309	0.096	476618	keystroke_a	a	n/a
238.509	0.088	477018	keystroke_s	s	n/a
238.741	0.072	477482	keystroke_t	t	n/a
238.869	0.088	477738	keystroke_i	i	n/a
239.037	0.08	478074	keystroke_c	c	n/a
239.261	0.096	478522	keystroke_Key.space	Key.space	n/a
239.405	0.096	478810	keystroke_e	e	n/a
239.885	0.112	479770	keystroke_q	q	n/a
240.053	0.088	480106	keystroke_u	u	n/a
240.253	0.112	480506	keystroke_a	a	n/a
240.629	0.08	481258	keystroke_t	t	n/a
240.757	0.096	481514	keystroke_i	i	n/a
240.973	0.088	481946	keystroke_o	o	n/a
241.149	0.08	482298	keystroke_n	n	n/a
241.509	0.072	483018	keystroke_Key.enter	Key.enter	n/a
241.588	7.939	483176	prompt	n/a	breaking happiness insurance graphic\n
242.253	0.048	484506	keystroke_b	b	n/a
242.469	0.144	484938	keystroke_r	r	n/a
242.693	0.072	485386	keystroke_e	e	n/a
242.845	0.08	485690	keystroke_a	a	n/a
242.981	0.096	485962	keystroke_k	k	n/a
243.173	0.112	486346	keystroke_i	i	n/a
243.277	0.08	486554	keystroke_n	n	n/a
243.397	0.08	486794	keystroke_g	g	n/a
243.509	0.088	487018	keystroke_Key.space	Key.space	n/a
243.709	0.072	487418	keystroke_h	h	n/a
243.797	0.088	487594	keystroke_a	a	n/a
244.085	0.096	488170	keystroke_p	p	n/a
244.405	0.096	488810	keystroke_p	p	n/a
244.677	0.088	489354	keystroke_i	i	n/a
244.869	0.072	489738	keystroke_n	n	n/a
245.117	0.08	490234	keystroke_e	e	n/a
245.333	0.0715	490666	keystroke_s	s	n/a
245.5085	0.08	491017	keystroke_s	s	n/a
245.7485	0.08	491497	keystroke_Key.space	Key.space	n/a
245.9245	0.088	491849	keystroke_i	i	n/a
246.0925	0.088	492185	keystroke_n	n	n/a
246.2365	0.096	492473	keystroke_s	s	n/a
246.3485	0.072	492697	keystroke_u	u	n/a
246.4765	0.096	492953	keystroke_r	r	n/a
246.7245	0.096	493449	keystroke_a	a	n/a
246.8445	0.08	493689	keystroke_n	n	n/a
247.0365	0.096	494073	keystroke_c	c	n/a
247.1965	0.08	494393	keystroke_e	e	n/a
247.6525	0.08	495305	keystroke_Key.space	Key.space	n/a
248.2845	0.081	496569	keystroke_g	g	n/a
248.4685	0.072	496937	keystroke_r	r	n/a
248.6205	0.072	497241	keystroke_a	a	n/a
248.7175	0.087	497435	keystroke_p	p	n/a
248.908	0.064	497816	keystroke_h	h	n/a
249.02	0.08	498040	keystroke_i	i	n/a
249.132	0.072	498264	keystroke_c	c	n/a
249.46	0.064	498920	keystroke_Key.enter	Key.enter	n/a
249.5335	8.256	499067	prompt	n/a	there'll flex chem economics\n
250.301	0.087	500602	keystroke_t	t	n/a
250.492	0.064	500984	keystroke_h	h	n/a
250.588	0.088	501176	keystroke_e	e	n/a
250.7	0.088	501400	keystroke_r	r	n/a
250.78	0.064	501560	keystroke_e	e	n/a
251.364	0.128	502728	keystroke_'	'	n/a
251.724	0.104	503448	keystroke_l	l	n/a
251.9155	0.08	503831	keystroke_l	l	n/a
252.2355	0.08	504471	keystroke_Key.space	Key.space	n/a
252.8835	0.072	505767	keystroke_f	f	n/a
253.0035	0.072	506007	keystroke_l	l	n/a
253.1155	0.08	506231	keystroke_e	e	n/a
253.3395	0.08	506679	keystroke_x	x	n/a
253.9075	0.088	507815	keystroke_Key.space	Key.space	n/a
254.0755	0.088	508151	keystroke_c	c	n/a
254.4195	0.08	508839	keystroke_h	h	n/a
254.5875	0.08	509175	keystroke_e	e	n/a
254.7315	0.08	509463	keystroke_m	m	n/a
255.1555	0.096	510311	keystroke_Key.space	Key.space	n/a
255.3875	0.072	510775	keystroke_e	e	n/a
255.6755	0.0885	511351	keystroke_c	c	n/a
255.843	0.096	511686	keystroke_o	o	n/a
256.163	0.096	512326	keystroke_n	n	n/a
256.491	0.112	512982	keystroke_o	o	n/a
256.779	0.08	513558	keystroke_m	m	n/a
256.947	0.072	513894	keystroke_i	i	n/a
257.083	0.096	514166	keystroke_c	c	n/a
257.347	0.072	514694	keystroke_s	s	n/a
257.715	0.072	515430	keystroke_Key.enter	Key.enter	n/a
257.7965	10.287	515593	prompt	n/a	quebec blank reservoir problem\n
258.796	0.103	517592	keystroke_q	q	n/a
258.931	0.073	517862	keystroke_u	u	n/a
259.059	0.104	518118	keystroke_e	e	n/a
259.404	0.087	518808	keystroke_b	b	n/a
259.595	0.08	519190	keystroke_e	e	n/a
259.891	0.112	519782	keystroke_c	c	n/a
260.163	0.088	520326	keystroke_Key.space	Key.space	n/a
260.4105	0.08	520821	keystroke_b	b	n/a
260.523	0.0955	521046	keystroke_l	l	n/a
260.6665	0.08	521333	keystroke_a	a	n/a
260.8105	0.08	521621	keystroke_n	n	n/a
261.0585	0.112	522117	keystroke_k	k	n/a
261.3465	0.08	522693	keystroke_Key.space	Key.space	n/a
261.5465	0.072	523093	keystroke_r	r	n/a
261.6665	0.128	523333	keystroke_e	e	n/a
261.9545	0.08	523909	keystroke_s	s	n/a
262.2025	0.08	524405	keystroke_e	e	n/a
263.1145	0.128	526229	keystroke_r	r	n/a
263.6745	0.088	527349	keystroke_v	v	n/a
263.9145	0.136	527829	keystroke_i	i	n/a
264.2825	0.08	528565	keystroke_Key.backspace	Key.backspace	n/a
264.4985	0.088	528997	keystroke_o	o	n/a
264.6905	0.08	529381	keystroke_i	i	n/a
264.8425	0.128	529685	keystroke_r	r	n/a
265.466	0.088	530932	keystroke_Key.space	Key.space	n/a
265.682	0.104	531364	keystroke_p	p	n/a
265.874	0.096	531748	keystroke_r	r	n/a
266.018	0.088	532036	keystroke_o	o	n/a
266.474	0.088	532948	keystroke_b	b	n/a
266.626	0.0885	533252	keystroke_l	l	n/a
266.7625	0.072	533525	keystroke_e	e	n/a
267.5225	0.112	535045	keystroke_m	m	n/a
268.0105	0.072	536021	keystroke_Key.enter	Key.enter	n/a
268.091	8.8255	536182	prompt	n/a	stake survivor prozac brunswick\n
268.6585	0.104	537317	keystroke_s	s	n/a
268.8585	0.08	537717	keystroke_t	t	n/a
269.0025	0.088	538005	keystroke_a	a	n/a
269.1065	0.096	538213	keystroke_k	k	n/a
269.2265	0.08	538453	keystroke_e	e	n/a
269.3295	0.089	538659	keystroke_Key.space	Key.space	n/a
269.5065	0.112	539013	keystroke_s	s	n/a
269.6745	0.072	539349	keystroke_u	u	n/a
269.8025	0.096	539605	keystroke_r	r	n/a
270.1465	0.096	540293	keystroke_v	v	n/a
270.4265	0.088	540853	keystroke_i	i	n/a
270.6825	0.08	541365	keystroke_v	v	n/a
270.8505	0.088	541701	keystroke_o	o	n/a
271.0025	0.08	542005	keystroke_r	r	n/a
271.2345	0.08	542469	keystroke_Key.space	Key.space	n/a
271.4265	0.096	542853	keystroke_p	p	n/a
271.546	0.1045	543092	keystroke_r	r	n/a
271.7305	0.088	543461	keystroke_o	o	n/a
272.042	0.096	544084	keystroke_z	z	n/a
272.378	0.088	544756	keystroke_a	a	n/a
272.65	0.096	545300	keystroke_x	x	n/a
273.074	0.08	546148	keystroke_Key.backspace	Key.backspace	n/a
273.162	0.072	546324	keystroke_c	c	n/a
273.61	0.096	547220	keystroke_Key.space	Key.space	n/a
274.106	0.088	548212	keystroke_b	b	n/a
274.394	0.072	548788	keystroke_r	r	n/a
274.562	0.096	549124	keystroke_u	u	n/a
275.05	0.088	550100	keystroke_n	n	n/a
275.602	0.104	551204	keystroke_s	s	n/a
275.922	0.088	551844	keystroke_w	w	n/a
276.05	0.088	552100	keystroke_i	i	n/a
276.21	0.08	552420	keystroke_c	c	n/a
276.306	0.088	552612	keystroke_k	k	n/a
276.842	0.072	553684	keystroke_Key.enter	Key.enter	n/a
276.9225	10.9135	553845	prompt	n/a	electricity surrey participated landing\n
277.698	0.088	555396	keystroke_e	e	n/a
277.842	0.072	555684	keystroke_l	l	n/a
277.97	0.088	555940	keystroke_e	e	n/a
278.178	0.112	556356	keystroke_c	c	n/a
278.418	0.08	556836	keystroke_t	t	n/a
278.922	0.08	557844	keystroke_r	r	n/a
279.25	0.096	558500	keystroke_i	i	n/a
279.434	0.104	558868	keystroke_c	c	n/a
279.618	0.112	559236	keystroke_i	i	n/a
279.802	0.104	559604	keystroke_t	t	n/a
280.034	0.08	560068	keystroke_y	y	n/a
280.554	0.104	561108	keystroke_Key.space	Key.space	n/a
280.906	0.096	561812	keystroke_s	s	n/a
281.058	0.096	562116	keystroke_u	u	n/a
281.538	0.088	563076	keystroke_r	r	n/a
281.69	0.088	563380	keystroke_r	r	n/a
281.906	0.104	563812	keystroke_e	e	n/a
282.25	0.104	564500	keystroke_y	y	n/a
282.49	0.096	564980	keystroke_Key.space	Key.space	n/a
283.082	0.112	566164	keystroke_p	p	n/a
283.218	0.096	566436	keystroke_a	a	n/a
283.554	0.088	567108	keystroke_t	t	n/a
284.049	0.088	568098	keystroke_Key.backspace	Key.backspace	n/a
284.162	0.096	568324	keystroke_r	r	n/a
284.362	0.08	568724	keystroke_t	t	n/a
284.546	0.096	569092	keystroke_i	i	n/a
284.738	0.112	569476	keystroke_c	c	n/a
284.906	0.12	569812	keystroke_i	i	n/a
285.234	0.096	570468	keystroke_p	p	n/a
285.394	0.096	570788	keystroke_a	a	n/a
286.026	0.032	572052	keystroke_t	t	n/a
286.154	0.136	572308	keystroke_e	e	n/a
286.458	0.08	572916	keystroke_d	d	n/a
286.666	0.095	573332	keystroke_Key.space	Key.space	n/a
286.89	0.112	573780	keystroke_l	l	n/a
286.994	0.0955	573988	keystroke_a	a	n/a
287.1135	0.0805	574227	keystroke_n	n	n/a
287.1855	0.08	574371	keystroke_d	d	n/a
287.3055	0.088	574611	keystroke_i	i	n/a
287.3775	0.072	574755	keystroke_n	n	n/a
287.4975	0.064	574995	keystroke_g	g	n/a
287.7615	0.072	575523	keystroke_Key.enter	Key.enter	n/a
287.8405	8.5	575681	prompt	n/a	twice light beverages interracial\n
288.706	0.088	577412	keystroke_t	t	n/a
288.906	0.088	577812	keystroke_w	w	n/a
289.026	0.08	578052	keystroke_i	i	n/a
289.178	0.088	578356	keystroke_c	c	n/a
289.338	0.08	578676	keystroke_e	e	n/a
289.522	0.072	579044	keystroke_Key.space	Key.space	n/a
289.914	0.112	579828	keystroke_l	l	n/a
290.122	0.08	580244	keystroke_i	i	n/a
290.282	0.079	580564	keystroke_g	g	n/a
290.386	0.072	580772	keystroke_h	h	n/a
290.49	0.064	580980	keystroke_t	t	n/a
290.905	0.105	581810	keystroke_Key.space	Key.space	n/a
291.218	0.096	582436	keystroke_b	b	n/a
291.41	0.08	582820	keystroke_e	e	n/a
291.602	0.088	583204	keystroke_v	v	n/a
291.786	0.064	583572	keystroke_e	e	n/a
291.906	0.088	583812	keystroke_r	r	n/a
292.266	0.087	584532	keystroke_a	a	n/a
292.482	0.088	584964	keystroke_g	g	n/a
292.642	0.08	585284	keystroke_e	e	n/a
293.098	0.12	586196	keystroke_s	s	n/a
293.633	0.105	587266	keystroke_Key.space	Key.space	n/a
294.018	0.112	588036	keystroke_i	i	n/a
294.226	0.08	588452	keystroke_n	n	n/a
294.434	0.064	588868	keystroke_t	t	n/a
294.562	0.08	589124	keystroke_e	e	n/a
294.706	0.112	589412	keystroke_r	r	n/a
294.922	0.072	589844	keystroke_r	r	n/a
295.098	0.096	590196	keystroke_a	a	n/a
295.434	0.104	590868	keystroke_c	c	n/a
295.586	0.088	591172	keystroke_i	i	n/a
295.698	0.088	591396	keystroke_a	a	n/a
295.818	0.104	591636	keystroke_l	l	n/a
296.266	0.071	592532	keystroke_Key.enter	Key.enter	n/a
296.3445	9.915	592689	prompt	n/a	controllers pound mobility burning\n
296.938	0.08	593876	keystroke_c	c	n/a
297.033	0.081	594066	keystroke_o	o	n/a
297.186	0.072	594372	keystroke_n	n	n/a
297.322	0.08	594644	keystroke_t	t	n/a
297.458	0.08	594916	keystroke_r	r	n/a
297.626	0.104	595252	keystroke_o	o	n/a
297.85	0.08	595700	keystroke_l	l	n/a
298.01	0.088	596020	keystroke_l	l	n/a
298.154	0.104	596308	keystroke_e	e	n/a
298.306	0.087	596612	keystroke_r	r	n/a
298.57	0.088	597140	keystroke_s	s	n/a
298.745	0.089	597490	keystroke_Key.space	Key.space	n/a
298.978	0.08	597956	keystroke_p	p	n/a
299.146	0.08	598292	keystroke_o	o	n/a
299.322	0.08	598644	keystroke_u	u	n/a
299.506	0.072	599012	keystroke_n	n	n/a
299.626	0.088	599252	keystroke_d	d	n/a
300.161	0.088	600322	keystroke_Key.space	Key.space	n/a
300.338	0.104	600676	keystroke_m	m	n/a
300.506	0.096	601012	keystroke_o	o	n/a
300.706	0.12	601412	keystroke_i	i	n/a
301.249	0.097	602498	keystroke_Key.backspace	Key.backspace	n/a
301.41	0.088	602820	keystroke_b	b	n/a
301.738	0.104	603476	keystroke_i	i	n/a
302.026	0.12	604052	keystroke_l	l	n/a
302.81	0.112	605620	keystroke_i	i	n/a
303.082	0.104	606164	keystroke_t	t	n/a
303.306	0.08	606612	keystroke_y	y	n/a
303.809	0.097	607618	keystroke_Key.space	Key.space	n/a
304.394	0.079	608788	keystroke_b	b	n/a
304.53	0.072	609060	keystroke_u	u	n/a
304.666	0.072	609332	keystroke_r	r	n/a
304.946	0.072	609892	keystroke_n	n	n/a
305.09	0.111	610180	keystroke_i	i	n/a
305.194	0.079	610388	keystroke_n	n	n/a
305.29	0.08	610580	keystroke_g	g	n/a
306.186	0.071	612372	keystroke_Key.enter	Key.enter	n/a
306.2645	9.739	612529	prompt	n/a	mixer restrict canberra appreciation\n
307.05	0.112	614100	keystroke_m	m	n/a
307.314	0.032	614628	keystroke_i	i	n/a
308.298	0.071	616596	keystroke_x	x	n/a
308.578	0.12	617156	keystroke_e	e	n/a
308.834	0.103	617668	keystroke_r	r	n/a
309.033	0.112	618066	keystroke_Key.space	Key.space	n/a
309.314	0.072	618628	keystroke_r	r	n/a
309.69	0.112	619380	keystroke_e	e	n/a
309.93	0.136	619860	keystroke_s	s	n/a
310.202	0.096	620404	keystroke_t	t	n/a
310.346	0.096	620692	keystroke_r	r	n/a
310.498	0.088	620996	keystroke_i	i	n/a
310.69	0.103	621380	keystroke_c	c	n/a
310.93	0.088	621860	keystroke_t	t	n/a
311.305	0.08	622610	keystroke_Key.space	Key.space	n/a
311.53	0.104	623060	keystroke_c	c	n/a
311.722	0.08	623444	keystroke_a	a	n/a
311.914	0.111	623828	keystroke_n	n	n/a
312.202	0.047	624404	keystroke_b	b	n/a
312.394	0.104	624788	keystroke_e	e	n/a
312.594	0.088	625188	keystroke_r	r	n/a
312.761	0.073	625522	keystroke_r	r	n/a
312.953	0.089	625906	keystroke_a	a	n/a
313.274	0.095	626548	keystroke_Key.space	Key.space	n/a
313.618	0.103	627236	keystroke_a	a	n/a
313.882	0.104	627764	keystroke_p	p	n/a
314.066	0.088	628132	keystroke_p	p	n/a
314.178	0.096	628356	keystroke_r	r	n/a
314.258	0.088	628516	keystroke_e	e	n/a
314.858	0.104	629716	keystroke_c	c	n/a
315.026	0.072	630052	keystroke_i	i	n/a
315.137	0.0885	630274	keystroke_a	a	n/a
315.33	0.064	630660	keystroke_t	t	n/a
315.41	0.0875	630820	keystroke_i	i	n/a
315.5855	0.096	631171	keystroke_o	o	n/a
315.673	0.0795	631346	keystroke_n	n	n/a
315.9295	0.071	631859	keystroke_Key.enter	Key.enter	n/a
316.0095	10.5135	632019	prompt	n/a	benchmark block transferred velvet\n
316.674	0.087	633348	keystroke_b	b	n/a
316.9455	0.088	633891	keystroke_e	e	n/a
317.0735	0.08	634147	keystroke_n	n	n/a
317.2815	0.104	634563	keystroke_c	c	n/a
317.4575	0.088	634915	keystroke_h	h	n/a
317.9295	0.112	635859	keystroke_m	m	n/a
318.114	0.0785	636228	keystroke_a	a	n/a
318.3375	0.0805	636675	keystroke_r	r	n/a
318.466	0.12	636932	keystroke_k	k	n/a
318.849	0.096	637698	keystroke_Key.space	Key.space	n/a
319.1605	0.08	638321	keystroke_b	b	n/a
319.2975	0.088	638595	keystroke_l	l	n/a
319.4735	0.071	638947	keystroke_o	o	n/a
319.5775	0.087	639155	keystroke_c	c	n/a
319.7375	0.12	639475	keystroke_k	k	n/a
320.1845	0.097	640369	keystroke_Key.space	Key.space	n/a
320.4495	0.087	640899	keystroke_t	t	n/a
320.6095	0.096	641219	keystroke_r	r	n/a
320.8015	0.079	641603	keystroke_a	a	n/a
320.9445	0.073	641889	keystroke_n	n	n/a
321.1375	0.096	642275	keystroke_s	s	n/a
321.6175	0.08	643235	keystroke_f	f	n/a
322.0015	0.096	644003	keystroke_e	e	n/a
322.3455	0.088	644691	keystroke_r	r	n/a
322.5205	0.073	645041	keystroke_r	r	n/a
322.6495	0.079	645299	keystroke_e	e	n/a
322.8325	0.089	645665	keystroke_d	d	n/a
323.1295	0.095	646259	keystroke_Key.space	Key.space	n/a
323.4095	0.088	646819	keystroke_b	b	n/a
323.6095	0.071	647219	keystroke_e	e	n/a
323.7535	0.087	647507	keystroke_l	l	n/a
324.0815	0.087	648163	keystroke_Key.backspace	Key.backspace	n/a
324.2405	0.08	648481	keystroke_Key.backspace	Key.backspace	n/a
324.3925	0.08	648785	keystroke_Key.backspace	Key.backspace	n/a
324.4895	0.08	648979	keystroke_v	v	n/a
324.6575	0.072	649315	keystroke_e	e	n/a
324.7765	0.128	649553	keystroke_l	l	n/a
325.2895	0.087	650579	keystroke_v	v	n/a
325.4575	0.095	650915	keystroke_e	e	n/a
326.0725	0.073	652145	keystroke_t	t	n/a
326.4405	0.08	652881	keystroke_Key.enter	Key.enter	n/a
326.529	14.114	653058	prompt	n/a	ball households watershed mumbai\n
327.5375	0.088	655075	keystroke_v	v	n/a
328.0565	0.088	656113	keystroke_Key.backspace	Key.backspace	n/a
328.2015	0.104	656403	keystroke_c	c	n/a
328.8085	0.096	657617	keystroke_Key.backspace	Key.backspace	n/a
329.1055	0.071	658211	keystroke_b	b	n/a
329.2815	0.079	658563	keystroke_a	a	n/a
329.4095	0.087	658819	keystroke_l	l	n/a
329.5615	0.096	659123	keystroke_l	l	n/a
329.8565	0.088	659713	keystroke_Key.space	Key.space	n/a
330.1215	0.08	660243	keystroke_h	h	n/a
330.2565	0.073	660513	keystroke_o	o	n/a
330.3695	0.079	660739	keystroke_u	u	n/a
330.4975	0.071	660995	keystroke_s	s	n/a
330.6895	0.071	661379	keystroke_e	e	n/a
331.8255	0.096	663651	keystroke_b	b	n/a
332.4165	0.096	664833	keystroke_Key.backspace	Key.backspace	n/a
332.6565	0.088	665313	keystroke_j	j	n/a
333.2325	0.096	666465	keystroke_Key.backspace	Key.backspace	n/a
333.8255	0.071	667651	keystroke_h	h	n/a
333.9765	0.089	667953	keystroke_o	o	n/a
334.1525	0.073	668305	keystroke_l	l	n/a
334.4005	0.097	668801	keystroke_d	d	n/a
334.7855	0.087	669571	keystroke_s	s	n/a
334.9125	0.088	669825	keystroke_Key.space	Key.space	n/a
335.2255	0.127	670451	keystroke_w	w	n/a
335.4485	0.088	670897	keystroke_a	a	n/a
335.6575	0.087	671315	keystroke_t	t	n/a
335.8095	0.08	671619	keystroke_e	e	n/a
335.9215	0.072	671843	keystroke_r	r	n/a
336.1455	0.08	672291	keystroke_s	s	n/a
336.2335	0.072	672467	keystroke_h	h	n/a
336.3445	0.089	672689	keystroke_e	e	n/a
336.5285	0.105	673057	keystroke_d	d	n/a
336.9925	0.08	673985	keystroke_Key.space	Key.space	n/a
337.3765	0.104	674753	keystroke_m	m	n/a
337.6805	0.113	675361	keystroke_u	u	n/a
337.9535	0.104	675907	keystroke_m	m	n/a
338.4255	0.071	676851	keystroke_v	v	n/a
338.8885	0.08	677777	keystroke_Key.backspace	Key.backspace	n/a
339.0095	0.135	678019	keystroke_b	b	n/a
339.4325	0.097	678865	keystroke_a	a	n/a
339.7285	0.121	679457	keystroke_i	i	n/a
340.5365	0.104	681073	keystroke_Key.enter	Key.enter	n/a
340.648	7.7065	681296	prompt	n/a	novelty issues partly suites\n
341.2095	0.119	682419	keystroke_m	m	n/a
341.6325	0.1045	683265	keystroke_Key.backspace	Key.backspace	n/a
342.2015	0.071	684403	keystroke_n	n	n/a
342.3285	0.08	684657	keystroke_o	o	n/a
342.5535	0.079	685107	keystroke_v	v	n/a
342.7285	0.08	685457	keystroke_e	e	n/a
342.8485	0.081	685697	keystroke_l	l	n/a
343.0405	0.096	686081	keystroke_t	t	n/a
343.2645	0.088	686529	keystroke_y	y	n/a
343.5525	0.064	687105	keystroke_Key.space	Key.space	n/a
343.7365	0.088	687473	keystroke_i	i	n/a
343.8575	0.072	687715	keystroke_s	s	n/a
343.9855	0.103	687971	keystroke_s	s	n/a
344.1605	0.057	688321	keystroke_u	u	n/a
344.4895	0.095	688979	keystroke_e	e	n/a
344.7045	0.096	689409	keystroke_s	s	n/a
345.1685	0.056	690337	keystroke_Key.space	Key.space	n/a
345.4165	0.137	690833	keystroke_p	p	n/a
345.6325	0.081	691265	keystroke_a	a	n/a
345.7925	0.096	691585	keystroke_r	r	n/a
346.0565	0.104	692113	keystroke_t	t	n/a
346.2655	0.096	692531	keystroke_l	l	n/a
346.3855	0.072	692771	keystroke_y	y	n/a
346.8005	0.088	693601	keystroke_Key.space	Key.space	n/a
347.0165	0.088	694033	keystroke_s	s	n/a
347.1685	0.112	694337	keystroke_u	u	n/a
347.4405	0.12	694881	keystroke_i	i	n/a
347.6725	0.08	695345	keystroke_t	t	n/a
347.8245	0.081	695649	keystroke_e	e	n/a
348.0175	0.087	696035	keystroke_s	s	n/a
348.2805	0.072	696561	keystroke_Key.enter	Key.enter	n/a
348.36	8.3945	696720	prompt	n/a	entertaining itself magic surname\n
348.9615	0.088	697923	keystroke_e	e	n/a
349.0815	0.071	698163	keystroke_n	n	n/a
349.2175	0.08	698435	keystroke_t	t	n/a
349.3445	0.073	698689	keystroke_e	e	n/a
349.4805	0.08	698961	keystroke_r	r	n/a
349.7685	0.088	699537	keystroke_t	t	n/a
349.9855	0.071	699971	keystroke_a	a	n/a
350.1215	0.095	700243	keystroke_i	i	n/a
350.3055	0.071	700611	keystroke_n	n	n/a
350.4325	0.08	700865	keystroke_i	i	n/a
350.4895	0.104	700979	keystroke_n	n	n/a
350.6405	0.072	701281	keystroke_g	g	n/a
350.7605	0.072	701521	keystroke_Key.space	Key.space	n/a
350.8805	0.096	701761	keystroke_i	i	n/a
351.0325	0.073	702065	keystroke_t	t	n/a
351.3765	0.096	702753	keystroke_s	s	n/a
351.6165	0.096	703233	keystroke_e	e	n/a
351.7765	0.088	703553	keystroke_l	l	n/a
351.9295	0.079	703859	keystroke_f	f	n/a
352.5685	0.08	705137	keystroke_Key.space	Key.space	n/a
352.7525	0.088	705505	keystroke_m	m	n/a
352.8415	0.079	705683	keystroke_a	a	n/a
353.0325	0.08	706065	keystroke_g	g	n/a
353.1205	0.072	706241	keystroke_i	i	n/a
353.2975	0.088	706595	keystroke_c	c	n/a
353.4325	0.08	706865	keystroke_Key.space	Key.space	n/a
353.7685	0.104	707537	keystroke_s	s	n/a
353.9765	0.08	707953	keystroke_u	u	n/a
354.1285	0.088	708257	keystroke_r	r	n/a
354.6165	0.057	709233	keystroke_v	v	n/a
354.7205	0.097	709441	keystroke_n	n	n/a
355.0005	0.072	710001	keystroke_Key.backspace	Key.backspace	n/a
355.1205	0.08	710241	keystroke_Key.backspace	Key.backspace	n/a
355.3455	0.087	710691	keystroke_n	n	n/a
355.5125	0.088	711025	keystroke_a	a	n/a
355.6085	0.089	711217	keystroke_m	m	n/a
355.7365	0.08	711473	keystroke_e	e	n/a
356.6645	0.088	713329	keystroke_Key.enter	Key.enter	n/a
356.76	9.435	713520	prompt	n/a	intellectual modelling calculator special\n
357.3455	0.103	714691	keystroke_i	i	n/a
357.7045	0.08	715409	keystroke_n	n	n/a
357.9765	0.081	715953	keystroke_t	t	n/a
358.1685	0.072	716337	keystroke_e	e	n/a
358.3135	0.079	716627	keystroke_l	l	n/a
358.4805	0.08	716961	keystroke_l	l	n/a
358.5765	0.08	717153	keystroke_e	e	n/a
358.7685	0.08	717537	keystroke_c	c	n/a
358.9935	0.063	717987	keystroke_t	t	n/a
359.1125	0.088	718225	keystroke_u	u	n/a
359.3925	0.08	718785	keystroke_a	a	n/a
359.6335	0.127	719267	keystroke_l	l	n/a
360.0165	0.088	720033	keystroke_Key.space	Key.space	n/a
360.2005	0.08	720401	keystroke_m	m	n/a
360.3375	0.08	720675	keystroke_o	o	n/a
360.5205	0.096	721041	keystroke_d	d	n/a
360.9445	0.089	721889	keystroke_e	e	n/a
361.2325	0.104	722465	keystroke_l	l	n/a
361.4325	0.08	722865	keystroke_l	l	n/a
361.6245	0.12	723249	keystroke_i	i	n/a
361.7285	0.089	723457	keystroke_n	n	n/a
361.8725	0.088	723745	keystroke_g	g	n/a
361.9845	0.096	723969	keystroke_Key.space	Key.space	n/a
362.1605	0.08	724321	keystroke_c	c	n/a
362.2805	0.088	724561	keystroke_a	a	n/a
362.3765	0.104	724753	keystroke_l	l	n/a
362.7285	0.096	725457	keystroke_c	c	n/a
363.0485	0.081	726097	keystroke_u	u	n/a
363.3445	0.088	726689	keystroke_l	l	n/a
363.4965	0.089	726993	keystroke_a	a	n/a
363.6725	0.08	727345	keystroke_t	t	n/a
363.7605	0.08	727521	keystroke_o	o	n/a
363.8805	0.072	727761	keystroke_r	r	n/a
364.0165	0.08	728033	keystroke_Key.space	Key.space	n/a
364.1845	0.088	728369	keystroke_s	s	n/a
364.3045	0.097	728609	keystroke_p	p	n/a
364.4805	0.088	728961	keystroke_e	e	n/a
364.7285	0.088	729457	keystroke_c	c	n/a
364.8245	0.089	729649	keystroke_i	i	n/a
365.0245	0.088	730049	keystroke_a	a	n/a
365.1605	0.104	730321	keystroke_l	l	n/a
366.1205	0.072	732241	keystroke_Key.enter	Key.enter	n/a
366.1995	17.3235	732399	prompt	n/a	strictly acdbentity driver consecutive\n
367.0085	0.096	734017	keystroke_s	s	n/a
367.2325	0.096	734465	keystroke_t	t	n/a
367.3845	0.097	734769	keystroke_r	r	n/a
367.5525	0.088	735105	keystroke_i	i	n/a
368.3605	0.104	736721	keystroke_c	c	n/a
368.6245	0.105	737249	keystroke_t	t	n/a
368.849	0.1195	737698	keystroke_l	l	n/a
369.0005	0.08	738001	keystroke_y	y	n/a
369.3125	0.104	738625	keystroke_Key.space	Key.space	n/a
369.6405	0.104	739281	keystroke_a	a	n/a
370.8815	0.063	741763	keystroke_c	c	n/a
373.5135	0.079	747027	keystroke_d	d	n/a
373.9125	0.08	747825	keystroke_b	b	n/a
374.6485	0.088	749297	keystroke_e	e	n/a
374.7765	0.088	749553	keystroke_n	n	n/a
374.9205	0.088	749841	keystroke_t	t	n/a
375.1045	0.105	750209	keystroke_i	i	n/a
375.2885	0.088	750577	keystroke_t	t	n/a
375.5445	0.08	751089	keystroke_y	y	n/a
376.1045	0.08	752209	keystroke_Key.space	Key.space	n/a
376.2885	0.088	752577	keystroke_d	d	n/a
376.5445	0.112	753089	keystroke_r	r	n/a
376.8245	0.113	753649	keystroke_i	i	n/a
377.0245	0.096	754049	keystroke_b	b	n/a
377.6165	0.072	755233	keystroke_Key.backspace	Key.backspace	n/a
377.7375	0.095	755475	keystroke_v	v	n/a
377.8805	0.08	755761	keystroke_i	i	n/a
378.3285	0.08	756657	keystroke_Key.backspace	Key.backspace	n/a
380.2255	0.119	760451	keystroke_e	e	n/a
380.4485	0.088	760897	keystroke_r	r	n/a
380.8405	0.12	761681	keystroke_Key.space	Key.space	n/a
381.1045	0.088	762209	keystroke_c	c	n/a
381.2085	0.08	762417	keystroke_o	o	n/a
381.3445	0.072	762689	keystroke_n	n	n/a
381.4725	0.081	762945	keystroke_s	s	n/a
381.6485	0.088	763297	keystroke_e	e	n/a
381.8565	0.096	763713	keystroke_c	c	n/a
381.9925	0.096	763985	keystroke_u	u	n/a
382.2405	0.088	764481	keystroke_t	t	n/a
382.4165	0.096	764833	keystroke_i	i	n/a
382.8245	0.12	765649	keystroke_v	v	n/a
383.1365	0.08	766273	keystroke_e	e	n/a
383.4405	0.08	766881	keystroke_Key.enter	Key.enter	n/a
383.53	6.4245	767060	prompt	n/a	high venice ministers facial\n
384.1525	0.088	768305	keystroke_h	h	n/a
384.2965	0.096	768593	keystroke_i	i	n/a
384.4165	0.08	768833	keystroke_g	g	n/a
384.4885	0.08	768977	keystroke_h	h	n/a
384.7125	0.088	769425	keystroke_Key.space	Key.space	n/a
384.9525	0.08	769905	keystroke_v	v	n/a
385.1765	0.096	770353	keystroke_e	e	n/a
385.3365	0.096	770673	keystroke_n	n	n/a
385.5205	0.088	771041	keystroke_i	i	n/a
385.6325	0.088	771265	keystroke_c	c	n/a
385.8325	0.08	771665	keystroke_e	e	n/a
386.0085	0.096	772017	keystroke_Key.space	Key.space	n/a
386.3525	0.112	772705	keystroke_m	m	n/a
386.5445	0.088	773089	keystroke_i	i	n/a
386.6965	0.064	773393	keystroke_n	n	n/a
386.8005	0.072	773601	keystroke_i	i	n/a
386.9205	0.08	773841	keystroke_s	s	n/a
387.0965	0.08	774193	keystroke_t	t	n/a
387.2485	0.04	774497	keystroke_e	e	n/a
387.2965	0.096	774593	keystroke_r	r	n/a
388.0645	0.08	776129	keystroke_s	s	n/a
388.3125	0.088	776625	keystroke_Key.space	Key.space	n/a
388.5125	0.088	777025	keystroke_f	f	n/a
388.7845	0.088	777569	keystroke_a	a	n/a
388.9525	0.088	777905	keystroke_c	c	n/a
389.1285	0.096	778257	keystroke_i	i	n/a
389.2645	0.08	778529	keystroke_a	a	n/a
389.3925	0.104	778785	keystroke_l	l	n/a
389.8645	0.088	779729	keystroke_Key.enter	Key.enter	n/a
389.9595	6.0825	779919	prompt	n/a	our picture helps sandra\n
390.7365	0.096	781473	keystroke_o	o	n/a
390.9205	0.072	781841	keystroke_u	u	n/a
391.0485	0.08	782097	keystroke_t	t	n/a
391.2085	0.088	782417	keystroke_Key.space	Key.space	n/a
391.7525	0.08	783505	keystroke_Key.backspace	Key.backspace	n/a
391.8885	0.08	783777	keystroke_Key.backspace	Key.backspace	n/a
391.9765	0.08	783953	keystroke_r	r	n/a
392.1125	0.08	784225	keystroke_Key.space	Key.space	n/a
392.2565	0.104	784513	keystroke_p	p	n/a
392.4725	0.088	784945	keystroke_i	i	n/a
392.6325	0.104	785265	keystroke_c	c	n/a
392.8485	0.08	785697	keystroke_t	t	n/a
392.9445	0.072	785889	keystroke_u	u	n/a
393.0405	0.08	786081	keystroke_r	r	n/a
393.1285	0.08	786257	keystroke_e	e	n/a
393.5605	0.08	787121	keystroke_Key.space	Key.space	n/a
393.7685	0.08	787537	keystroke_h	h	n/a
393.8885	0.072	787777	keystroke_e	e	n/a
394.0005	0.096	788001	keystroke_l	l	n/a
394.1445	0.096	788289	keystroke_p	p	n/a
394.3045	0.08	788609	keystroke_s	s	n/a
394.4565	0.08	788913	keystroke_Key.space	Key.space	n/a
394.6645	0.08	789329	keystroke_s	s	n/a
394.8005	0.096	789601	keystroke_a	a	n/a
394.9125	0.072	789825	keystroke_n	n	n/a
395.0805	0.104	790161	keystroke_d	d	n/a
395.4485	0.104	790897	keystroke_r	r	n/a
395.7285	0.088	791457	keystroke_a	a	n/a
395.9525	0.088	791905	keystroke_Key.enter	Key.enter	n/a
396.0465	9.0445	792093	prompt	n/a	imperial twiki calculations followed\n
396.7045	0.12	793409	keystroke_i	i	n/a
396.9285	0.096	793857	keystroke_m	m	n/a
397.1205	0.088	794241	keystroke_p	p	n/a
397.2965	0.08	794593	keystroke_e	e	n/a
397.4405	0.08	794881	keystroke_r	r	n/a
397.5285	0.088	795057	keystroke_i	i	n/a
397.6485	0.08	795297	keystroke_a	a	n/a
397.7605	0.088	795521	keystroke_l	l	n/a
397.9365	0.096	795873	keystroke_Key.space	Key.space	n/a
398.1765	0.112	796353	keystroke_t	t	n/a
398.4245	0.064	796849	keystroke_w	w	n/a
398.5525	0.128	797105	keystroke_i	i	n/a
398.8485	0.104	797697	keystroke_k	k	n/a
399.0565	0.072	798113	keystroke_i	i	n/a
400.0805	0.096	800161	keystroke_Key.space	Key.space	n/a
400.328	0.097	800656	keystroke_c	c	n/a
400.481	0.08	800962	keystroke_a	a	n/a
400.593	0.096	801186	keystroke_l	l	n/a
400.777	0.088	801554	keystroke_c	c	n/a
400.977	0.08	801954	keystroke_u	u	n/a
401.201	0.08	802402	keystroke_l	l	n/a
401.297	0.096	802594	keystroke_a	a	n/a
401.489	0.072	802978	keystroke_t	t	n/a
401.593	0.072	803186	keystroke_i	i	n/a
402.193	0.111	804386	keystroke_o	o	n/a
402.424	0.097	804848	keystroke_n	n	n/a
402.7525	0.096	805505	keystroke_s	s	n/a
403.0725	0.088	806145	keystroke_Key.space	Key.space	n/a
403.5125	0.128	807025	keystroke_f	f	n/a
403.7205	0.104	807441	keystroke_o	o	n/a
403.9445	0.08	807889	keystroke_l	l	n/a
404.0805	0.08	808161	keystroke_l	l	n/a
404.2565	0.08	808513	keystroke_o	o	n/a
404.3845	0.088	808769	keystroke_w	w	n/a
404.5845	0.072	809169	keystroke_e	e	n/a
404.7525	0.088	809505	keystroke_d	d	n/a
405.0085	0.08	810017	keystroke_Key.enter	Key.enter	n/a
405.0965	8.7865	810193	prompt	n/a	promotions environments cancer broken\n
405.6565	0.12	811313	keystroke_p	p	n/a
405.9205	0.112	811841	keystroke_r	r	n/a
406.2885	0.12	812577	keystroke_o	o	n/a
406.6325	0.112	813265	keystroke_m	m	n/a
406.9045	0.112	813809	keystroke_o	o	n/a
407.1205	0.088	814241	keystroke_t	t	n/a
407.2325	0.08	814465	keystroke_i	i	n/a
407.4005	0.096	814801	keystroke_o	o	n/a
407.5285	0.088	815057	keystroke_n	n	n/a
407.6645	0.096	815329	keystroke_s	s	n/a
407.8005	0.104	815601	keystroke_Key.space	Key.space	n/a
408.0325	0.104	816065	keystroke_e	e	n/a
408.1765	0.072	816353	keystroke_n	n	n/a
408.7365	0.112	817473	keystroke_v	v	n/a
409.1685	0.104	818337	keystroke_i	i	n/a
409.5125	0.104	819025	keystroke_r	r	n/a
409.8965	0.12	819793	keystroke_o	o	n/a
410.2005	0.128	820401	keystroke_n	n	n/a
410.4805	0.104	820961	keystroke_m	m	n/a
410.6565	0.096	821313	keystroke_e	e	n/a
410.7685	0.096	821537	keystroke_n	n	n/a
410.9045	0.08	821809	keystroke_t	t	n/a
411.1445	0.088	822289	keystroke_s	s	n/a
411.3205	0.096	822641	keystroke_Key.space	Key.space	n/a
411.5365	0.096	823073	keystroke_c	c	n/a
411.7205	0.088	823441	keystroke_a	a	n/a
411.8405	0.08	823681	keystroke_n	n	n/a
411.9845	0.096	823969	keystroke_c	c	n/a
412.1285	0.08	824257	keystroke_e	e	n/a
412.2725	0.08	824545	keystroke_r	r	n/a
412.3925	0.072	824785	keystroke_Key.space	Key.space	n/a
412.7845	0.096	825569	keystroke_b	b	n/a
413.1125	0.072	826225	keystroke_r	r	n/a
413.2325	0.072	826465	keystroke_o	o	n/a
413.3845	0.088	826769	keystroke_k	k	n/a
413.4805	0.064	826961	keystroke_e	e	n/a
413.5765	0.072	827153	keystroke_n	n	n/a
413.8005	0.0805	827601	keystroke_Key.enter	Key.enter	n/a
413.889	9.4015	827778	prompt	n/a	measuring procedure gains sporting\n
414.545	0.095	829090	keystroke_m	m	n/a
414.841	0.088	829682	keystroke_e	e	n/a
415.024	0.088	830048	keystroke_a	a	n/a
415.361	0.079	830722	keystroke_s	s	n/a
415.473	0.119	830946	keystroke_u	u	n/a
415.784	0.096	831568	keystroke_r	r	n/a
415.904	0.089	831808	keystroke_i	i	n/a
416.025	0.08	832050	keystroke_n	n	n/a
416.168	0.073	832336	keystroke_g	g	n/a
416.52	0.104	833040	keystroke_Key.space	Key.space	n/a
416.768	0.097	833536	keystroke_p	p	n/a
416.96	0.08	833920	keystroke_r	r	n/a
417.064	0.089	834128	keystroke_o	o	n/a
417.28	0.088	834560	keystroke_c	c	n/a
417.449	0.08	834898	keystroke_e	e	n/a
417.681	0.071	835362	keystroke_d	d	n/a
417.864	0.104	835728	keystroke_u	u	n/a
418.033	0.104	836066	keystroke_r	r	n/a
418.16	0.088	836320	keystroke_e	e	n/a
418.328	0.088	836656	keystroke_Key.space	Key.space	n/a
418.713	0.104	837426	keystroke_g	g	n/a
418.945	0.08	837890	keystroke_a	a	n/a
419.04	0.12	838080	keystroke_i	i	n/a
419.208	0.097	838416	keystroke_n	n	n/a
419.416	0.073	838832	keystroke_s	s	n/a
419.68	0.104	839360	keystroke_Key.space	Key.space	n/a
419.928	0.089	839856	keystroke_s	s	n/a
420.072	0.088	840144	keystroke_p	p	n/a
420.272	0.096	840544	keystroke_o	o	n/a
420.441	0.135	840882	keystroke_r	r	n/a
420.656	0.136	841312	keystroke_i	i	n/a
420.784	0.121	841568	keystroke_n	n	n/a
420.969	0.103	841938	keystroke_g	g	n/a
421.528	0.088	843056	keystroke_Key.backspace	Key.backspace	n/a
421.696	0.096	843392	keystroke_Key.backspace	Key.backspace	n/a
421.88	0.096	843760	keystroke_Key.backspace	Key.backspace	n/a
422.337	0.103	844674	keystroke_t	t	n/a
422.552	0.113	845104	keystroke_i	i	n/a
422.688	0.088	845376	keystroke_n	n	n/a
422.8	0.08	845600	keystroke_g	g	n/a
423.208	0.08	846416	keystroke_Key.enter	Key.enter	n/a
423.2965	5.378	846593	prompt	n/a	zinc unity any athens\n
424.137	0.111	848274	keystroke_z	z	n/a
424.312	0.104	848624	keystroke_i	i	n/a
424.472	0.08	848944	keystroke_n	n	n/a
424.681	0.127	849362	keystroke_c	c	n/a
425.192	0.088	850384	keystroke_Key.space	Key.space	n/a
425.497	0.103	850994	keystroke_u	u	n/a
425.721	0.08	851442	keystroke_n	n	n/a
425.848	0.088	851696	keystroke_i	i	n/a
426.048	0.105	852096	keystroke_t	t	n/a
426.289	0.071	852578	keystroke_y	y	n/a
426.456	0.088	852912	keystroke_Key.space	Key.space	n/a
426.688	0.104	853376	keystroke_a	a	n/a
426.848	0.08	853696	keystroke_n	n	n/a
427.024	0.072	854048	keystroke_y	y	n/a
427.16	0.088	854320	keystroke_Key.space	Key.space	n/a
427.392	0.097	854784	keystroke_a	a	n/a
427.624	0.072	855248	keystroke_t	t	n/a
427.752	0.08	855504	keystroke_h	h	n/a
427.833	0.071	855666	keystroke_e	e	n/a
428.192	0.064	856384	keystroke_n	n	n/a
428.352	0.072	856704	keystroke_s	s	n/a
428.6	0.072	857200	keystroke_Key.enter	Key.enter	n/a
428.68	7.051	857360	prompt	n/a	imported connection divide rear\n
429.304	0.096	858608	keystroke_i	i	n/a
429.504	0.08	859008	keystroke_m	m	n/a
429.68	0.081	859360	keystroke_p	p	n/a
429.864	0.08	859728	keystroke_o	o	n/a
430.024	0.096	860048	keystroke_r	r	n/a
430.224	0.08	860448	keystroke_t	t	n/a
430.784	0.08	861568	keystroke_e	e	n/a
430.961	0.096	861922	keystroke_d	d	n/a
431.416	0.08	862832	keystroke_Key.space	Key.space	n/a
431.576	0.08	863152	keystroke_c	c	n/a
431.673	0.087	863346	keystroke_o	o	n/a
431.84	0.072	863680	keystroke_n	n	n/a
431.992	0.072	863984	keystroke_n	n	n/a
432.072	0.072	864144	keystroke_e	e	n/a
432.232	0.088	864464	keystroke_c	c	n/a
432.44	0.064	864880	keystroke_t	t	n/a
432.528	0.081	865056	keystroke_i	i	n/a
432.696	0.081	865392	keystroke_o	o	n/a
432.84	0.089	865680	keystroke_n	n	n/a
432.984	0.088	865968	keystroke_Key.space	Key.space	n/a
433.136	0.128	866272	keystroke_d	d	n/a
433.272	0.136	866544	keystroke_i	i	n/a
433.609	0.119	867218	keystroke_v	v	n/a
433.936	0.113	867872	keystroke_i	i	n/a
434.176	0.112	868352	keystroke_d	d	n/a
434.432	0.096	868864	keystroke_e	e	n/a
434.576	0.08	869152	keystroke_Key.space	Key.space	n/a
434.8	0.08	869600	keystroke_r	r	n/a
434.912	0.088	869824	keystroke_e	e	n/a
435.064	0.088	870128	keystroke_a	a	n/a
435.232	0.088	870464	keystroke_r	r	n/a
435.6485	0.08	871297	keystroke_Key.enter	Key.enter	n/a
435.7365	8.754	871473	prompt	n/a	stud manga olympic bill\n
436.4405	0.0955	872881	keystroke_s	s	n/a
436.64	0.08	873280	keystroke_t	t	n/a
436.76	0.081	873520	keystroke_u	u	n/a
436.92	0.113	873840	keystroke_d	d	n/a
437.448	0.088	874896	keystroke_Key.space	Key.space	n/a
437.632	0.112	875264	keystroke_m	m	n/a
437.784	0.097	875568	keystroke_a	a	n/a
437.896	0.088	875792	keystroke_n	n	n/a
438.12	0.112	876240	keystroke_g	g	n/a
438.9605	0.112	877921	keystroke_a	a	n/a
439.0965	0.088	878193	keystroke_Key.space	Key.space	n/a
439.2805	0.104	878561	keystroke_o	o	n/a
439.5205	0.104	879041	keystroke_l	l	n/a
439.7445	0.112	879489	keystroke_y	y	n/a
439.9525	0.104	879905	keystroke_m	m	n/a
440.4405	0.024	880881	keystroke_p	p	n/a
440.4965	0.104	880993	keystroke_p	p	n/a
440.8005	0.104	881601	keystroke_i	i	n/a
441.2885	0.072	882577	keystroke_Key.backspace	Key.backspace	n/a
441.4245	0.088	882849	keystroke_Key.backspace	Key.backspace	n/a
441.6725	0.088	883345	keystroke_o	o	n/a
442.1365	0.08	884273	keystroke_Key.backspace	Key.backspace	n/a
442.5365	0.072	885073	keystroke_i	i	n/a
442.8165	0.088	885633	keystroke_c	c	n/a
443.0485	0.088	886097	keystroke_Key.space	Key.space	n/a
443.3845	0.072	886769	keystroke_b	b	n/a
443.5285	0.096	887057	keystroke_i	i	n/a
443.7845	0.096	887569	keystroke_l	l	n/a
443.9605	0.088	887921	keystroke_l	l	n/a
444.4085	0.08	888817	keystroke_Key.enter	Key.enter	n/a
444.5055	6.697	889011	prompt	n/a	rugs walt ashley healthy\n
445.3205	0.104	890641	keystroke_r	r	n/a
445.5125	0.072	891025	keystroke_u	u	n/a
445.6725	0.072	891345	keystroke_g	g	n/a
445.8885	0.088	891777	keystroke_s	s	n/a
446.2325	0.072	892465	keystroke_Key.space	Key.space	n/a
446.4565	0.088	892913	keystroke_w	w	n/a
446.6245	0.088	893249	keystroke_a	a	n/a
446.7445	0.12	893489	keystroke_l	l	n/a
446.9365	0.072	893873	keystroke_t	t	n/a
447.0725	0.08	894145	keystroke_Key.space	Key.space	n/a
447.3445	0.12	894689	keystroke_a	a	n/a
447.7765	0.096	895553	keystroke_s	s	n/a
447.9285	0.112	895857	keystroke_h	h	n/a
448.4805	0.144	896961	keystroke_l	l	n/a
448.6885	0.072	897377	keystroke_e	e	n/a
448.8565	0.08	897713	keystroke_y	y	n/a
449.4805	0.08	898961	keystroke_Key.space	Key.space	n/a
449.6725	0.072	899345	keystroke_h	h	n/a
449.7685	0.08	899537	keystroke_e	e	n/a
449.9125	0.096	899825	keystroke_a	a	n/a
450.0245	0.104	900049	keystroke_l	l	n/a
450.2325	0.064	900465	keystroke_t	t	n/a
450.3765	0.088	900753	keystroke_h	h	n/a
450.7765	0.088	901553	keystroke_y	y	n/a
451.1205	0.08	902241	keystroke_Key.enter	Key.enter	n/a
451.209	10.5775	902418	prompt	n/a	rendered 'tis tract precisely\n
451.8565	0.096	903713	keystroke_r	r	n/a
451.9925	0.088	903985	keystroke_e	e	n/a
452.1365	0.08	904273	keystroke_n	n	n/a
452.3045	0.104	904609	keystroke_d	d	n/a
452.4645	0.088	904929	keystroke_e	e	n/a
452.6085	0.088	905217	keystroke_r	r	n/a
452.7205	0.08	905441	keystroke_e	e	n/a
452.8885	0.08	905777	keystroke_d	d	n/a
453.0325	0.08	906065	keystroke_Key.space	Key.space	n/a
453.5285	0.12	907057	keystroke_'	'	n/a
453.8725	0.088	907745	keystroke_t	t	n/a
454.0965	0.104	908193	keystroke_i	i	n/a
454.2805	0.104	908561	keystroke_s	s	n/a
454.8325	0.088	909665	keystroke_Key.space	Key.space	n/a
455.0245	0.096	910049	keystroke_t	t	n/a
455.1925	0.088	910385	keystroke_r	r	n/a
455.3765	0.096	910753	keystroke_a	a	n/a
455.6645	0.096	911329	keystroke_c	c	n/a
455.9925	0.08	911985	keystroke_t	t	n/a
456.2885	0.088	912577	keystroke_Key.space	Key.space	n/a
456.4805	0.096	912961	keystroke_p	p	n/a
456.6405	0.104	913281	keystroke_r	r	n/a
456.7765	0.0875	913553	keystroke_e	e	n/a
457.089	0.088	914178	keystroke_c	c	n/a
457.185	0.072	914370	keystroke_i	i	n/a
457.585	0.12	915170	keystroke_d	d	n/a
458.7285	0.08	917457	keystroke_Key.backspace	Key.backspace	n/a
460.6645	0.104	921329	keystroke_s	s	n/a
461.016	0.0885	922032	keystroke_e	e	n/a
461.1525	0.1035	922305	keystroke_l	l	n/a
461.312	0.08	922624	keystroke_y	y	n/a
461.712	0.072	923424	keystroke_Key.enter	Key.enter	n/a
461.791	6.811	923582	prompt	n/a	dish stick trying honolulu\n
462.465	0.111	924930	keystroke_d	d	n/a
462.592	0.088	925184	keystroke_i	i	n/a
462.704	0.096	925408	keystroke_s	s	n/a
462.816	0.072	925632	keystroke_h	h	n/a
463.336	0.096	926672	keystroke_Key.space	Key.space	n/a
463.632	0.16	927264	keystroke_s	s	n/a
463.928	0.08	927856	keystroke_t	t	n/a
464.072	0.08	928144	keystroke_i	i	n/a
464.208	0.088	928416	keystroke_c	c	n/a
464.32	0.104	928640	keystroke_k	k	n/a
464.6	0.088	929200	keystroke_Key.space	Key.space	n/a
464.84	0.096	929680	keystroke_t	t	n/a
465.016	0.104	930032	keystroke_r	r	n/a
465.224	0.088	930448	keystroke_y	y	n/a
465.36	0.112	930720	keystroke_i	i	n/a
465.448	0.08	930896	keystroke_n	n	n/a
465.552	0.08	931104	keystroke_g	g	n/a
466.056	0.088	932112	keystroke_Key.space	Key.space	n/a
466.336	0.088	932672	keystroke_h	h	n/a
466.632	0.104	933264	keystroke_o	o	n/a
466.84	0.08	933680	keystroke_n	n	n/a
467.008	0.104	934016	keystroke_o	o	n/a
467.36	0.104	934720	keystroke_l	l	n/a
467.568	0.072	935136	keystroke_u	u	n/a
467.76	0.08	935520	keystroke_l	l	n/a
467.912	0.056	935824	keystroke_u	u	n/a
468.52	0.08	937040	keystroke_Key.enter	Key.enter	n/a
468.6105	7.296	937221	prompt	n/a	experiences cuba vision solve\n
469.408	0.096	938816	keystroke_e	e	n/a
469.64	0.096	939280	keystroke_x	x	n/a
469.752	0.096	939504	keystroke_p	p	n/a
469.904	0.096	939808	keystroke_e	e	n/a
470.152	0.096	940304	keystroke_r	r	n/a
470.592	0.096	941184	keystroke_i	i	n/a
470.696	0.096	941392	keystroke_e	e	n/a
470.824	0.072	941648	keystroke_n	n	n/a
470.992	0.12	941984	keystroke_c	c	n/a
471.208	0.104	942416	keystroke_e	e	n/a
471.416	0.088	942832	keystroke_s	s	n/a
471.6	0.104	943200	keystroke_Key.space	Key.space	n/a
471.808	0.104	943616	keystroke_c	c	n/a
471.928	0.08	943856	keystroke_u	u	n/a
472.096	0.08	944192	keystroke_b	b	n/a
472.544	0.088	945088	keystroke_a	a	n/a
472.704	0.088	945408	keystroke_Key.space	Key.space	n/a
473.208	0.048	946416	keystroke_v	v	n/a
473.664	0.112	947328	keystroke_i	i	n/a
473.88	0.088	947760	keystroke_s	s	n/a
474.136	0.088	948272	keystroke_i	i	n/a
474.32	0.08	948640	keystroke_o	o	n/a
474.424	0.08	948848	keystroke_n	n	n/a
474.752	0.08	949504	keystroke_Key.space	Key.space	n/a
475.08	0.08	950160	keystroke_s	s	n/a
475.176	0.088	950352	keystroke_o	o	n/a
475.352	0.096	950704	keystroke_l	l	n/a
475.48	0.096	950960	keystroke_v	v	n/a
475.64	0.088	951280	keystroke_e	e	n/a
475.832	0.072	951664	keystroke_Key.enter	Key.enter	n/a
475.9125	6.7225	951825	prompt	n/a	lucy lecture bingo actions\n
476.52	0.096	953040	keystroke_l	l	n/a
476.736	0.072	953472	keystroke_u	u	n/a
476.848	0.104	953696	keystroke_c	c	n/a
477.096	0.064	954192	keystroke_y	y	n/a
477.36	0.096	954720	keystroke_Key.space	Key.space	n/a
477.888	0.112	955776	keystroke_l	l	n/a
478.016	0.096	956032	keystroke_e	e	n/a
478.232	0.048	956464	keystroke_c	c	n/a
478.52	0.096	957040	keystroke_t	t	n/a
478.728	0.088	957456	keystroke_u	u	n/a
479.104	0.088	958208	keystroke_r	r	n/a
479.376	0.096	958752	keystroke_e	e	n/a
479.712	0.104	959424	keystroke_Key.space	Key.space	n/a
480.112	0.072	960224	keystroke_b	b	n/a
480.264	0.088	960528	keystroke_i	i	n/a
480.368	0.08	960736	keystroke_n	n	n/a
480.456	0.096	960912	keystroke_g	g	n/a
480.68	0.096	961360	keystroke_o	o	n/a
481.04	0.096	962080	keystroke_Key.space	Key.space	n/a
481.472	0.096	962944	keystroke_a	a	n/a
481.656	0.112	963312	keystroke_c	c	n/a
481.88	0.072	963760	keystroke_t	t	n/a
481.96	0.08	963920	keystroke_i	i	n/a
482.112	0.088	964224	keystroke_o	o	n/a
482.208	0.072	964416	keystroke_n	n	n/a
482.328	0.08	964656	keystroke_s	s	n/a
482.552	0.08	965104	keystroke_Key.enter	Key.enter	n/a
482.641	12.641	965282	prompt	n/a	petroleum restaurants duty stat\n
483.36	0.12	966720	keystroke_p	p	n/a
483.72	0.104	967440	keystroke_e	e	n/a
484.064	0.104	968128	keystroke_r	r	n/a
484.336	0.096	968672	keystroke_e	e	n/a
484.488	0.104	968976	keystroke_o	o	n/a
484.704	0.112	969408	keystroke_l	l	n/a
484.84	0.088	969680	keystroke_e	e	n/a
485.392	0.1035	970784	keystroke_Key.backspace	Key.backspace	n/a
485.576	0.0875	971152	keystroke_Key.backspace	Key.backspace	n/a
485.7515	0.08	971503	keystroke_Key.backspace	Key.backspace	n/a
485.9195	0.0965	971839	keystroke_Key.backspace	Key.backspace	n/a
486.512	0.0715	973024	keystroke_Key.backspace	Key.backspace	n/a
486.656	0.088	973312	keystroke_t	t	n/a
487.1755	0.104	974351	keystroke_r	r	n/a
487.3755	0.104	974751	keystroke_o	o	n/a
487.616	0.1195	975232	keystroke_l	l	n/a
487.8235	0.112	975647	keystroke_e	e	n/a
488.3915	0.128	976783	keystroke_u	u	n/a
488.7275	0.128	977455	keystroke_m	m	n/a
489.3115	0.112	978623	keystroke_Key.space	Key.space	n/a
489.9115	0.104	979823	keystroke_r	r	n/a
490.0475	0.096	980095	keystroke_e	e	n/a
490.2475	0.104	980495	keystroke_s	s	n/a
490.5035	0.104	981007	keystroke_t	t	n/a
490.9035	0.096	981807	keystroke_a	a	n/a
491.0635	0.104	982127	keystroke_u	u	n/a
491.2875	0.112	982575	keystroke_r	r	n/a
491.4635	0.096	982927	keystroke_a	a	n/a
491.5605	0.079	983121	keystroke_n	n	n/a
491.7035	0.08	983407	keystroke_t	t	n/a
491.9195	0.08	983839	keystroke_s	s	n/a
492.1995	0.08	984399	keystroke_Key.space	Key.space	n/a
492.4075	0.136	984815	keystroke_d	d	n/a
492.5595	0.088	985119	keystroke_u	u	n/a
492.736	0.0885	985472	keystroke_r	r	n/a
493.0165	0.096	986033	keystroke_y	y	n/a
493.2795	0.096	986559	keystroke_Key.backspace	Key.backspace	n/a
493.4475	0.096	986895	keystroke_Key.backspace	Key.backspace	n/a
493.6005	0.087	987201	keystroke_t	t	n/a
493.8005	0.087	987601	keystroke_y	y	n/a
494.1995	0.072	988399	keystroke_Key.space	Key.space	n/a
494.3925	0.104	988785	keystroke_s	s	n/a
494.6005	0.096	989201	keystroke_t	t	n/a
494.8075	0.097	989615	keystroke_a	a	n/a
494.9835	0.072	989967	keystroke_t	t	n/a
495.2005	0.079	990401	keystroke_Key.enter	Key.enter	n/a
495.288	7.8015	990576	prompt	n/a	fail evaluate scores platinum\n
496.5125	0.095	993025	keystroke_f	f	n/a
496.6725	0.088	993345	keystroke_a	a	n/a
496.7995	0.096	993599	keystroke_i	i	n/a
497.0395	0.096	994079	keystroke_l	l	n/a
497.2315	0.088	994463	keystroke_Key.space	Key.space	n/a
497.3925	0.096	994785	keystroke_e	e	n/a
497.6475	0.104	995295	keystroke_v	v	n/a
497.8565	0.08	995713	keystroke_a	a	n/a
498.1515	0.153	996303	keystroke_l	l	n/a
498.4725	0.08	996945	keystroke_u	u	n/a
498.6725	0.096	997345	keystroke_a	a	n/a
498.8715	0.08	997743	keystroke_t	t	n/a
499.0635	0.112	998127	keystroke_e	e	n/a
499.6075	0.08	999215	keystroke_Key.space	Key.space	n/a
499.7915	0.08	999583	keystroke_s	s	n/a
499.9755	0.105	999951	keystroke_c	c	n/a
500.1205	0.079	1000241	keystroke_o	o	n/a
500.2315	0.089	1000463	keystroke_r	r	n/a
500.3435	0.08	1000687	keystroke_e	e	n/a
500.5205	0.088	1001041	keystroke_d	d	n/a
500.6955	0.088	1001391	keystroke_Key.space	Key.space	n/a
500.9435	0.104	1001887	keystroke_p	p	n/a
501.1275	0.088	1002255	keystroke_l	l	n/a
501.2635	0.105	1002527	keystroke_a	a	n/a
501.9515	0.072	1003903	keystroke_t	t	n/a
502.1355	0.096	1004271	keystroke_i	i	n/a
502.3115	0.081	1004623	keystroke_n	n	n/a
502.4725	0.096	1004945	keystroke_u	u	n/a
502.6955	0.08	1005391	keystroke_m	m	n/a
503.007	0.0805	1006014	keystroke_Key.enter	Key.enter	n/a
503.095	7.8025	1006190	prompt	n/a	sets your below temporal\n
503.679	0.0895	1007358	keystroke_s	s	n/a
503.8555	0.088	1007711	keystroke_e	e	n/a
504.064	0.072	1008128	keystroke_t	t	n/a
504.2965	0.0875	1008593	keystroke_s	s	n/a
504.439	0.0885	1008878	keystroke_Key.space	Key.space	n/a
504.7045	0.0795	1009409	keystroke_y	y	n/a
504.792	0.064	1009584	keystroke_o	o	n/a
504.944	0.08	1009888	keystroke_u	u	n/a
505.832	0.12	1011664	keystroke_r	r	n/a
506.176	0.096	1012352	keystroke_Key.space	Key.space	n/a
506.384	0.104	1012768	keystroke_b	b	n/a
506.5835	0.08	1013167	keystroke_e	e	n/a
506.7515	0.112	1013503	keystroke_l	l	n/a
506.9755	0.072	1013951	keystroke_o	o	n/a
507.2475	0.072	1014495	keystroke_w	w	n/a
507.608	0.0795	1015216	keystroke_Key.space	Key.space	n/a
507.7995	0.096	1015599	keystroke_t	t	n/a
508.0955	0.096	1016191	keystroke_m	m	n/a
508.4315	0.1045	1016863	keystroke_Key.backspace	Key.backspace	n/a
508.6715	0.08	1017343	keystroke_e	e	n/a
508.9035	0.12	1017807	keystroke_m	m	n/a
509.1515	0.128	1018303	keystroke_p	p	n/a
509.3755	0.08	1018751	keystroke_o	o	n/a
509.5195	0.128	1019039	keystroke_r	r	n/a
509.8635	0.088	1019727	keystroke_a	a	n/a
510.0635	0.128	1020127	keystroke_l	l	n/a
510.8075	0.088	1021615	keystroke_Key.enter	Key.enter	n/a
510.903	9.0345	1021806	prompt	n/a	picks complete although scholars\n
511.6555	0.136	1023311	keystroke_p	p	n/a
511.8555	0.072	1023711	keystroke_r	r	n/a
512.1755	0.088	1024351	keystroke_Key.backspace	Key.backspace	n/a
512.3915	0.1045	1024783	keystroke_i	i	n/a
512.5435	0.0885	1025087	keystroke_c	c	n/a
512.728	0.112	1025456	keystroke_k	k	n/a
513.1835	0.0885	1026367	keystroke_s	s	n/a
513.352	0.088	1026704	keystroke_Key.space	Key.space	n/a
513.624	0.088	1027248	keystroke_c	c	n/a
513.696	0.096	1027392	keystroke_o	o	n/a
513.88	0.112	1027760	keystroke_m	m	n/a
514.312	0.128	1028624	keystroke_p	p	n/a
514.448	0.104	1028896	keystroke_l	l	n/a
514.6	0.096	1029200	keystroke_e	e	n/a
514.784	0.088	1029568	keystroke_t	t	n/a
514.952	0.08	1029904	keystroke_e	e	n/a
515.2	0.096	1030400	keystroke_Key.space	Key.space	n/a
515.432	0.072	1030864	keystroke_a	a	n/a
515.528	0.12	1031056	keystroke_l	l	n/a
515.752	0.088	1031504	keystroke_t	t	n/a
516.304	0.12	1032608	keystroke_h	h	n/a
516.56	0.08	1033120	keystroke_o	o	n/a
516.728	0.096	1033456	keystroke_u	u	n/a
516.84	0.096	1033680	keystroke_g	g	n/a
516.952	0.08	1033904	keystroke_h	h	n/a
517.6	0.088	1035200	keystroke_Key.space	Key.space	n/a
517.76	0.112	1035520	keystroke_s	s	n/a
518.032	0.096	1036064	keystroke_c	c	n/a
518.176	0.104	1036352	keystroke_h	h	n/a
518.776	0.136	1037552	keystroke_o	o	n/a
519.04	0.104	1038080	keystroke_l	l	n/a
519.184	0.112	1038368	keystroke_a	a	n/a
519.384	0.088	1038768	keystroke_r	r	n/a
519.576	0.088	1039152	keystroke_s	s	n/a
519.856	0.08	1039712	keystroke_Key.enter	Key.enter	n/a
519.9435	9.1945	1039887	prompt	n/a	beverages bubble films bobby\n
520.736	0.096	1041472	keystroke_b	b	n/a
520.936	0.08	1041872	keystroke_e	e	n/a
521.136	0.104	1042272	keystroke_v	v	n/a
521.328	0.104	1042656	keystroke_e	e	n/a
521.504	0.096	1043008	keystroke_r	r	n/a
521.704	0.088	1043408	keystroke_a	a	n/a
521.92	0.08	1043840	keystroke_g	g	n/a
522.08	0.08	1044160	keystroke_e	e	n/a
522.272	0.096	1044544	keystroke_s	s	n/a
522.464	0.088	1044928	keystroke_Key.space	Key.space	n/a
522.68	0.08	1045360	keystroke_b	b	n/a
522.824	0.096	1045648	keystroke_u	u	n/a
523.04	0.064	1046080	keystroke_b	b	n/a
523.192	0.064	1046384	keystroke_b	b	n/a
523.304	0.088	1046608	keystroke_l	l	n/a
523.464	0.08	1046928	keystroke_e	e	n/a
524.152	0.096	1048304	keystroke_Key.space	Key.space	n/a
524.872	0.08	1049744	keystroke_f	f	n/a
525.008	0.112	1050016	keystroke_i	i	n/a
525.344	0.136	1050688	keystroke_l	l	n/a
525.872	0.096	1051744	keystroke_m	m	n/a
526.576	0.088	1053152	keystroke_s	s	n/a
526.792	0.088	1053584	keystroke_Key.space	Key.space	n/a
526.952	0.08	1053904	keystroke_c	c	n/a
527.304	0.096	1054608	keystroke_Key.backspace	Key.backspace	n/a
527.424	0.08	1054848	keystroke_b	b	n/a
527.56	0.08	1055120	keystroke_o	o	n/a
527.976	0.08	1055952	keystroke_b	b	n/a
528.2	0.088	1056400	keystroke_b	b	n/a
528.536	0.104	1057072	keystroke_y	y	n/a
529.056	0.08	1058112	keystroke_Key.enter	Key.enter	n/a
529.1435	9.2825	1058287	prompt	n/a	stages precipitation destroy flux\n
529.768	0.104	1059536	keystroke_s	s	n/a
529.976	0.08	1059952	keystroke_t	t	n/a
530.136	0.08	1060272	keystroke_a	a	n/a
530.288	0.088	1060576	keystroke_g	g	n/a
530.448	0.08	1060896	keystroke_e	e	n/a
530.656	0.104	1061312	keystroke_s	s	n/a
530.824	0.096	1061648	keystroke_Key.space	Key.space	n/a
531.008	0.096	1062016	keystroke_p	p	n/a
531.136	0.104	1062272	keystroke_r	r	n/a
531.256	0.096	1062512	keystroke_e	e	n/a
531.52	0.072	1063040	keystroke_c	c	n/a
531.608	0.104	1063216	keystroke_i	i	n/a
531.848	0.08	1063696	keystroke_p	p	n/a
533.4	0.088	1066800	keystroke_i	i	n/a
533.576	0.104	1067152	keystroke_t	t	n/a
533.784	0.072	1067568	keystroke_a	a	n/a
533.976	0.064	1067952	keystroke_t	t	n/a
534.04	0.096	1068080	keystroke_i	i	n/a
534.224	0.088	1068448	keystroke_o	o	n/a
534.344	0.104	1068688	keystroke_n	n	n/a
534.616	0.088	1069232	keystroke_Key.space	Key.space	n/a
534.976	0.112	1069952	keystroke_d	d	n/a
535.512	0.088	1071024	keystroke_e	e	n/a
535.688	0.096	1071376	keystroke_s	s	n/a
535.912	0.096	1071824	keystroke_t	t	n/a
536.072	0.096	1072144	keystroke_r	r	n/a
536.464	0.112	1072928	keystroke_o	o	n/a
536.776	0.08	1073552	keystroke_y	y	n/a
537.312	0.08	1074624	keystroke_Key.space	Key.space	n/a
537.744	0.064	1075488	keystroke_f	f	n/a
537.84	0.08	1075680	keystroke_l	l	n/a
538.016	0.064	1076032	keystroke_u	u	n/a
538.128	0.08	1076256	keystroke_x	x	n/a
538.352	0.072	1076704	keystroke_Key.enter	Key.enter	n/a
538.432	11.2405	1076864	prompt	n/a	procedures incorporate measurements strike\n
539.152	0.104	1078304	keystroke_p	p	n/a
539.36	0.088	1078720	keystroke_r	r	n/a
539.544	0.088	1079088	keystroke_o	o	n/a
539.784	0.096	1079568	keystroke_c	c	n/a
540.048	0.088	1080096	keystroke_e	e	n/a
540.496	0.112	1080992	keystroke_d	d	n/a
540.656	0.088	1081312	keystroke_u	u	n/a
540.856	0.0955	1081712	keystroke_r	r	n/a
541.0075	0.1045	1082015	keystroke_e	e	n/a
541.576	0.0875	1083152	keystroke_s	s	n/a
541.8315	0.088	1083663	keystroke_Key.space	Key.space	n/a
542.0955	0.104	1084191	keystroke_i	i	n/a
542.3195	0.08	1084639	keystroke_n	n	n/a
542.5755	0.104	1085151	keystroke_c	c	n/a
542.7835	0.128	1085567	keystroke_o	o	n/a
543.5275	0.08	1087055	keystroke_r	r	n/a
543.7115	0.12	1087423	keystroke_p	p	n/a
543.9435	0.072	1087887	keystroke_o	o	n/a
544.0555	0.096	1088111	keystroke_r	r	n/a
544.2395	0.088	1088479	keystroke_a	a	n/a
544.4235	0.08	1088847	keystroke_t	t	n/a
544.5595	0.104	1089119	keystroke_e	e	n/a
545.1675	0.088	1090335	keystroke_Key.space	Key.space	n/a
545.3995	0.096	1090799	keystroke_m	m	n/a
545.4875	0.088	1090975	keystroke_e	e	n/a
545.6475	0.072	1091295	keystroke_a	a	n/a
546.0235	0.072	1092047	keystroke_s	s	n/a
546.4795	0.112	1092959	keystroke_u	u	n/a
546.7835	0.088	1093567	keystroke_r	r	n/a
547.1275	0.088	1094255	keystroke_e	e	n/a
547.3115	0.12	1094623	keystroke_m	m	n/a
547.4395	0.096	1094879	keystroke_e	e	n/a
547.5435	0.08	1095087	keystroke_n	n	n/a
547.6795	0.096	1095359	keystroke_t	t	n/a
548.3355	0.088	1096671	keystroke_s	s	n/a
548.5355	0.096	1097071	keystroke_Key.space	Key.space	n/a
548.6875	0.088	1097375	keystroke_s	s	n/a
548.8955	0.088	1097791	keystroke_t	t	n/a
549.0075	0.088	1098015	keystroke_r	r	n/a
549.1275	0.096	1098255	keystroke_i	i	n/a
549.3035	0.096	1098607	keystroke_k	k	n/a
549.4075	0.072	1098815	keystroke_e	e	n/a
549.5995	0.072	1099199	keystroke_Key.enter	Key.enter	n/a
549.6785	9.843	1099357	prompt	n/a	country variety solving august\n
550.5995	0.08	1101199	keystroke_c	c	n/a
550.6955	0.064	1101391	keystroke_o	o	n/a
550.8315	0.08	1101663	keystroke_u	u	n/a
551.0155	0.08	1102031	keystroke_n	n	n/a
551.1435	0.104	1102287	keystroke_t	t	n/a
551.3595	0.104	1102719	keystroke_y	y	n/a
551.8475	0.032	1103695	keystroke_y	y	n/a
552.0955	0.104	1104191	keystroke_Key.backspace	Key.backspace	n/a
552.2555	0.096	1104511	keystroke_Key.backspace	Key.backspace	n/a
552.8475	0.088	1105695	keystroke_r	r	n/a
553.0795	0.064	1106159	keystroke_y	y	n/a
553.2315	0.08	1106463	keystroke_Key.space	Key.space	n/a
553.5515	0.112	1107103	keystroke_v	v	n/a
553.8075	0.112	1107615	keystroke_a	a	n/a
554.0315	0.104	1108063	keystroke_r	r	n/a
554.2075	0.0795	1108415	keystroke_i	i	n/a
554.295	0.096	1108590	keystroke_e	e	n/a
554.655	0.096	1109310	keystroke_t	t	n/a
554.903	0.096	1109806	keystroke_y	y	n/a
555.431	0.096	1110862	keystroke_Key.space	Key.space	n/a
555.679	0.096	1111358	keystroke_s	s	n/a
555.791	0.088	1111582	keystroke_o	o	n/a
555.991	0.088	1111982	keystroke_l	l	n/a
556.151	0.088	1112302	keystroke_v	v	n/a
556.279	0.12	1112558	keystroke_i	i	n/a
556.415	0.08	1112830	keystroke_n	n	n/a
556.551	0.088	1113102	keystroke_g	g	n/a
557.791	0.096	1115582	keystroke_Key.space	Key.space	n/a
558.087	0.096	1116174	keystroke_a	a	n/a
558.303	0.096	1116606	keystroke_u	u	n/a
558.591	0.088	1117182	keystroke_g	g	n/a
558.719	0.088	1117438	keystroke_u	u	n/a
558.911	0.104	1117822	keystroke_s	s	n/a
559.135	0.064	1118270	keystroke_t	t	n/a
559.439	0.08	1118878	keystroke_Key.enter	Key.enter	n/a
559.529	7.273	1119058	prompt	n/a	tournament area johnny passage\n
560.327	0.112	1120654	keystroke_t	t	n/a
560.559	0.064	1121118	keystroke_o	o	n/a
560.711	0.072	1121422	keystroke_u	u	n/a
560.823	0.088	1121646	keystroke_r	r	n/a
560.959	0.088	1121918	keystroke_n	n	n/a
561.127	0.104	1122254	keystroke_a	a	n/a
561.511	0.12	1123022	keystroke_m	m	n/a
561.647	0.0965	1123294	keystroke_e	e	n/a
561.751	0.08	1123502	keystroke_n	n	n/a
561.871	0.072	1123742	keystroke_t	t	n/a
562.023	0.08	1124046	keystroke_Key.space	Key.space	n/a
562.231	0.088	1124462	keystroke_a	a	n/a
562.447	0.088	1124894	keystroke_r	r	n/a
562.559	0.104	1125118	keystroke_e	e	n/a
562.735	0.096	1125470	keystroke_a	a	n/a
562.935	0.08	1125870	keystroke_Key.space	Key.space	n/a
563.135	0.088	1126270	keystroke_j	j	n/a
563.287	0.096	1126574	keystroke_o	o	n/a
563.487	0.104	1126974	keystroke_h	h	n/a
563.887	0.104	1127774	keystroke_n	n	n/a
564.143	0.096	1128286	keystroke_n	n	n/a
564.383	0.088	1128766	keystroke_y	y	n/a
564.623	0.088	1129246	keystroke_Key.space	Key.space	n/a
564.839	0.104	1129678	keystroke_p	p	n/a
564.959	0.072	1129918	keystroke_a	a	n/a
565.119	0.08	1130238	keystroke_s	s	n/a
565.263	0.08	1130526	keystroke_s	s	n/a
565.415	0.08	1130830	keystroke_a	a	n/a
565.591	0.088	1131182	keystroke_g	g	n/a
565.767	0.072	1131534	keystroke_e	e	n/a
566.719	0.08	1133438	keystroke_Key.enter	Key.enter	n/a
566.807	7.8425	1133614	prompt	n/a	hurt can estimates bugs\n
567.503	0.08	1135006	keystroke_h	h	n/a
567.647	0.08	1135294	keystroke_u	u	n/a
568.079	0.088	1136158	keystroke_t	t	n/a
568.495	0.088	1136990	keystroke_Key.backspace	Key.backspace	n/a
568.847	0.08	1137694	keystroke_r	r	n/a
569.015	0.072	1138030	keystroke_t	t	n/a
569.135	0.088	1138270	keystroke_Key.space	Key.space	n/a
569.343	0.096	1138686	keystroke_c	c	n/a
569.487	0.08	1138974	keystroke_a	a	n/a
569.599	0.096	1139198	keystroke_n	n	n/a
569.831	0.08	1139662	keystroke_Key.space	Key.space	n/a
570.047	0.088	1140094	keystroke_e	e	n/a
570.247	0.08	1140494	keystroke_s	s	n/a
570.479	0.088	1140958	keystroke_t	t	n/a
570.623	0.0805	1141246	keystroke_i	i	n/a
570.8235	0.08	1141647	keystroke_m	m	n/a
570.9435	0.095	1141887	keystroke_a	a	n/a
571.1275	0.08	1142255	keystroke_t	t	n/a
571.2955	0.079	1142591	keystroke_e	e	n/a
571.5355	0.088	1143071	keystroke_s	s	n/a
571.7195	0.08	1143439	keystroke_Key.space	Key.space	n/a
571.9755	0.071	1143951	keystroke_b	b	n/a
572.0875	0.08	1144175	keystroke_u	u	n/a
572.2555	0.104	1144511	keystroke_f	f	n/a
572.4875	0.088	1144975	keystroke_s	s	n/a
572.7995	0.08	1145599	keystroke_Key.backspace	Key.backspace	n/a
572.9585	0.065	1145917	keystroke_Key.backspace	Key.backspace	n/a
573.1275	0.088	1146255	keystroke_h	h	n/a
573.3355	0.088	1146671	keystroke_s	s	n/a
573.6555	0.063	1147311	keystroke_Key.backspace	Key.backspace	n/a
573.7905	0.072	1147581	keystroke_Key.backspace	Key.backspace	n/a
573.8555	0.096	1147711	keystroke_g	g	n/a
574.2715	0.072	1148543	keystroke_s	s	n/a
574.5585	0.088	1149117	keystroke_Key.enter	Key.enter	n/a
574.656	12.395	1149312	prompt	n/a	fraud customers measure synopsis\n
575.8795	0.096	1151759	keystroke_f	f	n/a
576.1275	0.096	1152255	keystroke_r	r	n/a
576.3035	0.096	1152607	keystroke_a	a	n/a
576.5275	0.072	1153055	keystroke_u	u	n/a
576.8385	0.04	1153677	keystroke_d	d	n/a
577.4305	0.089	1154861	keystroke_Key.space	Key.space	n/a
577.6475	0.088	1155295	keystroke_c	c	n/a
577.7505	0.088	1155501	keystroke_o	o	n/a
578.1195	0.072	1156239	keystroke_Key.backspace	Key.backspace	n/a
578.3115	0.088	1156623	keystroke_u	u	n/a
578.5195	0.096	1157039	keystroke_s	s	n/a
578.7665	0.08	1157533	keystroke_t	t	n/a
578.9115	0.087	1157823	keystroke_o	o	n/a
579.0795	0.08	1158159	keystroke_m	m	n/a
579.2155	0.088	1158431	keystroke_e	e	n/a
579.3515	0.079	1158703	keystroke_r	r	n/a
579.5195	0.087	1159039	keystroke_s	s	n/a
579.6785	0.088	1159357	keystroke_Key.space	Key.space	n/a
579.9995	0.12	1159999	keystroke_m	m	n/a
580.1915	0.088	1160383	keystroke_e	e	n/a
580.3595	0.088	1160719	keystroke_a	a	n/a
580.7435	0.095	1161487	keystroke_s	s	n/a
580.8625	0.073	1161725	keystroke_u	u	n/a
581.0235	0.08	1162047	keystroke_r	r	n/a
581.1425	0.121	1162285	keystroke_e	e	n/a
581.8385	0.081	1163677	keystroke_Key.space	Key.space	n/a
582.0715	0.112	1164143	keystroke_s	s	n/a
582.3505	0.145	1164701	keystroke_t	t	n/a
583.0065	0.097	1166013	keystroke_Key.backspace	Key.backspace	n/a
583.2875	0.055	1166575	keystroke_y	y	n/a
583.8075	0.112	1167615	keystroke_n	n	n/a
584.5905	0.104	1169181	keystroke_Key.backspace	Key.backspace	n/a
585.4315	0.08	1170863	keystroke_n	n	n/a
585.6465	0.112	1171293	keystroke_o	o	n/a
585.8875	0.096	1171775	keystroke_p	p	n/a
586.1755	0.088	1172351	keystroke_s	s	n/a
586.2955	0.088	1172591	keystroke_i	i	n/a
586.6555	0.079	1173311	keystroke_s	s	n/a
586.9755	0.072	1173951	keystroke_Key.enter	Key.enter	n/a
587.059	8.086	1174118	prompt	n/a	strips thorough meaningful woods\n
587.6235	0.103	1175247	keystroke_s	s	n/a
587.8315	0.08	1175663	keystroke_t	t	n/a
587.9355	0.088	1175871	keystroke_r	r	n/a
588.0625	0.089	1176125	keystroke_i	i	n/a
588.2705	0.073	1176541	keystroke_p	p	n/a
588.5105	0.097	1177021	keystroke_s	s	n/a
588.7025	0.08	1177405	keystroke_Key.space	Key.space	n/a
588.9665	0.089	1177933	keystroke_t	t	n/a
589.2155	0.095	1178431	keystroke_h	h	n/a
590.2795	0.088	1180559	keystroke_o	o	n/a
590.5585	0.088	1181117	keystroke_r	r	n/a
590.7115	0.072	1181423	keystroke_o	o	n/a
590.8635	0.072	1181727	keystroke_u	u	n/a
591.0155	0.08	1182031	keystroke_g	g	n/a
591.1035	0.08	1182207	keystroke_h	h	n/a
591.7345	0.088	1183469	keystroke_Key.space	Key.space	n/a
591.9195	0.088	1183839	keystroke_m	m	n/a
592.0305	0.08	1184061	keystroke_e	e	n/a
592.1835	0.088	1184367	keystroke_a	a	n/a
592.2955	0.08	1184591	keystroke_n	n	n/a
592.4235	0.096	1184847	keystroke_i	i	n/a
592.4955	0.096	1184991	keystroke_n	n	n/a
592.7505	0.08	1185501	keystroke_g	g	n/a
593.3675	0.096	1186735	keystroke_f	f	n/a
593.5115	0.112	1187023	keystroke_u	u	n/a
593.8075	0.127	1187615	keystroke_l	l	n/a
594.1025	0.088	1188205	keystroke_Key.space	Key.space	n/a
594.2955	0.112	1188591	keystroke_w	w	n/a
594.4075	0.08	1188815	keystroke_o	o	n/a
594.5755	0.079	1189151	keystroke_o	o	n/a
594.7025	0.097	1189405	keystroke_d	d	n/a
594.8465	0.089	1189693	keystroke_s	s	n/a
595.0705	0.072	1190141	keystroke_Key.enter	Key.enter	n/a
595.1495	5.899	1190299	prompt	n/a	games bother processed hearing\n
595.8545	0.089	1191709	keystroke_g	g	n/a
596.0475	0.072	1192095	keystroke_a	a	n/a
596.1595	0.072	1192319	keystroke_m	m	n/a
596.2465	0.081	1192493	keystroke_e	e	n/a
596.4305	0.073	1192861	keystroke_s	s	n/a
596.5345	0.08	1193069	keystroke_Key.space	Key.space	n/a
596.8145	0.088	1193629	keystroke_b	b	n/a
596.9435	0.079	1193887	keystroke_o	o	n/a
597.0875	0.08	1194175	keystroke_t	t	n/a
597.2315	0.064	1194463	keystroke_h	h	n/a
597.3035	0.087	1194607	keystroke_e	e	n/a
597.4475	0.079	1194895	keystroke_r	r	n/a
597.5585	0.072	1195117	keystroke_Key.space	Key.space	n/a
597.7115	0.087	1195423	keystroke_p	p	n/a
