onset	duration	sample	value	key	prompt_text
9.8025	11.1825	19605	prompt	n/a	the quick brown fox jumps over a lazy dog\n
11.3695	0.042	22739	keystroke	t	n/a
11.517	0.12	23034	keystroke	h	n/a
11.6215	0.0905	23243	keystroke	e	n/a
11.757	0.105	23514	keystroke	Key.space	n/a
11.952	0.12	23904	keystroke	q	n/a
12.102	0.09	24204	keystroke	u	n/a
12.282	0.104	24564	keystroke	i	n/a
12.432	0.12	24864	keystroke	c	n/a
12.7165	0.015	25433	keystroke	k	n/a
13.542	0.0745	27084	keystroke	Key.space	n/a
13.767	0.06	27534	keystroke	b	n/a
13.8715	0.105	27743	keystroke	r	n/a
14.067	0.015	28134	keystroke	o	n/a
14.2165	0.12	28433	keystroke	w	n/a
14.456	0.091	28912	keystroke	n	n/a
14.666	0.106	29332	keystroke	Key.space	n/a
14.817	0.09	29634	keystroke	f	n/a
15.012	0.105	30024	keystroke	i	n/a
15.5965	0.075	31193	keystroke	Key.backspace	n/a
16.152	0.044	32304	keystroke	o	n/a
16.2865	0.1055	32573	keystroke	x	n/a
16.4365	0.0745	32873	keystroke	Key.space	n/a
16.632	0.09	33264	keystroke	j	n/a
16.811	0.061	33622	keystroke	u	n/a
17.007	0.105	34014	keystroke	m	n/a
17.2325	0.0895	34465	keystroke	p	n/a
17.487	0.0895	34974	keystroke	s	n/a
17.5915	0.09	35183	keystroke	Key.space	n/a
17.741	0.076	35482	keystroke	o	n/a
18.012	0.104	36024	keystroke	v	n/a
18.146	0.196	36292	keystroke	e	n/a
18.282	0.1505	36564	keystroke	r	n/a
18.447	0.0895	36894	keystroke	Key.space	n/a
18.6265	0.1195	37253	keystroke	a	n/a
18.731	0.0755	37462	keystroke	Key.space	n/a
18.9115	0.105	37823	keystroke	l	n/a
19.0315	0.1055	38063	keystroke	a	n/a
19.6615	0.09	39323	keystroke	z	n/a
19.842	0.0895	39684	keystroke	y	n/a
19.9915	0.0905	39983	keystroke	Key.space	n/a
20.232	0.075	40464	keystroke	d	n/a
20.3665	0.075	40733	keystroke	o	n/a
20.547	0.1055	41094	keystroke	g	n/a
20.8765	0.1055	41753	keystroke	Key.enter	n/a
20.992	8.602	41984	prompt	n/a	vietnam transportation owned dana\n
21.8675	0.0745	43735	keystroke	v	n/a
22.0025	0.09	44005	keystroke	i	n/a
22.137	0.1495	44274	keystroke	e	n/a
22.347	0.0895	44694	keystroke	t	n/a
22.602	0.09	45204	keystroke	n	n/a
22.7665	0.166	45533	keystroke	a	n/a
22.9615	0.105	45923	keystroke	m	n/a
23.172	0.09	46344	keystroke	Key.space	n/a
23.4115	0.1195	46823	keystroke	t	n/a
23.6675	0.1045	47335	keystroke	r	n/a
23.922	0.135	47844	keystroke	a	n/a
24.102	0.105	48204	keystroke	n	n/a
24.2965	0.091	48593	keystroke	s	n/a
24.732	0.12	49464	keystroke	p	n/a
24.942	0.0745	49884	keystroke	o	n/a
25.392	0.104	50784	keystroke	r	n/a
25.6915	0.1205	51383	keystroke	t	n/a
25.9015	0.136	51803	keystroke	a	n/a
26.112	0.09	52224	keystroke	t	n/a
26.247	0.09	52494	keystroke	i	n/a
26.397	0.12	52794	keystroke	o	n/a
26.622	0.09	53244	keystroke	n	n/a
26.772	0.06	53544	keystroke	Key.space	n/a
26.9515	0.091	53903	keystroke	o	n/a
27.1015	0.12	54203	keystroke	w	n/a
27.6415	0.06	55283	keystroke	n	n/a
27.851	0.1805	55702	keystroke	e	n/a
28.0775	0.134	56155	keystroke	d	n/a
28.2565	0.1055	56513	keystroke	Key.space	n/a
28.7515	0.135	57503	keystroke	d	n/a
28.991	0.1205	57982	keystroke	a	n/a
29.1265	0.1205	58253	keystroke	n	n/a
29.262	0.1195	58524	keystroke	a	n/a
29.4865	0.1045	58973	keystroke	Key.enter	n/a
29.598	9.341	59196	prompt	n/a	software discussing flows cornwall\n
30.3875	0.134	60775	keystroke	s	n/a
30.567	0.1195	61134	keystroke	o	n/a
30.702	0.12	61404	keystroke	f	n/a
30.9715	0.1205	61943	keystroke	t	n/a
31.2865	0.12	62573	keystroke	w	n/a
31.452	0.135	62904	keystroke	a	n/a
31.707	0.15	63414	keystroke	r	n/a
31.9015	0.1055	63803	keystroke	e	n/a
32.021	0.106	64042	keystroke	Key.space	n/a
32.3375	0.105	64675	keystroke	f	n/a
33.297	0.06	66594	keystroke	Key.backspace	n/a
33.642	0.09	67284	keystroke	d	n/a
33.836	0.0605	67672	keystroke	i	n/a
33.972	0.105	67944	keystroke	s	n/a
34.6015	0.1205	69203	keystroke	c	n/a
34.8565	0.0755	69713	keystroke	u	n/a
34.9915	0.12	69983	keystroke	s	n/a
35.217	0.075	70434	keystroke	s	n/a
35.322	0.0755	70644	keystroke	i	n/a
35.517	0.0895	71034	keystroke	n	n/a
35.637	0.0895	71274	keystroke	g	n/a
35.8015	0.0905	71603	keystroke	Key.space	n/a
36.027	0.0905	72054	keystroke	f	n/a
36.161	0.09	72322	keystroke	l	n/a
36.372	0.0745	72744	keystroke	o	n/a
36.507	0.09	73014	keystroke	w	n/a
36.8225	0.0895	73645	keystroke	s	n/a
36.972	0.0895	73944	keystroke	Key.space	n/a
37.257	0.0745	74514	keystroke	c	n/a
37.392	0.09	74784	keystroke	o	n/a
37.5265	0.1055	75053	keystroke	r	n/a
37.677	0.105	75354	keystroke	n	n/a
38.022	0.105	76044	keystroke	w	n/a
38.202	0.105	76404	keystroke	a	n/a
38.397	0.06	76794	keystroke	l	n/a
38.592	0.0595	77184	keystroke	l	n/a
38.8465	0.0905	77693	keystroke	Key.enter	n/a
38.9445	8.634	77889	prompt	n/a	gourmet bird register allah\n
39.867	0.075	79734	keystroke	g	n/a
40.107	0.12	80214	keystroke	o	n/a
40.8725	0.074	81745	keystroke	u	n/a
41.097	0.09	82194	keystroke	r	n/a
41.6215	0.045	83243	keystroke	m	n/a
41.892	0.1345	83784	keystroke	e	n/a
42.0725	0.12	84145	keystroke	t	n/a
42.4915	0.06	84983	keystroke	Key.space	n/a
43.107	0.045	86214	keystroke	b	n/a
43.2425	0.104	86485	keystroke	i	n/a
43.4675	0.075	86935	keystroke	r	n/a
43.7365	0.09	87473	keystroke	d	n/a
43.9015	0.0905	87803	keystroke	Key.space	n/a
44.262	0.1345	88524	keystroke	r	n/a
44.382	0.1045	88764	keystroke	e	n/a
44.5165	0.0755	89033	keystroke	g	n/a
44.697	0.075	89394	keystroke	i	n/a
44.832	0.1505	89664	keystroke	s	n/a
45.012	0.09	90024	keystroke	t	n/a
45.132	0.2855	90264	keystroke	e	n/a
45.657	0.09	91314	keystroke	r	n/a
45.882	0.0895	91764	keystroke	Key.space	n/a
46.107	0.09	92214	keystroke	a	n/a
46.4365	0.0905	92873	keystroke	l	n/a
46.782	0.1045	93564	keystroke	l	n/a
46.9625	0.104	93925	keystroke	a	n/a
47.1565	0.0755	94313	keystroke	h	n/a
47.5015	0.0755	95003	keystroke	Key.enter	n/a
47.583	12.6715	95166	prompt	n/a	strongly responses belkin conjunction\n
48.3575	0.1195	96715	keystroke	s	n/a
48.492	0.06	96984	keystroke	t	n/a
48.642	0.0895	97284	keystroke	r	n/a
48.792	0.1055	97584	keystroke	o	n/a
49.047	0.075	98094	keystroke	n	n/a
49.2115	0.091	98423	keystroke	g	n/a
49.437	0.1045	98874	keystroke	l	n/a
49.7525	0.0895	99505	keystroke	y	n/a
49.947	0.075	99894	keystroke	Key.space	n/a
50.1725	0.1045	100345	keystroke	r	n/a
50.412	0.1055	100824	keystroke	e	n/a
50.8025	0.1045	101605	keystroke	s	n/a
50.997	0.09	101994	keystroke	p	n/a
51.597	0.1055	103194	keystroke	o	n/a
51.927	0.09	103854	keystroke	n	n/a
52.167	0.105	104334	keystroke	s	n/a
52.377	0.12	104754	keystroke	e	n/a
52.5565	0.1055	105113	keystroke	Key.space	n/a
52.947	0.0755	105894	keystroke	b	n/a
53.097	0.0905	106194	keystroke	e	n/a
53.322	0.09	106644	keystroke	l	n/a
53.562	0.089	107124	keystroke	k	n/a
53.757	0.09	107514	keystroke	i	n/a
53.9965	0.09	107993	keystroke	n	n/a
54.237	0.0895	108474	keystroke	Key.space	n/a
54.7465	0.105	109493	keystroke	c	n/a
54.8965	0.0905	109793	keystroke	o	n/a
55.137	0.12	110274	keystroke	n	n/a
55.4375	0.1195	110875	keystroke	j	n/a
55.7375	0.0745	111475	keystroke	u	n/a
56.1115	0.075	112223	keystroke	c	n/a
56.4865	0.0605	112973	keystroke	Key.backspace	n/a
56.8625	0.0595	113725	keystroke	n	n/a
57.192	0.1045	114384	keystroke	c	n/a
57.5215	0.1355	115043	keystroke	t	n/a
57.732	0.105	115464	keystroke	i	n/a
57.8675	0.12	115735	keystroke	o	n/a
58.1665	0.0155	116333	keystroke	n	n/a
58.6175	0.015	117235	keystroke	\	n/a
59.757	0.06	119514	keystroke	Key.backspace	n/a
60.1615	0.09	120323	keystroke	Key.enter	n/a
60.2595	8.905	120519	prompt	n/a	enabling trainer pushing settlement\n
61.1375	0.135	122275	keystroke	e	n/a
61.3325	0.09	122665	keystroke	n	n/a
61.482	0.135	122964	keystroke	a	n/a
61.632	0.12	123264	keystroke	b	n/a
61.9175	0.15	123835	keystroke	l	n/a
62.142	0.105	124284	keystroke	i	n/a
62.4275	0.09	124855	keystroke	n	n/a
62.712	0.09	125424	keystroke	g	n/a
62.892	0.075	125784	keystroke	Key.space	n/a
63.132	0.15	126264	keystroke	t	n/a
63.3565	0.1505	126713	keystroke	r	n/a
63.6265	0.1205	127253	keystroke	a	n/a
63.822	0.0905	127644	keystroke	i	n/a
64.1075	0.1195	128215	keystroke	n	n/a
64.2425	0.179	128485	keystroke	e	n/a
64.407	0.0895	128814	keystroke	r	n/a
64.5565	0.105	129113	keystroke	Key.space	n/a
64.767	0.0895	129534	keystroke	p	n/a
64.9925	0.075	129985	keystroke	u	n/a
65.1575	0.12	130315	keystroke	s	n/a
65.2925	0.075	130585	keystroke	h	n/a
65.4725	0.089	130945	keystroke	i	n/a
65.6975	0.075	131395	keystroke	n	n/a
65.9825	0.119	131965	keystroke	g	n/a
66.2065	0.105	132413	keystroke	Key.space	n/a
66.4475	0.135	132895	keystroke	s	n/a
66.867	0.1195	133734	keystroke	e	n/a
67.0925	0.0745	134185	keystroke	t	n/a
67.2875	0.0735	134575	keystroke	t	n/a
67.4675	0.12	134935	keystroke	l	n/a
67.6775	0.1045	135355	keystroke	e	n/a
67.962	0.0755	135924	keystroke	m	n/a
68.067	0.045	136134	keystroke	e	n/a
68.547	0.09	137094	keystroke	n	n/a
68.6975	0.1045	137395	keystroke	t	n/a
69.057	0.105	138114	keystroke	Key.enter	n/a
69.1695	9.7595	138339	prompt	n/a	gregory diff condo reveals\n
69.9125	0.0595	139825	keystroke	g	n/a
70.1965	0.121	140393	keystroke	r	n/a
70.3465	0.091	140693	keystroke	e	n/a
70.5575	0.074	141115	keystroke	g	n/a
70.7515	0.135	141503	keystroke	o	n/a
70.947	0.09	141894	keystroke	r	n/a
71.217	0.0905	142434	keystroke	y	n/a
71.637	0.105	143274	keystroke	Key.space	n/a
71.907	0.1055	143814	keystroke	f	n/a
72.642	0.0895	145284	keystroke	Key.backspace	n/a
73.107	0.0745	146214	keystroke	d	n/a
73.347	0.06	146694	keystroke	i	n/a
73.6925	0.075	147385	keystroke	g	n/a
74.3515	0.09	148703	keystroke	Key.backspace	n/a
74.7415	0.12	149483	keystroke	f	n/a
75.1925	0.1195	150385	keystroke	f	n/a
75.5515	0.106	151103	keystroke	Key.space	n/a
75.7765	0.0755	151553	keystroke	c	n/a
75.897	0.0745	151794	keystroke	o	n/a
76.137	0.0755	152274	keystroke	n	n/a
76.3175	0.075	152635	keystroke	d	n/a
76.527	0.1055	153054	keystroke	o	n/a
76.722	0.1045	153444	keystroke	Key.space	n/a
76.932	0.1345	153864	keystroke	r	n/a
77.097	0.0605	154194	keystroke	e	n/a
77.277	0.075	154554	keystroke	v	n/a
77.397	0.165	154794	keystroke	e	n/a
77.592	0.1205	155184	keystroke	a	n/a
77.787	0.1055	155574	keystroke	l	n/a
78.057	0.135	156114	keystroke	s	n/a
78.7765	0.1505	157553	keystroke	Key.enter	n/a
78.9365	10.5375	157873	prompt	n/a	friends henry multi transmit\n
79.692	0.0755	159384	keystroke	f	n/a
79.9325	0.12	159865	keystroke	r	n/a
80.0665	0.105	160133	keystroke	e	n/a
80.2765	0.0905	160553	keystroke	i	n/a
80.8025	0.105	161605	keystroke	Key.backspace	n/a
81.102	0.0755	162204	keystroke	Key.backspace	n/a
81.7625	0.12	163525	keystroke	i	n/a
82.122	0.15	164244	keystroke	e	n/a
82.497	0.1055	164994	keystroke	n	n/a
82.692	0.09	165384	keystroke	d	n/a
83.0375	0.105	166075	keystroke	s	n/a
83.247	0.075	166494	keystroke	Key.space	n/a
83.607	0.0145	167214	keystroke	h	n/a
83.6675	0.0895	167335	keystroke	e	n/a
83.787	0.1205	167574	keystroke	n	n/a
84.0725	0.0895	168145	keystroke	r	n/a
84.297	0.0895	168594	keystroke	y	n/a
84.7315	0.0605	169463	keystroke	Key.space	n/a
85.062	0.09	170124	keystroke	m	n/a
85.2875	0.0595	170575	keystroke	u	n/a
85.797	0.12	171594	keystroke	l	n/a
86.052	0.075	172104	keystroke	t	n/a
86.8465	0.0905	173693	keystroke	i	n/a
86.982	0.105	173964	keystroke	Key.space	n/a
87.313	0.089	174626	keystroke	t	n/a
87.582	0.1355	175164	keystroke	r	n/a
87.8225	0.134	175645	keystroke	a	n/a
88.3175	0.0895	176635	keystroke	n	n/a
88.5415	0.1355	177083	keystroke	s	n/a
88.767	0.0895	177534	keystroke	m	n/a
88.962	0.0895	177924	keystroke	i	n/a
89.0815	0.105	178163	keystroke	t	n/a
89.367	0.105	178734	keystroke	Key.enter	n/a
89.4785	10.33	178957	prompt	n/a	independent observed viewpicture o'er\n
90.132	0.0905	180264	keystroke	i	n/a
90.357	0.09	180714	keystroke	n	n/a
90.5225	0.135	181045	keystroke	d	n/a
90.6875	0.089	181375	keystroke	e	n/a
90.852	0.1045	181704	keystroke	p	n/a
91.467	0.09	182934	keystroke	e	n/a
91.677	0.0895	183354	keystroke	n	n/a
91.8725	0.1795	183745	keystroke	d	n/a
92.067	0.1205	184134	keystroke	e	n/a
92.292	0.0755	184584	keystroke	n	n/a
92.4575	0.0895	184915	keystroke	t	n/a
92.6675	0.0595	185335	keystroke	Key.space	n/a
92.937	0.135	185874	keystroke	o	n/a
93.2375	0.075	186475	keystroke	b	n/a
93.4925	0.135	186985	keystroke	s	n/a
93.6425	0.09	187285	keystroke	e	n/a
93.927	0.075	187854	keystroke	r	n/a
94.092	0.09	188184	keystroke	v	n/a
94.212	0.1205	188424	keystroke	e	n/a
94.5125	0.089	189025	keystroke	d	n/a
94.752	0.06	189504	keystroke	Key.space	n/a
95.037	0.09	190074	keystroke	v	n/a
95.307	0.105	190614	keystroke	i	n/a
95.487	0.1645	190974	keystroke	e	n/a
95.7125	0.0595	191425	keystroke	w	n/a
96.297	0.105	192594	keystroke	p	n/a
96.552	0.105	193104	keystroke	i	n/a
96.763	0.1045	193526	keystroke	c	n/a
97.047	0.1055	194094	keystroke	t	n/a
97.2715	0.1355	194543	keystroke	u	n/a
97.4525	0.1795	194905	keystroke	r	n/a
97.647	0.12	195294	keystroke	e	n/a
97.8875	0.105	195775	keystroke	Key.space	n/a
98.5015	0.18	197003	keystroke	o	n/a
98.9065	0.0765	197813	keystroke	'	n/a
99.1025	0.1495	198205	keystroke	e	n/a
99.267	0.105	198534	keystroke	r	n/a
99.687	0.12	199374	keystroke	Key.enter	n/a
99.813	6.236	199626	prompt	n/a	bean fork provision rights\n
100.572	0.09	201144	keystroke	b	n/a
100.677	0.1655	201354	keystroke	e	n/a
100.8565	0.165	201713	keystroke	a	n/a
101.037	0.1055	202074	keystroke	n	n/a
101.2015	0.105	202403	keystroke	Key.space	n/a
101.5475	0.0895	203095	keystroke	f	n/a
101.667	0.1355	203334	keystroke	o	n/a
101.877	0.1055	203754	keystroke	r	n/a
102.0565	0.121	204113	keystroke	k	n/a
102.2515	0.075	204503	keystroke	Key.space	n/a
102.7015	0.105	205403	keystroke	p	n/a
102.8525	0.104	205705	keystroke	r	n/a
103.302	0.0595	206604	keystroke	o	n/a
103.5565	0.0905	207113	keystroke	v	n/a
103.7235	0.103	207447	keystroke	i	n/a
103.902	0.1195	207804	keystroke	s	n/a
104.0065	0.12	208013	keystroke	i	n/a
104.187	0.1195	208374	keystroke	o	n/a
104.487	0.09	208974	keystroke	n	n/a
104.682	0.0745	209364	keystroke	Key.space	n/a
104.877	0.0595	209754	keystroke	r	n/a
105.012	0.0895	210024	keystroke	i	n/a
105.1315	0.121	210263	keystroke	g	n/a
105.282	0.1055	210564	keystroke	h	n/a
105.4325	0.1195	210865	keystroke	t	n/a
105.687	0.12	211374	keystroke	s	n/a
105.9415	0.1055	211883	keystroke	Key.enter	n/a
106.054	12.2795	212108	prompt	n/a	powerpoint arch honolulu balanced\n
107.0375	0.104	214075	keystroke	p	n/a
107.202	0.1205	214404	keystroke	o	n/a
107.382	0.135	214764	keystroke	w	n/a
107.607	0.0905	215214	keystroke	e	n/a
107.817	0.075	215634	keystroke	r	n/a
107.997	0.12	215994	keystroke	p	n/a
108.177	0.105	216354	keystroke	o	n/a
108.4175	0.0595	216835	keystroke	i	n/a
108.642	0.105	217284	keystroke	n	n/a
108.792	0.12	217584	keystroke	t	n/a
109.002	0.12	218004	keystroke	Key.space	n/a
110.037	0.09	220074	keystroke	a	n/a
110.2325	0.074	220465	keystroke	r	n/a
110.5925	0.1045	221185	keystroke	c	n/a
110.757	0.1355	221514	keystroke	h	n/a
110.997	0.105	221994	keystroke	Key.space	n/a
111.207	0.105	222414	keystroke	h	n/a
111.417	0.12	222834	keystroke	o	n/a
111.657	0.1195	223314	keystroke	n	n/a
112.3465	0.1205	224693	keystroke	o	n/a
112.662	0.15	225324	keystroke	l	n/a
112.9315	0.1205	225863	keystroke	u	n/a
113.1715	0.166	226343	keystroke	l	n/a
113.517	0.105	227034	keystroke	u	n/a
113.862	0.09	227724	keystroke	Key.space	n/a
114.477	0.0895	228954	keystroke	b	n/a
114.657	0.09	229314	keystroke	a	n/a
115.317	0.1505	230634	keystroke	;	n/a
116.1125	0.0745	232225	keystroke	Key.backspace	n/a
116.562	0.105	233124	keystroke	l	n/a
116.892	0.015	233784	keystroke	a	n/a
116.982	0.1055	233964	keystroke	n	n/a
117.1465	0.121	234293	keystroke	c	n/a
117.3865	0.1355	234773	keystroke	e	n/a
117.582	0.105	235164	keystroke	d	n/a
118.212	0.12	236424	keystroke	Key.enter	n/a
118.339	11.545	236678	prompt	n/a	constructed executives marketplace not\n
119.2325	0.1045	238465	keystroke	c	n/a
119.9225	0.09	239845	keystroke	o	n/a
120.177	0.0755	240354	keystroke	n	n/a
120.582	0.165	241164	keystroke	s	n/a
120.777	0.1055	241554	keystroke	t	n/a
121.167	0.09	242334	keystroke	r	n/a
121.3765	0.09	242753	keystroke	u	n/a
122.172	0.09	244344	keystroke	c	n/a
122.3825	0.0895	244765	keystroke	t	n/a
122.607	0.105	245214	keystroke	e	n/a
122.877	0.0905	245754	keystroke	d	n/a
123.117	0.0895	246234	keystroke	Key.space	n/a
123.3415	0.075	246683	keystroke	e	n/a
123.656	0.0905	247312	keystroke	x	n/a
123.822	0.09	247644	keystroke	e	n/a
124.2565	0.106	248513	keystroke	c	n/a
124.782	0.06	249564	keystroke	u	n/a
124.992	0.09	249984	keystroke	t	n/a
125.2315	0.0755	250463	keystroke	i	n/a
125.487	0.0895	250974	keystroke	v	n/a
125.772	0.1945	251544	keystroke	e	n/a
125.9815	0.075	251963	keystroke	s	n/a
126.1015	0.1055	252203	keystroke	Key.space	n/a
126.327	0.135	252654	keystroke	m	n/a
126.507	0.1355	253014	keystroke	a	n/a
126.9715	0.0905	253943	keystroke	r	n/a
127.212	0.12	254424	keystroke	k	n/a
127.377	0.135	254754	keystroke	e	n/a
127.602	0.12	255204	keystroke	t	n/a
127.887	0.075	255774	keystroke	p	n/a
128.0975	0.104	256195	keystroke	l	n/a
128.262	0.1805	256524	keystroke	a	n/a
128.5475	0.12	257095	keystroke	c	n/a
128.7565	0.09	257513	keystroke	e	n/a
128.9515	0.0755	257903	keystroke	Key.space	n/a
129.1465	0.105	258293	keystroke	n	n/a
129.372	0.135	258744	keystroke	o	n/a
129.5075	0.105	259015	keystroke	t	n/a
129.7465	0.135	259493	keystroke	Key.enter	n/a
129.8885	11.9655	259777	prompt	n/a	verizon featured fuzzy chevrolet\n
130.857	0.0605	261714	keystroke	v	n/a
130.946	0.2105	261892	keystroke	e	n/a
131.112	0.1045	262224	keystroke	r	n/a
131.322	0.1355	262644	keystroke	i	n/a
132.507	0.15	265014	keystroke	z	n/a
132.7165	0.105	265433	keystroke	o	n/a
133.017	0.12	266034	keystroke	n	n/a
133.2415	0.1195	266483	keystroke	Key.space	n/a
133.6465	0.1355	267293	keystroke	f	n/a
133.842	0.1795	267684	keystroke	e	n/a
133.977	0.1805	267954	keystroke	a	n/a
134.1715	0.1055	268343	keystroke	t	n/a
134.382	0.0895	268764	keystroke	u	n/a
134.517	0.1495	269034	keystroke	r	n/a
134.742	0.105	269484	keystroke	e	n/a
135.251	0.1065	270502	keystroke	d	n/a
135.492	0.119	270984	keystroke	Key.space	n/a
135.717	0.1495	271434	keystroke	f	n/a
136.002	0.105	272004	keystroke	u	n/a
136.497	0.12	272994	keystroke	x	n/a
137.0965	0.105	274193	keystroke	Key.backspace	n/a
137.2915	0.105	274583	keystroke	z	n/a
137.6075	0.0895	275215	keystroke	z	n/a
138.132	0.045	276264	keystroke	y	n/a
138.282	0.105	276564	keystroke	Key.space	n/a
139.0325	0.1195	278065	keystroke	c	n/a
139.2115	0.105	278423	keystroke	h	n/a
139.3765	0.12	278753	keystroke	e	n/a
139.8715	0.03	279743	keystroke	v	n/a
140.442	0.1055	280884	keystroke	r	n/a
140.682	0.09	281364	keystroke	o	n/a
141.1475	0.1045	282295	keystroke	l	n/a
141.3575	0.1045	282715	keystroke	e	n/a
141.5515	0.1055	283103	keystroke	t	n/a
141.7765	0.075	283553	keystroke	Key.enter	n/a
141.8585	8.3055	283717	prompt	n/a	tutorial baseball trucks responded\n
142.7065	0.0905	285413	keystroke	t	n/a
142.856	0.106	285712	keystroke	u	n/a
142.992	0.09	285984	keystroke	t	n/a
143.142	0.15	286284	keystroke	o	n/a
143.307	0.09	286614	keystroke	r	n/a
143.4715	0.09	286943	keystroke	i	n/a
143.697	0.1345	287394	keystroke	a	n/a
143.907	0.135	287814	keystroke	l	n/a
144.0865	0.105	288173	keystroke	Key.space	n/a
144.3115	0.09	288623	keystroke	b	n/a
144.4315	0.1655	288863	keystroke	a	n/a
144.6115	0.195	289223	keystroke	s	n/a
144.7915	0.1055	289583	keystroke	e	n/a
145.002	0.1055	290004	keystroke	b	n/a
145.167	0.1345	290334	keystroke	a	n/a
145.347	0.1045	290694	keystroke	l	n/a
145.542	0.1355	291084	keystroke	l	n/a
145.767	0.0895	291534	keystroke	Key.space	n/a
146.007	0.1045	292014	keystroke	t	n/a
146.3675	0.059	292735	keystroke	r	n/a
146.532	0.0595	293064	keystroke	u	n/a
146.742	0.0745	293484	keystroke	c	n/a
146.892	0.1195	293784	keystroke	k	n/a
147.0875	0.119	294175	keystroke	s	n/a
147.282	0.12	294564	keystroke	Key.space	n/a
147.582	0.165	295164	keystroke	r	n/a
147.732	0.135	295464	keystroke	e	n/a
148.1075	0.134	296215	keystroke	s	n/a
148.4665	0.12	296933	keystroke	p	n/a
148.6915	0.045	297383	keystroke	o	n/a
148.932	0.09	297864	keystroke	n	n/a
149.0965	0.1505	298193	keystroke	d	n/a
149.5315	0.1045	299063	keystroke	e	n/a
149.7425	0.089	299485	keystroke	d	n/a
150.027	0.1345	300054	keystroke	Key.enter	n/a
150.1675	8.351	300335	prompt	n/a	locking train hypothetical banks\n
150.777	0.105	301554	keystroke	l	n/a
150.957	0.1205	301914	keystroke	o	n/a
151.0925	0.104	302185	keystroke	c	n/a
151.2115	0.12	302423	keystroke	k	n/a
151.4065	0.09	302813	keystroke	i	n/a
151.6015	0.0895	303203	keystroke	n	n/a
151.707	0.089	303414	keystroke	g	n/a
151.826	0.076	303652	keystroke	Key.space	n/a
151.992	0.195	303984	keystroke	t	n/a
152.232	0.135	304464	keystroke	r	n/a
152.442	0.165	304884	keystroke	a	n/a
152.652	0.09	305304	keystroke	i	n/a
152.8765	0.1195	305753	keystroke	n	n/a
153.056	0.076	306112	keystroke	Key.space	n/a
153.2815	0.1205	306563	keystroke	h	n/a
154.0015	0.1205	308003	keystroke	y	n/a
154.347	0.165	308694	keystroke	p	n/a
154.497	0.135	308994	keystroke	o	n/a
154.992	0.105	309984	keystroke	t	n/a
155.1415	0.09	310283	keystroke	h	n/a
155.276	0.106	310552	keystroke	e	n/a
156.0875	0.0745	312175	keystroke	t	n/a
156.207	0.09	312414	keystroke	i	n/a
156.387	0.1195	312774	keystroke	c	n/a
156.642	0.1055	313284	keystroke	a	n/a
156.867	0.135	313734	keystroke	l	n/a
157.016	0.091	314032	keystroke	Key.space	n/a
157.2565	0.0755	314513	keystroke	b	n/a
157.3615	0.135	314723	keystroke	a	n/a
157.647	0.03	315294	keystroke	n	n/a
157.932	0.149	315864	keystroke	k	n/a
158.141	0.106	316282	keystroke	s	n/a
158.4115	0.105	316823	keystroke	Key.enter	n/a
158.523	12.9255	317046	prompt	n/a	soil horses television characters\n
159.4925	0.119	318985	keystroke	s	n/a
159.6725	0.119	319345	keystroke	o	n/a
159.8515	0.136	319703	keystroke	i	n/a
160.107	0.1355	320214	keystroke	l	n/a
160.272	0.105	320544	keystroke	Key.space	n/a
160.5265	0.09	321053	keystroke	h	n/a
160.692	0.1345	321384	keystroke	o	n/a
160.886	0.121	321772	keystroke	r	n/a
161.112	0.18	322224	keystroke	s	n/a
161.322	0.135	322644	keystroke	e	n/a
161.472	0.135	322944	keystroke	s	n/a
161.6825	0.1035	323365	keystroke	Key.space	n/a
161.8925	0.104	323785	keystroke	t	n/a
162.102	0.1355	324204	keystroke	e	n/a
162.3565	0.105	324713	keystroke	l	n/a
162.5215	0.09	325043	keystroke	e	n/a
162.822	0.1055	325644	keystroke	b	n/a
163.0915	0.0605	326183	keystroke	i	n/a
163.4365	0.075	326873	keystroke	Key.backspace	n/a
163.587	0.0745	327174	keystroke	Key.backspace	n/a
164.037	0.15	328074	keystroke	b	n/a
164.6065	0.1055	329213	keystroke	Key.backspace	n/a
164.757	0.12	329514	keystroke	v	n/a
165.177	0.12	330354	keystroke	i	n/a
165.462	0.12	330924	keystroke	s	n/a
165.626	0.121	331252	keystroke	i	n/a
165.807	0.105	331614	keystroke	o	n/a
166.092	0.089	332184	keystroke	n	n/a
166.242	0.12	332484	keystroke	Key.space	n/a
166.572	0.12	333144	keystroke	c	n/a
166.707	0.1045	333414	keystroke	h	n/a
166.9165	0.09	333833	keystroke	a	n/a
167.2475	0.119	334495	keystroke	t	n/a
167.487	0.1355	334974	keystroke	a	n/a
167.9515	0.075	335903	keystroke	Key.backspace	n/a
168.102	0.12	336204	keystroke	Key.backspace	n/a
168.267	0.1045	336534	keystroke	r	n/a
168.732	0.135	337464	keystroke	a	n/a
169.107	0.1195	338214	keystroke	c	n/a
169.587	0.045	339174	keystroke	t	n/a
169.992	0.075	339984	keystroke	t	n/a
170.472	0.015	340944	keystroke	Key.backspace	n/a
170.666	0.196	341332	keystroke	e	n/a
170.817	0.15	341634	keystroke	r	n/a
170.997	0.1345	341994	keystroke	s	n/a
171.3265	0.1205	342653	keystroke	Key.enter	n/a
171.453	8.9975	342906	prompt	n/a	sought interpreted arms champions\n
172.182	0.135	344364	keystroke	s	n/a
172.332	0.135	344664	keystroke	o	n/a
172.5715	0.1205	345143	keystroke	u	n/a
172.8115	0.105	345623	keystroke	g	n/a
173.0515	0.09	346103	keystroke	h	n/a
173.472	0.105	346944	keystroke	t	n/a
173.712	0.09	347424	keystroke	Key.space	n/a
173.9075	0.0585	347815	keystroke	i	n/a
174.1325	0.074	348265	keystroke	n	n/a
174.3115	0.12	348623	keystroke	t	n/a
174.567	0.149	349134	keystroke	e	n/a
174.732	0.09	349464	keystroke	r	n/a
174.971	0.1055	349942	keystroke	p	n/a
175.1965	0.1505	350393	keystroke	r	n/a
175.392	0.1045	350784	keystroke	e	n/a
176.0665	0.135	352133	keystroke	t	n/a
176.487	0.1645	352974	keystroke	e	n/a
176.7125	0.105	353425	keystroke	d	n/a
176.9665	0.105	353933	keystroke	Key.space	n/a
177.312	0.105	354624	keystroke	a	n/a
177.612	0.0745	355224	keystroke	r	n/a
177.7475	0.104	355495	keystroke	m	n/a
177.912	0.135	355824	keystroke	s	n/a
178.077	0.0895	356154	keystroke	Key.space	n/a
178.3915	0.12	356783	keystroke	c	n/a
178.5875	0.09	357175	keystroke	h	n/a
178.752	0.1505	357504	keystroke	a	n/a
178.9465	0.0755	357893	keystroke	m	n/a
179.157	0.135	358314	keystroke	p	n/a
179.472	0.12	358944	keystroke	i	n/a
179.712	0.09	359424	keystroke	o	n/a
179.921	0.0905	359842	keystroke	n	n/a
180.088	0.1185	360176	keystroke	s	n/a
180.3265	0.12	360653	keystroke	Key.enter	n/a
180.4615	12.317	360923	prompt	n/a	surname venezuela planner correctly\n
181.302	0.1045	362604	keystroke	s	n/a
181.632	0.105	363264	keystroke	u	n/a
181.842	0.09	363684	keystroke	r	n/a
182.292	0.135	364584	keystroke	b	n/a
182.787	0.09	365574	keystroke	Key.backspace	n/a
183.0115	0.1505	366023	keystroke	b	n/a
183.581	0.1205	367162	keystroke	Key.backspace	n/a
184.0765	0.0905	368153	keystroke	n	n/a
184.317	0.1645	368634	keystroke	a	n/a
184.4965	0.1345	368993	keystroke	m	n/a
184.707	0.105	369414	keystroke	e	n/a
184.932	0.104	369864	keystroke	Key.space	n/a
185.472	0.0745	370944	keystroke	v	n/a
185.5775	0.104	371155	keystroke	e	n/a
186.117	0.0745	372234	keystroke	n	n/a
186.237	0.12	372474	keystroke	e	n/a
186.957	0.12	373914	keystroke	z	n/a
187.182	0.074	374364	keystroke	u	n/a
187.377	0.075	374754	keystroke	e	n/a
187.572	0.119	375144	keystroke	l	n/a
187.857	0.1655	375714	keystroke	a	n/a
188.171	0.091	376342	keystroke	Key.space	n/a
189.0865	0.09	378173	keystroke	p	n/a
189.297	0.105	378594	keystroke	l	n/a
189.4475	0.1345	378895	keystroke	a	n/a
189.7465	0.0905	379493	keystroke	n	n/a
189.957	0.075	379914	keystroke	n	n/a
190.062	0.21	380124	keystroke	e	n/a
190.227	0.119	380454	keystroke	r	n/a
190.422	0.1045	380844	keystroke	Key.space	n/a
190.647	0.09	381294	keystroke	c	n/a
190.7965	0.1205	381593	keystroke	o	n/a
190.9775	0.0895	381955	keystroke	r	n/a
191.1725	0.149	382345	keystroke	r	n/a
191.307	0.105	382614	keystroke	e	n/a
191.5465	0.1055	383093	keystroke	c	n/a
191.862	0.12	383724	keystroke	t	n/a
192.012	0.119	384024	keystroke	l	n/a
192.3265	0.075	384653	keystroke	y	n/a
192.6565	0.1205	385313	keystroke	Key.enter	n/a
192.785	7.4185	385570	prompt	n/a	dump suppliers joshua cottages\n
193.571	0.076	387142	keystroke	d	n/a
193.7975	0.0895	387595	keystroke	u	n/a
194.1565	0.0905	388313	keystroke	m	n/a
194.397	0.1195	388794	keystroke	p	n/a
194.6815	0.1055	389363	keystroke	Key.space	n/a
195.1025	0.104	390205	keystroke	s	n/a
195.2515	0.105	390503	keystroke	u	n/a
195.507	0.0905	391014	keystroke	p	n/a
195.672	0.105	391344	keystroke	p	n/a
195.926	0.106	391852	keystroke	l	n/a
196.1365	0.1045	392273	keystroke	i	n/a
196.2715	0.2095	392543	keystroke	e	n/a
196.422	0.149	392844	keystroke	r	n/a
196.586	0.1655	393172	keystroke	s	n/a
196.932	0.0895	393864	keystroke	Key.space	n/a
197.262	0.09	394524	keystroke	j	n/a
197.427	0.1205	394854	keystroke	o	n/a
197.562	0.134	395124	keystroke	s	n/a
197.667	0.1045	395334	keystroke	h	n/a
197.847	0.1045	395694	keystroke	u	n/a
198.1915	0.1205	396383	keystroke	a	n/a
198.387	0.0895	396774	keystroke	Key.space	n/a
198.567	0.0895	397134	keystroke	c	n/a
198.7165	0.1055	397433	keystroke	o	n/a
198.942	0.0895	397884	keystroke	t	n/a
199.122	0.12	398244	keystroke	t	n/a
199.2715	0.135	398543	keystroke	a	n/a
199.467	0.0895	398934	keystroke	g	n/a
199.632	0.15	399264	keystroke	e	n/a
199.797	0.1645	399594	keystroke	s	n/a
200.082	0.119	400164	keystroke	Key.enter	n/a
200.2075	6.8065	400415	prompt	n/a	attacks thoughts elected outlook\n
200.817	0.12	401634	keystroke	a	n/a
200.9815	0.075	401963	keystroke	t	n/a
201.117	0.09	402234	keystroke	t	n/a
201.297	0.1055	402594	keystroke	a	n/a
201.672	0.12	403344	keystroke	c	n/a
201.8665	0.1345	403733	keystroke	k	n/a
202.107	0.1195	404214	keystroke	s	n/a
202.2415	0.105	404483	keystroke	Key.space	n/a
202.482	0.105	404964	keystroke	t	n/a
202.5725	0.119	405145	keystroke	h	n/a
202.7515	0.105	405503	keystroke	o	n/a
202.9315	0.12	405863	keystroke	u	n/a
203.067	0.09	406134	keystroke	g	n/a
203.247	0.075	406494	keystroke	h	n/a
203.3975	0.119	406795	keystroke	t	n/a
203.7565	0.12	407513	keystroke	s	n/a
203.907	0.0895	407814	keystroke	Key.space	n/a
204.0715	0.0905	408143	keystroke	e	n/a
204.2065	0.135	408413	keystroke	l	n/a
204.3115	0.105	408623	keystroke	e	n/a
204.582	0.075	409164	keystroke	c	n/a
204.717	0.089	409434	keystroke	t	n/a
204.8965	0.1795	409793	keystroke	e	n/a
205.061	0.0915	410122	keystroke	d	n/a
205.242	0.104	410484	keystroke	Key.space	n/a
205.436	0.1055	410872	keystroke	o	n/a
205.631	0.105	411262	keystroke	u	n/a
205.766	0.105	411532	keystroke	t	n/a
205.932	0.135	411864	keystroke	l	n/a
206.306	0.061	412612	keystroke	o	n/a
206.457	0.075	412914	keystroke	o	n/a
206.592	0.135	413184	keystroke	k	n/a
206.9065	0.1045	413813	keystroke	Key.enter	n/a
207.018	11.515	414036	prompt	n/a	provincial told disciplines modules\n
207.686	0.121	415372	keystroke	p	n/a
207.852	0.135	415704	keystroke	r	n/a
208.017	0.09	416034	keystroke	o	n/a
208.4365	0.0305	416873	keystroke	b	n/a
208.4965	0.1055	416993	keystroke	b	n/a
208.9765	0.0755	417953	keystroke	Key.backspace	n/a
209.1715	0.09	418343	keystroke	Key.backspace	n/a
210.237	0.0905	420474	keystroke	v	n/a
210.4925	0.104	420985	keystroke	i	n/a
210.8515	0.1205	421703	keystroke	n	n/a
211.047	0.1045	422094	keystroke	c	n/a
211.197	0.12	422394	keystroke	i	n/a
211.407	0.1495	422814	keystroke	a	n/a
211.6015	0.1655	423203	keystroke	l	n/a
212.5765	0.12	425153	keystroke	Key.space	n/a
212.8315	0.1355	425663	keystroke	t	n/a
212.982	0.0895	425964	keystroke	o	n/a
213.192	0.09	426384	keystroke	l	n/a
213.402	0.12	426804	keystroke	d	n/a
213.612	0.045	427224	keystroke	Key.space	n/a
214.077	0.119	428154	keystroke	d	n/a
214.347	0.105	428694	keystroke	i	n/a
214.587	0.0895	429174	keystroke	s	n/a
214.9315	0.1205	429863	keystroke	c	n/a
215.231	0.1205	430462	keystroke	i	n/a
215.517	0.06	431034	keystroke	p	n/a
215.712	0.1045	431424	keystroke	l	n/a
215.9215	0.09	431843	keystroke	i	n/a
216.132	0.12	432264	keystroke	n	n/a
216.2815	0.2105	432563	keystroke	e	n/a
216.477	0.12	432954	keystroke	s	n/a
216.671	0.0905	433342	keystroke	Key.space	n/a
216.927	0.1195	433854	keystroke	m	n/a
217.136	0.106	434272	keystroke	o	n/a
217.332	0.105	434664	keystroke	d	n/a
217.572	0.075	435144	keystroke	u	n/a
217.8115	0.12	435623	keystroke	l	n/a
217.9615	0.1955	435923	keystroke	e	n/a
218.142	0.1195	436284	keystroke	s	n/a
218.4115	0.12	436823	keystroke	Key.enter	n/a
218.537	11.036	437074	prompt	n/a	exports november flickr champions\n
219.117	0.105	438234	keystroke	e	n/a
219.4475	0.1035	438895	keystroke	c	n/a
220.287	0.1045	440574	keystroke	Key.backspace	n/a
220.497	0.105	440994	keystroke	x	n/a
220.677	0.105	441354	keystroke	p	n/a
220.8565	0.0905	441713	keystroke	o	n/a
220.992	0.1645	441984	keystroke	r	n/a
221.1715	0.135	442343	keystroke	t	n/a
221.4565	0.15	442913	keystroke	s	n/a
221.6665	0.1055	443333	keystroke	Key.space	n/a
222.2965	0.09	444593	keystroke	n	n/a
222.492	0.09	444984	keystroke	o	n/a
222.731	0.0905	445462	keystroke	v	n/a
222.897	0.105	445794	keystroke	e	n/a
223.092	0.09	446184	keystroke	m	n/a
223.3465	0.0905	446693	keystroke	b	n/a
223.467	0.255	446934	keystroke	e	n/a
223.737	0.09	447474	keystroke	r	n/a
223.9165	0.1055	447833	keystroke	Key.space	n/a
224.187	0.105	448374	keystroke	f	n/a
224.336	0.106	448672	keystroke	l	n/a
224.547	0.0595	449094	keystroke	i	n/a
224.697	0.075	449394	keystroke	c	n/a
224.8765	0.1055	449753	keystroke	k	n/a
225.132	0.09	450264	keystroke	r	n/a
225.401	0.091	450802	keystroke	Key.space	n/a
225.687	0.149	451374	keystroke	c	n/a
225.897	0.1195	451794	keystroke	h	n/a
227.6365	0.1055	455273	keystroke	a	n/a
227.862	0.089	455724	keystroke	m	n/a
228.071	0.12	456142	keystroke	p	n/a
228.6115	0.0895	457223	keystroke	i	n/a
228.7615	0.106	457523	keystroke	o	n/a
228.9865	0.075	457973	keystroke	n	n/a
229.1365	0.1505	458273	keystroke	s	n/a
229.437	0.134	458874	keystroke	Key.enter	n/a
229.5785	9.985	459157	prompt	n/a	santa districts screen symbols\n
230.382	0.119	460764	keystroke	s	n/a
230.562	0.1195	461124	keystroke	a	n/a
230.7265	0.06	461453	keystroke	n	n/a
230.982	0.1045	461964	keystroke	t	n/a
231.161	0.135	462322	keystroke	a	n/a
231.372	0.1045	462744	keystroke	Key.space	n/a
231.7765	0.135	463553	keystroke	d	n/a
232.137	0.105	464274	keystroke	i	n/a
232.3765	0.0905	464753	keystroke	s	n/a
232.9165	0.045	465833	keystroke	t	n/a
233.1565	0.0905	466313	keystroke	r	n/a
233.4265	0.1205	466853	keystroke	i	n/a
233.681	0.121	467362	keystroke	c	n/a
233.9965	0.12	467993	keystroke	t	n/a
234.1765	0.15	468353	keystroke	s	n/a
234.536	0.1055	469072	keystroke	Key.space	n/a
234.9265	0.1355	469853	keystroke	s	n/a
235.1515	0.12	470303	keystroke	c	n/a
235.497	0.1195	470994	keystroke	r	n/a
235.661	0.09	471322	keystroke	e	n/a
235.8565	0.105	471713	keystroke	e	n/a
236.0515	0.135	472103	keystroke	n	n/a
236.3215	0.09	472643	keystroke	Key.space	n/a
236.667	0.06	473334	keystroke	d	n/a
237.0565	0.1055	474113	keystroke	Key.backspace	n/a
237.237	0.1045	474474	keystroke	s	n/a
238.0765	0.075	476153	keystroke	y	n/a
238.3765	0.105	476753	keystroke	m	n/a
238.6315	0.105	477263	keystroke	b	n/a
238.796	0.091	477592	keystroke	o	n/a
238.9765	0.0905	477953	keystroke	l	n/a
239.1265	0.1345	478253	keystroke	s	n/a
239.457	0.104	478914	keystroke	Key.enter	n/a
239.5675	7.826	479135	prompt	n/a	cassette happens but elliott\n
240.4315	0.15	480863	keystroke	c	n/a
240.6715	0.135	481343	keystroke	a	n/a
240.882	0.1195	481764	keystroke	s	n/a
241.2115	0.135	482423	keystroke	s	n/a
241.512	0.135	483024	keystroke	e	n/a
241.827	0.12	483654	keystroke	t	n/a
242.112	0.105	484224	keystroke	t	n/a
242.3665	0.105	484733	keystroke	e	n/a
242.5915	0.09	485183	keystroke	Key.space	n/a
242.8615	0.09	485723	keystroke	h	n/a
243.0115	0.15	486023	keystroke	a	n/a
243.192	0.0895	486384	keystroke	p	n/a
243.3715	0.105	486743	keystroke	p	n/a
243.5665	0.105	487133	keystroke	e	n/a
243.8065	0.1355	487613	keystroke	n	n/a
244.0465	0.1205	488093	keystroke	s	n/a
244.286	0.0905	488572	keystroke	Key.space	n/a
244.5415	0.09	489083	keystroke	b	n/a
244.7665	0.105	489533	keystroke	u	n/a
244.947	0.12	489894	keystroke	t	n/a
245.4265	0.0895	490853	keystroke	Key.space	n/a
245.8165	0.105	491633	keystroke	e	n/a
246.0265	0.0745	492053	keystroke	l	n/a
246.221	0.1055	492442	keystroke	l	n/a
246.446	0.135	492892	keystroke	i	n/a
246.6865	0.1205	493373	keystroke	o	n/a
246.927	0.119	493854	keystroke	t	n/a
247.286	0.105	494572	keystroke	Key.enter	n/a
247.3985	6.745	494797	prompt	n/a	buffalo grow minerals moses\n
248.1715	0.0895	496343	keystroke	b	n/a
248.396	0.076	496792	keystroke	u	n/a
248.592	0.075	497184	keystroke	f	n/a
248.772	0.1195	497544	keystroke	f	n/a
248.937	0.1205	497874	keystroke	a	n/a
249.177	0.1495	498354	keystroke	l	n/a
249.386	0.12	498772	keystroke	o	n/a
249.552	0.105	499104	keystroke	Key.space	n/a
249.777	0.12	499554	keystroke	g	n/a
250.121	0.1205	500242	keystroke	r	n/a
250.376	0.091	500752	keystroke	o	n/a
250.7215	0.1205	501443	keystroke	w	n/a
250.976	0.075	501952	keystroke	Key.space	n/a
251.2165	0.09	502433	keystroke	m	n/a
251.412	0.0895	502824	keystroke	i	n/a
251.621	0.105	503242	keystroke	n	n/a
251.711	0.21	503422	keystroke	e	n/a
251.8765	0.1955	503753	keystroke	r	n/a
252.057	0.1345	504114	keystroke	a	n/a
252.2365	0.1345	504473	keystroke	l	n/a
252.432	0.1195	504864	keystroke	s	n/a
252.701	0.0905	505402	keystroke	Key.space	n/a
252.9565	0.075	505913	keystroke	m	n/a
253.1065	0.135	506213	keystroke	o	n/a
253.2415	0.15	506483	keystroke	s	n/a
253.437	0.104	506874	keystroke	e	n/a
253.766	0.136	507532	keystroke	s	n/a
254.021	0.1205	508042	keystroke	Key.enter	n/a
254.1475	8.606	508295	prompt	n/a	branch cedar students fought\n
254.8615	0.135	509723	keystroke	b	n/a
255.132	0.12	510264	keystroke	r	n/a
255.2965	0.135	510593	keystroke	a	n/a
255.4915	0.1355	510983	keystroke	n	n/a
255.7765	0.1055	511553	keystroke	c	n/a
255.9715	0.12	511943	keystroke	h	n/a
256.2115	0.0905	512423	keystroke	Key.space	n/a
256.797	0.1045	513594	keystroke	c	n/a
257.201	0.135	514402	keystroke	e	n/a
257.5925	0.0895	515185	keystroke	f	n/a
258.236	0.0455	516472	keystroke	Key.backspace	n/a
258.4615	0.1355	516923	keystroke	d	n/a
258.6265	0.18	517253	keystroke	a	n/a
258.867	0.105	517734	keystroke	r	n/a
259.451	0.1205	518902	keystroke	Key.space	n/a
259.7515	0.12	519503	keystroke	s	n/a
259.9015	0.1205	519803	keystroke	t	n/a
260.1415	0.12	520283	keystroke	u	n/a
260.2765	0.15	520553	keystroke	d	n/a
260.4115	0.1205	520823	keystroke	e	n/a
260.5165	0.12	521033	keystroke	n	n/a
260.667	0.12	521334	keystroke	t	n/a
261.026	0.135	522052	keystroke	s	n/a
261.251	0.075	522502	keystroke	Key.space	n/a
261.506	0.1205	523012	keystroke	f	n/a
261.6715	0.121	523343	keystroke	o	n/a
261.8515	0.105	523703	keystroke	u	n/a
261.9715	0.0905	523943	keystroke	g	n/a
262.0765	0.1205	524153	keystroke	h	n/a
262.2115	0.135	524423	keystroke	t	n/a
262.6315	0.119	525263	keystroke	Key.enter	n/a
262.7585	9.2965	525517	prompt	n/a	bids integer fundamental examples\n
263.667	0.075	527334	keystroke	b	n/a
263.876	0.105	527752	keystroke	i	n/a
264.177	0.1195	528354	keystroke	d	n/a
264.417	0.134	528834	keystroke	s	n/a
264.626	0.0905	529252	keystroke	Key.space	n/a
264.837	0.09	529674	keystroke	i	n/a
265.0315	0.0905	530063	keystroke	n	n/a
265.212	0.12	530424	keystroke	t	n/a
265.9165	0.1205	531833	keystroke	e	n/a
266.4415	0.09	532883	keystroke	g	n/a
266.5465	0.165	533093	keystroke	e	n/a
266.727	0.105	533454	keystroke	r	n/a
266.9815	0.105	533963	keystroke	Key.space	n/a
267.3865	0.1505	534773	keystroke	f	n/a
267.567	0.1045	535134	keystroke	u	n/a
267.8365	0.1055	535673	keystroke	n	n/a
268.002	0.164	536004	keystroke	d	n/a
268.242	0.164	536484	keystroke	a	n/a
268.5115	0.0905	537023	keystroke	m	n/a
268.6165	0.135	537233	keystroke	e	n/a
268.7815	0.105	537563	keystroke	n	n/a
268.9315	0.1205	537863	keystroke	t	n/a
269.142	0.1495	538284	keystroke	a	n/a
269.4265	0.15	538853	keystroke	l	n/a
269.7115	0.09	539423	keystroke	Key.space	n/a
269.967	0.104	539934	keystroke	e	n/a
270.387	0.134	540774	keystroke	x	n/a
270.7465	0.1055	541493	keystroke	a	n/a
270.957	0.075	541914	keystroke	m	n/a
271.1215	0.0905	542243	keystroke	p	n/a
271.3615	0.1055	542723	keystroke	l	n/a
271.481	0.151	542962	keystroke	e	n/a
271.617	0.1345	543234	keystroke	s	n/a
271.9315	0.12	543863	keystroke	Key.enter	n/a
272.066	8.267	544132	prompt	n/a	marshall treasury reaches india\n
272.7115	0.1055	545423	keystroke	m	n/a
272.861	0.195	545722	keystroke	a	n/a
273.086	0.105	546172	keystroke	r	n/a
273.311	0.1355	546622	keystroke	s	n/a
273.4765	0.12	546953	keystroke	h	n/a
273.6265	0.105	547253	keystroke	a	n/a
273.806	0.046	547612	keystroke	l	n/a
273.972	0.0745	547944	keystroke	l	n/a
274.136	0.105	548272	keystroke	Key.space	n/a
274.256	0.135	548512	keystroke	t	n/a
274.466	0.075	548932	keystroke	r	n/a
274.976	0.1805	549952	keystroke	e	n/a
275.2165	0.1195	550433	keystroke	a	n/a
275.606	0.1055	551212	keystroke	s	n/a
275.7865	0.1055	551573	keystroke	u	n/a
275.952	0.105	551904	keystroke	r	n/a
276.192	0.1045	552384	keystroke	y	n/a
276.4465	0.0905	552893	keystroke	Key.space	n/a
276.747	0.0445	553494	keystroke	t	n/a
277.1965	0.0895	554393	keystroke	Key.backspace	n/a
277.3165	0.1495	554633	keystroke	r	n/a
277.4515	0.1645	554903	keystroke	e	n/a
277.631	0.09	555262	keystroke	a	n/a
277.872	0.0895	555744	keystroke	c	n/a
278.0515	0.105	556103	keystroke	h	n/a
278.2615	0.135	556523	keystroke	e	n/a
278.456	0.1055	556912	keystroke	s	n/a
278.6965	0.105	557393	keystroke	Key.space	n/a
278.9965	0.0905	557993	keystroke	i	n/a
279.206	0.121	558412	keystroke	n	n/a
279.372	0.119	558744	keystroke	d	n/a
279.537	0.075	559074	keystroke	i	n/a
279.8965	0.1195	559793	keystroke	a	n/a
280.211	0.12	560422	keystroke	Key.enter	n/a
280.336	7.137	560672	prompt	n/a	association mason burner hint\n
280.842	0.149	561684	keystroke	a	n/a
281.0965	0.12	562193	keystroke	s	n/a
281.4115	0.105	562823	keystroke	s	n/a
281.712	0.12	563424	keystroke	o	n/a
281.9665	0.1055	563933	keystroke	c	n/a
282.192	0.1045	564384	keystroke	i	n/a
282.3565	0.12	564713	keystroke	a	n/a
282.5965	0.075	565193	keystroke	t	n/a
282.7165	0.12	565433	keystroke	i	n/a
282.882	0.105	565764	keystroke	o	n/a
283.062	0.12	566124	keystroke	n	n/a
283.196	0.1055	566392	keystroke	Key.space	n/a
283.421	0.121	566842	keystroke	m	n/a
283.557	0.1645	567114	keystroke	a	n/a
283.722	0.12	567444	keystroke	s	n/a
283.901	0.1055	567802	keystroke	o	n/a
284.1565	0.105	568313	keystroke	n	n/a
284.3515	0.09	568703	keystroke	Key.space	n/a
284.9215	0.0905	569843	keystroke	b	n/a
285.2815	0.076	570563	keystroke	u	n/a
285.4615	0.105	570923	keystroke	r	n/a
285.6415	0.136	571283	keystroke	n	n/a
285.7625	0.194	571525	keystroke	e	n/a
285.9115	0.12	571823	keystroke	r	n/a
286.1665	0.0745	572333	keystroke	Key.space	n/a
286.572	0.0745	573144	keystroke	h	n/a
286.736	0.0905	573472	keystroke	i	n/a
286.931	0.09	573862	keystroke	n	n/a
287.081	0.0905	574162	keystroke	t	n/a
287.3515	0.12	574703	keystroke	Key.enter	n/a
287.479	6.5365	574958	prompt	n/a	nintendo part reel locate\n
288.117	0.105	576234	keystroke	n	n/a
288.357	0.0895	576714	keystroke	i	n/a
288.551	0.105	577102	keystroke	n	n/a
288.762	0.0895	577524	keystroke	t	n/a
288.9565	0.09	577913	keystroke	e	n/a
289.152	0.075	578304	keystroke	n	n/a
289.362	0.06	578724	keystroke	d	n/a
289.691	0.106	579382	keystroke	o	n/a
289.886	0.09	579772	keystroke	Key.space	n/a
290.1715	0.105	580343	keystroke	p	n/a
290.2915	0.1495	580583	keystroke	a	n/a
290.487	0.105	580974	keystroke	r	n/a
290.8015	0.1055	581603	keystroke	t	n/a
291.0865	0.12	582173	keystroke	Key.space	n/a
291.5065	0.15	583013	keystroke	r	n/a
291.747	0.0895	583494	keystroke	e	n/a
291.942	0.0895	583884	keystroke	e	n/a
292.107	0.1345	584214	keystroke	l	n/a
292.332	0.0895	584664	keystroke	Key.space	n/a
292.647	0.075	585294	keystroke	l	n/a
292.797	0.1045	585594	keystroke	o	n/a
292.9325	0.15	585865	keystroke	c	n/a
293.202	0.165	586404	keystroke	a	n/a
293.441	0.166	586882	keystroke	t	n/a
293.6515	0.1205	587303	keystroke	e	n/a
293.907	0.105	587814	keystroke	Key.enter	n/a
294.0265	14.522	588053	prompt	n/a	afraid arab vertical often\n
294.612	0.1345	589224	keystroke	a	n/a
294.926	0.091	589852	keystroke	f	n/a
295.2265	0.12	590453	keystroke	r	n/a
295.4375	0.119	590875	keystroke	a	n/a
295.677	0.0745	591354	keystroke	i	n/a
296.2465	0.0895	592493	keystroke	d	n/a
296.8315	0.09	593663	keystroke	Key.space	n/a
297.2065	0.1205	594413	keystroke	a	n/a
297.641	0.1215	595282	keystroke	r	n/a
297.867	0.149	595734	keystroke	a	n/a
298.7815	0.1655	597563	keystroke	n	n/a
299.321	0.09	598642	keystroke	Key.backspace	n/a
299.8165	0.1055	599633	keystroke	b	n/a
301.061	0.12	602122	keystroke	Key.space	n/a
301.437	0.1205	602874	keystroke	o	n/a
301.5575	0.089	603115	keystroke	f	n/a
301.7815	0.105	603563	keystroke	t	n/a
301.9915	0.1345	603983	keystroke	e	n/a
302.187	0.105	604374	keystroke	n	n/a
302.4565	0.09	604913	keystroke	Key.space	n/a
303.761	0.0905	607522	keystroke	Key.backspace	n/a
304.0015	0.06	608003	keystroke	Key.backspace	n/a
304.197	0.0735	608394	keystroke	Key.backspace	n/a
304.436	0.1055	608872	keystroke	Key.backspace	n/a
304.661	0.105	609322	keystroke	Key.backspace	n/a
304.9015	0.1045	609803	keystroke	Key.backspace	n/a
305.5015	0.09	611003	keystroke	v	n/a
305.6065	0.2105	611213	keystroke	e	n/a
305.7715	0.1045	611543	keystroke	r	n/a
305.981	0.076	611962	keystroke	t	n/a
306.132	0.12	612264	keystroke	i	n/a
306.2815	0.135	612563	keystroke	c	n/a
306.5065	0.15	613013	keystroke	a	n/a
306.6115	0.1205	613223	keystroke	l	n/a
306.8815	0.075	613763	keystroke	Key.space	n/a
307.0915	0.105	614183	keystroke	o	n/a
307.272	0.1045	614544	keystroke	f	n/a
307.721	0.12	615442	keystroke	t	n/a
307.916	0.15	615832	keystroke	e	n/a
308.1115	0.105	616223	keystroke	n	n/a
308.4115	0.135	616823	keystroke	Key.enter	n/a
308.554	6.7145	617108	prompt	n/a	days copper guild string\n
309.6715	0.1195	619343	keystroke	d	n/a
309.9115	0.12	619823	keystroke	a	n/a
310.032	0.074	620064	keystroke	y	n/a
310.1965	0.15	620393	keystroke	s	n/a
310.3615	0.105	620723	keystroke	Key.space	n/a
310.5865	0.135	621173	keystroke	c	n/a
310.7965	0.105	621593	keystroke	o	n/a
311.171	0.0755	622342	keystroke	p	n/a
311.381	0.0455	622762	keystroke	p	n/a
311.4565	0.21	622913	keystroke	e	n/a
311.6215	0.105	623243	keystroke	r	n/a
311.8165	0.09	623633	keystroke	Key.space	n/a
312.101	0.091	624202	keystroke	g	n/a
312.6565	0.195	625313	keystroke	u	n/a
312.8665	0.1355	625733	keystroke	i	n/a
313.136	0.1205	626272	keystroke	l	n/a
313.316	0.135	626632	keystroke	d	n/a
313.6465	0.12	627293	keystroke	Key.space	n/a
313.901	0.1055	627802	keystroke	s	n/a
314.1125	0.179	628225	keystroke	t	n/a
314.3065	0.12	628613	keystroke	r	n/a
314.5015	0.09	629003	keystroke	i	n/a
314.7115	0.1045	629423	keystroke	n	n/a
314.8315	0.1355	629663	keystroke	g	n/a
315.1465	0.12	630293	keystroke	Key.enter	n/a
315.2735	8.725	630547	prompt	n/a	learning deals adventures condo\n
315.957	0.1195	631914	keystroke	l	n/a
316.1065	0.1645	632213	keystroke	e	n/a
316.287	0.1945	632574	keystroke	a	n/a
316.4365	0.105	632873	keystroke	r	n/a
316.6015	0.0895	633203	keystroke	n	n/a
316.796	0.0905	633592	keystroke	i	n/a
317.0065	0.1055	634013	keystroke	n	n/a
317.2165	0.135	634433	keystroke	g	n/a
317.4115	0.1055	634823	keystroke	Key.space	n/a
317.831	0.1205	635662	keystroke	d	n/a
318.086	0.1955	636172	keystroke	e	n/a
318.267	0.1795	636534	keystroke	a	n/a
318.656	0.121	637312	keystroke	l	n/a
318.807	0.1495	637614	keystroke	s	n/a
318.9865	0.0895	637973	keystroke	Key.space	n/a
319.1815	0.18	638363	keystroke	a	n/a
319.4215	0.1355	638843	keystroke	d	n/a
319.7065	0.1195	639413	keystroke	v	n/a
319.886	0.105	639772	keystroke	e	n/a
320.081	0.1055	640162	keystroke	n	n/a
320.262	0.105	640524	keystroke	t	n/a
320.6065	0.105	641213	keystroke	u	n/a
320.787	0.1795	641574	keystroke	r	n/a
320.9815	0.165	641963	keystroke	e	n/a
321.3715	0.135	642743	keystroke	Key.space	n/a
322.1065	0.09	644213	keystroke	Key.backspace	n/a
322.407	0.09	644814	keystroke	s	n/a
322.6315	0.075	645263	keystroke	Key.space	n/a
322.7965	0.1355	645593	keystroke	c	n/a
322.946	0.091	645892	keystroke	o	n/a
323.1415	0.075	646283	keystroke	n	n/a
323.2765	0.075	646553	keystroke	d	n/a
323.517	0.089	647034	keystroke	o	n/a
323.8765	0.12	647753	keystroke	Key.enter	n/a
324.0025	9.956	648005	prompt	n/a	abandoned moses still gives\n
324.6865	0.15	649373	keystroke	a	n/a
325.0315	0.1355	650063	keystroke	b	n/a
325.8555	0.1505	651711	keystroke	a	n/a
326.8165	0.1355	653633	keystroke	n	n/a
327.266	0.091	654532	keystroke	d	n/a
327.446	0.09	654892	keystroke	o	n/a
327.642	0.12	655284	keystroke	n	n/a
327.777	0.1645	655554	keystroke	e	n/a
328.3315	0.091	656663	keystroke	d	n/a
328.661	0.09	657322	keystroke	Key.space	n/a
328.886	0.0905	657772	keystroke	m	n/a
329.0365	0.1355	658073	keystroke	o	n/a
329.2315	0.105	658463	keystroke	s	n/a
329.607	0.15	659214	keystroke	e	n/a
329.922	0.134	659844	keystroke	s	n/a
330.3565	0.09	660713	keystroke	Key.space	n/a
330.551	0.105	661102	keystroke	s	n/a
330.7615	0.1055	661523	keystroke	t	n/a
330.9265	0.09	661853	keystroke	i	n/a
331.1965	0.0895	662393	keystroke	l	n/a
331.407	0.075	662814	keystroke	l	n/a
331.601	0.075	663202	keystroke	Key.space	n/a
331.8415	0.0455	663683	keystroke	f	n/a
332.3065	0.1045	664613	keystroke	Key.backspace	n/a
332.472	0.1045	664944	keystroke	g	n/a
332.7265	0.1055	665453	keystroke	i	n/a
332.9215	0.165	665843	keystroke	v	n/a
333.236	0.18	666472	keystroke	e	n/a
333.4465	0.1805	666893	keystroke	s	n/a
333.8365	0.1195	667673	keystroke	Key.enter	n/a
333.963	12.835	667926	prompt	n/a	oils contents divide development\n
334.916	0.1055	669832	keystroke	o	n/a
335.1565	0.12	670313	keystroke	i	n/a
335.411	0.136	670822	keystroke	l	n/a
335.6655	0.166	671331	keystroke	s	n/a
335.8605	0.135	671721	keystroke	Key.space	n/a
336.2665	0.105	672533	keystroke	c	n/a
336.416	0.105	672832	keystroke	o	n/a
336.671	0.075	673342	keystroke	n	n/a
336.882	0.104	673764	keystroke	t	n/a
337.121	0.1655	674242	keystroke	e	n/a
337.4665	0.075	674933	keystroke	n	n/a
337.6165	0.1055	675233	keystroke	t	n/a
338.082	0.014	676164	keystroke	s	n/a
338.1565	0.12	676313	keystroke	Key.space	n/a
338.396	0.045	676792	keystroke	a	n/a
338.8165	0.1045	677633	keystroke	Key.backspace	n/a
338.9815	0.12	677963	keystroke	f	n/a
339.2515	0.1195	678503	keystroke	i	n/a
339.6715	0.105	679343	keystroke	Key.backspace	n/a
339.8815	0.06	679763	keystroke	Key.backspace	n/a
340.107	0.1195	680214	keystroke	d	n/a
340.4665	0.12	680933	keystroke	i	n/a
341.0965	0.1505	682193	keystroke	v	n/a
341.5315	0.075	683063	keystroke	i	n/a
341.8015	0.15	683603	keystroke	d	n/a
342.0415	0.105	684083	keystroke	e	n/a
342.3265	0.12	684653	keystroke	Key.space	n/a
342.8055	0.151	685611	keystroke	d	n/a
342.986	0.1055	685972	keystroke	e	n/a
343.2715	0.1355	686543	keystroke	b	n/a
343.7815	0.12	687563	keystroke	Key.backspace	n/a
343.961	0.181	687922	keystroke	v	n/a
344.4565	0.09	688913	keystroke	e	n/a
344.712	0.119	689424	keystroke	l	n/a
344.9965	0.15	689993	keystroke	o	n/a
345.3715	0.0455	690743	keystroke	p	n/a
345.822	0.105	691644	keystroke	m	n/a
345.942	0.1495	691884	keystroke	e	n/a
346.1065	0.09	692213	keystroke	n	n/a
346.272	0.1495	692544	keystroke	t	n/a
346.6615	0.135	693323	keystroke	Key.enter	n/a
346.8025	10.6755	693605	prompt	n/a	collins retired essence horror\n
347.5315	0.165	695063	keystroke	c	n/a
347.7415	0.045	695483	keystroke	o	n/a
348.1315	0.015	696263	keystroke	l	n/a
348.2205	0.106	696441	keystroke	l	n/a
348.432	0.0895	696864	keystroke	i	n/a
348.671	0.1055	697342	keystroke	n	n/a
349.2265	0.135	698453	keystroke	s	n/a
349.5105	0.09	699021	keystroke	Key.space	n/a
349.8565	0.105	699713	keystroke	r	n/a
350.096	0.1055	700192	keystroke	e	n/a
350.7865	0.015	701573	keystroke	y	n/a
350.8615	0.0445	701723	keystroke	y	n/a
351.686	0.0905	703372	keystroke	Key.backspace	n/a
352.1515	0.089	704303	keystroke	Key.backspace	n/a
352.616	0.0755	705232	keystroke	t	n/a
352.826	0.09	705652	keystroke	i	n/a
353.112	0.1645	706224	keystroke	r	n/a
353.2615	0.1655	706523	keystroke	e	n/a
353.546	0.1055	707092	keystroke	d	n/a
353.846	0.1205	707692	keystroke	Key.space	n/a
354.0715	0.075	708143	keystroke	e	n/a
354.5815	0.09	709163	keystroke	s	n/a
354.942	0.1495	709884	keystroke	s	n/a
355.152	0.1045	710304	keystroke	e	n/a
355.4065	0.12	710813	keystroke	n	n/a
355.632	0.105	711264	keystroke	c	n/a
355.871	0.075	711742	keystroke	e	n/a
355.9765	0.105	711953	keystroke	Key.space	n/a
356.1865	0.105	712373	keystroke	h	n/a
356.3965	0.105	712793	keystroke	o	n/a
356.5765	0.089	713153	keystroke	r	n/a
356.8165	0.0445	713633	keystroke	r	n/a
356.9665	0.1045	713933	keystroke	o	n/a
357.371	0.1055	714742	keystroke	Key.enter	n/a
357.4825	6.0705	714965	prompt	n/a	reed migration profiles slow\n
358.1965	0.0895	716393	keystroke	r	n/a
358.4515	0.075	716903	keystroke	e	n/a
358.6615	0.0895	717323	keystroke	e	n/a
358.9165	0.1055	717833	keystroke	d	n/a
359.0665	0.12	718133	keystroke	Key.space	n/a
359.2465	0.09	718493	keystroke	m	n/a
359.4115	0.104	718823	keystroke	i	n/a
359.6365	0.0905	719273	keystroke	g	n/a
359.727	0.149	719454	keystroke	r	n/a
359.8765	0.194	719753	keystroke	a	n/a
360.102	0.1045	720204	keystroke	t	n/a
360.207	0.1195	720414	keystroke	i	n/a
360.3565	0.12	720713	keystroke	o	n/a
360.5515	0.12	721103	keystroke	n	n/a
360.7015	0.1045	721403	keystroke	Key.space	n/a
360.9865	0.12	721973	keystroke	p	n/a
361.1815	0.104	722363	keystroke	r	n/a
361.3615	0.1195	722723	keystroke	o	n/a
361.571	0.105	723142	keystroke	f	n/a
361.737	0.089	723474	keystroke	i	n/a
361.9615	0.105	723923	keystroke	l	n/a
362.1265	0.21	724253	keystroke	e	n/a
362.292	0.1185	724584	keystroke	s	n/a
362.4715	0.09	724943	keystroke	Key.space	n/a
362.6665	0.105	725333	keystroke	s	n/a
362.8015	0.1045	725603	keystroke	l	n/a
363.0115	0.105	726023	keystroke	o	n/a
363.192	0.105	726384	keystroke	w	n/a
363.4465	0.105	726893	keystroke	Key.enter	n/a
363.557	6.671	727114	prompt	n/a	grill label smoke wikipedia\n
364.4515	0.06	728903	keystroke	g	n/a
364.6615	0.09	729323	keystroke	r	n/a
364.8115	0.105	729623	keystroke	i	n/a
365.0665	0.059	730133	keystroke	l	n/a
365.232	0.0895	730464	keystroke	l	n/a
365.396	0.09	730792	keystroke	Key.space	n/a
365.6065	0.09	731213	keystroke	l	n/a
365.742	0.1345	731484	keystroke	a	n/a
365.9065	0.0905	731813	keystroke	b	n/a
366.0715	0.09	732143	keystroke	e	n/a
366.2365	0.105	732473	keystroke	l	n/a
366.416	0.075	732832	keystroke	Key.space	n/a
366.5815	0.165	733163	keystroke	s	n/a
366.7315	0.09	733463	keystroke	m	n/a
366.9415	0.0905	733883	keystroke	o	n/a
367.136	0.1345	734272	keystroke	k	n/a
367.2565	0.075	734513	keystroke	e	n/a
367.3755	0.106	734751	keystroke	Key.space	n/a
367.6315	0.12	735263	keystroke	w	n/a
367.916	0.045	735832	keystroke	i	n/a
368.2915	0.135	736583	keystroke	k	n/a
368.5765	0.0895	737153	keystroke	i	n/a
368.8465	0.104	737693	keystroke	p	n/a
368.9665	0.089	737933	keystroke	e	n/a
369.206	0.135	738412	keystroke	d	n/a
369.416	0.09	738832	keystroke	i	n/a
369.8215	0.1045	739643	keystroke	a	n/a
370.076	0.1505	740152	keystroke	Key.enter	n/a
370.233	9.1905	740466	prompt	n/a	shell scary talked stated\n
370.871	0.135	741742	keystroke	s	n/a
370.9915	0.1045	741983	keystroke	h	n/a
371.156	0.0755	742312	keystroke	e	n/a
371.306	0.075	742612	keystroke	l	n/a
371.456	0.12	742912	keystroke	l	n/a
371.6515	0.09	743303	keystroke	Key.space	n/a
371.846	0.1055	743692	keystroke	s	n/a
372.506	0.105	745012	keystroke	c	n/a
372.7765	0.18	745553	keystroke	a	n/a
372.986	0.1205	745972	keystroke	r	n/a
373.3015	0.105	746603	keystroke	t	n/a
373.647	0.089	747294	keystroke	Key.space	n/a
373.9465	0.0905	747893	keystroke	t	n/a
374.112	0.1195	748224	keystroke	a	n/a
374.6065	0.09	749213	keystroke	Key.backspace	n/a
374.8015	0.074	749603	keystroke	Key.backspace	n/a
375.041	0.0755	750082	keystroke	Key.backspace	n/a
375.3565	0.06	750713	keystroke	Key.backspace	n/a
375.7905	0.0915	751581	keystroke	y	n/a
376.1965	0.1345	752393	keystroke	Key.space	n/a
376.346	0.12	752692	keystroke	t	n/a
376.526	0.1505	753052	keystroke	a	n/a
376.7515	0.1195	753503	keystroke	l	n/a
376.9765	0.12	753953	keystroke	k	n/a
377.1565	0.1645	754313	keystroke	e	n/a
377.396	0.1055	754792	keystroke	d	n/a
377.6065	0.1045	755213	keystroke	Key.space	n/a
378.011	0.12	756022	keystroke	s	n/a
378.1465	0.0905	756293	keystroke	t	n/a
378.386	0.21	756772	keystroke	a	n/a
378.491	0.09	756982	keystroke	t	n/a
378.686	0.165	757372	keystroke	e	n/a
378.9115	0.1045	757823	keystroke	d	n/a
379.286	0.135	758572	keystroke	Key.enter	n/a
379.428	6.25	758856	prompt	n/a	bridges launched garmin logs\n
380.187	0.1045	760374	keystroke	b	n/a
380.3065	0.09	760613	keystroke	r	n/a
380.472	0.104	760944	keystroke	i	n/a
380.622	0.119	761244	keystroke	d	n/a
380.847	0.074	761694	keystroke	g	n/a
380.9965	0.135	761993	keystroke	e	n/a
381.417	0.1345	762834	keystroke	s	n/a
381.5965	0.12	763193	keystroke	Key.space	n/a
381.8215	0.12	763643	keystroke	l	n/a
381.956	0.121	763912	keystroke	a	n/a
382.1065	0.09	764213	keystroke	u	n/a
382.332	0.12	764664	keystroke	n	n/a
382.5115	0.0895	765023	keystroke	c	n/a
382.6765	0.1045	765353	keystroke	h	n/a
382.827	0.1645	765654	keystroke	e	n/a
383.0515	0.12	766103	keystroke	d	n/a
383.306	0.09	766612	keystroke	Key.space	n/a
383.7415	0.09	767483	keystroke	g	n/a
383.8755	0.1665	767751	keystroke	a	n/a
384.026	0.12	768052	keystroke	r	n/a
384.191	0.09	768382	keystroke	m	n/a
384.371	0.09	768742	keystroke	i	n/a
384.566	0.0755	769132	keystroke	n	n/a
384.6715	0.075	769343	keystroke	Key.space	n/a
384.867	0.0895	769734	keystroke	l	n/a
385.031	0.105	770062	keystroke	o	n/a
385.182	0.105	770364	keystroke	g	n/a
385.406	0.1355	770812	keystroke	s	n/a
385.6165	0.0595	771233	keystroke	Key.enter	n/a
385.6855	7.9285	771371	prompt	n/a	substantially cruise nominations rely\n
386.5165	0.105	773033	keystroke	s	n/a
386.7265	0.06	773453	keystroke	u	n/a
386.906	0.1055	773812	keystroke	b	n/a
387.101	0.1055	774202	keystroke	s	n/a
387.2365	0.075	774473	keystroke	t	n/a
387.3865	0.1505	774773	keystroke	a	n/a
387.627	0.1045	775254	keystroke	n	n/a
387.7615	0.1045	775523	keystroke	t	n/a
387.881	0.1205	775762	keystroke	i	n/a
388.0465	0.09	776093	keystroke	a	n/a
388.241	0.06	776482	keystroke	l	n/a
388.406	0.105	776812	keystroke	l	n/a
388.7365	0.105	777473	keystroke	y	n/a
389.0215	0.12	778043	keystroke	Key.space	n/a
389.217	0.1045	778434	keystroke	c	n/a
389.5165	0.105	779033	keystroke	r	n/a
389.667	0.105	779334	keystroke	u	n/a
389.847	0.1045	779694	keystroke	i	n/a
389.9815	0.1945	779963	keystroke	s	n/a
390.237	0.0905	780474	keystroke	e	n/a
390.4765	0.09	780953	keystroke	Key.space	n/a
390.717	0.1195	781434	keystroke	n	n/a
390.957	0.1045	781914	keystroke	o	n/a
391.196	0.0905	782392	keystroke	m	n/a
391.3765	0.0745	782753	keystroke	i	n/a
391.571	0.075	783142	keystroke	n	n/a
391.676	0.151	783352	keystroke	a	n/a
391.8715	0.105	783743	keystroke	t	n/a
391.992	0.09	783984	keystroke	i	n/a
392.127	0.09	784254	keystroke	o	n/a
392.321	0.09	784642	keystroke	n	n/a
392.472	0.1195	784944	keystroke	s	n/a
392.5915	0.1045	785183	keystroke	Key.space	n/a
392.7715	0.135	785543	keystroke	r	n/a
392.8915	0.105	785783	keystroke	e	n/a
393.056	0.136	786112	keystroke	l	n/a
393.221	0.1355	786442	keystroke	y	n/a
393.4915	0.12	786983	keystroke	Key.enter	n/a
393.6185	8.7245	787237	prompt	n/a	loops consumers practical renaissance\n
394.181	0.1055	788362	keystroke	l	n/a
394.3915	0.09	788783	keystroke	o	n/a
394.6015	0.0755	789203	keystroke	o	n/a
394.9765	0.075	789953	keystroke	p	n/a
395.202	0.104	790404	keystroke	s	n/a
395.336	0.09	790672	keystroke	Key.space	n/a
395.802	0.1195	791604	keystroke	c	n/a
396.0865	0.0745	792173	keystroke	o	n/a
396.342	0.089	792684	keystroke	n	n/a
396.521	0.12	793042	keystroke	s	n/a
396.656	0.105	793312	keystroke	u	n/a
396.9115	0.0895	793823	keystroke	m	n/a
397.031	0.1955	794062	keystroke	e	n/a
397.211	0.1645	794422	keystroke	r	n/a
397.4065	0.1195	794813	keystroke	s	n/a
397.571	0.09	795142	keystroke	Key.space	n/a
397.8115	0.06	795623	keystroke	p	n/a
397.886	0.1355	795772	keystroke	r	n/a
398.1265	0.105	796253	keystroke	a	n/a
398.411	0.121	796822	keystroke	c	n/a
398.741	0.12	797482	keystroke	t	n/a
398.9215	0.1205	797843	keystroke	i	n/a
399.071	0.1655	798142	keystroke	c	n/a
399.3265	0.195	798653	keystroke	a	n/a
399.582	0.1345	799164	keystroke	l	n/a
399.971	0.1055	799942	keystroke	Key.space	n/a
400.227	0.1345	800454	keystroke	r	n/a
400.3915	0.105	800783	keystroke	e	n/a
400.661	0.1055	801322	keystroke	n	n/a
400.812	0.1185	801624	keystroke	a	n/a
400.991	0.09	801982	keystroke	i	n/a
401.1415	0.075	802283	keystroke	s	n/a
401.3365	0.1495	802673	keystroke	s	n/a
401.5015	0.0895	803003	keystroke	a	n/a
401.6365	0.12	803273	keystroke	n	n/a
401.7715	0.105	803543	keystroke	c	n/a
401.9215	0.135	803843	keystroke	e	n/a
402.2215	0.1195	804443	keystroke	Key.enter	n/a
402.348	7.825	804696	prompt	n/a	wonder basics titten parcel\n
403.2865	0.0745	806573	keystroke	w	n/a
403.4065	0.1055	806813	keystroke	o	n/a
403.662	0.104	807324	keystroke	n	n/a
403.826	0.12	807652	keystroke	d	n/a
403.9915	0.18	807983	keystroke	e	n/a
404.1565	0.1345	808313	keystroke	r	n/a
404.396	0.075	808792	keystroke	Key.space	n/a
404.6665	0.09	809333	keystroke	b	n/a
404.8465	0.15	809693	keystroke	a	n/a
405.0255	0.121	810051	keystroke	s	n/a
405.4165	0.1045	810833	keystroke	i	n/a
406.0615	0.1345	812123	keystroke	c	n/a
406.4965	0.1505	812993	keystroke	s	n/a
406.751	0.1205	813502	keystroke	Key.space	n/a
407.0065	0.1495	814013	keystroke	t	n/a
407.2165	0.09	814433	keystroke	i	n/a
407.4565	0.075	814913	keystroke	t	n/a
407.651	0.0755	815302	keystroke	t	n/a
407.802	0.105	815604	keystroke	e	n/a
407.981	0.1355	815962	keystroke	n	n/a
408.1465	0.105	816293	keystroke	Key.space	n/a
408.372	0.119	816744	keystroke	p	n/a
408.5205	0.1655	817041	keystroke	a	n/a
408.8065	0.09	817613	keystroke	r	n/a
409.241	0.1205	818482	keystroke	c	n/a
409.541	0.0905	819082	keystroke	e	n/a
409.7065	0.105	819413	keystroke	l	n/a
410.051	0.12	820102	keystroke	Key.enter	n/a
410.177	12.506	820354	prompt	n/a	observation southern mild mechanics\n
410.876	0.1055	821752	keystroke	o	n/a
411.4315	0.12	822863	keystroke	b	n/a
412.1665	0.1645	824333	keystroke	s	n/a
412.3165	0.21	824633	keystroke	e	n/a
412.5115	0.165	825023	keystroke	r	n/a
413.411	0.045	826822	keystroke	v	n/a
413.921	0.1505	827842	keystroke	a	n/a
414.1615	0.1055	828323	keystroke	t	n/a
414.327	0.1195	828654	keystroke	i	n/a
414.492	0.105	828984	keystroke	o	n/a
414.731	0.1055	829462	keystroke	n	n/a
414.8815	0.1045	829763	keystroke	Key.space	n/a
415.0765	0.15	830153	keystroke	s	n/a
415.2115	0.1045	830423	keystroke	o	n/a
415.466	0.0755	830932	keystroke	u	n/a
415.736	0.1055	831472	keystroke	t	n/a
415.9465	0.1055	831893	keystroke	h	n/a
416.0815	0.2105	832163	keystroke	e	n/a
416.2465	0.119	832493	keystroke	r	n/a
416.5015	0.1345	833003	keystroke	n	n/a
416.7415	0.089	833483	keystroke	Key.space	n/a
417.0855	0.106	834171	keystroke	m	n/a
417.371	0.1205	834742	keystroke	i	n/a
417.6865	0.1205	835373	keystroke	l	n/a
417.882	0.0895	835764	keystroke	d	n/a
418.4665	0.0895	836933	keystroke	Key.space	n/a
418.767	0.1195	837534	keystroke	m	n/a
419.0665	0.075	838133	keystroke	e	n/a
419.3665	0.1205	838733	keystroke	c	n/a
419.636	0.106	839272	keystroke	h	n/a
419.801	0.1355	839602	keystroke	a	n/a
419.9965	0.075	839993	keystroke	n	n/a
420.191	0.1205	840382	keystroke	i	n/a
420.9715	0.1345	841943	keystroke	x	n/a
421.481	0.1355	842962	keystroke	Key.backspace	n/a
421.647	0.149	843294	keystroke	c	n/a
421.976	0.075	843952	keystroke	s	n/a
422.5165	0.165	845033	keystroke	Key.enter	n/a
422.687	8.726	845374	prompt	n/a	by remote greatly vital\n
423.6275	0.074	847255	keystroke	b	n/a
423.836	0.09	847672	keystroke	y	n/a
423.9715	0.12	847943	keystroke	Key.space	n/a
424.5115	0.1345	849023	keystroke	r	n/a
424.631	0.1355	849262	keystroke	e	n/a
424.7965	0.1055	849593	keystroke	m	n/a
425.141	0.0155	850282	keystroke	o	n/a
425.1715	0.105	850343	keystroke	t	n/a
425.412	0.1185	850824	keystroke	e	n/a
425.6365	0.1195	851273	keystroke	Key.space	n/a
426.6115	0.075	853223	keystroke	f	n/a
427.046	0.1055	854092	keystroke	Key.backspace	n/a
427.1525	0.104	854305	keystroke	g	n/a
427.4665	0.165	854933	keystroke	r	n/a
427.6015	0.2105	855203	keystroke	e	n/a
427.797	0.1945	855594	keystroke	a	n/a
428.0515	0.135	856103	keystroke	t	n/a
428.5915	0.0895	857183	keystroke	l	n/a
428.9215	0.03	857843	keystroke	y	n/a
429.4315	0.105	858863	keystroke	Key.space	n/a
429.927	0.164	859854	keystroke	v	n/a
430.3465	0.09	860693	keystroke	i	n/a
430.571	0.165	861142	keystroke	t	n/a
430.811	0.15	861622	keystroke	a	n/a
430.976	0.1055	861952	keystroke	l	n/a
431.306	0.105	862612	keystroke	Key.enter	n/a
431.425	12.213	862850	prompt	n/a	amounts diet biographies excessive\n
432.221	0.1955	864442	keystroke	a	n/a
432.371	0.105	864742	keystroke	m	n/a
432.552	0.134	865104	keystroke	o	n/a
432.7465	0.0755	865493	keystroke	u	n/a
432.9265	0.12	865853	keystroke	n	n/a
433.1065	0.12	866213	keystroke	t	n/a
433.497	0.1345	866994	keystroke	s	n/a
433.7665	0.09	867533	keystroke	Key.space	n/a
434.037	0.1045	868074	keystroke	d	n/a
434.336	0.0595	868672	keystroke	i	n/a
434.5155	0.121	869031	keystroke	e	n/a
434.7415	0.134	869483	keystroke	t	n/a
435.161	0.1355	870322	keystroke	Key.space	n/a
435.5815	0.075	871163	keystroke	b	n/a
436.0765	0.12	872153	keystroke	u	n/a
436.706	0.09	873412	keystroke	Key.backspace	n/a
437.052	0.0895	874104	keystroke	i	n/a
437.1865	0.12	874373	keystroke	o	n/a
437.426	0.091	874852	keystroke	g	n/a
437.532	0.1195	875064	keystroke	r	n/a
437.726	0.09	875452	keystroke	a	n/a
437.772	0.0895	875544	keystroke	p	n/a
438.0265	0.0905	876053	keystroke	h	n/a
438.192	0.1345	876384	keystroke	i	n/a
439.4815	0.1805	878963	keystroke	e	n/a
439.6915	0.15	879383	keystroke	s	n/a
440.036	0.1205	880072	keystroke	Key.space	n/a
440.3515	0.15	880703	keystroke	a	n/a
440.9365	0.09	881873	keystroke	Key.backspace	n/a
441.0865	0.12	882173	keystroke	e	n/a
441.732	0.104	883464	keystroke	x	n/a
441.971	0.1055	883942	keystroke	c	n/a
442.1365	0.1355	884273	keystroke	e	n/a
442.361	0.076	884722	keystroke	s	n/a
442.5565	0.0595	885113	keystroke	s	n/a
442.6465	0.1195	885293	keystroke	i	n/a
442.9315	0.1355	885863	keystroke	v	n/a
443.1865	0.135	886373	keystroke	e	n/a
443.5165	0.1195	887033	keystroke	Key.enter	n/a
443.6425	9.1605	887285	prompt	n/a	obvious wishes fees zoom\n
444.3265	0.105	888653	keystroke	o	n/a
444.657	0.104	889314	keystroke	b	n/a
444.9415	0.1355	889883	keystroke	s	n/a
445.5565	0.15	891113	keystroke	i	n/a
446.0965	0.105	892193	keystroke	Key.backspace	n/a
446.276	0.09	892552	keystroke	Key.backspace	n/a
447.027	0.0885	894054	keystroke	v	n/a
447.2065	0.0895	894413	keystroke	i	n/a
447.3865	0.12	894773	keystroke	o	n/a
447.717	0.089	895434	keystroke	u	n/a
447.912	0.1345	895824	keystroke	s	n/a
448.1065	0.09	896213	keystroke	Key.space	n/a
448.2865	0.1055	896573	keystroke	w	n/a
448.4665	0.105	896933	keystroke	i	n/a
448.6165	0.105	897233	keystroke	s	n/a
448.7515	0.075	897503	keystroke	h	n/a
448.8715	0.165	897743	keystroke	e	n/a
449.5915	0.105	899183	keystroke	d	n/a
449.8165	0.105	899633	keystroke	Key.space	n/a
449.9815	0.135	899963	keystroke	f	n/a
450.2515	0.045	900503	keystroke	e	n/a
450.4315	0.09	900863	keystroke	e	n/a
451.017	0.134	902034	keystroke	s	n/a
451.286	0.135	902572	keystroke	Key.space	n/a
451.8715	0.105	903743	keystroke	z	n/a
452.0215	0.0605	904043	keystroke	o	n/a
452.1865	0.09	904373	keystroke	o	n/a
452.3965	0.12	904793	keystroke	m	n/a
452.7115	0.09	905423	keystroke	Key.enter	n/a
452.8065	7.678	905613	prompt	n/a	murder minerals positioning hidden\n
453.5515	0.09	907103	keystroke	m	n/a
453.791	0.075	907582	keystroke	u	n/a
453.9115	0.12	907823	keystroke	r	n/a
454.2715	0.12	908543	keystroke	d	n/a
454.4665	0.1955	908933	keystroke	e	n/a
454.6915	0.15	909383	keystroke	r	n/a
454.9015	0.105	909803	keystroke	Key.space	n/a
455.1265	0.075	910253	keystroke	m	n/a
455.292	0.089	910584	keystroke	i	n/a
455.4715	0.105	910943	keystroke	n	n/a
455.6215	0.2395	911243	keystroke	e	n/a
455.787	0.165	911574	keystroke	r	n/a
455.936	0.165	911872	keystroke	a	n/a
456.2065	0.12	912413	keystroke	l	n/a
456.4015	0.15	912803	keystroke	s	n/a
456.6565	0.045	913313	keystroke	Key.space	n/a
456.9565	0.12	913913	keystroke	p	n/a
457.1515	0.09	914303	keystroke	o	n/a
457.4065	0.135	914813	keystroke	s	n/a
457.587	0.12	915174	keystroke	i	n/a
457.722	0.105	915444	keystroke	t	n/a
457.8565	0.105	915713	keystroke	i	n/a
458.0215	0.09	916043	keystroke	o	n/a
458.231	0.09	916462	keystroke	n	n/a
458.4265	0.09	916853	keystroke	i	n/a
458.606	0.1205	917212	keystroke	n	n/a
458.7415	0.12	917483	keystroke	g	n/a
458.8765	0.0905	917753	keystroke	Key.space	n/a
459.0865	0.105	918173	keystroke	h	n/a
459.2515	0.12	918503	keystroke	i	n/a
459.4315	0.12	918863	keystroke	d	n/a
459.672	0.12	919344	keystroke	d	n/a
459.8065	0.105	919613	keystroke	e	n/a
460.032	0.1045	920064	keystroke	n	n/a
460.362	0.1195	920724	keystroke	Key.enter	n/a
460.4915	11.1965	920983	prompt	n/a	customer conventions postcard truth\n
461.8915	0.136	923783	keystroke	c	n/a
462.327	0.1045	924654	keystroke	u	n/a
462.5365	0.105	925073	keystroke	s	n/a
462.792	0.0895	925584	keystroke	t	n/a
462.9265	0.0905	925853	keystroke	o	n/a
463.1515	0.135	926303	keystroke	m	n/a
463.2715	0.195	926543	keystroke	e	n/a
463.4365	0.1055	926873	keystroke	r	n/a
463.5865	0.09	927173	keystroke	Key.space	n/a
463.917	0.149	927834	keystroke	c	n/a
464.157	0.104	928314	keystroke	o	n/a
464.4715	0.105	928943	keystroke	n	n/a
465.177	0.1345	930354	keystroke	v	n/a
465.507	0.1195	931014	keystroke	e	n/a
465.9115	0.105	931823	keystroke	n	n/a
466.137	0.105	932274	keystroke	t	n/a
466.3465	0.1195	932693	keystroke	i	n/a
466.496	0.121	932992	keystroke	o	n/a
466.737	0.1195	933474	keystroke	n	n/a
466.8715	0.165	933743	keystroke	s	n/a
467.051	0.075	934102	keystroke	Key.space	n/a
467.2315	0.12	934463	keystroke	p	n/a
467.3965	0.105	934793	keystroke	o	n/a
467.8165	0.1055	935633	keystroke	s	n/a
468.1905	0.1205	936381	keystroke	t	n/a
468.701	0.135	937402	keystroke	c	n/a
469.0015	0.1645	938003	keystroke	a	n/a
469.181	0.1055	938362	keystroke	r	n/a
469.466	0.09	938932	keystroke	d	n/a
469.8115	0.105	939623	keystroke	Key.space	n/a
470.2915	0.105	940583	keystroke	t	n/a
470.5615	0.105	941123	keystroke	r	n/a
470.907	0.014	941814	keystroke	u	n/a
471.011	0.105	942022	keystroke	t	n/a
471.2215	0.1195	942443	keystroke	h	n/a
471.5665	0.1195	943133	keystroke	Key.enter	n/a
471.691	6.867	943382	prompt	n/a	siemens were mate racial\n
472.436	0.12	944872	keystroke	s	n/a
472.601	0.0905	945202	keystroke	i	n/a
472.796	0.0905	945592	keystroke	e	n/a
472.9915	0.1195	945983	keystroke	m	n/a
473.1415	0.1205	946283	keystroke	e	n/a
473.3215	0.09	946643	keystroke	n	n/a
473.756	0.1205	947512	keystroke	s	n/a
473.9515	0.105	947903	keystroke	Key.space	n/a
474.131	0.1655	948262	keystroke	w	n/a
474.3115	0.09	948623	keystroke	e	n/a
474.552	0.134	949104	keystroke	r	n/a
474.6715	0.09	949343	keystroke	e	n/a
474.8515	0.09	949703	keystroke	Key.space	n/a
475.317	0.1195	950634	keystroke	m	n/a
475.5415	0.1955	951083	keystroke	a	n/a
475.7815	0.1505	951563	keystroke	t	n/a
476.021	0.1205	952042	keystroke	e	n/a
476.2915	0.0745	952583	keystroke	Key.space	n/a
477.2215	0.105	954443	keystroke	r	n/a
477.401	0.1355	954802	keystroke	a	n/a
477.671	0.105	955342	keystroke	c	n/a
477.7915	0.105	955583	keystroke	i	n/a
477.941	0.135	955882	keystroke	a	n/a
478.1215	0.105	956243	keystroke	l	n/a
478.4215	0.135	956843	keystroke	Key.enter	n/a
478.5665	8.677	957133	prompt	n/a	grateful notebooks coordinated lake\n
479.9065	0.075	959813	keystroke	g	n/a
480.0565	0.1655	960113	keystroke	r	n/a
480.252	0.2385	960504	keystroke	a	n/a
480.4765	0.105	960953	keystroke	t	n/a
480.671	0.121	961342	keystroke	e	n/a
480.9115	0.1495	961823	keystroke	f	n/a
481.0915	0.09	962183	keystroke	u	n/a
481.302	0.135	962604	keystroke	l	n/a
481.451	0.0905	962902	keystroke	Key.space	n/a
481.6465	0.075	963293	keystroke	n	n/a
481.8265	0.12	963653	keystroke	o	n/a
481.947	0.1195	963894	keystroke	t	n/a
482.1565	0.1205	964313	keystroke	e	n/a
482.3665	0.075	964733	keystroke	b	n/a
482.636	0.06	965272	keystroke	o	n/a
482.787	0.134	965574	keystroke	o	n/a
483.267	0.1195	966534	keystroke	k	n/a
483.6715	0.1795	967343	keystroke	s	n/a
483.807	0.1045	967614	keystroke	Key.space	n/a
484.2115	0.105	968423	keystroke	c	n/a
484.3615	0.0595	968723	keystroke	o	n/a
484.511	0.15	969022	keystroke	o	n/a
484.647	0.0745	969294	keystroke	r	n/a
484.872	0.0745	969744	keystroke	d	n/a
484.962	0.059	969924	keystroke	i	n/a
485.157	0.105	970314	keystroke	n	n/a
485.321	0.1805	970642	keystroke	a	n/a
485.5165	0.1345	971033	keystroke	t	n/a
485.756	0.226	971512	keystroke	e	n/a
485.967	0.119	971934	keystroke	d	n/a
486.1765	0.0895	972353	keystroke	Key.space	n/a
486.386	0.1205	972772	keystroke	l	n/a
486.536	0.1355	973072	keystroke	a	n/a
486.656	0.1205	973312	keystroke	k	n/a
486.8065	0.135	973613	keystroke	e	n/a
487.1065	0.1345	974213	keystroke	Key.enter	n/a
487.2485	9.1	974497	prompt	n/a	bath guides resort malpractice\n
487.962	0.089	975924	keystroke	b	n/a
488.3965	0.12	976793	keystroke	a	n/a
488.6215	0.105	977243	keystroke	t	n/a
488.7865	0.12	977573	keystroke	h	n/a
489.0115	0.0745	978023	keystroke	Key.space	n/a
489.2515	0.075	978503	keystroke	g	n/a
489.446	0.1055	978892	keystroke	u	n/a
489.6415	0.1045	979283	keystroke	i	n/a
489.806	0.15	979612	keystroke	d	n/a
489.941	0.196	979882	keystroke	e	n/a
490.107	0.12	980214	keystroke	s	n/a
490.3165	0.105	980633	keystroke	Key.space	n/a
490.901	0.1655	981802	keystroke	r	n/a
491.2765	0.12	982553	keystroke	e	n/a
491.486	0.075	982972	keystroke	s	n/a
491.682	0.134	983364	keystroke	o	n/a
491.906	0.1055	983812	keystroke	r	n/a
492.1755	0.1215	984351	keystroke	t	n/a
492.4625	0.104	984925	keystroke	Key.space	n/a
492.791	0.061	985582	keystroke	m	n/a
492.9715	0.135	985943	keystroke	a	n/a
493.122	0.0745	986244	keystroke	l	n/a
493.3315	0.135	986663	keystroke	p	n/a
493.4965	0.1195	986993	keystroke	r	n/a
493.647	0.1345	987294	keystroke	a	n/a
494.8765	0.09	989753	keystroke	c	n/a
495.177	0.104	990354	keystroke	t	n/a
495.356	0.105	990712	keystroke	i	n/a
495.581	0.106	991162	keystroke	c	n/a
495.821	0.1055	991642	keystroke	e	n/a
496.1965	0.15	992393	keystroke	Key.enter	n/a
496.353	9.4	992706	prompt	n/a	trash ware corrected rogers\n
497.037	0.165	994074	keystroke	t	n/a
497.322	0.149	994644	keystroke	r	n/a
497.6515	0.1495	995303	keystroke	s	n/a
498.2065	0.09	996413	keystroke	Key.backspace	n/a
498.357	0.15	996714	keystroke	a	n/a
498.537	0.1345	997074	keystroke	s	n/a
498.7765	0.12	997553	keystroke	h	n/a
499.016	0.0905	998032	keystroke	Key.space	n/a
499.5115	0.18	999023	keystroke	a	n/a
499.7365	0.1345	999473	keystroke	r	n/a
500.111	0.09	1000222	keystroke	Key.backspace	n/a
500.291	0.075	1000582	keystroke	Key.backspace	n/a
500.4265	0.135	1000853	keystroke	w	n/a
500.6065	0.1205	1001213	keystroke	a	n/a
500.876	0.135	1001752	keystroke	r	n/a
501.1765	0.105	1002353	keystroke	e	n/a
501.4615	0.12	1002923	keystroke	Key.space	n/a
501.7775	0.0885	1003555	keystroke	c	n/a
502.1365	0.12	1004273	keystroke	o	n/a
502.377	0.089	1004754	keystroke	r	n/a
502.541	0.1205	1005082	keystroke	r	n/a
502.7065	0.12	1005413	keystroke	e	n/a
502.9465	0.1805	1005893	keystroke	c	n/a
503.5615	0.045	1007123	keystroke	t	n/a
503.8315	0.165	1007663	keystroke	e	n/a
504.0265	0.105	1008053	keystroke	d	n/a
504.2065	0.09	1008413	keystroke	Key.space	n/a
504.5365	0.09	1009073	keystroke	r	n/a
504.6415	0.09	1009283	keystroke	o	n/a
504.8665	0.0905	1009733	keystroke	g	n/a
504.9415	0.285	1009883	keystroke	e	n/a
505.1065	0.195	1010213	keystroke	r	n/a
505.2865	0.164	1010573	keystroke	s	n/a
505.6315	0.12	1011263	keystroke	Key.enter	n/a
505.757	8.876	1011514	prompt	n/a	betting informal brother evaluations\n
506.546	0.105	1013092	keystroke	b	n/a
506.666	0.106	1013332	keystroke	e	n/a
506.876	0.075	1013752	keystroke	t	n/a
507.041	0.0755	1014082	keystroke	t	n/a
507.161	0.0605	1014322	keystroke	i	n/a
507.3265	0.135	1014653	keystroke	n	n/a
507.4315	0.105	1014863	keystroke	g	n/a
507.581	0.0905	1015162	keystroke	Key.space	n/a
507.776	0.0755	1015552	keystroke	i	n/a
508.0165	0.105	1016033	keystroke	n	n/a
508.2265	0.09	1016453	keystroke	f	n/a
508.3615	0.105	1016723	keystroke	o	n/a
508.5115	0.105	1017023	keystroke	r	n/a
508.721	0.0755	1017442	keystroke	m	n/a
509.0365	0.1805	1018073	keystroke	a	n/a
509.2315	0.1045	1018463	keystroke	l	n/a
509.4115	0.0895	1018823	keystroke	Key.space	n/a
509.8165	0.09	1019633	keystroke	b	n/a
509.9215	0.105	1019843	keystroke	r	n/a
510.101	0.0905	1020202	keystroke	o	n/a
510.206	0.135	1020412	keystroke	t	n/a
510.401	0.0905	1020802	keystroke	h	n/a
510.5805	0.166	1021161	keystroke	e	n/a
510.7165	0.12	1021433	keystroke	r	n/a
510.8515	0.089	1021703	keystroke	Key.space	n/a
511.0615	0.0895	1022123	keystroke	e	n/a
511.7215	0.135	1023443	keystroke	v	n/a
511.9165	0.134	1023833	keystroke	a	n/a
512.0815	0.1055	1024163	keystroke	l	n/a
512.3065	0.075	1024613	keystroke	u	n/a
512.3965	0.12	1024793	keystroke	t	n/a
512.5455	0.1805	1025091	keystroke	a	n/a
512.771	0.1055	1025542	keystroke	i	n/a
512.9215	0.105	1025843	keystroke	o	n/a
513.1315	0.09	1026263	keystroke	n	n/a
513.3115	0.09	1026623	keystroke	s	n/a
514.5115	0.12	1029023	keystroke	Key.enter	n/a
514.636	8.802	1029272	prompt	n/a	dates sheriff speed intense\n
515.7265	0.105	1031453	keystroke	d	n/a
515.8765	0.1505	1031753	keystroke	a	n/a
516.0415	0.09	1032083	keystroke	t	n/a
516.1915	0.195	1032383	keystroke	e	n/a
516.3715	0.15	1032743	keystroke	s	n/a
516.6415	0.075	1033283	keystroke	Key.space	n/a
516.881	0.135	1033762	keystroke	s	n/a
517.017	0.119	1034034	keystroke	h	n/a
517.346	0.135	1034692	keystroke	e	n/a
517.631	0.105	1035262	keystroke	r	n/a
518.097	0.0745	1036194	keystroke	i	n/a
518.8015	0.0895	1037603	keystroke	f	n/a
519.027	0.119	1038054	keystroke	f	n/a
519.2965	0.135	1038593	keystroke	Key.space	n/a
519.656	0.1355	1039312	keystroke	s	n/a
519.8065	0.1195	1039613	keystroke	p	n/a
519.941	0.0605	1039882	keystroke	e	n/a
520.1365	0.09	1040273	keystroke	e	n/a
520.557	0.0895	1041114	keystroke	d	n/a
520.796	0.1055	1041592	keystroke	Key.space	n/a
521.021	0.061	1042042	keystroke	i	n/a
521.216	0.1055	1042432	keystroke	n	n/a
521.891	0.0755	1043782	keystroke	t	n/a
522.2815	0.12	1044563	keystroke	e	n/a
522.4465	0.12	1044893	keystroke	n	n/a
522.8665	0.15	1045733	keystroke	s	n/a
523.0315	0.12	1046063	keystroke	e	n/a
523.3315	0.1045	1046663	keystroke	Key.enter	n/a
523.4425	14.981	1046885	prompt	n/a	onion nationwide looksmart crest\n
524.097	0.1945	1048194	keystroke	o	n/a
524.7415	0.105	1049483	keystroke	n	n/a
525.0415	0.09	1050083	keystroke	i	n/a
525.1765	0.1195	1050353	keystroke	o	n/a
525.4765	0.105	1050953	keystroke	n	n/a
525.6715	0.0895	1051343	keystroke	Key.space	n/a
525.9865	0.0895	1051973	keystroke	n	n/a
526.0915	0.1495	1052183	keystroke	a	n/a
526.286	0.121	1052572	keystroke	t	n/a
526.422	0.1195	1052844	keystroke	i	n/a
526.6015	0.1055	1053203	keystroke	o	n/a
526.8265	0.0905	1053653	keystroke	n	n/a
527.1565	0.12	1054313	keystroke	w	n/a
527.3515	0.09	1054703	keystroke	i	n/a
527.516	0.1655	1055032	keystroke	s	n/a
527.667	0.134	1055334	keystroke	e	n/a
527.8605	0.12	1055721	keystroke	Key.space	n/a
528.087	0.0895	1056174	keystroke	l	n/a
528.311	0.09	1056622	keystroke	o	n/a
528.492	0.1195	1056984	keystroke	o	n/a
529.3915	0.105	1058783	keystroke	Key.backspace	n/a
529.6015	0.074	1059203	keystroke	Key.backspace	n/a
529.7815	0.1045	1059563	keystroke	Key.backspace	n/a
529.992	0.089	1059984	keystroke	Key.backspace	n/a
530.171	0.1055	1060342	keystroke	Key.backspace	n/a
530.6365	0.105	1061273	keystroke	Key.backspace	n/a
530.8165	0.15	1061633	keystroke	d	n/a
530.9815	0.12	1061963	keystroke	e	n/a
531.356	0.09	1062712	keystroke	Key.space	n/a
531.596	0.1055	1063192	keystroke	l	n/a
531.7915	0.105	1063583	keystroke	o	n/a
531.9565	0.105	1063913	keystroke	o	n/a
532.1665	0.1205	1064333	keystroke	k	n/a
532.736	0.136	1065472	keystroke	s	n/a
532.977	0.089	1065954	keystroke	m	n/a
533.141	0.18	1066282	keystroke	a	n/a
533.3815	0.1195	1066763	keystroke	r	n/a
533.6965	0.1195	1067393	keystroke	t	n/a
533.951	0.0755	1067902	keystroke	Key.space	n/a
534.462	0.1195	1068924	keystroke	c	n/a
537.209	0.058	1074418	keystroke	r	n/a
537.6115	0.105	1075223	keystroke	e	n/a
537.9115	0.1195	1075823	keystroke	s	n/a
538.106	0.12	1076212	keystroke	t	n/a
538.301	0.12	1076602	keystroke	Key.enter	n/a
538.4275	9.1905	1076855	prompt	n/a	charming alpha ceremony filling\n
539.186	0.1355	1078372	keystroke	c	n/a
539.3665	0.075	1078733	keystroke	h	n/a
539.5455	0.166	1079091	keystroke	a	n/a
539.7265	0.0905	1079453	keystroke	r	n/a
539.8915	0.0905	1079783	keystroke	m	n/a
540.087	0.0595	1080174	keystroke	i	n/a
540.372	0.089	1080744	keystroke	g	n/a
541.0315	0.0745	1082063	keystroke	Key.backspace	n/a
541.3005	0.091	1082601	keystroke	n	n/a
541.422	0.104	1082844	keystroke	g	n/a
541.571	0.1055	1083142	keystroke	Key.space	n/a
541.7365	0.1645	1083473	keystroke	a	n/a
541.931	0.09	1083862	keystroke	l	n/a
542.156	0.091	1084312	keystroke	p	n/a
542.412	0.105	1084824	keystroke	h	n/a
542.6665	0.1805	1085333	keystroke	a	n/a
542.816	0.1195	1085632	keystroke	Key.space	n/a
543.1915	0.1195	1086383	keystroke	c	n/a
543.5065	0.1195	1087013	keystroke	r	n/a
543.9265	0.105	1087853	keystroke	Key.backspace	n/a
544.0615	0.1795	1088123	keystroke	e	n/a
544.2265	0.1345	1088453	keystroke	r	n/a
544.4065	0.105	1088813	keystroke	e	n/a
544.796	0.09	1089592	keystroke	m	n/a
544.991	0.1055	1089982	keystroke	o	n/a
545.186	0.09	1090372	keystroke	n	n/a
545.426	0.1205	1090852	keystroke	y	n/a
545.6815	0.09	1091363	keystroke	Key.space	n/a
546.267	0.0895	1092534	keystroke	f	n/a
546.3715	0.0755	1092743	keystroke	i	n/a
546.5515	0.0905	1093103	keystroke	l	n/a
546.7165	0.0905	1093433	keystroke	l	n/a
546.882	0.075	1093764	keystroke	i	n/a
547.061	0.09	1094122	keystroke	n	n/a
547.197	0.09	1094394	keystroke	g	n/a
547.496	0.1205	1094992	keystroke	Key.enter	n/a
547.623	9.925	1095246	prompt	n/a	pleased differ restricted curtis\n
548.261	0.09	1096522	keystroke	p	n/a
548.501	0.1055	1097002	keystroke	l	n/a
548.576	0.165	1097152	keystroke	e	n/a
548.7565	0.2105	1097513	keystroke	a	n/a
548.906	0.1805	1097812	keystroke	s	n/a
549.071	0.136	1098142	keystroke	e	n/a
549.401	0.1055	1098802	keystroke	d	n/a
549.626	0.06	1099252	keystroke	Key.space	n/a
550.0765	0.09	1100153	keystroke	d	n/a
550.2265	0.09	1100453	keystroke	i	n/a
550.3465	0.12	1100693	keystroke	f	n/a
550.603	0.1185	1101206	keystroke	f	n/a
550.8265	0.15	1101653	keystroke	e	n/a
550.9615	0.1505	1101923	keystroke	r	n/a
551.1265	0.09	1102253	keystroke	e	n/a
551.291	0.1055	1102582	keystroke	Key.space	n/a
551.951	0.0755	1103902	keystroke	Key.backspace	n/a
552.131	0.0595	1104262	keystroke	Key.backspace	n/a
552.446	0.0905	1104892	keystroke	Key.space	n/a
552.686	0.15	1105372	keystroke	r	n/a
552.8215	0.1355	1105643	keystroke	e	n/a
552.9415	0.135	1105883	keystroke	s	n/a
553.2415	0.12	1106483	keystroke	t	n/a
553.4215	0.105	1106843	keystroke	r	n/a
553.7215	0.045	1107443	keystroke	u	n/a
554.2165	0.0745	1108433	keystroke	Key.backspace	n/a
554.4715	0.06	1108943	keystroke	i	n/a
554.6065	0.09	1109213	keystroke	c	n/a
554.7565	0.105	1109513	keystroke	t	n/a
554.876	0.1505	1109752	keystroke	e	n/a
555.0565	0.105	1110113	keystroke	d	n/a
555.2365	0.105	1110473	keystroke	Key.space	n/a
555.626	0.091	1111252	keystroke	c	n/a
555.821	0.09	1111642	keystroke	u	n/a
556.0315	0.105	1112063	keystroke	r	n/a
556.3015	0.1205	1112603	keystroke	t	n/a
556.4815	0.075	1112963	keystroke	i	n/a
556.6915	0.09	1113383	keystroke	e	n/a
557.081	0.09	1114162	keystroke	Key.backspace	n/a
557.231	0.105	1114462	keystroke	s	n/a
557.411	0.1355	1114822	keystroke	Key.enter	n/a
557.5525	9.2505	1115105	prompt	n/a	equations system out engineering\n
558.1765	0.105	1116353	keystroke	e	n/a
558.6265	0.03	1117253	keystroke	q	n/a
558.8065	0.0905	1117613	keystroke	u	n/a
558.956	0.1805	1117912	keystroke	a	n/a
559.2715	0.105	1118543	keystroke	t	n/a
559.437	0.1045	1118874	keystroke	i	n/a
559.5715	0.105	1119143	keystroke	o	n/a
559.7965	0.1055	1119593	keystroke	n	n/a
559.961	0.105	1119922	keystroke	s	n/a
560.096	0.0905	1120192	keystroke	Key.space	n/a
560.291	0.0905	1120582	keystroke	s	n/a
560.4265	0.075	1120853	keystroke	u	n/a
560.5615	0.135	1121123	keystroke	s	n/a
561.0265	0.075	1122053	keystroke	Key.backspace	n/a
561.1765	0.075	1122353	keystroke	Key.backspace	n/a
561.3265	0.135	1122653	keystroke	t	n/a
561.9565	0.09	1123913	keystroke	Key.backspace	n/a
562.2415	0.06	1124483	keystroke	y	n/a
562.3765	0.12	1124753	keystroke	s	n/a
562.5715	0.09	1125143	keystroke	t	n/a
562.7215	0.075	1125443	keystroke	e	n/a
563.021	0.105	1126042	keystroke	m	n/a
563.501	0.045	1127002	keystroke	Key.space	n/a
563.606	0.12	1127212	keystroke	o	n/a
563.801	0.1055	1127602	keystroke	u	n/a
563.966	0.09	1127932	keystroke	t	n/a
564.116	0.105	1128232	keystroke	Key.space	n/a
564.401	0.106	1128802	keystroke	e	n/a
564.5215	0.105	1129043	keystroke	n	n/a
564.716	0.1205	1129432	keystroke	g	n/a
564.9115	0.09	1129823	keystroke	i	n/a
565.4515	0.09	1130903	keystroke	n	n/a
565.6465	0.09	1131293	keystroke	e	n/a
565.857	0.1195	1131714	keystroke	e	n/a
566.0205	0.105	1132041	keystroke	r	n/a
566.1715	0.075	1132343	keystroke	i	n/a
566.3365	0.105	1132673	keystroke	n	n/a
566.4565	0.0745	1132913	keystroke	g	n/a
566.696	0.105	1133392	keystroke	Key.enter	n/a
566.8075	10.1955	1133615	prompt	n/a	assessment charitable claimed destiny\n
567.4465	0.165	1134893	keystroke	a	n/a
567.6265	0.106	1135253	keystroke	s	n/a
567.8365	0.105	1135673	keystroke	s	n/a
568.1215	0.1195	1136243	keystroke	e	n/a
568.2865	0.1055	1136573	keystroke	s	n/a
568.5565	0.12	1137113	keystroke	s	n/a
568.7815	0.105	1137563	keystroke	m	n/a
568.9015	0.12	1137803	keystroke	e	n/a
569.0665	0.1055	1138133	keystroke	n	n/a
569.231	0.1055	1138462	keystroke	t	n/a
569.3955	0.1205	1138791	keystroke	Key.space	n/a
569.621	0.135	1139242	keystroke	c	n/a
569.771	0.12	1139542	keystroke	h	n/a
569.921	0.165	1139842	keystroke	a	n/a
570.117	0.09	1140234	keystroke	r	n/a
570.297	0.1045	1140594	keystroke	i	n/a
570.5965	0.015	1141193	keystroke	t	n/a
570.686	0.1505	1141372	keystroke	a	n/a
571.5565	0.045	1143113	keystroke	n	n/a
572.0215	0.0895	1144043	keystroke	Key.backspace	n/a
572.1415	0.12	1144283	keystroke	b	n/a
572.3965	0.09	1144793	keystroke	l	n/a
572.621	0.0905	1145242	keystroke	e	n/a
572.7865	0.12	1145573	keystroke	Key.space	n/a
573.2215	0.135	1146443	keystroke	c	n/a
573.5525	0.119	1147105	keystroke	l	n/a
573.6865	0.134	1147373	keystroke	a	n/a
573.837	0.1045	1147674	keystroke	i	n/a
574.4065	0.075	1148813	keystroke	m	n/a
574.587	0.1795	1149174	keystroke	e	n/a
574.8715	0.135	1149743	keystroke	d	n/a
575.1265	0.134	1150253	keystroke	Key.space	n/a
575.3815	0.165	1150763	keystroke	d	n/a
575.5765	0.1945	1151153	keystroke	e	n/a
575.7415	0.12	1151483	keystroke	s	n/a
575.9965	0.09	1151993	keystroke	t	n/a
576.1465	0.0595	1152293	keystroke	i	n/a
576.2965	0.135	1152593	keystroke	n	n/a
576.4765	0.15	1152953	keystroke	y	n/a
576.8965	0.1045	1153793	keystroke	Key.enter	n/a
577.008	11.5155	1154016	prompt	n/a	lips ecommerce loads brake\n
577.572	0.1495	1155144	keystroke	l	n/a
577.8265	0.12	1155653	keystroke	i	n/a
578.051	0.09	1156102	keystroke	p	n/a
578.216	0.12	1156432	keystroke	s	n/a
578.366	0.1505	1156732	keystroke	Key.space	n/a
578.8755	0.0755	1157751	keystroke	e	n/a
579.237	0.149	1158474	keystroke	c	n/a
579.5215	0.045	1159043	keystroke	o	n/a
579.8965	0.089	1159793	keystroke	m	n/a
580.092	0.0745	1160184	keystroke	m	n/a
580.211	0.1955	1160422	keystroke	e	n/a
580.3615	0.165	1160723	keystroke	r	n/a
580.6005	0.151	1161201	keystroke	s	n/a
581.0365	0.09	1162073	keystroke	Key.backspace	n/a
581.187	0.1045	1162374	keystroke	c	n/a
581.4715	0.119	1162943	keystroke	e	n/a
581.6665	0.105	1163333	keystroke	Key.space	n/a
581.981	0.09	1163962	keystroke	l	n/a
582.1315	0.09	1164263	keystroke	o	n/a
582.2515	0.1795	1164503	keystroke	a	n/a
582.432	0.164	1164864	keystroke	d	n/a
582.6115	0.1195	1165223	keystroke	s	n/a
582.851	0.09	1165702	keystroke	Key.space	n/a
583.4365	0.0895	1166873	keystroke	n	n/a
583.961	0.1055	1167922	keystroke	Key.backspace	n/a
584.3065	0.06	1168613	keystroke	b	n/a
584.4265	0.18	1168853	keystroke	r	n/a
584.5615	0.09	1169123	keystroke	e	n/a
584.7115	0.1045	1169423	keystroke	a	n/a
584.8765	0.09	1169753	keystroke	k	n/a
586.196	0.1195	1172392	keystroke	Key.backspace	n/a
586.421	0.075	1172842	keystroke	Key.backspace	n/a
586.676	0.075	1173352	keystroke	Key.backspace	n/a
587.171	0.1805	1174342	keystroke	a	n/a
587.9515	0.0445	1175903	keystroke	k	n/a
588.026	0.1205	1176052	keystroke	e	n/a
588.476	0.0455	1176952	keystroke	Key.enter	n/a
588.5305	11.6325	1177061	prompt	n/a	girls raleigh booty challenges\n
591.1795	0.027	1182359	keystroke	g	n/a
591.266	0.0755	1182532	keystroke	i	n/a
591.417	0.1195	1182834	keystroke	r	n/a
592.0765	0.165	1184153	keystroke	l	n/a
592.2265	0.135	1184453	keystroke	s	n/a
592.3465	0.12	1184693	keystroke	Key.space	n/a
592.6315	0.1045	1185263	keystroke	r	n/a
592.7965	0.1345	1185593	keystroke	a	n/a
592.962	0.1045	1185924	keystroke	l	n/a
593.1865	0.075	1186373	keystroke	e	n/a
594.2665	0.105	1188533	keystroke	i	n/a
594.416	0.1205	1188832	keystroke	g	n/a
594.5815	0.1195	1189163	keystroke	h	n/a
594.7765	0.0895	1189553	keystroke	Key.space	n/a
595.0165	0.075	1190033	keystroke	b	n/a
595.2265	0.0895	1190453	keystroke	o	n/a
595.4065	0.105	1190813	keystroke	o	n/a
595.571	0.12	1191142	keystroke	t	n/a
595.917	0.1195	1191834	keystroke	y	n/a
596.201	0.075	1192402	keystroke	Key.space	n/a
596.5915	0.18	1193183	keystroke	c	n/a
596.6965	0.134	1193393	keystroke	h	n/a
596.8915	0.105	1193783	keystroke	a	n/a
597.056	0.0905	1194112	keystroke	l	n/a
597.2515	0.0605	1194503	keystroke	l	n/a
597.386	0.135	1194772	keystroke	a	n/a
597.9565	0.1045	1195913	keystroke	Key.backspace	n/a
598.1365	0.075	1196273	keystroke	e	n/a
598.331	0.09	1196662	keystroke	n	n/a
598.601	0.12	1197202	keystroke	g	n/a
598.7365	0.165	1197473	keystroke	e	n/a
598.886	0.1505	1197772	keystroke	d	n/a
599.591	0.09	1199182	keystroke	Key.backspace	n/a
599.7865	0.12	1199573	keystroke	s	n/a
600.0265	0.135	1200053	keystroke	Key.enter	n/a
600.168	13.27	1200336	prompt	n/a	instantly threatening bacteria cayman\n
600.8665	0.09	1201733	keystroke	i	n/a
601.0915	0.06	1202183	keystroke	n	n/a
601.2115	0.135	1202423	keystroke	s	n/a
601.3765	0.105	1202753	keystroke	t	n/a
601.541	0.15	1203082	keystroke	a	n/a
601.9765	0.0905	1203953	keystroke	n	n/a
602.1865	0.0895	1204373	keystroke	t	n/a
602.367	0.1045	1204734	keystroke	l	n/a
602.741	0.105	1205482	keystroke	y	n/a
603.071	0.09	1206142	keystroke	Key.space	n/a
603.3115	0.12	1206623	keystroke	t	n/a
603.462	0.1195	1206924	keystroke	h	n/a
603.7465	0.1795	1207493	keystroke	e	n/a
603.9565	0.1195	1207913	keystroke	a	n/a
604.271	0.09	1208542	keystroke	Key.backspace	n/a
604.4365	0.09	1208873	keystroke	Key.backspace	n/a
604.5565	0.195	1209113	keystroke	r	n/a
604.7215	0.15	1209443	keystroke	e	n/a
604.8565	0.18	1209713	keystroke	a	n/a
605.096	0.1205	1210192	keystroke	t	n/a
605.3665	0.12	1210733	keystroke	e	n/a
605.561	0.105	1211122	keystroke	n	n/a
605.801	0.0905	1211602	keystroke	i	n/a
606.011	0.091	1212022	keystroke	n	n/a
606.191	0.1055	1212382	keystroke	g	n/a
606.371	0.1055	1212742	keystroke	Key.space	n/a
606.7905	0.0755	1213581	keystroke	b	n/a
607.1815	0.1345	1214363	keystroke	a	n/a
607.6615	0.12	1215323	keystroke	x	n/a
608.1415	0.12	1216283	keystroke	Key.backspace	n/a
608.322	0.134	1216644	keystroke	c	n/a
609.0115	0.1045	1218023	keystroke	t	n/a
609.5365	0.1055	1219073	keystroke	e	n/a
609.5965	0.12	1219193	keystroke	r	n/a
609.7765	0.12	1219553	keystroke	i	n/a
609.9115	0.1655	1219823	keystroke	a	n/a
610.1655	0.121	1220331	keystroke	Key.space	n/a
611.6815	0.1045	1223363	keystroke	c	n/a
611.951	0.12	1223902	keystroke	a	n/a
612.1315	0.0745	1224263	keystroke	y	n/a
612.5965	0.105	1225193	keystroke	m	n/a
612.8215	0.1495	1225643	keystroke	a	n/a
613.046	0.0605	1226092	keystroke	n	n/a
613.316	0.12	1226632	keystroke	Key.enter	n/a
613.4415	6.0115	1226883	prompt	n/a	floral makeup dvds points\n
614.127	0.089	1228254	keystroke	f	n/a
614.2465	0.0905	1228493	keystroke	l	n/a
614.4265	0.1045	1228853	keystroke	o	n/a
614.5615	0.1205	1229123	keystroke	r	n/a
614.831	0.1655	1229662	keystroke	a	n/a
615.0265	0.105	1230053	keystroke	l	n/a
615.2365	0.075	1230473	keystroke	Key.space	n/a
615.431	0.075	1230862	keystroke	m	n/a
615.521	0.15	1231042	keystroke	a	n/a
615.6865	0.105	1231373	keystroke	k	n/a
615.8365	0.0895	1231673	keystroke	e	n/a
616.031	0.09	1232062	keystroke	u	n/a
616.2415	0.135	1232483	keystroke	p	n/a
616.406	0.1045	1232812	keystroke	Key.space	n/a
616.9465	0.1055	1233893	keystroke	d	n/a
617.171	0.1505	1234342	keystroke	v	n/a
617.4565	0.0895	1234913	keystroke	d	n/a
617.6965	0.135	1235393	keystroke	s	n/a
617.8615	0.12	1235723	keystroke	Key.space	n/a
618.1165	0.1205	1236233	keystroke	p	n/a
618.3115	0.089	1236623	keystroke	o	n/a
618.5655	0.076	1237131	keystroke	i	n/a
618.7605	0.091	1237521	keystroke	n	n/a
618.8665	0.0745	1237733	keystroke	t	n/a
619.0615	0.12	1238123	keystroke	s	n/a
619.286	0.1655	1238572	keystroke	Key.enter	n/a
619.457	10.616	1238914	prompt	n/a	correspondence babies tomorrow sector\n
620.156	0.0905	1240312	keystroke	c	n/a
620.3515	0.09	1240703	keystroke	o	n/a
620.5465	0.09	1241093	keystroke	r	n/a
620.7565	0.1345	1241513	keystroke	r	n/a
620.906	0.136	1241812	keystroke	e	n/a
621.5815	0.135	1243163	keystroke	s	n/a
621.8065	0.119	1243613	keystroke	p	n/a
621.9705	0.106	1243941	keystroke	o	n/a
622.3005	0.09	1244601	keystroke	n	n/a
622.7215	0.09	1245443	keystroke	e	n/a
623.0965	0.105	1246193	keystroke	Key.backspace	n/a
623.2615	0.12	1246523	keystroke	d	n/a
623.3965	0.12	1246793	keystroke	e	n/a
623.6065	0.0895	1247213	keystroke	n	n/a
623.8015	0.105	1247603	keystroke	c	n/a
624.056	0.136	1248112	keystroke	e	n/a
624.281	0.1055	1248562	keystroke	Key.space	n/a
624.7455	0.1055	1249491	keystroke	a	n/a
625.121	0.105	1250242	keystroke	Key.backspace	n/a
625.4065	0.09	1250813	keystroke	b	n/a
625.512	0.1635	1251024	keystroke	a	n/a
625.617	0.0745	1251234	keystroke	b	n/a
625.841	0.0905	1251682	keystroke	i	n/a
625.9765	0.194	1251953	keystroke	e	n/a
626.1265	0.165	1252253	keystroke	s	n/a
626.3205	0.1055	1252641	keystroke	Key.space	n/a
626.5315	0.09	1253063	keystroke	t	n/a
626.6505	0.106	1253301	keystroke	o	n/a
626.891	0.075	1253782	keystroke	m	n/a
627.0415	0.1045	1254083	keystroke	o	n/a
627.1915	0.09	1254383	keystroke	r	n/a
627.3865	0.0895	1254773	keystroke	r	n/a
627.566	0.1055	1255132	keystroke	o	n/a
627.7315	0.105	1255463	keystroke	w	n/a
627.9115	0.089	1255823	keystroke	Key.space	n/a
628.1365	0.149	1256273	keystroke	s	n/a
628.767	0.074	1257534	keystroke	e	n/a
629.0055	0.106	1258011	keystroke	c	n/a
629.3515	0.105	1258703	keystroke	t	n/a
629.501	0.105	1259002	keystroke	o	n/a
629.6515	0.0895	1259303	keystroke	r	n/a
629.9515	0.12	1259903	keystroke	Key.enter	n/a
630.078	13.585	1260156	prompt	n/a	approx roles processor anymore\n
630.7315	0.1645	1261463	keystroke	a	n/a
630.941	0.0455	1261882	keystroke	p	n/a
631.1065	0.0905	1262213	keystroke	p	n/a
631.3315	0.075	1262663	keystroke	r	n/a
631.5415	0.104	1263083	keystroke	o	n/a
632.0365	0.105	1264073	keystroke	x	n/a
632.261	0.1205	1264522	keystroke	Key.space	n/a
632.6965	0.0895	1265393	keystroke	r	n/a
632.8315	0.089	1265663	keystroke	o	n/a
633.041	0.075	1266082	keystroke	l	n/a
633.1765	0.21	1266353	keystroke	e	n/a
633.3715	0.135	1266743	keystroke	d	n/a
633.6565	0.075	1267313	keystroke	Key.space	n/a
633.8515	0.09	1267703	keystroke	p	n/a
634.0915	0.12	1268183	keystroke	r	n/a
634.556	0.09	1269112	keystroke	Key.backspace	n/a
634.7515	0.0895	1269503	keystroke	Key.backspace	n/a
634.9465	0.105	1269893	keystroke	Key.backspace	n/a
635.2615	0.09	1270523	keystroke	Key.backspace	n/a
635.4565	0.09	1270913	keystroke	s	n/a
635.726	0.105	1271452	keystroke	Key.space	n/a
636.3265	0.1195	1272653	keystroke	p	n/a
636.567	0.1045	1273134	keystroke	r	n/a
636.776	0.105	1273552	keystroke	o	n/a
637.226	0.1505	1274452	keystroke	f	n/a
638.531	0.12	1277062	keystroke	Key.backspace	n/a
638.7715	0.105	1277543	keystroke	c	n/a
639.191	0.1205	1278382	keystroke	e	n/a
639.461	0.1505	1278922	keystroke	s	n/a
639.761	0.105	1279522	keystroke	s	n/a
640.002	0.105	1280004	keystroke	o	n/a
640.4805	0.1215	1280961	keystroke	r	n/a
640.826	0.1055	1281652	keystroke	Key.space	n/a
641.1265	0.15	1282253	keystroke	a	n/a
641.3205	0.076	1282641	keystroke	n	n/a
642.131	0.075	1284262	keystroke	y	n/a
642.386	0.0745	1284772	keystroke	m	n/a
642.5365	0.105	1285073	keystroke	o	n/a
642.627	0.1795	1285254	keystroke	r	n/a
642.7605	0.151	1285521	keystroke	e	n/a
643.5565	0.1045	1287113	keystroke	Key.enter	n/a
643.668	7.765	1287336	prompt	n/a	mats mens chinese replacement\n
644.366	0.121	1288732	keystroke	m	n/a
644.502	0.224	1289004	keystroke	a	n/a
644.7115	0.0895	1289423	keystroke	t	n/a
645.0415	0.1205	1290083	keystroke	s	n/a
645.2815	0.1045	1290563	keystroke	Key.space	n/a
645.522	0.105	1291044	keystroke	m	n/a
645.612	0.135	1291224	keystroke	e	n/a
645.7915	0.119	1291583	keystroke	n	n/a
645.9415	0.104	1291883	keystroke	t	n/a
646.646	0.075	1293292	keystroke	Key.backspace	n/a
647.0365	0.12	1294073	keystroke	s	n/a
647.2015	0.1195	1294403	keystroke	Key.space	n/a
647.5015	0.1045	1295003	keystroke	c	n/a
647.697	0.06	1295394	keystroke	h	n/a
647.876	0.0755	1295752	keystroke	i	n/a
648.086	0.0755	1296172	keystroke	n	n/a
648.2215	0.18	1296443	keystroke	e	n/a
648.4465	0.225	1296893	keystroke	s	n/a
648.6865	0.1355	1297373	keystroke	e	n/a
648.9405	0.0905	1297881	keystroke	Key.space	n/a
649.136	0.136	1298272	keystroke	r	n/a
649.287	0.1495	1298574	keystroke	e	n/a
649.5565	0.0905	1299113	keystroke	p	n/a
649.7665	0.0895	1299533	keystroke	l	n/a
649.886	0.1205	1299772	keystroke	a	n/a
650.171	0.1505	1300342	keystroke	c	n/a
650.4405	0.121	1300881	keystroke	e	n/a
650.696	0.0295	1301392	keystroke	m	n/a
650.7715	0.135	1301543	keystroke	e	n/a
650.9215	0.089	1301843	keystroke	n	n/a
651.0715	0.12	1302143	keystroke	t	n/a
651.3415	0.09	1302683	keystroke	Key.enter	n/a
651.438	8.89	1302876	prompt	n/a	assume claim credits makers\n
651.9715	0.1345	1303943	keystroke	a	n/a
652.1365	0.119	1304273	keystroke	s	n/a
652.3615	0.15	1304723	keystroke	s	n/a
652.496	0.0895	1304992	keystroke	u	n/a
652.7665	0.09	1305533	keystroke	m	n/a
652.8265	0.1795	1305653	keystroke	e	n/a
652.976	0.1055	1305952	keystroke	r	n/a
653.096	0.12	1306192	keystroke	Key.space	n/a
653.396	0.075	1306792	keystroke	c	n/a
653.711	0.09	1307422	keystroke	Key.backspace	n/a
653.891	0.09	1307782	keystroke	Key.backspace	n/a
654.251	0.0605	1308502	keystroke	Key.backspace	n/a
654.536	0.105	1309072	keystroke	Key.space	n/a
655.0015	0.119	1310003	keystroke	c	n/a
655.7515	0.165	1311503	keystroke	l	n/a
655.9305	0.106	1311861	keystroke	a	n/a
656.067	0.1195	1312134	keystroke	i	n/a
656.4705	0.106	1312941	keystroke	m	n/a
656.6505	0.105	1313301	keystroke	Key.space	n/a
656.8765	0.0895	1313753	keystroke	c	n/a
657.191	0.1355	1314382	keystroke	r	n/a
657.3415	0.15	1314683	keystroke	e	n/a
657.5515	0.09	1315103	keystroke	d	n/a
657.6865	0.09	1315373	keystroke	i	n/a
657.8515	0.12	1315703	keystroke	t	n/a
658.2855	0.121	1316571	keystroke	s	n/a
658.5855	0.106	1317171	keystroke	Key.space	n/a
658.8865	0.105	1317773	keystroke	m	n/a
659.0665	0.164	1318133	keystroke	a	n/a
659.262	0.12	1318524	keystroke	k	n/a
659.576	0.1655	1319152	keystroke	e	n/a
659.7265	0.135	1319453	keystroke	r	n/a
659.9065	0.1355	1319813	keystroke	s	n/a
660.206	0.1195	1320412	keystroke	Key.enter	n/a
660.3325	10.7805	1320665	prompt	n/a	advocate am phoenix flat\n
660.8205	0.166	1321641	keystroke	a	n/a
661.4965	0.105	1322993	keystroke	d	n/a
662.1415	0.15	1324283	keystroke	v	n/a
662.8015	0.075	1325603	keystroke	o	n/a
663.6415	0.1355	1327283	keystroke	v	n/a
664.091	0.1205	1328182	keystroke	Key.backspace	n/a
664.241	0.1655	1328482	keystroke	c	n/a
664.5105	0.1665	1329021	keystroke	a	n/a
664.8405	0.106	1329681	keystroke	t	n/a
665.0815	0.1355	1330163	keystroke	e	n/a
665.486	0.12	1330972	keystroke	Key.space	n/a
665.8165	0.135	1331633	keystroke	a	n/a
665.9965	0.12	1331993	keystroke	m	n/a
666.1915	0.0745	1332383	keystroke	Key.space	n/a
666.3865	0.0895	1332773	keystroke	p	n/a
666.7165	0.045	1333433	keystroke	h	n/a
667.031	0.1205	1334062	keystroke	o	n/a
667.3465	0.0905	1334693	keystroke	e	n/a
667.6015	0.075	1335203	keystroke	n	n/a
667.7965	0.15	1335593	keystroke	i	n/a
668.1415	0.09	1336283	keystroke	x	n/a
668.6805	0.106	1337361	keystroke	Key.space	n/a
669.2665	0.1055	1338533	keystroke	f	n/a
669.4765	0.1195	1338953	keystroke	l	n/a
669.6415	0.1045	1339283	keystroke	a	n/a
669.9265	0.105	1339853	keystroke	y	n/a
670.4665	0.075	1340933	keystroke	Key.backspace	n/a
670.6615	0.1195	1341323	keystroke	t	n/a
671.0055	0.105	1342011	keystroke	Key.enter	n/a
671.1175	10.3155	1342235	prompt	n/a	breakfast agriculture technologies greater\n
671.9065	0.105	1343813	keystroke	b	n/a
672.041	0.18	1344082	keystroke	r	n/a
672.176	0.18	1344352	keystroke	e	n/a
672.326	0.1495	1344652	keystroke	a	n/a
672.5205	0.106	1345041	keystroke	k	n/a
672.732	0.1635	1345464	keystroke	f	n/a
672.9105	0.255	1345821	keystroke	a	n/a
673.106	0.1345	1346212	keystroke	s	n/a
673.3605	0.135	1346721	keystroke	t	n/a
673.556	0.0905	1347112	keystroke	Key.space	n/a
673.7965	0.1195	1347593	keystroke	a	n/a
674.2765	0.12	1348553	keystroke	g	n/a
675.3565	0.089	1350713	keystroke	r	n/a
675.6115	0.09	1351223	keystroke	i	n/a
675.9265	0.105	1351853	keystroke	c	n/a
676.1515	0.06	1352303	keystroke	u	n/a
676.3465	0.075	1352693	keystroke	l	n/a
676.6455	0.075	1353291	keystroke	t	n/a
676.8265	0.105	1353653	keystroke	u	n/a
677.0805	0.121	1354161	keystroke	r	n/a
677.3215	0.09	1354643	keystroke	e	n/a
677.5155	0.0905	1355031	keystroke	Key.space	n/a
677.7865	0.09	1355573	keystroke	t	n/a
677.9365	0.09	1355873	keystroke	e	n/a
678.1315	0.12	1356263	keystroke	c	n/a
678.2665	0.06	1356533	keystroke	h	n/a
678.4465	0.09	1356893	keystroke	n	n/a
678.6405	0.09	1357281	keystroke	o	n/a
678.8365	0.09	1357673	keystroke	l	n/a
679.0765	0.09	1358153	keystroke	o	n/a
679.226	0.105	1358452	keystroke	g	n/a
679.3765	0.0445	1358753	keystroke	i	n/a
679.5415	0.164	1359083	keystroke	e	n/a
679.691	0.165	1359382	keystroke	s	n/a
679.9615	0.1045	1359923	keystroke	Key.space	n/a
680.2315	0.09	1360463	keystroke	g	n/a
680.3365	0.181	1360673	keystroke	r	n/a
680.4865	0.12	1360973	keystroke	e	n/a
680.5465	0.15	1361093	keystroke	a	n/a
680.7115	0.09	1361423	keystroke	t	n/a
680.8015	0.165	1361603	keystroke	e	n/a
680.9515	0.12	1361903	keystroke	r	n/a
681.3415	0.0895	1362683	keystroke	Key.enter	n/a
681.4375	8.5005	1362875	prompt	n/a	hang satisfaction blocked scoop\n
682.092	0.089	1364184	keystroke	h	n/a
682.2115	0.1645	1364423	keystroke	a	n/a
682.3465	0.0905	1364693	keystroke	n	n/a
682.5265	0.1195	1365053	keystroke	g	n/a
682.706	0.12	1365412	keystroke	Key.space	n/a
683.0665	0.18	1366133	keystroke	s	n/a
683.3065	0.18	1366613	keystroke	a	n/a
683.5465	0.105	1367093	keystroke	t	n/a
683.7565	0.12	1367513	keystroke	i	n/a
684.0565	0.0895	1368113	keystroke	s	n/a
