onset	duration	sample	value	key	prompt_text
6.998	15.5955	13996	prompt	n/a	the quick brown fox jumps over a lazy dog\n
8.6875	0.073	17375	keystroke_t	t	n/a
8.776	0.0595	17552	keystroke_h	h	n/a
8.9555	0.1505	17911	keystroke_e	e	n/a
9.166	0.1345	18332	keystroke_Key.space	Key.space	n/a
9.555	0.1345	19110	keystroke_q	q	n/a
9.7055	0.09	19411	keystroke_u	u	n/a
9.9455	0.06	19891	keystroke_i	i	n/a
10.1405	0.135	20281	keystroke_c	c	n/a
10.2905	0.1945	20581	keystroke_k	k	n/a
10.4255	0.15	20851	keystroke_Key.space	Key.space	n/a
10.711	0.09	21422	keystroke_b	b	n/a
11.0255	0.12	22051	keystroke_r	r	n/a
11.1305	0.1045	22261	keystroke_i	i	n/a
11.34	0.151	22680	keystroke_w	w	n/a
11.596	0.1495	23192	keystroke_Key.space	Key.space	n/a
12.4505	0.0595	24901	keystroke_Key.backspace	Key.backspace	n/a
12.795	0.0755	25590	keystroke_Key.backspace	Key.backspace	n/a
13.0205	0.06	26041	keystroke_Key.backspace	Key.backspace	n/a
14.0105	0.1495	28021	keystroke_o	o	n/a
14.5205	0.12	29041	keystroke_w	w	n/a
14.716	0.2395	29432	keystroke_n	n	n/a
14.9105	0.15	29821	keystroke_Key.space	Key.space	n/a
15.1505	0.12	30301	keystroke_f	f	n/a
16.246	0.1045	32492	keystroke_o	o	n/a
16.4555	0.1195	32911	keystroke_x	x	n/a
16.59	0.1205	33180	keystroke_Key.space	Key.space	n/a
16.816	0.1045	33632	keystroke_j	j	n/a
17.0705	0.06	34141	keystroke_u	u	n/a
17.3255	0.1045	34651	keystroke_m	m	n/a
18.075	0.1055	36150	keystroke_p	p	n/a
18.2855	0.1355	36571	keystroke_s	s	n/a
18.376	0.1345	36752	keystroke_Key.space	Key.space	n/a
18.5555	0.15	37111	keystroke_o	o	n/a
18.781	0.1795	37562	keystroke_v	v	n/a
19.066	0.1655	38132	keystroke_e	e	n/a
19.216	0.1495	38432	keystroke_r	r	n/a
19.3805	0.135	38761	keystroke_Key.space	Key.space	n/a
19.531	0.1645	39062	keystroke_a	a	n/a
19.6505	0.105	39301	keystroke_Key.space	Key.space	n/a
19.8005	0.12	39601	keystroke_l	l	n/a
19.9805	0.105	39961	keystroke_a	a	n/a
20.2505	0.1495	40501	keystroke_z	z	n/a
20.4455	0.09	40891	keystroke_y	y	n/a
20.6555	0.105	41311	keystroke_Key.space	Key.space	n/a
20.851	0.225	41702	keystroke_d	d	n/a
20.986	0.0745	41972	keystroke_o	o	n/a
21.316	0.09	42632	keystroke_g	g	n/a
22.516	0.0745	45032	keystroke_Key.enter	Key.enter	n/a
22.5985	8.365	45197	prompt	n/a	deeply years conditions chicken\n
23.2955	0.105	46591	keystroke_d	d	n/a
23.566	0.075	47132	keystroke_e	e	n/a
23.761	0.075	47522	keystroke_e	e	n/a
24.376	0.12	48752	keystroke_p	p	n/a
24.646	0.12	49292	keystroke_l	l	n/a
24.9905	0.0605	49981	keystroke_y	y	n/a
25.1705	0.12	50341	keystroke_Key.space	Key.space	n/a
25.4105	0.0905	50821	keystroke_y	y	n/a
25.5305	0.12	51061	keystroke_e	e	n/a
25.7405	0.18	51481	keystroke_a	a	n/a
25.8905	0.1055	51781	keystroke_r	r	n/a
26.1305	0.18	52261	keystroke_s	s	n/a
26.2355	0.12	52471	keystroke_Key.space	Key.space	n/a
26.4905	0.195	52981	keystroke_c	c	n/a
26.6405	0.09	53281	keystroke_o	o	n/a
26.8215	0.089	53643	keystroke_n	n	n/a
27.0905	0.135	54181	keystroke_d	d	n/a
27.271	0.045	54542	keystroke_i	i	n/a
27.661	0.12	55322	keystroke_t	t	n/a
27.766	0.105	55532	keystroke_i	i	n/a
27.886	0.135	55772	keystroke_o	o	n/a
27.991	0.105	55982	keystroke_n	n	n/a
28.156	0.195	56312	keystroke_s	s	n/a
28.306	0.12	56612	keystroke_Key.space	Key.space	n/a
28.651	0.18	57302	keystroke_c	c	n/a
28.846	0.09	57692	keystroke_h	h	n/a
29.071	0.0905	58142	keystroke_i	i	n/a
29.251	0.165	58502	keystroke_c	c	n/a
29.4	0.105	58800	keystroke_k	k	n/a
29.656	0.119	59312	keystroke_e	e	n/a
29.7315	0.0895	59463	keystroke_n	n	n/a
30.886	0.0745	61772	keystroke_Key.enter	Key.enter	n/a
30.9685	8.544	61937	prompt	n/a	carl bhutan transferred iraq\n
31.7255	0.18	63451	keystroke_c	c	n/a
32.1905	0.1655	64381	keystroke_a	a	n/a
32.4315	0.1195	64863	keystroke_r	r	n/a
32.626	0.105	65252	keystroke_l	l	n/a
32.85	0.1505	65700	keystroke_Key.space	Key.space	n/a
33.21	0.0615	66420	keystroke_b	b	n/a
33.436	0.075	66872	keystroke_h	h	n/a
33.676	0.09	67352	keystroke_u	u	n/a
34.035	0.091	68070	keystroke_t	t	n/a
34.2305	0.15	68461	keystroke_a	a	n/a
34.3665	0.12	68733	keystroke_n	n	n/a
34.621	0.105	69242	keystroke_Key.space	Key.space	n/a
35.026	0.06	70052	keystroke_t	t	n/a
35.236	0.09	70472	keystroke_r	r	n/a
35.401	0.15	70802	keystroke_a	a	n/a
35.566	0.0455	71132	keystroke_n	n	n/a
35.776	0.09	71552	keystroke_s	s	n/a
36.001	0.18	72002	keystroke_f	f	n/a
36.226	0.21	72452	keystroke_e	e	n/a
36.451	0.0895	72902	keystroke_r	r	n/a
36.646	0.1195	73292	keystroke_r	r	n/a
36.7505	0.121	73501	keystroke_e	e	n/a
37.0215	0.135	74043	keystroke_d	d	n/a
37.1105	0.1495	74221	keystroke_Key.space	Key.space	n/a
37.441	0.075	74882	keystroke_i	i	n/a
37.6665	0.1045	75333	keystroke_r	r	n/a
37.816	0.135	75632	keystroke_a	a	n/a
38.4455	0.09	76891	keystroke_q	q	n/a
39.436	0.075	78872	keystroke_Key.enter	Key.enter	n/a
39.518	12.88	79036	prompt	n/a	certain fishing vocals oldest\n
40.2155	0.136	80431	keystroke_c	c	n/a
40.5915	0.2095	81183	keystroke_e	e	n/a
41.071	0.105	82142	keystroke_t	t	n/a
42.21	0.1805	84420	keystroke_Key.backspace	Key.backspace	n/a
42.451	0.0755	84902	keystroke_r	r	n/a
42.6915	0.0895	85383	keystroke_t	t	n/a
42.901	0.15	85802	keystroke_a	a	n/a
42.976	0.09	85952	keystroke_i	i	n/a
43.201	0.21	86402	keystroke_n	n	n/a
43.336	0.18	86672	keystroke_Key.space	Key.space	n/a
43.5465	0.089	87093	keystroke_f	f	n/a
43.6365	0.1045	87273	keystroke_i	i	n/a
43.816	0.15	87632	keystroke_s	s	n/a
43.996	0.0745	87992	keystroke_h	h	n/a
44.2055	0.075	88411	keystroke_i	i	n/a
44.371	0.1045	88742	keystroke_n	n	n/a
44.611	0.09	89222	keystroke_g	g	n/a
44.791	0.135	89582	keystroke_Key.space	Key.space	n/a
45.031	0.0595	90062	keystroke_c	c	n/a
45.946	0.0895	91892	keystroke_Key.backspace	Key.backspace	n/a
46.366	0.135	92732	keystroke_v	v	n/a
46.5305	0.1205	93061	keystroke_o	o	n/a
46.756	0.1505	93512	keystroke_c	c	n/a
46.9815	0.12	93963	keystroke_a	a	n/a
47.086	0.12	94172	keystroke_l	l	n/a
47.311	0.15	94622	keystroke_s	s	n/a
47.401	0.12	94802	keystroke_Key.space	Key.space	n/a
47.656	0.045	95312	keystroke_o	o	n/a
47.911	0.1205	95822	keystroke_l	l	n/a
48.1215	0.075	96243	keystroke_d	d	n/a
48.736	0.225	97472	keystroke_e	e	n/a
48.9615	0.1045	97923	keystroke_r	r	n/a
49.2465	0.1345	98493	keystroke_s	s	n/a
50.041	0.06	100082	keystroke_Key.backspace	Key.backspace	n/a
50.221	0.105	100442	keystroke_Key.backspace	Key.backspace	n/a
50.4605	0.1955	100921	keystroke_s	s	n/a
50.776	0.075	101552	keystroke_t	t	n/a
52.3365	0.059	104673	keystroke_Key.enter	Key.enter	n/a
52.4025	7.901	104805	prompt	n/a	civil drinks latex plastic\n
53.176	0.15	106352	keystroke_c	c	n/a
54.2265	0.0895	108453	keystroke_i	i	n/a
54.4665	0.1795	108933	keystroke_v	v	n/a
54.661	0.045	109322	keystroke_i	i	n/a
54.901	0.24	109802	keystroke_l	l	n/a
55.096	0.165	110192	keystroke_Key.space	Key.space	n/a
55.366	0.21	110732	keystroke_d	d	n/a
55.726	0.1045	111452	keystroke_r	r	n/a
55.8465	0.059	111693	keystroke_i	i	n/a
56.026	0.09	112052	keystroke_n	n	n/a
56.266	0.0605	112532	keystroke_k	k	n/a
56.386	0.135	112772	keystroke_s	s	n/a
56.536	0.12	113072	keystroke_Key.space	Key.space	n/a
56.716	0.1345	113432	keystroke_l	l	n/a
56.8515	0.135	113703	keystroke_a	a	n/a
57.1365	0.104	114273	keystroke_t	t	n/a
57.4505	0.1205	114901	keystroke_e	e	n/a
57.811	0.15	115622	keystroke_x	x	n/a
58.126	0.15	116252	keystroke_Key.space	Key.space	n/a
58.7715	0.12	117543	keystroke_p	p	n/a
59.026	0.1505	118052	keystroke_l	l	n/a
59.1315	0.105	118263	keystroke_a	a	n/a
59.311	0.1505	118622	keystroke_s	s	n/a
59.611	0.075	119222	keystroke_t	t	n/a
59.671	0.09	119342	keystroke_i	i	n/a
59.9255	0.1205	119851	keystroke_c	c	n/a
60.241	0.06	120482	keystroke_Key.enter	Key.enter	n/a
60.308	6.655	120616	prompt	n/a	trader nasty seeds nepal\n
61.096	0.0595	122192	keystroke_t	t	n/a
61.291	0.105	122582	keystroke_r	r	n/a
61.4115	0.1195	122823	keystroke_a	a	n/a
61.666	0.1055	123332	keystroke_d	d	n/a
62.1465	0.165	124293	keystroke_e	e	n/a
62.371	0.12	124742	keystroke_r	r	n/a
62.551	0.12	125102	keystroke_Key.space	Key.space	n/a
62.746	0.1205	125492	keystroke_n	n	n/a
62.8505	0.165	125701	keystroke_a	a	n/a
63.0305	0.15	126061	keystroke_s	s	n/a
63.361	0.1195	126722	keystroke_t	t	n/a
63.466	0.0745	126932	keystroke_y	y	n/a
63.676	0.12	127352	keystroke_Key.space	Key.space	n/a
63.841	0.1055	127682	keystroke_s	s	n/a
64.066	0.075	128132	keystroke_e	e	n/a
64.261	0.075	128522	keystroke_e	e	n/a
64.486	0.1055	128972	keystroke_d	d	n/a
64.6815	0.1645	129363	keystroke_s	s	n/a
64.8605	0.105	129721	keystroke_Key.space	Key.space	n/a
65.4605	0.106	130921	keystroke_n	n	n/a
65.701	0.105	131402	keystroke_e	e	n/a
66.1515	0.1645	132303	keystroke_p	p	n/a
66.391	0.165	132782	keystroke_a	a	n/a
66.5415	0.1045	133083	keystroke_l	l	n/a
66.886	0.0745	133772	keystroke_Key.enter	Key.enter	n/a
66.9685	11.2	133937	prompt	n/a	threats rainbow operated rica\n
67.801	0.105	135602	keystroke_t	t	n/a
67.921	0.075	135842	keystroke_h	h	n/a
68.086	0.1355	136172	keystroke_r	r	n/a
68.161	0.1505	136322	keystroke_e	e	n/a
68.386	0.2095	136772	keystroke_a	a	n/a
68.7615	0.074	137523	keystroke_t	t	n/a
69.0155	0.151	138031	keystroke_s	s	n/a
69.3905	0.1655	138781	keystroke_Key.space	Key.space	n/a
69.781	0.1795	139562	keystroke_r	r	n/a
70.1115	0.209	140223	keystroke_a	a	n/a
70.3065	0.0295	140613	keystroke_i	i	n/a
70.4855	0.1055	140971	keystroke_n	n	n/a
71.386	0.1055	142772	keystroke_b	b	n/a
71.5355	0.091	143071	keystroke_o	o	n/a
71.8065	0.15	143613	keystroke_s	s	n/a
72.0455	0.15	144091	keystroke_Key.space	Key.space	n/a
72.5105	0.0905	145021	keystroke_o	o	n/a
72.751	0.12	145502	keystroke_p	p	n/a
72.8865	0.165	145773	keystroke_e	e	n/a
73.651	0.075	147302	keystroke_Key.backspace	Key.backspace	n/a
73.846	0.06	147692	keystroke_Key.backspace	Key.backspace	n/a
74.041	0.045	148082	keystroke_Key.backspace	Key.backspace	n/a
74.206	0.045	148412	keystroke_Key.backspace	Key.backspace	n/a
74.371	0.06	148742	keystroke_Key.backspace	Key.backspace	n/a
74.7315	0.1045	149463	keystroke_w	w	n/a
74.866	0.135	149732	keystroke_Key.space	Key.space	n/a
75.136	0.075	150272	keystroke_o	o	n/a
75.391	0.15	150782	keystroke_p	p	n/a
75.556	0.195	151112	keystroke_e	e	n/a
75.766	0.1055	151532	keystroke_r	r	n/a
75.976	0.165	151952	keystroke_a	a	n/a
76.216	0.12	152432	keystroke_t	t	n/a
76.4565	0.1195	152913	keystroke_e	e	n/a
76.726	0.1655	153452	keystroke_d	d	n/a
76.846	0.135	153692	keystroke_Key.space	Key.space	n/a
77.056	0.105	154112	keystroke_r	r	n/a
77.176	0.075	154352	keystroke_i	i	n/a
77.326	0.165	154652	keystroke_c	c	n/a
77.776	0.09	155552	keystroke_a	a	n/a
78.106	0.0595	156212	keystroke_Key.enter	Key.enter	n/a
78.176	8.812	156352	prompt	n/a	fresh phoenix mechanics account\n
79.1405	0.0755	158281	keystroke_f	f	n/a
79.3365	0.149	158673	keystroke_r	r	n/a
79.426	0.135	158852	keystroke_e	e	n/a
79.696	0.135	159392	keystroke_s	s	n/a
79.7705	0.1055	159541	keystroke_h	h	n/a
79.9805	0.1055	159961	keystroke_Key.space	Key.space	n/a
80.161	0.12	160322	keystroke_p	p	n/a
80.3855	0.0755	160771	keystroke_h	h	n/a
80.5505	0.1505	161101	keystroke_o	o	n/a
80.881	0.105	161762	keystroke_e	e	n/a
81.046	0.12	162092	keystroke_n	n	n/a
81.736	0.0895	163472	keystroke_i	i	n/a
81.931	0.1055	163862	keystroke_x	x	n/a
82.0815	0.119	164163	keystroke_Key.space	Key.space	n/a
82.276	0.1205	164552	keystroke_m	m	n/a
82.5165	0.075	165033	keystroke_e	e	n/a
82.951	0.165	165902	keystroke_c	c	n/a
83.1615	0.0745	166323	keystroke_h	h	n/a
83.341	0.135	166682	keystroke_a	a	n/a
83.431	0.105	166862	keystroke_n	n	n/a
83.626	0.1205	167252	keystroke_i	i	n/a
83.821	0.105	167642	keystroke_c	c	n/a
84.0765	0.1195	168153	keystroke_s	s	n/a
84.181	0.1495	168362	keystroke_Key.space	Key.space	n/a
84.5405	0.09	169081	keystroke_a	a	n/a
84.7505	0.106	169501	keystroke_c	c	n/a
84.9755	0.09	169951	keystroke_c	c	n/a
85.1115	0.2095	170223	keystroke_o	o	n/a
85.246	0.12	170492	keystroke_u	u	n/a
85.5305	0.12	171061	keystroke_n	n	n/a
85.6655	0.121	171331	keystroke_t	t	n/a
86.896	0.09	173792	keystroke_Key.enter	Key.enter	n/a
86.993	7.405	173986	prompt	n/a	command lazy shorts homes\n
87.7815	0.135	175563	keystroke_c	c	n/a
87.9165	0.0895	175833	keystroke_o	o	n/a
88.141	0.0905	176282	keystroke_m	m	n/a
88.3505	0.076	176701	keystroke_m	m	n/a
88.591	0.12	177182	keystroke_a	a	n/a
88.6965	0.09	177393	keystroke_n	n	n/a
88.966	0.18	177932	keystroke_d	d	n/a
89.131	0.1045	178262	keystroke_Key.space	Key.space	n/a
89.3415	0.119	178683	keystroke_l	l	n/a
89.4005	0.121	178801	keystroke_a	a	n/a
89.7155	0.15	179431	keystroke_z	z	n/a
89.8505	0.0755	179701	keystroke_y	y	n/a
90.0455	0.135	180091	keystroke_Key.space	Key.space	n/a
90.3305	0.1355	180661	keystroke_s	s	n/a
90.436	0.09	180872	keystroke_h	h	n/a
90.586	0.15	181172	keystroke_o	o	n/a
90.796	0.09	181592	keystroke_r	r	n/a
91.066	0.075	182132	keystroke_t	t	n/a
91.291	0.135	182582	keystroke_s	s	n/a
91.396	0.105	182792	keystroke_Key.space	Key.space	n/a
91.591	0.09	183182	keystroke_h	h	n/a
92.251	0.075	184502	keystroke_o	o	n/a
92.5215	0.1045	185043	keystroke_m	m	n/a
92.956	0.0745	185912	keystroke_e	e	n/a
93.166	0.135	186332	keystroke_s	s	n/a
94.321	0.075	188642	keystroke_Key.enter	Key.enter	n/a
94.403	10.6595	188806	prompt	n/a	alex bride dome israel\n
95.1165	0.119	190233	keystroke_a	a	n/a
95.2505	0.12	190501	keystroke_l	l	n/a
95.551	0.1045	191102	keystroke_e	e	n/a
95.8355	0.166	191671	keystroke_x	x	n/a
96.3155	0.1655	192631	keystroke_Key.space	Key.space	n/a
96.5415	0.09	193083	keystroke_b	b	n/a
96.8265	0.1045	193653	keystroke_r	r	n/a
96.9315	0.105	193863	keystroke_i	i	n/a
97.111	0.12	194222	keystroke_d	d	n/a
97.411	0.12	194822	keystroke_e	e	n/a
97.516	0.15	195032	keystroke_Key.space	Key.space	n/a
97.831	0.15	195662	keystroke_d	d	n/a
97.936	0.09	195872	keystroke_o	o	n/a
98.131	0.09	196262	keystroke_m	m	n/a
99.511	0.015	199022	keystroke_m	m	n/a
100.2005	0.076	200401	keystroke_Key.backspace	Key.backspace	n/a
100.4265	0.089	200853	keystroke_e	e	n/a
100.621	0.135	201242	keystroke_Key.space	Key.space	n/a
100.9505	0.1355	201901	keystroke_s	s	n/a
102.8405	0.105	205681	keystroke_Key.backspace	Key.backspace	n/a
103.171	0.105	206342	keystroke_i	i	n/a
103.5005	0.1355	207001	keystroke_s	s	n/a
103.771	0.0905	207542	keystroke_r	r	n/a
103.9515	0.1195	207903	keystroke_a	a	n/a
104.1915	0.1495	208383	keystroke_e	e	n/a
104.356	0.09	208712	keystroke_l	l	n/a
104.986	0.075	209972	keystroke_Key.enter	Key.enter	n/a
105.066	9.3865	210132	prompt	n/a	psychiatry crown icons succeed\n
105.946	0.1355	211892	keystroke_p	p	n/a
106.2015	0.1345	212403	keystroke_s	s	n/a
106.426	0.1045	212852	keystroke_y	y	n/a
106.6055	0.18	213211	keystroke_c	c	n/a
106.7705	0.075	213541	keystroke_h	h	n/a
106.996	0.1195	213992	keystroke_i	i	n/a
107.1915	0.149	214383	keystroke_a	a	n/a
107.4605	0.09	214921	keystroke_t	t	n/a
107.671	0.105	215342	keystroke_r	r	n/a
107.791	0.09	215582	keystroke_y	y	n/a
108.121	0.105	216242	keystroke_Key.space	Key.space	n/a
108.421	0.165	216842	keystroke_c	c	n/a
108.7215	0.15	217443	keystroke_r	r	n/a
108.8255	0.105	217651	keystroke_o	o	n/a
109.051	0.15	218102	keystroke_w	w	n/a
109.156	0.195	218312	keystroke_n	n	n/a
109.276	0.18	218552	keystroke_Key.space	Key.space	n/a
109.621	0.045	219242	keystroke_i	i	n/a
109.816	0.2105	219632	keystroke_c	c	n/a
109.981	0.165	219962	keystroke_o	o	n/a
110.131	0.12	220262	keystroke_n	n	n/a
110.4905	0.1355	220981	keystroke_Key.space	Key.space	n/a
112.231	0.09	224462	keystroke_Key.backspace	Key.backspace	n/a
112.366	0.135	224732	keystroke_s	s	n/a
112.576	0.12	225152	keystroke_Key.space	Key.space	n/a
112.771	0.105	225542	keystroke_s	s	n/a
112.921	0.075	225842	keystroke_u	u	n/a
113.131	0.104	226262	keystroke_c	c	n/a
113.311	0.09	226622	keystroke_c	c	n/a
113.5505	0.105	227101	keystroke_e	e	n/a
113.7755	0.0905	227551	keystroke_e	e	n/a
114.0155	0.106	228031	keystroke_d	d	n/a
114.3755	0.075	228751	keystroke_Key.enter	Key.enter	n/a
114.4575	10.3455	228915	prompt	n/a	fruit remaining relief venture\n
115.3365	0.06	230673	keystroke_f	f	n/a
115.5755	0.135	231151	keystroke_r	r	n/a
115.981	0.0905	231962	keystroke_i	i	n/a
116.7305	0.0905	233461	keystroke_Key.backspace	Key.backspace	n/a
117.0915	0.0735	234183	keystroke_u	u	n/a
117.3905	0.0155	234781	keystroke_i	i	n/a
117.4355	0.09	234871	keystroke_t	t	n/a
117.5855	0.15	235171	keystroke_Key.space	Key.space	n/a
117.7505	0.165	235501	keystroke_r	r	n/a
117.8405	0.1655	235681	keystroke_e	e	n/a
118.081	0.12	236162	keystroke_m	m	n/a
118.261	0.195	236522	keystroke_a	a	n/a
118.366	0.075	236732	keystroke_i	i	n/a
118.546	0.12	237092	keystroke_n	n	n/a
118.771	0.135	237542	keystroke_i	i	n/a
118.861	0.15	237722	keystroke_n	n	n/a
119.0715	0.0895	238143	keystroke_g	g	n/a
119.1755	0.1505	238351	keystroke_Key.space	Key.space	n/a
119.4905	0.1205	238981	keystroke_r	r	n/a
119.521	0.1795	239042	keystroke_e	e	n/a
120.226	0.105	240452	keystroke_l	l	n/a
120.451	0.09	240902	keystroke_i	i	n/a
120.556	0.135	241112	keystroke_e	e	n/a
120.826	0.1205	241652	keystroke_f	f	n/a
120.961	0.15	241922	keystroke_Key.space	Key.space	n/a
121.246	0.12	242492	keystroke_b	b	n/a
121.471	0.135	242942	keystroke_e	e	n/a
121.621	0.06	243242	keystroke_n	n	n/a
121.951	0.06	243902	keystroke_t	t	n/a
122.656	0.045	245312	keystroke_Key.backspace	Key.backspace	n/a
122.806	0.0595	245612	keystroke_Key.backspace	Key.backspace	n/a
123.0005	0.045	246001	keystroke_Key.backspace	Key.backspace	n/a
123.1505	0.09	246301	keystroke_Key.backspace	Key.backspace	n/a
123.3605	0.1355	246721	keystroke_v	v	n/a
123.586	0.21	247172	keystroke_e	e	n/a
123.691	0.09	247382	keystroke_n	n	n/a
123.976	0.075	247952	keystroke_t	t	n/a
124.096	0.09	248192	keystroke_u	u	n/a
124.246	0.135	248492	keystroke_r	r	n/a
124.3355	0.1355	248671	keystroke_e	e	n/a
124.726	0.075	249452	keystroke_Key.enter	Key.enter	n/a
124.8095	9.878	249619	prompt	n/a	matching voices string highway\n
125.566	0.104	251132	keystroke_m	m	n/a
125.731	0.134	251462	keystroke_a	a	n/a
125.97	0.09	251940	keystroke_t	t	n/a
126.241	0.1645	252482	keystroke_c	c	n/a
126.406	0.09	252812	keystroke_h	h	n/a
126.645	0.091	253290	keystroke_i	i	n/a
126.856	0.09	253712	keystroke_n	n	n/a
127.0805	0.075	254161	keystroke_g	g	n/a
127.2305	0.105	254461	keystroke_Key.space	Key.space	n/a
127.561	0.1345	255122	keystroke_v	v	n/a
128.2215	0.105	256443	keystroke_o	o	n/a
128.431	0.09	256862	keystroke_i	i	n/a
128.596	0.135	257192	keystroke_c	c	n/a
129.12	0.1665	258240	keystroke_s	s	n/a
130.186	0.1045	260372	keystroke_Key.backspace	Key.backspace	n/a
130.4255	0.09	260851	keystroke_e	e	n/a
130.636	0.1495	261272	keystroke_s	s	n/a
130.7555	0.135	261511	keystroke_Key.space	Key.space	n/a
130.966	0.09	261932	keystroke_s	s	n/a
131.236	0.0605	262472	keystroke_t	t	n/a
131.4305	0.0905	262861	keystroke_r	r	n/a
131.5655	0.09	263131	keystroke_i	i	n/a
131.7165	0.1045	263433	keystroke_n	n	n/a
131.911	0.1045	263822	keystroke_g	g	n/a
132.0305	0.12	264061	keystroke_Key.space	Key.space	n/a
132.2105	0.1055	264421	keystroke_h	h	n/a
132.3905	0.1205	264781	keystroke_i	i	n/a
132.5555	0.1195	265111	keystroke_g	g	n/a
132.646	0.1055	265292	keystroke_h	h	n/a
133.126	0.1045	266252	keystroke_w	w	n/a
133.3355	0.165	266671	keystroke_a	a	n/a
133.4555	0.0905	266911	keystroke_y	y	n/a
134.596	0.09	269192	keystroke_Key.enter	Key.enter	n/a
134.692	12.386	269384	prompt	n/a	selective periodically mainstream vacancies\n
135.421	0.15	270842	keystroke_s	s	n/a
135.796	0.1205	271592	keystroke_e	e	n/a
135.961	0.12	271922	keystroke_l	l	n/a
136.111	0.06	272222	keystroke_e	e	n/a
136.3655	0.15	272731	keystroke_c	c	n/a
136.695	0.09	273390	keystroke_t	t	n/a
136.831	0.1055	273662	keystroke_i	i	n/a
137.011	0.1195	274022	keystroke_v	v	n/a
137.206	0.195	274412	keystroke_e	e	n/a
137.4155	0.075	274831	keystroke_Key.space	Key.space	n/a
137.701	0.12	275402	keystroke_p	p	n/a
137.881	0.2095	275762	keystroke_e	e	n/a
138.136	0.1195	276272	keystroke_r	r	n/a
138.271	0.0595	276542	keystroke_i	i	n/a
138.7655	0.121	277531	keystroke_o	o	n/a
138.9615	0.135	277923	keystroke_d	d	n/a
139.156	0.1055	278312	keystroke_i	i	n/a
139.321	0.1505	278642	keystroke_c	c	n/a
139.951	0.105	279902	keystroke_a	a	n/a
140.146	0.0605	280292	keystroke_l	l	n/a
140.341	0.0895	280682	keystroke_l	l	n/a
140.641	0.06	281282	keystroke_y	y	n/a
140.821	0.12	281642	keystroke_Key.space	Key.space	n/a
141.241	0.06	282482	keystroke_a	a	n/a
141.7505	0.0755	283501	keystroke_Key.backspace	Key.backspace	n/a
142.216	0.045	284432	keystroke_m	m	n/a
142.846	0.0905	285692	keystroke_a	a	n/a
142.921	0.09	285842	keystroke_i	i	n/a
143.116	0.1195	286232	keystroke_n	n	n/a
143.34	0.1515	286680	keystroke_s	s	n/a
143.596	0.0755	287192	keystroke_t	t	n/a
143.7915	0.15	287583	keystroke_r	r	n/a
143.926	0.135	287852	keystroke_e	e	n/a
144.166	0.1355	288332	keystroke_a	a	n/a
144.3015	0.224	288603	keystroke_m	m	n/a
144.511	0.1345	289022	keystroke_Key.space	Key.space	n/a
144.7955	0.165	289591	keystroke_v	v	n/a
145.0205	0.1055	290041	keystroke_a	a	n/a
145.246	0.15	290492	keystroke_c	c	n/a
145.501	0.12	291002	keystroke_a	a	n/a
145.636	0.09	291272	keystroke_n	n	n/a
146.1015	0.1495	292203	keystroke_c	c	n/a
146.3255	0.1205	292651	keystroke_i	i	n/a
146.4915	0.104	292983	keystroke_e	e	n/a
146.6855	0.1355	293371	keystroke_s	s	n/a
146.9855	0.09	293971	keystroke_Key.enter	Key.enter	n/a
147.083	14.6345	294166	prompt	n/a	institutional likelihood dependence controlling\n
148.081	0.0745	296162	keystroke_i	i	n/a
148.276	0.12	296552	keystroke_n	n	n/a
148.4705	0.1505	296941	keystroke_s	s	n/a
148.726	0.1055	297452	keystroke_t	t	n/a
148.8155	0.106	297631	keystroke_i	i	n/a
149.0405	0.12	298081	keystroke_t	t	n/a
149.251	0.1045	298502	keystroke_u	u	n/a
149.536	0.105	299072	keystroke_t	t	n/a
149.656	0.105	299312	keystroke_i	i	n/a
149.8215	0.12	299643	keystroke_o	o	n/a
150.0465	0.1045	300093	keystroke_n	n	n/a
150.211	0.18	300422	keystroke_a	a	n/a
150.331	0.1805	300662	keystroke_l	l	n/a
150.436	0.1655	300872	keystroke_Key.space	Key.space	n/a
150.676	0.075	301352	keystroke_l	l	n/a
150.856	0.075	301712	keystroke_i	i	n/a
151.5015	0.0895	303003	keystroke_k	k	n/a
151.681	0.12	303362	keystroke_e	e	n/a
151.831	0.15	303662	keystroke_l	l	n/a
152.1615	0.1045	304323	keystroke_i	i	n/a
152.401	0.1355	304802	keystroke_h	h	n/a
152.5955	0.1055	305191	keystroke_o	o	n/a
152.8215	0.1045	305643	keystroke_o	o	n/a
153.031	0.15	306062	keystroke_d	d	n/a
153.211	0.135	306422	keystroke_Key.space	Key.space	n/a
153.466	0.09	306932	keystroke_d	d	n/a
153.721	0.09	307442	keystroke_e	e	n/a
153.841	0.09	307682	keystroke_p	p	n/a
154.021	0.0745	308042	keystroke_e	e	n/a
154.1115	0.074	308223	keystroke_n	n	n/a
155.026	0.105	310052	keystroke_d	d	n/a
155.386	0.0755	310772	keystroke_n	n	n/a
156.4205	0.1205	312841	keystroke_Key.backspace	Key.backspace	n/a
156.721	0.09	313442	keystroke_e	e	n/a
156.871	0.09	313742	keystroke_n	n	n/a
157.081	0.105	314162	keystroke_c	c	n/a
157.516	0.105	315032	keystroke_Key.space	Key.space	n/a
158.911	0.0895	317822	keystroke_Key.backspace	Key.backspace	n/a
159.0905	0.105	318181	keystroke_e	e	n/a
159.2555	0.15	318511	keystroke_Key.space	Key.space	n/a
159.4515	0.1495	318903	keystroke_c	c	n/a
159.616	0.075	319232	keystroke_o	o	n/a
159.781	0.105	319562	keystroke_n	n	n/a
160.006	0.075	320012	keystroke_t	t	n/a
160.201	0.12	320402	keystroke_r	r	n/a
160.276	0.105	320552	keystroke_o	o	n/a
160.546	0.089	321092	keystroke_l	l	n/a
160.741	0.074	321482	keystroke_l	l	n/a
160.966	0.045	321932	keystroke_i	i	n/a
161.116	0.105	322232	keystroke_n	n	n/a
161.2515	0.089	322503	keystroke_g	g	n/a
161.6255	0.0905	323251	keystroke_Key.enter	Key.enter	n/a
161.7225	8.5755	323445	prompt	n/a	inexpensive israeli compete evident\n
162.5255	0.0155	325051	keystroke_i	i	n/a
162.6755	0.09	325351	keystroke_n	n	n/a
162.8705	0.0755	325741	keystroke_e	e	n/a
163.1265	0.1495	326253	keystroke_x	x	n/a
163.3805	0.106	326761	keystroke_p	p	n/a
163.5305	0.1205	327061	keystroke_e	e	n/a
163.6655	0.0905	327331	keystroke_n	n	n/a
163.861	0.1795	327722	keystroke_s	s	n/a
163.9955	0.0755	327991	keystroke_i	i	n/a
164.2055	0.121	328411	keystroke_v	v	n/a
164.401	0.1645	328802	keystroke_e	e	n/a
164.5665	0.1345	329133	keystroke_Key.space	Key.space	n/a
164.7605	0.075	329521	keystroke_i	i	n/a
164.8655	0.15	329731	keystroke_s	s	n/a
165.1655	0.075	330331	keystroke_r	r	n/a
165.286	0.15	330572	keystroke_a	a	n/a
165.555	0.151	331110	keystroke_e	e	n/a
165.7365	0.105	331473	keystroke_l	l	n/a
165.96	0.076	331920	keystroke_i	i	n/a
166.14	0.1355	332280	keystroke_Key.space	Key.space	n/a
166.3205	0.151	332641	keystroke_c	c	n/a
166.4855	0.0605	332971	keystroke_o	o	n/a
166.6505	0.135	333301	keystroke_m	m	n/a
166.9215	0.12	333843	keystroke_p	p	n/a
167.0855	0.135	334171	keystroke_e	e	n/a
167.3555	0.076	334711	keystroke_t	t	n/a
167.5505	0.1205	335101	keystroke_e	e	n/a
167.8655	0.105	335731	keystroke_Key.space	Key.space	n/a
168.361	0.1045	336722	keystroke_e	e	n/a
168.616	0.15	337232	keystroke_v	v	n/a
168.811	0.0905	337622	keystroke_i	i	n/a
169.3505	0.121	338701	keystroke_d	d	n/a
169.591	0.165	339182	keystroke_e	e	n/a
169.711	0.075	339422	keystroke_n	n	n/a
169.936	0.0755	339872	keystroke_t	t	n/a
170.221	0.075	340442	keystroke_Key.enter	Key.enter	n/a
170.303	3.0095	340606	prompt	n/a	somebody's governor checks sound\n
171.136	0.12	342272	keystroke_s	s	n/a
171.196	0.09	342392	keystroke_o	o	n/a
171.4215	0.0895	342843	keystroke_m	m	n/a
171.57	0.106	343140	keystroke_e	e	n/a
172.0965	0.089	344193	keystroke_b	b	n/a
172.2155	0.1205	344431	keystroke_o	o	n/a
172.4105	0.135	344821	keystroke_d	d	n/a
172.606	0.09	345212	keystroke_y	y	n/a
173.2655	0.045	346531	keystroke_Key.enter	Key.enter	n/a
173.317	9.3255	346634	prompt	n/a	journalism curve performed isolation\n
174.6165	0.119	349233	keystroke_j	j	n/a
174.7815	0.1945	349563	keystroke_o	o	n/a
174.901	0.105	349802	keystroke_u	u	n/a
175.0965	0.104	350193	keystroke_r	r	n/a
175.2305	0.1355	350461	keystroke_n	n	n/a
175.426	0.12	350852	keystroke_a	a	n/a
175.5305	0.0905	351061	keystroke_l	l	n/a
175.711	0.0895	351422	keystroke_i	i	n/a
175.816	0.12	351632	keystroke_s	s	n/a
176.056	0.12	352112	keystroke_m	m	n/a
176.296	0.1345	352592	keystroke_Key.space	Key.space	n/a
176.5205	0.18	353041	keystroke_c	c	n/a
176.6865	0.09	353373	keystroke_u	u	n/a
176.8955	0.0755	353791	keystroke_r	r	n/a
177.151	0.135	354302	keystroke_v	v	n/a
177.376	0.165	354752	keystroke_e	e	n/a
177.526	0.135	355052	keystroke_Key.space	Key.space	n/a
177.766	0.1355	355532	keystroke_p	p	n/a
177.856	0.195	355712	keystroke_e	e	n/a
178.051	0.105	356102	keystroke_r	r	n/a
178.4105	0.12	356821	keystroke_o	o	n/a
179.416	0.09	358832	keystroke_Key.backspace	Key.backspace	n/a
179.611	0.12	359222	keystroke_f	f	n/a
179.776	0.1195	359552	keystroke_o	o	n/a
179.9255	0.1055	359851	keystroke_r	r	n/a
180.046	0.119	360092	keystroke_m	m	n/a
180.196	0.075	360392	keystroke_e	e	n/a
180.4205	0.1205	360841	keystroke_d	d	n/a
180.541	0.135	361082	keystroke_Key.space	Key.space	n/a
180.8865	0.1045	361773	keystroke_i	i	n/a
181.0205	0.1355	362041	keystroke_s	s	n/a
181.201	0.12	362402	keystroke_o	o	n/a
181.486	0.1505	362972	keystroke_l	l	n/a
181.591	0.18	363182	keystroke_a	a	n/a
181.8605	0.105	363721	keystroke_t	t	n/a
181.9505	0.075	363901	keystroke_i	i	n/a
181.9955	0.181	363991	keystroke_o	o	n/a
182.1305	0.15	364261	keystroke_n	n	n/a
182.5505	0.0905	365101	keystroke_Key.enter	Key.enter	n/a
182.652	6.6055	365304	prompt	n/a	johnny nevada units strip\n
183.2865	0.1045	366573	keystroke_j	j	n/a
183.466	0.135	366932	keystroke_o	o	n/a
183.571	0.09	367142	keystroke_h	h	n/a
183.8105	0.0755	367621	keystroke_n	n	n/a
183.9605	0.091	367921	keystroke_n	n	n/a
184.216	0.06	368432	keystroke_y	y	n/a
184.396	0.074	368792	keystroke_Key.space	Key.space	n/a
184.5315	0.1195	369063	keystroke_n	n	n/a
184.696	0.105	369392	keystroke_e	e	n/a
184.921	0.1655	369842	keystroke_v	v	n/a
185.101	0.12	370202	keystroke_a	a	n/a
185.281	0.1955	370562	keystroke_d	d	n/a
185.551	0.1345	371102	keystroke_a	a	n/a
185.731	0.1195	371462	keystroke_Key.space	Key.space	n/a
185.9865	0.074	371973	keystroke_u	u	n/a
186.1955	0.106	372391	keystroke_n	n	n/a
186.3765	0.135	372753	keystroke_i	i	n/a
186.571	0.1045	373142	keystroke_t	t	n/a
186.931	0.135	373862	keystroke_s	s	n/a
187.036	0.135	374072	keystroke_Key.space	Key.space	n/a
187.231	0.15	374462	keystroke_s	s	n/a
187.456	0.075	374912	keystroke_t	t	n/a
187.651	0.09	375302	keystroke_r	r	n/a
187.726	0.09	375452	keystroke_i	i	n/a
187.951	0.1205	375902	keystroke_p	p	n/a
189.1805	0.0755	378361	keystroke_Key.enter	Key.enter	n/a
189.2625	6.175	378525	prompt	n/a	charity exploring they families\n
190.021	0.195	380042	keystroke_c	c	n/a
190.186	0.089	380372	keystroke_h	h	n/a
190.3815	0.179	380763	keystroke_a	a	n/a
190.576	0.12	381152	keystroke_r	r	n/a
190.666	0.1195	381332	keystroke_i	i	n/a
190.921	0.105	381842	keystroke_t	t	n/a
191.041	0.06	382082	keystroke_y	y	n/a
191.191	0.135	382382	keystroke_Key.space	Key.space	n/a
191.371	0.0905	382742	keystroke_e	e	n/a
191.6265	0.1795	383253	keystroke_x	x	n/a
191.7915	0.0895	383583	keystroke_p	p	n/a
192.016	0.0905	384032	keystroke_l	l	n/a
192.241	0.1055	384482	keystroke_o	o	n/a
192.4365	0.1195	384873	keystroke_r	r	n/a
192.5405	0.0905	385081	keystroke_i	i	n/a
192.7365	0.0895	385473	keystroke_n	n	n/a
192.8855	0.105	385771	keystroke_g	g	n/a
193.0215	0.119	386043	keystroke_Key.space	Key.space	n/a
193.2455	0.09	386491	keystroke_t	t	n/a
193.3205	0.091	386641	keystroke_h	h	n/a
193.4705	0.1655	386941	keystroke_e	e	n/a
193.651	0.0305	387302	keystroke_y	y	n/a
193.786	0.105	387572	keystroke_Key.space	Key.space	n/a
193.906	0.12	387812	keystroke_f	f	n/a
194.041	0.18	388082	keystroke_a	a	n/a
194.206	0.06	388412	keystroke_m	m	n/a
194.3865	0.0895	388773	keystroke_i	i	n/a
194.5955	0.1205	389191	keystroke_l	l	n/a
194.7605	0.106	389521	keystroke_i	i	n/a
194.896	0.1055	389792	keystroke_e	e	n/a
195.1205	0.1205	390241	keystroke_s	s	n/a
195.3755	0.06	390751	keystroke_Key.enter	Key.enter	n/a
195.441	11.022	390882	prompt	n/a	laboratories womens scholar sounds\n
196.2605	0.121	392521	keystroke_l	l	n/a
196.3965	0.09	392793	keystroke_a	a	n/a
196.6805	0.1055	393361	keystroke_b	b	n/a
196.8155	0.106	393631	keystroke_o	o	n/a
197.0105	0.09	394021	keystroke_r	r	n/a
197.1615	0.195	394323	keystroke_a	a	n/a
197.4165	0.09	394833	keystroke_t	t	n/a
197.5505	0.1205	395101	keystroke_o	o	n/a
197.791	0.105	395582	keystroke_r	r	n/a
198.001	0.12	396002	keystroke_i	i	n/a
198.3605	0.1205	396721	keystroke_s	s	n/a
199.38	0.045	398760	keystroke_Key.backspace	Key.backspace	n/a
199.4865	0.1045	398973	keystroke_e	e	n/a
199.726	0.15	399452	keystroke_s	s	n/a
199.86	0.1205	399720	keystroke_Key.space	Key.space	n/a
201.3005	0.1355	402601	keystroke_w	w	n/a
201.4515	0.1045	402903	keystroke_o	o	n/a
201.7355	0.076	403471	keystroke_m	m	n/a
201.9755	0.09	403951	keystroke_e	e	n/a
202.1405	0.06	404281	keystroke_n	n	n/a
202.306	0.1355	404612	keystroke_s	s	n/a
202.546	0.165	405092	keystroke_Key.space	Key.space	n/a
202.696	0.089	405392	keystroke_s	s	n/a
202.876	0.2095	405752	keystroke_c	c	n/a
203.0415	0.1045	406083	keystroke_h	h	n/a
203.2655	0.09	406531	keystroke_o	o	n/a
203.5055	0.135	407011	keystroke_l	l	n/a
203.6255	0.181	407251	keystroke_a	a	n/a
203.8655	0.105	407731	keystroke_r	r	n/a
204.0005	0.15	408001	keystroke_Key.space	Key.space	n/a
204.556	0.105	409112	keystroke_s	s	n/a
204.736	0.225	409472	keystroke_o	o	n/a
204.9765	0.0745	409953	keystroke_u	u	n/a
205.2305	0.105	410461	keystroke_n	n	n/a
205.351	0.12	410702	keystroke_d	d	n/a
205.5465	0.1045	411093	keystroke_s	s	n/a
206.371	0.09	412742	keystroke_Key.enter	Key.enter	n/a
206.4675	13.66	412935	prompt	n/a	distinguished arbitration mustang titans\n
207.3015	0.074	414603	keystroke_d	d	n/a
207.3765	0.119	414753	keystroke_i	i	n/a
207.5255	0.12	415051	keystroke_s	s	n/a
208.0665	0.1045	416133	keystroke_t	t	n/a
208.156	0.09	416312	keystroke_i	i	n/a
208.366	0.0895	416732	keystroke_n	n	n/a
208.621	0.105	417242	keystroke_g	g	n/a
210.121	0.0905	420242	keystroke_u	u	n/a
210.3165	0.134	420633	keystroke_i	i	n/a
210.5255	0.1355	421051	keystroke_s	s	n/a
210.6615	0.0745	421323	keystroke_h	h	n/a
210.841	0.03	421682	keystroke_e	e	n/a
211.1705	0.091	422341	keystroke_d	d	n/a
211.3805	0.135	422761	keystroke_Key.space	Key.space	n/a
211.6655	0.15	423331	keystroke_a	a	n/a
211.936	0.09	423872	keystroke_r	r	n/a
212.2655	0.121	424531	keystroke_b	b	n/a
212.43	0.106	424860	keystroke_i	i	n/a
212.716	0.045	425432	keystroke_t	t	n/a
212.881	0.09	425762	keystroke_r	r	n/a
213.031	0.18	426062	keystroke_a	a	n/a
213.316	0.09	426632	keystroke_t	t	n/a
213.391	0.165	426782	keystroke_i	i	n/a
213.5405	0.18	427081	keystroke_o	o	n/a
213.661	0.1645	427322	keystroke_n	n	n/a
213.9005	0.1505	427801	keystroke_Key.space	Key.space	n/a
214.8905	0.0755	429781	keystroke_m	m	n/a
215.1605	0.1055	430321	keystroke_u	u	n/a
215.3255	0.15	430651	keystroke_s	s	n/a
215.6255	0.0755	431251	keystroke_t	t	n/a
215.8805	0.1055	431761	keystroke_n	n	n/a
216.6005	0.06	433201	keystroke_Key.backspace	Key.backspace	n/a
216.931	0.164	433862	keystroke_a	a	n/a
217.066	0.0605	434132	keystroke_n	n	n/a
217.8605	0.0445	435721	keystroke_g	g	n/a
217.966	0.1495	435932	keystroke_Key.space	Key.space	n/a
218.341	0.0895	436682	keystroke_t	t	n/a
218.446	0.0745	436892	keystroke_i	i	n/a
218.626	0.075	437252	keystroke_t	t	n/a
218.776	0.1505	437552	keystroke_a	a	n/a
218.8965	0.0745	437793	keystroke_n	n	n/a
219.136	0.105	438272	keystroke_s	s	n/a
220.036	0.09	440072	keystroke_Key.enter	Key.enter	n/a
220.1325	17.005	440265	prompt	n/a	occupation smell imperial recommend\n
220.9065	0.059	441813	keystroke_c	c	n/a
221.9265	0.1045	443853	keystroke_Key.backspace	Key.backspace	n/a
222.2865	0.134	444573	keystroke_o	o	n/a
222.4505	0.091	444901	keystroke_c	c	n/a
222.6765	0.104	445353	keystroke_c	c	n/a
222.8555	0.12	445711	keystroke_u	u	n/a
223.1115	0.134	446223	keystroke_p	p	n/a
223.2605	0.165	446521	keystroke_a	a	n/a
223.5455	0.1055	447091	keystroke_t	t	n/a
223.6355	0.09	447271	keystroke_i	i	n/a
223.681	0.1945	447362	keystroke_o	o	n/a
223.846	0.12	447692	keystroke_n	n	n/a
224.1005	0.1205	448201	keystroke_Key.space	Key.space	n/a
224.2955	0.1055	448591	keystroke_s	s	n/a
224.5665	0.119	449133	keystroke_e	e	n/a
224.7455	0.0905	449491	keystroke_l	l	n/a
225.0005	0.135	450001	keystroke_l	l	n/a
225.2405	0.151	450481	keystroke_Key.space	Key.space	n/a
225.7515	0.044	451503	keystroke_m	m	n/a
226.696	0.09	453392	keystroke_Key.backspace	Key.backspace	n/a
227.0105	0.09	454021	keystroke_i	i	n/a
227.2355	0.076	454471	keystroke_m	m	n/a
227.446	0.1345	454892	keystroke_p	p	n/a
227.6115	0.21	455223	keystroke_e	e	n/a
227.8065	0.0895	455613	keystroke_r	r	n/a
228	0.0915	456000	keystroke_i	i	n/a
228.811	0.0745	457622	keystroke_Key.backspace	Key.backspace	n/a
228.991	0.0745	457982	keystroke_Key.backspace	Key.backspace	n/a
229.2005	0.0305	458401	keystroke_Key.backspace	Key.backspace	n/a
229.3355	0.06	458671	keystroke_Key.backspace	Key.backspace	n/a
229.501	0.0595	459002	keystroke_Key.backspace	Key.backspace	n/a
229.681	0.045	459362	keystroke_Key.backspace	Key.backspace	n/a
229.8305	0.06	459661	keystroke_Key.backspace	Key.backspace	n/a
229.9955	0.06	459991	keystroke_Key.backspace	Key.backspace	n/a
230.1605	0.0905	460321	keystroke_Key.backspace	Key.backspace	n/a
230.8505	0.105	461701	keystroke_Key.backspace	Key.backspace	n/a
231.976	0.105	463952	keystroke_m	m	n/a
232.2155	0.1055	464431	keystroke_e	e	n/a
232.3515	0.074	464703	keystroke_l	l	n/a
232.6055	0.24	465211	keystroke_l	l	n/a
232.8005	0.18	465601	keystroke_Key.space	Key.space	n/a
233.161	0.06	466322	keystroke_i	i	n/a
233.3555	0.09	466711	keystroke_m	m	n/a
233.596	0.135	467192	keystroke_p	p	n/a
233.761	0.18	467522	keystroke_e	e	n/a
233.9865	0.089	467973	keystroke_r	r	n/a
234.076	0.0895	468152	keystroke_i	i	n/a
234.256	0.179	468512	keystroke_a	a	n/a
234.3755	0.2105	468751	keystroke_l	l	n/a
234.496	0.179	468992	keystroke_Key.space	Key.space	n/a
234.9165	0.1645	469833	keystroke_r	r	n/a
235.021	0.104	470042	keystroke_e	e	n/a
235.291	0.1195	470582	keystroke_c	c	n/a
235.426	0.0905	470852	keystroke_o	o	n/a
235.6665	0.0745	471333	keystroke_m	m	n/a
235.8615	0.0745	471723	keystroke_m	m	n/a
236.056	0.105	472112	keystroke_e	e	n/a
236.176	0.06	472352	keystroke_n	n	n/a
236.3405	0.1045	472681	keystroke_d	d	n/a
237.0455	0.0905	474091	keystroke_Key.enter	Key.enter	n/a
237.1425	13.6015	474285	prompt	n/a	kevin instantly fairy shouldn't've\n
237.841	0.104	475682	keystroke_k	k	n/a
238.5005	0.1055	477001	keystroke_e	e	n/a
238.741	0.15	477482	keystroke_v	v	n/a
238.891	0.06	477782	keystroke_i	i	n/a
239.1005	0.211	478201	keystroke_n	n	n/a
239.251	0.165	478502	keystroke_Key.space	Key.space	n/a
239.536	0.045	479072	keystroke_i	i	n/a
239.671	0.105	479342	keystroke_n	n	n/a
239.8655	0.18	479731	keystroke_s	s	n/a
240.1805	0.0755	480361	keystroke_t	t	n/a
241.081	0.195	482162	keystroke_a	a	n/a
241.246	0.09	482492	keystroke_n	n	n/a
241.531	0.09	483062	keystroke_t	t	n/a
241.756	0.135	483512	keystroke_l	l	n/a
242.086	0.09	484172	keystroke_y	y	n/a
242.295	0.151	484590	keystroke_Key.space	Key.space	n/a
242.536	0.0745	485072	keystroke_f	f	n/a
243.196	0.15	486392	keystroke_a	a	n/a
243.391	0.105	486782	keystroke_i	i	n/a
243.646	0.089	487292	keystroke_r	r	n/a
243.811	0.0755	487622	keystroke_y	y	n/a
244.036	0.12	488072	keystroke_Key.space	Key.space	n/a
244.2	0.136	488400	keystroke_s	s	n/a
244.321	0.09	488642	keystroke_h	h	n/a
244.4415	0.1795	488883	keystroke_o	o	n/a
244.576	0.09	489152	keystroke_u	u	n/a
244.8315	0.1345	489663	keystroke_l	l	n/a
245.146	0.105	490292	keystroke_d	d	n/a
245.3855	0.0905	490771	keystroke_n	n	n/a
246.586	0.09	493172	keystroke_'	'	n/a
246.811	0.075	493622	keystroke_t	t	n/a
248.356	0.105	496712	keystroke_'	'	n/a
248.5815	0.119	497163	keystroke_v	v	n/a
249.271	0.105	498542	keystroke_e	e	n/a
250.621	0.12	501242	keystroke_Key.enter	Key.enter	n/a
250.7535	8.674	501507	prompt	n/a	mozilla armed younger trailer\n
251.6115	0.089	503223	keystroke_m	m	n/a
251.8215	0.134	503643	keystroke_o	o	n/a
252.1205	0.075	504241	keystroke_z	z	n/a
252.271	0.074	504542	keystroke_i	i	n/a
252.946	0.09	505892	keystroke_l	l	n/a
253.171	0.105	506342	keystroke_l	l	n/a
253.336	0.165	506672	keystroke_a	a	n/a
253.576	0.1345	507152	keystroke_Key.space	Key.space	n/a
253.816	0.1945	507632	keystroke_a	a	n/a
254.116	0.1195	508232	keystroke_r	r	n/a
254.446	0.0445	508892	keystroke_e	e	n/a
255.1505	0.09	510301	keystroke_Key.backspace	Key.backspace	n/a
255.5105	0.09	511021	keystroke_m	m	n/a
255.6905	0.0755	511381	keystroke_e	e	n/a
255.9305	0.1355	511861	keystroke_d	d	n/a
256.0805	0.12	512161	keystroke_Key.space	Key.space	n/a
256.44	0.0905	512880	keystroke_y	y	n/a
256.651	0.1795	513302	keystroke_o	o	n/a
256.7705	0.0905	513541	keystroke_u	u	n/a
257.026	0.105	514052	keystroke_n	n	n/a
257.2805	0.0905	514561	keystroke_g	g	n/a
257.4755	0.15	514951	keystroke_e	e	n/a
257.596	0.12	515192	keystroke_r	r	n/a
257.7755	0.12	515551	keystroke_Key.space	Key.space	n/a
257.9555	0.075	515911	keystroke_t	t	n/a
258.151	0.1045	516302	keystroke_r	r	n/a
258.2715	0.149	516543	keystroke_a	a	n/a
258.4055	0.09	516811	keystroke_i	i	n/a
258.661	0.105	517322	keystroke_l	l	n/a
258.751	0.1645	517502	keystroke_e	e	n/a
258.9455	0.0905	517891	keystroke_r	r	n/a
259.351	0.074	518702	keystroke_Key.enter	Key.enter	n/a
259.4315	8.6965	518863	prompt	n/a	allows trap postcards wearing\n
260.176	0.1495	520352	keystroke_a	a	n/a
260.3415	0.075	520683	keystroke_l	l	n/a
260.5365	0.0895	521073	keystroke_l	l	n/a
260.791	0.12	521582	keystroke_o	o	n/a
260.881	0.1045	521762	keystroke_w	w	n/a
261.151	0.135	522302	keystroke_s	s	n/a
261.2705	0.135	522541	keystroke_Key.space	Key.space	n/a
262.3055	0.0605	524611	keystroke_t	t	n/a
262.501	0.075	525002	keystroke_r	r	n/a
262.62	0.1365	525240	keystroke_a	a	n/a
262.8455	0.1205	525691	keystroke_p	p	n/a
263.056	0.149	526112	keystroke_Key.space	Key.space	n/a
263.28	0.195	526560	keystroke_p	p	n/a
263.46	0.1665	526920	keystroke_o	o	n/a
263.686	0.1505	527372	keystroke_s	s	n/a
263.9865	0.029	527973	keystroke_t	t	n/a
264.2255	0.136	528451	keystroke_c	c	n/a
264.481	0.15	528962	keystroke_a	a	n/a
264.736	0.0605	529472	keystroke_r	r	n/a
264.9455	0.135	529891	keystroke_d	d	n/a
265.2015	0.134	530403	keystroke_s	s	n/a
265.411	0.134	530822	keystroke_Key.space	Key.space	n/a
265.606	0.135	531212	keystroke_w	w	n/a
265.771	0.15	531542	keystroke_e	e	n/a
266.0265	0.1645	532053	keystroke_a	a	n/a
266.266	0.12	532532	keystroke_r	r	n/a
266.4315	0.0895	532863	keystroke_i	i	n/a
266.656	0.075	533312	keystroke_n	n	n/a
266.791	0.0905	533582	keystroke_g	g	n/a
268.021	0.1045	536042	keystroke_Key.enter	Key.enter	n/a
268.1325	14.1855	536265	prompt	n/a	templates liabilities million developments\n
268.9655	0.0905	537931	keystroke_t	t	n/a
269.131	0.1505	538262	keystroke_e	e	n/a
269.7765	0.1195	539553	keystroke_m	m	n/a
270.0905	0.09	540181	keystroke_p	p	n/a
270.346	0.1195	540692	keystroke_l	l	n/a
270.5255	0.181	541051	keystroke_a	a	n/a
270.7655	0.1205	541531	keystroke_t	t	n/a
270.886	0.12	541772	keystroke_e	e	n/a
271.3205	0.151	542641	keystroke_s	s	n/a
271.486	0.135	542972	keystroke_Key.space	Key.space	n/a
271.741	0.0755	543482	keystroke_l	l	n/a
271.9655	0.09	543931	keystroke_i	i	n/a
272.1605	0.1505	544321	keystroke_a	a	n/a
272.4465	0.149	544893	keystroke_b	b	n/a
272.761	0.0745	545522	keystroke_i	i	n/a
272.9715	0.179	545943	keystroke_l	l	n/a
273.136	0.1055	546272	keystroke_i	i	n/a
273.391	0.1045	546782	keystroke_t	t	n/a
273.5255	0.0905	547051	keystroke_i	i	n/a
273.6455	0.105	547291	keystroke_e	e	n/a
273.856	0.1795	547712	keystroke_s	s	n/a
273.991	0.1495	547982	keystroke_Key.space	Key.space	n/a
274.366	0.0745	548732	keystroke_m	m	n/a
274.576	0.09	549152	keystroke_i	i	n/a
274.8165	0.0745	549633	keystroke_l	l	n/a
274.9965	0.075	549993	keystroke_l	l	n/a
275.161	0.135	550322	keystroke_i	i	n/a
275.356	0.1795	550712	keystroke_o	o	n/a
275.4905	0.135	550981	keystroke_n	n	n/a
275.7905	0.1205	551581	keystroke_s	s	n/a
276.0005	0.136	552001	keystroke_Key.space	Key.space	n/a
276.2555	0.105	552511	keystroke_d	d	n/a
276.5115	0.074	553023	keystroke_e	e	n/a
276.7055	0.1355	553411	keystroke_v	v	n/a
276.931	0.135	553862	keystroke_e	e	n/a
277.636	0.075	555272	keystroke_l	l	n/a
277.876	0.105	555752	keystroke_o	o	n/a
278.131	0.15	556262	keystroke_p	p	n/a
279.481	0.1205	558962	keystroke_m	m	n/a
280.201	0.165	560402	keystroke_e	e	n/a
280.3505	0.09	560701	keystroke_n	n	n/a
280.5755	0.075	561151	keystroke_t	t	n/a
280.831	0.075	561662	keystroke_s	s	n/a
282.196	0.12	564392	keystroke_Key.enter	Key.enter	n/a
282.3225	9.6555	564645	prompt	n/a	paper laid participate phenomenon\n
283.0805	0.0905	566161	keystroke_p	p	n/a
283.231	0.12	566462	keystroke_a	a	n/a
283.321	0.135	566642	keystroke_p	p	n/a
283.501	0.18	567002	keystroke_e	e	n/a
283.6655	0.1205	567331	keystroke_r	r	n/a
283.8005	0.12	567601	keystroke_Key.space	Key.space	n/a
284.025	0.105	568050	keystroke_l	l	n/a
284.161	0.165	568322	keystroke_a	a	n/a
284.281	0.1055	568562	keystroke_i	i	n/a
284.5515	0.1195	569103	keystroke_d	d	n/a
284.701	0.165	569402	keystroke_Key.space	Key.space	n/a
285.2555	0.09	570511	keystroke_p	p	n/a
285.3455	0.24	570691	keystroke_a	a	n/a
285.5715	0.1195	571143	keystroke_r	r	n/a
285.841	0.12	571682	keystroke_t	t	n/a
285.991	0.09	571982	keystroke_i	i	n/a
286.3055	0.121	572611	keystroke_c	c	n/a
286.4555	0.0455	572911	keystroke_i	i	n/a
286.636	0.134	573272	keystroke_p	p	n/a
286.786	0.165	573572	keystroke_a	a	n/a
287.0405	0.1055	574081	keystroke_t	t	n/a
287.191	0.1645	574382	keystroke_e	e	n/a
287.43	0.122	574860	keystroke_Key.space	Key.space	n/a
287.731	0.105	575462	keystroke_p	p	n/a
287.941	0.075	575882	keystroke_h	h	n/a
288.0915	0.1045	576183	keystroke_e	e	n/a
288.421	0.1205	576842	keystroke_n	n	n/a
288.646	0.1205	577292	keystroke_o	o	n/a
289.3065	0.1045	578613	keystroke_m	m	n/a
289.561	0.105	579122	keystroke_e	e	n/a
290.131	0.1205	580262	keystroke_n	n	n/a
290.941	0.105	581882	keystroke_o	o	n/a
291.136	0.075	582272	keystroke_n	n	n/a
291.886	0.09	583772	keystroke_Key.enter	Key.enter	n/a
291.983	11.2295	583966	prompt	n/a	examples president jordan demographic\n
292.7565	0.059	585513	keystroke_e	e	n/a
293.0855	0.12	586171	keystroke_x	x	n/a
293.3705	0.165	586741	keystroke_a	a	n/a
294.001	0.12	588002	keystroke_m	m	n/a
294.3315	0.0895	588663	keystroke_p	p	n/a
294.5715	0.149	589143	keystroke_l	l	n/a
295.4255	0.1205	590851	keystroke_e	e	n/a
295.651	0.165	591302	keystroke_s	s	n/a
296.071	0.135	592142	keystroke_Key.space	Key.space	n/a
296.326	0.1355	592652	keystroke_p	p	n/a
296.536	0.195	593072	keystroke_r	r	n/a
296.641	0.135	593282	keystroke_e	e	n/a
296.911	0.1805	593822	keystroke_s	s	n/a
297.061	0.105	594122	keystroke_i	i	n/a
297.3005	0.105	594601	keystroke_d	d	n/a
297.5415	0.1645	595083	keystroke_e	e	n/a
297.6455	0.075	595291	keystroke_n	n	n/a
297.8705	0.09	595741	keystroke_t	t	n/a
297.9905	0.12	595981	keystroke_Key.space	Key.space	n/a
298.2605	0.0905	596521	keystroke_j	j	n/a
298.486	0.03	596972	keystroke_o	o	n/a
298.951	0.075	597902	keystroke_r	r	n/a
299.3865	0.134	598773	keystroke_d	d	n/a
299.626	0.1195	599252	keystroke_a	a	n/a
299.716	0.1795	599432	keystroke_n	n	n/a
299.851	0.18	599702	keystroke_Key.space	Key.space	n/a
300.076	0.12	600152	keystroke_d	d	n/a
300.316	0.1205	600632	keystroke_e	e	n/a
300.451	0.1045	600902	keystroke_m	m	n/a
300.6605	0.1205	601321	keystroke_o	o	n/a
300.916	0.0755	601832	keystroke_g	g	n/a
301.141	0.0895	602282	keystroke_r	r	n/a
301.2455	0.151	602491	keystroke_a	a	n/a
301.651	0.15	603302	keystroke_p	p	n/a
301.876	0.09	603752	keystroke_h	h	n/a
302.085	0.106	604170	keystroke_i	i	n/a
302.281	0.09	604562	keystroke_c	c	n/a
303.1205	0.09	606241	keystroke_Key.enter	Key.enter	n/a
303.218	7.6	606436	prompt	n/a	western both open testing\n
304.111	0.15	608222	keystroke_w	w	n/a
304.306	0.12	608612	keystroke_e	e	n/a
304.561	0.18	609122	keystroke_s	s	n/a
304.846	0.135	609692	keystroke_t	t	n/a
304.9955	0.15	609991	keystroke_e	e	n/a
305.3405	0.105	610681	keystroke_r	r	n/a
306.796	0.225	613592	keystroke_n	n	n/a
307.036	0.165	614072	keystroke_Key.space	Key.space	n/a
307.396	0.1655	614792	keystroke_b	b	n/a
307.516	0.12	615032	keystroke_o	o	n/a
307.786	0.12	615572	keystroke_t	t	n/a
307.861	0.1205	615722	keystroke_h	h	n/a
308.041	0.1045	616082	keystroke_Key.space	Key.space	n/a
308.3715	0.12	616743	keystroke_o	o	n/a
308.611	0.135	617222	keystroke_p	p	n/a
308.776	0.135	617552	keystroke_e	e	n/a
308.926	0.18	617852	keystroke_n	n	n/a
309.0305	0.165	618061	keystroke_Key.space	Key.space	n/a
309.301	0.09	618602	keystroke_t	t	n/a
309.4215	0.119	618843	keystroke_e	e	n/a
309.676	0.1495	619352	keystroke_s	s	n/a
309.9615	0.1045	619923	keystroke_t	t	n/a
310.0815	0.0745	620163	keystroke_i	i	n/a
310.2605	0.0905	620521	keystroke_n	n	n/a
310.3955	0.09	620791	keystroke_g	g	n/a
310.726	0.0895	621452	keystroke_Key.enter	Key.enter	n/a
310.8255	12.877	621651	prompt	n/a	vietnamese encourages podcast jacksonville\n
313.323	0.043	626646	keystroke_v	v	n/a
313.4115	0.0895	626823	keystroke_i	i	n/a
313.6215	0.164	627243	keystroke_e	e	n/a
313.891	0.09	627782	keystroke_t	t	n/a
314.251	0.06	628502	keystroke_m	m	n/a
314.716	0.0895	629432	keystroke_Key.backspace	Key.backspace	n/a
315.016	0.1205	630032	keystroke_n	n	n/a
315.181	0.18	630362	keystroke_a	a	n/a
315.361	0.09	630722	keystroke_m	m	n/a
315.4815	0.0895	630963	keystroke_e	e	n/a
315.706	0.105	631412	keystroke_s	s	n/a
315.976	0.135	631952	keystroke_e	e	n/a
316.215	0.121	632430	keystroke_Key.space	Key.space	n/a
316.381	0.12	632762	keystroke_e	e	n/a
316.5155	0.0755	633031	keystroke_n	n	n/a
316.7865	0.1945	633573	keystroke_c	c	n/a
316.9355	0.2105	633871	keystroke_o	o	n/a
317.116	0.12	634232	keystroke_u	u	n/a
317.296	0.09	634592	keystroke_r	r	n/a
317.491	0.1795	634982	keystroke_a	a	n/a
317.775	0.1065	635550	keystroke_g	g	n/a
317.986	0.0905	635972	keystroke_e	e	n/a
318.211	0.134	636422	keystroke_s	s	n/a
318.361	0.12	636722	keystroke_Key.space	Key.space	n/a
318.6455	0.136	637291	keystroke_p	p	n/a
318.8105	0.151	637621	keystroke_o	o	n/a
319.1555	0.15	638311	keystroke_d	d	n/a
319.741	0.1355	639482	keystroke_c	c	n/a
319.981	0.21	639962	keystroke_a	a	n/a
320.206	0.135	640412	keystroke_s	s	n/a
320.4455	0.135	640891	keystroke_t	t	n/a
320.5505	0.1355	641101	keystroke_Key.space	Key.space	n/a
320.7905	0.0905	641581	keystroke_j	j	n/a
320.866	0.105	641732	keystroke_a	a	n/a
321.121	0.1045	642242	keystroke_c	c	n/a
321.8405	0.121	643681	keystroke_k	k	n/a
322.0815	0.1345	644163	keystroke_s	s	n/a
322.1855	0.121	644371	keystroke_o	o	n/a
322.3805	0.09	644761	keystroke_n	n	n/a
322.606	0.1655	645212	keystroke_v	v	n/a
322.711	0.0905	645422	keystroke_i	i	n/a
322.921	0.075	645842	keystroke_l	l	n/a
323.131	0.105	646262	keystroke_l	l	n/a
323.236	0.12	646472	keystroke_e	e	n/a
323.611	0.09	647222	keystroke_Key.enter	Key.enter	n/a
323.7075	8.9055	647415	prompt	n/a	harold challenge surgeon burns\n
324.4815	0.09	648963	keystroke_h	h	n/a
324.586	0.195	649172	keystroke_a	a	n/a
324.781	0.12	649562	keystroke_r	r	n/a
324.916	0.075	649832	keystroke_o	o	n/a
325.126	0.12	650252	keystroke_l	l	n/a
325.3065	0.1345	650613	keystroke_d	d	n/a
325.471	0.105	650942	keystroke_Key.space	Key.space	n/a
325.8155	0.1505	651631	keystroke_c	c	n/a
326.0855	0.0755	652171	keystroke_h	h	n/a
326.2355	0.15	652471	keystroke_a	a	n/a
326.4155	0.09	652831	keystroke_l	l	n/a
326.626	0.12	653252	keystroke_l	l	n/a
326.791	0.12	653582	keystroke_e	e	n/a
326.881	0.075	653762	keystroke_n	n	n/a
327.121	0.1045	654242	keystroke_g	g	n/a
327.3155	0.135	654631	keystroke_e	e	n/a
327.4655	0.135	654931	keystroke_Key.space	Key.space	n/a
327.6465	0.149	655293	keystroke_s	s	n/a
327.7505	0.12	655501	keystroke_u	u	n/a
328.276	0.105	656552	keystroke_g	g	n/a
328.8605	0.105	657721	keystroke_Key.backspace	Key.backspace	n/a
329.2515	0.0745	658503	keystroke_r	r	n/a
329.5055	0.09	659011	keystroke_g	g	n/a
329.7015	0.134	659403	keystroke_e	e	n/a
329.821	0.075	659642	keystroke_o	o	n/a
330.0315	0.164	660063	keystroke_n	n	n/a
330.1505	0.15	660301	keystroke_Key.space	Key.space	n/a
330.526	0.0895	661052	keystroke_b	b	n/a
330.5855	0.135	661171	keystroke_u	u	n/a
330.8555	0.09	661711	keystroke_r	r	n/a
330.991	0.135	661982	keystroke_n	n	n/a
331.1855	0.106	662371	keystroke_s	s	n/a
332.491	0.12	664982	keystroke_Key.enter	Key.enter	n/a
332.6175	7.36	665235	prompt	n/a	gathering third fully detector\n
333.451	0.0745	666902	keystroke_g	g	n/a
333.6315	0.149	667263	keystroke_a	a	n/a
333.8705	0.1505	667741	keystroke_t	t	n/a
334.0055	0.0755	668011	keystroke_h	h	n/a
334.141	0.195	668282	keystroke_e	e	n/a
334.306	0.149	668612	keystroke_r	r	n/a
334.471	0.06	668942	keystroke_i	i	n/a
334.651	0.09	669302	keystroke_n	n	n/a
334.831	0.105	669662	keystroke_g	g	n/a
334.951	0.1195	669902	keystroke_Key.space	Key.space	n/a
335.401	0.12	670802	keystroke_t	t	n/a
335.4905	0.06	670981	keystroke_h	h	n/a
335.686	0.075	671372	keystroke_i	i	n/a
335.7905	0.09	671581	keystroke_r	r	n/a
336.0905	0.1505	672181	keystroke_d	d	n/a
336.226	0.12	672452	keystroke_Key.space	Key.space	n/a
336.451	0.1045	672902	keystroke_f	f	n/a
336.571	0.09	673142	keystroke_u	u	n/a
336.855	0.0755	673710	keystroke_l	l	n/a
337.035	0.106	674070	keystroke_l	l	n/a
337.321	0.09	674642	keystroke_y	y	n/a
337.5155	0.1055	675031	keystroke_Key.space	Key.space	n/a
337.696	0.089	675392	keystroke_d	d	n/a
337.936	0.12	675872	keystroke_e	e	n/a
338.2655	0.106	676531	keystroke_t	t	n/a
338.431	0.12	676862	keystroke_e	e	n/a
338.746	0.1495	677492	keystroke_c	c	n/a
339.1365	0.089	678273	keystroke_t	t	n/a
339.3005	0.0905	678601	keystroke_o	o	n/a
339.466	0.09	678932	keystroke_r	r	n/a
339.9155	0.0595	679831	keystroke_Key.enter	Key.enter	n/a
339.991	7.952	679982	prompt	n/a	refresh mega traffic busy\n
341.026	0.1495	682052	keystroke_r	r	n/a
341.1305	0.1655	682261	keystroke_e	e	n/a
341.4155	0.091	682831	keystroke_f	f	n/a
341.7465	0.165	683493	keystroke_e	e	n/a
342.375	0.075	684750	keystroke_Key.backspace	Key.backspace	n/a
342.6305	0.1805	685261	keystroke_r	r	n/a
342.751	0.1505	685502	keystroke_e	e	n/a
343.0355	0.1505	686071	keystroke_s	s	n/a
343.141	0.09	686282	keystroke_h	h	n/a
343.3505	0.105	686701	keystroke_Key.space	Key.space	n/a
343.6055	0.1055	687211	keystroke_m	m	n/a
343.741	0.1045	687482	keystroke_e	e	n/a
344.0405	0.09	688081	keystroke_g	g	n/a
344.2205	0.18	688441	keystroke_a	a	n/a
344.3555	0.15	688711	keystroke_Key.space	Key.space	n/a
344.5955	0.0605	689191	keystroke_t	t	n/a
344.7905	0.1505	689581	keystroke_r	r	n/a
344.9415	0.134	689883	keystroke_a	a	n/a
345.1805	0.09	690361	keystroke_f	f	n/a
345.376	0.0745	690752	keystroke_f	f	n/a
345.5255	0.105	691051	keystroke_i	i	n/a
345.7205	0.105	691441	keystroke_c	c	n/a
345.8705	0.1055	691741	keystroke_Key.space	Key.space	n/a
346.0955	0.09	692191	keystroke_b	b	n/a
346.2005	0.0755	692401	keystroke_u	u	n/a
346.4405	0.1505	692881	keystroke_s	s	n/a
346.5605	0.075	693121	keystroke_y	y	n/a
347.836	0.105	695672	keystroke_Key.enter	Key.enter	n/a
347.9475	11.6505	695895	prompt	n/a	generally promised philippines replacement\n
348.976	0.0905	697952	keystroke_g	g	n/a
349.1855	0.106	698371	keystroke_e	e	n/a
349.3055	0.09	698611	keystroke_n	n	n/a
349.4555	0.1805	698911	keystroke_e	e	n/a
349.6505	0.09	699301	keystroke_r	r	n/a
349.816	0.18	699632	keystroke_a	a	n/a
349.9805	0.06	699961	keystroke_l	l	n/a
350.146	0.1055	700292	keystroke_l	l	n/a
350.4465	0.0445	700893	keystroke_y	y	n/a
351.121	0.15	702242	keystroke_Key.space	Key.space	n/a
351.316	0.165	702632	keystroke_p	p	n/a
351.5565	0.0895	703113	keystroke_r	r	n/a
351.646	0.1045	703292	keystroke_o	o	n/a
351.886	0.12	703772	keystroke_m	m	n/a
352.125	0.121	704250	keystroke_i	i	n/a
352.306	0.135	704612	keystroke_s	s	n/a
352.546	0.105	705092	keystroke_e	e	n/a
352.801	0.15	705602	keystroke_d	d	n/a
352.906	0.1345	705812	keystroke_Key.space	Key.space	n/a
353.131	0.0745	706262	keystroke_p	p	n/a
353.236	0.1045	706472	keystroke_h	h	n/a
353.4755	0.09	706951	keystroke_i	i	n/a
353.701	0.1205	707402	keystroke_l	l	n/a
353.971	0.1045	707942	keystroke_i	i	n/a
354.226	0.105	708452	keystroke_p	p	n/a
354.406	0.105	708812	keystroke_p	p	n/a
354.6005	0.075	709201	keystroke_i	i	n/a
354.826	0.1055	709652	keystroke_n	n	n/a
354.9615	0.074	709923	keystroke_e	e	n/a
355.1705	0.15	710341	keystroke_s	s	n/a
355.2905	0.1205	710581	keystroke_Key.space	Key.space	n/a
355.6505	0.151	711301	keystroke_e	e	n/a
356.761	0.12	713522	keystroke_Key.backspace	Key.backspace	n/a
356.896	0.195	713792	keystroke_r	r	n/a
357.016	0.12	714032	keystroke_e	e	n/a
357.2255	0.0755	714451	keystroke_p	p	n/a
357.4205	0.135	714841	keystroke_l	l	n/a
357.526	0.1055	715052	keystroke_a	a	n/a
357.7505	0.1055	715501	keystroke_c	c	n/a
358.0055	0.1355	716011	keystroke_e	e	n/a
358.1855	0.09	716371	keystroke_m	m	n/a
358.3655	0.135	716731	keystroke_e	e	n/a
358.4855	0.09	716971	keystroke_n	n	n/a
358.6655	0.075	717331	keystroke_t	t	n/a
359.491	0.1045	718982	keystroke_Key.enter	Key.enter	n/a
359.602	11.875	719204	prompt	n/a	legacy revolution focus statements\n
360.301	0.1195	720602	keystroke_l	l	n/a
360.436	0.105	720872	keystroke_e	e	n/a
360.6755	0.075	721351	keystroke_g	g	n/a
360.8105	0.105	721621	keystroke_a	a	n/a
361.0655	0.12	722131	keystroke_c	c	n/a
361.2015	0.0595	722403	keystroke_y	y	n/a
361.3805	0.12	722761	keystroke_Key.space	Key.space	n/a
361.5605	0.15	723121	keystroke_r	r	n/a
361.6205	0.18	723241	keystroke_e	e	n/a
362.2815	0.119	724563	keystroke_v	v	n/a
362.536	0.09	725072	keystroke_o	o	n/a
362.776	0.105	725552	keystroke_l	l	n/a
363.031	0.12	726062	keystroke_u	u	n/a
363.481	0.105	726962	keystroke_t	t	n/a
363.571	0.09	727142	keystroke_i	i	n/a
363.811	0.075	727622	keystroke_n	n	n/a
364.8905	0.0755	729781	keystroke_Key.backspace	Key.backspace	n/a
365.1605	0.105	730321	keystroke_o	o	n/a
365.3705	0.18	730741	keystroke_n	n	n/a
365.5205	0.1505	731041	keystroke_Key.space	Key.space	n/a
365.7615	0.059	731523	keystroke_f	f	n/a
365.851	0.1045	731702	keystroke_o	o	n/a
366.0455	0.18	732091	keystroke_c	c	n/a
366.2715	0.0745	732543	keystroke_u	u	n/a
366.4965	0.1345	732993	keystroke_s	s	n/a
366.646	0.1195	733292	keystroke_Key.space	Key.space	n/a
367.1255	0.18	734251	keystroke_s	s	n/a
367.4105	0.0905	734821	keystroke_t	t	n/a
367.516	0.21	735032	keystroke_a	a	n/a
367.876	0.1495	735752	keystroke_l	l	n/a
368.491	0.104	736982	keystroke_Key.backspace	Key.backspace	n/a
368.761	0.1045	737522	keystroke_t	t	n/a
368.955	0.136	737910	keystroke_e	e	n/a
369.4515	0.0145	738903	keystroke_e	e	n/a
369.975	0.105	739950	keystroke_Key.backspace	Key.backspace	n/a
370.35	0.1215	740700	keystroke_m	m	n/a
370.531	0.18	741062	keystroke_e	e	n/a
370.6655	0.091	741331	keystroke_n	n	n/a
370.801	0.075	741602	keystroke_t	t	n/a
370.966	0.165	741932	keystroke_s	s	n/a
371.386	0.09	742772	keystroke_Key.enter	Key.enter	n/a
371.481	8.547	742962	prompt	n/a	diagnostic chrome horn june\n
372.196	0.12	744392	keystroke_d	d	n/a
372.3015	0.0895	744603	keystroke_i	i	n/a
372.7655	0.1355	745531	keystroke_a	a	n/a
373.0505	0.091	746101	keystroke_g	g	n/a
373.261	0.0755	746522	keystroke_n	n	n/a
373.4555	0.09	746911	keystroke_o	o	n/a
373.531	0.1805	747062	keystroke_s	s	n/a
373.846	0.0445	747692	keystroke_t	t	n/a
373.9205	0.0755	747841	keystroke_i	i	n/a
374.116	0.105	748232	keystroke_c	c	n/a
374.5655	0.1205	749131	keystroke_Key.space	Key.space	n/a
374.7455	0.1355	749491	keystroke_c	c	n/a
374.851	0.09	749702	keystroke_h	h	n/a
375.151	0.12	750302	keystroke_r	r	n/a
375.241	0.1045	750482	keystroke_o	o	n/a
375.496	0.09	750992	keystroke_m	m	n/a
375.661	0.105	751322	keystroke_e	e	n/a
375.856	0.105	751712	keystroke_Key.space	Key.space	n/a
376.171	0.0745	752342	keystroke_h	h	n/a
376.3055	0.135	752611	keystroke_o	o	n/a
376.4855	0.0905	752971	keystroke_r	r	n/a
377.311	0.105	754622	keystroke_n	n	n/a
377.521	0.12	755042	keystroke_Key.space	Key.space	n/a
378.166	0.075	756332	keystroke_j	j	n/a
378.346	0.075	756692	keystroke_u	u	n/a
378.5855	0.105	757171	keystroke_n	n	n/a
378.7205	0.09	757441	keystroke_e	e	n/a
379.9355	0.09	759871	keystroke_Key.enter	Key.enter	n/a
380.033	7.2995	760066	prompt	n/a	pursuit struck customs player\n
380.851	0.18	761702	keystroke_p	p	n/a
381.0155	0.1205	762031	keystroke_u	u	n/a
381.1655	0.1055	762331	keystroke_r	r	n/a
381.391	0.1955	762782	keystroke_s	s	n/a
381.5255	0.105	763051	keystroke_u	u	n/a
381.736	0.089	763472	keystroke_i	i	n/a
381.9905	0.075	763981	keystroke_t	t	n/a
382.1705	0.105	764341	keystroke_Key.space	Key.space	n/a
382.726	0.12	765452	keystroke_s	s	n/a
382.921	0.06	765842	keystroke_t	t	n/a
383.101	0.09	766202	keystroke_r	r	n/a
383.235	0.0905	766470	keystroke_u	u	n/a
383.475	0.136	766950	keystroke_c	c	n/a
383.641	0.09	767282	keystroke_k	k	n/a
383.895	0.1505	767790	keystroke_Key.space	Key.space	n/a
384.2105	0.15	768421	keystroke_c	c	n/a
384.3455	0.075	768691	keystroke_u	u	n/a
384.5555	0.196	769111	keystroke_s	s	n/a
385.0665	0.0745	770133	keystroke_t	t	n/a
385.1855	0.06	770371	keystroke_o	o	n/a
385.4115	0.089	770823	keystroke_m	m	n/a
385.5755	0.15	771151	keystroke_s	s	n/a
385.7405	0.1205	771481	keystroke_Key.space	Key.space	n/a
386.0105	0.045	772021	keystroke_p	p	n/a
386.1905	0.135	772381	keystroke_l	l	n/a
386.3105	0.18	772621	keystroke_a	a	n/a
386.5805	0.0755	773161	keystroke_y	y	n/a
386.746	0.1345	773492	keystroke_e	e	n/a
386.9405	0.06	773881	keystroke_r	r	n/a
387.271	0.06	774542	keystroke_Key.enter	Key.enter	n/a
387.3375	10.765	774675	prompt	n/a	eclipse violence carlo made\n
388.1415	0.0595	776283	keystroke_e	e	n/a
388.411	0.1495	776822	keystroke_x	x	n/a
388.5905	0.106	777181	keystroke_l	l	n/a
388.801	0.0755	777602	keystroke_i	i	n/a
389.581	0.075	779162	keystroke_Key.backspace	Key.backspace	n/a
389.791	0.06	779582	keystroke_Key.backspace	Key.backspace	n/a
390.016	0.075	780032	keystroke_Key.backspace	Key.backspace	n/a
390.8705	0.151	781741	keystroke_c	c	n/a
391.111	0.1045	782222	keystroke_l	l	n/a
391.366	0.075	782732	keystroke_i	i	n/a
391.576	0.1195	783152	keystroke_p	p	n/a
391.8005	0.151	783601	keystroke_s	s	n/a
392.0855	0.1505	784171	keystroke_e	e	n/a
392.3555	0.0905	784711	keystroke_Key.space	Key.space	n/a
392.6415	0.1645	785283	keystroke_v	v	n/a
392.8065	0.0745	785613	keystroke_i	i	n/a
393.0005	0.135	786001	keystroke_o	o	n/a
393.3455	0.12	786691	keystroke_l	l	n/a
393.975	0.075	787950	keystroke_n	n	n/a
394.6055	0.0605	789211	keystroke_Key.backspace	Key.backspace	n/a
394.861	0.105	789722	keystroke_e	e	n/a
394.9805	0.0755	789961	keystroke_n	n	n/a
395.2205	0.0905	790441	keystroke_c	c	n/a
395.461	0.165	790922	keystroke_e	e	n/a
395.596	0.135	791192	keystroke_Key.space	Key.space	n/a
395.821	0.165	791642	keystroke_c	c	n/a
396.076	0.21	792152	keystroke_a	a	n/a
396.301	0.12	792602	keystroke_r	r	n/a
396.5105	0.09	793021	keystroke_l	l	n/a
396.7505	0.151	793501	keystroke_o	o	n/a
396.9305	0.1505	793861	keystroke_Key.space	Key.space	n/a
397.1405	0.105	794281	keystroke_m	m	n/a
397.2155	0.15	794431	keystroke_a	a	n/a
397.4255	0.1355	794851	keystroke_d	d	n/a
397.6815	0.075	795363	keystroke_e	e	n/a
398.041	0.059	796082	keystroke_Key.enter	Key.enter	n/a
398.107	8.8305	796214	prompt	n/a	politics sorry profile chambers\n
398.8655	0.1355	797731	keystroke_p	p	n/a
399.181	0.12	798362	keystroke_o	o	n/a
399.4355	0.0905	798871	keystroke_l	l	n/a
399.6305	0.09	799261	keystroke_i	i	n/a
400.0655	0.075	800131	keystroke_t	t	n/a
400.1855	0.045	800371	keystroke_i	i	n/a
400.3655	0.0755	800731	keystroke_c	c	n/a
400.7565	0.06	801513	keystroke_Key.space	Key.space	n/a
401.325	0.075	802650	keystroke_Key.backspace	Key.backspace	n/a
401.551	0.12	803102	keystroke_s	s	n/a
401.7	0.12	803400	keystroke_Key.space	Key.space	n/a
401.896	0.12	803792	keystroke_s	s	n/a
401.9555	0.0905	803911	keystroke_o	o	n/a
402.436	0.089	804872	keystroke_r	r	n/a
402.646	0.09	805292	keystroke_r	r	n/a
402.781	0.0905	805562	keystroke_y	y	n/a
402.991	0.12	805982	keystroke_Key.space	Key.space	n/a
403.2015	0.1045	806403	keystroke_p	p	n/a
403.4715	0.089	806943	keystroke_r	r	n/a
403.576	0.0895	807152	keystroke_o	o	n/a
403.816	0.165	807632	keystroke_f	f	n/a
403.9655	0.06	807931	keystroke_i	i	n/a
404.1755	0.121	808351	keystroke_l	l	n/a
404.3105	0.106	808621	keystroke_e	e	n/a
404.4605	0.1055	808921	keystroke_Key.space	Key.space	n/a
404.7915	0.1195	809583	keystroke_c	c	n/a
404.896	0.06	809792	keystroke_h	h	n/a
405.091	0.135	810182	keystroke_a	a	n/a
405.181	0.1055	810362	keystroke_m	m	n/a
405.631	0.105	811262	keystroke_b	b	n/a
405.856	0.1805	811712	keystroke_e	e	n/a
406.006	0.1055	812012	keystroke_r	r	n/a
406.231	0.15	812462	keystroke_s	s	n/a
406.861	0.074	813722	keystroke_Key.enter	Key.enter	n/a
406.945	11.933	813890	prompt	n/a	rubber swingers actively promotions\n
407.776	0.0595	815552	keystroke_r	r	n/a
407.866	0.105	815732	keystroke_u	u	n/a
408.1805	0.061	816361	keystroke_b	b	n/a
408.3755	0.106	816751	keystroke_b	b	n/a
408.616	0.1805	817232	keystroke_e	e	n/a
408.766	0.1055	817532	keystroke_r	r	n/a
408.961	0.1345	817922	keystroke_Key.space	Key.space	n/a
409.291	0.09	818582	keystroke_s	s	n/a
409.561	0.15	819122	keystroke_w	w	n/a
409.6655	0.076	819331	keystroke_i	i	n/a
409.8755	0.075	819751	keystroke_n	n	n/a
410.011	0.0895	820022	keystroke_g	g	n/a
410.2055	0.1205	820411	keystroke_e	e	n/a
410.296	0.1195	820592	keystroke_r	r	n/a
410.551	0.135	821102	keystroke_s	s	n/a
410.701	0.09	821402	keystroke_Key.space	Key.space	n/a
410.956	0.12	821912	keystroke_a	a	n/a
411.196	0.18	822392	keystroke_c	c	n/a
411.616	0.09	823232	keystroke_t	t	n/a
411.766	0.09	823532	keystroke_i	i	n/a
411.9615	0.1045	823923	keystroke_v	v	n/a
412.186	0.135	824372	keystroke_e	e	n/a
412.381	0.12	824762	keystroke_l	l	n/a
412.6815	0.0895	825363	keystroke_y	y	n/a
413.34	0.1355	826680	keystroke_Key.space	Key.space	n/a
413.581	0.1045	827162	keystroke_p	p	n/a
415.2005	0.075	830401	keystroke_r	r	n/a
415.3355	0.09	830671	keystroke_o	o	n/a
415.606	0.1345	831212	keystroke_m	m	n/a
415.8165	0.119	831633	keystroke_o	o	n/a
416.2205	0.075	832441	keystroke_t	t	n/a
416.311	0.1505	832622	keystroke_i	i	n/a
416.445	0.181	832890	keystroke_o	o	n/a
416.566	0.135	833132	keystroke_n	n	n/a
416.806	0.105	833612	keystroke_s	s	n/a
418.726	0.15	837452	keystroke_Key.enter	Key.enter	n/a
418.8825	11.5905	837765	prompt	n/a	grass receivers refer lawyers\n
419.7165	0.075	839433	keystroke_g	g	n/a
419.926	0.12	839852	keystroke_r	r	n/a
420.5105	0.121	841021	keystroke_a	a	n/a
420.7055	0.121	841411	keystroke_s	s	n/a
420.9455	0.135	841891	keystroke_s	s	n/a
421.0505	0.1655	842101	keystroke_Key.space	Key.space	n/a
421.231	0.12	842462	keystroke_r	r	n/a
421.306	0.1505	842612	keystroke_e	e	n/a
421.621	0.09	843242	keystroke_c	c	n/a
421.8315	0.1795	843663	keystroke_e	e	n/a
422.0115	0.075	844023	keystroke_i	i	n/a
422.236	0.135	844472	keystroke_v	v	n/a
422.446	0.15	844892	keystroke_e	e	n/a
422.7755	0.18	845551	keystroke_s	s	n/a
423.0305	0.1205	846061	keystroke_Key.space	Key.space	n/a
424.936	0.0745	849872	keystroke_Key.backspace	Key.backspace	n/a
425.1605	0.06	850321	keystroke_Key.backspace	Key.backspace	n/a
425.4465	0.105	850893	keystroke_r	r	n/a
425.6865	0.209	851373	keystroke_s	s	n/a
425.8215	0.119	851643	keystroke_Key.space	Key.space	n/a
426.751	0.12	853502	keystroke_r	r	n/a
426.901	0.195	853802	keystroke_e	e	n/a
427.171	0.12	854342	keystroke_f	f	n/a
427.381	0.15	854762	keystroke_e	e	n/a
427.5015	0.1045	855003	keystroke_r	r	n/a
427.666	0.12	855332	keystroke_Key.space	Key.space	n/a
427.906	0.135	855812	keystroke_l	l	n/a
427.996	0.12	855992	keystroke_a	a	n/a
428.311	0.1195	856622	keystroke_w	w	n/a
428.491	0.09	856982	keystroke_y	y	n/a
428.686	0.1655	857372	keystroke_e	e	n/a
428.836	0.075	857672	keystroke_r	r	n/a
429.032	0.1495	858064	keystroke_s	s	n/a
430.396	0.0745	860792	keystroke_Key.enter	Key.enter	n/a
430.478	7.6445	860956	prompt	n/a	tommy figure level emotions\n
431.3415	0.09	862683	keystroke_o	o	n/a
432.256	0.09	864512	keystroke_Key.backspace	Key.backspace	n/a
432.496	0.09	864992	keystroke_t	t	n/a
432.616	0.105	865232	keystroke_o	o	n/a
432.856	0.0755	865712	keystroke_m	m	n/a
433.0355	0.0755	866071	keystroke_m	m	n/a
433.306	0.09	866612	keystroke_y	y	n/a
433.471	0.1195	866942	keystroke_Key.space	Key.space	n/a
433.6055	0.09	867211	keystroke_f	f	n/a
433.681	0.1045	867362	keystroke_i	i	n/a
433.891	0.12	867782	keystroke_g	g	n/a
434.0405	0.091	868081	keystroke_u	u	n/a
434.146	0.18	868292	keystroke_r	r	n/a
434.2365	0.1945	868473	keystroke_e	e	n/a
434.7465	0.1045	869493	keystroke_Key.space	Key.space	n/a
434.925	0.1365	869850	keystroke_l	l	n/a
435.0615	0.09	870123	keystroke_e	e	n/a
435.2715	0.1185	870543	keystroke_v	v	n/a
435.4815	0.1495	870963	keystroke_e	e	n/a
435.57	0.1965	871140	keystroke_l	l	n/a
435.691	0.164	871382	keystroke_Key.space	Key.space	n/a
435.916	0.1055	871832	keystroke_m	m	n/a
436.3805	0.0905	872761	keystroke_Key.backspace	Key.backspace	n/a
436.621	0.1205	873242	keystroke_e	e	n/a
436.711	0.1045	873422	keystroke_m	m	n/a
436.996	0.0595	873992	keystroke_o	o	n/a
437.206	0.105	874412	keystroke_t	t	n/a
437.2965	0.104	874593	keystroke_i	i	n/a
437.3405	0.2105	874681	keystroke_o	o	n/a
437.461	0.165	874922	keystroke_n	n	n/a
437.611	0.1355	875222	keystroke_s	s	n/a
438.031	0.09	876062	keystroke_Key.enter	Key.enter	n/a
438.1275	8.5905	876255	prompt	n/a	voices stability command happy\n
438.9015	0.1345	877803	keystroke_v	v	n/a
438.991	0.21	877982	keystroke_o	o	n/a
439.3205	0.1055	878641	keystroke_c	c	n/a
440.0255	0.0905	880051	keystroke_Key.backspace	Key.backspace	n/a
440.3415	0.089	880683	keystroke_i	i	n/a
440.5515	0.104	881103	keystroke_c	c	n/a
440.7905	0.105	881581	keystroke_e	e	n/a
440.971	0.1645	881942	keystroke_s	s	n/a
441.1205	0.135	882241	keystroke_Key.space	Key.space	n/a
441.301	0.135	882602	keystroke_s	s	n/a
441.661	0.0895	883322	keystroke_t	t	n/a
441.9015	0.1495	883803	keystroke_a	a	n/a
442.651	0.0905	885302	keystroke_b	b	n/a
442.921	0.0755	885842	keystroke_i	i	n/a
443.1615	0.195	886323	keystroke_l	l	n/a
443.341	0.105	886682	keystroke_i	i	n/a
443.5215	0.1045	887043	keystroke_t	t	n/a
443.6415	0.0745	887283	keystroke_y	y	n/a
443.851	0.105	887702	keystroke_Key.space	Key.space	n/a
444.061	0.1645	888122	keystroke_c	c	n/a
444.1365	0.09	888273	keystroke_o	o	n/a
444.3755	0.0755	888751	keystroke_m	m	n/a
444.5555	0.075	889111	keystroke_m	m	n/a
444.7065	0.1495	889413	keystroke_a	a	n/a
444.7955	0.1055	889591	keystroke_n	n	n/a
444.9905	0.1505	889981	keystroke_d	d	n/a
445.1105	0.105	890221	keystroke_Key.space	Key.space	n/a
445.3515	0.1045	890703	keystroke_h	h	n/a
445.516	0.1345	891032	keystroke_a	a	n/a
445.6055	0.09	891211	keystroke_p	p	n/a
445.771	0.135	891542	keystroke_p	p	n/a
446.026	0.09	892052	keystroke_y	y	n/a
446.641	0.075	893282	keystroke_Key.enter	Key.enter	n/a
446.7225	12.3555	893445	prompt	n/a	dangerous hawaii alternate creates\n
447.691	0.105	895382	keystroke_d	d	n/a
447.886	0.1355	895772	keystroke_a	a	n/a
447.9765	0.0895	895953	keystroke_n	n	n/a
448.2315	0.1045	896463	keystroke_g	g	n/a
448.3805	0.1955	896761	keystroke_e	e	n/a
448.6505	0.09	897301	keystroke_r	r	n/a
448.756	0.1795	897512	keystroke_o	o	n/a
448.876	0.1205	897752	keystroke_u	u	n/a
449.056	0.12	898112	keystroke_s	s	n/a
449.2355	0.1205	898471	keystroke_Key.space	Key.space	n/a
449.6855	0.09	899371	keystroke_h	h	n/a
449.8215	0.1045	899643	keystroke_a	a	n/a
450.121	0.0905	900242	keystroke_w	w	n/a
450.316	0.15	900632	keystroke_a	a	n/a
450.616	0.0755	901232	keystroke_y	y	n/a
451.951	0.06	903902	keystroke_Key.backspace	Key.backspace	n/a
452.2815	0.014	904563	keystroke_i	i	n/a
452.446	0.09	904892	keystroke_i	i	n/a
454.066	0.135	908132	keystroke_Key.space	Key.space	n/a
454.397	0.1645	908794	keystroke_a	a	n/a
454.6055	0.1205	909211	keystroke_l	l	n/a
454.981	0.12	909962	keystroke_t	t	n/a
455.116	0.15	910232	keystroke_e	e	n/a
455.2515	0.1345	910503	keystroke_r	r	n/a
455.476	0.12	910952	keystroke_n	n	n/a
455.611	0.135	911222	keystroke_a	a	n/a
455.8065	0.1045	911613	keystroke_t	t	n/a
455.986	0.135	911972	keystroke_e	e	n/a
456.166	0.135	912332	keystroke_Key.space	Key.space	n/a
456.331	0.15	912662	keystroke_c	c	n/a
456.6155	0.1505	913231	keystroke_r	r	n/a
456.706	0.12	913412	keystroke_e	e	n/a
457.126	0.09	914252	keystroke_t	t	n/a
458.0255	0.121	916051	keystroke_Key.backspace	Key.backspace	n/a
458.1315	0.195	916263	keystroke_a	a	n/a
458.3715	0.105	916743	keystroke_t	t	n/a
458.4615	0.135	916923	keystroke_e	e	n/a
458.7015	0.1495	917403	keystroke_s	s	n/a
459.001	0.075	918002	keystroke_Key.enter	Key.enter	n/a
459.0825	7.152	918165	prompt	n/a	beginner toll jets satellite\n
459.8855	0.09	919771	keystroke_b	b	n/a
460.082	0.194	920164	keystroke_e	e	n/a
460.3965	0.089	920793	keystroke_g	g	n/a
460.516	0.075	921032	keystroke_i	i	n/a
460.7405	0.0605	921481	keystroke_n	n	n/a
460.906	0.105	921812	keystroke_n	n	n/a
461.0415	0.1495	922083	keystroke_e	e	n/a
461.206	0.12	922412	keystroke_r	r	n/a
461.341	0.135	922682	keystroke_Key.space	Key.space	n/a
461.536	0.105	923072	keystroke_t	t	n/a
461.611	0.106	923222	keystroke_o	o	n/a
461.8505	0.075	923701	keystroke_l	l	n/a
462.061	0.21	924122	keystroke_l	l	n/a
462.181	0.1795	924362	keystroke_Key.space	Key.space	n/a
462.421	0.1055	924842	keystroke_j	j	n/a
462.586	0.105	925172	keystroke_e	e	n/a
462.8555	0.0455	925711	keystroke_t	t	n/a
463.006	0.18	926012	keystroke_s	s	n/a
463.2005	0.1055	926401	keystroke_Key.space	Key.space	n/a
463.5305	0.1355	927061	keystroke_s	s	n/a
463.756	0.1805	927512	keystroke_a	a	n/a
464.011	0.09	928022	keystroke_t	t	n/a
464.161	0.15	928322	keystroke_e	e	n/a
464.431	0.12	928862	keystroke_l	l	n/a
465.091	0.1205	930182	keystroke_l	l	n/a
465.331	0.09	930662	keystroke_i	i	n/a
465.5855	0.09	931171	keystroke_t	t	n/a
465.7505	0.12	931501	keystroke_e	e	n/a
466.1555	0.075	932311	keystroke_Key.enter	Key.enter	n/a
466.239	8.079	932478	prompt	n/a	memory simpsons compliant alex\n
467.146	0.105	934292	keystroke_m	m	n/a
467.3115	0.134	934623	keystroke_e	e	n/a
467.431	0.0895	934862	keystroke_m	m	n/a
467.6255	0.151	935251	keystroke_o	o	n/a
467.8505	0.0905	935701	keystroke_r	r	n/a
467.9705	0.09	935941	keystroke_y	y	n/a
468.166	0.12	936332	keystroke_Key.space	Key.space	n/a
468.3015	0.1195	936603	keystroke_s	s	n/a
468.571	0.105	937142	keystroke_i	i	n/a
468.796	0.1055	937592	keystroke_m	m	n/a
469.051	0.09	938102	keystroke_p	p	n/a
469.6365	0.149	939273	keystroke_s	s	n/a
469.711	0.0895	939422	keystroke_o	o	n/a
469.8465	0.12	939693	keystroke_n	n	n/a
470.0565	0.135	940113	keystroke_s	s	n/a
470.2055	0.135	940411	keystroke_Key.space	Key.space	n/a
470.686	0.135	941372	keystroke_c	c	n/a
470.9265	0.09	941853	keystroke_o	o	n/a
471.1215	0.1045	942243	keystroke_m	m	n/a
471.376	0.03	942752	keystroke_p	p	n/a
471.556	0.075	943112	keystroke_l	l	n/a
471.751	0.075	943502	keystroke_i	i	n/a
471.871	0.2255	943742	keystroke_a	a	n/a
471.961	0.09	943922	keystroke_n	n	n/a
472.186	0.0905	944372	keystroke_t	t	n/a
472.321	0.105	944642	keystroke_Key.space	Key.space	n/a
472.471	0.165	944942	keystroke_a	a	n/a
472.5755	0.105	945151	keystroke_l	l	n/a
472.816	0.0895	945632	keystroke_e	e	n/a
473.461	0.1205	946922	keystroke_x	x	n/a
474.226	0.09	948452	keystroke_Key.enter	Key.enter	n/a
474.323	9.4145	948646	prompt	n/a	whilst extraction angry clay\n
475.1105	0.12	950221	keystroke_w	w	n/a
475.2465	0.074	950493	keystroke_h	h	n/a
475.4265	0.059	950853	keystroke_i	i	n/a
475.6065	0.12	951213	keystroke_l	l	n/a
475.816	0.12	951632	keystroke_s	s	n/a
476.1465	0.074	952293	keystroke_t	t	n/a
476.2955	0.1355	952591	keystroke_Key.space	Key.space	n/a
476.506	0.0895	953012	keystroke_e	e	n/a
476.7905	0.18	953581	keystroke_x	x	n/a
477.1505	0.076	954301	keystroke_t	t	n/a
477.3165	0.119	954633	keystroke_r	r	n/a
477.436	0.1345	954872	keystroke_a	a	n/a
477.676	0.194	955352	keystroke_c	c	n/a
478.185	0.106	956370	keystroke_t	t	n/a
478.306	0.1055	956612	keystroke_i	i	n/a
478.366	0.1795	956732	keystroke_o	o	n/a
478.4855	0.09	956971	keystroke_n	n	n/a
478.621	0.0155	957242	keystroke_n	n	n/a
478.7105	0.136	957421	keystroke_Key.space	Key.space	n/a
478.8625	0.149	957725	keystroke_a	a	n/a
478.9365	0.089	957873	keystroke_n	n	n/a
479.4905	0.0905	958981	keystroke_Key.backspace	Key.backspace	n/a
479.716	0.0295	959432	keystroke_Key.backspace	Key.backspace	n/a
479.8805	0.03	959761	keystroke_Key.backspace	Key.backspace	n/a
480.0305	0.045	960061	keystroke_Key.backspace	Key.backspace	n/a
480.556	0.105	961112	keystroke_Key.space	Key.space	n/a
481.3815	0.0295	962763	keystroke_a	a	n/a
481.396	0.09	962792	keystroke_n	n	n/a
481.591	0.09	963182	keystroke_g	g	n/a
481.8015	0.104	963603	keystroke_r	r	n/a
481.9355	0.0755	963871	keystroke_y	y	n/a
482.146	0.1045	964292	keystroke_Key.space	Key.space	n/a
482.4905	0.1805	964981	keystroke_c	c	n/a
482.611	0.105	965222	keystroke_l	l	n/a
482.8365	0.1335	965673	keystroke_a	a	n/a
482.956	0.09	965912	keystroke_y	y	n/a
483.631	0.1045	967262	keystroke_Key.enter	Key.enter	n/a
483.7425	13.3915	967485	prompt	n/a	strange merchant governments audience\n
484.921	0.195	969842	keystroke_s	s	n/a
485.386	0.105	970772	keystroke_r	r	n/a
485.566	0.1805	971132	keystroke_a	a	n/a
485.7015	0.0895	971403	keystroke_n	n	n/a
486.076	0.09	972152	keystroke_Key.backspace	Key.backspace	n/a
486.271	0.075	972542	keystroke_Key.backspace	Key.backspace	n/a
486.436	0.075	972872	keystroke_Key.backspace	Key.backspace	n/a
487.081	0.1055	974162	keystroke_r	r	n/a
487.486	0.105	974972	keystroke_Key.backspace	Key.backspace	n/a
487.7405	0.09	975481	keystroke_t	t	n/a
487.966	0.09	975932	keystroke_r	r	n/a
488.1315	0.12	976263	keystroke_a	a	n/a
488.221	0.1195	976442	keystroke_n	n	n/a
488.506	0.09	977012	keystroke_g	g	n/a
488.6855	0.1955	977371	keystroke_e	e	n/a
488.836	0.09	977672	keystroke_Key.space	Key.space	n/a
489.1805	0.09	978361	keystroke_m	m	n/a
489.2865	0.164	978573	keystroke_e	e	n/a
489.4665	0.074	978933	keystroke_r	r	n/a
489.826	0.06	979652	keystroke_h	h	n/a
490.306	0.06	980612	keystroke_Key.backspace	Key.backspace	n/a
490.5015	0.119	981003	keystroke_c	c	n/a
490.6515	0.045	981303	keystroke_h	h	n/a
490.8455	0.121	981691	keystroke_a	a	n/a
490.9065	0.075	981813	keystroke_n	n	n/a
491.1315	0.059	982263	keystroke_g	g	n/a
491.596	0.0745	983192	keystroke_Key.backspace	Key.backspace	n/a
491.7465	0.0895	983493	keystroke_t	t	n/a
491.986	0.105	983972	keystroke_Key.space	Key.space	n/a
492.391	0.09	984782	keystroke_g	g	n/a
492.631	0.1205	985262	keystroke_o	o	n/a
492.8705	0.136	985741	keystroke_v	v	n/a
493.1105	0.1655	986221	keystroke_e	e	n/a
493.2455	0.136	986491	keystroke_r	r	n/a
493.516	0.075	987032	keystroke_n	n	n/a
493.786	0.075	987572	keystroke_m	m	n/a
493.951	0.165	987902	keystroke_e	e	n/a
494.041	0.0905	988082	keystroke_n	n	n/a
494.2515	0.0745	988503	keystroke_t	t	n/a
494.461	0.1345	988922	keystroke_s	s	n/a
494.986	0.1345	989972	keystroke_Key.space	Key.space	n/a
495.1815	0.1045	990363	keystroke_a	a	n/a
495.4665	0.0745	990933	keystroke_u	u	n/a
495.766	0.1355	991532	keystroke_d	d	n/a
495.886	0.09	991772	keystroke_i	i	n/a
496.066	0.12	992132	keystroke_e	e	n/a
496.1265	0.12	992253	keystroke_n	n	n/a
496.4705	0.121	992941	keystroke_c	c	n/a
496.801	0.105	993602	keystroke_e	e	n/a
497.041	0.09	994082	keystroke_Key.enter	Key.enter	n/a
497.1375	8.5455	994275	prompt	n/a	sharing mirrors graph congratulations\n
497.9705	0.15	995941	keystroke_s	s	n/a
498.1955	0.09	996391	keystroke_h	h	n/a
498.331	0.15	996662	keystroke_a	a	n/a
498.541	0.12	997082	keystroke_r	r	n/a
498.616	0.15	997232	keystroke_i	i	n/a
498.751	0.12	997502	keystroke_n	n	n/a
498.9315	0.1045	997863	keystroke_g	g	n/a
499.021	0.135	998042	keystroke_Key.space	Key.space	n/a
499.231	0.075	998462	keystroke_m	m	n/a
499.411	0.09	998822	keystroke_i	i	n/a
499.4865	0.06	998973	keystroke_r	r	n/a
499.667	0.0745	999334	keystroke_r	r	n/a
499.7415	0.1345	999483	keystroke_o	o	n/a
499.966	0.06	999932	keystroke_s	s	n/a
500.521	0.09	1001042	keystroke_Key.backspace	Key.backspace	n/a
500.6565	0.0895	1001313	keystroke_r	r	n/a
500.911	0.135	1001822	keystroke_s	s	n/a
501.0305	0.105	1002061	keystroke_Key.space	Key.space	n/a
501.4655	0.075	1002931	keystroke_g	g	n/a
501.6605	0.121	1003321	keystroke_r	r	n/a
501.766	0.1645	1003532	keystroke_a	a	n/a
501.9455	0.105	1003891	keystroke_p	p	n/a
502.1405	0.09	1004281	keystroke_h	h	n/a
502.3655	0.105	1004731	keystroke_Key.space	Key.space	n/a
502.861	0.165	1005722	keystroke_c	c	n/a
502.996	0.105	1005992	keystroke_o	o	n/a
503.146	0.12	1006292	keystroke_n	n	n/a
503.311	0.105	1006622	keystroke_g	g	n/a
503.536	0.09	1007072	keystroke_r	r	n/a
503.686	0.18	1007372	keystroke_a	a	n/a
503.881	0.1205	1007762	keystroke_t	t	n/a
504.076	0.075	1008152	keystroke_u	u	n/a
504.3005	0.135	1008601	keystroke_l	l	n/a
504.4365	0.15	1008873	keystroke_a	a	n/a
504.6615	0.105	1009323	keystroke_t	t	n/a
504.7365	0.089	1009473	keystroke_i	i	n/a
504.7805	0.226	1009561	keystroke_o	o	n/a
504.9605	0.15	1009921	keystroke_n	n	n/a
505.1265	0.105	1010253	keystroke_s	s	n/a
505.576	0.1045	1011152	keystroke_Key.enter	Key.enter	n/a
505.687	10.391	1011374	prompt	n/a	qatar been arthritis needed\n
506.641	0.075	1013282	keystroke_q	q	n/a
506.701	0.075	1013402	keystroke_u	u	n/a
507.2405	0.09	1014481	keystroke_Key.backspace	Key.backspace	n/a
507.4965	0.134	1014993	keystroke_a	a	n/a
507.7955	0.06	1015591	keystroke_t	t	n/a
507.9315	0.134	1015863	keystroke_a	a	n/a
508.2005	0.105	1016401	keystroke_r	r	n/a
508.321	0.12	1016642	keystroke_Key.space	Key.space	n/a
509.101	0.09	1018202	keystroke_b	b	n/a
509.446	0.075	1018892	keystroke_e	e	n/a
509.641	0.105	1019282	keystroke_e	e	n/a
509.731	0.2105	1019462	keystroke_n	n	n/a
509.8665	0.164	1019733	keystroke_Key.space	Key.space	n/a
510.4055	0.1655	1020811	keystroke_a	a	n/a
510.766	0.0595	1021532	keystroke_r	r	n/a
511.0655	0.0905	1022131	keystroke_t	t	n/a
511.1855	0.0905	1022371	keystroke_h	h	n/a
511.4415	0.075	1022883	keystroke_r	r	n/a
511.5315	0.0745	1023063	keystroke_i	i	n/a
511.8455	0.0755	1023691	keystroke_t	t	n/a
511.9215	0.089	1023843	keystroke_i	i	n/a
512.0855	0.1505	1024171	keystroke_s	s	n/a
512.2505	0.1355	1024501	keystroke_Key.space	Key.space	n/a
512.5955	0.105	1025191	keystroke_m	m	n/a
512.896	0.06	1025792	keystroke_e	e	n/a
513.466	0.1345	1026932	keystroke_Key.backspace	Key.backspace	n/a
513.646	0.09	1027292	keystroke_Key.backspace	Key.backspace	n/a
513.811	0.09	1027622	keystroke_Key.backspace	Key.backspace	n/a
514.381	0.12	1028762	keystroke_Key.space	Key.space	n/a
514.576	0.12	1029152	keystroke_n	n	n/a
514.8005	0.06	1029601	keystroke_e	e	n/a
514.9955	0.075	1029991	keystroke_e	e	n/a
515.206	0.105	1030412	keystroke_d	d	n/a
515.4465	0.0745	1030893	keystroke_e	e	n/a
515.641	0.09	1031282	keystroke_d	d	n/a
515.971	0.105	1031942	keystroke_Key.enter	Key.enter	n/a
516.0855	11.2275	1032171	prompt	n/a	notebook christianity field denied\n
516.8265	0.089	1033653	keystroke_n	n	n/a
517.1265	0.12	1034253	keystroke_o	o	n/a
517.291	0.105	1034582	keystroke_t	t	n/a
517.471	0.135	1034942	keystroke_e	e	n/a
517.981	0.0145	1035962	keystroke_o	o	n/a
519.0605	0.0905	1038121	keystroke_Key.backspace	Key.backspace	n/a
519.3165	0.0895	1038633	keystroke_b	b	n/a
519.481	0.075	1038962	keystroke_o	o	n/a
519.6765	0.0745	1039353	keystroke_o	o	n/a
519.886	0.21	1039772	keystroke_k	k	n/a
520.0055	0.18	1040011	keystroke_Key.space	Key.space	n/a
520.3355	0.1355	1040671	keystroke_c	c	n/a
521.521	0.075	1043042	keystroke_h	h	n/a
522.166	0.075	1044332	keystroke_i	i	n/a
522.676	0.075	1045352	keystroke_Key.backspace	Key.backspace	n/a
522.887	0.074	1045774	keystroke_r	r	n/a
523.036	0.09	1046072	keystroke_i	i	n/a
523.186	0.1645	1046372	keystroke_s	s	n/a
523.4715	0.09	1046943	keystroke_t	t	n/a
523.5615	0.0735	1047123	keystroke_i	i	n/a
523.6815	0.1795	1047363	keystroke_a	a	n/a
523.8315	0.0895	1047663	keystroke_n	n	n/a
524.0105	0.09	1048021	keystroke_i	i	n/a
524.2365	0.105	1048473	keystroke_t	t	n/a
524.3255	0.075	1048651	keystroke_y	y	n/a
524.5055	0.1355	1049011	keystroke_Key.space	Key.space	n/a
524.9105	0.12	1049821	keystroke_f	f	n/a
525.016	0.075	1050032	keystroke_i	i	n/a
525.1965	0.104	1050393	keystroke_e	e	n/a
525.3155	0.09	1050631	keystroke_l	l	n/a
525.481	0.1195	1050962	keystroke_d	d	n/a
525.5855	0.15	1051171	keystroke_Key.space	Key.space	n/a
525.931	0.0895	1051862	keystroke_d	d	n/a
526.1405	0.1205	1052281	keystroke_e	e	n/a
526.2315	0.0895	1052463	keystroke_n	n	n/a
526.4115	0.104	1052823	keystroke_i	i	n/a
526.711	0.09	1053422	keystroke_e	e	n/a
526.936	0.105	1053872	keystroke_d	d	n/a
527.236	0.075	1054472	keystroke_Key.enter	Key.enter	n/a
527.3185	5.649	1054637	prompt	n/a	wolf broad it korean\n
528.2565	0.12	1056513	keystroke_w	w	n/a
528.3315	0.0745	1056663	keystroke_o	o	n/a
528.556	0.105	1057112	keystroke_l	l	n/a
528.706	0.12	1057412	keystroke_f	f	n/a
528.841	0.15	1057682	keystroke_Key.space	Key.space	n/a
529.681	0.105	1059362	keystroke_b	b	n/a
529.981	0.12	1059962	keystroke_r	r	n/a
530.086	0.1205	1060172	keystroke_o	o	n/a
530.176	0.1355	1060352	keystroke_a	a	n/a
530.4015	0.149	1060803	keystroke_d	d	n/a
530.581	0.135	1061162	keystroke_Key.space	Key.space	n/a
531.1205	0.121	1062241	keystroke_i	i	n/a
531.376	0.0755	1062752	keystroke_t	t	n/a
531.466	0.104	1062932	keystroke_Key.space	Key.space	n/a
531.676	0.0605	1063352	keystroke_k	k	n/a
531.856	0.105	1063712	keystroke_o	o	n/a
531.976	0.1955	1063952	keystroke_r	r	n/a
532.126	0.1205	1064252	keystroke_e	e	n/a
532.3665	0.15	1064733	keystroke_a	a	n/a
532.5165	0.089	1065033	keystroke_n	n	n/a
532.9055	0.06	1065811	keystroke_Key.enter	Key.enter	n/a
532.972	8.1405	1065944	prompt	n/a	their ticket known cosmetic\n
533.8665	0.104	1067733	keystroke_t	t	n/a
533.9565	0.06	1067913	keystroke_h	h	n/a
534.121	0.1195	1068242	keystroke_e	e	n/a
534.1955	0.1055	1068391	keystroke_i	i	n/a
534.3905	0.076	1068781	keystroke_r	r	n/a
534.4965	0.1345	1068993	keystroke_Key.space	Key.space	n/a
534.661	0.105	1069322	keystroke_t	t	n/a
534.781	0.06	1069562	keystroke_i	i	n/a
534.9615	0.135	1069923	keystroke_c	c	n/a
535.1415	0.045	1070283	keystroke_k	k	n/a
535.351	0.1355	1070702	keystroke_e	e	n/a
535.606	0.0745	1071212	keystroke_t	t	n/a
535.741	0.12	1071482	keystroke_Key.space	Key.space	n/a
535.966	0.06	1071932	keystroke_k	k	n/a
536.8955	0.105	1073791	keystroke_n	n	n/a
537.061	0.105	1074122	keystroke_o	o	n/a
537.2415	0.134	1074483	keystroke_w	w	n/a
537.4815	0.105	1074963	keystroke_n	n	n/a
537.7205	0.1355	1075441	keystroke_Key.space	Key.space	n/a
538.0355	0.105	1076071	keystroke_c	c	n/a
538.1705	0.06	1076341	keystroke_o	o	n/a
538.831	0.15	1077662	keystroke_s	s	n/a
539.146	0.105	1078292	keystroke_m	m	n/a
539.296	0.15	1078592	keystroke_e	e	n/a
539.566	0.09	1079132	keystroke_t	t	n/a
539.641	0.0595	1079282	keystroke_i	i	n/a
539.8365	0.12	1079673	keystroke_c	c	n/a
541.036	0.075	1082072	keystroke_Key.enter	Key.enter	n/a
541.1175	8.291	1082235	prompt	n/a	notebooks reset lady considerable\n
541.8765	0.0895	1083753	keystroke_n	n	n/a
542.056	0.105	1084112	keystroke_o	o	n/a
542.1915	0.105	1084383	keystroke_t	t	n/a
542.3415	0.1495	1084683	keystroke_e	e	n/a
543.0015	0.1045	1086003	keystroke_b	b	n/a
543.1215	0.0445	1086243	keystroke_o	o	n/a
543.286	0.074	1086572	keystroke_o	o	n/a
543.451	0.075	1086902	keystroke_k	k	n/a
543.6165	0.1495	1087233	keystroke_s	s	n/a
543.751	0.12	1087502	keystroke_Key.space	Key.space	n/a
543.961	0.1655	1087922	keystroke_r	r	n/a
544.051	0.135	1088102	keystroke_e	e	n/a
544.336	0.105	1088672	keystroke_s	s	n/a
544.9215	0.1945	1089843	keystroke_e	e	n/a
545.281	0.045	1090562	keystroke_t	t	n/a
545.371	0.105	1090742	keystroke_Key.space	Key.space	n/a
545.5365	0.12	1091073	keystroke_l	l	n/a
545.6105	0.136	1091221	keystroke_a	a	n/a
545.7915	0.195	1091583	keystroke_d	d	n/a
545.9565	0.09	1091913	keystroke_y	y	n/a
546.1815	0.1045	1092363	keystroke_Key.space	Key.space	n/a
546.3015	0.18	1092603	keystroke_c	c	n/a
546.4355	0.181	1092871	keystroke_o	o	n/a
546.5865	0.1045	1093173	keystroke_n	n	n/a
546.931	0.165	1093862	keystroke_s	s	n/a
547.126	0.075	1094252	keystroke_i	i	n/a
547.276	0.105	1094552	keystroke_d	d	n/a
548.1315	0.134	1096263	keystroke_e	e	n/a
548.2505	0.091	1096501	keystroke_r	r	n/a
548.446	0.1505	1096892	keystroke_a	a	n/a
548.686	0.1345	1097372	keystroke_b	b	n/a
548.8365	0.075	1097673	keystroke_l	l	n/a
548.9715	0.1495	1097943	keystroke_e	e	n/a
549.331	0.075	1098662	keystroke_Key.enter	Key.enter	n/a
549.413	9.5795	1098826	prompt	n/a	agent preventing it's fuzzy\n
550.0965	0.1645	1100193	keystroke_a	a	n/a
550.321	0.0895	1100642	keystroke_g	g	n/a
550.5155	0.1655	1101031	keystroke_e	e	n/a
550.621	0.09	1101242	keystroke_n	n	n/a
550.832	0.0745	1101664	keystroke_t	t	n/a
550.936	0.09	1101872	keystroke_Key.space	Key.space	n/a
551.1465	0.09	1102293	keystroke_p	p	n/a
551.221	0.12	1102442	keystroke_r	r	n/a
551.311	0.15	1102622	keystroke_e	e	n/a
551.626	0.1345	1103252	keystroke_v	v	n/a
551.8505	0.1955	1103701	keystroke_e	e	n/a
552.031	0.075	1104062	keystroke_n	n	n/a
552.4215	0.1045	1104843	keystroke_t	t	n/a
552.541	0.105	1105082	keystroke_i	i	n/a
552.721	0.09	1105442	keystroke_n	n	n/a
552.976	0.09	1105952	keystroke_Key.space	Key.space	n/a
553.171	0.075	1106342	keystroke_i	i	n/a
553.4105	0.076	1106821	keystroke_t	t	n/a
553.966	0.0595	1107932	keystroke_Key.backspace	Key.backspace	n/a
554.4005	0.0305	1108801	keystroke_Key.backspace	Key.backspace	n/a
554.566	0.06	1109132	keystroke_Key.backspace	Key.backspace	n/a
555.4205	0.046	1110841	keystroke_n	n	n/a
555.886	0.06	1111772	keystroke_Key.backspace	Key.backspace	n/a
556.111	0.0905	1112222	keystroke_g	g	n/a
556.275	0.106	1112550	keystroke_Key.space	Key.space	n/a
556.471	0.0745	1112942	keystroke_i	i	n/a
556.5905	0.1055	1113181	keystroke_t	t	n/a
557.401	0.0895	1114802	keystroke_'	'	n/a
557.5205	0.1205	1115041	keystroke_s	s	n/a
557.6555	0.1205	1115311	keystroke_Key.space	Key.space	n/a
557.8505	0.105	1115701	keystroke_f	f	n/a
557.9855	0.0755	1115971	keystroke_u	u	n/a
558.1955	0.09	1116391	keystroke_z	z	n/a
558.391	0.1195	1116782	keystroke_z	z	n/a
558.4955	0.09	1116991	keystroke_y	y	n/a
558.916	0.075	1117832	keystroke_Key.enter	Key.enter	n/a
558.9955	10.7075	1117991	prompt	n/a	richards week madison cove\n
559.8765	0.104	1119753	keystroke_r	r	n/a
559.9665	0.105	1119933	keystroke_i	i	n/a
560.1605	0.1355	1120321	keystroke_c	c	n/a
560.281	0.075	1120562	keystroke_h	h	n/a
560.401	0.195	1120802	keystroke_a	a	n/a
560.536	0.12	1121072	keystroke_r	r	n/a
560.761	0.1505	1121522	keystroke_d	d	n/a
560.971	0.15	1121942	keystroke_s	s	n/a
561.106	0.1495	1122212	keystroke_Key.space	Key.space	n/a
561.271	0.2395	1122542	keystroke_w	w	n/a
561.4505	0.2105	1122901	keystroke_e	e	n/a
561.8405	0.075	1123681	keystroke_e	e	n/a
562.0205	0.09	1124041	keystroke_e	e	n/a
562.1405	0.195	1124281	keystroke_k	k	n/a
562.3205	0.1505	1124641	keystroke_Key.space	Key.space	n/a
562.5155	0.105	1125031	keystroke_m	m	n/a
562.6215	0.15	1125243	keystroke_a	a	n/a
563.011	0.0445	1126022	keystroke_Key.backspace	Key.backspace	n/a
563.1755	0.0755	1126351	keystroke_Key.backspace	Key.backspace	n/a
563.3415	0.0445	1126683	keystroke_Key.backspace	Key.backspace	n/a
563.5055	0.045	1127011	keystroke_Key.backspace	Key.backspace	n/a
563.6705	0.06	1127341	keystroke_Key.backspace	Key.backspace	n/a
564.1515	0.0295	1128303	keystroke_k	k	n/a
564.346	0.12	1128692	keystroke_Key.space	Key.space	n/a
564.571	0.1195	1129142	keystroke_m	m	n/a
564.7055	0.1355	1129411	keystroke_a	a	n/a
565.066	0.1355	1130132	keystroke_d	d	n/a
565.2915	0.0595	1130583	keystroke_i	i	n/a
565.471	0.18	1130942	keystroke_s	s	n/a
565.591	0.2555	1131182	keystroke_o	o	n/a
565.681	0.2405	1131362	keystroke_n	n	n/a
565.831	0.1495	1131662	keystroke_Key.space	Key.space	n/a
566.626	0.075	1133252	keystroke_o	o	n/a
567.166	0.06	1134332	keystroke_Key.backspace	Key.backspace	n/a
567.4215	0.1645	1134843	keystroke_c	c	n/a
567.556	0.09	1135112	keystroke_o	o	n/a
567.766	0.1205	1135532	keystroke_v	v	n/a
567.991	0.24	1135982	keystroke_e	e	n/a
568.171	0.075	1136342	keystroke_r	r	n/a
569.251	0.0755	1138502	keystroke_Key.backspace	Key.backspace	n/a
569.626	0.075	1139252	keystroke_Key.enter	Key.enter	n/a
569.7075	7.6155	1139415	prompt	n/a	feedback celtic shakira syracuse\n
570.451	0.1055	1140902	keystroke_f	f	n/a
570.6315	0.105	1141263	keystroke_e	e	n/a
570.8415	0.0895	1141683	keystroke_e	e	n/a
571.051	0.1495	1142102	keystroke_d	d	n/a
571.351	0.1955	1142702	keystroke_b	b	n/a
571.6365	0.134	1143273	keystroke_a	a	n/a
571.9215	0.1645	1143843	keystroke_c	c	n/a
572.071	0.0895	1144142	keystroke_k	k	n/a
572.2505	0.135	1144501	keystroke_Key.space	Key.space	n/a
572.4465	0.1195	1144893	keystroke_c	c	n/a
572.731	0.1355	1145462	keystroke_e	e	n/a
572.8065	0.105	1145613	keystroke_l	l	n/a
573.106	0.06	1146212	keystroke_t	t	n/a
573.151	0.105	1146302	keystroke_i	i	n/a
573.391	0.12	1146782	keystroke_c	c	n/a
573.616	0.135	1147232	keystroke_Key.space	Key.space	n/a
573.961	0.1205	1147922	keystroke_s	s	n/a
574.096	0.09	1148192	keystroke_h	h	n/a
574.276	0.105	1148552	keystroke_a	a	n/a
574.471	0.0755	1148942	keystroke_k	k	n/a
574.6815	0.074	1149363	keystroke_i	i	n/a
574.786	0.105	1149572	keystroke_r	r	n/a
574.9965	0.1645	1149993	keystroke_a	a	n/a
575.131	0.165	1150262	keystroke_Key.space	Key.space	n/a
575.5365	0.1345	1151073	keystroke_s	s	n/a
575.701	0.09	1151402	keystroke_y	y	n/a
575.986	0.09	1151972	keystroke_r	r	n/a
576.151	0.0905	1152302	keystroke_a	a	n/a
576.361	0.135	1152722	keystroke_c	c	n/a
576.526	0.09	1153052	keystroke_u	u	n/a
576.7215	0.12	1153443	keystroke_s	s	n/a
576.9015	0.119	1153803	keystroke_e	e	n/a
577.2465	0.074	1154493	keystroke_Key.enter	Key.enter	n/a
577.327	11.831	1154654	prompt	n/a	numeric lions occurrence manufacture\n
578.1455	0.046	1156291	keystroke_n	n	n/a
578.341	0.0745	1156682	keystroke_u	u	n/a
578.566	0.1055	1157132	keystroke_m	m	n/a
578.701	0.15	1157402	keystroke_e	e	n/a
578.866	0.06	1157732	keystroke_r	r	n/a
578.956	0.075	1157912	keystroke_i	i	n/a
579.136	0.1195	1158272	keystroke_c	c	n/a
579.2855	0.121	1158571	keystroke_Key.space	Key.space	n/a
579.4665	0.1355	1158933	keystroke_l	l	n/a
579.6915	0.06	1159383	keystroke_i	i	n/a
579.961	0.03	1159922	keystroke_o	o	n/a
580.006	0.075	1160012	keystroke_n	n	n/a
580.2165	0.1045	1160433	keystroke_s	s	n/a
580.4705	0.15	1160941	keystroke_Key.space	Key.space	n/a
580.9965	0.119	1161993	keystroke_o	o	n/a
581.4765	0.0745	1162953	keystroke_c	c	n/a
581.671	0.09	1163342	keystroke_c	c	n/a
581.8515	0.075	1163703	keystroke_u	u	n/a
582.151	0.1355	1164302	keystroke_r	r	n/a
582.436	0.105	1164872	keystroke_r	r	n/a
582.661	0.18	1165322	keystroke_e	e	n/a
582.826	0.06	1165652	keystroke_n	n	n/a
583.336	0.12	1166672	keystroke_e	e	n/a
583.801	0.12	1167602	keystroke_Key.backspace	Key.backspace	n/a
583.9365	0.1195	1167873	keystroke_c	c	n/a
584.236	0.15	1168472	keystroke_e	e	n/a
584.416	0.12	1168832	keystroke_Key.space	Key.space	n/a
584.7305	0.1055	1169461	keystroke_m	m	n/a
584.866	0.18	1169732	keystroke_a	a	n/a
585.136	0.075	1170272	keystroke_u	u	n/a
586.5005	0.0905	1173001	keystroke_Key.backspace	Key.backspace	n/a
586.951	0.075	1173902	keystroke_n	n	n/a
587.206	0.12	1174412	keystroke_u	u	n/a
587.371	0.105	1174742	keystroke_f	f	n/a
587.5365	0.0595	1175073	keystroke_a	a	n/a
587.7165	0.165	1175433	keystroke_c	c	n/a
588.0465	0.089	1176093	keystroke_t	t	n/a
588.121	0.09	1176242	keystroke_u	u	n/a
588.2705	0.121	1176541	keystroke_r	r	n/a
588.3155	0.151	1176631	keystroke_e	e	n/a
589.081	0.075	1178162	keystroke_Key.enter	Key.enter	n/a
589.1635	8.049	1178327	prompt	n/a	investigated model kernel afford\n
590.0415	0.0595	1180083	keystroke_i	i	n/a
590.221	0.0905	1180442	keystroke_n	n	n/a
590.4315	0.104	1180863	keystroke_v	v	n/a
590.641	0.09	1181282	keystroke_e	e	n/a
590.8355	0.1805	1181671	keystroke_s	s	n/a
591.151	0.0755	1182302	keystroke_t	t	n/a
591.2115	0.0895	1182423	keystroke_i	i	n/a
591.4055	0.105	1182811	keystroke_g	g	n/a
591.5555	0.2105	1183111	keystroke_a	a	n/a
591.7965	0.1345	1183593	keystroke_t	t	n/a
591.946	0.135	1183892	keystroke_e	e	n/a
592.201	0.135	1184402	keystroke_d	d	n/a
592.291	0.12	1184582	keystroke_Key.space	Key.space	n/a
592.4865	0.105	1184973	keystroke_m	m	n/a
592.6355	0.1055	1185271	keystroke_o	o	n/a
592.7255	0.121	1185451	keystroke_d	d	n/a
592.981	0.1205	1185962	keystroke_e	e	n/a
593.056	0.2245	1186112	keystroke_l	l	n/a
593.191	0.1945	1186382	keystroke_Key.space	Key.space	n/a
593.7755	0.091	1187551	keystroke_k	k	n/a
593.9565	0.21	1187913	keystroke_e	e	n/a
594.1515	0.1195	1188303	keystroke_r	r	n/a
594.331	0.0745	1188662	keystroke_n	n	n/a
594.5115	0.105	1189023	keystroke_e	e	n/a
594.631	0.18	1189262	keystroke_l	l	n/a
594.751	0.18	1189502	keystroke_Key.space	Key.space	n/a
595.141	0.1645	1190282	keystroke_a	a	n/a
595.3215	0.104	1190643	keystroke_f	f	n/a
595.5305	0.105	1191061	keystroke_f	f	n/a
595.6815	0.1345	1191363	keystroke_o	o	n/a
595.801	0.0755	1191602	keystroke_r	r	n/a
596.1755	0.121	1192351	keystroke_d	d	n/a
597.106	0.105	1194212	keystroke_Key.enter	Key.enter	n/a
597.2185	24.564	1194437	prompt	n/a	favor predict concentration brunette\n
597.9455	0.1205	1195891	keystroke_f	f	n/a
598.366	0.135	1196732	keystroke_a	a	n/a
598.5755	0.12	1197151	keystroke_b	b	n/a
598.7405	0.105	1197481	keystroke_o	o	n/a
598.9055	0.135	1197811	keystroke_r	r	n/a
599.0255	0.135	1198051	keystroke_Key.space	Key.space	n/a
599.221	0.1345	1198442	keystroke_p	p	n/a
599.3265	0.1495	1198653	keystroke_r	r	n/a
599.4165	0.134	1198833	keystroke_e	e	n/a
599.7015	0.1345	1199403	keystroke_d	d	n/a
599.821	0.075	1199642	keystroke_i	i	n/a
600.001	0.1505	1200002	keystroke_c	c	n/a
600.781	0.06	1201562	keystroke_Key.backspace	Key.backspace	n/a
600.946	0.06	1201892	keystroke_Key.backspace	Key.backspace	n/a
601.1405	0.0455	1202281	keystroke_Key.backspace	Key.backspace	n/a
601.291	0.06	1202582	keystroke_Key.backspace	Key.backspace	n/a
601.456	0.06	1202912	keystroke_Key.backspace	Key.backspace	n/a
601.621	0.06	1203242	keystroke_Key.backspace	Key.backspace	n/a
601.785	0.0605	1203570	keystroke_Key.backspace	Key.backspace	n/a
601.9655	0.045	1203931	keystroke_Key.backspace	Key.backspace	n/a
602.1155	0.0605	1204231	keystroke_Key.backspace	Key.backspace	n/a
602.3405	0.105	1204681	keystroke_Key.backspace	Key.backspace	n/a
603.136	0.1205	1206272	keystroke_v	v	n/a
604.2915	0.0745	1208583	keystroke_o	o	n/a
604.4105	0.09	1208821	keystroke_r	r	n/a
604.5155	0.1505	1209031	keystroke_Key.space	Key.space	n/a
604.921	0.165	1209842	keystroke_r	r	n/a
605.026	0.2095	1210052	keystroke_e	e	n/a
605.431	0.105	1210862	keystroke_d	d	n/a
607.006	0.105	1214012	keystroke_Key.backspace	Key.backspace	n/a
607.6355	0.1055	1215271	keystroke_Key.backspace	Key.backspace	n/a
608.986	0.135	1217972	keystroke_Key.backspace	Key.backspace	n/a
609.916	0.1205	1219832	keystroke_p	p	n/a
610.2165	0.1645	1220433	keystroke_r	r	n/a
610.3065	0.119	1220613	keystroke_e	e	n/a
610.5755	0.105	1221151	keystroke_d	d	n/a
610.891	0.12	1221782	keystroke_c	c	n/a
612.2705	0.06	1224541	keystroke_Key.backspace	Key.backspace	n/a
612.5865	0.0895	1225173	keystroke_i	i	n/a
612.736	0.1505	1225472	keystroke_c	c	n/a
613.036	0.105	1226072	keystroke_t	t	n/a
613.696	0.12	1227392	keystroke_Key.space	Key.space	n/a
613.891	0.195	1227782	keystroke_c	c	n/a
614.0255	0.15	1228051	keystroke_o	o	n/a
614.1305	0.1355	1228261	keystroke_n	n	n/a
614.3105	0.09	1228621	keystroke_c	c	n/a
614.6565	0.09	1229313	keystroke_n	n	n/a
615.4965	0.1045	1230993	keystroke_Key.backspace	Key.backspace	n/a
615.7515	0.195	1231503	keystroke_e	e	n/a
615.9015	0.089	1231803	keystroke_n	n	n/a
616.096	0.0755	1232192	keystroke_t	t	n/a
616.2915	0.105	1232583	keystroke_r	r	n/a
616.441	0.1655	1232882	keystroke_a	a	n/a
616.681	0.1205	1233362	keystroke_t	t	n/a
616.786	0.0905	1233572	keystroke_i	i	n/a
616.8305	0.21	1233661	keystroke_o	o	n/a
616.9505	0.21	1233901	keystroke_n	n	n/a
617.1455	0.1055	1234291	keystroke_Key.space	Key.space	n/a
617.926	0.0605	1235852	keystroke_b	b	n/a
618.1665	0.12	1236333	keystroke_r	r	n/a
618.256	0.09	1236512	keystroke_u	u	n/a
618.511	0.1055	1237022	keystroke_n	n	n/a
618.6315	0.105	1237263	keystroke_e	e	n/a
619.4115	0.059	1238823	keystroke_t	t	n/a
620.2805	0.09	1240561	keystroke_t	t	n/a
620.4905	0.121	1240981	keystroke_e	e	n/a
621.676	0.105	1243352	keystroke_Key.enter	Key.enter	n/a
621.7875	11.8305	1243575	prompt	n/a	molecules tops directory verzeichnis\n
622.846	0.1355	1245692	keystroke_m	m	n/a
623.131	0.09	1246262	keystroke_o	o	n/a
623.3565	0.119	1246713	keystroke_l	l	n/a
623.506	0.0745	1247012	keystroke_e	e	n/a
623.776	0.1195	1247552	keystroke_c	c	n/a
623.8505	0.09	1247701	keystroke_u	u	n/a
624.091	0.1355	1248182	keystroke_l	l	n/a
624.2405	0.0755	1248481	keystroke_e	e	n/a
624.421	0.1945	1248842	keystroke_s	s	n/a
624.5565	0.134	1249113	keystroke_Key.space	Key.space	n/a
624.8415	0.09	1249683	keystroke_t	t	n/a
624.9015	0.105	1249803	keystroke_o	o	n/a
625.1565	0.0895	1250313	keystroke_p	p	n/a
625.246	0.1355	1250492	keystroke_s	s	n/a
625.366	0.12	1250732	keystroke_Key.space	Key.space	n/a
625.561	0.1955	1251122	keystroke_d	d	n/a
625.696	0.0755	1251392	keystroke_i	i	n/a
625.9665	0.134	1251933	keystroke_e	e	n/a
626.926	0.075	1253852	keystroke_Key.backspace	Key.backspace	n/a
627.061	0.1495	1254122	keystroke_r	r	n/a
627.1665	0.1195	1254333	keystroke_e	e	n/a
627.4355	0.165	1254871	keystroke_c	c	n/a
627.8265	0.0745	1255653	keystroke_t	t	n/a
627.9465	0.09	1255893	keystroke_o	o	n/a
628.0965	0.0895	1256193	keystroke_r	r	n/a
628.2465	0.089	1256493	keystroke_y	y	n/a
628.531	0.12	1257062	keystroke_Key.space	Key.space	n/a
629.8065	0.1195	1259613	keystroke_v	v	n/a
630.077	0.1945	1260154	keystroke_e	e	n/a
630.316	0.075	1260632	keystroke_r	r	n/a
630.6615	0.164	1261323	keystroke_z	z	n/a
630.9315	0.1345	1261863	keystroke_e	e	n/a
631.486	0.09	1262972	keystroke_i	i	n/a
632.176	0.1205	1264352	keystroke_c	c	n/a
632.401	0.075	1264802	keystroke_h	h	n/a
632.716	0.105	1265432	keystroke_n	n	n/a
632.926	0.1055	1265852	keystroke_i	i	n/a
633.061	0.1055	1266122	keystroke_s	s	n/a
633.511	0.105	1267022	keystroke_Key.enter	Key.enter	n/a
633.6255	6.653	1267251	prompt	n/a	trans postings cookies burns\n
634.426	0.09	1268852	keystroke_t	t	n/a
634.636	0.1055	1269272	keystroke_r	r	n/a
634.801	0.1505	1269602	keystroke_a	a	n/a
634.9665	0.0895	1269933	keystroke_n	n	n/a
635.1015	0.18	1270203	keystroke_s	s	n/a
635.2655	0.12	1270531	keystroke_Key.space	Key.space	n/a
635.5515	0.135	1271103	keystroke_p	p	n/a
635.6715	0.18	1271343	keystroke_o	o	n/a
635.8965	0.18	1271793	keystroke_s	s	n/a
636.2265	0.09	1272453	keystroke_t	t	n/a
636.3165	0.1495	1272633	keystroke_i	i	n/a
636.5115	0.0595	1273023	keystroke_n	n	n/a
636.661	0.045	1273322	keystroke_g	g	n/a
637.4265	0.1495	1274853	keystroke_Key.space	Key.space	n/a
637.771	0.165	1275542	keystroke_c	c	n/a
637.9205	0.0755	1275841	keystroke_o	o	n/a
638.1005	0.075	1276201	keystroke_o	o	n/a
638.3255	0.045	1276651	keystroke_k	k	n/a
638.5355	0.09	1277071	keystroke_i	i	n/a
638.641	0.09	1277282	keystroke_e	e	n/a
638.8365	0.164	1277673	keystroke_s	s	n/a
638.9715	0.104	1277943	keystroke_Key.space	Key.space	n/a
639.2115	0.075	1278423	keystroke_b	b	n/a
639.301	0.0745	1278602	keystroke_u	u	n/a
639.5265	0.105	1279053	keystroke_r	r	n/a
639.6615	0.105	1279323	keystroke_n	n	n/a
639.8715	0.149	1279743	keystroke_s	s	n/a
640.1865	0.0895	1280373	keystroke_Key.enter	Key.enter	n/a
640.2835	11.529	1280567	prompt	n/a	immigration some informational vulnerability\n
640.9805	0.06	1281961	keystroke_i	i	n/a
641.221	0.075	1282442	keystroke_m	m	n/a
641.401	0.0755	1282802	keystroke_m	m	n/a
641.566	0.09	1283132	keystroke_i	i	n/a
641.776	0.0755	1283552	keystroke_g	g	n/a
642.001	0.075	1284002	keystroke_r	r	n/a
642.106	0.18	1284212	keystroke_a	a	n/a
