onset	duration	sample	value	key	prompt_text
5.107	16.776	10214	prompt	n/a	the quick brown fox jumps over a lazy dog\n
8.391	0.058	16782	keystroke_t	t	n/a
8.449	0.09	16898	keystroke_h	h	n/a
8.584	0.12	17168	keystroke_e	e	n/a
8.764	0.105	17528	keystroke_Key.space	Key.space	n/a
8.959	0.105	17918	keystroke_q	q	n/a
9.065	0.0745	18130	keystroke_u	u	n/a
9.3795	0.105	18759	keystroke_i	i	n/a
9.5145	0.105	19029	keystroke_c	c	n/a
9.6345	0.075	19269	keystroke_k	k	n/a
9.7845	0.135	19569	keystroke_Key.space	Key.space	n/a
9.9045	0.0905	19809	keystroke_b	b	n/a
10.04	0.105	20080	keystroke_r	r	n/a
10.146	0.089	20292	keystroke_o	o	n/a
10.295	0.075	20590	keystroke_w	w	n/a
10.355	0.09	20710	keystroke_n	n	n/a
10.64	0.015	21280	keystroke_Key.space	Key.space	n/a
10.76	0.076	21520	keystroke_f	f	n/a
10.866	0.09	21732	keystroke_o	o	n/a
11.3005	0.0605	22601	keystroke_x	x	n/a
11.4355	0.12	22871	keystroke_Key.space	Key.space	n/a
11.6755	0.1055	23351	keystroke_j	j	n/a
12.396	0.075	24792	keystroke_u	u	n/a
12.576	0.075	25152	keystroke_m	m	n/a
12.711	0.105	25422	keystroke_o	o	n/a
12.846	0.075	25692	keystroke_s	s	n/a
12.951	0.105	25902	keystroke_Key.space	Key.space	n/a
13.071	0.075	26142	keystroke_o	o	n/a
13.161	0.06	26322	keystroke_v	v	n/a
13.3565	0.03	26713	keystroke_e	e	n/a
13.3715	0.09	26743	keystroke_r	r	n/a
13.4465	0.075	26893	keystroke_Key.space	Key.space	n/a
13.7315	0.075	27463	keystroke_a	a	n/a
14.2415	0.06	28483	keystroke_Key.backspace	Key.backspace	n/a
14.4065	0.0445	28813	keystroke_Key.backspace	Key.backspace	n/a
14.5875	0.06	29175	keystroke_Key.backspace	Key.backspace	n/a
14.7675	0.045	29535	keystroke_Key.backspace	Key.backspace	n/a
14.947	0.06	29894	keystroke_Key.backspace	Key.backspace	n/a
15.142	0.06	30284	keystroke_Key.backspace	Key.backspace	n/a
15.307	0.045	30614	keystroke_Key.backspace	Key.backspace	n/a
15.4715	0.076	30943	keystroke_Key.backspace	Key.backspace	n/a
15.877	0.075	31754	keystroke_Key.backspace	Key.backspace	n/a
16.1175	0.075	32235	keystroke_p	p	n/a
16.2975	0.09	32595	keystroke_s	s	n/a
16.4625	0.09	32925	keystroke_Key.space	Key.space	n/a
16.5975	0.075	33195	keystroke_i	i	n/a
16.7175	0.075	33435	keystroke_v	v	n/a
16.8825	0.061	33765	keystroke_e	e	n/a
16.9135	0.059	33827	keystroke_r	r	n/a
17.0175	0.03	34035	keystroke_Key.space	Key.space	n/a
17.2575	0.045	34515	keystroke_Key.backspace	Key.backspace	n/a
17.4225	0.045	34845	keystroke_Key.backspace	Key.backspace	n/a
17.5875	0.046	35175	keystroke_Key.backspace	Key.backspace	n/a
17.7385	0.075	35477	keystroke_Key.backspace	Key.backspace	n/a
17.9185	0.06	35837	keystroke_Key.backspace	Key.backspace	n/a
18.759	0.06	37518	keystroke_o	o	n/a
19.0435	0.06	38087	keystroke_v	v	n/a
19.1785	0.105	38357	keystroke_e	e	n/a
19.2385	0.105	38477	keystroke_r	r	n/a
19.3735	0.06	38747	keystroke_Key.space	Key.space	n/a
19.4785	0.075	38957	keystroke_a	a	n/a
19.5685	0.075	39137	keystroke_Key.space	Key.space	n/a
19.929	0.075	39858	keystroke_l	l	n/a
20.049	0.075	40098	keystroke_a	a	n/a
20.244	0.091	40488	keystroke_z	z	n/a
20.604	0.061	41208	keystroke_y	y	n/a
20.845	0.045	41690	keystroke_Key.space	Key.space	n/a
21.115	0.09	42230	keystroke_d	d	n/a
21.22	0.09	42440	keystroke_o	o	n/a
21.355	0.09	42710	keystroke_g	g	n/a
21.7455	0.135	43491	keystroke_Key.enter	Key.enter	n/a
21.8945	12.0985	43789	prompt	n/a	desirable increasingly certain utils\n
22.796	0.15	45592	keystroke_d	d	n/a
22.886	0.12	45772	keystroke_e	e	n/a
23.126	0.075	46252	keystroke_i	i	n/a
23.966	0.075	47932	keystroke_Key.backspace	Key.backspace	n/a
24.101	0.105	48202	keystroke_s	s	n/a
24.236	0.075	48472	keystroke_i	i	n/a
24.386	0.03	48772	keystroke_r	r	n/a
24.8375	0.1035	49675	keystroke_a	a	n/a
25.002	0.06	50004	keystroke_b	b	n/a
25.2125	0.09	50425	keystroke_l	l	n/a
25.317	0.105	50634	keystroke_e	e	n/a
25.4665	0.0905	50933	keystroke_Key.space	Key.space	n/a
25.587	0.1205	51174	keystroke_i	i	n/a
25.677	0.09	51354	keystroke_n	n	n/a
25.7965	0.091	51593	keystroke_c	c	n/a
26.0375	0.105	52075	keystroke_r	r	n/a
26.0975	0.075	52195	keystroke_e	e	n/a
26.4275	0.105	52855	keystroke_a	a	n/a
26.5325	0.105	53065	keystroke_d	d	n/a
26.8025	0.1205	53605	keystroke_i	i	n/a
27.148	0.105	54296	keystroke_n	n	n/a
27.628	0.06	55256	keystroke_Key.backspace	Key.backspace	n/a
27.778	0.075	55556	keystroke_Key.backspace	Key.backspace	n/a
28.094	0.059	56188	keystroke_s	s	n/a
28.273	0.03	56546	keystroke_Key.backspace	Key.backspace	n/a
28.424	0.06	56848	keystroke_Key.backspace	Key.backspace	n/a
28.574	0.09	57148	keystroke_s	s	n/a
28.694	0.135	57388	keystroke_i	i	n/a
28.784	0.105	57568	keystroke_n	n	n/a
28.919	0.09	57838	keystroke_g	g	n/a
29.384	0.105	58768	keystroke_l	l	n/a
29.954	0.0905	59908	keystroke_y	y	n/a
30.1945	0.09	60389	keystroke_Key.space	Key.space	n/a
30.3745	0.09	60749	keystroke_c	c	n/a
30.5395	0.135	61079	keystroke_e	e	n/a
30.5845	0.135	61169	keystroke_r	r	n/a
31.08	0.09	62160	keystroke_t	t	n/a
31.3045	0.075	62609	keystroke_a	a	n/a
31.4395	0.166	62879	keystroke_i	i	n/a
31.5905	0.165	63181	keystroke_n	n	n/a
31.8605	0.075	63721	keystroke_Key.space	Key.space	n/a
32.5655	0.075	65131	keystroke_u	u	n/a
32.6705	0.12	65341	keystroke_t	t	n/a
33.1805	0.06	66361	keystroke_i	i	n/a
33.4055	0.06	66811	keystroke_l	l	n/a
33.5705	0.106	67141	keystroke_s	s	n/a
33.856	0.135	67712	keystroke_Key.enter	Key.enter	n/a
33.996	8.3405	67992	prompt	n/a	nails informative miami stocks\n
34.8315	0.06	69663	keystroke_n	n	n/a
34.9515	0.1205	69903	keystroke_a	a	n/a
35.222	0.06	70444	keystroke_i	i	n/a
35.447	0.075	70894	keystroke_l	l	n/a
35.5815	0.075	71163	keystroke_s	s	n/a
35.7315	0.075	71463	keystroke_Key.space	Key.space	n/a
35.8815	0.135	71763	keystroke_i	i	n/a
36.0315	0.105	72063	keystroke_n	n	n/a
36.2715	0.105	72543	keystroke_f	f	n/a
36.4675	0.104	72935	keystroke_o	o	n/a
36.6165	0.106	73233	keystroke_r	r	n/a
36.7675	0.105	73535	keystroke_m	m	n/a
36.9025	0.105	73805	keystroke_a	a	n/a
37.1275	0.09	74255	keystroke_t	t	n/a
37.2325	0.09	74465	keystroke_i	i	n/a
37.5025	0.105	75005	keystroke_e	e	n/a
37.878	0.03	75756	keystroke_Key.backspace	Key.backspace	n/a
37.968	0.12	75936	keystroke_v	v	n/a
38.073	0.105	76146	keystroke_e	e	n/a
38.238	0.15	76476	keystroke_Key.space	Key.space	n/a
38.403	0.0745	76806	keystroke_m	m	n/a
38.4925	0.121	76985	keystroke_i	i	n/a
38.7035	0.105	77407	keystroke_a	a	n/a
38.8385	0.06	77677	keystroke_n	n	n/a
38.9735	0.0895	77947	keystroke_i	i	n/a
39.483	0.06	78966	keystroke_Key.backspace	Key.backspace	n/a
39.6485	0.06	79297	keystroke_Key.backspace	Key.backspace	n/a
39.8585	0.09	79717	keystroke_m	m	n/a
40.039	0.045	80078	keystroke_i	i	n/a
40.264	0.06	80528	keystroke_Key.space	Key.space	n/a
40.399	0.105	80798	keystroke_s	s	n/a
41.284	0.09	82568	keystroke_t	t	n/a
41.495	0.0435	82990	keystroke_o	o	n/a
41.6595	0.105	83319	keystroke_c	c	n/a
41.7795	0.0905	83559	keystroke_k	k	n/a
41.9595	0.075	83919	keystroke_s	s	n/a
42.1995	0.1355	84399	keystroke_Key.enter	Key.enter	n/a
42.3405	6.7325	84681	prompt	n/a	funny paid patches craig\n
43.445	0.1045	86890	keystroke_f	f	n/a
43.5945	0.076	87189	keystroke_u	u	n/a
43.7745	0.045	87549	keystroke_n	n	n/a
43.9245	0.061	87849	keystroke_n	n	n/a
44.1355	0.0895	88271	keystroke_y	y	n/a
44.3305	0.075	88661	keystroke_Key.space	Key.space	n/a
44.4805	0.12	88961	keystroke_p	p	n/a
44.6305	0.135	89261	keystroke_a	a	n/a
44.8555	0.105	89711	keystroke_i	i	n/a
45.141	0.1345	90282	keystroke_d	d	n/a
45.6955	0.075	91391	keystroke_Key.space	Key.space	n/a
45.8605	0.09	91721	keystroke_p	p	n/a
45.9655	0.1055	91931	keystroke_a	a	n/a
46.176	0.12	92352	keystroke_t	t	n/a
46.4315	0.12	92863	keystroke_c	c	n/a
46.5515	0.06	93103	keystroke_h	h	n/a
46.6715	0.045	93343	keystroke_e	e	n/a
46.8365	0.105	93673	keystroke_s	s	n/a
46.9865	0.12	93973	keystroke_Key.space	Key.space	n/a
47.721	0.075	95442	keystroke_c	c	n/a
47.917	0.0745	95834	keystroke_r	r	n/a
48.096	0.09	96192	keystroke_a	a	n/a
48.411	0.135	96822	keystroke_i	i	n/a
48.606	0.075	97212	keystroke_g	g	n/a
48.951	0.12	97902	keystroke_Key.enter	Key.enter	n/a
49.0765	8.4255	98153	prompt	n/a	attached button players archives\n
49.7915	0.09	99583	keystroke_a	a	n/a
49.9565	0.0745	99913	keystroke_t	t	n/a
50.136	0.06	100272	keystroke_t	t	n/a
50.256	0.09	100512	keystroke_a	a	n/a
50.421	0.105	100842	keystroke_c	c	n/a
50.5705	0.106	101141	keystroke_k	k	n/a
50.6605	0.06	101321	keystroke_e	e	n/a
50.8565	0.074	101713	keystroke_d	d	n/a
50.9905	0.09	101981	keystroke_Key.space	Key.space	n/a
51.2615	0.105	102523	keystroke_b	b	n/a
51.3815	0.1195	102763	keystroke_u	u	n/a
51.561	0.09	103122	keystroke_t	t	n/a
51.726	0.09	103452	keystroke_t	t	n/a
51.801	0.15	103602	keystroke_o	o	n/a
52.341	0.105	104682	keystroke_n	n	n/a
52.5655	0.06	105131	keystroke_Key.space	Key.space	n/a
52.731	0.09	105462	keystroke_o	o	n/a
53.2105	0.09	106421	keystroke_Key.backspace	Key.backspace	n/a
53.5705	0.09	107141	keystroke_p	p	n/a
53.7955	0.0895	107591	keystroke_l	l	n/a
53.975	0.1055	107950	keystroke_a	a	n/a
54.47	0.075	108940	keystroke_y	y	n/a
54.62	0.12	109240	keystroke_e	e	n/a
54.71	0.075	109420	keystroke_r	r	n/a
54.905	0.105	109810	keystroke_s	s	n/a
55.055	0.076	110110	keystroke_Key.space	Key.space	n/a
55.161	0.105	110322	keystroke_a	a	n/a
55.5205	0.1045	111041	keystroke_r	r	n/a
56.3305	0.1055	112661	keystroke_c	c	n/a
56.451	0.0895	112902	keystroke_h	h	n/a
56.5705	0.105	113141	keystroke_i	i	n/a
56.7205	0.12	113441	keystroke_v	v	n/a
56.8855	0.075	113771	keystroke_e	e	n/a
57.095	0.09	114190	keystroke_s	s	n/a
57.4105	0.09	114821	keystroke_Key.enter	Key.enter	n/a
57.512	11.479	115024	prompt	n/a	markers evans affects interpretation\n
58.16	0.09	116320	keystroke_m	m	n/a
58.295	0.12	116590	keystroke_a	a	n/a
58.416	0.12	116832	keystroke_r	r	n/a
58.55	0.1045	117100	keystroke_k	k	n/a
58.6695	0.075	117339	keystroke_e	e	n/a
58.6995	0.106	117399	keystroke_r	r	n/a
58.9105	0.075	117821	keystroke_s	s	n/a
59.27	0.105	118540	keystroke_Key.space	Key.space	n/a
59.465	0.0745	118930	keystroke_e	e	n/a
59.6745	0.105	119349	keystroke_x	x	n/a
60.29	0.075	120580	keystroke_Key.backspace	Key.backspace	n/a
60.47	0.045	120940	keystroke_v	v	n/a
61.07	0.075	122140	keystroke_a	a	n/a
61.19	0.075	122380	keystroke_n	n	n/a
61.31	0.105	122620	keystroke_s	s	n/a
61.445	0.105	122890	keystroke_Key.space	Key.space	n/a
62.12	0.045	124240	keystroke_a	a	n/a
62.36	0.0895	124720	keystroke_f	f	n/a
62.5995	0.06	125199	keystroke_f	f	n/a
62.7195	0.09	125439	keystroke_e	e	n/a
63.0045	0.09	126009	keystroke_c	c	n/a
63.2745	0.0895	126549	keystroke_t	t	n/a
64.159	0.09	128318	keystroke_s	s	n/a
64.444	0.12	128888	keystroke_Key.space	Key.space	n/a
64.805	0.12	129610	keystroke_i	i	n/a
64.91	0.134	129820	keystroke_n	n	n/a
65.029	0.105	130058	keystroke_t	t	n/a
65.7795	0.105	131559	keystroke_e	e	n/a
65.8545	0.105	131709	keystroke_r	r	n/a
65.989	0.1205	131978	keystroke_p	p	n/a
66.2595	0.1195	132519	keystroke_r	r	n/a
66.7245	0.09	133449	keystroke_a	a	n/a
67.0395	0.105	134079	keystroke_Key.backspace	Key.backspace	n/a
67.1595	0.105	134319	keystroke_e	e	n/a
67.3095	0.06	134619	keystroke_t	t	n/a
67.5045	0.06	135009	keystroke_a	a	n/a
67.6095	0.1045	135219	keystroke_t	t	n/a
67.729	0.12	135458	keystroke_i	i	n/a
67.954	0.165	135908	keystroke_o	o	n/a
68.134	0.105	136268	keystroke_n	n	n/a
68.8395	0.1495	137679	keystroke_Key.enter	Key.enter	n/a
69.0015	8.644	138003	prompt	n/a	criterion supported builds exceptions\n
69.7095	0.105	139419	keystroke_c	c	n/a
69.979	0.09	139958	keystroke_i	i	n/a
70.1735	0.075	140347	keystroke_r	r	n/a
70.3685	0.105	140737	keystroke_t	t	n/a
70.5935	0.09	141187	keystroke_e	e	n/a
70.6535	0.121	141307	keystroke_r	r	n/a
70.7885	0.091	141577	keystroke_i	i	n/a
71.0435	0.165	142087	keystroke_o	o	n/a
71.2385	0.1055	142477	keystroke_n	n	n/a
71.494	0.12	142988	keystroke_Key.space	Key.space	n/a
71.8385	0.09	143677	keystroke_s	s	n/a
71.9435	0.105	143887	keystroke_u	u	n/a
72.2135	0.03	144427	keystroke_p	p	n/a
72.3185	0.09	144637	keystroke_p	p	n/a
72.4685	0.105	144937	keystroke_o	o	n/a
72.6485	0.12	145297	keystroke_r	r	n/a
72.7085	0.12	145417	keystroke_t	t	n/a
72.9185	0.075	145837	keystroke_e	e	n/a
73.0985	0.1055	146197	keystroke_d	d	n/a
73.2485	0.09	146497	keystroke_Key.space	Key.space	n/a
73.938	0.09	147876	keystroke_b	b	n/a
74.058	0.121	148116	keystroke_u	u	n/a
74.329	0.09	148658	keystroke_i	i	n/a
74.6135	0.09	149227	keystroke_l	l	n/a
74.764	0.15	149528	keystroke_d	d	n/a
74.944	0.0895	149888	keystroke_Key.space	Key.space	n/a
75.094	0.0895	150188	keystroke_e	e	n/a
75.3035	0.075	150607	keystroke_x	x	n/a
76.0835	0.15	152167	keystroke_c	c	n/a
76.293	0.0745	152586	keystroke_e	e	n/a
76.3975	0.106	152795	keystroke_p	p	n/a
76.5785	0.09	153157	keystroke_t	t	n/a
76.6835	0.12	153367	keystroke_i	i	n/a
76.8935	0.105	153787	keystroke_o	o	n/a
76.9685	0.1495	153937	keystroke_n	n	n/a
77.2535	0.1345	154507	keystroke_s	s	n/a
77.508	0.135	155016	keystroke_Key.enter	Key.enter	n/a
77.6505	10.0285	155301	prompt	n/a	lined commonwealth invalid richards\n
79.0525	0.09	158105	keystroke_l	l	n/a
79.2625	0.121	158525	keystroke_i	i	n/a
79.3535	0.12	158707	keystroke_n	n	n/a
79.4585	0.09	158917	keystroke_e	e	n/a
79.6685	0.09	159337	keystroke_d	d	n/a
79.818	0.12	159636	keystroke_Key.space	Key.space	n/a
80.0125	0.135	160025	keystroke_c	c	n/a
80.1335	0.104	160267	keystroke_o	o	n/a
80.283	0.045	160566	keystroke_m	m	n/a
80.403	0.1045	160806	keystroke_m	m	n/a
80.5975	0.15	161195	keystroke_o	o	n/a
80.7325	0.09	161465	keystroke_n	n	n/a
80.9275	0.105	161855	keystroke_w	w	n/a
82.097	0.135	164194	keystroke_e	e	n/a
82.202	0.106	164404	keystroke_a	a	n/a
82.368	0.12	164736	keystroke_l	l	n/a
82.503	0.12	165006	keystroke_t	t	n/a
82.638	0.105	165276	keystroke_h	h	n/a
82.908	0.12	165816	keystroke_Key.space	Key.space	n/a
83.3725	0.09	166745	keystroke_i	i	n/a
84.1375	0.06	168275	keystroke_b	b	n/a
84.6925	0.0895	169385	keystroke_Key.backspace	Key.backspace	n/a
84.947	0.075	169894	keystroke_n	n	n/a
85.127	0.09	170254	keystroke_v	v	n/a
85.277	0.121	170554	keystroke_a	a	n/a
85.413	0.075	170826	keystroke_l	l	n/a
85.578	0.09	171156	keystroke_i	i	n/a
85.713	0.1045	171426	keystroke_d	d	n/a
85.9225	0.0595	171845	keystroke_Key.space	Key.space	n/a
86.6125	0.06	173225	keystroke_r	r	n/a
86.7325	0.09	173465	keystroke_i	i	n/a
86.8525	0.105	173705	keystroke_c	c	n/a
87.0025	0.045	174005	keystroke_h	h	n/a
87.0175	0.12	174035	keystroke_a	a	n/a
87.1075	0.105	174215	keystroke_r	r	n/a
87.3175	0.09	174635	keystroke_d	d	n/a
87.3925	0.105	174785	keystroke_s	s	n/a
87.5425	0.135	175085	keystroke_Key.enter	Key.enter	n/a
87.682	8.126	175364	prompt	n/a	sending novelty although fighting\n
88.457	0.075	176914	keystroke_s	s	n/a
88.667	0.075	177334	keystroke_e	e	n/a
88.787	0.075	177574	keystroke_n	n	n/a
88.877	0.1195	177754	keystroke_d	d	n/a
88.9815	0.12	177963	keystroke_i	i	n/a
89.0565	0.105	178113	keystroke_n	n	n/a
89.1765	0.0905	178353	keystroke_g	g	n/a
89.2815	0.105	178563	keystroke_Key.space	Key.space	n/a
89.5675	0.06	179135	keystroke_n	n	n/a
89.822	0.105	179644	keystroke_o	o	n/a
89.9715	0.105	179943	keystroke_v	v	n/a
90.1375	0.1045	180275	keystroke_e	e	n/a
90.302	0.09	180604	keystroke_l	l	n/a
90.9015	0.1345	181803	keystroke_t	t	n/a
92.252	0.089	184504	keystroke_y	y	n/a
92.477	0.075	184954	keystroke_Key.space	Key.space	n/a
92.567	0.09	185134	keystroke_a	a	n/a
92.702	0.09	185404	keystroke_l	l	n/a
92.882	0.1195	185764	keystroke_t	t	n/a
93.0165	0.045	186033	keystroke_h	h	n/a
93.1815	0.105	186363	keystroke_o	o	n/a
93.2565	0.075	186513	keystroke_u	u	n/a
93.4515	0.105	186903	keystroke_g	g	n/a
93.6015	0.0745	187203	keystroke_h	h	n/a
94.1715	0.105	188343	keystroke_Key.space	Key.space	n/a
94.621	0.09	189242	keystroke_f	f	n/a
94.696	0.09	189392	keystroke_i	i	n/a
94.831	0.1055	189662	keystroke_g	g	n/a
94.906	0.0755	189812	keystroke_h	h	n/a
95.0265	0.105	190053	keystroke_t	t	n/a
95.1165	0.0745	190233	keystroke_i	i	n/a
95.1465	0.105	190293	keystroke_n	n	n/a
95.266	0.09	190532	keystroke_g	g	n/a
95.671	0.135	191342	keystroke_Key.enter	Key.enter	n/a
95.811	8.831	191622	prompt	n/a	formats python chemicals investors\n
96.6615	0.06	193323	keystroke_f	f	n/a
96.7215	0.105	193443	keystroke_o	o	n/a
96.8415	0.1045	193683	keystroke_r	r	n/a
96.946	0.105	193892	keystroke_m	m	n/a
97.036	0.075	194072	keystroke_a	a	n/a
97.171	0.09	194342	keystroke_t	t	n/a
97.4865	0.1195	194973	keystroke_s	s	n/a
97.666	0.09	195332	keystroke_Key.space	Key.space	n/a
97.861	0.09	195722	keystroke_p	p	n/a
98.416	0.075	196832	keystroke_y	y	n/a
98.656	0.09	197312	keystroke_t	t	n/a
98.851	0.075	197702	keystroke_h	h	n/a
99.0305	0.15	198061	keystroke_o	o	n/a
99.2415	0.1345	198483	keystroke_n	n	n/a
99.6455	0.105	199291	keystroke_Key.space	Key.space	n/a
99.8705	0.12	199741	keystroke_c	c	n/a
100.501	0.09	201002	keystroke_h	h	n/a
100.681	0.135	201362	keystroke_e	e	n/a
100.801	0.09	201602	keystroke_m	m	n/a
100.951	0.105	201902	keystroke_i	i	n/a
101.131	0.0745	202262	keystroke_c	c	n/a
101.1905	0.105	202381	keystroke_a	a	n/a
101.3105	0.12	202621	keystroke_l	l	n/a
101.4755	0.105	202951	keystroke_s	s	n/a
101.7455	0.09	203491	keystroke_Key.space	Key.space	n/a
101.955	0.105	203910	keystroke_i	i	n/a
102.045	0.136	204090	keystroke_n	n	n/a
102.316	0.09	204632	keystroke_v	v	n/a
102.466	0.075	204932	keystroke_e	e	n/a
102.661	0.0595	205322	keystroke_s	s	n/a
102.8555	0.06	205711	keystroke_t	t	n/a
103.0655	0.105	206131	keystroke_r	r	n/a
103.531	0.06	207062	keystroke_Key.backspace	Key.backspace	n/a
103.7255	0.075	207451	keystroke_o	o	n/a
103.8905	0.09	207781	keystroke_r	r	n/a
104.2655	0.09	208531	keystroke_s	s	n/a
104.491	0.1495	208982	keystroke_Key.enter	Key.enter	n/a
104.6455	12.1005	209291	prompt	n/a	trustee resolutions singing developmental\n
105.63	0.075	211260	keystroke_t	t	n/a
105.66	0.105	211320	keystroke_r	r	n/a
105.81	0.0755	211620	keystroke_u	u	n/a
105.9455	0.09	211891	keystroke_s	s	n/a
106.185	0.12	212370	keystroke_t	t	n/a
106.41	0.06	212820	keystroke_e	e	n/a
106.56	0.105	213120	keystroke_e	e	n/a
106.7105	0.12	213421	keystroke_Key.space	Key.space	n/a
106.9655	0.1045	213931	keystroke_r	r	n/a
107.01	0.105	214020	keystroke_e	e	n/a
107.2195	0.091	214439	keystroke_s	s	n/a
107.3555	0.059	214711	keystroke_o	o	n/a
107.94	0.105	215880	keystroke_l	l	n/a
108.8695	0.09	217739	keystroke_u	u	n/a
109.0345	0.105	218069	keystroke_t	t	n/a
109.59	0.09	219180	keystroke_i	i	n/a
109.74	0.15	219480	keystroke_o	o	n/a
109.86	0.12	219720	keystroke_n	n	n/a
109.995	0.1345	219990	keystroke_s	s	n/a
110.1445	0.105	220289	keystroke_Key.space	Key.space	n/a
110.2945	0.075	220589	keystroke_s	s	n/a
110.3845	0.135	220769	keystroke_i	i	n/a
110.5345	0.075	221069	keystroke_n	n	n/a
110.6545	0.105	221309	keystroke_g	g	n/a
110.7745	0.1195	221549	keystroke_i	i	n/a
110.8495	0.1045	221699	keystroke_n	n	n/a
110.984	0.106	221968	keystroke_g	g	n/a
111.18	0.1045	222360	keystroke_Key.space	Key.space	n/a
112.275	0.0745	224550	keystroke_d	d	n/a
112.3345	0.105	224669	keystroke_e	e	n/a
112.6045	0.03	225209	keystroke_v	v	n/a
112.6645	0.075	225329	keystroke_e	e	n/a
112.814	0.075	225628	keystroke_l	l	n/a
113.025	0.014	226050	keystroke_i	i	n/a
113.6995	0.09	227399	keystroke_Key.backspace	Key.backspace	n/a
114.0445	0.0905	228089	keystroke_p	p	n/a
114.4795	0.09	228959	keystroke_Key.backspace	Key.backspace	n/a
114.9145	0.15	229829	keystroke_o	o	n/a
115.0045	0.1045	230009	keystroke_p	p	n/a
115.394	0.105	230788	keystroke_m	m	n/a
115.559	0.09	231118	keystroke_e	e	n/a
115.694	0.091	231388	keystroke_n	n	n/a
115.86	0.0895	231720	keystroke_t	t	n/a
116.084	0.06	232168	keystroke_a	a	n/a
116.129	0.15	232258	keystroke_l	l	n/a
116.594	0.1495	233188	keystroke_Key.enter	Key.enter	n/a
116.749	9.866	233498	prompt	n/a	accepting stanford renewable generally\n
117.4495	0.1045	234899	keystroke_a	a	n/a
117.629	0.075	235258	keystroke_c	c	n/a
117.809	0.105	235618	keystroke_c	c	n/a
117.884	0.105	235768	keystroke_e	e	n/a
118.019	0.1195	236038	keystroke_p	p	n/a
118.1695	0.074	236339	keystroke_t	t	n/a
118.2885	0.12	236577	keystroke_i	i	n/a
118.3645	0.105	236729	keystroke_n	n	n/a
118.4545	0.075	236909	keystroke_g	g	n/a
118.6335	0.045	237267	keystroke_Key.space	Key.space	n/a
118.7835	0.075	237567	keystroke_s	s	n/a
119.2045	0.06	238409	keystroke_t	t	n/a
119.3985	0.0905	238797	keystroke_a	a	n/a
119.519	0.0895	239038	keystroke_n	n	n/a
120.014	0.09	240028	keystroke_f	f	n/a
120.149	0.135	240298	keystroke_i	i	n/a
120.344	0.09	240688	keystroke_r	r	n/a
120.6885	0.06	241377	keystroke_Key.backspace	Key.backspace	n/a
120.8385	0.06	241677	keystroke_Key.backspace	Key.backspace	n/a
121.0035	0.06	242007	keystroke_o	o	n/a
121.0485	0.0905	242097	keystroke_r	r	n/a
122.038	0.09	244076	keystroke_d	d	n/a
122.369	0.075	244738	keystroke_Key.space	Key.space	n/a
122.534	0.105	245068	keystroke_r	r	n/a
122.624	0.105	245248	keystroke_e	e	n/a
122.909	0.0745	245818	keystroke_n	n	n/a
123.1335	0.09	246267	keystroke_e	e	n/a
123.2085	0.09	246417	keystroke_w	w	n/a
123.4635	0.075	246927	keystroke_a	a	n/a
123.5535	0.105	247107	keystroke_b	b	n/a
123.7785	0.12	247557	keystroke_l	l	n/a
123.9585	0.105	247917	keystroke_e	e	n/a
124.678	0.09	249356	keystroke_Key.space	Key.space	n/a
125.038	0.0605	250076	keystroke_g	g	n/a
125.1735	0.105	250347	keystroke_e	e	n/a
125.2935	0.09	250587	keystroke_n	n	n/a
125.4135	0.105	250827	keystroke_e	e	n/a
125.4735	0.105	250947	keystroke_r	r	n/a
125.6235	0.09	251247	keystroke_a	a	n/a
125.7285	0.06	251457	keystroke_l	l	n/a
125.8785	0.06	251757	keystroke_l	l	n/a
126.1185	0.105	252237	keystroke_y	y	n/a
126.5235	0.09	253047	keystroke_Key.enter	Key.enter	n/a
126.619	6.5205	253238	prompt	n/a	terms track potato prague\n
127.454	0.075	254908	keystroke_t	t	n/a
127.6185	0.09	255237	keystroke_e	e	n/a
127.6635	0.105	255327	keystroke_r	r	n/a
127.7835	0.0595	255567	keystroke_m	m	n/a
127.888	0.09	255776	keystroke_s	s	n/a
128.008	0.105	256016	keystroke_Key.space	Key.space	n/a
128.278	0.09	256556	keystroke_t	t	n/a
128.338	0.1045	256676	keystroke_r	r	n/a
128.5485	0.074	257097	keystroke_a	a	n/a
128.6385	0.134	257277	keystroke_c	c	n/a
128.8335	0.0895	257667	keystroke_k	k	n/a
129.1625	0.06	258325	keystroke_Key.space	Key.space	n/a
129.3275	0.105	258655	keystroke_p	p	n/a
129.5075	0.09	259015	keystroke_o	o	n/a
129.6725	0.106	259345	keystroke_t	t	n/a
129.8835	0.0895	259767	keystroke_a	a	n/a
130.033	0.1195	260066	keystroke_t	t	n/a
130.2725	0.0605	260545	keystroke_o	o	n/a
130.962	0.076	261924	keystroke_Key.space	Key.space	n/a
131.113	0.12	262226	keystroke_p	p	n/a
131.218	0.105	262436	keystroke_r	r	n/a
131.593	0.075	263186	keystroke_a	a	n/a
132.2525	0.075	264505	keystroke_g	g	n/a
132.4175	0.0745	264835	keystroke_u	u	n/a
132.552	0.076	265104	keystroke_e	e	n/a
133.018	0.12	266036	keystroke_Key.enter	Key.enter	n/a
133.1425	9.431	266285	prompt	n/a	emerging organized voyuer thai\n
133.8575	0.09	267715	keystroke_e	e	n/a
133.992	0.09	267984	keystroke_m	m	n/a
134.097	0.12	268194	keystroke_e	e	n/a
134.187	0.105	268374	keystroke_r	r	n/a
134.398	0.119	268796	keystroke_g	g	n/a
134.653	0.09	269306	keystroke_i	i	n/a
134.698	0.1195	269396	keystroke_n	n	n/a
134.8775	0.09	269755	keystroke_g	g	n/a
135.0125	0.09	270025	keystroke_Key.space	Key.space	n/a
135.1925	0.105	270385	keystroke_o	o	n/a
135.3275	0.105	270655	keystroke_r	r	n/a
135.5525	0.075	271105	keystroke_g	g	n/a
135.732	0.075	271464	keystroke_a	a	n/a
135.852	0.0905	271704	keystroke_n	n	n/a
136.1675	0.09	272335	keystroke_i	i	n/a
136.3325	0.105	272665	keystroke_z	z	n/a
136.5725	0.09	273145	keystroke_a	a	n/a
136.902	0.075	273804	keystroke_e	e	n/a
137.262	0.045	274524	keystroke_Key.backspace	Key.backspace	n/a
137.3975	0.09	274795	keystroke_Key.backspace	Key.backspace	n/a
137.5325	0.075	275065	keystroke_e	e	n/a
137.712	0.105	275424	keystroke_d	d	n/a
137.877	0.1055	275754	keystroke_Key.space	Key.space	n/a
138.732	0.105	277464	keystroke_v	v	n/a
138.867	0.09	277734	keystroke_o	o	n/a
139.0915	0.09	278183	keystroke_y	y	n/a
139.977	0.0745	279954	keystroke_u	u	n/a
140.2915	0.165	280583	keystroke_e	e	n/a
140.4115	0.12	280823	keystroke_r	r	n/a
140.8625	0.09	281725	keystroke_Key.space	Key.space	n/a
141.3715	0.105	282743	keystroke_t	t	n/a
141.4915	0.075	282983	keystroke_h	h	n/a
141.746	0.016	283492	keystroke_a	a	n/a
141.792	0.075	283584	keystroke_i	i	n/a
142.452	0.1195	284904	keystroke_Key.enter	Key.enter	n/a
142.5765	8.8615	285153	prompt	n/a	plastic dans nasdaq approaches\n
143.3515	0.09	286703	keystroke_p	p	n/a
143.5765	0.0905	287153	keystroke_l	l	n/a
143.7715	0.105	287543	keystroke_a	a	n/a
143.8615	0.1495	287723	keystroke_s	s	n/a
144.086	0.121	288172	keystroke_t	t	n/a
144.267	0.075	288534	keystroke_i	i	n/a
144.432	0.075	288864	keystroke_c	c	n/a
144.5215	0.105	289043	keystroke_Key.space	Key.space	n/a
144.6715	0.1345	289343	keystroke_d	d	n/a
144.791	0.105	289582	keystroke_a	a	n/a
144.956	0.09	289912	keystroke_n	n	n/a
145.197	0.09	290394	keystroke_s	s	n/a
145.376	0.06	290752	keystroke_Key.space	Key.space	n/a
145.5415	0.09	291083	keystroke_n	n	n/a
145.6915	0.105	291383	keystroke_a	a	n/a
145.7665	0.1195	291533	keystroke_s	s	n/a
146.351	0.03	292702	keystroke_f	f	n/a
146.6815	0.09	293363	keystroke_Key.backspace	Key.backspace	n/a
146.8015	0.075	293603	keystroke_d	d	n/a
146.8615	0.12	293723	keystroke_a	a	n/a
147.072	0.0595	294144	keystroke_w	w	n/a
147.5215	0.12	295043	keystroke_Key.backspace	Key.backspace	n/a
147.6865	0.135	295373	keystroke_q	q	n/a
148.271	0.075	296542	keystroke_Key.space	Key.space	n/a
148.5855	0.076	297171	keystroke_a	a	n/a
148.7205	0.061	297441	keystroke_p	p	n/a
148.9015	0.03	297803	keystroke_p	p	n/a
149.636	0.075	299272	keystroke_r	r	n/a
149.771	0.105	299542	keystroke_o	o	n/a
149.921	0.09	299842	keystroke_a	a	n/a
150.131	0.09	300262	keystroke_c	c	n/a
150.3415	0.0745	300683	keystroke_h	h	n/a
150.461	0.06	300922	keystroke_e	e	n/a
150.611	0.105	301222	keystroke_s	s	n/a
151.2555	0.18	302511	keystroke_Key.enter	Key.enter	n/a
151.4415	5.7405	302883	prompt	n/a	davis patch sheep touch\n
152.4405	0.091	304881	keystroke_d	d	n/a
152.5005	0.09	305001	keystroke_a	a	n/a
152.6965	0.105	305393	keystroke_v	v	n/a
152.8315	0.1045	305663	keystroke_i	i	n/a
152.981	0.09	305962	keystroke_d	d	n/a
153.071	0.09	306142	keystroke_Key.space	Key.space	n/a
153.191	0.09	306382	keystroke_p	p	n/a
153.236	0.06	306472	keystroke_a	a	n/a
153.356	0.105	306712	keystroke_t	t	n/a
153.5955	0.06	307191	keystroke_c	c	n/a
153.8205	0.091	307641	keystroke_h	h	n/a
154.076	0.09	308152	keystroke_Key.space	Key.space	n/a
154.346	0.105	308692	keystroke_s	s	n/a
154.436	0.075	308872	keystroke_h	h	n/a
154.5855	0.045	309171	keystroke_e	e	n/a
154.7355	0.075	309471	keystroke_e	e	n/a
155.0355	0.105	310071	keystroke_p	p	n/a
155.2455	0.0745	310491	keystroke_Key.space	Key.space	n/a
155.305	0.12	310610	keystroke_t	t	n/a
155.485	0.121	310970	keystroke_o	o	n/a
155.545	0.105	311090	keystroke_u	u	n/a
155.861	0.075	311722	keystroke_g	g	n/a
155.981	0.0895	311962	keystroke_h	h	n/a
156.4	0.075	312800	keystroke_Key.backspace	Key.backspace	n/a
156.58	0.045	313160	keystroke_Key.backspace	Key.backspace	n/a
156.655	0.105	313310	keystroke_c	c	n/a
156.79	0.091	313580	keystroke_h	h	n/a
157.076	0.105	314152	keystroke_Key.enter	Key.enter	n/a
157.188	8.9335	314376	prompt	n/a	belief alex dollar subscription\n
158.29	0.091	316580	keystroke_b	b	n/a
158.41	0.105	316820	keystroke_e	e	n/a
158.53	0.06	317060	keystroke_l	l	n/a
158.695	0.09	317390	keystroke_i	i	n/a
158.831	0.09	317662	keystroke_e	e	n/a
159.01	0.06	318020	keystroke_f	f	n/a
159.16	0.09	318320	keystroke_Key.space	Key.space	n/a
159.31	0.105	318620	keystroke_a	a	n/a
159.43	0.06	318860	keystroke_l	l	n/a
159.61	0.03	319220	keystroke_e	e	n/a
160.5995	0.12	321199	keystroke_x	x	n/a
160.7645	0.091	321529	keystroke_Key.space	Key.space	n/a
160.9005	0.105	321801	keystroke_d	d	n/a
161.0205	0.06	322041	keystroke_o	o	n/a
161.2755	0.06	322551	keystroke_l	l	n/a
161.4105	0.0895	322821	keystroke_l	l	n/a
161.56	0.09	323120	keystroke_a	a	n/a
161.7095	0.121	323419	keystroke_r	r	n/a
162.1905	0.105	324381	keystroke_Key.space	Key.space	n/a
162.52	0.105	325040	keystroke_s	s	n/a
162.61	0.09	325220	keystroke_u	u	n/a
162.76	0.045	325520	keystroke_b	b	n/a
163.12	0.09	326240	keystroke_s	s	n/a
163.6005	0.074	327201	keystroke_c	c	n/a
163.8555	0.09	327711	keystroke_r	r	n/a
163.9905	0.1045	327981	keystroke_i	i	n/a
164.41	0.015	328820	keystroke_t	t	n/a
164.9345	0.12	329869	keystroke_Key.backspace	Key.backspace	n/a
165.0695	0.105	330139	keystroke_p	p	n/a
165.2195	0.09	330439	keystroke_t	t	n/a
165.3695	0.106	330739	keystroke_i	i	n/a
165.6105	0.135	331221	keystroke_o	o	n/a
165.7005	0.12	331401	keystroke_n	n	n/a
165.9995	0.12	331999	keystroke_Key.enter	Key.enter	n/a
166.1245	8.0965	332249	prompt	n/a	remedies museum trading land\n
166.81	0.075	333620	keystroke_r	r	n/a
166.855	0.12	333710	keystroke_e	e	n/a
167.02	0.1045	334040	keystroke_m	m	n/a
167.3645	0.12	334729	keystroke_e	e	n/a
167.6645	0.105	335329	keystroke_d	d	n/a
167.8295	0.075	335659	keystroke_i	i	n/a
168.264	0.061	336528	keystroke_e	e	n/a
168.475	0.0745	336950	keystroke_s	s	n/a
168.5945	0.09	337189	keystroke_Key.space	Key.space	n/a
168.7745	0.075	337549	keystroke_m	m	n/a
168.9695	0.0745	337939	keystroke_u	u	n/a
169.089	0.105	338178	keystroke_s	s	n/a
169.525	0.105	339050	keystroke_e	e	n/a
171.16	0.06	342320	keystroke_u	u	n/a
171.355	0.075	342710	keystroke_m	m	n/a
171.55	0.0895	343100	keystroke_Key.space	Key.space	n/a
171.6845	0.105	343369	keystroke_t	t	n/a
171.7295	0.12	343459	keystroke_r	r	n/a
171.9395	0.12	343879	keystroke_a	a	n/a
172.0145	0.135	344029	keystroke_d	d	n/a
172.209	0.12	344418	keystroke_i	i	n/a
172.254	0.105	344508	keystroke_n	n	n/a
172.479	0.0905	344958	keystroke_g	g	n/a
172.6145	0.105	345229	keystroke_Key.space	Key.space	n/a
172.8245	0.105	345649	keystroke_l	l	n/a
172.9745	0.0895	345949	keystroke_a	a	n/a
173.079	0.105	346158	keystroke_n	n	n/a
173.289	0.09	346578	keystroke_f	f	n/a
173.784	0.0895	347568	keystroke_Key.backspace	Key.backspace	n/a
173.844	0.1055	347688	keystroke_d	d	n/a
174.0995	0.12	348199	keystroke_Key.enter	Key.enter	n/a
174.2255	12.7295	348451	prompt	n/a	offerings killing distinction oxide\n
174.849	0.12	349698	keystroke_o	o	n/a
175.089	0.09	350178	keystroke_d	d	n/a
175.254	0.09	350508	keystroke_d	d	n/a
175.434	0.12	350868	keystroke_e	e	n/a
175.494	0.12	350988	keystroke_r	r	n/a
175.569	0.12	351138	keystroke_i	i	n/a
175.629	0.105	351258	keystroke_n	n	n/a
175.914	0.075	351828	keystroke_Key.backspace	Key.backspace	n/a
176.094	0.045	352188	keystroke_Key.backspace	Key.backspace	n/a
176.229	0.06	352458	keystroke_Key.backspace	Key.backspace	n/a
176.3935	0.046	352787	keystroke_Key.backspace	Key.backspace	n/a
176.529	0.075	353058	keystroke_Key.backspace	Key.backspace	n/a
176.7095	0.06	353419	keystroke_Key.backspace	Key.backspace	n/a
177.444	0.075	354888	keystroke_f	f	n/a
177.609	0.075	355218	keystroke_f	f	n/a
177.729	0.1195	355458	keystroke_e	e	n/a
177.804	0.0895	355608	keystroke_r	r	n/a
177.9685	0.1355	355937	keystroke_i	i	n/a
178.029	0.12	356058	keystroke_n	n	n/a
178.209	0.09	356418	keystroke_g	g	n/a
178.419	0.12	356838	keystroke_s	s	n/a
178.809	0.0895	357618	keystroke_Key.space	Key.space	n/a
179.0935	0.09	358187	keystroke_k	k	n/a
179.2885	0.106	358577	keystroke_i	i	n/a
179.994	0.075	359988	keystroke_;	;	n/a
180.159	0.06	360318	keystroke_;	;	n/a
180.594	0.0745	361188	keystroke_Key.backspace	Key.backspace	n/a
180.7585	0.075	361517	keystroke_Key.backspace	Key.backspace	n/a
181.0135	0.0605	362027	keystroke_l	l	n/a
181.149	0.075	362298	keystroke_l	l	n/a
181.344	0.135	362688	keystroke_i	i	n/a
181.434	0.105	362868	keystroke_n	n	n/a
181.569	0.0895	363138	keystroke_g	g	n/a
181.6735	0.09	363347	keystroke_Key.space	Key.space	n/a
181.899	0.105	363798	keystroke_d	d	n/a
181.974	0.09	363948	keystroke_i	i	n/a
182.109	0.105	364218	keystroke_s	s	n/a
182.409	0.0895	364818	keystroke_n	n	n/a
182.9185	0.075	365837	keystroke_Key.backspace	Key.backspace	n/a
183.639	0.105	367278	keystroke_t	t	n/a
183.774	0.12	367548	keystroke_i	i	n/a
183.834	0.12	367668	keystroke_n	n	n/a
184.148	0.09	368296	keystroke_c	c	n/a
184.403	0.046	368806	keystroke_t	t	n/a
184.464	0.105	368928	keystroke_i	i	n/a
184.6435	0.135	369287	keystroke_o	o	n/a
184.7635	0.1045	369527	keystroke_n	n	n/a
185.003	0.105	370006	keystroke_Key.space	Key.space	n/a
185.5735	0.09	371147	keystroke_o	o	n/a
185.9185	0.105	371837	keystroke_x	x	n/a
186.3685	0.1045	372737	keystroke_i	i	n/a
186.533	0.15	373066	keystroke_d	d	n/a
186.638	0.105	373276	keystroke_e	e	n/a
186.863	0.09	373726	keystroke_Key.enter	Key.enter	n/a
186.9585	10.346	373917	prompt	n/a	group clan compliant swim\n
187.9585	0.09	375917	keystroke_g	g	n/a
188.0335	0.06	376067	keystroke_r	r	n/a
188.3485	0.1195	376697	keystroke_o	o	n/a
188.529	0.089	377058	keystroke_u	u	n/a
188.694	0.104	377388	keystroke_p	p	n/a
188.844	0.134	377688	keystroke_Key.space	Key.space	n/a
189.008	0.1055	378016	keystroke_c	c	n/a
189.1285	0.104	378257	keystroke_l	l	n/a
189.2475	0.1055	378495	keystroke_a	a	n/a
189.368	0.15	378736	keystroke_i	i	n/a
189.473	0.135	378946	keystroke_n	n	n/a
189.698	0.09	379396	keystroke_Key.space	Key.space	n/a
189.8625	0.1055	379725	keystroke_c	c	n/a
189.983	0.1805	379966	keystroke_o	o	n/a
190.148	0.12	380296	keystroke_m	m	n/a
190.3725	0.121	380745	keystroke_p	p	n/a
191.168	0.075	382336	keystroke_Key.backspace	Key.backspace	n/a
191.423	0.06	382846	keystroke_Key.backspace	Key.backspace	n/a
191.603	0.06	383206	keystroke_Key.backspace	Key.backspace	n/a
191.783	0.06	383566	keystroke_Key.backspace	Key.backspace	n/a
191.9785	0.075	383957	keystroke_Key.backspace	Key.backspace	n/a
192.1735	0.075	384347	keystroke_Key.backspace	Key.backspace	n/a
192.383	0.105	384766	keystroke_Key.backspace	Key.backspace	n/a
192.668	0.075	385336	keystroke_n	n	n/a
192.908	0.075	385816	keystroke_Key.space	Key.space	n/a
193.0735	0.1195	386147	keystroke_c	c	n/a
193.178	0.135	386356	keystroke_o	o	n/a
193.328	0.06	386656	keystroke_m	m	n/a
193.598	0.075	387196	keystroke_p	p	n/a
193.823	0.06	387646	keystroke_l	l	n/a
194.0925	0.09	388185	keystroke_i	i	n/a
194.3025	0.09	388605	keystroke_a	a	n/a
194.7235	0.1045	389447	keystroke_n	n	n/a
194.933	0.075	389866	keystroke_t	t	n/a
195.128	0.09	390256	keystroke_Key.space	Key.space	n/a
195.293	0.075	390586	keystroke_s	s	n/a
195.473	0.075	390946	keystroke_w	w	n/a
195.998	0.12	391996	keystroke_i	i	n/a
196.8975	0.09	393795	keystroke_m	m	n/a
197.1825	0.12	394365	keystroke_Key.enter	Key.enter	n/a
197.311	9.638	394622	prompt	n/a	exchanges specifies works engines\n
198.052	0.09	396104	keystroke_e	e	n/a
198.308	0.135	396616	keystroke_x	x	n/a
199.9725	0.075	399945	keystroke_h	h	n/a
200.3175	0.0895	400635	keystroke_Key.backspace	Key.backspace	n/a
200.693	0.0745	401386	keystroke_x	x	n/a
201.2025	0.09	402405	keystroke_Key.backspace	Key.backspace	n/a
201.4275	0.1045	402855	keystroke_c	c	n/a
201.548	0.074	403096	keystroke_h	h	n/a
201.607	0.09	403214	keystroke_a	a	n/a
201.758	0.09	403516	keystroke_n	n	n/a
201.863	0.0895	403726	keystroke_g	g	n/a
201.9825	0.105	403965	keystroke_e	e	n/a
202.2075	0.1195	404415	keystroke_s	s	n/a
202.492	0.105	404984	keystroke_Key.space	Key.space	n/a
202.717	0.105	405434	keystroke_s	s	n/a
202.837	0.091	405674	keystroke_p	p	n/a
203.0475	0.0895	406095	keystroke_e	e	n/a
203.257	0.105	406514	keystroke_c	c	n/a
203.377	0.105	406754	keystroke_i	i	n/a
203.497	0.1055	406994	keystroke_f	f	n/a
203.6175	0.105	407235	keystroke_i	i	n/a
203.903	0.0745	407806	keystroke_e	e	n/a
204.1275	0.075	408255	keystroke_s	s	n/a
204.3375	0.09	408675	keystroke_Key.space	Key.space	n/a
204.6225	0.075	409245	keystroke_w	w	n/a
204.7125	0.09	409425	keystroke_o	o	n/a
204.8175	0.1045	409635	keystroke_r	r	n/a
204.952	0.09	409904	keystroke_k	k	n/a
205.132	0.105	410264	keystroke_s	s	n/a
205.387	0.06	410774	keystroke_Key.space	Key.space	n/a
205.7625	0.0895	411525	keystroke_e	e	n/a
205.927	0.09	411854	keystroke_n	n	n/a
206.092	0.09	412184	keystroke_g	g	n/a
206.242	0.12	412484	keystroke_i	i	n/a
206.317	0.106	412634	keystroke_n	n	n/a
206.512	0.076	413024	keystroke_e	e	n/a
206.707	0.0755	413414	keystroke_s	s	n/a
206.8715	0.076	413743	keystroke_Key.enter	Key.enter	n/a
206.952	6.2215	413904	prompt	n/a	guaranteed fire our silk\n
207.8615	0.091	415723	keystroke_g	g	n/a
207.9675	0.0895	415935	keystroke_u	u	n/a
208.117	0.135	416234	keystroke_a	a	n/a
208.237	0.105	416474	keystroke_r	r	n/a
208.387	0.105	416774	keystroke_a	a	n/a
208.8525	0.044	417705	keystroke_n	n	n/a
209.0925	0.12	418185	keystroke_t	t	n/a
209.3325	0.045	418665	keystroke_e	e	n/a
209.4815	0.075	418963	keystroke_e	e	n/a
209.6775	0.075	419355	keystroke_d	d	n/a
209.7815	0.105	419563	keystroke_Key.space	Key.space	n/a
209.9775	0.09	419955	keystroke_f	f	n/a
210.0525	0.06	420105	keystroke_i	i	n/a
210.2025	0.1045	420405	keystroke_r	r	n/a
210.292	0.075	420584	keystroke_e	e	n/a
210.367	0.06	420734	keystroke_Key.space	Key.space	n/a
210.472	0.12	420944	keystroke_p	p	n/a
210.607	0.105	421214	keystroke_u	u	n/a
211.012	0.06	422024	keystroke_Key.backspace	Key.backspace	n/a
211.1615	0.075	422323	keystroke_Key.backspace	Key.backspace	n/a
211.4015	0.165	422803	keystroke_o	o	n/a
211.4915	0.121	422983	keystroke_u	u	n/a
211.6575	0.1195	423315	keystroke_r	r	n/a
212.002	0.09	424004	keystroke_Key.space	Key.space	n/a
212.152	0.09	424304	keystroke_s	s	n/a
212.272	0.09	424544	keystroke_i	i	n/a
212.512	0.1795	425024	keystroke_l	l	n/a
212.6765	0.075	425353	keystroke_k	k	n/a
213.0515	0.12	426103	keystroke_Key.enter	Key.enter	n/a
213.179	10.104	426358	prompt	n/a	suspected scsi minister andreas\n
213.757	0.09	427514	keystroke_s	s	n/a
214.0115	0.075	428023	keystroke_s	s	n/a
214.2965	0.0605	428593	keystroke_Key.backspace	Key.backspace	n/a
214.492	0.089	428984	keystroke_u	u	n/a
214.597	0.104	429194	keystroke_s	s	n/a
214.792	0.0445	429584	keystroke_o	o	n/a
215.2715	0.09	430543	keystroke_Key.backspace	Key.backspace	n/a
215.4665	0.0895	430933	keystroke_o	o	n/a
215.572	0.12	431144	keystroke_e	e	n/a
215.752	0.105	431504	keystroke_c	c	n/a
216.112	0.09	432224	keystroke_Key.backspace	Key.backspace	n/a
216.292	0.0895	432584	keystroke_Key.backspace	Key.backspace	n/a
216.4415	0.12	432883	keystroke_Key.backspace	Key.backspace	n/a
216.6365	0.09	433273	keystroke_p	p	n/a
216.7415	0.18	433483	keystroke_e	e	n/a
216.9065	0.09	433813	keystroke_c	c	n/a
217.1465	0.1195	434293	keystroke_t	t	n/a
217.267	0.089	434534	keystroke_e	e	n/a
217.447	0.135	434894	keystroke_d	d	n/a
217.567	0.105	435134	keystroke_Key.space	Key.space	n/a
217.717	0.105	435434	keystroke_s	s	n/a
217.867	0.0895	435734	keystroke_c	c	n/a
218.361	0.09	436722	keystroke_s	s	n/a
218.557	0.045	437114	keystroke_i	i	n/a
218.827	0.06	437654	keystroke_Key.space	Key.space	n/a
219.1415	0.105	438283	keystroke_m	m	n/a
219.3515	0.075	438703	keystroke_i	i	n/a
219.4715	0.075	438943	keystroke_n	n	n/a
219.5615	0.105	439123	keystroke_i	i	n/a
220.0715	0.0895	440143	keystroke_s	s	n/a
220.236	0.09	440472	keystroke_t	t	n/a
220.371	0.106	440742	keystroke_e	e	n/a
220.446	0.151	440892	keystroke_r	r	n/a
220.6265	0.075	441253	keystroke_Key.space	Key.space	n/a
220.7465	0.135	441493	keystroke_a	a	n/a
221.1365	0.0895	442273	keystroke_n	n	n/a
221.241	0.135	442482	keystroke_d	d	n/a
221.4665	0.135	442933	keystroke_r	r	n/a
221.5565	0.0895	443113	keystroke_e	e	n/a
221.781	0.061	443562	keystroke_w	w	n/a
222.0665	0.09	444133	keystroke_s	s	n/a
222.3815	0.06	444763	keystroke_Key.backspace	Key.backspace	n/a
222.5465	0.06	445093	keystroke_Key.backspace	Key.backspace	n/a
222.6215	0.105	445243	keystroke_a	a	n/a
222.6965	0.12	445393	keystroke_s	s	n/a
223.086	0.195	446172	keystroke_Key.enter	Key.enter	n/a
223.2865	7.886	446573	prompt	n/a	printed women load sells\n
224.4515	0.135	448903	keystroke_o	o	n/a
224.6315	0.1055	449263	keystroke_r	r	n/a
225.0965	0.06	450193	keystroke_Key.backspace	Key.backspace	n/a
225.2465	0.09	450493	keystroke_Key.backspace	Key.backspace	n/a
225.4865	0.105	450973	keystroke_p	p	n/a
226.0865	0.09	452173	keystroke_r	r	n/a
226.1615	0.135	452323	keystroke_i	i	n/a
226.2515	0.12	452503	keystroke_n	n	n/a
226.3565	0.075	452713	keystroke_t	t	n/a
226.4615	0.09	452923	keystroke_e	e	n/a
226.671	0.105	453342	keystroke_d	d	n/a
226.761	0.105	453522	keystroke_Key.space	Key.space	n/a
226.941	0.09	453882	keystroke_w	w	n/a
227.0615	0.12	454123	keystroke_i	i	n/a
227.1665	0.105	454333	keystroke_m	m	n/a
227.736	0.06	455472	keystroke_Key.backspace	Key.backspace	n/a
227.916	0.0745	455832	keystroke_Key.backspace	Key.backspace	n/a
228.2615	0.15	456523	keystroke_o	o	n/a
228.3365	0.1345	456673	keystroke_m	m	n/a
228.591	0.12	457182	keystroke_e	e	n/a
228.7405	0.106	457481	keystroke_n	n	n/a
228.9365	0.0895	457873	keystroke_Key.space	Key.space	n/a
229.4165	0.09	458833	keystroke_l	l	n/a
229.7015	0.09	459403	keystroke_o	o	n/a
229.8815	0.1345	459763	keystroke_a	a	n/a
230.001	0.09	460002	keystroke_d	d	n/a
230.151	0.09	460302	keystroke_Key.space	Key.space	n/a
230.316	0.1205	460632	keystroke_s	s	n/a
230.5115	0.09	461023	keystroke_e	e	n/a
230.6315	0.0895	461263	keystroke_l	l	n/a
230.781	0.09	461562	keystroke_l	l	n/a
230.901	0.135	461802	keystroke_s	s	n/a
231.066	0.105	462132	keystroke_Key.enter	Key.enter	n/a
231.1755	12.2665	462351	prompt	n/a	adaptation mining lasting upgrading\n
231.786	0.105	463572	keystroke_a	a	n/a
231.966	0.105	463932	keystroke_d	d	n/a
232.071	0.12	464142	keystroke_a	a	n/a
232.206	0.105	464412	keystroke_p	p	n/a
232.3855	0.105	464771	keystroke_t	t	n/a
232.5205	0.105	465041	keystroke_i	i	n/a
232.7305	0.075	465461	keystroke_a	a	n/a
232.8655	0.136	465731	keystroke_t	t	n/a
233.0305	0.06	466061	keystroke_i	i	n/a
233.315	0.06	466630	keystroke_Key.backspace	Key.backspace	n/a
233.481	0.06	466962	keystroke_Key.backspace	Key.backspace	n/a
233.646	0.0595	467292	keystroke_Key.backspace	Key.backspace	n/a
233.7955	0.075	467591	keystroke_Key.backspace	Key.backspace	n/a
234.261	0.09	468522	keystroke_a	a	n/a
234.441	0.12	468882	keystroke_t	t	n/a
234.516	0.105	469032	keystroke_i	i	n/a
234.756	0.135	469512	keystroke_o	o	n/a
234.846	0.135	469692	keystroke_n	n	n/a
235.1605	0.12	470321	keystroke_Key.space	Key.space	n/a
237.5325	0.043	475065	keystroke_j	j	n/a
238.1305	0.045	476261	keystroke_Key.backspace	Key.backspace	n/a
238.5955	0.105	477191	keystroke_Key.backspace	Key.backspace	n/a
239.06	0.105	478120	keystroke_Key.space	Key.space	n/a
239.316	0.12	478632	keystroke_m	m	n/a
239.526	0.09	479052	keystroke_i	i	n/a
239.6605	0.105	479321	keystroke_n	n	n/a
239.886	0.105	479772	keystroke_i	i	n/a
239.946	0.1195	479892	keystroke_n	n	n/a
240.1105	0.09	480221	keystroke_g	g	n/a
240.3355	0.09	480671	keystroke_Key.space	Key.space	n/a
240.5305	0.09	481061	keystroke_l	l	n/a
240.6355	0.09	481271	keystroke_a	a	n/a
240.6955	0.12	481391	keystroke_s	s	n/a
240.9355	0.12	481871	keystroke_t	t	n/a
241.0855	0.09	482171	keystroke_i	i	n/a
241.1155	0.12	482231	keystroke_n	n	n/a
241.2655	0.105	482531	keystroke_g	g	n/a
241.3855	0.0895	482771	keystroke_Key.space	Key.space	n/a
241.565	0.091	483130	keystroke_u	u	n/a
241.79	0.121	483580	keystroke_p	p	n/a
242.1505	0.1205	484301	keystroke_g	g	n/a
242.3455	0.09	484691	keystroke_r	r	n/a
242.7355	0.09	485471	keystroke_a	a	n/a
242.8105	0.135	485621	keystroke_d	d	n/a
242.9605	0.12	485921	keystroke_i	i	n/a
243.0055	0.1195	486011	keystroke_n	n	n/a
243.1105	0.1045	486221	keystroke_g	g	n/a
243.32	0.12	486640	keystroke_Key.enter	Key.enter	n/a
243.446	10.5555	486892	prompt	n/a	reproduce gold segments checking\n
244.1905	0.075	488381	keystroke_r	r	n/a
244.2505	0.105	488501	keystroke_e	e	n/a
244.5655	0.1195	489131	keystroke_p	p	n/a
245.3755	0.09	490751	keystroke_r	r	n/a
245.6605	0.045	491321	keystroke_o	o	n/a
246.0955	0.0895	492191	keystroke_d	d	n/a
246.245	0.105	492490	keystroke_u	u	n/a
246.44	0.135	492880	keystroke_c	c	n/a
246.59	0.06	493180	keystroke_e	e	n/a
246.815	0.09	493630	keystroke_Key.space	Key.space	n/a
247.1755	0.09	494351	keystroke_d	d	n/a
247.2655	0.09	494531	keystroke_o	o	n/a
247.475	0.06	494950	keystroke_l	l	n/a
247.805	0.045	495610	keystroke_Key.backspace	Key.backspace	n/a
247.955	0.06	495910	keystroke_Key.backspace	Key.backspace	n/a
248.12	0.06	496240	keystroke_Key.backspace	Key.backspace	n/a
248.72	0.09	497440	keystroke_g	g	n/a
248.825	0.09	497650	keystroke_o	o	n/a
249.02	0.0755	498040	keystroke_l	l	n/a
249.1255	0.0895	498251	keystroke_d	d	n/a
249.2745	0.105	498549	keystroke_Key.space	Key.space	n/a
249.5905	0.045	499181	keystroke_s	s	n/a
249.8005	0.105	499601	keystroke_e	e	n/a
250.0255	0.075	500051	keystroke_g	g	n/a
250.265	0.0595	500530	keystroke_m	m	n/a
250.5345	0.106	501069	keystroke_e	e	n/a
250.6705	0.104	501341	keystroke_n	n	n/a
250.7905	0.075	501581	keystroke_t	t	n/a
251.0605	0.105	502121	keystroke_s	s	n/a
251.1805	0.0895	502361	keystroke_Key.space	Key.space	n/a
251.315	0.09	502630	keystroke_c	c	n/a
251.42	0.075	502840	keystroke_h	h	n/a
251.51	0.105	503020	keystroke_e	e	n/a
251.63	0.105	503260	keystroke_c	c	n/a
251.705	0.075	503410	keystroke_k	k	n/a
252.3195	0.0905	504639	keystroke_n	n	n/a
252.875	0.0905	505750	keystroke_Key.backspace	Key.backspace	n/a
253.28	0.165	506560	keystroke_i	i	n/a
253.415	0.105	506830	keystroke_n	n	n/a
253.595	0.09	507190	keystroke_g	g	n/a
253.865	0.1345	507730	keystroke_Key.enter	Key.enter	n/a
254.0045	5.037	508009	prompt	n/a	purse switched that'd error\n
254.855	0.06	509710	keystroke_p	p	n/a
255.26	0.045	510520	keystroke_u	u	n/a
255.6345	0.105	511269	keystroke_r	r	n/a
255.8745	0.1205	511749	keystroke_s	s	n/a
255.98	0.075	511960	keystroke_e	e	n/a
256.115	0.09	512230	keystroke_Key.space	Key.space	n/a
256.22	0.105	512440	keystroke_s	s	n/a
256.58	0.105	513160	keystroke_w	w	n/a
256.9245	0.045	513849	keystroke_i	i	n/a
257.4345	0.106	514869	keystroke_t	t	n/a
257.69	0.12	515380	keystroke_c	c	n/a
257.9	0.0745	515800	keystroke_h	h	n/a
258.1245	0.045	516249	keystroke_e	e	n/a
258.2595	0.076	516519	keystroke_d	d	n/a
258.3495	0.1195	516699	keystroke_Key.space	Key.space	n/a
258.454	0.106	516908	keystroke_t	t	n/a
258.575	0.075	517150	keystroke_h	h	n/a
258.695	0.105	517390	keystroke_a	a	n/a
258.83	0.075	517660	keystroke_t	t	n/a
258.935	0.105	517870	keystroke_Key.enter	Key.enter	n/a
259.0465	11.3795	518093	prompt	n/a	expand reprint austin sought\n
259.175	0.12	518350	keystroke_d	d	n/a
259.805	0.0745	519610	keystroke_Key.backspace	Key.backspace	n/a
261.3645	0.105	522729	keystroke_e	e	n/a
261.6045	0.0595	523209	keystroke_x	x	n/a
261.814	0.091	523628	keystroke_p	p	n/a
261.95	0.105	523900	keystroke_a	a	n/a
262.055	0.075	524110	keystroke_n	n	n/a
262.205	0.09	524410	keystroke_d	d	n/a
262.3695	0.09	524739	keystroke_Key.space	Key.space	n/a
262.8195	0.09	525639	keystroke_r	r	n/a
262.8645	0.12	525729	keystroke_e	e	n/a
262.9995	0.105	525999	keystroke_p	p	n/a
263.374	0.105	526748	keystroke_s	s	n/a
263.81	0.075	527620	keystroke_Key.backspace	Key.backspace	n/a
263.9	0.09	527800	keystroke_r	r	n/a
264.08	0.1345	528160	keystroke_i	i	n/a
264.1245	0.135	528249	keystroke_n	n	n/a
264.2445	0.105	528489	keystroke_g	g	n/a
264.424	0.075	528848	keystroke_Key.space	Key.space	n/a
264.6645	0.09	529329	keystroke_a	a	n/a
264.7695	0.09	529539	keystroke_u	u	n/a
264.9495	0.09	529899	keystroke_s	s	n/a
265.5645	0.06	531129	keystroke_Key.backspace	Key.backspace	n/a
265.7445	0.045	531489	keystroke_Key.backspace	Key.backspace	n/a
265.9095	0.045	531819	keystroke_Key.backspace	Key.backspace	n/a
266.0745	0.045	532149	keystroke_Key.backspace	Key.backspace	n/a
266.2245	0.0745	532449	keystroke_Key.backspace	Key.backspace	n/a
266.4345	0.06	532869	keystroke_t	t	n/a
266.6145	0.075	533229	keystroke_n	n	n/a
267.0795	0.0595	534159	keystroke_Key.backspace	Key.backspace	n/a
267.304	0.06	534608	keystroke_Key.space	Key.space	n/a
267.9495	0.1055	535899	keystroke_a	a	n/a
268.085	0.075	536170	keystroke_u	u	n/a
268.2795	0.075	536559	keystroke_s	s	n/a
268.4295	0.09	536859	keystroke_t	t	n/a
268.9245	0.12	537849	keystroke_i	i	n/a
268.9995	0.12	537999	keystroke_n	n	n/a
269.224	0.0905	538448	keystroke_Key.space	Key.space	n/a
269.284	0.0905	538568	keystroke_s	s	n/a
269.3895	0.165	538779	keystroke_o	o	n/a
269.4945	0.075	538989	keystroke_u	u	n/a
269.7795	0.09	539559	keystroke_g	g	n/a
269.8995	0.09	539799	keystroke_h	h	n/a
270.0495	0.0745	540099	keystroke_t	t	n/a
270.289	0.135	540578	keystroke_Key.enter	Key.enter	n/a
270.4345	10.431	540869	prompt	n/a	building tremendous global scuba\n
271.129	0.075	542258	keystroke_b	b	n/a
271.219	0.105	542438	keystroke_u	u	n/a
271.414	0.076	542828	keystroke_i	i	n/a
271.684	0.076	543368	keystroke_l	l	n/a
271.819	0.1355	543638	keystroke_d	d	n/a
272.0445	0.06	544089	keystroke_i	i	n/a
272.0595	0.105	544119	keystroke_n	n	n/a
272.6145	0.075	545229	keystroke_n	n	n/a
272.809	0.105	545618	keystroke_g	g	n/a
273.154	0.06	546308	keystroke_Key.backspace	Key.backspace	n/a
273.289	0.075	546578	keystroke_Key.backspace	Key.backspace	n/a
273.424	0.06	546848	keystroke_g	g	n/a
273.545	0.1045	547090	keystroke_Key.space	Key.space	n/a
273.6795	0.15	547359	keystroke_r	r	n/a
273.7995	0.135	547599	keystroke_e	e	n/a
273.9645	0.0595	547929	keystroke_m	m	n/a
274.279	0.06	548558	keystroke_Key.backspace	Key.backspace	n/a
274.459	0.045	548918	keystroke_Key.backspace	Key.backspace	n/a
274.5945	0.075	549189	keystroke_Key.backspace	Key.backspace	n/a
275.149	0.105	550298	keystroke_t	t	n/a
275.389	0.075	550778	keystroke_r	r	n/a
275.434	0.12	550868	keystroke_e	e	n/a
275.659	0.0595	551318	keystroke_m	m	n/a
275.884	0.09	551768	keystroke_e	e	n/a
276.1095	0.0295	552219	keystroke_d	d	n/a
276.439	0.06	552878	keystroke_Key.backspace	Key.backspace	n/a
276.649	0.09	553298	keystroke_n	n	n/a
276.724	0.105	553448	keystroke_d	d	n/a
276.874	0.1645	553748	keystroke_o	o	n/a
276.9945	0.104	553989	keystroke_u	u	n/a
277.2335	0.06	554467	keystroke_s	s	n/a
277.3845	0.075	554769	keystroke_Key.space	Key.space	n/a
278.359	0.06	556718	keystroke_g	g	n/a
278.464	0.09	556928	keystroke_l	l	n/a
278.659	0.0745	557318	keystroke_o	o	n/a
278.8545	0.0445	557709	keystroke_b	b	n/a
279.004	0.045	558008	keystroke_a	a	n/a
279.079	0.075	558158	keystroke_l	l	n/a
279.214	0.1355	558428	keystroke_Key.space	Key.space	n/a
279.3645	0.105	558729	keystroke_s	s	n/a
280.069	0.09	560138	keystroke_c	c	n/a
280.219	0.09	560438	keystroke_u	u	n/a
280.414	0.0745	560828	keystroke_b	b	n/a
280.5935	0.075	561187	keystroke_a	a	n/a
280.7435	0.12	561487	keystroke_Key.enter	Key.enter	n/a
280.8685	20.5315	561737	prompt	n/a	valuable identifier reservation sets\n
281.7335	0.09	563467	keystroke_v	v	n/a
281.8685	0.1355	563737	keystroke_a	a	n/a
281.989	0.06	563978	keystroke_l	l	n/a
282.154	0.105	564308	keystroke_u	u	n/a
282.319	0.075	564638	keystroke_a	a	n/a
282.379	0.09	564758	keystroke_b	b	n/a
282.604	0.0895	565208	keystroke_l	l	n/a
282.7385	0.09	565477	keystroke_e	e	n/a
282.8885	0.06	565777	keystroke_Key.space	Key.space	n/a
283.744	0.135	567488	keystroke_i	i	n/a
283.834	0.12	567668	keystroke_n	n	n/a
284.029	0.105	568058	keystroke_d	d	n/a
284.374	0.12	568748	keystroke_e	e	n/a
284.659	0.09	569318	keystroke_n	n	n/a
284.809	0.1355	569618	keystroke_t	t	n/a
284.9595	0.074	569919	keystroke_i	i	n/a
285.4235	0.105	570847	keystroke_d	d	n/a
285.9185	0.075	571837	keystroke_Key.backspace	Key.backspace	n/a
286.0385	0.075	572077	keystroke_f	f	n/a
286.339	0.03	572678	keystroke_e	e	n/a
286.534	0.075	573068	keystroke_Key.backspace	Key.backspace	n/a
286.744	0.09	573488	keystroke_i	i	n/a
286.819	0.105	573638	keystroke_e	e	n/a
286.879	0.12	573758	keystroke_r	r	n/a
287.3135	0.105	574627	keystroke_Key.space	Key.space	n/a
290.601	0.013	581202	keystroke_Key.backspace	Key.backspace	n/a
290.734	0.045	581468	keystroke_Key.backspace	Key.backspace	n/a
290.9285	0.045	581857	keystroke_Key.backspace	Key.backspace	n/a
291.094	0.06	582188	keystroke_Key.backspace	Key.backspace	n/a
291.274	0.0595	582548	keystroke_Key.backspace	Key.backspace	n/a
291.4685	0.045	582937	keystroke_Key.backspace	Key.backspace	n/a
291.6485	0.0305	583297	keystroke_Key.backspace	Key.backspace	n/a
291.829	0.045	583658	keystroke_Key.backspace	Key.backspace	n/a
292.0235	0.06	584047	keystroke_Key.backspace	Key.backspace	n/a
292.2035	0.06	584407	keystroke_Key.backspace	Key.backspace	n/a
292.3835	0.075	584767	keystroke_Key.backspace	Key.backspace	n/a
292.654	0.165	585308	keystroke_d	d	n/a
292.834	0.0895	585668	keystroke_e	e	n/a
293.0585	0.09	586117	keystroke_n	n	n/a
293.3435	0.12	586687	keystroke_t	t	n/a
293.4785	0.105	586957	keystroke_i	i	n/a
293.8685	0.075	587737	keystroke_f	f	n/a
294.0785	0.06	588157	keystroke_i	i	n/a
294.2435	0.09	588487	keystroke_e	e	n/a
294.3035	0.12	588607	keystroke_r	r	n/a
294.6485	0.1195	589297	keystroke_Key.space	Key.space	n/a
294.874	0.059	589748	keystroke_r	r	n/a
294.934	0.059	589868	keystroke_e	e	n/a
295.144	0.075	590288	keystroke_s	s	n/a
295.7135	0.105	591427	keystroke_e	e	n/a
295.8035	0.075	591607	keystroke_r	r	n/a
296.0435	0.045	592087	keystroke_c	c	n/a
296.1485	0.105	592297	keystroke_a	a	n/a
296.3285	0.0895	592657	keystroke_t	t	n/a
296.6285	0.06	593257	keystroke_Key.backspace	Key.backspace	n/a
296.7935	0.045	593587	keystroke_Key.backspace	Key.backspace	n/a
296.9135	0.09	593827	keystroke_Key.backspace	Key.backspace	n/a
297.0185	0.075	594037	keystroke_c	c	n/a
297.1385	0.09	594277	keystroke_a	a	n/a
297.558	0.06	595116	keystroke_Key.backspace	Key.backspace	n/a
297.708	0.075	595416	keystroke_Key.backspace	Key.backspace	n/a
298.4135	0.045	596827	keystroke_v	v	n/a
298.5935	0.075	597187	keystroke_a	a	n/a
298.7585	0.06	597517	keystroke_t	t	n/a
298.8485	0.09	597697	keystroke_i	i	n/a
299.103	0.135	598206	keystroke_o	o	n/a
299.208	0.1055	598416	keystroke_n	n	n/a
299.9285	0.105	599857	keystroke_Key.space	Key.space	n/a
300.528	0.091	601056	keystroke_s	s	n/a
300.769	0.1195	601538	keystroke_e	e	n/a
300.8435	0.09	601687	keystroke_t	t	n/a
301.0685	0.105	602137	keystroke_s	s	n/a
301.2635	0.1345	602527	keystroke_Key.enter	Key.enter	n/a
301.4095	6.4855	602819	prompt	n/a	appropriate culture levels boot\n
301.983	0.106	603966	keystroke_a	a	n/a
302.104	0.075	604208	keystroke_p	p	n/a
302.284	0.0745	604568	keystroke_p	p	n/a
302.4185	0.09	604837	keystroke_r	r	n/a
302.8835	0.105	605767	keystroke_o	o	n/a
303.1385	0.075	606277	keystroke_p	p	n/a
303.3935	0.09	606787	keystroke_r	r	n/a
303.6185	0.075	607237	keystroke_i	i	n/a
303.7835	0.09	607567	keystroke_a	a	n/a
303.9785	0.075	607957	keystroke_t	t	n/a
304.0385	0.12	608077	keystroke_e	e	n/a
304.218	0.105	608436	keystroke_Key.space	Key.space	n/a
304.338	0.135	608676	keystroke_c	c	n/a
304.458	0.09	608916	keystroke_u	u	n/a
304.698	0.0905	609396	keystroke_l	l	n/a
304.8485	0.135	609697	keystroke_t	t	n/a
305.493	0.105	610986	keystroke_u	u	n/a
305.628	0.12	611256	keystroke_r	r	n/a
305.703	0.105	611406	keystroke_e	e	n/a
305.973	0.09	611946	keystroke_Key.space	Key.space	n/a
306.123	0.091	612246	keystroke_l	l	n/a
306.228	0.09	612456	keystroke_e	e	n/a
306.3785	0.105	612757	keystroke_v	v	n/a
306.5285	0.09	613057	keystroke_e	e	n/a
306.6335	0.105	613267	keystroke_l	l	n/a
306.7685	0.075	613537	keystroke_s	s	n/a
306.8735	0.09	613747	keystroke_Key.space	Key.space	n/a
307.0535	0.0895	614107	keystroke_b	b	n/a
307.263	0.06	614526	keystroke_o	o	n/a
307.428	0.075	614856	keystroke_o	o	n/a
307.533	0.12	615066	keystroke_t	t	n/a
307.818	0.075	615636	keystroke_Key.enter	Key.enter	n/a
307.898	7.377	615796	prompt	n/a	genre talk rich conducting\n
308.838	0.06	617676	keystroke_g	g	n/a
308.958	0.09	617916	keystroke_e	e	n/a
309.078	0.091	618156	keystroke_n	n	n/a
309.184	0.1185	618368	keystroke_r	r	n/a
309.244	0.1045	618488	keystroke_e	e	n/a
309.3775	0.09	618755	keystroke_Key.space	Key.space	n/a
309.7085	0.1045	619417	keystroke_t	t	n/a
309.9335	0.0895	619867	keystroke_a	a	n/a
310.008	0.136	620016	keystroke_l	l	n/a
310.2925	0.076	620585	keystroke_k	k	n/a
310.6985	0.09	621397	keystroke_Key.space	Key.space	n/a
310.9535	0.105	621907	keystroke_r	r	n/a
311.7785	0.09	623557	keystroke_i	i	n/a
311.9285	0.12	623857	keystroke_c	c	n/a
312.0635	0.06	624127	keystroke_h	h	n/a
312.258	0.075	624516	keystroke_Key.space	Key.space	n/a
312.9185	0.075	625837	keystroke_c	c	n/a
313.0535	0.1345	626107	keystroke_o	o	n/a
313.1735	0.1045	626347	keystroke_n	n	n/a
313.7585	0.0745	627517	keystroke_d	d	n/a
313.848	0.105	627696	keystroke_u	u	n/a
313.998	0.105	627996	keystroke_c	c	n/a
314.223	0.0905	628446	keystroke_t	t	n/a
314.3585	0.105	628717	keystroke_i	i	n/a
314.718	0.09	629436	keystroke_n	n	n/a
314.868	0.075	629736	keystroke_g	g	n/a
315.1535	0.12	630307	keystroke_Key.enter	Key.enter	n/a
315.279	10.1055	630558	prompt	n/a	jacksonville appliances oldest crafts\n
316.1885	0.09	632377	keystroke_j	j	n/a
316.3235	0.1195	632647	keystroke_a	a	n/a
316.428	0.135	632856	keystroke_c	c	n/a
316.593	0.075	633186	keystroke_k	k	n/a
316.7275	0.1055	633455	keystroke_s	s	n/a
316.848	0.15	633696	keystroke_o	o	n/a
316.953	0.105	633906	keystroke_n	n	n/a
317.3285	0.09	634657	keystroke_v	v	n/a
317.4335	0.0745	634867	keystroke_i	i	n/a
317.793	0.06	635586	keystroke_l	l	n/a
317.928	0.075	635856	keystroke_l	l	n/a
318.063	0.09	636126	keystroke_e	e	n/a
318.213	0.075	636426	keystroke_Key.space	Key.space	n/a
318.318	0.1055	636636	keystroke_a	a	n/a
318.4085	0.09	636817	keystroke_p	p	n/a
318.558	0.105	637116	keystroke_p	p	n/a
318.813	0.03	637626	keystroke_l	l	n/a
319.518	0.105	639036	keystroke_o	o	n/a
319.773	0.06	639546	keystroke_a	a	n/a
320.0575	0.061	640115	keystroke_Key.backspace	Key.backspace	n/a
320.1935	0.075	640387	keystroke_Key.backspace	Key.backspace	n/a
320.3735	0.09	640747	keystroke_i	i	n/a
320.4645	0.119	640929	keystroke_a	a	n/a
320.613	0.075	641226	keystroke_n	n	n/a
320.763	0.09	641526	keystroke_c	c	n/a
320.808	0.09	641616	keystroke_e	e	n/a
321.048	0.09	642096	keystroke_s	s	n/a
321.243	0.06	642486	keystroke_Key.space	Key.space	n/a
321.5125	0.091	643025	keystroke_o	o	n/a
321.8125	0.0455	643625	keystroke_l	l	n/a
322.008	0.12	644016	keystroke_d	d	n/a
322.173	0.075	644346	keystroke_e	e	n/a
322.3525	0.09	644705	keystroke_s	s	n/a
322.548	0.12	645096	keystroke_t	t	n/a
322.713	0.09	645426	keystroke_Key.space	Key.space	n/a
323.4325	0.03	646865	keystroke_c	c	n/a
323.5975	0.105	647195	keystroke_r	r	n/a
323.7035	0.075	647407	keystroke_a	a	n/a
323.9585	0.075	647917	keystroke_g	g	n/a
324.528	0.1045	649056	keystroke_Key.backspace	Key.backspace	n/a
324.6475	0.091	649295	keystroke_f	f	n/a
324.8425	0.06	649685	keystroke_t	t	n/a
325.0375	0.091	650075	keystroke_s	s	n/a
325.233	0.15	650466	keystroke_Key.enter	Key.enter	n/a
325.388	6.7165	650776	prompt	n/a	cook cooling hindu latvia\n
325.983	0.12	651966	keystroke_c	c	n/a
326.088	0.075	652176	keystroke_o	o	n/a
326.253	0.0745	652506	keystroke_o	o	n/a
326.7625	0.09	653525	keystroke_l	l	n/a
326.9875	0.06	653975	keystroke_Key.space	Key.space	n/a
327.123	0.105	654246	keystroke_c	c	n/a
327.3025	0.045	654605	keystroke_o	o	n/a
327.4675	0.09	654935	keystroke_o	o	n/a
327.7675	0.075	655535	keystroke_l	l	n/a
328.0075	0.18	656015	keystroke_o	o	n/a
328.1285	0.119	656257	keystroke_n	n	n/a
328.503	0.06	657006	keystroke_Key.backspace	Key.backspace	n/a
328.638	0.075	657276	keystroke_Key.backspace	Key.backspace	n/a
328.878	0.12	657756	keystroke_i	i	n/a
328.953	0.12	657906	keystroke_n	n	n/a
329.103	0.075	658206	keystroke_g	g	n/a
329.179	0.103	658358	keystroke_Key.space	Key.space	n/a
329.448	0.105	658896	keystroke_h	h	n/a
330.288	0.059	660576	keystroke_i	i	n/a
330.303	0.105	660606	keystroke_n	n	n/a
330.468	0.105	660936	keystroke_d	d	n/a
330.6025	0.105	661205	keystroke_u	u	n/a
330.8875	0.075	661775	keystroke_Key.space	Key.space	n/a
331.0675	0.0745	662135	keystroke_l	l	n/a
331.1575	0.0755	662315	keystroke_a	a	n/a
331.308	0.105	662616	keystroke_t	t	n/a
331.548	0.09	663096	keystroke_v	v	n/a
331.653	0.075	663306	keystroke_i	i	n/a
331.773	0.075	663546	keystroke_a	a	n/a
332.0575	0.045	664115	keystroke_Key.enter	Key.enter	n/a
332.1135	7.521	664227	prompt	n/a	rather insider yamaha arabia\n
332.883	0.1045	665766	keystroke_r	r	n/a
333.0475	0.075	666095	keystroke_a	a	n/a
333.1825	0.105	666365	keystroke_t	t	n/a
333.3175	0.0755	666635	keystroke_h	h	n/a
333.408	0.045	666816	keystroke_e	e	n/a
333.423	0.12	666846	keystroke_r	r	n/a
333.528	0.09	667056	keystroke_Key.space	Key.space	n/a
333.603	0.12	667206	keystroke_i	i	n/a
333.693	0.105	667386	keystroke_n	n	n/a
333.813	0.135	667626	keystroke_s	s	n/a
333.933	0.0595	667866	keystroke_i	i	n/a
334.0525	0.12	668105	keystroke_d	d	n/a
334.1575	0.165	668315	keystroke_e	e	n/a
334.3075	0.135	668615	keystroke_r	r	n/a
334.5475	0.045	669095	keystroke_Key.space	Key.space	n/a
335.087	0.061	670174	keystroke_y	y	n/a
335.313	0.105	670626	keystroke_a	a	n/a
335.433	0.075	670866	keystroke_m	m	n/a
335.538	0.089	671076	keystroke_a	a	n/a
335.642	0.076	671284	keystroke_m	m	n/a
335.793	0.074	671586	keystroke_a	a	n/a
336.273	0.075	672546	keystroke_Key.backspace	Key.backspace	n/a
336.423	0.0745	672846	keystroke_Key.backspace	Key.backspace	n/a
336.6325	0.09	673265	keystroke_h	h	n/a
336.7525	0.12	673505	keystroke_a	a	n/a
337.0525	0.09	674105	keystroke_Key.space	Key.space	n/a
337.5325	0.045	675065	keystroke_a	a	n/a
337.6975	0.09	675395	keystroke_r	r	n/a
337.878	0.075	675756	keystroke_a	a	n/a
338.567	0.105	677134	keystroke_b	b	n/a
338.747	0.1055	677494	keystroke_i	i	n/a
338.9425	0.105	677885	keystroke_a	a	n/a
339.482	0.15	678964	keystroke_Key.enter	Key.enter	n/a
339.6385	7.2105	679277	prompt	n/a	mines install summary suburban\n
340.277	0.091	680554	keystroke_m	m	n/a
340.428	0.09	680856	keystroke_i	i	n/a
340.503	0.105	681006	keystroke_n	n	n/a
340.653	0.075	681306	keystroke_e	e	n/a
340.818	0.1045	681636	keystroke_s	s	n/a
340.8925	0.12	681785	keystroke_Key.space	Key.space	n/a
340.9975	0.105	681995	keystroke_i	i	n/a
341.0725	0.105	682145	keystroke_n	n	n/a
341.342	0.076	682684	keystroke_s	s	n/a
341.508	0.075	683016	keystroke_t	t	n/a
341.688	0.06	683376	keystroke_a	a	n/a
341.763	0.0445	683526	keystroke_l	l	n/a
341.9125	0.075	683825	keystroke_l	l	n/a
342.093	0.0745	684186	keystroke_Key.space	Key.space	n/a
342.1975	0.105	684395	keystroke_s	s	n/a
342.3035	0.074	684607	keystroke_u	u	n/a
342.5725	0.015	685145	keystroke_m	m	n/a
342.6625	0.09	685325	keystroke_m	m	n/a
342.8125	0.0905	685625	keystroke_a	a	n/a
342.9475	0.09	685895	keystroke_r	r	n/a
343.367	0.106	686734	keystroke_y	y	n/a
343.893	0.0595	687786	keystroke_Key.space	Key.space	n/a
344.3275	0.09	688655	keystroke_s	s	n/a
344.4625	0.1045	688925	keystroke_u	u	n/a
344.597	0.075	689194	keystroke_b	b	n/a
344.792	0.09	689584	keystroke_u	u	n/a
344.9875	0.09	689975	keystroke_r	r	n/a
345.1825	0.045	690365	keystroke_b	b	n/a
345.527	0.0905	691054	keystroke_a	a	n/a
346.1125	0.075	692225	keystroke_n	n	n/a
346.743	0.105	693486	keystroke_Key.enter	Key.enter	n/a
346.852	7.767	693704	prompt	n/a	mario partial jpeg stephanie\n
347.5225	0.09	695045	keystroke_m	m	n/a
347.6135	0.089	695227	keystroke_a	a	n/a
347.7775	0.105	695555	keystroke_r	r	n/a
348.0325	0.12	696065	keystroke_i	i	n/a
348.1825	0.12	696365	keystroke_o	o	n/a
348.378	0.1195	696756	keystroke_Key.space	Key.space	n/a
348.7975	0.09	697595	keystroke_p	p	n/a
349.0525	0.09	698105	keystroke_a	a	n/a
349.3075	0.1495	698615	keystroke_r	r	n/a
349.4275	0.0745	698855	keystroke_t	t	n/a
349.472	0.075	698944	keystroke_i	i	n/a
349.742	0.105	699484	keystroke_a	a	n/a
349.832	0.1355	699664	keystroke_l	l	n/a
350.0575	0.09	700115	keystroke_Key.space	Key.space	n/a
350.897	0.06	701794	keystroke_j	j	n/a
351.093	0.09	702186	keystroke_p	p	n/a
351.273	0.09	702546	keystroke_e	e	n/a
351.498	0.09	702996	keystroke_g	g	n/a
352.097	0.09	704194	keystroke_Key.space	Key.space	n/a
352.5475	0.075	705095	keystroke_s	s	n/a
352.7125	0.075	705425	keystroke_t	t	n/a
352.7885	0.119	705577	keystroke_e	e	n/a
352.9225	0.06	705845	keystroke_p	p	n/a
353.0575	0.09	706115	keystroke_h	h	n/a
353.238	0.074	706476	keystroke_a	a	n/a
353.327	0.061	706654	keystroke_n	n	n/a
353.433	0.09	706866	keystroke_i	i	n/a
353.7025	0.06	707405	keystroke_c	c	n/a
354.0325	0.075	708065	keystroke_Key.backspace	Key.backspace	n/a
354.1375	0.06	708275	keystroke_e	e	n/a
354.482	0.135	708964	keystroke_Key.enter	Key.enter	n/a
354.625	5.319	709250	prompt	n/a	an babes black videos\n
355.638	0.075	711276	keystroke_a	a	n/a
355.728	0.0585	711456	keystroke_n	n	n/a
355.9225	0.06	711845	keystroke_Key.space	Key.space	n/a
356.1775	0.045	712355	keystroke_b	b	n/a
356.3125	0.06	712625	keystroke_a	a	n/a
356.3575	0.06	712715	keystroke_b	b	n/a
356.4775	0.105	712955	keystroke_e	e	n/a
356.7025	0.0745	713405	keystroke_s	s	n/a
356.777	0.105	713554	keystroke_Key.space	Key.space	n/a
357.002	0.075	714004	keystroke_b	b	n/a
357.182	0.09	714364	keystroke_l	l	n/a
357.257	0.09	714514	keystroke_a	a	n/a
357.392	0.1505	714784	keystroke_c	c	n/a
357.5265	0.076	715053	keystroke_k	k	n/a
357.6925	0.105	715385	keystroke_Key.space	Key.space	n/a
358.097	0.045	716194	keystroke_v	v	n/a
358.172	0.09	716344	keystroke_i	i	n/a
358.352	0.1045	716704	keystroke_d	d	n/a
358.4275	0.089	716855	keystroke_e	e	n/a
358.7425	0.06	717485	keystroke_p	p	n/a
359.0575	0.075	718115	keystroke_s	s	n/a
359.2525	0.0595	718505	keystroke_Key.backspace	Key.backspace	n/a
359.402	0.06	718804	keystroke_Key.backspace	Key.backspace	n/a
359.5665	0.076	719133	keystroke_o	o	n/a
359.6575	0.09	719315	keystroke_s	s	n/a
359.852	0.09	719704	keystroke_Key.enter	Key.enter	n/a
359.95	7.9585	719900	prompt	n/a	memorial yoga blair bundle\n
360.6315	0.09	721263	keystroke_m	m	n/a
360.7365	0.136	721473	keystroke_e	e	n/a
360.8575	0.075	721715	keystroke_m	m	n/a
361.0375	0.09	722075	keystroke_o	o	n/a
361.352	0.09	722704	keystroke_r	r	n/a
361.472	0.09	722944	keystroke_i	i	n/a
361.6515	0.06	723303	keystroke_a	a	n/a
361.9975	0.1045	723995	keystroke_;	;	n/a
362.522	0.075	725044	keystroke_Key.backspace	Key.backspace	n/a
362.7325	0.075	725465	keystroke_k	k	n/a
363.2125	0.1045	726425	keystroke_Key.backspace	Key.backspace	n/a
363.5565	0.09	727113	keystroke_l	l	n/a
363.7815	0.0905	727563	keystroke_Key.space	Key.space	n/a
364.142	0.135	728284	keystroke_y	y	n/a
364.397	0.105	728794	keystroke_o	o	n/a
364.7725	0.135	729545	keystroke_g	g	n/a
365.0575	0.12	730115	keystroke_a	a	n/a
365.1925	0.09	730385	keystroke_Key.space	Key.space	n/a
365.417	0.0745	730834	keystroke_b	b	n/a
365.6115	0.091	731223	keystroke_l	l	n/a
365.7475	0.075	731495	keystroke_a	a	n/a
365.8375	0.075	731675	keystroke_i	i	n/a
366.0025	0.09	732005	keystroke_r	r	n/a
366.1675	0.09	732335	keystroke_Key.space	Key.space	n/a
366.4375	0.0895	732875	keystroke_b	b	n/a
366.587	0.09	733174	keystroke_u	u	n/a
366.797	0.045	733594	keystroke_n	n	n/a
366.827	0.105	733654	keystroke_d	d	n/a
367.2775	0.1195	734555	keystroke_l	l	n/a
367.442	0.105	734884	keystroke_e	e	n/a
367.7875	0.12	735575	keystroke_Key.enter	Key.enter	n/a
367.912	11.7715	735824	prompt	n/a	luck farming season transcription\n
368.6275	0.059	737255	keystroke_l	l	n/a
368.822	0.075	737644	keystroke_u	u	n/a
368.987	0.09	737974	keystroke_c	c	n/a
369.092	0.105	738184	keystroke_k	k	n/a
369.302	0.075	738604	keystroke_Key.space	Key.space	n/a
369.467	0.1045	738934	keystroke_f	f	n/a
369.6015	0.105	739203	keystroke_a	a	n/a
369.7375	0.119	739475	keystroke_r	r	n/a
369.9025	0.09	739805	keystroke_m	m	n/a
370.0675	0.1195	740135	keystroke_i	i	n/a
370.142	0.09	740284	keystroke_n	n	n/a
370.217	0.09	740434	keystroke_g	g	n/a
370.382	0.075	740764	keystroke_Key.space	Key.space	n/a
370.532	0.1355	741064	keystroke_s	s	n/a
370.682	0.1345	741364	keystroke_e	e	n/a
370.8915	0.151	741783	keystroke_a	a	n/a
371.0425	0.135	742085	keystroke_s	s	n/a
371.582	0.1195	743164	keystroke_p	p	n/a
371.6865	0.075	743373	keystroke_n	n	n/a
371.9565	0.046	743913	keystroke_Key.space	Key.space	n/a
372.2275	0.075	744455	keystroke_Key.backspace	Key.backspace	n/a
372.4075	0.06	744815	keystroke_Key.backspace	Key.backspace	n/a
372.557	0.075	745114	keystroke_Key.backspace	Key.backspace	n/a
372.857	0.135	745714	keystroke_o	o	n/a
372.917	0.12	745834	keystroke_n	n	n/a
373.172	0.105	746344	keystroke_Key.space	Key.space	n/a
373.337	0.105	746674	keystroke_t	t	n/a
373.3975	0.1195	746795	keystroke_r	r	n/a
373.622	0.1195	747244	keystroke_a	a	n/a
373.7115	0.151	747423	keystroke_s	s	n/a
374.012	0.105	748024	keystroke_c	c	n/a
374.4315	0.045	748863	keystroke_Key.backspace	Key.backspace	n/a
374.5515	0.06	749103	keystroke_Key.backspace	Key.backspace	n/a
374.7625	0.074	749525	keystroke_n	n	n/a
374.8515	0.106	749703	keystroke_c	c	n/a
375.212	0.12	750424	keystroke_s	s	n/a
376.2915	0.06	752583	keystroke_Key.backspace	Key.backspace	n/a
376.4415	0.045	752883	keystroke_Key.backspace	Key.backspace	n/a
376.5315	0.09	753063	keystroke_s	s	n/a
376.7865	0.09	753573	keystroke_c	c	n/a
377.133	0.089	754266	keystroke_r	r	n/a
377.9725	0.075	755945	keystroke_i	i	n/a
378.2125	0.0895	756425	keystroke_p	p	n/a
378.497	0.075	756994	keystroke_t	t	n/a
378.692	0.15	757384	keystroke_i	i	n/a
378.887	0.15	757774	keystroke_o	o	n/a
379.052	0.06	758104	keystroke_n	n	n/a
379.5765	0.1055	759153	keystroke_Key.enter	Key.enter	n/a
379.687	10.4665	759374	prompt	n/a	travelers surface attacked explains\n
380.4625	0.1045	760925	keystroke_t	t	n/a
380.537	0.1045	761074	keystroke_r	r	n/a
380.7465	0.075	761493	keystroke_a	a	n/a
380.8965	0.12	761793	keystroke_v	v	n/a
381.0315	0.09	762063	keystroke_e	e	n/a
381.1065	0.09	762213	keystroke_l	l	n/a
381.4975	0.1045	762995	keystroke_e	e	n/a
381.557	0.12	763114	keystroke_r	r	n/a
381.767	0.105	763534	keystroke_s	s	n/a
381.887	0.09	763774	keystroke_Key.space	Key.space	n/a
381.992	0.075	763984	keystroke_s	s	n/a
382.037	0.135	764074	keystroke_u	u	n/a
382.217	0.075	764434	keystroke_r	r	n/a
382.382	0.0905	764764	keystroke_a	a	n/a
382.577	0.135	765154	keystroke_c	c	n/a
382.697	0.075	765394	keystroke_e	e	n/a
383.5515	0.045	767103	keystroke_Key.backspace	Key.backspace	n/a
383.7015	0.045	767403	keystroke_Key.backspace	Key.backspace	n/a
383.837	0.105	767674	keystroke_Key.backspace	Key.backspace	n/a
383.957	0.09	767914	keystroke_g	g	n/a
384.152	0.06	768304	keystroke_a	a	n/a
384.242	0.045	768484	keystroke_c	c	n/a
384.4365	0.075	768873	keystroke_Key.backspace	Key.backspace	n/a
384.6165	0.045	769233	keystroke_Key.backspace	Key.backspace	n/a
384.7515	0.075	769503	keystroke_Key.backspace	Key.backspace	n/a
384.8115	0.075	769623	keystroke_f	f	n/a
384.9015	0.12	769803	keystroke_a	a	n/a
385.3665	0.075	770733	keystroke_c	c	n/a
385.4865	0.09	770973	keystroke_e	e	n/a
385.6515	0.075	771303	keystroke_Key.space	Key.space	n/a
385.7415	0.075	771483	keystroke_a	a	n/a
385.8915	0.09	771783	keystroke_t	t	n/a
386.0715	0.075	772143	keystroke_t	t	n/a
386.2075	0.09	772415	keystroke_a	a	n/a
386.3575	0.119	772715	keystroke_c	c	n/a
386.4915	0.12	772983	keystroke_k	k	n/a
386.5965	0.075	773193	keystroke_e	e	n/a
386.7765	0.105	773553	keystroke_d	d	n/a
386.8965	0.09	773793	keystroke_Key.space	Key.space	n/a
387.0615	0.0755	774123	keystroke_e	e	n/a
387.272	0.09	774544	keystroke_x	x	n/a
387.452	0.075	774904	keystroke_p	p	n/a
388.232	0.075	776464	keystroke_l	l	n/a
388.412	0.09	776824	keystroke_a	a	n/a
388.487	0.135	776974	keystroke_i	i	n/a
388.667	0.12	777334	keystroke_s	s	n/a
389.1165	0.075	778233	keystroke_Key.backspace	Key.backspace	n/a
389.342	0.09	778684	keystroke_n	n	n/a
389.417	0.135	778834	keystroke_s	s	n/a
390.017	0.135	780034	keystroke_Key.enter	Key.enter	n/a
390.158	7.7205	780316	prompt	n/a	enterprise truth something questionnaire\n
390.827	0.0895	781654	keystroke_e	e	n/a
390.9015	0.09	781803	keystroke_n	n	n/a
391.0215	0.09	782043	keystroke_t	t	n/a
391.1565	0.105	782313	keystroke_e	e	n/a
391.2465	0.075	782493	keystroke_r	r	n/a
391.6365	0.105	783273	keystroke_p	p	n/a
391.8015	0.12	783603	keystroke_r	r	n/a
391.9365	0.075	783873	keystroke_i	i	n/a
392.1615	0.1355	784323	keystroke_s	s	n/a
392.282	0.075	784564	keystroke_e	e	n/a
392.402	0.12	784804	keystroke_Key.space	Key.space	n/a
392.582	0.12	785164	keystroke_t	t	n/a
392.822	0.105	785644	keystroke_r	r	n/a
392.927	0.09	785854	keystroke_u	u	n/a
393.107	0.0745	786214	keystroke_t	t	n/a
393.2115	0.0605	786423	keystroke_h	h	n/a
393.3915	0.09	786783	keystroke_Key.space	Key.space	n/a
393.5415	0.105	787083	keystroke_s	s	n/a
393.6315	0.12	787263	keystroke_o	o	n/a
393.7065	0.1205	787413	keystroke_m	m	n/a
393.842	0.135	787684	keystroke_e	e	n/a
393.992	0.12	787984	keystroke_t	t	n/a
394.082	0.06	788164	keystroke_h	h	n/a
394.127	0.15	788254	keystroke_i	i	n/a
394.232	0.0895	788464	keystroke_n	n	n/a
394.3665	0.09	788733	keystroke_g	g	n/a
394.4715	0.09	788943	keystroke_Key.space	Key.space	n/a
394.832	0.135	789664	keystroke_q	q	n/a
394.982	0.075	789964	keystroke_u	u	n/a
395.1315	0.135	790263	keystroke_e	e	n/a
395.2515	0.075	790503	keystroke_s	s	n/a
395.4165	0.09	790833	keystroke_t	t	n/a
395.567	0.075	791134	keystroke_u	u	n/a
396.017	0.0895	792034	keystroke_Key.backspace	Key.backspace	n/a
396.2865	0.105	792573	keystroke_i	i	n/a
396.3615	0.105	792723	keystroke_o	o	n/a
396.5715	0.075	793143	keystroke_n	n	n/a
396.7515	0.06	793503	keystroke_n	n	n/a
396.977	0.075	793954	keystroke_a	a	n/a
397.0965	0.0455	794193	keystroke_i	i	n/a
397.2465	0.09	794493	keystroke_r	r	n/a
397.4115	0.105	794823	keystroke_e	e	n/a
397.7565	0.1205	795513	keystroke_Key.enter	Key.enter	n/a
397.8815	8.8915	795763	prompt	n/a	divx barbie cape narrative\n
399.6915	0.0755	799383	keystroke_d	d	n/a
399.7965	0.06	799593	keystroke_i	i	n/a
400.877	0.075	801754	keystroke_v	v	n/a
401.117	0.1055	802234	keystroke_x	x	n/a
401.7915	0.0905	803583	keystroke_Key.space	Key.space	n/a
401.971	0.091	803942	keystroke_b	b	n/a
402.122	0.075	804244	keystroke_a	a	n/a
402.392	0.09	804784	keystroke_b	b	n/a
402.8265	0.0755	805653	keystroke_Key.backspace	Key.backspace	n/a
402.947	0.105	805894	keystroke_r	r	n/a
403.067	0.1045	806134	keystroke_b	b	n/a
403.2615	0.075	806523	keystroke_i	i	n/a
403.3665	0.121	806733	keystroke_e	e	n/a
403.607	0.045	807214	keystroke_Key.space	Key.space	n/a
403.892	0.12	807784	keystroke_c	c	n/a
403.997	0.12	807994	keystroke_a	a	n/a
404.2815	0.105	808563	keystroke_p	p	n/a
404.5665	0.105	809133	keystroke_e	e	n/a
404.7765	0.09	809553	keystroke_Key.space	Key.space	n/a
405.047	0.075	810094	keystroke_n	n	n/a
405.137	0.09	810274	keystroke_a	a	n/a
405.2865	0.045	810573	keystroke_r	r	n/a
405.4365	0.0905	810873	keystroke_r	r	n/a
405.5115	0.12	811023	keystroke_a	a	n/a
406.0365	0.1045	812073	keystroke_t	t	n/a
406.1715	0.0905	812343	keystroke_i	i	n/a
406.352	0.105	812704	keystroke_v	v	n/a
406.502	0.0895	813004	keystroke_e	e	n/a
406.6365	0.135	813273	keystroke_Key.enter	Key.enter	n/a
406.779	10.1345	813558	prompt	n/a	zshops sublime chips reduced\n
407.942	0.105	815884	keystroke_z	z	n/a
408.3915	0.09	816783	keystroke_h	h	n/a
408.5415	0.1045	817083	keystroke_o	o	n/a
408.737	0.075	817474	keystroke_p	p	n/a
408.842	0.09	817684	keystroke_s	s	n/a
409.007	0.09	818014	keystroke_Key.space	Key.space	n/a
409.187	0.09	818374	keystroke_s	s	n/a
409.6815	0.09	819363	keystroke_u	u	n/a
410.0275	0.074	820055	keystroke_b	b	n/a
410.3265	0.09	820653	keystroke_l	l	n/a
410.5365	0.09	821073	keystroke_u	u	n/a
411.0015	0.075	822003	keystroke_Key.backspace	Key.backspace	n/a
411.2865	0.15	822573	keystroke_i	i	n/a
411.3615	0.15	822723	keystroke_m	m	n/a
411.5715	0.09	823143	keystroke_e	e	n/a
411.6765	0.0895	823353	keystroke_Key.space	Key.space	n/a
411.8865	0.105	823773	keystroke_c	c	n/a
411.9615	0.12	823923	keystroke_h	h	n/a
412.1415	0.06	824283	keystroke_o	o	n/a
412.5465	0.075	825093	keystroke_Key.backspace	Key.backspace	n/a
412.771	0.09	825542	keystroke_u	u	n/a
412.966	0.091	825932	keystroke_p	p	n/a
413.102	0.09	826204	keystroke_s	s	n/a
413.327	0.075	826654	keystroke_Key.backspace	Key.backspace	n/a
413.477	0.06	826954	keystroke_Key.backspace	Key.backspace	n/a
413.6265	0.06	827253	keystroke_Key.backspace	Key.backspace	n/a
413.867	0.09	827734	keystroke_i	i	n/a
414.242	0.1045	828484	keystroke_p	p	n/a
414.4065	0.12	828813	keystroke_s	s	n/a
414.6165	0.09	829233	keystroke_Key.space	Key.space	n/a
414.797	0.044	829594	keystroke_r	r	n/a
414.811	0.12	829622	keystroke_e	e	n/a
415.817	0.09	831634	keystroke_d	d	n/a
415.952	0.1045	831904	keystroke_u	u	n/a
416.1315	0.105	832263	keystroke_c	c	n/a
416.2065	0.09	832413	keystroke_e	e	n/a
416.4165	0.0905	832833	keystroke_d	d	n/a
416.792	0.1195	833584	keystroke_Key.enter	Key.enter	n/a
416.9165	6.4765	833833	prompt	n/a	watershed vice absent cancer\n
417.5565	0.105	835113	keystroke_w	w	n/a
417.7665	0.105	835533	keystroke_a	a	n/a
417.9315	0.105	835863	keystroke_t	t	n/a
418.0815	0.09	836163	keystroke_e	e	n/a
418.1565	0.075	836313	keystroke_r	r	n/a
418.3365	0.075	836673	keystroke_s	s	n/a
418.4265	0.075	836853	keystroke_h	h	n/a
418.6515	0.0895	837303	keystroke_e	e	n/a
418.846	0.075	837692	keystroke_d	d	n/a
418.966	0.106	837932	keystroke_Key.space	Key.space	n/a
419.4465	0.105	838893	keystroke_v	v	n/a
419.6265	0.105	839253	keystroke_i	i	n/a
419.807	0.12	839614	keystroke_d	d	n/a
419.897	0.105	839794	keystroke_e	e	n/a
420.406	0.06	840812	keystroke_Key.backspace	Key.backspace	n/a
420.556	0.106	841112	keystroke_Key.backspace	Key.backspace	n/a
420.647	0.135	841294	keystroke_c	c	n/a
420.722	0.12	841444	keystroke_e	e	n/a
420.872	0.09	841744	keystroke_Key.space	Key.space	n/a
421.007	0.0745	842014	keystroke_a	a	n/a
421.3365	0.075	842673	keystroke_b	b	n/a
421.5465	0.135	843093	keystroke_s	s	n/a
421.787	0.12	843574	keystroke_e	e	n/a
421.997	0.105	843994	keystroke_n	n	n/a
422.1165	0.12	844233	keystroke_t	t	n/a
422.2965	0.0895	844593	keystroke_Key.space	Key.space	n/a
422.551	0.121	845102	keystroke_c	c	n/a
422.657	0.09	845314	keystroke_a	a	n/a
422.777	0.09	845554	keystroke_n	n	n/a
422.882	0.075	845764	keystroke_c	c	n/a
423.002	0.12	846004	keystroke_e	e	n/a
423.107	0.075	846214	keystroke_r	r	n/a
423.2715	0.12	846543	keystroke_Key.enter	Key.enter	n/a
423.3965	8.1415	846793	prompt	n/a	gods russia types afterwards\n
424.232	0.0895	848464	keystroke_g	g	n/a
424.3515	0.09	848703	keystroke_o	o	n/a
424.4865	0.18	848973	keystroke_d	d	n/a
424.6515	0.09	849303	keystroke_s	s	n/a
424.7715	0.12	849543	keystroke_Key.space	Key.space	n/a
424.8765	0.09	849753	keystroke_r	r	n/a
424.9815	0.075	849963	keystroke_u	u	n/a
425.0865	0.0745	850173	keystroke_s	s	n/a
425.281	0.09	850562	keystroke_s	s	n/a
425.521	0.076	851042	keystroke_i	i	n/a
425.657	0.105	851314	keystroke_a	a	n/a
425.776	0.09	851552	keystroke_Key.space	Key.space	n/a
426.211	0.105	852422	keystroke_t	t	n/a
427.0065	0.075	854013	keystroke_y	y	n/a
427.3515	0.09	854703	keystroke_e	e	n/a
427.7565	0.0455	855513	keystroke_Key.backspace	Key.backspace	n/a
427.9815	0.12	855963	keystroke_e	e	n/a
428.0565	0.075	856113	keystroke_s	s	n/a
428.5665	0.045	857133	keystroke_Key.backspace	Key.backspace	n/a
428.6265	0.1055	857253	keystroke_Key.backspace	Key.backspace	n/a
428.717	0.12	857434	keystroke_p	p	n/a
428.822	0.1045	857644	keystroke_e	e	n/a
428.8965	0.12	857793	keystroke_s	s	n/a
429.0915	0.105	858183	keystroke_Key.space	Key.space	n/a
429.2265	0.075	858453	keystroke_a	a	n/a
429.9765	0.1045	859953	keystroke_f	f	n/a
430.186	0.075	860372	keystroke_t	t	n/a
430.321	0.09	860642	keystroke_e	e	n/a
430.366	0.105	860732	keystroke_r	r	n/a
430.546	0.136	861092	keystroke_w	w	n/a
430.712	0.12	861424	keystroke_a	a	n/a
430.817	0.0895	861634	keystroke_r	r	n/a
431.0115	0.105	862023	keystroke_d	d	n/a
431.0715	0.105	862143	keystroke_s	s	n/a
431.4165	0.12	862833	keystroke_Key.enter	Key.enter	n/a
431.544	7.284	863088	prompt	n/a	monitor join richard containers\n
432.151	0.09	864302	keystroke_m	m	n/a
432.316	0.09	864632	keystroke_o	o	n/a
432.481	0.091	864962	keystroke_n	n	n/a
432.631	0.091	865262	keystroke_t	t	n/a
433.0965	0.075	866193	keystroke_Key.backspace	Key.backspace	n/a
433.2765	0.09	866553	keystroke_i	i	n/a
433.3815	0.075	866763	keystroke_t	t	n/a
433.5015	0.06	867003	keystroke_o	o	n/a
433.6665	0.105	867333	keystroke_r	r	n/a
433.8765	0.12	867753	keystroke_Key.space	Key.space	n/a
434.131	0.12	868262	keystroke_j	j	n/a
434.401	0.09	868802	keystroke_o	o	n/a
434.626	0.091	869252	keystroke_i	i	n/a
434.807	0.105	869614	keystroke_n	n	n/a
435.0165	0.075	870033	keystroke_Key.space	Key.space	n/a
435.2265	0.105	870453	keystroke_r	r	n/a
435.3465	0.075	870693	keystroke_i	i	n/a
435.4815	0.135	870963	keystroke_c	c	n/a
435.6315	0.06	871263	keystroke_h	h	n/a
435.6765	0.1195	871353	keystroke_a	a	n/a
435.781	0.106	871562	keystroke_r	r	n/a
436.171	0.075	872342	keystroke_Key.space	Key.space	n/a
436.591	0.09	873182	keystroke_Key.backspace	Key.backspace	n/a
436.696	0.105	873392	keystroke_d	d	n/a
436.846	0.105	873692	keystroke_Key.space	Key.space	n/a
436.996	0.1055	873992	keystroke_c	c	n/a
437.042	0.1195	874084	keystroke_o	o	n/a
437.1165	0.135	874233	keystroke_n	n	n/a
437.281	0.09	874562	keystroke_t	t	n/a
437.551	0.105	875102	keystroke_a	a	n/a
437.717	0.1345	875434	keystroke_i	i	n/a
437.776	0.0905	875552	keystroke_n	n	n/a
438.271	0.09	876542	keystroke_e	e	n/a
438.316	0.09	876632	keystroke_r	r	n/a
438.526	0.075	877052	keystroke_s	s	n/a
438.706	0.12	877412	keystroke_Key.enter	Key.enter	n/a
438.831	8.652	877662	prompt	n/a	english choir vehicle stakeholders\n
439.652	0.089	879304	keystroke_e	e	n/a
439.772	0.075	879544	keystroke_n	n	n/a
439.907	0.105	879814	keystroke_g	g	n/a
440.1165	0.09	880233	keystroke_l	l	n/a
440.2815	0.0905	880563	keystroke_i	i	n/a
440.4315	0.09	880863	keystroke_s	s	n/a
440.4915	0.09	880983	keystroke_h	h	n/a
440.7315	0.06	881463	keystroke_Key.space	Key.space	n/a
440.8065	0.09	881613	keystroke_c	c	n/a
441.331	0.105	882662	keystroke_h	h	n/a
441.526	0.15	883052	keystroke_o	o	n/a
441.646	0.1355	883292	keystroke_i	i	n/a
441.9165	0.105	883833	keystroke_r	r	n/a
442.0515	0.075	884103	keystroke_Key.space	Key.space	n/a
443.1465	0.06	886293	keystroke_v	v	n/a
443.2515	0.075	886503	keystroke_e	e	n/a
443.3415	0.09	886683	keystroke_h	h	n/a
443.5515	0.09	887103	keystroke_i	i	n/a
444.1515	0.12	888303	keystroke_c	c	n/a
444.4815	0.105	888963	keystroke_l	l	n/a
444.6465	0.09	889293	keystroke_e	e	n/a
444.7965	0.0895	889593	keystroke_Key.space	Key.space	n/a
445.246	0.105	890492	keystroke_s	s	n/a
445.456	0.09	890912	keystroke_t	t	n/a
445.651	0.0905	891302	keystroke_a	a	n/a
445.7715	0.12	891543	keystroke_k	k	n/a
446.1015	0.075	892203	keystroke_e	e	n/a
446.326	0.06	892652	keystroke_h	h	n/a
446.521	0.076	893042	keystroke_o	o	n/a
446.716	0.0755	893432	keystroke_l	l	n/a
446.8365	0.0895	893673	keystroke_d	d	n/a
447.031	0.06	894062	keystroke_e	e	n/a
447.076	0.06	894152	keystroke_r	r	n/a
447.211	0.105	894422	keystroke_s	s	n/a
447.391	0.09	894782	keystroke_Key.enter	Key.enter	n/a
447.4875	9.5505	894975	prompt	n/a	currently allied argentina surname\n
448.2615	0.105	896523	keystroke_c	c	n/a
448.3665	0.09	896733	keystroke_u	u	n/a
448.7115	0.0445	897423	keystroke_r	r	n/a
448.831	0.135	897662	keystroke_r	r	n/a
448.921	0.12	897842	keystroke_e	e	n/a
449.101	0.075	898202	keystroke_n	n	n/a
449.161	0.136	898322	keystroke_t	t	n/a
449.762	0.1195	899524	keystroke_l	l	n/a
450.0465	0.075	900093	keystroke_y	y	n/a
450.3915	0.06	900783	keystroke_Key.space	Key.space	n/a
450.496	0.106	900992	keystroke_a	a	n/a
450.616	0.196	901232	keystroke_l	l	n/a
451.0365	0.09	902073	keystroke_l	l	n/a
451.861	0.0905	903722	keystroke_i	i	n/a
452.0415	0.09	904083	keystroke_e	e	n/a
452.2665	0.105	904533	keystroke_d	d	n/a
452.4465	0.1195	904893	keystroke_Key.space	Key.space	n/a
453.001	0.105	906002	keystroke_a	a	n/a
453.3765	0.075	906753	keystroke_r	r	n/a
453.5565	0.075	907113	keystroke_g	g	n/a
453.7065	0.0895	907413	keystroke_e	e	n/a
453.811	0.09	907622	keystroke_n	n	n/a
453.886	0.09	907772	keystroke_t	t	n/a
453.991	0.105	907982	keystroke_i	i	n/a
454.171	0.091	908342	keystroke_n	n	n/a
454.3965	0.105	908793	keystroke_a	a	n/a
454.6515	0.105	909303	keystroke_Key.space	Key.space	n/a
454.9065	0.12	909813	keystroke_s	s	n/a
455.0415	0.075	910083	keystroke_u	u	n/a
455.1615	0.0745	910323	keystroke_r	r	n/a
455.251	0.075	910502	keystroke_b	b	n/a
455.8965	0.075	911793	keystroke_Key.backspace	Key.backspace	n/a
456.1515	0.0745	912303	keystroke_n	n	n/a
456.331	0.12	912662	keystroke_a	a	n/a
456.466	0.045	912932	keystroke_m	m	n/a
456.601	0.105	913202	keystroke_e	e	n/a
456.886	0.15	913772	keystroke_Key.enter	Key.enter	n/a
457.0425	8.785	914085	prompt	n/a	mambo visit done reed\n
457.756	0.06	915512	keystroke_m	m	n/a
457.861	0.12	915722	keystroke_a	a	n/a
458.026	0.061	916052	keystroke_n	n	n/a
458.4165	0.075	916833	keystroke_Key.backspace	Key.backspace	n/a
458.6415	0.0295	917283	keystroke_,	,	n/a
458.851	0.09	917702	keystroke_b	b	n/a
459.1955	0.061	918391	keystroke_Key.backspace	Key.backspace	n/a
459.3465	0.03	918693	keystroke_Key.backspace	Key.backspace	n/a
460.306	0.09	920612	keystroke_,	,	n/a
460.741	0.09	921482	keystroke_Key.backspace	Key.backspace	n/a
461.0255	0.0905	922051	keystroke_m	m	n/a
461.2515	0.09	922503	keystroke_b	b	n/a
461.5065	0.06	923013	keystroke_o	o	n/a
461.7315	0.0745	923463	keystroke_Key.space	Key.space	n/a
462.031	0.105	924062	keystroke_b	b	n/a
462.151	0.0745	924302	keystroke_i	i	n/a
462.3615	0.075	924723	keystroke_s	s	n/a
462.6165	0.045	925233	keystroke_Key.backspace	Key.backspace	n/a
462.7365	0.105	925473	keystroke_Key.backspace	Key.backspace	n/a
462.9165	0.0895	925833	keystroke_v	v	n/a
463.291	0.045	926582	keystroke_Key.backspace	Key.backspace	n/a
463.441	0.06	926882	keystroke_Key.backspace	Key.backspace	n/a
463.561	0.09	927122	keystroke_v	v	n/a
463.681	0.075	927362	keystroke_i	i	n/a
463.786	0.1195	927572	keystroke_s	s	n/a
463.907	0.0745	927814	keystroke_i	i	n/a
464.0415	0.0895	928083	keystroke_t	t	n/a
464.161	0.09	928322	keystroke_Key.space	Key.space	n/a
464.371	0.12	928742	keystroke_d	d	n/a
464.476	0.105	928952	keystroke_o	o	n/a
464.701	0.075	929402	keystroke_n	n	n/a
464.8505	0.105	929701	keystroke_e	e	n/a
465.0015	0.105	930003	keystroke_Key.space	Key.space	n/a
465.166	0.105	930332	keystroke_r	r	n/a
465.241	0.09	930482	keystroke_e	e	n/a
465.421	0.075	930842	keystroke_e	e	n/a
465.586	0.105	931172	keystroke_d	d	n/a
465.706	0.1205	931412	keystroke_Key.enter	Key.enter	n/a
465.8305	6.267	931661	prompt	n/a	mesa divide documented regions\n
466.651	0.075	933302	keystroke_m	m	n/a
466.741	0.09	933482	keystroke_e	e	n/a
466.951	0.12	933902	keystroke_s	s	n/a
467.056	0.09	934112	keystroke_a	a	n/a
467.206	0.09	934412	keystroke_Key.space	Key.space	n/a
467.3715	0.135	934743	keystroke_d	d	n/a
467.5515	0.105	935103	keystroke_i	i	n/a
468.331	0.0755	936662	keystroke_v	v	n/a
468.4215	0.09	936843	keystroke_i	i	n/a
468.6015	0.105	937203	keystroke_d	d	n/a
468.6465	0.1195	937293	keystroke_e	e	n/a
468.796	0.09	937592	keystroke_Key.space	Key.space	n/a
469.006	0.09	938012	keystroke_d	d	n/a
469.111	0.09	938222	keystroke_o	o	n/a
469.441	0.075	938882	keystroke_c	c	n/a
469.591	0.0895	939182	keystroke_u	u	n/a
469.8455	0.076	939691	keystroke_m	m	n/a
470.0115	0.12	940023	keystroke_e	e	n/a
470.1315	0.09	940263	keystroke_n	n	n/a
470.2515	0.105	940503	keystroke_t	t	n/a
470.4015	0.06	940803	keystroke_e	e	n/a
470.581	0.09	941162	keystroke_d	d	n/a
470.716	0.09	941432	keystroke_Key.space	Key.space	n/a
470.881	0.1055	941762	keystroke_r	r	n/a
470.9565	0.09	941913	keystroke_e	e	n/a
471.1965	0.09	942393	keystroke_g	g	n/a
471.3015	0.09	942603	keystroke_i	i	n/a
471.5115	0.1195	943023	keystroke_o	o	n/a
471.616	0.09	943232	keystroke_n	n	n/a
471.7655	0.09	943531	keystroke_s	s	n/a
471.976	0.12	943952	keystroke_Key.enter	Key.enter	n/a
472.1005	6.0125	944201	prompt	n/a	miles focus hobby passenger\n
472.7565	0.0595	945513	keystroke_m	m	n/a
472.906	0.06	945812	keystroke_i	i	n/a
473.101	0.075	946202	keystroke_l	l	n/a
473.251	0.06	946502	keystroke_e	e	n/a
473.416	0.09	946832	keystroke_s	s	n/a
473.536	0.075	947072	keystroke_Key.space	Key.space	n/a
474.3765	0.075	948753	keystroke_f	f	n/a
474.4665	0.075	948933	keystroke_o	o	n/a
474.6465	0.09	949293	keystroke_c	c	n/a
474.7665	0.09	949533	keystroke_u	u	n/a
474.9015	0.09	949803	keystroke_s	s	n/a
475.006	0.09	950012	keystroke_Key.space	Key.space	n/a
475.216	0.09	950432	keystroke_h	h	n/a
475.3805	0.12	950761	keystroke_o	o	n/a
475.6055	0.046	951211	keystroke_b	b	n/a
475.741	0.09	951482	keystroke_b	b	n/a
475.936	0.09	951872	keystroke_y	y	n/a
476.161	0.075	952322	keystroke_Key.space	Key.space	n/a
476.3865	0.075	952773	keystroke_p	p	n/a
476.5065	0.105	953013	keystroke_a	a	n/a
476.836	0.075	953672	keystroke_s	s	n/a
477.001	0.09	954002	keystroke_s	s	n/a
477.286	0.075	954572	keystroke_e	e	n/a
477.511	0.045	955022	keystroke_n	n	n/a
477.601	0.0745	955202	keystroke_g	g	n/a
477.781	0.105	955562	keystroke_e	e	n/a
477.841	0.105	955682	keystroke_r	r	n/a
477.961	0.1505	955922	keystroke_Key.enter	Key.enter	n/a
478.1155	5.9525	956231	prompt	n/a	generally asthma soup developed\n
478.9515	0.09	957903	keystroke_g	g	n/a
479.0865	0.09	958173	keystroke_e	e	n/a
479.1915	0.0745	958383	keystroke_n	n	n/a
479.311	0.06	958622	keystroke_e	e	n/a
479.326	0.135	958652	keystroke_r	r	n/a
479.521	0.075	959042	keystroke_a	a	n/a
479.626	0.06	959252	keystroke_l	l	n/a
479.7915	0.06	959583	keystroke_l	l	n/a
480.0315	0.075	960063	keystroke_y	y	n/a
480.2415	0.0745	960483	keystroke_Key.space	Key.space	n/a
480.346	0.075	960692	keystroke_a	a	n/a
480.391	0.12	960782	keystroke_s	s	n/a
480.6605	0.105	961321	keystroke_t	t	n/a
480.8265	0.09	961653	keystroke_h	h	n/a
481.1265	0.0745	962253	keystroke_m	m	n/a
481.2465	0.135	962493	keystroke_a	a	n/a
481.516	0.045	963032	keystroke_Key.space	Key.space	n/a
481.741	0.0905	963482	keystroke_s	s	n/a
481.8465	0.12	963693	keystroke_o	o	n/a
481.9515	0.075	963903	keystroke_u	u	n/a
482.1615	0.105	964323	keystroke_p	p	n/a
482.3565	0.09	964713	keystroke_Key.space	Key.space	n/a
482.761	0.06	965522	keystroke_d	d	n/a
482.806	0.12	965612	keystroke_e	e	n/a
483.031	0.09	966062	keystroke_v	v	n/a
483.136	0.075	966272	keystroke_e	e	n/a
483.226	0.06	966452	keystroke_l	l	n/a
483.391	0.031	966782	keystroke_o	o	n/a
483.5265	0.075	967053	keystroke_p	p	n/a
483.6305	0.076	967261	keystroke_e	e	n/a
483.7805	0.136	967561	keystroke_d	d	n/a
483.9175	0.149	967835	keystroke_Key.enter	Key.enter	n/a
484.0715	5.876	968143	prompt	n/a	rides before promoted blades\n
485.1765	0.075	970353	keystroke_r	r	n/a
485.2815	0.045	970563	keystroke_i	i	n/a
485.476	0.105	970952	keystroke_d	d	n/a
485.536	0.09	971072	keystroke_e	e	n/a
485.7315	0.09	971463	keystroke_s	s	n/a
485.8365	0.1045	971673	keystroke_Key.space	Key.space	n/a
486.001	0.075	972002	keystroke_b	b	n/a
486.091	0.09	972182	keystroke_e	e	n/a
486.241	0.075	972482	keystroke_f	f	n/a
486.3605	0.09	972721	keystroke_o	o	n/a
486.4655	0.105	972931	keystroke_r	r	n/a
486.5405	0.0905	973081	keystroke_e	e	n/a
486.676	0.06	973352	keystroke_Key.space	Key.space	n/a
486.781	0.09	973562	keystroke_r	r	n/a
487.0805	0.075	974161	keystroke_Key.backspace	Key.backspace	n/a
487.2755	0.06	974551	keystroke_p	p	n/a
487.3955	0.091	974791	keystroke_r	r	n/a
487.5165	0.09	975033	keystroke_o	o	n/a
488.041	0.0445	976082	keystroke_m	m	n/a
488.1755	0.09	976351	keystroke_o	o	n/a
488.3255	0.09	976651	keystroke_t	t	n/a
488.4605	0.075	976921	keystroke_e	e	n/a
488.6265	0.105	977253	keystroke_d	d	n/a
488.7155	0.151	977431	keystroke_Key.space	Key.space	n/a
488.8665	0.09	977733	keystroke_b	b	n/a
489.0615	0.0895	978123	keystroke_l	l	n/a
489.181	0.105	978362	keystroke_a	a	n/a
489.301	0.165	978602	keystroke_d	d	n/a
489.406	0.105	978812	keystroke_e	e	n/a
489.631	0.09	979262	keystroke_s	s	n/a
489.781	0.165	979562	keystroke_Key.enter	Key.enter	n/a
489.951	8.2465	979902	prompt	n/a	structured greensboro maiden seal\n
490.7415	0.045	981483	keystroke_s	s	n/a
490.891	0.105	981782	keystroke_t	t	n/a
490.921	0.15	981842	keystroke_r	r	n/a
491.056	0.105	982112	keystroke_u	u	n/a
491.206	0.105	982412	keystroke_c	c	n/a
491.4165	0.09	982833	keystroke_t	t	n/a
491.5215	0.06	983043	keystroke_u	u	n/a
491.6415	0.075	983283	keystroke_r	r	n/a
491.6715	0.1045	983343	keystroke_e	e	n/a
492.1655	0.105	984331	keystroke_d	d	n/a
492.4655	0.106	984931	keystroke_Key.space	Key.space	n/a
493.171	0.06	986342	keystroke_g	g	n/a
493.381	0.06	986762	keystroke_r	r	n/a
493.426	0.06	986852	keystroke_e	e	n/a
493.546	0.105	987092	keystroke_e	e	n/a
493.696	0.06	987392	keystroke_n	n	n/a
493.816	0.0895	987632	keystroke_s	s	n/a
494.0105	0.075	988021	keystroke_b	b	n/a
494.2515	0.015	988503	keystroke_p	p	n/a
494.7755	0.09	989551	keystroke_Key.backspace	Key.backspace	n/a
495.0165	0.044	990033	keystroke_o	o	n/a
495.1205	0.075	990241	keystroke_r	r	n/a
495.7065	0.0895	991413	keystroke_o	o	n/a
496.111	0.09	992222	keystroke_Key.space	Key.space	n/a
496.3205	0.06	992641	keystroke_m	m	n/a
496.6505	0.046	993301	keystroke_a	a	n/a
496.6965	0.044	993393	keystroke_i	i	n/a
496.846	0.12	993692	keystroke_d	d	n/a
496.921	0.135	993842	keystroke_e	e	n/a
497.1915	0.075	994383	keystroke_n	n	n/a
497.4015	0.045	994803	keystroke_Key.space	Key.space	n/a
497.4765	0.0895	994953	keystroke_s	s	n/a
497.656	0.06	995312	keystroke_e	e	n/a
497.731	0.0745	995462	keystroke_a	a	n/a
497.8065	0.074	995613	keystroke_l	l	n/a
498.0905	0.106	996181	keystroke_Key.enter	Key.enter	n/a
498.2005	8.592	996401	prompt	n/a	description go grenada sheep\n
499.066	0.12	998132	keystroke_d	d	n/a
499.126	0.1045	998252	keystroke_e	e	n/a
499.3515	0.0745	998703	keystroke_s	s	n/a
499.5455	0.045	999091	keystroke_c	c	n/a
499.7105	0.0755	999421	keystroke_r	r	n/a
499.816	0.06	999632	keystroke_i	i	n/a
499.996	0.075	999992	keystroke_p	p	n/a
500.146	0.06	1000292	keystroke_t	t	n/a
500.356	0.12	1000712	keystroke_i	i	n/a
500.9555	0.076	1001911	keystroke_Key.backspace	Key.backspace	n/a
501.751	0.09	1003502	keystroke_i	i	n/a
501.976	0.105	1003952	keystroke_o	o	n/a
502.201	0.0755	1004402	keystroke_n	n	n/a
502.441	0.105	1004882	keystroke_Key.space	Key.space	n/a
502.651	0.135	1005302	keystroke_g	g	n/a
502.756	0.09	1005512	keystroke_o	o	n/a
502.906	0.105	1005812	keystroke_Key.space	Key.space	n/a
503.5355	0.015	1007071	keystroke_g	g	n/a
503.5655	0.015	1007131	keystroke_r	r	n/a
503.7605	0.106	1007521	keystroke_e	e	n/a
504.466	0.015	1008932	keystroke_n	n	n/a
504.586	0.105	1009172	keystroke_a	a	n/a
504.9315	0.12	1009863	keystroke_d	d	n/a
505.0665	0.09	1010133	keystroke_a	a	n/a
505.471	0.105	1010942	keystroke_Key.space	Key.space	n/a
505.8915	0.06	1011783	keystroke_s	s	n/a
505.9665	0.089	1011933	keystroke_h	h	n/a
506.1015	0.075	1012203	keystroke_e	e	n/a
506.2665	0.075	1012533	keystroke_e	e	n/a
506.386	0.09	1012772	keystroke_p	p	n/a
506.6715	0.12	1013343	keystroke_Key.enter	Key.enter	n/a
506.796	1.4065	1013592	prompt	n/a	where're assist respiratory andrea\n
507.4815	0.104	1014963	keystroke_w	w	n/a
507.6605	0.06	1015321	keystroke_h	h	n/a
507.7805	0.076	1015561	keystroke_e	e	n/a
507.8415	0.15	1015683	keystroke_r	r	n/a
507.9455	0.106	1015891	keystroke_e	e	n/a
508.156	0.045	1016312	keystroke_Key.enter	Key.enter	n/a
508.2075	8.7705	1016415	prompt	n/a	owned watt legally mono\n
510.5435	0.012	1021087	keystroke_o	o	n/a
510.6155	0.106	1021231	keystroke_w	w	n/a
510.7815	0.074	1021563	keystroke_n	n	n/a
511.216	0.0745	1022432	keystroke_e	e	n/a
511.3805	0.105	1022761	keystroke_d	d	n/a
511.5005	0.105	1023001	keystroke_Key.space	Key.space	n/a
511.8465	0.135	1023693	keystroke_w	w	n/a
511.9665	0.09	1023933	keystroke_a	a	n/a
512.221	0.09	1024442	keystroke_y	y	n/a
512.416	0.045	1024832	keystroke_y	y	n/a
512.7755	0.06	1025551	keystroke_Key.backspace	Key.backspace	n/a
512.9255	0.106	1025851	keystroke_Key.backspace	Key.backspace	n/a
513.0465	0.1045	1026093	keystroke_t	t	n/a
513.226	0.09	1026452	keystroke_t	t	n/a
513.421	0.075	1026842	keystroke_Key.space	Key.space	n/a
513.691	0.09	1027382	keystroke_l	l	n/a
513.841	0.075	1027682	keystroke_e	e	n/a
514.126	0.0605	1028252	keystroke_a	a	n/a
514.486	0.045	1028972	keystroke_Key.backspace	Key.backspace	n/a
514.7255	0.06	1029451	keystroke_g	g	n/a
514.8905	0.075	1029781	keystroke_a	a	n/a
514.9805	0.03	1029961	keystroke_l	l	n/a
515.1005	0.06	1030201	keystroke_l	l	n/a
515.611	0.075	1031222	keystroke_y	y	n/a
515.8505	0.09	1031701	keystroke_Key.space	Key.space	n/a
515.9855	0.105	1031971	keystroke_m	m	n/a
516.1055	0.09	1032211	keystroke_o	o	n/a
516.3155	0.075	1032631	keystroke_n	n	n/a
516.4665	0.1195	1032933	keystroke_o	o	n/a
516.841	0.135	1033682	keystroke_Key.enter	Key.enter	n/a
516.9825	6.715	1033965	prompt	n/a	become planes what's armenia\n
517.7855	0.06	1035571	keystroke_b	b	n/a
517.9055	0.106	1035811	keystroke_e	e	n/a
518.1305	0.06	1036261	keystroke_o	o	n/a
518.551	0.0745	1037102	keystroke_Key.backspace	Key.backspace	n/a
518.6555	0.09	1037311	keystroke_c	c	n/a
518.8205	0.12	1037641	keystroke_o	o	n/a
518.8955	0.09	1037791	keystroke_m	m	n/a
519.0155	0.075	1038031	keystroke_e	e	n/a
519.1205	0.105	1038241	keystroke_Key.space	Key.space	n/a
519.2565	0.12	1038513	keystroke_p	p	n/a
519.541	0.09	1039082	keystroke_l	l	n/a
519.7055	0.09	1039411	keystroke_a	a	n/a
519.8705	0.075	1039741	keystroke_n	n	n/a
520.0205	0.09	1040041	keystroke_e	e	n/a
520.2015	0.09	1040403	keystroke_s	s	n/a
520.561	0.105	1041122	keystroke_Key.space	Key.space	n/a
520.741	0.18	1041482	keystroke_w	w	n/a
520.876	0.075	1041752	keystroke_h	h	n/a
520.936	0.06	1041872	keystroke_a	a	n/a
521.161	0.075	1042322	keystroke_t	t	n/a
521.266	0.075	1042532	keystroke_'	'	n/a
521.521	0.075	1043042	keystroke_s	s	n/a
521.641	0.09	1043282	keystroke_Key.space	Key.space	n/a
521.776	0.09	1043552	keystroke_a	a	n/a
521.986	0.105	1043972	keystroke_r	r	n/a
522.181	0.06	1044362	keystroke_m	m	n/a
522.5855	0.075	1045171	keystroke_e	e	n/a
523.1105	0.105	1046221	keystroke_n	n	n/a
523.2465	0.09	1046493	keystroke_i	i	n/a
523.3665	0.1045	1046733	keystroke_a	a	n/a
523.591	0.105	1047182	keystroke_Key.enter	Key.enter	n/a
523.701	10.2415	1047402	prompt	n/a	wedding sacrifice distributors clinical\n
524.386	0.1645	1048772	keystroke_w	w	n/a
524.5355	0.075	1049071	keystroke_e	e	n/a
524.7305	0.06	1049461	keystroke_d	d	n/a
524.8665	0.105	1049733	keystroke_d	d	n/a
524.9865	0.0895	1049973	keystroke_i	i	n/a
525.0315	0.1195	1050063	keystroke_n	n	n/a
525.166	0.06	1050332	keystroke_g	g	n/a
525.256	0.09	1050512	keystroke_Key.space	Key.space	n/a
525.361	0.0895	1050722	keystroke_s	s	n/a
525.6905	0.0905	1051381	keystroke_a	a	n/a
525.856	0.105	1051712	keystroke_c	c	n/a
526.081	0.0745	1052162	keystroke_r	r	n/a
526.1705	0.075	1052341	keystroke_i	i	n/a
526.5155	0.075	1053031	keystroke_g	g	n/a
526.6505	0.076	1053301	keystroke_i	i	n/a
527.0555	0.045	1054111	keystroke_Key.backspace	Key.backspace	n/a
527.1615	0.0895	1054323	keystroke_Key.backspace	Key.backspace	n/a
527.236	0.105	1054472	keystroke_f	f	n/a
527.431	0.075	1054862	keystroke_i	i	n/a
527.626	0.0895	1055252	keystroke_c	c	n/a
527.8205	0.045	1055641	keystroke_e	e	n/a
528.136	0.12	1056272	keystroke_Key.space	Key.space	n/a
529.0205	0.075	1058041	keystroke_d	d	n/a
529.1105	0.091	1058221	keystroke_i	i	n/a
529.2165	0.045	1058433	keystroke_s	s	n/a
529.396	0.075	1058792	keystroke_t	t	n/a
529.441	0.09	1058882	keystroke_r	r	n/a
529.816	0.06	1059632	keystroke_i	i	n/a
530.056	0.06	1060112	keystroke_b	b	n/a
530.176	0.1045	1060352	keystroke_u	u	n/a
530.3855	0.09	1060771	keystroke_t	t	n/a
530.5655	0.06	1061131	keystroke_i	i	n/a
531.166	0.075	1062332	keystroke_Key.backspace	Key.backspace	n/a
531.376	0.06	1062752	keystroke_o	o	n/a
531.451	0.105	1062902	keystroke_r	r	n/a
531.646	0.0745	1063292	keystroke_s	s	n/a
531.7815	0.0745	1063563	keystroke_Key.space	Key.space	n/a
531.916	0.12	1063832	keystroke_c	c	n/a
532.336	0.105	1064672	keystroke_l	l	n/a
532.546	0.105	1065092	keystroke_i	i	n/a
532.681	0.1045	1065362	keystroke_n	n	n/a
532.8905	0.06	1065781	keystroke_i	i	n/a
533.0705	0.09	1066141	keystroke_c	c	n/a
533.1755	0.105	1066351	keystroke_a	a	n/a
533.2955	0.075	1066591	keystroke_l	l	n/a
533.8355	0.105	1067671	keystroke_Key.enter	Key.enter	n/a
533.9455	8.982	1067891	prompt	n/a	disabled instance lebanon mandatory\n
534.8705	0.12	1069741	keystroke_d	d	n/a
534.9465	0.104	1069893	keystroke_i	i	n/a
535.0805	0.106	1070161	keystroke_s	s	n/a
535.246	0.09	1070492	keystroke_a	a	n/a
535.666	0.0445	1071332	keystroke_b	b	n/a
535.8605	0.075	1071721	keystroke_l	l	n/a
536.0715	0.105	1072143	keystroke_e	e	n/a
536.6265	0.1045	1073253	keystroke_d	d	n/a
536.806	0.12	1073612	keystroke_Key.space	Key.space	n/a
537.031	0.09	1074062	keystroke_i	i	n/a
537.076	0.12	1074152	keystroke_n	n	n/a
537.166	0.105	1074332	keystroke_s	s	n/a
537.361	0.09	1074722	keystroke_t	t	n/a
537.511	0.09	1075022	keystroke_a	a	n/a
537.616	0.075	1075232	keystroke_n	n	n/a
537.946	0.12	1075892	keystroke_c	c	n/a
538.036	0.105	1076072	keystroke_e	e	n/a
538.231	0.075	1076462	keystroke_Key.space	Key.space	n/a
538.426	0.06	1076852	keystroke_l	l	n/a
538.546	0.09	1077092	keystroke_e	e	n/a
538.8605	0.09	1077721	keystroke_b	b	n/a
539.0555	0.075	1078111	keystroke_a	a	n/a
539.1755	0.06	1078351	keystroke_b	b	n/a
539.8055	0.075	1079611	keystroke_Key.backspace	Key.backspace	n/a
540.0465	0.0895	1080093	keystroke_n	n	n/a
540.211	0.105	1080422	keystroke_o	o	n/a
540.301	0.105	1080602	keystroke_n	n	n/a
540.571	0.105	1081142	keystroke_Key.space	Key.space	n/a
540.766	0.075	1081532	keystroke_m	m	n/a
540.901	0.06	1081802	keystroke_a	a	n/a
541.0055	0.075	1082011	keystroke_n	n	n/a
541.4105	0.105	1082821	keystroke_d	d	n/a
541.5905	0.105	1083181	keystroke_a	a	n/a
541.8315	0.0745	1083663	keystroke_t	t	n/a
542.0705	0.015	1084141	keystroke_o	o	n/a
542.1305	0.105	1084261	keystroke_r	r	n/a
542.2505	0.09	1084501	keystroke_y	y	n/a
542.8805	0.045	1085761	keystroke_Key.enter	Key.enter	n/a
542.9315	8.966	1085863	prompt	n/a	hunter endangered hungry frank\n
543.961	0.045	1087922	keystroke_h	h	n/a
543.976	0.1805	1087952	keystroke_u	u	n/a
