onset	duration	sample	value	key	prompt_text
3.9845	23.1755	7969	prompt	n/a	the quick brown fox jumps over a lazy dog\n
17.887	0.165	35774	keystroke_t	t	n/a
18.023	0.149	36046	keystroke_h	h	n/a
18.757	0.0905	37514	keystroke_e	e	n/a
18.8925	0.135	37785	keystroke_Key.space	Key.space	n/a
19.2675	0.12	38535	keystroke_q	q	n/a
19.4025	0.18	38805	keystroke_u	u	n/a
19.5375	0.18	39075	keystroke_i	i	n/a
19.7325	0.12	39465	keystroke_c	c	n/a
19.9275	0.255	39855	keystroke_k	k	n/a
20.1225	0.15	40245	keystroke_Key.space	Key.space	n/a
20.753	0.149	41506	keystroke_b	b	n/a
20.887	0.1055	41774	keystroke_r	r	n/a
21.0225	0.1495	42045	keystroke_o	o	n/a
21.187	0.15	42374	keystroke_w	w	n/a
21.322	0.2405	42644	keystroke_n	n	n/a
21.487	0.1055	42974	keystroke_Key.space	Key.space	n/a
22.1925	0.105	44385	keystroke_f	f	n/a
22.3575	0.165	44715	keystroke_o	o	n/a
22.5075	0.15	45015	keystroke_x	x	n/a
22.7025	0.135	45405	keystroke_Key.space	Key.space	n/a
22.882	0.15	45764	keystroke_j	j	n/a
22.987	0.135	45974	keystroke_u	u	n/a
23.152	0.255	46304	keystroke_m	m	n/a
23.317	0.18	46634	keystroke_p	p	n/a
23.422	0.18	46844	keystroke_s	s	n/a
23.6175	0.165	47235	keystroke_Key.space	Key.space	n/a
23.812	0.1505	47624	keystroke_o	o	n/a
24.037	0.1055	48074	keystroke_v	v	n/a
24.202	0.135	48404	keystroke_e	e	n/a
24.427	0.106	48854	keystroke_r	r	n/a
24.622	0.135	49244	keystroke_Key.space	Key.space	n/a
24.773	0.165	49546	keystroke_a	a	n/a
24.938	0.089	49876	keystroke_Key.space	Key.space	n/a
25.1625	0.135	50325	keystroke_l	l	n/a
25.2825	0.165	50565	keystroke_a	a	n/a
25.9875	0.135	51975	keystroke_z	z	n/a
26.1525	0.165	52305	keystroke_y	y	n/a
26.2725	0.135	52545	keystroke_Key.space	Key.space	n/a
26.4375	0.1655	52875	keystroke_d	d	n/a
26.542	0.15	53084	keystroke_o	o	n/a
26.723	0.164	53446	keystroke_g	g	n/a
27.052	0.1055	54104	keystroke_Key.enter	Key.enter	n/a
27.165	8.8145	54330	prompt	n/a	disclaimers stream reggae observer\n
27.9375	0.12	55875	keystroke_d	d	n/a
28.0725	0.12	56145	keystroke_i	i	n/a
28.2375	0.1195	56475	keystroke_s	s	n/a
28.432	0.105	56864	keystroke_c	c	n/a
28.568	0.135	57136	keystroke_l	l	n/a
28.733	0.15	57466	keystroke_a	a	n/a
28.868	0.195	57736	keystroke_i	i	n/a
29.017	0.1655	58034	keystroke_m	m	n/a
29.123	0.1045	58246	keystroke_e	e	n/a
29.317	0.105	58634	keystroke_r	r	n/a
29.557	0.135	59114	keystroke_s	s	n/a
29.677	0.1205	59354	keystroke_Key.space	Key.space	n/a
29.8875	0.135	59775	keystroke_s	s	n/a
30.1875	0.075	60375	keystroke_t	t	n/a
30.4125	0.0595	60825	keystroke_r	r	n/a
30.622	0.09	61244	keystroke_e	e	n/a
31.0575	0.075	62115	keystroke_a	a	n/a
31.1925	0.195	62385	keystroke_m	m	n/a
31.3425	0.135	62685	keystroke_Key.space	Key.space	n/a
31.7175	0.075	63435	keystroke_r	r	n/a
31.9125	0.09	63825	keystroke_e	e	n/a
32.0775	0.09	64155	keystroke_g	g	n/a
32.2275	0.105	64455	keystroke_g	g	n/a
32.3625	0.18	64725	keystroke_a	a	n/a
32.932	0.105	65864	keystroke_e	e	n/a
33.457	0.12	66914	keystroke_Key.space	Key.space	n/a
33.8025	0.18	67605	keystroke_o	o	n/a
33.9375	0.165	67875	keystroke_b	b	n/a
34.2375	0.12	68475	keystroke_s	s	n/a
34.4625	0.09	68925	keystroke_e	e	n/a
34.6275	0.09	69255	keystroke_r	r	n/a
34.7325	0.12	69465	keystroke_v	v	n/a
34.8675	0.075	69735	keystroke_e	e	n/a
35.0325	0.1345	70065	keystroke_r	r	n/a
35.212	0.105	70424	keystroke_Key.space	Key.space	n/a
35.587	0.0905	71174	keystroke_Key.backspace	Key.backspace	n/a
35.8875	0.09	71775	keystroke_Key.enter	Key.enter	n/a
35.9825	9.147	71965	prompt	n/a	fraser francis observations scoring\n
36.728	0.09	73456	keystroke_f	f	n/a
36.832	0.105	73664	keystroke_r	r	n/a
37.117	0.106	74234	keystroke_a	a	n/a
37.297	0.09	74594	keystroke_s	s	n/a
37.492	0.09	74984	keystroke_e	e	n/a
37.657	0.181	75314	keystroke_r	r	n/a
37.792	0.12	75584	keystroke_Key.space	Key.space	n/a
39.217	0.0605	78434	keystroke_f	f	n/a
39.3225	0.09	78645	keystroke_r	r	n/a
39.5625	0.12	79125	keystroke_a	a	n/a
39.6675	0.12	79335	keystroke_n	n	n/a
39.8775	0.075	79755	keystroke_c	c	n/a
39.9675	0.105	79935	keystroke_i	i	n/a
40.1175	0.18	80235	keystroke_s	s	n/a
40.3125	0.09	80625	keystroke_Key.space	Key.space	n/a
40.6575	0.1795	81315	keystroke_o	o	n/a
40.822	0.15	81644	keystroke_b	b	n/a
41.062	0.136	82124	keystroke_s	s	n/a
41.272	0.075	82544	keystroke_e	e	n/a
41.437	0.075	82874	keystroke_r	r	n/a
41.632	0.03	83264	keystroke_f	f	n/a
42.0675	0.12	84135	keystroke_Key.backspace	Key.backspace	n/a
42.1575	0.105	84315	keystroke_v	v	n/a
42.3525	0.135	84705	keystroke_a	a	n/a
42.6675	0.105	85335	keystroke_t	t	n/a
42.9525	0.15	85905	keystroke_i	i	n/a
43.0575	0.18	86115	keystroke_o	o	n/a
43.1625	0.1505	86325	keystroke_n	n	n/a
43.2525	0.1655	86505	keystroke_s	s	n/a
43.403	0.105	86806	keystroke_Key.space	Key.space	n/a
44.063	0.1195	88126	keystroke_s	s	n/a
44.2725	0.105	88545	keystroke_c	c	n/a
44.3925	0.1505	88785	keystroke_o	o	n/a
44.557	0.1055	89114	keystroke_r	r	n/a
44.632	0.1505	89264	keystroke_i	i	n/a
44.7225	0.15	89445	keystroke_n	n	n/a
44.8425	0.12	89685	keystroke_g	g	n/a
45.0225	0.105	90045	keystroke_Key.enter	Key.enter	n/a
45.133	9.2065	90266	prompt	n/a	browser productions auburn straight\n
45.9075	0.12	91815	keystroke_b	b	n/a
45.9975	0.15	91995	keystroke_r	r	n/a
46.1625	0.105	92325	keystroke_o	o	n/a
46.2675	0.1355	92535	keystroke_w	w	n/a
46.5675	0.12	93135	keystroke_s	s	n/a
46.7925	0.075	93585	keystroke_e	e	n/a
46.9425	0.135	93885	keystroke_r	r	n/a
47.0925	0.12	94185	keystroke_Key.space	Key.space	n/a
47.2875	0.135	94575	keystroke_p	p	n/a
47.3775	0.105	94755	keystroke_r	r	n/a
47.5425	0.12	95085	keystroke_o	o	n/a
48.2475	0.12	96495	keystroke_d	d	n/a
48.3375	0.09	96675	keystroke_u	u	n/a
48.6375	0.09	97275	keystroke_c	c	n/a
48.8775	0.12	97755	keystroke_t	t	n/a
49.0125	0.15	98025	keystroke_i	i	n/a
49.1325	0.165	98265	keystroke_o	o	n/a
49.2525	0.18	98505	keystroke_n	n	n/a
49.3425	0.15	98685	keystroke_s	s	n/a
49.4775	0.1205	98955	keystroke_Key.space	Key.space	n/a
49.958	0.15	99916	keystroke_a	a	n/a
50.093	0.1345	100186	keystroke_u	u	n/a
50.2125	0.18	100425	keystroke_b	b	n/a
50.3325	0.1505	100665	keystroke_u	u	n/a
50.453	0.165	100906	keystroke_r	r	n/a
50.603	0.255	101206	keystroke_n	n	n/a
50.753	0.15	101506	keystroke_Key.space	Key.space	n/a
51.473	0.12	102946	keystroke_s	s	n/a
51.728	0.09	103456	keystroke_t	t	n/a
52.043	0.105	104086	keystroke_r	r	n/a
52.388	0.12	104776	keystroke_a	a	n/a
52.493	0.105	104986	keystroke_i	i	n/a
52.703	0.105	105406	keystroke_h	h	n/a
52.8825	0.045	105765	keystroke_g	g	n/a
53.093	0.09	106186	keystroke_Key.backspace	Key.backspace	n/a
53.243	0.09	106486	keystroke_Key.backspace	Key.backspace	n/a
53.408	0.135	106816	keystroke_g	g	n/a
53.558	0.105	107116	keystroke_h	h	n/a
53.723	0.12	107446	keystroke_t	t	n/a
54.233	0.105	108466	keystroke_Key.enter	Key.enter	n/a
54.343	6.1915	108686	prompt	n/a	properly sensors mature streets\n
55.088	0.15	110176	keystroke_p	p	n/a
55.223	0.12	110446	keystroke_r	r	n/a
55.328	0.135	110656	keystroke_o	o	n/a
55.418	0.1495	110836	keystroke_p	p	n/a
55.553	0.1045	111106	keystroke_e	e	n/a
55.7175	0.105	111435	keystroke_r	r	n/a
55.8375	0.12	111675	keystroke_l	l	n/a
56.0025	0.09	112005	keystroke_y	y	n/a
56.1075	0.12	112215	keystroke_Key.space	Key.space	n/a
56.453	0.105	112906	keystroke_s	s	n/a
56.678	0.09	113356	keystroke_e	e	n/a
56.783	0.105	113566	keystroke_n	n	n/a
56.948	0.1345	113896	keystroke_s	s	n/a
57.0975	0.12	114195	keystroke_o	o	n/a
57.2175	0.09	114435	keystroke_r	r	n/a
57.4425	0.15	114885	keystroke_s	s	n/a
57.5625	0.135	115125	keystroke_Key.space	Key.space	n/a
57.6825	0.195	115365	keystroke_m	m	n/a
57.8175	0.12	115635	keystroke_a	a	n/a
58.1325	0.09	116265	keystroke_t	t	n/a
58.2675	0.12	116535	keystroke_u	u	n/a
58.3575	0.0895	116715	keystroke_r	r	n/a
58.553	0.119	117106	keystroke_e	e	n/a
58.703	0.119	117406	keystroke_Key.space	Key.space	n/a
58.943	0.104	117886	keystroke_s	s	n/a
59.1675	0.06	118335	keystroke_t	t	n/a
59.3475	0.06	118695	keystroke_r	r	n/a
59.5425	0.06	119085	keystroke_e	e	n/a
59.6775	0.075	119355	keystroke_e	e	n/a
59.8425	0.09	119685	keystroke_t	t	n/a
60.1125	0.12	120225	keystroke_s	s	n/a
60.4125	0.1205	120825	keystroke_Key.enter	Key.enter	n/a
60.5395	8.7255	121079	prompt	n/a	enough consecutive items similarly\n
61.148	0.135	122296	keystroke_e	e	n/a
61.238	0.2095	122476	keystroke_n	n	n/a
61.3425	0.18	122685	keystroke_o	o	n/a
61.4325	0.21	122865	keystroke_u	u	n/a
61.6125	0.165	123225	keystroke_g	g	n/a
61.7925	0.075	123585	keystroke_h	h	n/a
61.8225	0.135	123645	keystroke_Key.space	Key.space	n/a
62.1675	0.15	124335	keystroke_c	c	n/a
62.2575	0.2105	124515	keystroke_o	o	n/a
62.3775	0.1505	124755	keystroke_n	n	n/a
63.128	0.15	126256	keystroke_s	s	n/a
63.323	0.09	126646	keystroke_e	e	n/a
63.578	0.105	127156	keystroke_v	v	n/a
64.163	0.105	128326	keystroke_Key.backspace	Key.backspace	n/a
64.283	0.105	128566	keystroke_c	c	n/a
64.508	0.105	129016	keystroke_u	u	n/a
64.763	0.105	129526	keystroke_t	t	n/a
64.913	0.12	129826	keystroke_i	i	n/a
65.168	0.09	130336	keystroke_v	v	n/a
65.603	0.135	131206	keystroke_e	e	n/a
65.753	0.12	131506	keystroke_Key.space	Key.space	n/a
66.143	0.105	132286	keystroke_i	i	n/a
66.308	0.045	132616	keystroke_t	t	n/a
66.5925	0.135	133185	keystroke_e	e	n/a
66.7435	0.134	133487	keystroke_m	m	n/a
66.9825	0.15	133965	keystroke_s	s	n/a
67.0875	0.09	134175	keystroke_Key.space	Key.space	n/a
67.3275	0.12	134655	keystroke_s	s	n/a
67.4485	0.165	134897	keystroke_i	i	n/a
67.5975	0.2855	135195	keystroke_m	m	n/a
67.7625	0.2105	135525	keystroke_i	i	n/a
67.928	0.195	135856	keystroke_l	l	n/a
68.108	0.15	136216	keystroke_a	a	n/a
68.678	0.12	137356	keystroke_r	r	n/a
68.813	0.09	137626	keystroke_l	l	n/a
68.963	0.1195	137926	keystroke_y	y	n/a
69.1575	0.105	138315	keystroke_Key.enter	Key.enter	n/a
69.2685	7.781	138537	prompt	n/a	serve blair consortium rainbow\n
69.9975	0.12	139995	keystroke_s	s	n/a
70.1925	0.105	140385	keystroke_e	e	n/a
70.3575	0.075	140715	keystroke_r	r	n/a
70.4925	0.09	140985	keystroke_v	v	n/a
70.5975	0.135	141195	keystroke_e	e	n/a
70.7175	0.135	141435	keystroke_Key.space	Key.space	n/a
71.2575	0.1505	142515	keystroke_b	b	n/a
71.3625	0.18	142725	keystroke_l	l	n/a
71.468	0.15	142936	keystroke_a	a	n/a
71.6475	0.12	143295	keystroke_i	i	n/a
71.8425	0.09	143685	keystroke_r	r	n/a
71.9625	0.09	143925	keystroke_Key.space	Key.space	n/a
72.833	0.135	145666	keystroke_c	c	n/a
72.968	0.18	145936	keystroke_o	o	n/a
73.103	0.165	146206	keystroke_n	n	n/a
73.283	0.135	146566	keystroke_s	s	n/a
73.433	0.1345	146866	keystroke_o	o	n/a
73.6575	0.0755	147315	keystroke_r	r	n/a
73.9425	0.105	147885	keystroke_t	t	n/a
74.4675	0.09	148935	keystroke_i	i	n/a
74.693	0.105	149386	keystroke_u	u	n/a
74.978	0.165	149956	keystroke_m	m	n/a
75.098	0.105	150196	keystroke_Key.space	Key.space	n/a
75.548	0.075	151096	keystroke_r	r	n/a
75.788	0.15	151576	keystroke_a	a	n/a
76.0425	0.165	152085	keystroke_i	i	n/a
76.1325	0.12	152265	keystroke_n	n	n/a
76.358	0.165	152716	keystroke_b	b	n/a
76.508	0.1345	153016	keystroke_o	o	n/a
76.6575	0.15	153315	keystroke_w	w	n/a
76.9575	0.09	153915	keystroke_Key.enter	Key.enter	n/a
77.0545	11.17	154109	prompt	n/a	biotechnology acoustic designed centered\n
78.3375	0.226	156675	keystroke_b	b	n/a
78.5185	0.2245	157037	keystroke_i	i	n/a
78.6675	0.1655	157335	keystroke_o	o	n/a
79.718	0.105	159436	keystroke_t	t	n/a
80.003	0.105	160006	keystroke_e	e	n/a
80.258	0.135	160516	keystroke_c	c	n/a
80.6175	0.09	161235	keystroke_h	h	n/a
80.8425	0.15	161685	keystroke_n	n	n/a
80.9625	0.15	161925	keystroke_o	o	n/a
81.1575	0.09	162315	keystroke_l	l	n/a
81.353	0.12	162706	keystroke_o	o	n/a
81.833	0.15	163666	keystroke_g	g	n/a
81.998	0.165	163996	keystroke_y	y	n/a
82.118	0.105	164236	keystroke_Key.space	Key.space	n/a
82.7475	0.09	165495	keystroke_a	a	n/a
83.0335	0.0745	166067	keystroke_c	c	n/a
83.093	0.18	166186	keystroke_o	o	n/a
83.228	0.15	166456	keystroke_u	u	n/a
83.318	0.135	166636	keystroke_s	s	n/a
83.558	0.105	167116	keystroke_t	t	n/a
83.678	0.12	167356	keystroke_i	i	n/a
83.933	0.12	167866	keystroke_c	c	n/a
84.068	0.105	168136	keystroke_Key.space	Key.space	n/a
84.5025	0.075	169005	keystroke_d	d	n/a
84.6825	0.045	169365	keystroke_e	e	n/a
84.8475	0.12	169695	keystroke_s	s	n/a
84.9825	0.1205	169965	keystroke_i	i	n/a
85.118	0.105	170236	keystroke_g	g	n/a
85.238	0.105	170476	keystroke_n	n	n/a
85.388	0.09	170776	keystroke_e	e	n/a
85.583	0.1195	171166	keystroke_d	d	n/a
85.6875	0.12	171375	keystroke_Key.space	Key.space	n/a
86.1675	0.105	172335	keystroke_c	c	n/a
86.3775	0.15	172755	keystroke_e	e	n/a
86.5425	0.105	173085	keystroke_n	n	n/a
86.9325	0.105	173865	keystroke_t	t	n/a
87.188	0.135	174376	keystroke_e	e	n/a
87.368	0.105	174736	keystroke_r	r	n/a
87.548	0.12	175096	keystroke_e	e	n/a
87.773	0.12	175546	keystroke_d	d	n/a
88.103	0.12	176206	keystroke_Key.enter	Key.enter	n/a
88.229	8.5605	176458	prompt	n/a	bears bufing surprising bike\n
88.9875	0.0905	177975	keystroke_b	b	n/a
89.093	0.12	178186	keystroke_e	e	n/a
89.333	0.12	178666	keystroke_a	a	n/a
89.618	0.06	179236	keystroke_r	r	n/a
89.903	0.135	179806	keystroke_s	s	n/a
90.038	0.12	180076	keystroke_Key.space	Key.space	n/a
90.398	0.1945	180796	keystroke_b	b	n/a
90.5475	0.15	181095	keystroke_u	u	n/a
91.5075	0.12	183015	keystroke_f	f	n/a
91.6575	0.195	183315	keystroke_i	i	n/a
91.7625	0.18	183525	keystroke_n	n	n/a
91.9275	0.135	183855	keystroke_g	g	n/a
92.1075	0.12	184215	keystroke_Key.space	Key.space	n/a
93.0975	0.15	186195	keystroke_s	s	n/a
93.2625	0.12	186525	keystroke_u	u	n/a
93.893	0.105	187786	keystroke_r	r	n/a
94.088	0.12	188176	keystroke_p	p	n/a
94.208	0.105	188416	keystroke_r	r	n/a
94.343	0.1195	188686	keystroke_i	i	n/a
94.4775	0.135	188955	keystroke_s	s	n/a
94.6725	0.225	189345	keystroke_i	i	n/a
94.8225	0.12	189645	keystroke_n	n	n/a
94.9875	0.12	189975	keystroke_g	g	n/a
95.1225	0.1195	190245	keystroke_Key.space	Key.space	n/a
95.752	0.135	191504	keystroke_b	b	n/a
95.903	0.12	191806	keystroke_i	i	n/a
96.112	0.121	192224	keystroke_k	k	n/a
96.247	0.136	192494	keystroke_e	e	n/a
96.682	0.105	193364	keystroke_Key.enter	Key.enter	n/a
96.793	6.7915	193586	prompt	n/a	selecting texts mouse filename\n
97.507	0.121	195014	keystroke_s	s	n/a
97.808	0.12	195616	keystroke_e	e	n/a
97.973	0.135	195946	keystroke_l	l	n/a
98.063	0.09	196126	keystroke_e	e	n/a
98.273	0.135	196546	keystroke_c	c	n/a
98.528	0.105	197056	keystroke_t	t	n/a
98.648	0.255	197296	keystroke_i	i	n/a
98.783	0.255	197566	keystroke_n	n	n/a
98.888	0.12	197776	keystroke_g	g	n/a
99.023	0.149	198046	keystroke_Key.space	Key.space	n/a
99.188	0.1045	198376	keystroke_t	t	n/a
99.4125	0.12	198825	keystroke_e	e	n/a
99.9975	0.106	199995	keystroke_x	x	n/a
100.2825	0.09	200565	keystroke_t	t	n/a
100.5375	0.15	201075	keystroke_s	s	n/a
100.6725	0.105	201345	keystroke_Key.space	Key.space	n/a
100.8975	0.15	201795	keystroke_m	m	n/a
100.9875	0.21	201975	keystroke_o	o	n/a
101.1375	0.165	202275	keystroke_u	u	n/a
101.2725	0.135	202545	keystroke_s	s	n/a
101.4525	0.1505	202905	keystroke_e	e	n/a
101.588	0.12	203176	keystroke_Key.space	Key.space	n/a
102.188	0.21	204376	keystroke_f	f	n/a
102.293	0.195	204586	keystroke_i	i	n/a
102.443	0.195	204886	keystroke_l	l	n/a
102.608	0.165	205216	keystroke_e	e	n/a
102.758	0.12	205516	keystroke_n	n	n/a
102.953	0.165	205906	keystroke_a	a	n/a
103.088	0.12	206176	keystroke_m	m	n/a
103.223	0.1495	206446	keystroke_e	e	n/a
103.4925	0.09	206985	keystroke_Key.enter	Key.enter	n/a
103.5875	6.282	207175	prompt	n/a	terminal viruses blame heavy\n
104.3025	0.105	208605	keystroke_t	t	n/a
104.5275	0.12	209055	keystroke_e	e	n/a
104.7375	0.09	209475	keystroke_r	r	n/a
104.9325	0.15	209865	keystroke_m	m	n/a
105.0525	0.21	210105	keystroke_i	i	n/a
105.2175	0.15	210435	keystroke_n	n	n/a
105.3375	0.18	210675	keystroke_a	a	n/a
105.5185	0.209	211037	keystroke_l	l	n/a
105.6675	0.12	211335	keystroke_Key.space	Key.space	n/a
106.1025	0.06	212205	keystroke_v	v	n/a
106.2075	0.12	212415	keystroke_i	i	n/a
106.553	0.09	213106	keystroke_r	r	n/a
106.718	0.105	213436	keystroke_u	u	n/a
106.838	0.135	213676	keystroke_s	s	n/a
107.108	0.105	214216	keystroke_e	e	n/a
107.333	0.165	214666	keystroke_s	s	n/a
107.452	0.136	214904	keystroke_Key.space	Key.space	n/a
107.798	0.12	215596	keystroke_b	b	n/a
107.933	0.165	215866	keystroke_l	l	n/a
108.023	0.15	216046	keystroke_a	a	n/a
108.233	0.135	216466	keystroke_m	m	n/a
108.338	0.1495	216676	keystroke_e	e	n/a
108.5175	0.105	217035	keystroke_Key.space	Key.space	n/a
108.8025	0.135	217605	keystroke_h	h	n/a
108.9225	0.075	217845	keystroke_e	e	n/a
109.1025	0.15	218205	keystroke_a	a	n/a
109.2075	0.151	218415	keystroke_v	v	n/a
109.3725	0.15	218745	keystroke_y	y	n/a
109.7475	0.12	219495	keystroke_Key.enter	Key.enter	n/a
109.872	10.8725	219744	prompt	n/a	hanging throughout failure discrimination\n
110.798	0.12	221596	keystroke_h	h	n/a
110.933	0.1345	221866	keystroke_a	a	n/a
111.053	0.135	222106	keystroke_n	n	n/a
111.233	0.12	222466	keystroke_g	g	n/a
111.3975	0.1505	222795	keystroke_i	i	n/a
111.473	0.12	222946	keystroke_n	n	n/a
111.608	0.15	223216	keystroke_g	g	n/a
111.743	0.105	223486	keystroke_Key.space	Key.space	n/a
111.923	0.12	223846	keystroke_t	t	n/a
112.013	0.15	224026	keystroke_h	h	n/a
112.358	0.105	224716	keystroke_r	r	n/a
112.493	0.195	224986	keystroke_o	o	n/a
112.613	0.195	225226	keystroke_u	u	n/a
112.793	0.1195	225586	keystroke_g	g	n/a
112.9275	0.12	225855	keystroke_h	h	n/a
113.0775	0.1355	226155	keystroke_t	t	n/a
113.198	0.18	226396	keystroke_o	o	n/a
113.333	0.09	226666	keystroke_u	u	n/a
113.663	0.045	227326	keystroke_Key.backspace	Key.backspace	n/a
113.798	0.075	227596	keystroke_Key.backspace	Key.backspace	n/a
113.948	0.09	227896	keystroke_Key.backspace	Key.backspace	n/a
114.188	0.105	228376	keystroke_o	o	n/a
114.263	0.105	228526	keystroke_u	u	n/a
114.323	0.12	228646	keystroke_t	t	n/a
114.458	0.105	228916	keystroke_Key.space	Key.space	n/a
115.298	0.105	230596	keystroke_f	f	n/a
115.523	0.15	231046	keystroke_a	a	n/a
115.688	0.18	231376	keystroke_i	i	n/a
115.823	0.15	231646	keystroke_l	l	n/a
115.988	0.165	231976	keystroke_r	r	n/a
116.078	0.12	232156	keystroke_u	u	n/a
116.453	0.06	232906	keystroke_Key.backspace	Key.backspace	n/a
116.603	0.075	233206	keystroke_Key.backspace	Key.backspace	n/a
117.068	0.0895	234136	keystroke_u	u	n/a
117.2175	0.195	234435	keystroke_r	r	n/a
117.4275	0.18	234855	keystroke_e	e	n/a
117.6675	0.135	235335	keystroke_Key.space	Key.space	n/a
118.298	0.12	236596	keystroke_d	d	n/a
118.403	0.1495	236806	keystroke_i	i	n/a
118.5375	0.09	237075	keystroke_s	s	n/a
118.7325	0.075	237465	keystroke_c	c	n/a
118.9425	0.09	237885	keystroke_r	r	n/a
119.0625	0.105	238125	keystroke_i	i	n/a
119.2425	0.105	238485	keystroke_m	m	n/a
119.4225	0.165	238845	keystroke_i	i	n/a
119.5575	0.135	239115	keystroke_n	n	n/a
119.6475	0.09	239295	keystroke_a	a	n/a
119.9475	0.12	239895	keystroke_t	t	n/a
120.083	0.1795	240166	keystroke_i	i	n/a
120.2175	0.21	240435	keystroke_o	o	n/a
120.3825	0.15	240765	keystroke_n	n	n/a
120.6225	0.12	241245	keystroke_Key.enter	Key.enter	n/a
120.749	6.9705	241498	prompt	n/a	thehun pieces problems inclusion\n
121.703	0.165	243406	keystroke_t	t	n/a
121.808	0.15	243616	keystroke_h	h	n/a
121.973	0.21	243946	keystroke_e	e	n/a
122.453	0.135	244906	keystroke_h	h	n/a
122.573	0.18	245146	keystroke_u	u	n/a
122.723	0.135	245446	keystroke_n	n	n/a
123.098	0.12	246196	keystroke_Key.space	Key.space	n/a
123.278	0.135	246556	keystroke_p	p	n/a
123.4425	0.1655	246885	keystroke_i	i	n/a
123.593	0.1655	247186	keystroke_e	e	n/a
123.8775	0.12	247755	keystroke_c	c	n/a
124.0875	0.135	248175	keystroke_e	e	n/a
124.2975	0.1355	248595	keystroke_s	s	n/a
124.508	0.105	249016	keystroke_Key.space	Key.space	n/a
125.033	0.135	250066	keystroke_p	p	n/a
125.198	0.12	250396	keystroke_r	r	n/a
125.303	0.135	250606	keystroke_o	o	n/a
125.483	0.165	250966	keystroke_b	b	n/a
125.618	0.165	251236	keystroke_l	l	n/a
125.738	0.12	251476	keystroke_e	e	n/a
125.903	0.165	251806	keystroke_m	m	n/a
126.053	0.135	252106	keystroke_s	s	n/a
126.173	0.12	252346	keystroke_Key.space	Key.space	n/a
126.368	0.1945	252736	keystroke_i	i	n/a
126.4725	0.165	252945	keystroke_n	n	n/a
126.6225	0.15	253245	keystroke_c	c	n/a
126.7425	0.165	253485	keystroke_l	l	n/a
126.8775	0.105	253755	keystroke_u	u	n/a
127.0125	0.165	254025	keystroke_s	s	n/a
127.1625	0.135	254325	keystroke_i	i	n/a
127.2525	0.21	254505	keystroke_o	o	n/a
127.4175	0.135	254835	keystroke_n	n	n/a
127.6575	0.06	255315	keystroke_Key.enter	Key.enter	n/a
127.7225	6.163	255445	prompt	n/a	turn believed combo hundreds\n
128.5875	0.135	257175	keystroke_t	t	n/a
128.7075	0.135	257415	keystroke_u	u	n/a
128.8425	0.165	257685	keystroke_r	r	n/a
128.9475	0.18	257895	keystroke_n	n	n/a
129.0975	0.195	258195	keystroke_Key.space	Key.space	n/a
129.2935	0.164	258587	keystroke_b	b	n/a
129.4725	0.105	258945	keystroke_e	e	n/a
129.5925	0.1355	259185	keystroke_l	l	n/a
129.683	0.21	259366	keystroke_i	i	n/a
129.848	0.255	259696	keystroke_e	e	n/a
130.058	0.165	260116	keystroke_v	v	n/a
130.268	0.21	260536	keystroke_e	e	n/a
130.463	0.0895	260926	keystroke_d	d	n/a
130.7325	0.12	261465	keystroke_Key.space	Key.space	n/a
131.0175	0.165	262035	keystroke_c	c	n/a
131.1975	0.18	262395	keystroke_o	o	n/a
131.3325	0.165	262665	keystroke_m	m	n/a
131.5875	0.18	263175	keystroke_b	b	n/a
131.7225	0.18	263445	keystroke_o	o	n/a
131.8725	0.135	263745	keystroke_Key.space	Key.space	n/a
132.188	0.1345	264376	keystroke_h	h	n/a
132.2925	0.15	264585	keystroke_u	u	n/a
132.4585	0.135	264917	keystroke_n	n	n/a
132.6225	0.121	265245	keystroke_d	d	n/a
132.8485	0.09	265697	keystroke_r	r	n/a
133.0425	0.09	266085	keystroke_e	e	n/a
133.1925	0.12	266385	keystroke_d	d	n/a
133.3725	0.165	266745	keystroke_s	s	n/a
133.7775	0.105	267555	keystroke_Key.enter	Key.enter	n/a
133.8885	7.361	267777	prompt	n/a	innovation pipes chad river\n
134.4525	0.15	268905	keystroke_i	i	n/a
134.5725	0.0905	269145	keystroke_n	n	n/a
134.753	0.135	269506	keystroke_n	n	n/a
134.963	0.135	269926	keystroke_o	o	n/a
135.128	0.12	270256	keystroke_v	v	n/a
135.368	0.135	270736	keystroke_a	a	n/a
135.683	0.045	271366	keystroke_t	t	n/a
135.758	0.18	271516	keystroke_i	i	n/a
135.923	0.225	271846	keystroke_o	o	n/a
136.088	0.195	272176	keystroke_n	n	n/a
136.268	0.135	272536	keystroke_Key.space	Key.space	n/a
136.418	0.18	272836	keystroke_p	p	n/a
136.748	0.12	273496	keystroke_u	u	n/a
137.033	0.0595	274066	keystroke_p	p	n/a
137.3775	0.045	274755	keystroke_Key.backspace	Key.backspace	n/a
137.4975	0.09	274995	keystroke_Key.backspace	Key.backspace	n/a
138.0975	0.15	276195	keystroke_i	i	n/a
138.1725	0.15	276345	keystroke_p	p	n/a
138.3075	0.12	276615	keystroke_e	e	n/a
138.563	0.15	277126	keystroke_s	s	n/a
138.848	0.105	277696	keystroke_Key.space	Key.space	n/a
139.283	0.12	278566	keystroke_c	c	n/a
139.418	0.105	278836	keystroke_h	h	n/a
139.538	0.135	279076	keystroke_a	a	n/a
139.778	0.135	279556	keystroke_d	d	n/a
139.898	0.12	279796	keystroke_Key.space	Key.space	n/a
140.123	0.12	280246	keystroke_r	r	n/a
140.273	0.105	280546	keystroke_i	i	n/a
140.393	0.135	280786	keystroke_v	v	n/a
140.633	0.135	281266	keystroke_e	e	n/a
140.843	0.1945	281686	keystroke_r	r	n/a
141.143	0.105	282286	keystroke_Key.enter	Key.enter	n/a
141.2525	7.782	282505	prompt	n/a	purchases moisture accessed ethical\n
142.0725	0.135	284145	keystroke_p	p	n/a
142.2525	0.12	284505	keystroke_u	u	n/a
142.3425	0.105	284685	keystroke_r	r	n/a
142.5675	0.12	285135	keystroke_c	c	n/a
142.6725	0.105	285345	keystroke_h	h	n/a
142.8075	0.15	285615	keystroke_a	a	n/a
143.0175	0.1055	286035	keystroke_s	s	n/a
143.213	0.075	286426	keystroke_e	e	n/a
143.393	0.135	286786	keystroke_s	s	n/a
143.513	0.135	287026	keystroke_Key.space	Key.space	n/a
143.708	0.21	287416	keystroke_m	m	n/a
143.828	0.225	287656	keystroke_o	o	n/a
143.993	0.165	287986	keystroke_i	i	n/a
144.098	0.12	288196	keystroke_s	s	n/a
144.353	0.105	288706	keystroke_t	t	n/a
144.488	0.105	288976	keystroke_u	u	n/a
144.608	0.09	289216	keystroke_r	r	n/a
144.818	0.12	289636	keystroke_e	e	n/a
144.953	0.1495	289906	keystroke_Key.space	Key.space	n/a
145.1175	0.12	290235	keystroke_a	a	n/a
145.3575	0.061	290715	keystroke_c	c	n/a
145.4925	0.09	290985	keystroke_c	c	n/a
145.6575	0.09	291315	keystroke_e	e	n/a
145.8675	0.09	291735	keystroke_s	s	n/a
146.0175	0.105	292035	keystroke_s	s	n/a
146.1975	0.075	292395	keystroke_e	e	n/a
146.3625	0.121	292725	keystroke_d	d	n/a
146.4975	0.105	292995	keystroke_Key.space	Key.space	n/a
146.6925	0.105	293385	keystroke_t	t	n/a
146.8575	0.15	293715	keystroke_h	h	n/a
147.383	0.075	294766	keystroke_Key.backspace	Key.backspace	n/a
147.503	0.105	295006	keystroke_Key.backspace	Key.backspace	n/a
147.609	0.119	295218	keystroke_e	e	n/a
147.818	0.12	295636	keystroke_t	t	n/a
147.923	0.195	295846	keystroke_h	h	n/a
148.088	0.135	296176	keystroke_i	i	n/a
148.283	0.09	296566	keystroke_c	c	n/a
148.5225	0.165	297045	keystroke_a	a	n/a
148.6425	0.135	297285	keystroke_l	l	n/a
148.9425	0.09	297885	keystroke_Key.enter	Key.enter	n/a
149.037	8.5025	298074	prompt	n/a	seattle status compete metro\n
149.6635	0.105	299327	keystroke_s	s	n/a
149.8885	0.09	299777	keystroke_e	e	n/a
150.0535	0.1195	300107	keystroke_a	a	n/a
150.323	0.075	300646	keystroke_t	t	n/a
150.4425	0.105	300885	keystroke_t	t	n/a
150.5925	0.165	301185	keystroke_l	l	n/a
150.7435	0.104	301487	keystroke_e	e	n/a
150.8925	0.1205	301785	keystroke_Key.space	Key.space	n/a
152.0625	0.15	304125	keystroke_d	d	n/a
152.483	0.03	304966	keystroke_y	y	n/a
152.9025	0.0605	305805	keystroke_Key.backspace	Key.backspace	n/a
153.0375	0.09	306075	keystroke_Key.backspace	Key.backspace	n/a
153.563	0.09	307126	keystroke_s	s	n/a
153.728	0.105	307456	keystroke_t	t	n/a
153.818	0.12	307636	keystroke_a	a	n/a
153.968	0.18	307936	keystroke_t	t	n/a
154.118	0.135	308236	keystroke_u	u	n/a
154.268	0.165	308536	keystroke_s	s	n/a
154.4475	0.12	308895	keystroke_Key.space	Key.space	n/a
154.7325	0.135	309465	keystroke_c	c	n/a
154.8825	0.195	309765	keystroke_o	o	n/a
155.0175	0.165	310035	keystroke_m	m	n/a
155.1375	0.18	310275	keystroke_p	p	n/a
155.2725	0.165	310545	keystroke_l	l	n/a
155.3625	0.24	310725	keystroke_e	e	n/a
155.6175	0.135	311235	keystroke_t	t	n/a
155.798	0.225	311596	keystroke_e	e	n/a
156.038	0.075	312076	keystroke_Key.space	Key.space	n/a
156.443	0.165	312886	keystroke_m	m	n/a
156.518	0.225	313036	keystroke_e	e	n/a
156.728	0.105	313456	keystroke_t	t	n/a
156.908	0.2255	313816	keystroke_r	r	n/a
157.0735	0.15	314147	keystroke_o	o	n/a
157.4185	0.12	314837	keystroke_Key.enter	Key.enter	n/a
157.543	7.1365	315086	prompt	n/a	tough varying simulations model\n
158.2735	0.12	316547	keystroke_t	t	n/a
158.4535	0.165	316907	keystroke_o	o	n/a
158.5735	0.165	317147	keystroke_u	u	n/a
158.7535	0.18	317507	keystroke_g	g	n/a
158.9185	0.135	317837	keystroke_h	h	n/a
159.0235	0.12	318047	keystroke_Key.space	Key.space	n/a
159.5635	0.15	319127	keystroke_v	v	n/a
159.6385	0.165	319277	keystroke_a	a	n/a
160.0435	0.164	320087	keystroke_r	r	n/a
160.2235	0.12	320447	keystroke_y	y	n/a
160.5085	0.224	321017	keystroke_i	i	n/a
160.6575	0.18	321315	keystroke_n	n	n/a
160.7925	0.165	321585	keystroke_g	g	n/a
160.9275	0.105	321855	keystroke_Key.space	Key.space	n/a
161.1825	0.18	322365	keystroke_s	s	n/a
161.3025	0.165	322605	keystroke_i	i	n/a
161.4525	0.271	322905	keystroke_m	m	n/a
161.6925	0.135	323385	keystroke_u	u	n/a
161.8875	0.1505	323775	keystroke_l	l	n/a
161.993	0.15	323986	keystroke_a	a	n/a
162.308	0.12	324616	keystroke_t	t	n/a
162.4425	0.135	324885	keystroke_i	i	n/a
162.5325	0.21	325065	keystroke_o	o	n/a
162.6825	0.18	325365	keystroke_n	n	n/a
162.8325	0.18	325665	keystroke_s	s	n/a
162.9675	0.15	325935	keystroke_Key.space	Key.space	n/a
163.1025	0.1655	326205	keystroke_m	m	n/a
163.2225	0.2555	326445	keystroke_o	o	n/a
163.448	0.12	326896	keystroke_v	v	n/a
163.838	0.105	327676	keystroke_Key.backspace	Key.backspace	n/a
163.958	0.15	327916	keystroke_d	d	n/a
164.078	0.18	328156	keystroke_e	e	n/a
164.303	0.15	328606	keystroke_l	l	n/a
164.573	0.105	329146	keystroke_Key.enter	Key.enter	n/a
164.684	7.1055	329368	prompt	n/a	view prices graphics constant\n
165.458	0.165	330916	keystroke_v	v	n/a
165.638	0.15	331276	keystroke_i	i	n/a
165.773	0.2245	331546	keystroke_e	e	n/a
165.968	0.1945	331936	keystroke_w	w	n/a
166.1925	0.105	332385	keystroke_Key.space	Key.space	n/a
166.3275	0.1655	332655	keystroke_p	p	n/a
166.508	0.105	333016	keystroke_r	r	n/a
166.628	0.12	333256	keystroke_i	i	n/a
166.853	0.12	333706	keystroke_c	c	n/a
167.018	0.165	334036	keystroke_e	e	n/a
167.258	0.1795	334516	keystroke_s	s	n/a
167.4225	0.0905	334845	keystroke_Key.space	Key.space	n/a
168.113	0.135	336226	keystroke_g	g	n/a
168.293	0.105	336586	keystroke_r	r	n/a
168.518	0.195	337036	keystroke_a	a	n/a
168.7275	0.1805	337455	keystroke_p	p	n/a
168.878	0.195	337756	keystroke_h	h	n/a
169.013	0.18	338026	keystroke_i	i	n/a
169.2225	0.105	338445	keystroke_c	c	n/a
169.4475	0.1805	338895	keystroke_s	s	n/a
169.5975	0.12	339195	keystroke_Key.space	Key.space	n/a
169.8675	0.1055	339735	keystroke_c	c	n/a
169.943	0.2095	339886	keystroke_o	o	n/a
170.0925	0.151	340185	keystroke_n	n	n/a
170.1825	0.136	340365	keystroke_s	s	n/a
170.4675	0.105	340935	keystroke_t	t	n/a
170.5875	0.12	341175	keystroke_a	a	n/a
170.9775	0.106	341955	keystroke_n	n	n/a
171.308	0.015	342616	keystroke_t	t	n/a
171.668	0.12	343336	keystroke_Key.enter	Key.enter	n/a
171.793	6.8965	343586	prompt	n/a	emily drill dice manufacturing\n
172.418	0.1505	344836	keystroke_e	e	n/a
172.5985	0.21	345197	keystroke_m	m	n/a
172.7335	0.21	345467	keystroke_i	i	n/a
172.8835	0.2095	345767	keystroke_l	l	n/a
173.0485	0.1645	346097	keystroke_y	y	n/a
173.228	0.135	346456	keystroke_Key.space	Key.space	n/a
173.798	0.105	347596	keystroke_d	d	n/a
173.978	0.15	347956	keystroke_r	r	n/a
174.158	0.105	348316	keystroke_i	i	n/a
174.383	0.09	348766	keystroke_l	l	n/a
174.548	0.12	349096	keystroke_l	l	n/a
174.728	0.12	349456	keystroke_Key.space	Key.space	n/a
175.418	0.12	350836	keystroke_d	d	n/a
175.583	0.15	351166	keystroke_i	i	n/a
175.718	0.135	351436	keystroke_c	c	n/a
175.928	0.2405	351856	keystroke_e	e	n/a
176.1085	0.12	352217	keystroke_Key.space	Key.space	n/a
176.3335	0.135	352667	keystroke_m	m	n/a
176.4535	0.195	352907	keystroke_a	a	n/a
176.6185	0.225	353237	keystroke_n	n	n/a
176.7535	0.164	353507	keystroke_u	u	n/a
176.9935	0.104	353987	keystroke_f	f	n/a
177.233	0.09	354466	keystroke_a	a	n/a
177.458	0.045	354916	keystroke_c	c	n/a
177.653	0.09	355306	keystroke_t	t	n/a
177.758	0.105	355516	keystroke_u	u	n/a
177.878	0.105	355756	keystroke_r	r	n/a
178.013	0.195	356026	keystroke_i	i	n/a
178.118	0.165	356236	keystroke_n	n	n/a
178.238	0.135	356476	keystroke_g	g	n/a
178.5835	0.105	357167	keystroke_Key.enter	Key.enter	n/a
178.693	6.7315	357386	prompt	n/a	task configuring fighting kill\n
179.408	0.09	358816	keystroke_t	t	n/a
179.6775	0.1205	359355	keystroke_a	a	n/a
179.858	0.15	359716	keystroke_s	s	n/a
180.0235	0.2245	360047	keystroke_k	k	n/a
180.188	0.1505	360376	keystroke_Key.space	Key.space	n/a
180.5935	0.1345	361187	keystroke_c	c	n/a
180.698	0.1955	361396	keystroke_o	o	n/a
180.8335	0.1495	361667	keystroke_n	n	n/a
180.998	0.1505	361996	keystroke_f	f	n/a
181.1635	0.12	362327	keystroke_i	i	n/a
181.6885	0.12	363377	keystroke_g	g	n/a
181.8085	0.105	363617	keystroke_u	u	n/a
181.9885	0.135	363977	keystroke_r	r	n/a
182.3035	0.2245	364607	keystroke_i	i	n/a
182.453	0.135	364906	keystroke_n	n	n/a
182.573	0.105	365146	keystroke_g	g	n/a
182.693	0.105	365386	keystroke_Key.space	Key.space	n/a
183.4585	0.105	366917	keystroke_f	f	n/a
183.5485	0.15	367097	keystroke_i	i	n/a
183.7135	0.105	367427	keystroke_g	g	n/a
183.8035	0.135	367607	keystroke_h	h	n/a
183.9235	0.09	367847	keystroke_t	t	n/a
183.9985	0.27	367997	keystroke_i	i	n/a
184.1335	0.18	368267	keystroke_n	n	n/a
184.2385	0.105	368477	keystroke_g	g	n/a
184.3585	0.12	368717	keystroke_Key.space	Key.space	n/a
184.4635	0.12	368927	keystroke_k	k	n/a
184.6735	0.12	369347	keystroke_i	i	n/a
184.8985	0.09	369797	keystroke_l	l	n/a
185.0785	0.12	370157	keystroke_l	l	n/a
185.3335	0.09	370667	keystroke_Key.enter	Key.enter	n/a
185.4285	7.016	370857	prompt	n/a	nottingham purchased terror stats\n
186.1285	0.165	372257	keystroke_n	n	n/a
186.2335	0.15	372467	keystroke_o	o	n/a
186.3985	0.059	372797	keystroke_t	t	n/a
186.5325	0.166	373065	keystroke_t	t	n/a
186.6675	0.211	373335	keystroke_i	i	n/a
186.8175	0.121	373635	keystroke_n	n	n/a
186.9825	0.15	373965	keystroke_g	g	n/a
187.1485	0.074	374297	keystroke_h	h	n/a
187.3875	0.165	374775	keystroke_a	a	n/a
187.5075	0.165	375015	keystroke_m	m	n/a
187.6735	0.119	375347	keystroke_Key.space	Key.space	n/a
187.8525	0.12	375705	keystroke_p	p	n/a
188.048	0.135	376096	keystroke_u	u	n/a
188.8725	0.09	377745	keystroke_r	r	n/a
189.0675	0.1205	378135	keystroke_c	c	n/a
189.173	0.12	378346	keystroke_h	h	n/a
189.338	0.18	378676	keystroke_a	a	n/a
189.593	0.105	379186	keystroke_s	s	n/a
189.803	0.09	379606	keystroke_e	e	n/a
189.998	0.165	379996	keystroke_d	d	n/a
190.103	0.165	380206	keystroke_Key.space	Key.space	n/a
190.388	0.105	380776	keystroke_t	t	n/a
190.6125	0.09	381225	keystroke_e	e	n/a
190.8075	0.06	381615	keystroke_r	r	n/a
190.9275	0.105	381855	keystroke_r	r	n/a
191.0175	0.135	382035	keystroke_o	o	n/a
191.1375	0.105	382275	keystroke_r	r	n/a
191.2875	0.09	382575	keystroke_Key.space	Key.space	n/a
191.5275	0.136	383055	keystroke_s	s	n/a
191.7235	0.105	383447	keystroke_t	t	n/a
191.8425	0.135	383685	keystroke_a	a	n/a
191.9335	0.089	383867	keystroke_t	t	n/a
192.0535	0.1495	384107	keystroke_s	s	n/a
192.353	0.09	384706	keystroke_Key.enter	Key.enter	n/a
192.448	7.032	384896	prompt	n/a	dialogue sara tribunal engines\n
193.2525	0.12	386505	keystroke_f	f	n/a
193.628	0.09	387256	keystroke_Key.backspace	Key.backspace	n/a
193.763	0.135	387526	keystroke_d	d	n/a
193.883	0.135	387766	keystroke_i	i	n/a
194.033	0.165	388066	keystroke_a	a	n/a
194.183	0.09	388366	keystroke_l	l	n/a
194.393	0.105	388786	keystroke_o	o	n/a
194.528	0.105	389056	keystroke_g	g	n/a
194.648	0.105	389296	keystroke_u	u	n/a
194.813	0.165	389626	keystroke_e	e	n/a
194.948	0.12	389896	keystroke_Key.space	Key.space	n/a
195.488	0.105	390976	keystroke_s	s	n/a
195.833	0.165	391666	keystroke_a	a	n/a
195.953	0.1205	391906	keystroke_r	r	n/a
196.1035	0.1795	392207	keystroke_a	a	n/a
196.268	0.12	392536	keystroke_Key.space	Key.space	n/a
196.598	0.09	393196	keystroke_t	t	n/a
196.778	0.105	393556	keystroke_r	r	n/a
196.853	0.1355	393706	keystroke_i	i	n/a
197.0185	0.1045	394037	keystroke_b	b	n/a
197.078	0.1955	394156	keystroke_u	u	n/a
197.2435	0.195	394487	keystroke_n	n	n/a
197.3785	0.195	394757	keystroke_a	a	n/a
197.5585	0.195	395117	keystroke_l	l	n/a
197.7085	0.135	395417	keystroke_Key.space	Key.space	n/a
198.2485	0.105	396497	keystroke_e	e	n/a
198.3385	0.135	396677	keystroke_n	n	n/a
198.5035	0.0895	397007	keystroke_g	g	n/a
198.623	0.1805	397246	keystroke_i	i	n/a
198.7435	0.12	397487	keystroke_n	n	n/a
198.8335	0.135	397667	keystroke_e	e	n/a
199.0285	0.149	398057	keystroke_s	s	n/a
199.3575	0.12	398715	keystroke_Key.enter	Key.enter	n/a
199.484	6.236	398968	prompt	n/a	messages incidents materials msie\n
200.0325	0.1505	400065	keystroke_m	m	n/a
200.123	0.105	400246	keystroke_e	e	n/a
200.378	0.075	400756	keystroke_s	s	n/a
200.513	0.09	401026	keystroke_s	s	n/a
200.678	0.135	401356	keystroke_a	a	n/a
200.828	0.135	401656	keystroke_g	g	n/a
200.948	0.09	401896	keystroke_e	e	n/a
201.1585	0.164	402317	keystroke_s	s	n/a
201.3085	0.119	402617	keystroke_Key.space	Key.space	n/a
201.4885	0.194	402977	keystroke_i	i	n/a
201.6235	0.134	403247	keystroke_n	n	n/a
201.7285	0.134	403457	keystroke_c	c	n/a
201.8775	0.151	403755	keystroke_i	i	n/a
202.0135	0.12	404027	keystroke_d	d	n/a
202.3285	0.135	404657	keystroke_e	e	n/a
202.448	0.135	404896	keystroke_n	n	n/a
202.6285	0.0895	405257	keystroke_t	t	n/a
202.8675	0.135	405735	keystroke_s	s	n/a
202.9575	0.18	405915	keystroke_Key.space	Key.space	n/a
203.1225	0.181	406245	keystroke_m	m	n/a
203.2285	0.12	406457	keystroke_a	a	n/a
203.5285	0.09	407057	keystroke_t	t	n/a
203.7385	0.075	407477	keystroke_e	e	n/a
203.8885	0.09	407777	keystroke_r	r	n/a
204.0085	0.15	408017	keystroke_i	i	n/a
204.1735	0.195	408347	keystroke_a	a	n/a
204.2785	0.1945	408557	keystroke_l	l	n/a
204.4285	0.2245	408857	keystroke_Key.space	Key.space	n/a
204.593	0.165	409186	keystroke_m	m	n/a
204.863	0.12	409726	keystroke_s	s	n/a
205.013	0.12	410026	keystroke_i	i	n/a
205.163	0.15	410326	keystroke_e	e	n/a
205.628	0.09	411256	keystroke_Key.enter	Key.enter	n/a
205.723	7.137	411446	prompt	n/a	variable problem airline distinct\n
206.5285	0.09	413057	keystroke_v	v	n/a
206.7085	0.12	413417	keystroke_a	a	n/a
206.9335	0.09	413867	keystroke_r	r	n/a
207.0535	0.12	414107	keystroke_i	i	n/a
207.1585	0.1495	414317	keystroke_a	a	n/a
207.293	0.195	414586	keystroke_b	b	n/a
207.458	0.195	414916	keystroke_l	l	n/a
207.578	0.15	415156	keystroke_e	e	n/a
207.758	0.18	415516	keystroke_Key.space	Key.space	n/a
207.953	0.135	415906	keystroke_p	p	n/a
208.103	0.105	416206	keystroke_r	r	n/a
208.178	0.0905	416356	keystroke_o	o	n/a
208.3435	0.134	416687	keystroke_b	b	n/a
208.5225	0.091	417045	keystroke_l	l	n/a
208.6725	0.15	417345	keystroke_e	e	n/a
208.9425	0.196	417885	keystroke_m	m	n/a
209.1075	0.1355	418215	keystroke_Key.space	Key.space	n/a
209.483	0.1495	418966	keystroke_a	a	n/a
209.6475	0.12	419295	keystroke_i	i	n/a
209.7825	0.0905	419565	keystroke_r	r	n/a
209.918	0.21	419836	keystroke_l	l	n/a
210.068	0.1955	420136	keystroke_i	i	n/a
210.188	0.1655	420376	keystroke_n	n	n/a
210.3385	0.15	420677	keystroke_e	e	n/a
210.5035	0.0895	421007	keystroke_Key.space	Key.space	n/a
210.9385	0.1345	421877	keystroke_d	d	n/a
211.088	0.1355	422176	keystroke_i	i	n/a
211.2085	0.1195	422417	keystroke_s	s	n/a
211.493	0.0755	422986	keystroke_t	t	n/a
211.5835	0.21	423167	keystroke_i	i	n/a
211.6885	0.15	423377	keystroke_n	n	n/a
211.8535	0.09	423707	keystroke_c	c	n/a
212.0935	0.06	424187	keystroke_s	s	n/a
212.3775	0.105	424755	keystroke_Key.backspace	Key.backspace	n/a
212.4835	0.104	424967	keystroke_t	t	n/a
212.7535	0.104	425507	keystroke_Key.enter	Key.enter	n/a
212.8625	10.992	425725	prompt	n/a	degrees fascinating guilty possess\n
213.9525	0.076	427905	keystroke_d	d	n/a
214.1335	0.075	428267	keystroke_e	e	n/a
214.2535	0.09	428507	keystroke_g	g	n/a
214.3285	0.09	428657	keystroke_r	r	n/a
214.5385	0.075	429077	keystroke_e	e	n/a
214.6885	0.075	429377	keystroke_e	e	n/a
214.8835	0.15	429767	keystroke_s	s	n/a
215.0335	0.12	430067	keystroke_Key.space	Key.space	n/a
215.6485	0.075	431297	keystroke_f	f	n/a
215.8435	0.135	431687	keystroke_a	a	n/a
216.0235	0.12	432047	keystroke_s	s	n/a
216.6385	0.105	433277	keystroke_c	c	n/a
217.0285	0.225	434057	keystroke_n	n	n/a
217.1785	0.18	434357	keystroke_i	i	n/a
217.6135	0.135	435227	keystroke_a	a	n/a
218.0335	0.075	436067	keystroke_Key.backspace	Key.backspace	n/a
218.1835	0.06	436367	keystroke_Key.backspace	Key.backspace	n/a
218.3335	0.045	436667	keystroke_Key.backspace	Key.backspace	n/a
218.603	0.15	437206	keystroke_i	i	n/a
218.693	0.15	437386	keystroke_n	n	n/a
218.798	0.135	437596	keystroke_a	a	n/a
219.113	0.0455	438226	keystroke_t	t	n/a
219.1885	0.15	438377	keystroke_i	i	n/a
219.2785	0.165	438557	keystroke_n	n	n/a
219.4585	0.105	438917	keystroke_g	g	n/a
219.5935	0.105	439187	keystroke_Key.space	Key.space	n/a
220.1635	0.135	440327	keystroke_g	g	n/a
220.2685	0.18	440537	keystroke_u	u	n/a
220.3885	0.15	440777	keystroke_i	i	n/a
220.6435	0.12	441287	keystroke_l	l	n/a
220.7485	0.105	441497	keystroke_t	t	n/a
220.9435	0.09	441887	keystroke_y	y	n/a
221.0935	0.135	442187	keystroke_Key.space	Key.space	n/a
221.3185	0.12	442637	keystroke_p	p	n/a
221.5285	0.03	443057	keystroke_r	r	n/a
221.9335	0.09	443867	keystroke_Key.backspace	Key.backspace	n/a
222.1285	0.1195	444257	keystroke_o	o	n/a
222.278	0.1345	444556	keystroke_s	s	n/a
222.473	0.105	444946	keystroke_s	s	n/a
222.698	0.105	445396	keystroke_e	e	n/a
222.938	0.09	445876	keystroke_s	s	n/a
223.118	0.135	446236	keystroke_s	s	n/a
223.748	0.105	447496	keystroke_Key.enter	Key.enter	n/a
223.8585	7.856	447717	prompt	n/a	struck guitar alfred helpful\n
224.6935	0.0745	449387	keystroke_s	s	n/a
225.0685	0.0745	450137	keystroke_t	t	n/a
225.218	0.0905	450436	keystroke_r	r	n/a
225.3685	0.105	450737	keystroke_u	u	n/a
225.533	0.2855	451066	keystroke_c	c	n/a
225.668	0.195	451336	keystroke_k	k	n/a
225.833	0.12	451666	keystroke_Key.space	Key.space	n/a
226.433	0.1055	452866	keystroke_g	g	n/a
226.5535	0.195	453107	keystroke_u	u	n/a
226.6735	0.165	453347	keystroke_i	i	n/a
226.8235	0.09	453647	keystroke_t	t	n/a
227.0785	0.15	454157	keystroke_a	a	n/a
227.3485	0.09	454697	keystroke_r	r	n/a
227.4535	0.12	454907	keystroke_Key.space	Key.space	n/a
227.7385	0.15	455477	keystroke_a	a	n/a
227.8735	0.105	455747	keystroke_l	l	n/a
228.1735	0.075	456347	keystroke_f	f	n/a
228.338	0.1055	456676	keystroke_r	r	n/a
228.548	0.105	457096	keystroke_e	e	n/a
228.7875	0.15	457575	keystroke_d	d	n/a
228.9525	0.105	457905	keystroke_Key.space	Key.space	n/a
229.8525	0.106	459705	keystroke_h	h	n/a
229.9875	0.181	459975	keystroke_e	e	n/a
230.183	0.2095	460366	keystroke_l	l	n/a
230.3325	0.1505	460665	keystroke_p	p	n/a
231.023	0.1355	462046	keystroke_f	f	n/a
231.1285	0.12	462257	keystroke_u	u	n/a
231.3535	0.105	462707	keystroke_l	l	n/a
231.6085	0.105	463217	keystroke_Key.enter	Key.enter	n/a
231.718	8.322	463436	prompt	n/a	convenience unity kenneth chain\n
232.463	0.105	464926	keystroke_c	c	n/a
232.538	0.15	465076	keystroke_o	o	n/a
232.658	0.15	465316	keystroke_n	n	n/a
232.838	0.12	465676	keystroke_v	v	n/a
233.0935	0.105	466187	keystroke_e	e	n/a
233.2285	0.18	466457	keystroke_n	n	n/a
233.3785	0.15	466757	keystroke_i	i	n/a
233.5735	0.105	467147	keystroke_e	e	n/a
233.7385	0.135	467477	keystroke_n	n	n/a
233.9635	0.105	467927	keystroke_v	v	n/a
234.4435	0.105	468887	keystroke_Key.backspace	Key.backspace	n/a
234.5635	0.09	469127	keystroke_c	c	n/a
234.7585	0.135	469517	keystroke_e	e	n/a
234.8785	0.12	469757	keystroke_Key.space	Key.space	n/a
235.1785	0.105	470357	keystroke_u	u	n/a
235.3735	0.21	470747	keystroke_n	n	n/a
235.5235	0.1945	471047	keystroke_i	i	n/a
235.703	0.12	471406	keystroke_t	t	n/a
235.928	0.135	471856	keystroke_y	y	n/a
236.063	0.135	472126	keystroke_Key.space	Key.space	n/a
236.693	0.135	473386	keystroke_e	e	n/a
236.738	0.1505	473476	keystroke_k	k	n/a
237.308	0.075	474616	keystroke_Key.backspace	Key.backspace	n/a
237.458	0.105	474916	keystroke_Key.backspace	Key.backspace	n/a
237.698	0.135	475396	keystroke_k	k	n/a
237.818	0.135	475636	keystroke_e	e	n/a
237.938	0.09	475876	keystroke_n	n	n/a
238.088	0.135	476176	keystroke_n	n	n/a
238.253	0.135	476506	keystroke_e	e	n/a
238.5525	0.121	477105	keystroke_t	t	n/a
238.7485	0.195	477497	keystroke_h	h	n/a
238.8975	0.105	477795	keystroke_Key.space	Key.space	n/a
239.168	0.12	478336	keystroke_c	c	n/a
239.303	0.12	478606	keystroke_h	h	n/a
239.438	0.18	478876	keystroke_a	a	n/a
239.573	0.18	479146	keystroke_i	i	n/a
239.6635	0.1495	479327	keystroke_n	n	n/a
239.903	0.135	479806	keystroke_Key.enter	Key.enter	n/a
240.043	5.9365	480086	prompt	n/a	shots purchasing towns pour\n
240.803	0.15	481606	keystroke_s	s	n/a
240.923	0.165	481846	keystroke_h	h	n/a
241.013	0.1655	482026	keystroke_o	o	n/a
241.1635	0.105	482327	keystroke_t	t	n/a
241.4485	0.165	482897	keystroke_s	s	n/a
241.6285	0.135	483257	keystroke_Key.space	Key.space	n/a
241.7785	0.105	483557	keystroke_p	p	n/a
241.9735	0.12	483947	keystroke_u	u	n/a
242.1685	0.105	484337	keystroke_r	r	n/a
242.3785	0.105	484757	keystroke_c	c	n/a
242.4835	0.105	484967	keystroke_h	h	n/a
242.6185	0.12	485237	keystroke_a	a	n/a
242.7985	0.12	485597	keystroke_s	s	n/a
242.9335	0.225	485867	keystroke_i	i	n/a
243.0685	0.15	486137	keystroke_n	n	n/a
243.2035	0.15	486407	keystroke_g	g	n/a
243.3685	0.105	486737	keystroke_Key.space	Key.space	n/a
243.5185	0.135	487037	keystroke_t	t	n/a
243.6535	0.135	487307	keystroke_o	o	n/a
243.8335	0.12	487667	keystroke_w	w	n/a
243.9685	0.15	487937	keystroke_n	n	n/a
244.1335	0.135	488267	keystroke_s	s	n/a
244.2835	0.1645	488567	keystroke_Key.space	Key.space	n/a
244.4335	0.2695	488867	keystroke_p	p	n/a
244.598	0.21	489196	keystroke_o	o	n/a
244.763	0.135	489526	keystroke_u	u	n/a
244.913	0.15	489826	keystroke_t	t	n/a
245.378	0.09	490756	keystroke_Key.backspace	Key.backspace	n/a
245.469	0.119	490938	keystroke_r	r	n/a
245.873	0.105	491746	keystroke_Key.enter	Key.enter	n/a
245.985	11.8295	491970	prompt	n/a	voluntary clinical residence cleaning\n
246.9685	0.105	493937	keystroke_v	v	n/a
247.0585	0.105	494117	keystroke_o	o	n/a
247.2385	0.09	494477	keystroke_l	l	n/a
247.4485	0.135	494897	keystroke_u	u	n/a
247.5235	0.165	495047	keystroke_n	n	n/a
247.6585	0.105	495317	keystroke_t	t	n/a
247.913	0.105	495826	keystroke_Key.caps_lock	Key.caps_lock	n/a
248.708	0.135	497416	keystroke_Key.caps_lock	Key.caps_lock	n/a
249.1575	0.105	498315	keystroke_a	a	n/a
249.6085	0.03	499217	keystroke_r	r	n/a
249.7435	0.075	499487	keystroke_t	t	n/a
250.1775	0.076	500355	keystroke_Key.backspace	Key.backspace	n/a
250.5535	0.12	501107	keystroke_Key.space	Key.space	n/a
250.9735	0.09	501947	keystroke_Key.backspace	Key.backspace	n/a
251.6785	0.195	503357	keystroke_y	y	n/a
251.7985	0.165	503597	keystroke_Key.space	Key.space	n/a
252.0235	0.15	504047	keystroke_c	c	n/a
252.143	0.2255	504286	keystroke_l	l	n/a
252.2785	0.165	504557	keystroke_i	i	n/a
252.3985	0.225	504797	keystroke_n	n	n/a
252.5635	0.18	505127	keystroke_i	i	n/a
252.6985	0.15	505397	keystroke_c	c	n/a
252.8935	0.165	505787	keystroke_a	a	n/a
253.0735	0.18	506147	keystroke_l	l	n/a
253.1935	0.135	506387	keystroke_Key.space	Key.space	n/a
253.823	0.075	507646	keystroke_r	r	n/a
253.988	0.09	507976	keystroke_e	e	n/a
254.198	0.105	508396	keystroke_s	s	n/a
254.288	0.12	508576	keystroke_i	i	n/a
254.409	0.0895	508818	keystroke_d	d	n/a
254.588	0.0905	509176	keystroke_e	e	n/a
254.6635	0.105	509327	keystroke_n	n	n/a
254.8725	0.045	509745	keystroke_c	c	n/a
255.0375	0.076	510075	keystroke_e	e	n/a
255.1135	0.104	510227	keystroke_Key.space	Key.space	n/a
255.3375	0.106	510675	keystroke_s	s	n/a
255.6675	0.076	511335	keystroke_Key.backspace	Key.backspace	n/a
255.7575	0.12	511515	keystroke_c	c	n/a
255.9375	0.12	511875	keystroke_l	l	n/a
256.0725	0.12	512145	keystroke_a	a	n/a
256.343	0.0755	512686	keystroke_e	e	n/a
256.613	0.0455	513226	keystroke_Key.backspace	Key.backspace	n/a
256.718	0.09	513436	keystroke_Key.backspace	Key.backspace	n/a
256.8235	0.09	513647	keystroke_e	e	n/a
256.9735	0.15	513947	keystroke_a	a	n/a
257.1085	0.15	514217	keystroke_n	n	n/a
257.2285	0.1795	514457	keystroke_i	i	n/a
257.348	0.15	514696	keystroke_n	n	n/a
257.468	0.181	514936	keystroke_g	g	n/a
257.678	0.135	515356	keystroke_Key.enter	Key.enter	n/a
257.8185	9.2365	515637	prompt	n/a	conventions seniors newspaper redeem\n
258.579	0.134	517158	keystroke_c	c	n/a
258.683	0.135	517366	keystroke_o	o	n/a
258.759	0.149	517518	keystroke_n	n	n/a
258.878	0.105	517756	keystroke_v	v	n/a
259.043	0.165	518086	keystroke_e	e	n/a
259.178	0.105	518356	keystroke_n	n	n/a
259.343	0.105	518686	keystroke_t	t	n/a
259.434	0.119	518868	keystroke_i	i	n/a
259.523	0.18	519046	keystroke_o	o	n/a
259.658	0.15	519316	keystroke_n	n	n/a
259.778	0.12	519556	keystroke_s	s	n/a
259.883	0.105	519766	keystroke_Key.space	Key.space	n/a
260.033	0.135	520066	keystroke_s	s	n/a
260.228	0.105	520456	keystroke_e	e	n/a
260.378	0.2105	520756	keystroke_n	n	n/a
260.4835	0.18	520967	keystroke_i	i	n/a
260.6035	0.195	521207	keystroke_o	o	n/a
261.023	0.105	522046	keystroke_r	r	n/a
261.384	0.149	522768	keystroke_s	s	n/a
261.563	0.12	523126	keystroke_Key.space	Key.space	n/a
261.758	0.15	523516	keystroke_n	n	n/a
261.878	0.105	523756	keystroke_e	e	n/a
262.073	0.075	524146	keystroke_r	r	n/a
262.4185	0.09	524837	keystroke_Key.backspace	Key.backspace	n/a
262.4785	0.12	524957	keystroke_w	w	n/a
262.7485	0.09	525497	keystroke_s	s	n/a
262.8835	0.135	525767	keystroke_p	p	n/a
263.0325	0.0765	526065	keystroke_a	a	n/a
263.109	0.12	526218	keystroke_p	p	n/a
263.258	0.09	526516	keystroke_e	e	n/a
263.424	0.09	526848	keystroke_r	r	n/a
263.693	0.136	527386	keystroke_s	s	n/a
263.843	0.09	527686	keystroke_Key.space	Key.space	n/a
264.968	0.0595	529936	keystroke_Key.backspace	Key.backspace	n/a
265.118	0.075	530236	keystroke_Key.backspace	Key.backspace	n/a
265.223	0.135	530446	keystroke_Key.space	Key.space	n/a
265.853	0.075	531706	keystroke_r	r	n/a
265.988	0.1205	531976	keystroke_e	e	n/a
266.1835	0.075	532367	keystroke_d	d	n/a
266.3635	0.0745	532727	keystroke_e	e	n/a
266.498	0.165	532996	keystroke_e	e	n/a
266.603	0.15	533206	keystroke_m	m	n/a
266.948	0.105	533896	keystroke_Key.enter	Key.enter	n/a
267.058	6.417	534116	prompt	n/a	score test trains epson\n
268.073	0.12	536146	keystroke_s	s	n/a
268.283	0.09	536566	keystroke_c	c	n/a
268.418	0.1505	536836	keystroke_o	o	n/a
268.5835	0.075	537167	keystroke_r	r	n/a
268.7935	0.075	537587	keystroke_e	e	n/a
268.8985	0.135	537797	keystroke_Key.space	Key.space	n/a
269.0485	0.075	538097	keystroke_r	r	n/a
269.4085	0.09	538817	keystroke_w	w	n/a
269.7075	0.076	539415	keystroke_Key.backspace	Key.backspace	n/a
269.843	0.0895	539686	keystroke_Key.backspace	Key.backspace	n/a
269.9935	0.1205	539987	keystroke_t	t	n/a
270.203	0.121	540406	keystroke_e	e	n/a
270.473	0.075	540946	keystroke_s	s	n/a
270.698	0.105	541396	keystroke_t	t	n/a
270.818	0.105	541636	keystroke_Key.space	Key.space	n/a
271.0885	0.12	542177	keystroke_t	t	n/a
271.343	0.12	542686	keystroke_r	r	n/a
271.673	0.12	543346	keystroke_a	a	n/a
271.853	0.15	543706	keystroke_i	i	n/a
271.943	0.18	543886	keystroke_n	n	n/a
272.078	0.18	544156	keystroke_s	s	n/a
272.243	0.1205	544486	keystroke_Key.space	Key.space	n/a
272.498	0.105	544996	keystroke_e	e	n/a
272.648	0.15	545296	keystroke_p	p	n/a
272.873	0.21	545746	keystroke_s	s	n/a
273.023	0.195	546046	keystroke_o	o	n/a
273.143	0.1505	546286	keystroke_n	n	n/a
273.3535	0.12	546707	keystroke_Key.enter	Key.enter	n/a
273.4785	8.862	546957	prompt	n/a	monte interest calendar mozambique\n
274.329	0.1345	548658	keystroke_m	m	n/a
274.403	0.1955	548806	keystroke_o	o	n/a
274.5535	0.165	549107	keystroke_n	n	n/a
274.6885	0.135	549377	keystroke_e	e	n/a
274.8685	0.105	549737	keystroke_t	t	n/a
275.228	0.075	550456	keystroke_Key.backspace	Key.backspace	n/a
275.3485	0.105	550697	keystroke_Key.backspace	Key.backspace	n/a
275.6485	0.12	551297	keystroke_t	t	n/a
275.7985	0.135	551597	keystroke_e	e	n/a
275.9335	0.255	551867	keystroke_Key.space	Key.space	n/a
276.1585	0.195	552317	keystroke_i	i	n/a
276.2485	0.1945	552497	keystroke_n	n	n/a
276.4135	0.1045	552827	keystroke_t	t	n/a
276.593	0.105	553186	keystroke_e	e	n/a
276.788	0.075	553576	keystroke_r	r	n/a
276.923	0.106	553846	keystroke_e	e	n/a
277.133	0.135	554266	keystroke_s	s	n/a
277.418	0.075	554836	keystroke_t	t	n/a
277.568	0.105	555136	keystroke_Key.space	Key.space	n/a
277.748	0.1055	555496	keystroke_c	c	n/a
277.973	0.12	555946	keystroke_a	a	n/a
278.078	0.135	556156	keystroke_l	l	n/a
278.243	0.09	556486	keystroke_e	e	n/a
278.378	0.1205	556756	keystroke_n	n	n/a
278.4535	0.09	556907	keystroke_d	d	n/a
278.6485	0.12	557297	keystroke_a	a	n/a
278.9035	0.135	557807	keystroke_r	r	n/a
279.0535	0.135	558107	keystroke_Key.space	Key.space	n/a
279.5785	0.165	559157	keystroke_m	m	n/a
279.6985	0.165	559397	keystroke_o	o	n/a
280.3135	0.09	560627	keystroke_z	z	n/a
280.4935	0.15	560987	keystroke_a	a	n/a
280.6285	0.105	561257	keystroke_m	m	n/a
280.9285	0.18	561857	keystroke_b	b	n/a
281.1085	0.12	562217	keystroke_i	i	n/a
281.4535	0.105	562907	keystroke_q	q	n/a
281.5435	0.135	563087	keystroke_u	u	n/a
281.7085	0.15	563417	keystroke_e	e	n/a
282.218	0.1205	564436	keystroke_Key.enter	Key.enter	n/a
282.343	10.332	564686	prompt	n/a	indices teaching beastality bedroom\n
283.1935	0.1945	566387	keystroke_i	i	n/a
283.298	0.166	566596	keystroke_n	n	n/a
283.449	0.104	566898	keystroke_d	d	n/a
283.539	0.134	567078	keystroke_i	i	n/a
283.719	0.075	567438	keystroke_c	c	n/a
283.929	0.059	567858	keystroke_e	e	n/a
284.393	0.15	568786	keystroke_s	s	n/a
284.528	0.135	569056	keystroke_Key.space	Key.space	n/a
284.948	0.135	569896	keystroke_t	t	n/a
285.233	0.09	570466	keystroke_e	e	n/a
285.668	0.076	571336	keystroke_a	a	n/a
285.908	0.09	571816	keystroke_c	c	n/a
286.028	0.09	572056	keystroke_h	h	n/a
286.178	0.15	572356	keystroke_i	i	n/a
286.238	0.195	572476	keystroke_n	n	n/a
286.388	0.135	572776	keystroke_g	g	n/a
286.553	0.105	573106	keystroke_Key.space	Key.space	n/a
287.0785	0.12	574157	keystroke_b	b	n/a
287.1685	0.075	574337	keystroke_e	e	n/a
287.4385	0.105	574877	keystroke_a	a	n/a
287.7085	0.09	575417	keystroke_s	s	n/a
288.0235	0.1495	576047	keystroke_t	t	n/a
288.413	0.105	576826	keystroke_a	a	n/a
288.533	0.195	577066	keystroke_l	l	n/a
288.668	0.1505	577336	keystroke_i	i	n/a
288.8185	0.09	577637	keystroke_t	t	n/a
289.0285	0.105	578057	keystroke_y	y	n/a
289.1635	0.135	578327	keystroke_Key.space	Key.space	n/a
290.9785	0.165	581957	keystroke_b	b	n/a
291.0985	0.135	582197	keystroke_e	e	n/a
291.3685	0.135	582737	keystroke_d	d	n/a
291.7585	0.075	583517	keystroke_r	r	n/a
291.9385	0.06	583877	keystroke_o	o	n/a
292.1035	0.105	584207	keystroke_o	o	n/a
292.3135	0.105	584627	keystroke_m	m	n/a
292.5835	0.09	585167	keystroke_Key.enter	Key.enter	n/a
292.678	6.717	585356	prompt	n/a	ownership chris wright companion\n
293.303	0.135	586606	keystroke_o	o	n/a
293.513	0.12	587026	keystroke_w	w	n/a
293.648	0.105	587296	keystroke_n	n	n/a
293.798	0.09	587596	keystroke_e	e	n/a
293.978	0.06	587956	keystroke_r	r	n/a
294.188	0.135	588376	keystroke_s	s	n/a
294.324	0.2245	588648	keystroke_h	h	n/a
294.4585	0.255	588917	keystroke_i	i	n/a
294.6085	0.225	589217	keystroke_p	p	n/a
294.8035	0.12	589607	keystroke_Key.space	Key.space	n/a
295.0585	0.105	590117	keystroke_c	c	n/a
295.1935	0.12	590387	keystroke_h	h	n/a
295.2985	0.105	590597	keystroke_r	r	n/a
295.4485	0.135	590897	keystroke_i	i	n/a
295.5985	0.1495	591197	keystroke_s	s	n/a
295.763	0.12	591526	keystroke_Key.space	Key.space	n/a
296.663	0.075	593326	keystroke_w	w	n/a
296.873	0.105	593746	keystroke_r	r	n/a
296.963	0.12	593926	keystroke_i	i	n/a
297.114	0.1195	594228	keystroke_g	g	n/a
297.2185	0.1195	594437	keystroke_h	h	n/a
297.353	0.135	594706	keystroke_t	t	n/a
297.503	0.12	595006	keystroke_Key.space	Key.space	n/a
297.758	0.135	595516	keystroke_c	c	n/a
297.848	0.195	595696	keystroke_o	o	n/a
297.998	0.135	595996	keystroke_m	m	n/a
298.2085	0.135	596417	keystroke_p	p	n/a
298.3585	0.15	596717	keystroke_a	a	n/a
298.4785	0.1195	596957	keystroke_n	n	n/a
298.778	0.15	597556	keystroke_i	i	n/a
298.913	0.195	597826	keystroke_o	o	n/a
299.048	0.136	598096	keystroke_n	n	n/a
299.319	0.074	598638	keystroke_Key.enter	Key.enter	n/a
299.398	12.582	598796	prompt	n/a	housewares ever fraction bulgaria\n
300.144	0.224	600288	keystroke_h	h	n/a
300.234	0.195	600468	keystroke_o	o	n/a
300.354	0.195	600708	keystroke_u	u	n/a
300.518	0.105	601036	keystroke_e	e	n/a
300.939	0.075	601878	keystroke_w	w	n/a
301.163	0.0905	602326	keystroke_a	a	n/a
301.4185	0.0755	602837	keystroke_r	r	n/a
301.599	0.075	603198	keystroke_e	e	n/a
301.809	0.12	603618	keystroke_s	s	n/a
302.1835	0.09	604367	keystroke_Key.backspace	Key.backspace	n/a
302.3335	0.075	604667	keystroke_Key.backspace	Key.backspace	n/a
302.5135	0.075	605027	keystroke_Key.backspace	Key.backspace	n/a
302.6935	0.06	605387	keystroke_Key.backspace	Key.backspace	n/a
302.8585	0.06	605717	keystroke_Key.backspace	Key.backspace	n/a
303.0085	0.105	606017	keystroke_Key.backspace	Key.backspace	n/a
303.2185	0.09	606437	keystroke_s	s	n/a
303.4435	0.105	606887	keystroke_w	w	n/a
303.833	0.09	607666	keystroke_Key.backspace	Key.backspace	n/a
303.968	0.105	607936	keystroke_e	e	n/a
304.388	0.0755	608776	keystroke_w	w	n/a
304.6135	0.075	609227	keystroke_a	a	n/a
304.853	0.06	609706	keystroke_r	r	n/a
305.018	0.075	610036	keystroke_e	e	n/a
305.228	0.135	610456	keystroke_s	s	n/a
305.378	0.09	610756	keystroke_Key.space	Key.space	n/a
305.888	0.135	611776	keystroke_e	e	n/a
306.008	0.105	612016	keystroke_v	v	n/a
306.098	0.105	612196	keystroke_e	e	n/a
306.293	0.151	612586	keystroke_r	r	n/a
306.459	0.164	612918	keystroke_y	y	n/a
306.594	0.119	613188	keystroke_Key.space	Key.space	n/a
307.028	0.075	614056	keystroke_f	f	n/a
307.208	0.06	614416	keystroke_r	r	n/a
307.433	0.09	614866	keystroke_a	a	n/a
307.658	0.075	615316	keystroke_c	c	n/a
307.898	0.09	615796	keystroke_t	t	n/a
308.003	0.195	616006	keystroke_i	i	n/a
308.153	0.271	616306	keystroke_o	o	n/a
308.319	0.164	616638	keystroke_n	n	n/a
308.438	0.15	616876	keystroke_Key.space	Key.space	n/a
308.7835	0.225	617567	keystroke_b	b	n/a
308.9935	0.135	617987	keystroke_y	y	n/a
309.5635	0.09	619127	keystroke_Key.backspace	Key.backspace	n/a
309.8185	0.105	619637	keystroke_u	u	n/a
309.9985	0.105	619997	keystroke_l	l	n/a
310.2085	0.12	620417	keystroke_g	g	n/a
310.3885	0.09	620777	keystroke_a	a	n/a
310.658	0.105	621316	keystroke_r	r	n/a
311.213	0.075	622426	keystroke_i	i	n/a
311.618	0.12	623236	keystroke_a	a	n/a
311.8735	0.105	623747	keystroke_Key.enter	Key.enter	n/a
311.9835	6.3715	623967	prompt	n/a	spank convinced sounds reflection\n
312.8035	0.12	625607	keystroke_s	s	n/a
312.9385	0.15	625877	keystroke_p	p	n/a
313.1035	0.165	626207	keystroke_a	a	n/a
313.2385	0.24	626477	keystroke_n	n	n/a
313.3885	0.21	626777	keystroke_k	k	n/a
313.5685	0.165	627137	keystroke_Key.space	Key.space	n/a
314.0335	0.09	628067	keystroke_c	c	n/a
314.1085	0.195	628217	keystroke_o	o	n/a
314.2585	0.18	628517	keystroke_n	n	n/a
314.4535	0.105	628907	keystroke_v	v	n/a
314.589	0.18	629178	keystroke_i	i	n/a
314.709	0.135	629418	keystroke_n	n	n/a
314.874	0.074	629748	keystroke_c	c	n/a
315.084	0.105	630168	keystroke_e	e	n/a
315.309	0.15	630618	keystroke_d	d	n/a
315.444	0.119	630888	keystroke_Key.space	Key.space	n/a
315.624	0.15	631248	keystroke_s	s	n/a
315.714	0.21	631428	keystroke_o	o	n/a
315.834	0.164	631668	keystroke_u	u	n/a
315.938	0.165	631876	keystroke_n	n	n/a
316.028	0.12	632056	keystroke_d	d	n/a
316.193	0.195	632386	keystroke_s	s	n/a
316.358	0.105	632716	keystroke_Key.space	Key.space	n/a
316.643	0.075	633286	keystroke_r	r	n/a
316.823	0.075	633646	keystroke_e	e	n/a
317.003	0.09	634006	keystroke_f	f	n/a
317.138	0.135	634276	keystroke_l	l	n/a
317.213	0.075	634426	keystroke_e	e	n/a
317.423	0.075	634846	keystroke_c	c	n/a
317.648	0.15	635296	keystroke_t	t	n/a
317.753	0.285	635506	keystroke_i	i	n/a
317.888	0.24	635776	keystroke_o	o	n/a
318.023	0.135	636046	keystroke_n	n	n/a
318.233	0.12	636466	keystroke_Key.enter	Key.enter	n/a
318.358	6.717	636716	prompt	n/a	easier bradley local wages\n
319.1335	0.06	638267	keystroke_e	e	n/a
319.3135	0.105	638627	keystroke_a	a	n/a
319.5085	0.105	639017	keystroke_s	s	n/a
319.6585	0.105	639317	keystroke_i	i	n/a
319.8085	0.09	639617	keystroke_e	e	n/a
319.9735	0.12	639947	keystroke_r	r	n/a
320.1085	0.12	640217	keystroke_Key.space	Key.space	n/a
320.4985	0.12	640997	keystroke_b	b	n/a
320.5885	0.09	641177	keystroke_r	r	n/a
320.8285	0.09	641657	keystroke_a	a	n/a
321.0235	0.0745	642047	keystroke_d	d	n/a
321.158	0.106	642316	keystroke_l	l	n/a
321.278	0.1205	642556	keystroke_e	e	n/a
321.5035	0.195	643007	keystroke_y	y	n/a
321.6685	0.12	643337	keystroke_Key.space	Key.space	n/a
321.9535	0.135	643907	keystroke_l	l	n/a
322.2235	0.12	644447	keystroke_o	o	n/a
322.3585	0.105	644717	keystroke_c	c	n/a
322.5685	0.165	645137	keystroke_a	a	n/a
322.6735	0.21	645347	keystroke_l	l	n/a
322.8385	0.135	645677	keystroke_Key.space	Key.space	n/a
323.529	0.135	647058	keystroke_w	w	n/a
323.784	0.12	647568	keystroke_a	a	n/a
323.979	0.12	647958	keystroke_g	g	n/a
324.3085	0.09	648617	keystroke_e	e	n/a
324.5185	0.12	649037	keystroke_s	s	n/a
324.9835	0.09	649967	keystroke_Key.enter	Key.enter	n/a
325.0785	11.0365	650157	prompt	n/a	lovely oughtn't contemporary we've\n
325.929	0.105	651858	keystroke_l	l	n/a
326.124	0.1345	652248	keystroke_o	o	n/a
326.2135	0.076	652427	keystroke_v	v	n/a
326.4085	0.1055	652817	keystroke_e	e	n/a
326.529	0.12	653058	keystroke_l	l	n/a
326.679	0.12	653358	keystroke_y	y	n/a
326.814	0.12	653628	keystroke_Key.space	Key.space	n/a
327.5635	0.24	655127	keystroke_o	o	n/a
327.6985	0.15	655397	keystroke_u	u	n/a
327.8185	0.135	655637	keystroke_g	g	n/a
327.9235	0.15	655847	keystroke_h	h	n/a
328.0735	0.225	656147	keystroke_t	t	n/a
330.0235	0.135	660047	keystroke_n	n	n/a
330.1735	0.075	660347	keystroke_'	'	n/a
330.5485	0.09	661097	keystroke_t	t	n/a
331.8385	0.12	663677	keystroke_Key.space	Key.space	n/a
332.1235	0.105	664247	keystroke_c	c	n/a
332.1985	0.12	664397	keystroke_o	o	n/a
332.2885	0.12	664577	keystroke_n	n	n/a
332.4235	0.06	664847	keystroke_t	t	n/a
332.6035	0.15	665207	keystroke_e	e	n/a
332.7085	0.195	665417	keystroke_m	m	n/a
332.8285	0.18	665657	keystroke_p	p	n/a
332.9935	0.165	665987	keystroke_o	o	n/a
333.1285	0.1045	666257	keystroke_r	r	n/a
333.608	0.1355	667216	keystroke_a	a	n/a
333.8635	0.105	667727	keystroke_r	r	n/a
334.029	0.165	668058	keystroke_y	y	n/a
334.359	0.15	668718	keystroke_Key.space	Key.space	n/a
334.719	0.105	669438	keystroke_w	w	n/a
334.899	0.105	669798	keystroke_e	e	n/a
335.1685	0.12	670337	keystroke_'	'	n/a
335.3785	0.09	670757	keystroke_v	v	n/a
335.5735	0.15	671147	keystroke_e	e	n/a
336.0085	0.105	672017	keystroke_Key.enter	Key.enter	n/a
336.121	8.514	672242	prompt	n/a	documents fleet bargain october\n
336.9085	0.1045	673817	keystroke_d	d	n/a
337.028	0.135	674056	keystroke_o	o	n/a
337.164	0.104	674328	keystroke_c	c	n/a
337.283	0.09	674566	keystroke_u	u	n/a
337.598	0.015	675196	keystroke_m	m	n/a
337.733	0.0905	675466	keystroke_e	e	n/a
337.8385	0.12	675677	keystroke_n	n	n/a
337.9735	0.105	675947	keystroke_t	t	n/a
338.2285	0.18	676457	keystroke_s	s	n/a
338.3785	0.105	676757	keystroke_Key.space	Key.space	n/a
338.8735	0.105	677747	keystroke_f	f	n/a
339.1435	0.12	678287	keystroke_l	l	n/a
339.3985	0.09	678797	keystroke_e	e	n/a
339.5485	0.06	679097	keystroke_e	e	n/a
339.7285	0.09	679457	keystroke_t	t	n/a
339.8635	0.09	679727	keystroke_Key.space	Key.space	n/a
340.2685	0.12	680537	keystroke_b	b	n/a
340.4035	0.075	680807	keystroke_r	r	n/a
340.7035	0.06	681407	keystroke_a	a	n/a
340.9585	0.06	681917	keystroke_Key.backspace	Key.backspace	n/a
341.1385	0.045	682277	keystroke_Key.backspace	Key.backspace	n/a
341.1685	0.15	682337	keystroke_a	a	n/a
341.4085	0.105	682817	keystroke_r	r	n/a
341.7985	0.075	683597	keystroke_g	g	n/a
341.9485	0.165	683897	keystroke_a	a	n/a
342.0985	0.255	684197	keystroke_i	i	n/a
342.2485	0.2405	684497	keystroke_n	n	n/a
342.444	0.134	684888	keystroke_Key.space	Key.space	n/a
342.714	0.135	685428	keystroke_o	o	n/a
343.028	0.09	686056	keystroke_v	v	n/a
343.3735	0.09	686747	keystroke_Key.backspace	Key.backspace	n/a
343.4785	0.075	686957	keystroke_c	c	n/a
343.7035	0.105	687407	keystroke_t	t	n/a
343.7935	0.165	687587	keystroke_o	o	n/a
343.9285	0.135	687857	keystroke_b	b	n/a
344.0485	0.09	688097	keystroke_e	e	n/a
344.2285	0.105	688457	keystroke_r	r	n/a
344.5135	0.1205	689027	keystroke_Key.enter	Key.enter	n/a
344.6385	7.752	689277	prompt	n/a	violin weights walk insured\n
345.519	0.06	691038	keystroke_v	v	n/a
345.624	0.18	691248	keystroke_i	i	n/a
345.744	0.12	691488	keystroke_o	o	n/a
345.954	0.165	691908	keystroke_l	l	n/a
346.088	0.33	692176	keystroke_i	i	n/a
346.239	0.2395	692478	keystroke_n	n	n/a
346.433	0.1055	692866	keystroke_Key.space	Key.space	n/a
347.0035	0.075	694007	keystroke_w	w	n/a
347.169	0.105	694338	keystroke_e	e	n/a
347.289	0.1345	694578	keystroke_i	i	n/a
347.4985	0.09	694997	keystroke_g	g	n/a
347.7385	0.09	695477	keystroke_t	t	n/a
347.7695	0.089	695539	keystroke_h	h	n/a
348.2785	0.12	696557	keystroke_Key.backspace	Key.backspace	n/a
348.7135	0.075	697427	keystroke_Key.backspace	Key.backspace	n/a
348.9235	0.09	697847	keystroke_h	h	n/a
348.9835	0.075	697967	keystroke_t	t	n/a
349.2385	0.12	698477	keystroke_s	s	n/a
349.3735	0.075	698747	keystroke_Key.space	Key.space	n/a
349.5535	0.076	699107	keystroke_w	w	n/a
349.8685	0.12	699737	keystroke_a	a	n/a
349.9735	0.1955	699947	keystroke_l	l	n/a
350.124	0.21	700248	keystroke_k	k	n/a
350.289	0.12	700578	keystroke_Key.space	Key.space	n/a
350.469	0.21	700938	keystroke_i	i	n/a
350.604	0.135	701208	keystroke_n	n	n/a
351.2185	0.1505	702437	keystroke_s	s	n/a
351.3535	0.1055	702707	keystroke_u	u	n/a
351.564	0.105	703128	keystroke_r	r	n/a
351.759	0.09	703518	keystroke_e	e	n/a
352.029	0.105	704058	keystroke_d	d	n/a
352.284	0.105	704568	keystroke_Key.enter	Key.enter	n/a
352.3935	5.9665	704787	prompt	n/a	dreams payable linking accounts\n
353.169	0.074	706338	keystroke_d	d	n/a
353.333	0.091	706666	keystroke_r	r	n/a
353.634	0.075	707268	keystroke_e	e	n/a
353.859	0.089	707718	keystroke_a	a	n/a
353.994	0.12	707988	keystroke_m	m	n/a
354.1285	0.105	708257	keystroke_s	s	n/a
354.264	0.1495	708528	keystroke_Key.space	Key.space	n/a
354.384	0.1495	708768	keystroke_p	p	n/a
354.548	0.165	709096	keystroke_a	a	n/a
354.8035	0.1195	709607	keystroke_y	y	n/a
354.954	0.119	709908	keystroke_a	a	n/a
355.074	0.21	710148	keystroke_b	b	n/a
355.224	0.195	710448	keystroke_l	l	n/a
355.344	0.135	710688	keystroke_e	e	n/a
355.524	0.12	711048	keystroke_Key.space	Key.space	n/a
355.734	0.1945	711468	keystroke_l	l	n/a
355.8835	0.15	711767	keystroke_i	i	n/a
355.9885	0.24	711977	keystroke_n	n	n/a
356.1385	0.15	712277	keystroke_k	k	n/a
356.3935	0.2255	712787	keystroke_i	i	n/a
356.514	0.18	713028	keystroke_n	n	n/a
356.634	0.12	713268	keystroke_g	g	n/a
356.769	0.135	713538	keystroke_Key.space	Key.space	n/a
357.024	0.075	714048	keystroke_a	a	n/a
357.2485	0.06	714497	keystroke_c	c	n/a
357.3985	0.091	714797	keystroke_c	c	n/a
357.4735	0.21	714947	keystroke_o	o	n/a
357.5785	0.21	715157	keystroke_u	u	n/a
357.6985	0.18	715397	keystroke_n	n	n/a
357.7735	0.12	715547	keystroke_t	t	n/a
358.044	0.135	716088	keystroke_s	s	n/a
358.2385	0.12	716477	keystroke_Key.enter	Key.enter	n/a
358.3645	5.486	716729	prompt	n/a	press hire racing principle\n
358.9745	0.149	717949	keystroke_p	p	n/a
359.1385	0.0755	718277	keystroke_r	r	n/a
359.319	0.09	718638	keystroke_e	e	n/a
359.544	0.075	719088	keystroke_s	s	n/a
359.694	0.105	719388	keystroke_s	s	n/a
359.784	0.12	719568	keystroke_Key.space	Key.space	n/a
359.949	0.225	719898	keystroke_h	h	n/a
360.084	0.165	720168	keystroke_i	i	n/a
360.189	0.105	720378	keystroke_r	r	n/a
360.369	0.135	720738	keystroke_e	e	n/a
360.519	0.105	721038	keystroke_Key.space	Key.space	n/a
360.639	0.09	721278	keystroke_r	r	n/a
360.8635	0.0905	721727	keystroke_a	a	n/a
361.1635	0.075	722327	keystroke_c	c	n/a
361.2535	0.255	722507	keystroke_i	i	n/a
361.4335	0.135	722867	keystroke_n	n	n/a
361.5385	0.12	723077	keystroke_g	g	n/a
361.6885	0.12	723377	keystroke_Key.space	Key.space	n/a
361.8835	0.135	723767	keystroke_p	p	n/a
362.0035	0.105	724007	keystroke_r	r	n/a
362.1235	0.1955	724247	keystroke_i	i	n/a
362.2585	0.195	724517	keystroke_n	n	n/a
362.844	0.105	725688	keystroke_c	c	n/a
363.069	0.1495	726138	keystroke_i	i	n/a
363.2485	0.24	726497	keystroke_p	p	n/a
363.4285	0.165	726857	keystroke_l	l	n/a
363.5335	0.1355	727067	keystroke_e	e	n/a
363.729	0.12	727458	keystroke_Key.enter	Key.enter	n/a
363.8535	10.392	727707	prompt	n/a	madagascar privileges event interested\n
364.539	0.15	729078	keystroke_m	m	n/a
364.629	0.18	729258	keystroke_a	a	n/a
364.884	0.12	729768	keystroke_g	g	n/a
365.079	0.105	730158	keystroke_a	a	n/a
365.334	0.06	730668	keystroke_Key.backspace	Key.backspace	n/a
365.469	0.12	730938	keystroke_Key.backspace	Key.backspace	n/a
365.634	0.09	731268	keystroke_d	d	n/a
365.829	0.165	731658	keystroke_a	a	n/a
366.459	0.135	732918	keystroke_g	g	n/a
366.564	0.12	733128	keystroke_a	a	n/a
366.729	0.12	733458	keystroke_s	s	n/a
367.014	0.06	734028	keystroke_c	c	n/a
367.209	0.09	734418	keystroke_a	a	n/a
367.449	0.09	734898	keystroke_r	r	n/a
367.583	0.106	735166	keystroke_Key.space	Key.space	n/a
367.959	0.12	735918	keystroke_p	p	n/a
368.109	0.105	736218	keystroke_r	r	n/a
368.499	0.12	736998	keystroke_i	i	n/a
368.874	0.09	737748	keystroke_v	v	n/a
368.979	0.12	737958	keystroke_i	i	n/a
369.3535	0.12	738707	keystroke_l	l	n/a
369.5935	0.09	739187	keystroke_g	g	n/a
370.0285	0.075	740057	keystroke_Key.backspace	Key.backspace	n/a
370.1485	0.15	740297	keystroke_e	e	n/a
370.3285	0.1345	740657	keystroke_g	g	n/a
370.479	0.0745	740958	keystroke_e	e	n/a
370.719	0.1345	741438	keystroke_s	s	n/a
370.8085	0.12	741617	keystroke_Key.space	Key.space	n/a
371.259	0.1495	742518	keystroke_e	e	n/a
371.4235	0.09	742847	keystroke_v	v	n/a
371.5135	0.12	743027	keystroke_e	e	n/a
371.6635	0.15	743327	keystroke_n	n	n/a
371.7835	0.135	743567	keystroke_t	t	n/a
371.9035	0.1205	743807	keystroke_Key.space	Key.space	n/a
372.219	0.1945	744438	keystroke_i	i	n/a
372.3235	0.1355	744647	keystroke_n	n	n/a
372.4145	0.1195	744829	keystroke_t	t	n/a
372.669	0.105	745338	keystroke_e	e	n/a
372.849	0.09	745698	keystroke_r	r	n/a
372.999	0.105	745998	keystroke_e	e	n/a
373.224	0.105	746448	keystroke_s	s	n/a
373.494	0.09	746988	keystroke_t	t	n/a
373.704	0.09	747408	keystroke_e	e	n/a
373.869	0.255	747738	keystroke_d	d	n/a
374.139	0.105	748278	keystroke_Key.enter	Key.enter	n/a
374.2485	5.277	748497	prompt	n/a	janet tall levels gene\n
375.2495	0.134	750499	keystroke_j	j	n/a
375.3385	0.1655	750677	keystroke_a	a	n/a
375.4885	0.1355	750977	keystroke_n	n	n/a
375.638	0.105	751276	keystroke_e	e	n/a
375.878	0.106	751756	keystroke_t	t	n/a
375.969	0.105	751938	keystroke_Key.space	Key.space	n/a
376.4635	0.09	752927	keystroke_t	t	n/a
376.7185	0.15	753437	keystroke_a	a	n/a
376.8235	0.075	753647	keystroke_l	l	n/a
376.9735	0.1805	753947	keystroke_l	l	n/a
377.1085	0.12	754217	keystroke_Key.space	Key.space	n/a
377.3485	0.135	754697	keystroke_l	l	n/a
377.4985	0.18	754997	keystroke_e	e	n/a
377.6785	0.105	755357	keystroke_v	v	n/a
377.7985	0.1355	755597	keystroke_e	e	n/a
377.934	0.135	755868	keystroke_l	l	n/a
378.084	0.15	756168	keystroke_s	s	n/a
378.204	0.105	756408	keystroke_Key.space	Key.space	n/a
378.7135	0.075	757427	keystroke_g	g	n/a
378.9385	0.09	757877	keystroke_e	e	n/a
379.0435	0.135	758087	keystroke_n	n	n/a
379.1635	0.135	758327	keystroke_e	e	n/a
379.4185	0.105	758837	keystroke_Key.enter	Key.enter	n/a
379.528	8.322	759056	prompt	n/a	cabinet smaller capitol financing\n
380.244	0.105	760488	keystroke_c	c	n/a
380.4985	0.105	760997	keystroke_a	a	n/a
380.6335	0.15	761267	keystroke_b	b	n/a
380.7685	0.195	761537	keystroke_i	i	n/a
380.9035	0.1655	761807	keystroke_n	n	n/a
381.0535	0.135	762107	keystroke_e	e	n/a
381.2485	0.15	762497	keystroke_t	t	n/a
381.3835	0.105	762767	keystroke_Key.space	Key.space	n/a
381.6385	0.105	763277	keystroke_s	s	n/a
381.7585	0.105	763517	keystroke_m	m	n/a
381.8785	0.12	763757	keystroke_a	a	n/a
382.0135	0.075	764027	keystroke_l	l	n/a
382.1635	0.12	764327	keystroke_l	l	n/a
382.2685	0.075	764537	keystroke_e	e	n/a
382.4335	0.135	764867	keystroke_r	r	n/a
382.5835	0.12	765167	keystroke_Key.space	Key.space	n/a
383.0785	0.075	766157	keystroke_c	c	n/a
383.2885	0.135	766577	keystroke_a	a	n/a
383.4385	0.18	766877	keystroke_i	i	n/a
383.5735	0.135	767147	keystroke_p	p	n/a
384.2335	0.075	768467	keystroke_Key.backspace	Key.backspace	n/a
384.3535	0.09	768707	keystroke_Key.backspace	Key.backspace	n/a
384.5635	0.15	769127	keystroke_p	p	n/a
384.6685	0.135	769337	keystroke_i	i	n/a
384.879	0.134	769758	keystroke_t	t	n/a
385.058	0.1055	770116	keystroke_o	o	n/a
385.2235	0.225	770447	keystroke_l	l	n/a
385.3885	0.12	770777	keystroke_Key.space	Key.space	n/a
385.8085	0.106	771617	keystroke_f	f	n/a
385.8985	0.165	771797	keystroke_i	i	n/a
385.9895	0.134	771979	keystroke_n	n	n/a
386.1095	0.119	772219	keystroke_a	a	n/a
386.2295	0.119	772459	keystroke_n	n	n/a
386.4385	0.135	772877	keystroke_c	c	n/a
386.5285	0.18	773057	keystroke_i	i	n/a
386.6035	0.18	773207	keystroke_n	n	n/a
386.7685	0.075	773537	keystroke_f	f	n/a
387.3535	0.09	774707	keystroke_Key.backspace	Key.backspace	n/a
387.4285	0.135	774857	keystroke_g	g	n/a
387.7585	0.09	775517	keystroke_Key.enter	Key.enter	n/a
387.854	6.266	775708	prompt	n/a	quarterly formal golden wins\n
388.7485	0.09	777497	keystroke_q	q	n/a
388.8685	0.12	777737	keystroke_u	u	n/a
389.0035	0.075	778007	keystroke_a	a	n/a
389.274	0.06	778548	keystroke_r	r	n/a
389.424	0.06	778848	keystroke_t	t	n/a
389.604	0.105	779208	keystroke_e	e	n/a
389.784	0.105	779568	keystroke_r	r	n/a
389.904	0.12	779808	keystroke_l	l	n/a
390.054	0.09	780108	keystroke_y	y	n/a
390.219	0.105	780438	keystroke_Key.space	Key.space	n/a
390.684	0.09	781368	keystroke_f	f	n/a
390.759	0.105	781518	keystroke_o	o	n/a
390.879	0.0745	781758	keystroke_r	r	n/a
390.9835	0.12	781967	keystroke_m	m	n/a
391.164	0.195	782328	keystroke_a	a	n/a
391.284	0.225	782568	keystroke_l	l	n/a
391.479	0.12	782958	keystroke_Key.space	Key.space	n/a
392.2585	0.105	784517	keystroke_g	g	n/a
392.3335	0.105	784667	keystroke_o	o	n/a
392.5135	0.135	785027	keystroke_l	l	n/a
392.6785	0.06	785357	keystroke_d	d	n/a
392.9335	0.195	785867	keystroke_e	e	n/a
393.0535	0.18	786107	keystroke_n	n	n/a
393.1885	0.12	786377	keystroke_Key.space	Key.space	n/a
393.4885	0.105	786977	keystroke_w	w	n/a
393.5485	0.15	787097	keystroke_i	i	n/a
393.6235	0.1195	787247	keystroke_n	n	n/a
393.728	0.135	787456	keystroke_s	s	n/a
393.998	0.12	787996	keystroke_Key.enter	Key.enter	n/a
394.123	11.967	788246	prompt	n/a	strongly betty kentucky shops\n
394.7635	0.105	789527	keystroke_s	s	n/a
395.004	0.06	790008	keystroke_t	t	n/a
395.169	0.075	790338	keystroke_r	r	n/a
395.214	0.1945	790428	keystroke_o	o	n/a
395.3485	0.12	790697	keystroke_n	n	n/a
395.4235	0.12	790847	keystroke_g	g	n/a
395.5735	0.105	791147	keystroke_l	l	n/a
395.6935	0.105	791387	keystroke_y	y	n/a
395.8585	0.09	791717	keystroke_Key.space	Key.space	n/a
396.0235	0.12	792047	keystroke_b	b	n/a
396.0985	0.105	792197	keystroke_e	e	n/a
396.3535	0.06	792707	keystroke_t	t	n/a
396.4735	0.075	792947	keystroke_t	t	n/a
396.8185	0.135	793637	keystroke_y	y	n/a
397.2085	0.09	794417	keystroke_Key.space	Key.space	n/a
397.5835	0.105	795167	keystroke_j	j	n/a
397.7035	0.0905	795407	keystroke_e	e	n/a
397.824	0.12	795648	keystroke_n	n	n/a
397.959	0.105	795918	keystroke_t	t	n/a
398.094	0.135	796188	keystroke_u	u	n/a
398.214	0.135	796428	keystroke_c	c	n/a
398.364	0.1195	796728	keystroke_k	k	n/a
398.5435	0.12	797087	keystroke_y	y	n/a
398.6785	0.1045	797357	keystroke_Key.space	Key.space	n/a
399.1285	0.12	798257	keystroke_s	s	n/a
399.2785	0.18	798557	keystroke_h	h	n/a
399.3835	0.1805	798767	keystroke_o	o	n/a
399.504	0.165	799008	keystroke_p	p	n/a
399.669	0.15	799338	keystroke_s	s	n/a
400.389	0.045	800778	keystroke_Key.backspace	Key.backspace	n/a
400.539	0.06	801078	keystroke_Key.backspace	Key.backspace	n/a
400.704	0.045	801408	keystroke_Key.backspace	Key.backspace	n/a
400.839	0.06	801678	keystroke_Key.backspace	Key.backspace	n/a
400.989	0.06	801978	keystroke_Key.backspace	Key.backspace	n/a
401.139	0.105	802278	keystroke_Key.backspace	Key.backspace	n/a
401.289	0.075	802578	keystroke_Key.backspace	Key.backspace	n/a
401.439	0.09	802878	keystroke_Key.backspace	Key.backspace	n/a
401.634	0.06	803268	keystroke_Key.backspace	Key.backspace	n/a
401.799	0.0745	803598	keystroke_Key.backspace	Key.backspace	n/a
401.9635	0.075	803927	keystroke_Key.backspace	Key.backspace	n/a
402.1435	0.075	804287	keystroke_Key.backspace	Key.backspace	n/a
402.3085	0.075	804617	keystroke_Key.backspace	Key.backspace	n/a
402.4885	0.06	804977	keystroke_Key.backspace	Key.backspace	n/a
403.0585	0.09	806117	keystroke_k	k	n/a
403.164	0.12	806328	keystroke_e	e	n/a
403.269	0.135	806538	keystroke_n	n	n/a
403.419	0.075	806838	keystroke_t	t	n/a
403.524	0.105	807048	keystroke_u	u	n/a
403.689	0.09	807378	keystroke_c	c	n/a
403.899	0.045	807798	keystroke_u	u	n/a
404.259	0.074	808518	keystroke_Key.backspace	Key.backspace	n/a
404.454	0.105	808908	keystroke_k	k	n/a
404.544	0.09	809088	keystroke_y	y	n/a
404.679	0.104	809358	keystroke_Key.space	Key.space	n/a
405.174	0.135	810348	keystroke_s	s	n/a
405.294	0.195	810588	keystroke_h	h	n/a
405.474	0.195	810948	keystroke_o	o	n/a
405.609	0.15	811218	keystroke_p	p	n/a
405.714	0.135	811428	keystroke_s	s	n/a
405.999	0.089	811998	keystroke_Key.enter	Key.enter	n/a
406.093	6.582	812186	prompt	n/a	transmission bent scheme cove\n
407.049	0.09	814098	keystroke_t	t	n/a
407.244	0.06	814488	keystroke_r	r	n/a
407.4535	0.1195	814907	keystroke_a	a	n/a
407.5885	0.0745	815177	keystroke_n	n	n/a
407.6785	0.1955	815357	keystroke_s	s	n/a
407.8585	0.15	815717	keystroke_m	m	n/a
407.963	0.1355	815926	keystroke_i	i	n/a
408.4295	0.0895	816859	keystroke_s	s	n/a
408.579	0.165	817158	keystroke_s	s	n/a
409.524	0.12	819048	keystroke_i	i	n/a
409.614	0.15	819228	keystroke_o	o	n/a
409.704	0.165	819408	keystroke_n	n	n/a
409.839	0.105	819678	keystroke_Key.space	Key.space	n/a
409.9885	0.135	819977	keystroke_b	b	n/a
410.0935	0.135	820187	keystroke_e	e	n/a
410.2435	0.165	820487	keystroke_n	n	n/a
410.3935	0.12	820787	keystroke_t	t	n/a
410.5285	0.09	821057	keystroke_Key.space	Key.space	n/a
410.8435	0.09	821687	keystroke_s	s	n/a
411.0385	0.09	822077	keystroke_c	c	n/a
411.1435	0.105	822287	keystroke_h	h	n/a
411.2785	0.12	822557	keystroke_e	e	n/a
411.4135	0.105	822827	keystroke_m	m	n/a
411.5035	0.09	823007	keystroke_e	e	n/a
411.6385	0.105	823277	keystroke_Key.space	Key.space	n/a
411.8335	0.09	823667	keystroke_c	c	n/a
411.9385	0.1205	823877	keystroke_o	o	n/a
412.119	0.0745	824238	keystroke_v	v	n/a
412.3585	0.135	824717	keystroke_e	e	n/a
412.5385	0.135	825077	keystroke_Key.enter	Key.enter	n/a
412.6815	14.9045	825363	prompt	n/a	infringement tropical rides relating\n
413.4385	0.241	826877	keystroke_i	i	n/a
413.5885	0.165	827177	keystroke_n	n	n/a
413.7385	0.09	827477	keystroke_f	f	n/a
413.9195	0.089	827839	keystroke_r	r	n/a
413.9935	0.1805	827987	keystroke_i	i	n/a
414.114	0.135	828228	keystroke_n	n	n/a
414.204	0.135	828408	keystroke_g	g	n/a
414.369	0.1345	828738	keystroke_m	m	n/a
414.5335	0.12	829067	keystroke_w	w	n/a
414.6685	0.12	829337	keystroke_n	n	n/a
415.179	0.075	830358	keystroke_Key.backspace	Key.backspace	n/a
415.3135	0.1205	830627	keystroke_Key.backspace	Key.backspace	n/a
415.509	0.135	831018	keystroke_e	e	n/a
415.899	0.105	831798	keystroke_m	m	n/a
416.019	0.12	832038	keystroke_e	e	n/a
416.094	0.12	832188	keystroke_n	n	n/a
416.244	0.12	832488	keystroke_t	t	n/a
416.4535	0.105	832907	keystroke_Key.space	Key.space	n/a
417.7285	0.075	835457	keystroke_Key.backspace	Key.backspace	n/a
417.8935	0.09	835787	keystroke_Key.backspace	Key.backspace	n/a
418.0585	0.075	836117	keystroke_Key.backspace	Key.backspace	n/a
418.2235	0.09	836447	keystroke_Key.backspace	Key.backspace	n/a
418.689	0.0895	837378	keystroke_Key.backspace	Key.backspace	n/a
419.184	0.105	838368	keystroke_n	n	n/a
419.274	0.12	838548	keystroke_t	t	n/a
419.439	0.105	838878	keystroke_Key.space	Key.space	n/a
420.6085	0.075	841217	keystroke_Key.backspace	Key.backspace	n/a
420.7585	0.09	841517	keystroke_Key.backspace	Key.backspace	n/a
420.9235	0.075	841847	keystroke_Key.backspace	Key.backspace	n/a
421.0885	0.075	842177	keystroke_Key.backspace	Key.backspace	n/a
421.254	0.075	842508	keystroke_Key.backspace	Key.backspace	n/a
421.5385	0.105	843077	keystroke_e	e	n/a
421.8535	0.075	843707	keystroke_m	m	n/a
422.1235	0.12	844247	keystroke_e	e	n/a
422.1985	0.135	844397	keystroke_n	n	n/a
422.3785	0.105	844757	keystroke_t	t	n/a
422.4985	0.105	844997	keystroke_Key.space	Key.space	n/a
422.934	0.03	845868	keystroke_t	t	n/a
423.144	0.12	846288	keystroke_r	r	n/a
423.909	0.165	847818	keystroke_o	o	n/a
424.014	0.15	848028	keystroke_p	p	n/a
424.194	0.15	848388	keystroke_i	i	n/a
424.329	0.075	848658	keystroke_c	c	n/a
424.5685	0.12	849137	keystroke_a	a	n/a
424.644	0.1945	849288	keystroke_l	l	n/a
424.7795	0.134	849559	keystroke_Key.space	Key.space	n/a
425.334	0.09	850668	keystroke_r	r	n/a
425.439	0.09	850878	keystroke_i	i	n/a
425.544	0.06	851088	keystroke_d	d	n/a
425.679	0.075	851358	keystroke_e	e	n/a
425.874	0.12	851748	keystroke_s	s	n/a
426.009	0.12	852018	keystroke_Key.space	Key.space	n/a
426.234	0.06	852468	keystroke_r	r	n/a
426.369	0.0895	852738	keystroke_e	e	n/a
426.5645	0.105	853129	keystroke_l	l	n/a
426.6985	0.135	853397	keystroke_a	a	n/a
426.9695	0.104	853939	keystroke_t	t	n/a
427.0885	0.165	854177	keystroke_i	i	n/a
427.1635	0.135	854327	keystroke_n	n	n/a
427.2845	0.104	854569	keystroke_g	g	n/a
427.494	0.09	854988	keystroke_Key.enter	Key.enter	n/a
427.5895	5.876	855179	prompt	n/a	city email businesses reed\n
428.274	0.12	856548	keystroke_c	c	n/a
428.379	0.1045	856758	keystroke_i	i	n/a
428.7085	0.195	857417	keystroke_t	t	n/a
428.7985	0.196	857597	keystroke_y	y	n/a
428.9335	0.18	857867	keystroke_Key.space	Key.space	n/a
429.1895	0.119	858379	keystroke_e	e	n/a
429.2935	0.136	858587	keystroke_m	m	n/a
429.4585	0.166	858917	keystroke_a	a	n/a
429.5345	0.254	859069	keystroke_i	i	n/a
429.6845	0.194	859369	keystroke_l	l	n/a
429.8185	0.151	859637	keystroke_Key.space	Key.space	n/a
430.0585	0.256	860117	keystroke_b	b	n/a
430.2385	0.151	860477	keystroke_u	u	n/a
430.524	0.135	861048	keystroke_s	s	n/a
430.66	0.194	861320	keystroke_i	i	n/a
430.794	0.15	861588	keystroke_n	n	n/a
431.049	0.105	862098	keystroke_e	e	n/a
431.274	0.105	862548	keystroke_s	s	n/a
431.439	0.105	862878	keystroke_s	s	n/a
431.634	0.105	863268	keystroke_e	e	n/a
431.874	0.1045	863748	keystroke_s	s	n/a
432.0535	0.105	864107	keystroke_Key.space	Key.space	n/a
432.534	0.105	865068	keystroke_r	r	n/a
432.729	0.075	865458	keystroke_e	e	n/a
432.879	0.105	865758	keystroke_e	e	n/a
433.059	0.1645	866118	keystroke_d	d	n/a
433.3735	0.091	866747	keystroke_Key.enter	Key.enter	n/a
433.4685	7.512	866937	prompt	n/a	mention therefore consolidated save\n
434.0195	0.12	868039	keystroke_m	m	n/a
434.1245	0.135	868249	keystroke_e	e	n/a
434.2745	0.105	868549	keystroke_n	n	n/a
434.4095	0.119	868819	keystroke_t	t	n/a
434.5145	0.165	869029	keystroke_i	i	n/a
434.6345	0.24	869269	keystroke_o	o	n/a
434.7845	0.15	869569	keystroke_n	n	n/a
434.8895	0.105	869779	keystroke_Key.space	Key.space	n/a
435.1895	0.0745	870379	keystroke_t	t	n/a
435.279	0.09	870558	keystroke_h	h	n/a
435.444	0.09	870888	keystroke_e	e	n/a
435.6395	0.075	871279	keystroke_r	r	n/a
435.8345	0.09	871669	keystroke_e	e	n/a
436.0745	0.089	872149	keystroke_f	f	n/a
436.2245	0.105	872449	keystroke_o	o	n/a
436.3445	0.09	872689	keystroke_r	r	n/a
436.5395	0.15	873079	keystroke_e	e	n/a
436.7045	0.105	873409	keystroke_Key.space	Key.space	n/a
437.439	0.1045	874878	keystroke_c	c	n/a
437.5735	0.1205	875147	keystroke_o	o	n/a
437.6335	0.15	875267	keystroke_n	n	n/a
437.7985	0.1205	875597	keystroke_s	s	n/a
437.934	0.105	875868	keystroke_o	o	n/a
438.129	0.0895	876258	keystroke_l	l	n/a
438.2635	0.1205	876527	keystroke_i	i	n/a
438.3985	0.06	876797	keystroke_d	d	n/a
438.5785	0.1205	877157	keystroke_a	a	n/a
438.894	0.09	877788	keystroke_t	t	n/a
439.134	0.075	878268	keystroke_e	e	n/a
439.314	0.1195	878628	keystroke_d	d	n/a
439.4035	0.12	878807	keystroke_Key.space	Key.space	n/a
439.7495	0.045	879499	keystroke_s	s	n/a
440.3795	0.104	880759	keystroke_a	a	n/a
440.5295	0.134	881059	keystroke_v	v	n/a
440.6345	0.134	881269	keystroke_e	e	n/a
440.8735	0.105	881747	keystroke_Key.enter	Key.enter	n/a
440.9835	6.837	881967	prompt	n/a	partnership sectors short romania\n
441.594	0.135	883188	keystroke_p	p	n/a
441.654	0.135	883308	keystroke_a	a	n/a
441.894	0.09	883788	keystroke_r	r	n/a
442.2535	0.09	884507	keystroke_t	t	n/a
442.3285	0.12	884657	keystroke_n	n	n/a
442.5535	0.105	885107	keystroke_e	e	n/a
442.764	0.075	885528	keystroke_r	r	n/a
443.064	0.1495	886128	keystroke_s	s	n/a
443.169	0.1945	886338	keystroke_h	h	n/a
443.2885	0.255	886577	keystroke_i	i	n/a
443.439	0.1645	886878	keystroke_p	p	n/a
443.5445	0.134	887089	keystroke_Key.space	Key.space	n/a
443.6935	0.09	887387	keystroke_s	s	n/a
443.844	0.075	887688	keystroke_e	e	n/a
444.039	0.09	888078	keystroke_c	c	n/a
444.279	0.09	888558	keystroke_t	t	n/a
444.384	0.135	888768	keystroke_o	o	n/a
444.489	0.075	888978	keystroke_r	r	n/a
444.729	0.1195	889458	keystroke_s	s	n/a
444.8635	0.12	889727	keystroke_Key.space	Key.space	n/a
445.719	0.15	891438	keystroke_s	s	n/a
445.884	0.12	891768	keystroke_h	h	n/a
445.959	0.15	891918	keystroke_o	o	n/a
446.064	0.09	892128	keystroke_r	r	n/a
446.229	0.135	892458	keystroke_t	t	n/a
446.334	0.15	892668	keystroke_Key.space	Key.space	n/a
446.649	0.09	893298	keystroke_r	r	n/a
446.769	0.135	893538	keystroke_o	o	n/a
446.949	0.135	893898	keystroke_m	m	n/a
447.085	0.1045	894170	keystroke_a	a	n/a
447.2045	0.149	894409	keystroke_n	n	n/a
447.3995	0.15	894799	keystroke_i	i	n/a
447.5345	0.105	895069	keystroke_a	a	n/a
447.6845	0.135	895369	keystroke_Key.enter	Key.enter	n/a
447.8235	8.727	895647	prompt	n/a	aluminum arab discrete divisions\n
448.539	0.15	897078	keystroke_a	a	n/a
448.9145	0.09	897829	keystroke_l	l	n/a
449.0645	0.1045	898129	keystroke_u	u	n/a
449.274	0.165	898548	keystroke_m	m	n/a
449.424	0.1495	898848	keystroke_i	i	n/a
449.5585	0.18	899117	keystroke_n	n	n/a
449.6935	0.105	899387	keystroke_u	u	n/a
449.9035	0.165	899807	keystroke_m	m	n/a
450.0235	0.105	900047	keystroke_Key.space	Key.space	n/a
450.2485	0.165	900497	keystroke_a	a	n/a
450.5485	0.105	901097	keystroke_r	r	n/a
450.7885	0.1355	901577	keystroke_a	a	n/a
451.5535	0.165	903107	keystroke_b	b	n/a
451.6735	0.105	903347	keystroke_Key.space	Key.space	n/a
451.9135	0.075	903827	keystroke_d	d	n/a
451.9735	0.12	903947	keystroke_i	i	n/a
452.1385	0.09	904277	keystroke_s	s	n/a
452.3185	0.075	904637	keystroke_c	c	n/a
452.529	0.075	905058	keystroke_r	r	n/a
452.664	0.165	905328	keystroke_e	e	n/a
452.844	0.12	905688	keystroke_t	t	n/a
452.964	0.105	905928	keystroke_e	e	n/a
453.084	0.105	906168	keystroke_Key.space	Key.space	n/a
454.149	0.09	908298	keystroke_d	d	n/a
454.9435	0.105	909887	keystroke_i	i	n/a
455.1385	0.15	910277	keystroke_v	v	n/a
455.3035	0.105	910607	keystroke_i	i	n/a
455.5735	0.135	911147	keystroke_s	s	n/a
455.7235	0.15	911447	keystroke_i	i	n/a
455.8585	0.15	911717	keystroke_o	o	n/a
455.9335	0.135	911867	keystroke_n	n	n/a
456.0385	0.12	912077	keystroke_s	s	n/a
456.444	0.105	912888	keystroke_Key.enter	Key.enter	n/a
456.5535	5.4425	913107	prompt	n/a	aspect fruit jeep integrate\n
457.119	0.12	914238	keystroke_a	a	n/a
457.329	0.12	914658	keystroke_s	s	n/a
457.479	0.165	914958	keystroke_p	p	n/a
457.659	0.09	915318	keystroke_e	e	n/a
457.959	0.09	915918	keystroke_c	c	n/a
458.214	0.09	916428	keystroke_t	t	n/a
458.334	0.105	916668	keystroke_Key.space	Key.space	n/a
458.664	0.06	917328	keystroke_f	f	n/a
458.844	0.0895	917688	keystroke_r	r	n/a
458.919	0.1945	917838	keystroke_u	u	n/a
459.0535	0.18	918107	keystroke_i	i	n/a
459.1285	0.136	918257	keystroke_t	t	n/a
459.2785	0.12	918557	keystroke_Key.space	Key.space	n/a
459.6985	0.12	919397	keystroke_j	j	n/a
459.7735	0.075	919547	keystroke_e	e	n/a
459.9085	0.18	919817	keystroke_e	e	n/a
460.0135	0.165	920027	keystroke_p	p	n/a
460.1335	0.12	920267	keystroke_Key.space	Key.space	n/a
460.569	0.195	921138	keystroke_i	i	n/a
460.674	0.165	921348	keystroke_n	n	n/a
460.794	0.09	921588	keystroke_t	t	n/a
460.989	0.135	921978	keystroke_e	e	n/a
461.139	0.12	922278	keystroke_g	g	n/a
461.244	0.09	922488	keystroke_r	r	n/a
461.484	0.09	922968	keystroke_a	a	n/a
461.574	0.105	923148	keystroke_t	t	n/a
461.709	0.12	923418	keystroke_e	e	n/a
461.889	0.105	923778	keystroke_Key.enter	Key.enter	n/a
461.999	7.0765	923998	prompt	n/a	leeds changelog allowed indirect\n
462.669	0.15	925338	keystroke_l	l	n/a
462.744	0.09	925488	keystroke_e	e	n/a
462.894	0.09	925788	keystroke_e	e	n/a
463.134	0.12	926268	keystroke_d	d	n/a
463.329	0.165	926658	keystroke_s	s	n/a
463.539	0.105	927078	keystroke_Key.space	Key.space	n/a
463.899	0.09	927798	keystroke_c	c	n/a
464.004	0.12	928008	keystroke_h	h	n/a
464.124	0.135	928248	keystroke_a	a	n/a
464.229	0.09	928458	keystroke_n	n	n/a
464.409	0.12	928818	keystroke_g	g	n/a
464.514	0.12	929028	keystroke_e	e	n/a
464.664	0.135	929328	keystroke_l	l	n/a
464.874	0.135	929748	keystroke_o	o	n/a
464.934	0.12	929868	keystroke_g	g	n/a
465.159	0.105	930318	keystroke_Key.space	Key.space	n/a
465.414	0.105	930828	keystroke_a	a	n/a
465.504	0.09	931008	keystroke_l	l	n/a
465.654	0.105	931308	keystroke_l	l	n/a
465.849	0.1495	931698	keystroke_o	o	n/a
465.9085	0.075	931817	keystroke_w	w	n/a
466.0735	0.075	932147	keystroke_e	e	n/a
466.6435	0.105	933287	keystroke_d	d	n/a
466.7635	0.105	933527	keystroke_Key.space	Key.space	n/a
467.4085	0.18	934817	keystroke_i	i	n/a
467.5285	0.15	935057	keystroke_n	n	n/a
467.6335	0.135	935267	keystroke_d	d	n/a
467.7835	0.15	935567	keystroke_i	i	n/a
467.9935	0.09	935987	keystroke_r	r	n/a
468.1885	0.075	936377	keystroke_e	e	n/a
468.3985	0.09	936797	keystroke_c	c	n/a
468.6385	0.135	937277	keystroke_t	t	n/a
468.954	0.12	937908	keystroke_Key.enter	Key.enter	n/a
469.078	6.4775	938156	prompt	n/a	watson linked tuesday compaq\n
469.764	0.105	939528	keystroke_w	w	n/a
469.974	0.12	939948	keystroke_a	a	n/a
470.154	0.12	940308	keystroke_t	t	n/a
470.259	0.165	940518	keystroke_s	s	n/a
470.514	0.21	941028	keystroke_o	o	n/a
470.634	0.195	941268	keystroke_n	n	n/a
470.769	0.105	941538	keystroke_Key.space	Key.space	n/a
470.964	0.18	941928	keystroke_l	l	n/a
471.0685	0.1505	942137	keystroke_i	i	n/a
471.189	0.2095	942378	keystroke_n	n	n/a
471.324	0.1795	942648	keystroke_k	k	n/a
471.5635	0.09	943127	keystroke_e	e	n/a
471.7435	0.09	943487	keystroke_d	d	n/a
471.8635	0.105	943727	keystroke_Key.space	Key.space	n/a
472.734	0.105	945468	keystroke_t	t	n/a
472.809	0.135	945618	keystroke_u	u	n/a
472.959	0.105	945918	keystroke_e	e	n/a
473.1685	0.075	946337	keystroke_s	s	n/a
473.3185	0.09	946637	keystroke_d	d	n/a
473.5135	0.195	947027	keystroke_a	a	n/a
473.6485	0.15	947297	keystroke_y	y	n/a
473.7685	0.1205	947537	keystroke_Key.space	Key.space	n/a
474.099	0.075	948198	keystroke_c	c	n/a
474.189	0.1805	948378	keystroke_o	o	n/a
474.2935	0.1805	948587	keystroke_m	m	n/a
474.489	0.135	948978	keystroke_p	p	n/a
474.969	0.09	949938	keystroke_a	a	n/a
475.1485	0.12	950297	keystroke_q	q	n/a
475.4485	0.105	950897	keystroke_Key.enter	Key.enter	n/a
475.5585	9.387	951117	prompt	n/a	location clarity profession remarkable\n
476.4095	0.089	952819	keystroke_l	l	n/a
476.6185	0.12	953237	keystroke_o	o	n/a
476.7235	0.0755	953447	keystroke_c	c	n/a
476.904	0.1045	953808	keystroke_a	a	n/a
477.1585	0.135	954317	keystroke_t	t	n/a
477.2345	0.164	954469	keystroke_i	i	n/a
477.3535	0.181	954707	keystroke_o	o	n/a
477.4735	0.195	954947	keystroke_n	n	n/a
477.5935	0.135	955187	keystroke_Key.space	Key.space	n/a
477.7585	0.105	955517	keystroke_c	c	n/a
477.8935	0.151	955787	keystroke_l	l	n/a
478.1035	0.121	956207	keystroke_a	a	n/a
478.3595	0.1195	956719	keystroke_i	i	n/a
478.599	0.075	957198	keystroke_r	r	n/a
479.0035	0.045	958007	keystroke_Key.backspace	Key.backspace	n/a
479.1085	0.0905	958217	keystroke_Key.backspace	Key.backspace	n/a
479.214	0.09	958428	keystroke_r	r	n/a
479.364	0.09	958728	keystroke_i	i	n/a
479.484	0.1195	958968	keystroke_t	t	n/a
479.7085	0.105	959417	keystroke_y	y	n/a
479.8735	0.09	959747	keystroke_Key.space	Key.space	n/a
480.4435	0.12	960887	keystroke_p	p	n/a
480.5635	0.105	961127	keystroke_r	r	n/a
480.6535	0.135	961307	keystroke_o	o	n/a
480.7895	0.09	961579	keystroke_f	f	n/a
480.9995	0.045	961999	keystroke_e	e	n/a
481.389	0.09	962778	keystroke_s	s	n/a
481.554	0.135	963108	keystroke_s	s	n/a
481.659	0.15	963318	keystroke_i	i	n/a
481.794	0.18	963588	keystroke_o	o	n/a
481.914	0.18	963828	keystroke_n	n	n/a
482.049	0.15	964098	keystroke_Key.space	Key.space	n/a
482.529	0.06	965058	keystroke_r	r	n/a
482.724	0.12	965448	keystroke_e	e	n/a
482.874	0.105	965748	keystroke_m	m	n/a
483.144	0.12	966288	keystroke_a	a	n/a
483.399	0.075	966798	keystroke_r	r	n/a
484.0145	0.105	968029	keystroke_k	k	n/a
484.1345	0.15	968269	keystroke_a	a	n/a
484.2995	0.1795	968599	keystroke_b	b	n/a
484.4195	0.1795	968839	keystroke_l	l	n/a
484.539	0.135	969078	keystroke_e	e	n/a
484.824	0.12	969648	keystroke_Key.enter	Key.enter	n/a
484.9485	6.957	969897	prompt	n/a	kills delhi volvo consider\n
485.6945	0.12	971389	keystroke_k	k	n/a
485.9195	0.089	971839	keystroke_i	i	n/a
486.0995	0.105	972199	keystroke_l	l	n/a
486.2345	0.1495	972469	keystroke_l	l	n/a
486.339	0.165	972678	keystroke_s	s	n/a
486.474	0.12	972948	keystroke_Key.space	Key.space	n/a
487.014	0.06	974028	keystroke_d	d	n/a
487.179	0.12	974358	keystroke_e	e	n/a
487.254	0.135	974508	keystroke_l	l	n/a
487.494	0.165	974988	keystroke_h	h	n/a
487.584	0.1805	975168	keystroke_i	i	n/a
487.7795	0.105	975559	keystroke_Key.space	Key.space	n/a
488.6495	0.134	977299	keystroke_v	v	n/a
488.7545	0.089	977509	keystroke_o	o	n/a
488.919	0.105	977838	keystroke_l	l	n/a
489.069	0.09	978138	keystroke_v	v	n/a
489.309	0.075	978618	keystroke_o	o	n/a
489.489	0.105	978978	keystroke_Key.space	Key.space	n/a
490.224	0.075	980448	keystroke_c	c	n/a
490.284	0.1805	980568	keystroke_o	o	n/a
490.419	0.1495	980838	keystroke_n	n	n/a
490.5985	0.12	981197	keystroke_s	s	n/a
490.6745	0.134	981349	keystroke_i	i	n/a
490.8235	0.061	981647	keystroke_d	d	n/a
490.9885	0.075	981977	keystroke_e	e	n/a
491.1385	0.15	982277	keystroke_r	r	n/a
491.7835	0.1205	983567	keystroke_Key.enter	Key.enter	n/a
491.9105	5.935	983821	prompt	n/a	maria indices awful heart\n
492.5195	0.134	985039	keystroke_m	m	n/a
492.5795	0.12	985159	keystroke_a	a	n/a
492.8345	0.12	985669	keystroke_r	r	n/a
492.9695	0.104	985939	keystroke_i	i	n/a
493.1195	0.1495	986239	keystroke_a	a	n/a
493.254	0.105	986508	keystroke_Key.space	Key.space	n/a
493.554	0.2245	987108	keystroke_i	i	n/a
493.7035	0.166	987407	keystroke_n	n	n/a
493.959	0.105	987918	keystroke_d	d	n/a
494.079	0.12	988158	keystroke_i	i	n/a
494.304	0.09	988608	keystroke_c	c	n/a
494.499	0.09	988998	keystroke_e	e	n/a
494.739	0.15	989478	keystroke_s	s	n/a
494.859	0.135	989718	keystroke_Key.space	Key.space	n/a
495.429	0.09	990858	keystroke_a	a	n/a
495.624	0.075	991248	keystroke_w	w	n/a
495.954	0.075	991908	keystroke_f	f	n/a
496.089	0.105	992178	keystroke_u	u	n/a
496.2845	0.2095	992569	keystroke_l	l	n/a
496.449	0.105	992898	keystroke_Key.space	Key.space	n/a
496.9745	0.12	993949	keystroke_h	h	n/a
497.0495	0.105	994099	keystroke_e	e	n/a
497.244	0.105	994488	keystroke_a	a	n/a
497.469	0.06	994938	keystroke_r	r	n/a
497.604	0.165	995208	keystroke_t	t	n/a
497.754	0.09	995508	keystroke_Key.enter	Key.enter	n/a
497.8485	7.7075	995697	prompt	n/a	away grove sydney basement\n
498.5635	0.105	997127	keystroke_a	a	n/a
498.7585	0.09	997517	keystroke_w	w	n/a
498.969	0.195	997938	keystroke_a	a	n/a
499.059	0.165	998118	keystroke_y	y	n/a
499.209	0.09	998418	keystroke_Key.space	Key.space	n/a
499.749	0.075	999498	keystroke_f	f	n/a
500.064	0.09	1000128	keystroke_Key.backspace	Key.backspace	n/a
500.139	0.075	1000278	keystroke_g	g	n/a
500.304	0.09	1000608	keystroke_r	r	n/a
500.409	0.105	1000818	keystroke_o	o	n/a
500.529	0.075	1001058	keystroke_v	v	n/a
500.739	0.135	1001478	keystroke_e	e	n/a
500.859	0.12	1001718	keystroke_Key.space	Key.space	n/a
501.7895	0.179	1003579	keystroke_s	s	n/a
501.9085	0.09	1003817	keystroke_y	y	n/a
502.1335	0.1055	1004267	keystroke_d	d	n/a
502.284	0.12	1004568	keystroke_n	n	n/a
502.404	0.1045	1004808	keystroke_e	e	n/a
502.6285	0.09	1005257	keystroke_y	y	n/a
503.034	0.12	1006068	keystroke_Key.space	Key.space	n/a
503.709	0.12	1007418	keystroke_b	b	n/a
503.814	0.12	1007628	keystroke_a	a	n/a
504.0995	0.0895	1008199	keystroke_s	s	n/a
504.3395	0.06	1008679	keystroke_e	e	n/a
504.414	0.135	1008828	keystroke_m	m	n/a
504.924	0.105	1009848	keystroke_e	e	n/a
505.014	0.1055	1010028	keystroke_n	n	n/a
505.1495	0.15	1010299	keystroke_t	t	n/a
505.4495	0.105	1010899	keystroke_Key.enter	Key.enter	n/a
505.5595	6.7615	1011119	prompt	n/a	article schemes dead brother\n
506.199	0.12	1012398	keystroke_a	a	n/a
506.439	0.06	1012878	keystroke_r	r	n/a
506.574	0.09	1013148	keystroke_t	t	n/a
506.679	0.1205	1013358	keystroke_i	i	n/a
506.8145	0.075	1013629	keystroke_c	c	n/a
506.9645	0.12	1013929	keystroke_l	l	n/a
507.129	0.1205	1014258	keystroke_a	a	n/a
507.2635	0.105	1014527	keystroke_Key.space	Key.space	n/a
507.6985	0.045	1015397	keystroke_Key.backspace	Key.backspace	n/a
507.9095	0.104	1015819	keystroke_e	e	n/a
508.0445	0.074	1016089	keystroke_Key.backspace	Key.backspace	n/a
508.194	0.09	1016388	keystroke_Key.backspace	Key.backspace	n/a
508.404	0.0745	1016808	keystroke_e	e	n/a
508.4935	0.12	1016987	keystroke_Key.space	Key.space	n/a
508.8845	0.075	1017769	keystroke_s	s	n/a
509.124	0.075	1018248	keystroke_c	c	n/a
509.289	0.12	1018578	keystroke_h	h	n/a
509.469	0.105	1018938	keystroke_e	e	n/a
509.604	0.105	1019208	keystroke_m	m	n/a
509.694	0.105	1019388	keystroke_e	e	n/a
509.904	0.165	1019808	keystroke_s	s	n/a
510.054	0.105	1020108	keystroke_Key.space	Key.space	n/a
510.384	0.0755	1020768	keystroke_d	d	n/a
510.5345	0.09	1021069	keystroke_e	e	n/a
510.7295	0.105	1021459	keystroke_a	a	n/a
510.909	0.105	1021818	keystroke_d	d	n/a
511.044	0.165	1022088	keystroke_Key.space	Key.space	n/a
511.209	0.15	1022418	keystroke_b	b	n/a
511.329	0.105	1022658	keystroke_r	r	n/a
511.449	0.15	1022898	keystroke_o	o	n/a
511.584	0.1055	1023168	keystroke_t	t	n/a
511.704	0.105	1023408	keystroke_h	h	n/a
511.824	0.105	1023648	keystroke_e	e	n/a
512.004	0.12	1024008	keystroke_r	r	n/a
512.184	0.1355	1024368	keystroke_Key.enter	Key.enter	n/a
512.324	12.7465	1024648	prompt	n/a	make louisville collector bush\n
512.9645	0.135	1025929	keystroke_m	m	n/a
513.1145	0.105	1026229	keystroke_a	a	n/a
513.2345	0.09	1026469	keystroke_k	k	n/a
513.3845	0.104	1026769	keystroke_e	e	n/a
513.5185	0.105	1027037	keystroke_Key.space	Key.space	n/a
513.8045	0.089	1027609	keystroke_l	l	n/a
513.9845	0.21	1027969	keystroke_o	o	n/a
514.1945	0.165	1028389	keystroke_i	i	n/a
514.3135	0.1205	1028627	keystroke_u	u	n/a
515.004	0.06	1030008	keystroke_Key.backspace	Key.backspace	n/a
515.124	0.09	1030248	keystroke_Key.backspace	Key.backspace	n/a
515.38	0.134	1030760	keystroke_u	u	n/a
515.484	0.135	1030968	keystroke_i	i	n/a
515.634	0.1055	1031268	keystroke_s	s	n/a
516.489	0.06	1032978	keystroke_c	c	n/a
517.029	0.09	1034058	keystroke_Key.backspace	Key.backspace	n/a
517.194	0.09	1034388	keystroke_v	v	n/a
517.314	0.105	1034628	keystroke_u	u	n/a
517.524	0.09	1035048	keystroke_l	l	n/a
517.659	0.1355	1035318	keystroke_l	l	n/a
517.7795	0.12	1035559	keystroke_e	e	n/a
517.8845	0.12	1035769	keystroke_Key.space	Key.space	n/a
518.0645	0.105	1036129	keystroke_c	c	n/a
518.1845	0.09	1036369	keystroke_o	o	n/a
518.604	0.06	1037208	keystroke_Key.backspace	Key.backspace	n/a
518.754	0.0455	1037508	keystroke_Key.backspace	Key.backspace	n/a
518.8745	0.09	1037749	keystroke_Key.backspace	Key.backspace	n/a
519.0545	0.0445	1038109	keystroke_Key.backspace	Key.backspace	n/a
519.204	0.06	1038408	keystroke_Key.backspace	Key.backspace	n/a
519.3545	0.0595	1038709	keystroke_Key.backspace	Key.backspace	n/a
519.579	0.075	1039158	keystroke_Key.backspace	Key.backspace	n/a
520.1945	0.09	1040389	keystroke_i	i	n/a
520.3895	0.0595	1040779	keystroke_l	l	n/a
520.539	0.121	1041078	keystroke_l	l	n/a
520.644	0.105	1041288	keystroke_e	e	n/a
520.734	0.135	1041468	keystroke_Key.space	Key.space	n/a
520.929	0.09	1041858	keystroke_c	c	n/a
521.034	0.09	1042068	keystroke_o	o	n/a
521.3345	0.09	1042669	keystroke_l	l	n/a
521.4995	0.105	1042999	keystroke_l	l	n/a
521.6495	0.105	1043299	keystroke_e	e	n/a
521.9935	0.091	1043987	keystroke_c	c	n/a
522.2335	0.106	1044467	keystroke_t	t	n/a
522.3235	0.105	1044647	keystroke_o	o	n/a
522.4135	0.1505	1044827	keystroke_r	r	n/a
522.5485	0.135	1045097	keystroke_Key.space	Key.space	n/a
523.3445	0.15	1046689	keystroke_b	b	n/a
523.4495	0.15	1046899	keystroke_u	u	n/a
523.5995	0.165	1047199	keystroke_s	s	n/a
523.8395	0.105	1047679	keystroke_h	h	n/a
524.9495	0.12	1049899	keystroke_Key.enter	Key.enter	n/a
525.074	8.877	1050148	prompt	n/a	herald radius comments technologies\n
525.939	0.09	1051878	keystroke_h	h	n/a
526.014	0.09	1052028	keystroke_e	e	n/a
526.194	0.09	1052388	keystroke_r	r	n/a
526.404	0.1505	1052808	keystroke_a	a	n/a
526.4945	0.18	1052989	keystroke_l	l	n/a
526.6445	0.15	1053289	keystroke_k	k	n/a
527.1545	0.105	1054309	keystroke_Key.backspace	Key.backspace	n/a
527.2145	0.105	1054429	keystroke_d	d	n/a
527.3345	0.135	1054669	keystroke_Key.space	Key.space	n/a
527.9945	0.09	1055989	keystroke_r	r	n/a
528.2045	0.105	1056409	keystroke_a	a	n/a
528.3995	0.1195	1056799	keystroke_d	d	n/a
528.639	0.1655	1057278	keystroke_i	i	n/a
528.7595	0.135	1057519	keystroke_u	u	n/a
528.9545	0.1645	1057909	keystroke_s	s	n/a
529.104	0.12	1058208	keystroke_Key.space	Key.space	n/a
529.599	0.075	1059198	keystroke_c	c	n/a
529.689	0.15	1059378	keystroke_o	o	n/a
529.929	0.1055	1059858	keystroke_m	m	n/a
530.0945	0.12	1060189	keystroke_m	m	n/a
530.2895	0.09	1060579	keystroke_e	e	n/a
530.4245	0.1205	1060849	keystroke_n	n	n/a
530.56	0.06	1061120	keystroke_t	t	n/a
530.8295	0.105	1061659	keystroke_s	s	n/a
530.9195	0.135	1061839	keystroke_Key.space	Key.space	n/a
531.4595	0.075	1062919	keystroke_t	t	n/a
531.6695	0.06	1063339	keystroke_e	e	n/a
531.8795	0.105	1063759	keystroke_c	c	n/a
531.9545	0.09	1063909	keystroke_h	h	n/a
532.1345	0.135	1064269	keystroke_n	n	n/a
532.2845	0.15	1064569	keystroke_o	o	n/a
532.4945	0.0895	1064989	keystroke_l	l	n/a
532.644	0.105	1065288	keystroke_o	o	n/a
533.184	0.076	1066368	keystroke_g	g	n/a
533.274	0.12	1066548	keystroke_i	i	n/a
533.425	0.135	1066850	keystroke_e	e	n/a
533.65	0.105	1067300	keystroke_s	s	n/a
