onset	duration	sample	value	key	prompt_text
1.414	6.9685	2828	prompt	n/a	the quick brown fox jumps over a lazy dog\n
2.734	0.1435	5468	keystroke_t	t	n/a
2.7735	0.1605	5547	keystroke_e	e	n/a
2.7975	0.1125	5595	keystroke_h	h	n/a
2.87	0.096	5740	keystroke_Key.space	Key.space	n/a
2.942	0.128	5884	keystroke_q	q	n/a
3.062	0.112	6124	keystroke_u	u	n/a
3.142	0.048	6284	keystroke_i	i	n/a
3.318	0.152	6636	keystroke_Key.backspace	Key.backspace	n/a
3.51	0.064	7020	keystroke_Key.backspace	Key.backspace	n/a
3.63	0.056	7260	keystroke_Key.backspace	Key.backspace	n/a
3.7095	0.064	7419	keystroke_Key.backspace	Key.backspace	n/a
3.8455	0.024	7691	keystroke_Key.backspace	Key.backspace	n/a
3.9335	0.072	7867	keystroke_Key.backspace	Key.backspace	n/a
4.2375	0.104	8475	keystroke_h	h	n/a
4.2935	0.104	8587	keystroke_e	e	n/a
4.3575	0.088	8715	keystroke_Key.space	Key.space	n/a
4.4535	0.104	8907	keystroke_q	q	n/a
4.5495	0.096	9099	keystroke_u	u	n/a
4.6055	0.056	9211	keystroke_i	i	n/a
4.6625	0.119	9325	keystroke_c	c	n/a
4.7735	0.112	9547	keystroke_k	k	n/a
4.8375	0.096	9675	keystroke_Key.space	Key.space	n/a
4.9735	0.048	9947	keystroke_b	b	n/a
5.1255	0.089	10251	keystroke_r	r	n/a
5.2215	0.064	10443	keystroke_o	o	n/a
5.3015	0.136	10603	keystroke_w	w	n/a
5.3975	0.088	10795	keystroke_n	n	n/a
5.4455	0.104	10891	keystroke_Key.space	Key.space	n/a
5.6135	0.056	11227	keystroke_j	j	n/a
5.8465	0.104	11693	keystroke_o	o	n/a
5.9655	0.145	11931	keystroke_x	x	n/a
6.0615	0.088	12123	keystroke_Key.space	Key.space	n/a
6.1655	0.056	12331	keystroke_j	j	n/a
6.3015	0.057	12603	keystroke_u	u	n/a
6.4665	0.144	12933	keystroke_m	m	n/a
6.5545	0.104	13109	keystroke_p	p	n/a
6.6025	0.12	13205	keystroke_s	s	n/a
6.6505	0.088	13301	keystroke_Key.space	Key.space	n/a
6.7625	0.145	13525	keystroke_o	o	n/a
6.8585	0.057	13717	keystroke_v	v	n/a
6.9715	0.152	13943	keystroke_e	e	n/a
7.0605	0.103	14121	keystroke_r	r	n/a
7.1315	0.048	14263	keystroke_Key.space	Key.space	n/a
7.2115	0.104	14423	keystroke_a	a	n/a
7.3235	0.04	14647	keystroke_Key.space	Key.space	n/a
7.4355	0.104	14871	keystroke_l	l	n/a
7.5395	0.064	15079	keystroke_a	a	n/a
7.6915	0.096	15383	keystroke_z	z	n/a
7.7795	0.112	15559	keystroke_y	y	n/a
7.8195	0.064	15639	keystroke_Key.space	Key.space	n/a
7.9395	0.0805	15879	keystroke_d	d	n/a
8.044	0.0955	16088	keystroke_o	o	n/a
8.1715	0.0725	16343	keystroke_g	g	n/a
8.2915	0.0885	16583	keystroke_Key.enter	Key.enter	n/a
8.3895	4.2905	16779	prompt	n/a	email transparent bold focused\n
8.941	0.0885	17882	keystroke_e	e	n/a
9.0375	0.064	18075	keystroke_m	m	n/a
9.1175	0.096	18235	keystroke_a	a	n/a
9.1975	0.064	18395	keystroke_i	i	n/a
9.3015	0.128	18603	keystroke_l	l	n/a
9.3735	0.072	18747	keystroke_Key.space	Key.space	n/a
9.5175	0.056	19035	keystroke_t	t	n/a
9.6615	0.08	19323	keystroke_r	r	n/a
9.6855	0.08	19371	keystroke_a	a	n/a
9.7815	0.08	19563	keystroke_n	n	n/a
10.1895	0.072	20379	keystroke_s	s	n/a
10.3815	0.12	20763	keystroke_p	p	n/a
10.4695	0.088	20939	keystroke_a	a	n/a
10.6135	0.088	21227	keystroke_r	r	n/a
10.6695	0.104	21339	keystroke_e	e	n/a
10.7655	0.104	21531	keystroke_n	n	n/a
10.8295	0.072	21659	keystroke_t	t	n/a
10.8775	0.0635	21755	keystroke_Key.space	Key.space	n/a
11.006	0.071	22012	keystroke_h	h	n/a
11.2935	0.056	22587	keystroke_Key.backspace	Key.backspace	n/a
11.3495	0.088	22699	keystroke_b	b	n/a
11.486	0.072	22972	keystroke_o	o	n/a
11.63	0.095	23260	keystroke_l	l	n/a
11.661	0.0965	23322	keystroke_d	d	n/a
11.7095	0.064	23419	keystroke_Key.space	Key.space	n/a
11.8215	0.0875	23643	keystroke_f	f	n/a
11.933	0.088	23866	keystroke_o	o	n/a
12.054	0.087	24108	keystroke_c	c	n/a
12.158	0.104	24316	keystroke_u	u	n/a
12.229	0.0965	24458	keystroke_s	s	n/a
12.3415	0.048	24683	keystroke_e	e	n/a
12.4775	0.08	24955	keystroke_d	d	n/a
12.5735	0.104	25147	keystroke_Key.enter	Key.enter	n/a
12.684	7.795	25368	prompt	n/a	careful suggestions snapshot achievements\n
13.3415	0.12	26683	keystroke_c	c	n/a
13.8615	0.096	27723	keystroke_a	a	n/a
13.9655	0.08	27931	keystroke_r	r	n/a
14.0375	0.072	28075	keystroke_e	e	n/a
14.1735	0.088	28347	keystroke_f	f	n/a
14.2935	0.064	28587	keystroke_u	u	n/a
14.4455	0.128	28891	keystroke_l	l	n/a
14.5085	0.097	29017	keystroke_Key.space	Key.space	n/a
14.6695	0.08	29339	keystroke_s	s	n/a
14.7895	0.08	29579	keystroke_u	u	n/a
14.8935	0.0555	29787	keystroke_g	g	n/a
15.141	0.048	30282	keystroke_e	e	n/a
15.405	0.0645	30810	keystroke_Key.backspace	Key.backspace	n/a
15.4375	0.064	30875	keystroke_g	g	n/a
15.5495	0.12	31099	keystroke_e	e	n/a
15.6455	0.104	31291	keystroke_s	s	n/a
15.7255	0.096	31451	keystroke_t	t	n/a
15.8615	0.128	31723	keystroke_i	i	n/a
15.9335	0.12	31867	keystroke_o	o	n/a
16.0055	0.072	32011	keystroke_n	n	n/a
16.0375	0.08	32075	keystroke_s	s	n/a
16.0935	0.064	32187	keystroke_Key.space	Key.space	n/a
16.2455	0.08	32491	keystroke_s	s	n/a
16.3175	0.104	32635	keystroke_n	n	n/a
16.4455	0.0955	32891	keystroke_a	a	n/a
16.533	0.088	33066	keystroke_p	p	n/a
16.622	0.088	33244	keystroke_c	c	n/a
16.7485	0.153	33497	keystroke_h	h	n/a
16.8215	0.0875	33643	keystroke_a	a	n/a
16.9165	0.096	33833	keystroke_t	t	n/a
16.9815	0.0955	33963	keystroke_Key.space	Key.space	n/a
17.357	0.048	34714	keystroke_Key.backspace	Key.backspace	n/a
17.4525	0.064	34905	keystroke_Key.backspace	Key.backspace	n/a
17.5565	0.056	35113	keystroke_Key.backspace	Key.backspace	n/a
17.6695	0.079	35339	keystroke_Key.backspace	Key.backspace	n/a
17.8365	0.072	35673	keystroke_Key.backspace	Key.backspace	n/a
18.046	0.088	36092	keystroke_s	s	n/a
18.15	0.176	36300	keystroke_h	h	n/a
18.23	0.128	36460	keystroke_o	o	n/a
18.326	0.096	36652	keystroke_t	t	n/a
18.389	0.0715	36778	keystroke_Key.space	Key.space	n/a
18.5495	0.055	37099	keystroke_s	s	n/a
18.7885	0.064	37577	keystroke_Key.backspace	Key.backspace	n/a
18.8455	0.096	37691	keystroke_a	a	n/a
18.9245	0.089	37849	keystroke_c	c	n/a
18.9975	0.112	37995	keystroke_h	h	n/a
19.0375	0.136	38075	keystroke_i	i	n/a
19.237	0.04	38474	keystroke_v	v	n/a
19.5655	0.072	39131	keystroke_Key.backspace	Key.backspace	n/a
19.5975	0.072	39195	keystroke_e	e	n/a
19.7095	0.096	39419	keystroke_v	v	n/a
19.7975	0.0875	39595	keystroke_e	e	n/a
19.917	0.0965	39834	keystroke_m	m	n/a
19.981	0.1125	39962	keystroke_e	e	n/a
20.1175	0.096	40235	keystroke_n	n	n/a
20.1655	0.12	40331	keystroke_t	t	n/a
20.2535	0.088	40507	keystroke_s	s	n/a
20.3895	0.088	40779	keystroke_Key.enter	Key.enter	n/a
20.4815	3.9015	40963	prompt	n/a	tuesday romania laid delicious\n
21.061	0.0725	42122	keystroke_t	t	n/a
21.2695	0.0955	42539	keystroke_u	u	n/a
21.333	0.081	42666	keystroke_e	e	n/a
21.405	0.08	42810	keystroke_s	s	n/a
21.541	0.12	43082	keystroke_d	d	n/a
21.605	0.096	43210	keystroke_a	a	n/a
21.749	0.096	43498	keystroke_y	y	n/a
21.813	0.088	43626	keystroke_Key.space	Key.space	n/a
22.134	0.087	44268	keystroke_r	r	n/a
22.205	0.128	44410	keystroke_o	o	n/a
22.293	0.088	44586	keystroke_m	m	n/a
22.389	0.073	44778	keystroke_a	a	n/a
22.462	0.1515	44924	keystroke_n	n	n/a
22.533	0.1525	45066	keystroke_i	i	n/a
22.6695	0.104	45339	keystroke_a	a	n/a
22.7335	0.088	45467	keystroke_Key.space	Key.space	n/a
22.9015	0.0875	45803	keystroke_l	l	n/a
22.957	0.081	45914	keystroke_a	a	n/a
23.077	0.121	46154	keystroke_i	i	n/a
23.149	0.096	46298	keystroke_d	d	n/a
23.205	0.097	46410	keystroke_Key.space	Key.space	n/a
23.397	0.088	46794	keystroke_d	d	n/a
23.5655	0.0795	47131	keystroke_e	e	n/a
23.6375	0.0645	47275	keystroke_l	l	n/a
23.789	0.0635	47578	keystroke_i	i	n/a
23.8685	0.072	47737	keystroke_c	c	n/a
23.942	0.0955	47884	keystroke_i	i	n/a
24.0125	0.0895	48025	keystroke_o	o	n/a
24.069	0.104	48138	keystroke_u	u	n/a
24.197	0.08	48394	keystroke_s	s	n/a
24.301	0.08	48602	keystroke_Key.enter	Key.enter	n/a
24.386	4.093	48772	prompt	n/a	briefing scripts purchase gallery\n
24.965	0.056	49930	keystroke_b	b	n/a
25.142	0.071	50284	keystroke_r	r	n/a
25.253	0.104	50506	keystroke_i	i	n/a
25.317	0.072	50634	keystroke_e	e	n/a
25.453	0.0885	50906	keystroke_f	f	n/a
25.525	0.0565	51050	keystroke_i	i	n/a
25.6135	0.119	51227	keystroke_n	n	n/a
25.67	0.079	51340	keystroke_g	g	n/a
25.709	0.0795	51418	keystroke_Key.space	Key.space	n/a
25.8525	0.065	51705	keystroke_s	s	n/a
25.949	0.072	51898	keystroke_c	c	n/a
26.1335	0.0795	52267	keystroke_r	r	n/a
26.2055	0.112	52411	keystroke_i	i	n/a
26.2605	0.129	52521	keystroke_p	p	n/a
26.3735	0.144	52747	keystroke_t	t	n/a
26.4295	0.12	52859	keystroke_s	s	n/a
26.5175	0.08	53035	keystroke_Key.space	Key.space	n/a
26.8615	0.08	53723	keystroke_p	p	n/a
26.9975	0.112	53995	keystroke_u	u	n/a
27.0455	0.064	54091	keystroke_r	r	n/a
27.2375	0.104	54475	keystroke_c	c	n/a
27.3255	0.168	54651	keystroke_h	h	n/a
27.3735	0.16	54747	keystroke_a	a	n/a
27.4455	0.112	54891	keystroke_s	s	n/a
27.5255	0.088	55051	keystroke_e	e	n/a
27.5655	0.072	55131	keystroke_Key.space	Key.space	n/a
27.7095	0.08	55419	keystroke_g	g	n/a
27.7975	0.048	55595	keystroke_a	a	n/a
27.8535	0.048	55707	keystroke_l	l	n/a
27.9735	0.072	55947	keystroke_l	l	n/a
28.0455	0.12	56091	keystroke_e	e	n/a
28.1175	0.08	56235	keystroke_r	r	n/a
28.2215	0.064	56443	keystroke_y	y	n/a
28.4055	0.072	56811	keystroke_Key.enter	Key.enter	n/a
28.482	4.39	56964	prompt	n/a	holdem republicans muscle scanner\n
29.0615	0.087	58123	keystroke_h	h	n/a
29.1245	0.048	58249	keystroke_o	o	n/a
29.2845	0.088	58569	keystroke_l	l	n/a
29.3495	0.024	58699	keystroke_d	d	n/a
29.4775	0.112	58955	keystroke_e	e	n/a
29.5575	0.119	59115	keystroke_m	m	n/a
29.6365	0.072	59273	keystroke_Key.space	Key.space	n/a
29.7175	0.111	59435	keystroke_r	r	n/a
29.7725	0.104	59545	keystroke_e	e	n/a
29.8695	0.063	59739	keystroke_p	p	n/a
30.0375	0.055	60075	keystroke_l	l	n/a
30.3415	0.064	60683	keystroke_Key.backspace	Key.backspace	n/a
30.5015	0.088	61003	keystroke_u	u	n/a
30.6295	0.064	61259	keystroke_b	b	n/a
30.7015	0.072	61403	keystroke_l	l	n/a
30.8215	0.104	61643	keystroke_i	i	n/a
30.9015	0.103	61803	keystroke_c	c	n/a
30.9735	0.096	61947	keystroke_a	a	n/a
31.0775	0.112	62155	keystroke_n	n	n/a
31.1335	0.096	62267	keystroke_s	s	n/a
31.1975	0.072	62395	keystroke_Key.space	Key.space	n/a
31.3255	0.079	62651	keystroke_m	m	n/a
31.5095	0.112	63019	keystroke_u	u	n/a
31.6125	0.089	63225	keystroke_s	s	n/a
31.7095	0.104	63419	keystroke_c	c	n/a
31.7975	0.151	63595	keystroke_l	l	n/a
31.8935	0.08	63787	keystroke_e	e	n/a
31.9415	0.096	63883	keystroke_Key.space	Key.space	n/a
32.0775	0.064	64155	keystroke_s	s	n/a
32.1735	0.112	64347	keystroke_c	c	n/a
32.2855	0.072	64571	keystroke_a	a	n/a
32.3895	0.048	64779	keystroke_n	n	n/a
32.4935	0.095	64987	keystroke_n	n	n/a
32.5815	0.112	65163	keystroke_e	e	n/a
32.6615	0.08	65323	keystroke_r	r	n/a
32.7965	0.073	65593	keystroke_Key.enter	Key.enter	n/a
32.88	6.5105	65760	prompt	n/a	recently curriculum advertisers waiting\n
33.421	0.088	66842	keystroke_r	r	n/a
33.493	0.056	66986	keystroke_e	e	n/a
33.637	0.0645	67274	keystroke_c	c	n/a
33.7095	0.072	67419	keystroke_e	e	n/a
33.7885	0.081	67577	keystroke_n	n	n/a
33.8765	0.073	67753	keystroke_t	t	n/a
33.9895	0.047	67979	keystroke_l	l	n/a
34.1175	0.104	68235	keystroke_y	y	n/a
34.1965	0.072	68393	keystroke_Key.space	Key.space	n/a
34.3335	0.087	68667	keystroke_c	c	n/a
34.4685	0.073	68937	keystroke_u	u	n/a
34.5975	0.048	69195	keystroke_r	r	n/a
34.7095	0.071	69419	keystroke_r	r	n/a
34.8055	0.08	69611	keystroke_i	i	n/a
34.9175	0.088	69835	keystroke_c	c	n/a
35.0365	0.0645	70073	keystroke_u	u	n/a
35.165	0.08	70330	keystroke_l	l	n/a
35.285	0.056	70570	keystroke_u	u	n/a
35.461	0.128	70922	keystroke_m	m	n/a
35.541	0.112	71082	keystroke_Key.space	Key.space	n/a
35.645	0.064	71290	keystroke_a	a	n/a
35.749	0.032	71498	keystroke_d	d	n/a
35.885	0.08	71770	keystroke_v	v	n/a
36.029	0.136	72058	keystroke_e	e	n/a
36.149	0.104	72298	keystroke_r	r	n/a
36.341	0.08	72682	keystroke_t	t	n/a
36.5165	0.072	73033	keystroke_i	i	n/a
36.5725	0.136	73145	keystroke_s	s	n/a
36.6765	0.12	73353	keystroke_e	e	n/a
36.7575	0.175	73515	keystroke_r	r	n/a
36.8765	0.064	73753	keystroke_s	s	n/a
36.9175	0.095	73835	keystroke_Key.space	Key.space	n/a
37.0695	0.056	74139	keystroke_w	w	n/a
37.5575	0.08	75115	keystroke_i	i	n/a
37.7015	0.064	75403	keystroke_t	t	n/a
37.9415	0.056	75883	keystroke_Key.backspace	Key.backspace	n/a
38.0295	0.088	76059	keystroke_Key.backspace	Key.backspace	n/a
38.2455	0.032	76491	keystroke_Key.backspace	Key.backspace	n/a
38.6295	0.088	77259	keystroke_w	w	n/a
38.7095	0.088	77419	keystroke_a	a	n/a
38.8615	0.0635	77723	keystroke_i	i	n/a
38.957	0.064	77914	keystroke_t	t	n/a
39.014	0.047	78028	keystroke_i	i	n/a
39.077	0.088	78154	keystroke_n	n	n/a
39.141	0.064	78282	keystroke_g	g	n/a
39.317	0.072	78634	keystroke_Key.enter	Key.enter	n/a
39.393	6.286	78786	prompt	n/a	tariff cultures currencies couples\n
40.077	0.072	80154	keystroke_t	t	n/a
40.261	0.088	80522	keystroke_a	a	n/a
40.573	0.064	81146	keystroke_r	r	n/a
40.789	0.065	81578	keystroke_i	i	n/a
40.893	0.04	81786	keystroke_f	f	n/a
40.997	0.088	81994	keystroke_f	f	n/a
41.213	0.088	82426	keystroke_c	c	n/a
41.493	0.0795	82986	keystroke_Key.backspace	Key.backspace	n/a
41.5805	0.08	83161	keystroke_Key.space	Key.space	n/a
41.6695	0.095	83339	keystroke_c	c	n/a
41.7565	0.064	83513	keystroke_u	u	n/a
41.8765	0.104	83753	keystroke_l	l	n/a
41.9725	0.072	83945	keystroke_t	t	n/a
42.0765	0.128	84153	keystroke_u	u	n/a
42.1405	0.137	84281	keystroke_r	r	n/a
42.2215	0.087	84443	keystroke_e	e	n/a
42.2365	0.128	84473	keystroke_s	s	n/a
42.3095	0.079	84619	keystroke_Key.space	Key.space	n/a
42.7725	0.088	85545	keystroke_c	c	n/a
42.9165	0.064	85833	keystroke_u	u	n/a
43.0045	0.04	86009	keystroke_r	r	n/a
43.1245	0.08	86249	keystroke_r	r	n/a
43.1885	0.0885	86377	keystroke_e	e	n/a
43.285	0.088	86570	keystroke_n	n	n/a
43.365	0.104	86730	keystroke_c	c	n/a
43.485	0.144	86970	keystroke_i	i	n/a
43.573	0.104	87146	keystroke_e	e	n/a
43.637	0.08	87274	keystroke_Key.space	Key.space	n/a
43.805	0.024	87610	keystroke_c	c	n/a
44.037	0.048	88074	keystroke_Key.backspace	Key.backspace	n/a
44.133	0.072	88266	keystroke_Key.backspace	Key.backspace	n/a
44.213	0.104	88426	keystroke_s	s	n/a
44.269	0.088	88538	keystroke_Key.space	Key.space	n/a
44.374	0.111	88748	keystroke_c	c	n/a
44.461	0.112	88922	keystroke_o	o	n/a
44.549	0.0885	89098	keystroke_u	u	n/a
45.0615	0.096	90123	keystroke_p	p	n/a
45.253	0.104	90506	keystroke_l	l	n/a
45.349	0.12	90698	keystroke_e	e	n/a
45.43	0.095	90860	keystroke_s	s	n/a
45.597	0.08	91194	keystroke_Key.enter	Key.enter	n/a
45.6815	4.9975	91363	prompt	n/a	little goto screenshots received\n
46.3005	0.04	92601	keystroke_l	l	n/a
46.4125	0.08	92825	keystroke_i	i	n/a
46.5405	0.056	93081	keystroke_t	t	n/a
46.6605	0.072	93321	keystroke_t	t	n/a
46.7565	0.112	93513	keystroke_l	l	n/a
46.8205	0.1125	93641	keystroke_e	e	n/a
46.8845	0.0805	93769	keystroke_Key.space	Key.space	n/a
47.149	0.088	94298	keystroke_g	g	n/a
47.229	0.096	94458	keystroke_o	o	n/a
47.365	0.096	94730	keystroke_t	t	n/a
47.453	0.104	94906	keystroke_o	o	n/a
47.549	0.12	95098	keystroke_Key.space	Key.space	n/a
47.709	0.08	95418	keystroke_s	s	n/a
47.821	0.064	95642	keystroke_c	c	n/a
48.013	0.056	96026	keystroke_r	r	n/a
48.141	0.064	96282	keystroke_e	e	n/a
48.277	0.072	96554	keystroke_e	e	n/a
48.509	0.104	97018	keystroke_n	n	n/a
49.0365	0.08	98073	keystroke_s	s	n/a
49.269	0.12	98538	keystroke_h	h	n/a
49.357	0.12	98714	keystroke_o	o	n/a
49.445	0.144	98890	keystroke_t	t	n/a
49.517	0.112	99034	keystroke_s	s	n/a
49.597	0.056	99194	keystroke_Key.space	Key.space	n/a
49.725	0.088	99450	keystroke_r	r	n/a
49.789	0.064	99578	keystroke_e	e	n/a
49.933	0.08	99866	keystroke_c	c	n/a
50.021	0.072	100042	keystroke_e	e	n/a
50.141	0.12	100282	keystroke_i	i	n/a
50.221	0.0645	100442	keystroke_v	v	n/a
50.309	0.072	100618	keystroke_e	e	n/a
50.461	0.072	100922	keystroke_d	d	n/a
50.589	0.088	101178	keystroke_Key.enter	Key.enter	n/a
50.6825	5.6595	101365	prompt	n/a	numerous reflect carlos when's\n
51.2215	0.064	102443	keystroke_n	n	n/a
51.3975	0.056	102795	keystroke_u	u	n/a
51.565	0.096	103130	keystroke_m	m	n/a
51.629	0.112	103258	keystroke_e	e	n/a
51.693	0.096	103386	keystroke_r	r	n/a
51.781	0.128	103562	keystroke_o	o	n/a
51.853	0.136	103706	keystroke_u	u	n/a
51.917	0.088	103834	keystroke_s	s	n/a
51.973	0.072	103946	keystroke_Key.space	Key.space	n/a
52.229	0.088	104458	keystroke_r	r	n/a
52.3005	0.0645	104601	keystroke_e	e	n/a
52.4285	0.088	104857	keystroke_f	f	n/a
52.573	0.072	105146	keystroke_e	e	n/a
52.581	0.112	105162	keystroke_l	l	n/a
52.741	0.072	105482	keystroke_c	c	n/a
52.9245	0.096	105849	keystroke_t	t	n/a
52.9815	0.087	105963	keystroke_Key.space	Key.space	n/a
53.2765	0.049	106553	keystroke_Key.backspace	Key.backspace	n/a
53.3655	0.055	106731	keystroke_Key.backspace	Key.backspace	n/a
53.4775	0.04	106955	keystroke_Key.backspace	Key.backspace	n/a
53.5805	0.064	107161	keystroke_Key.backspace	Key.backspace	n/a
53.9085	0.049	107817	keystroke_Key.backspace	Key.backspace	n/a
54.0935	0.104	108187	keystroke_l	l	n/a
54.1725	0.056	108345	keystroke_e	e	n/a
54.3165	0.104	108633	keystroke_c	c	n/a
54.5325	0.104	109065	keystroke_t	t	n/a
54.6125	0.096	109225	keystroke_Key.space	Key.space	n/a
54.7815	0.095	109563	keystroke_c	c	n/a
54.8445	0.1045	109689	keystroke_a	a	n/a
54.997	0.072	109994	keystroke_r	r	n/a
55.077	0.048	110154	keystroke_l	l	n/a
55.213	0.12	110426	keystroke_o	o	n/a
55.277	0.08	110554	keystroke_s	s	n/a
55.325	0.064	110650	keystroke_Key.space	Key.space	n/a
55.461	0.0795	110922	keystroke_w	w	n/a
55.5325	0.089	111065	keystroke_h	h	n/a
55.6365	0.064	111273	keystroke_e	e	n/a
55.7165	0.096	111433	keystroke_n	n	n/a
55.8855	0.087	111771	keystroke_'	'	n/a
55.9805	0.072	111961	keystroke_s	s	n/a
56.2525	0.088	112505	keystroke_Key.enter	Key.enter	n/a
56.346	4.1245	112692	prompt	n/a	juice preventing straight cherry\n
56.8685	0.065	113737	keystroke_j	j	n/a
57.0045	0.096	114009	keystroke_u	u	n/a
57.1495	0.127	114299	keystroke_i	i	n/a
57.2605	0.112	114521	keystroke_c	c	n/a
57.3405	0.088	114681	keystroke_e	e	n/a
57.3965	0.072	114793	keystroke_Key.space	Key.space	n/a
57.6445	0.104	115289	keystroke_p	p	n/a
57.7255	0.079	115451	keystroke_r	r	n/a
57.7965	0.048	115593	keystroke_e	e	n/a
57.9335	0.071	115867	keystroke_v	v	n/a
58.0375	0.087	116075	keystroke_e	e	n/a
58.1165	0.096	116233	keystroke_n	n	n/a
58.2685	0.072	116537	keystroke_t	t	n/a
58.3085	0.072	116617	keystroke_i	i	n/a
58.4125	0.12	116825	keystroke_n	n	n/a
58.4685	0.088	116937	keystroke_g	g	n/a
58.5335	0.079	117067	keystroke_Key.space	Key.space	n/a
58.6605	0.088	117321	keystroke_s	s	n/a
58.7645	0.072	117529	keystroke_t	t	n/a
58.9335	0.095	117867	keystroke_r	r	n/a
58.9805	0.104	117961	keystroke_a	a	n/a
59.1085	0.096	118217	keystroke_i	i	n/a
59.1725	0.096	118345	keystroke_g	g	n/a
59.3015	0.119	118603	keystroke_h	h	n/a
59.3805	0.088	118761	keystroke_t	t	n/a
59.4365	0.088	118873	keystroke_Key.space	Key.space	n/a
59.6445	0.08	119289	keystroke_c	c	n/a
59.7565	0.088	119513	keystroke_h	h	n/a
59.8525	0.064	119705	keystroke_e	e	n/a
60.0045	0.056	120009	keystroke_r	r	n/a
60.1485	0.056	120297	keystroke_r	r	n/a
60.2055	0.087	120411	keystroke_y	y	n/a
60.4125	0.056	120825	keystroke_Key.enter	Key.enter	n/a
60.473	5.022	120946	prompt	n/a	nasty happen thomson relax\n
60.9245	0.0565	121849	keystroke_j	j	n/a
61.197	0.056	122394	keystroke_Key.backspace	Key.backspace	n/a
61.349	0.112	122698	keystroke_n	n	n/a
61.437	0.088	122874	keystroke_a	a	n/a
61.509	0.104	123018	keystroke_s	s	n/a
61.645	0.1035	123290	keystroke_t	t	n/a
61.7565	0.088	123513	keystroke_y	y	n/a
61.8205	0.057	123641	keystroke_Key.space	Key.space	n/a
61.9565	0.088	123913	keystroke_h	h	n/a
62.0605	0.064	124121	keystroke_a	a	n/a
62.1255	0.079	124251	keystroke_p	p	n/a
62.2365	0.104	124473	keystroke_p	p	n/a
62.7245	0.104	125449	keystroke_e	e	n/a
62.8125	0.104	125625	keystroke_n	n	n/a
62.9085	0.048	125817	keystroke_Key.space	Key.space	n/a
63.0605	0.08	126121	keystroke_t	t	n/a
63.1165	0.088	126233	keystroke_h	h	n/a
63.2045	0.088	126409	keystroke_o	o	n/a
63.6045	0.104	127209	keystroke_m	m	n/a
63.7405	0.08	127481	keystroke_s	s	n/a
63.8365	0.136	127673	keystroke_o	o	n/a
63.9085	0.136	127817	keystroke_n	n	n/a
64.0285	0.112	128057	keystroke_Key.space	Key.space	n/a
64.1885	0.105	128377	keystroke_r	r	n/a
64.2685	0.04	128537	keystroke_e	e	n/a
64.3325	0.112	128665	keystroke_l	l	n/a
64.8125	0.016	129625	keystroke_a	a	n/a
65.0045	0.0725	130009	keystroke_x	x	n/a
65.412	0.08	130824	keystroke_Key.enter	Key.enter	n/a
65.499	5.715	130998	prompt	n/a	production started representative tested\n
66.0775	0.104	132155	keystroke_p	p	n/a
66.1725	0.073	132345	keystroke_r	r	n/a
66.2845	0.105	132569	keystroke_o	o	n/a
66.3805	0.08	132761	keystroke_d	d	n/a
66.5165	0.0725	133033	keystroke_u	u	n/a
66.565	0.08	133130	keystroke_c	c	n/a
66.789	0.088	133578	keystroke_t	t	n/a
66.821	0.104	133642	keystroke_i	i	n/a
66.829	0.136	133658	keystroke_o	o	n/a
66.885	0.128	133770	keystroke_n	n	n/a
66.981	0.072	133962	keystroke_Key.space	Key.space	n/a
67.077	0.088	134154	keystroke_s	s	n/a
67.157	0.104	134314	keystroke_t	t	n/a
67.277	0.1115	134554	keystroke_a	a	n/a
67.3965	0.072	134793	keystroke_r	r	n/a
67.5565	0.104	135113	keystroke_t	t	n/a
67.7805	0.064	135561	keystroke_d	d	n/a
68.1085	0.073	136217	keystroke_Key.backspace	Key.backspace	n/a
68.1335	0.048	136267	keystroke_e	e	n/a
68.2605	0.096	136521	keystroke_d	d	n/a
68.3165	0.08	136633	keystroke_Key.space	Key.space	n/a
68.4525	0.0965	136905	keystroke_r	r	n/a
68.5085	0.0725	137017	keystroke_e	e	n/a
68.613	0.128	137226	keystroke_p	p	n/a
68.709	0.12	137418	keystroke_r	r	n/a
68.789	0.087	137578	keystroke_e	e	n/a
69.0685	0.0955	138137	keystroke_s	s	n/a
69.253	0.08	138506	keystroke_e	e	n/a
69.389	0.119	138778	keystroke_n	n	n/a
69.493	0.071	138986	keystroke_t	t	n/a
69.549	0.095	139098	keystroke_a	a	n/a
69.676	0.072	139352	keystroke_t	t	n/a
69.788	0.136	139576	keystroke_i	i	n/a
69.893	0.055	139786	keystroke_v	v	n/a
70.1	0.12	140200	keystroke_e	e	n/a
70.204	0.072	140408	keystroke_Key.space	Key.space	n/a
70.493	0.119	140986	keystroke_t	t	n/a
70.564	0.152	141128	keystroke_e	e	n/a
70.668	0.089	141336	keystroke_s	s	n/a
70.732	0.12	141464	keystroke_t	t	n/a
70.836	0.056	141672	keystroke_e	e	n/a
70.98	0.072	141960	keystroke_d	d	n/a
71.125	0.087	142250	keystroke_Key.enter	Key.enter	n/a
71.2175	4.6365	142435	prompt	n/a	controls sensitive sparc caps\n
71.6765	0.048	143353	keystroke_p	p	n/a
71.996	0.064	143992	keystroke_Key.backspace	Key.backspace	n/a
72.069	0.071	144138	keystroke_c	c	n/a
72.164	0.113	144328	keystroke_o	o	n/a
72.268	0.088	144536	keystroke_n	n	n/a
72.324	0.056	144648	keystroke_t	t	n/a
72.468	0.08	144936	keystroke_r	r	n/a
72.524	0.073	145048	keystroke_o	o	n/a
72.701	0.111	145402	keystroke_l	l	n/a
72.748	0.104	145496	keystroke_s	s	n/a
72.805	0.063	145610	keystroke_Key.space	Key.space	n/a
73.068	0.12	146136	keystroke_s	s	n/a
73.2765	0.08	146553	keystroke_e	e	n/a
73.4125	0.088	146825	keystroke_n	n	n/a
73.5165	0.08	147033	keystroke_s	s	n/a
73.6445	0.08	147289	keystroke_i	i	n/a
73.8125	0.048	147625	keystroke_t	t	n/a
73.8285	0.08	147657	keystroke_i	i	n/a
74.0045	0.08	148009	keystroke_v	v	n/a
74.1165	0.112	148233	keystroke_e	e	n/a
74.2205	0.048	148441	keystroke_Key.space	Key.space	n/a
74.4925	0.088	148985	keystroke_s	s	n/a
74.5885	0.12	149177	keystroke_p	p	n/a
74.6685	0.104	149337	keystroke_a	a	n/a
74.7885	0.064	149577	keystroke_r	r	n/a
74.9725	0.136	149945	keystroke_c	c	n/a
75.0605	0.112	150121	keystroke_Key.space	Key.space	n/a
75.2365	0.112	150473	keystroke_c	c	n/a
75.3485	0.088	150697	keystroke_a	a	n/a
75.4765	0.104	150953	keystroke_p	p	n/a
75.6125	0.088	151225	keystroke_s	s	n/a
75.7645	0.088	151529	keystroke_Key.enter	Key.enter	n/a
75.8575	3.3085	151715	prompt	n/a	wicked member blues acute\n
76.3885	0.064	152777	keystroke_w	w	n/a
76.4845	0.072	152969	keystroke_i	i	n/a
76.5965	0.088	153193	keystroke_c	c	n/a
76.7005	0.152	153401	keystroke_k	k	n/a
76.7725	0.047	153545	keystroke_e	e	n/a
76.9085	0.072	153817	keystroke_d	d	n/a
76.9485	0.072	153897	keystroke_Key.space	Key.space	n/a
77.1405	0.096	154281	keystroke_m	m	n/a
77.2285	0.056	154457	keystroke_e	e	n/a
77.325	0.127	154650	keystroke_m	m	n/a
77.404	0.073	154808	keystroke_b	b	n/a
77.556	0.129	155112	keystroke_e	e	n/a
77.628	0.073	155256	keystroke_r	r	n/a
77.668	0.064	155336	keystroke_Key.space	Key.space	n/a
77.812	0.097	155624	keystroke_b	b	n/a
77.932	0.064	155864	keystroke_l	l	n/a
78.036	0.176	156072	keystroke_u	u	n/a
78.108	0.169	156216	keystroke_e	e	n/a
78.204	0.104	156408	keystroke_s	s	n/a
78.252	0.08	156504	keystroke_Key.space	Key.space	n/a
78.444	0.104	156888	keystroke_a	a	n/a
78.572	0.065	157144	keystroke_c	c	n/a
78.748	0.105	157496	keystroke_u	u	n/a
78.836	0.121	157672	keystroke_t	t	n/a
78.908	0.072	157816	keystroke_e	e	n/a
79.068	0.096	158136	keystroke_Key.enter	Key.enter	n/a
79.1695	6.037	158339	prompt	n/a	sites graphics journals bedroom\n
79.916	0.08	159832	keystroke_s	s	n/a
80.052	0.1045	160104	keystroke_i	i	n/a
80.1725	0.136	160345	keystroke_t	t	n/a
80.4925	0.192	160985	keystroke_e	e	n/a
80.5965	0.112	161193	keystroke_s	s	n/a
80.6525	0.088	161305	keystroke_Key.space	Key.space	n/a
81.0765	0.08	162153	keystroke_g	g	n/a
81.2365	0.104	162473	keystroke_r	r	n/a
81.2765	0.096	162553	keystroke_a	a	n/a
81.3645	0.08	162729	keystroke_p	p	n/a
81.4605	0.1435	162921	keystroke_h	h	n/a
81.5485	0.104	163097	keystroke_i	i	n/a
81.6125	0.16	163225	keystroke_c	c	n/a
81.7085	0.111	163417	keystroke_s	s	n/a
81.9965	0.112	163993	keystroke_j	j	n/a
82.3085	0.071	164617	keystroke_Key.backspace	Key.backspace	n/a
82.3805	0.096	164761	keystroke_Key.space	Key.space	n/a
82.5005	0.112	165001	keystroke_j	j	n/a
82.5805	0.152	165161	keystroke_o	o	n/a
82.7085	0.048	165417	keystroke_u	u	n/a
82.8525	0.1115	165705	keystroke_n	n	n/a
83.324	0.064	166648	keystroke_Key.backspace	Key.backspace	n/a
83.46	0.064	166920	keystroke_r	r	n/a
83.532	0.096	167064	keystroke_n	n	n/a
83.685	0.095	167370	keystroke_a	a	n/a
83.82	0.128	167640	keystroke_l	l	n/a
83.908	0.088	167816	keystroke_s	s	n/a
83.964	0.064	167928	keystroke_Key.space	Key.space	n/a
84.18	0.048	168360	keystroke_b	b	n/a
84.348	0.056	168696	keystroke_e	e	n/a
84.492	0.088	168984	keystroke_d	d	n/a
84.652	0.072	169304	keystroke_r	r	n/a
84.732	0.056	169464	keystroke_o	o	n/a
84.836	0.08	169672	keystroke_o	o	n/a
84.964	0.08	169928	keystroke_m	m	n/a
85.124	0.08	170248	keystroke_Key.enter	Key.enter	n/a
85.211	4.7945	170422	prompt	n/a	usually jazz compact revealed\n
85.8125	0.08	171625	keystroke_u	u	n/a
85.9005	0.096	171801	keystroke_s	s	n/a
85.9965	0.08	171993	keystroke_u	u	n/a
86.0845	0.08	172169	keystroke_a	a	n/a
86.1565	0.056	172313	keystroke_l	l	n/a
86.2685	0.072	172537	keystroke_l	l	n/a
86.4365	0.096	172873	keystroke_y	y	n/a
86.5165	0.088	173033	keystroke_Key.space	Key.space	n/a
86.6605	0.112	173321	keystroke_j	j	n/a
86.7725	0.056	173545	keystroke_a	a	n/a
86.9245	0.0795	173849	keystroke_z	z	n/a
87.068	0.096	174136	keystroke_z	z	n/a
87.1725	0.0555	174345	keystroke_Key.space	Key.space	n/a
87.3	0.088	174600	keystroke_c	c	n/a
87.372	0.072	174744	keystroke_o	o	n/a
87.46	0.128	174920	keystroke_m	m	n/a
87.532	0.12	175064	keystroke_p	p	n/a
87.66	0.104	175320	keystroke_a	a	n/a
87.724	0.088	175448	keystroke_c	c	n/a
87.924	0.112	175848	keystroke_t	t	n/a
87.996	0.096	175992	keystroke_Key.space	Key.space	n/a
88.2925	0.096	176585	keystroke_r	r	n/a
88.5885	0.072	177177	keystroke_e	e	n/a
88.7405	0.064	177481	keystroke_v	v	n/a
88.8685	0.104	177737	keystroke_e	e	n/a
89.0525	0.056	178105	keystroke_l	l	n/a
89.3805	0.055	178761	keystroke_Key.backspace	Key.backspace	n/a
89.4685	0.063	178937	keystroke_a	a	n/a
89.5725	0.12	179145	keystroke_l	l	n/a
89.6525	0.048	179305	keystroke_e	e	n/a
89.7805	0.08	179561	keystroke_d	d	n/a
89.9315	0.073	179863	keystroke_Key.enter	Key.enter	n/a
90.008	5.1095	180016	prompt	n/a	filling waiting acknowledge stock\n
90.4685	0.048	180937	keystroke_j	j	n/a
90.8275	0.064	181655	keystroke_Key.backspace	Key.backspace	n/a
90.9325	0.0715	181865	keystroke_f	f	n/a
91.0445	0.048	182089	keystroke_i	i	n/a
91.164	0.0715	182328	keystroke_l	l	n/a
91.3085	0.055	182617	keystroke_l	l	n/a
91.548	0.08	183096	keystroke_i	i	n/a
91.684	0.145	183368	keystroke_n	n	n/a
91.756	0.08	183512	keystroke_g	g	n/a
91.796	0.096	183592	keystroke_Key.space	Key.space	n/a
91.94	0.096	183880	keystroke_w	w	n/a
91.98	0.113	183960	keystroke_a	a	n/a
92.132	0.0875	184264	keystroke_i	i	n/a
92.2525	0.0875	184505	keystroke_t	t	n/a
92.3155	0.0895	184631	keystroke_i	i	n/a
92.388	0.12	184776	keystroke_n	n	n/a
92.461	0.079	184922	keystroke_g	g	n/a
92.5	0.08	185000	keystroke_Key.space	Key.space	n/a
92.684	0.104	185368	keystroke_a	a	n/a
92.812	0.088	185624	keystroke_c	c	n/a
92.972	0.088	185944	keystroke_k	k	n/a
93.14	0.128	186280	keystroke_n	n	n/a
93.236	0.1205	186472	keystroke_o	o	n/a
93.4125	0.104	186825	keystroke_w	w	n/a
93.5565	0.104	187113	keystroke_l	l	n/a
93.772	0.072	187544	keystroke_e	e	n/a
93.94	0.08	187880	keystroke_d	d	n/a
94.037	0.183	188074	keystroke_g	g	n/a
94.148	0.104	188296	keystroke_e	e	n/a
94.228	0.08	188456	keystroke_Key.space	Key.space	n/a
94.484	0.128	188968	keystroke_s	s	n/a
94.572	0.088	189144	keystroke_t	t	n/a
94.684	0.072	189368	keystroke_o	o	n/a
94.796	0.088	189592	keystroke_c	c	n/a
94.852	0.08	189704	keystroke_k	k	n/a
95.028	0.088	190056	keystroke_Key.enter	Key.enter	n/a
95.1205	5.349	190241	prompt	n/a	roughly tries compliance totally\n
95.572	0.088	191144	keystroke_f	f	n/a
95.7	0.072	191400	keystroke_o	o	n/a
95.932	0.064	191864	keystroke_Key.backspace	Key.backspace	n/a
96.052	0.056	192104	keystroke_Key.backspace	Key.backspace	n/a
96.164	0.08	192328	keystroke_r	r	n/a
96.252	0.104	192504	keystroke_o	o	n/a
96.316	0.08	192632	keystroke_u	u	n/a
96.4115	0.096	192823	keystroke_g	g	n/a
96.4915	0.073	192983	keystroke_h	h	n/a
96.6275	0.088	193255	keystroke_l	l	n/a
96.8035	0.088	193607	keystroke_y	y	n/a
96.8595	0.088	193719	keystroke_Key.space	Key.space	n/a
97.0115	0.08	194023	keystroke_t	t	n/a
97.1645	0.088	194329	keystroke_r	r	n/a
97.2605	0.152	194521	keystroke_i	i	n/a
97.3325	0.12	194665	keystroke_e	e	n/a
97.4045	0.088	194809	keystroke_s	s	n/a
97.4445	0.0715	194889	keystroke_Key.space	Key.space	n/a
97.596	0.104	195192	keystroke_c	c	n/a
97.684	0.072	195368	keystroke_o	o	n/a
97.7875	0.089	195575	keystroke_m	m	n/a
97.8445	0.08	195689	keystroke_p	p	n/a
98.0035	0.057	196007	keystroke_l	l	n/a
98.0925	0.1035	196185	keystroke_i	i	n/a
98.18	0.104	196360	keystroke_a	a	n/a
98.3	0.168	196600	keystroke_n	n	n/a
98.388	0.08	196776	keystroke_c	c	n/a
98.469	0.071	196938	keystroke_e	e	n/a
98.652	0.064	197304	keystroke_t	t	n/a
98.748	0.096	197496	keystroke_o	o	n/a
98.996	0.064	197992	keystroke_Key.backspace	Key.backspace	n/a
99.1315	0.057	198263	keystroke_Key.backspace	Key.backspace	n/a
99.2435	0.064	198487	keystroke_Key.space	Key.space	n/a
99.3555	0.088	198711	keystroke_t	t	n/a
99.4765	0.095	198953	keystroke_o	o	n/a
99.5395	0.129	199079	keystroke_t	t	n/a
99.6355	0.056	199271	keystroke_a	a	n/a
99.7165	0.055	199433	keystroke_l	l	n/a
100.0115	0.056	200023	keystroke_l	l	n/a
100.1885	0.071	200377	keystroke_y	y	n/a
100.3875	0.08	200775	keystroke_Key.enter	Key.enter	n/a
100.474	4.7795	200948	prompt	n/a	neck terrorism greatest vendors\n
101.0675	0.121	202135	keystroke_n	n	n/a
101.1475	0.064	202295	keystroke_e	e	n/a
101.2925	0.095	202585	keystroke_c	c	n/a
101.3635	0.12	202727	keystroke_k	k	n/a
101.4435	0.088	202887	keystroke_Key.space	Key.space	n/a
101.5715	0.08	203143	keystroke_t	t	n/a
101.7165	0.071	203433	keystroke_e	e	n/a
101.8755	0.056	203751	keystroke_r	r	n/a
102.0435	0.048	204087	keystroke_r	r	n/a
102.1885	0.104	204377	keystroke_o	o	n/a
102.3795	0.0645	204759	keystroke_r	r	n/a
102.492	0.096	204984	keystroke_i	i	n/a
102.596	0.08	205192	keystroke_s	s	n/a
102.732	0.144	205464	keystroke_m	m	n/a
102.828	0.104	205656	keystroke_Key.space	Key.space	n/a
103.172	0.072	206344	keystroke_g	g	n/a
103.332	0.136	206664	keystroke_r	r	n/a
103.388	0.136	206776	keystroke_e	e	n/a
103.476	0.088	206952	keystroke_a	a	n/a
103.692	0.136	207384	keystroke_t	t	n/a
103.964	0.184	207928	keystroke_e	e	n/a
104.052	0.128	208104	keystroke_s	s	n/a
104.124	0.12	208248	keystroke_t	t	n/a
104.22	0.072	208440	keystroke_Key.space	Key.space	n/a
104.436	0.08	208872	keystroke_v	v	n/a
104.564	0.072	209128	keystroke_e	e	n/a
104.652	0.088	209304	keystroke_n	n	n/a
104.732	0.072	209464	keystroke_d	d	n/a
104.86	0.152	209720	keystroke_o	o	n/a
104.932	0.152	209864	keystroke_r	r	n/a
105.028	0.08	210056	keystroke_s	s	n/a
105.156	0.0955	210312	keystroke_Key.enter	Key.enter	n/a
105.2565	4.6535	210513	prompt	n/a	assembly madison closest strings\n
105.7555	0.057	211511	keystroke_a	a	n/a
105.908	0.0555	211816	keystroke_s	s	n/a
106.036	0.0635	212072	keystroke_s	s	n/a
106.1555	0.08	212311	keystroke_e	e	n/a
106.2275	0.088	212455	keystroke_m	m	n/a
106.3555	0.072	212711	keystroke_b	b	n/a
106.4355	0.072	212871	keystroke_l	l	n/a
106.5795	0.112	213159	keystroke_y	y	n/a
106.6595	0.112	213319	keystroke_Key.space	Key.space	n/a
106.9315	0.104	213863	keystroke_m	m	n/a
107.0515	0.0805	214103	keystroke_a	a	n/a
107.172	0.08	214344	keystroke_d	d	n/a
107.268	0.112	214536	keystroke_i	i	n/a
107.38	0.096	214760	keystroke_s	s	n/a
107.484	0.136	214968	keystroke_o	o	n/a
107.548	0.128	215096	keystroke_n	n	n/a
107.612	0.072	215224	keystroke_Key.space	Key.space	n/a
107.74	0.08	215480	keystroke_c	c	n/a
107.82	0.064	215640	keystroke_l	l	n/a
107.98	0.112	215960	keystroke_o	o	n/a
108.084	0.088	216168	keystroke_s	s	n/a
108.308	0.08	216616	keystroke_e	e	n/a
108.532	0.12	217064	keystroke_s	s	n/a
108.652	0.104	217304	keystroke_t	t	n/a
108.74	0.072	217480	keystroke_Key.space	Key.space	n/a
108.892	0.088	217784	keystroke_s	s	n/a
109.156	0.072	218312	keystroke_t	t	n/a
109.348	0.088	218696	keystroke_r	r	n/a
109.46	0.072	218920	keystroke_i	i	n/a
109.532	0.112	219064	keystroke_n	n	n/a
109.572	0.112	219144	keystroke_g	g	n/a
109.652	0.072	219304	keystroke_s	s	n/a
109.82	0.088	219640	keystroke_Key.enter	Key.enter	n/a
109.913	4.405	219826	prompt	n/a	motor mirrors frame easy\n
110.4755	0.096	220951	keystroke_m	m	n/a
110.66	0.088	221320	keystroke_o	o	n/a
110.788	0.072	221576	keystroke_t	t	n/a
110.868	0.112	221736	keystroke_o	o	n/a
110.972	0.104	221944	keystroke_r	r	n/a
111.052	0.072	222104	keystroke_Key.space	Key.space	n/a
111.228	0.072	222456	keystroke_m	m	n/a
111.372	0.0795	222744	keystroke_i	i	n/a
111.4755	0.056	222951	keystroke_r	r	n/a
111.5885	0.071	223177	keystroke_r	r	n/a
111.6755	0.144	223351	keystroke_o	o	n/a
111.7875	0.088	223575	keystroke_s	s	n/a
111.8435	0.08	223687	keystroke_Key.space	Key.space	n/a
112.3955	0.064	224791	keystroke_Key.backspace	Key.backspace	n/a
112.5155	0.072	225031	keystroke_Key.backspace	Key.backspace	n/a
112.6355	0.176	225271	keystroke_r	r	n/a
112.7235	0.129	225447	keystroke_s	s	n/a
112.8195	0.056	225639	keystroke_Key.space	Key.space	n/a
112.9875	0.073	225975	keystroke_f	f	n/a
113.1315	0.096	226263	keystroke_r	r	n/a
113.1875	0.072	226375	keystroke_a	a	n/a
113.2435	0.168	226487	keystroke_m	m	n/a
113.3555	0.096	226711	keystroke_e	e	n/a
113.4195	0.072	226839	keystroke_Key.space	Key.space	n/a
113.5955	0.128	227191	keystroke_e	e	n/a
113.7875	0.113	227575	keystroke_a	a	n/a
113.8675	0.096	227735	keystroke_s	s	n/a
114.0515	0.072	228103	keystroke_y	y	n/a
114.236	0.079	228472	keystroke_Key.enter	Key.enter	n/a
114.3215	4.26	228643	prompt	n/a	thickness celebrity logs praise\n
114.9075	0.08	229815	keystroke_t	t	n/a
114.9795	0.088	229959	keystroke_h	h	n/a
115.1315	0.088	230263	keystroke_i	i	n/a
115.2355	0.08	230471	keystroke_c	c	n/a
115.3475	0.081	230695	keystroke_k	k	n/a
115.508	0.08	231016	keystroke_n	n	n/a
115.636	0.064	231272	keystroke_e	e	n/a
115.796	0.08	231592	keystroke_s	s	n/a
115.916	0.088	231832	keystroke_s	s	n/a
116.011	0.049	232022	keystroke_Key.space	Key.space	n/a
116.179	0.073	232358	keystroke_c	c	n/a
116.292	0.08	232584	keystroke_e	e	n/a
116.396	0.104	232792	keystroke_l	l	n/a
116.46	0.064	232920	keystroke_e	e	n/a
116.619	0.057	233238	keystroke_b	b	n/a
116.779	0.105	233558	keystroke_r	r	n/a
116.9155	0.08	233831	keystroke_i	i	n/a
117.0035	0.112	234007	keystroke_t	t	n/a
117.1155	0.088	234231	keystroke_y	y	n/a
117.1635	0.048	234327	keystroke_Key.space	Key.space	n/a
117.3235	0.064	234647	keystroke_l	l	n/a
117.4765	0.1035	234953	keystroke_o	o	n/a
117.524	0.151	235048	keystroke_g	g	n/a
117.595	0.112	235190	keystroke_s	s	n/a
117.667	0.088	235334	keystroke_Key.space	Key.space	n/a
117.844	0.112	235688	keystroke_p	p	n/a
117.931	0.112	235862	keystroke_r	r	n/a
117.995	0.105	235990	keystroke_a	a	n/a
118.147	0.144	236294	keystroke_i	i	n/a
118.235	0.144	236470	keystroke_s	s	n/a
118.339	0.104	236678	keystroke_e	e	n/a
118.4995	0.0805	236999	keystroke_Key.enter	Key.enter	n/a
118.5845	5.6045	237169	prompt	n/a	wide territory waterproof programmer\n
119.1795	0.088	238359	keystroke_w	w	n/a
119.3165	0.127	238633	keystroke_i	i	n/a
119.3875	0.064	238775	keystroke_d	d	n/a
119.5155	0.1045	239031	keystroke_e	e	n/a
119.627	0.057	239254	keystroke_Key.space	Key.space	n/a
119.82	0.056	239640	keystroke_t	t	n/a
119.924	0.064	239848	keystroke_e	e	n/a
120.092	0.056	240184	keystroke_r	r	n/a
120.228	0.064	240456	keystroke_r	r	n/a
120.3	0.079	240600	keystroke_i	i	n/a
120.42	0.08	240840	keystroke_t	t	n/a
120.484	0.12	240968	keystroke_o	o	n/a
120.596	0.112	241192	keystroke_r	r	n/a
120.724	0.112	241448	keystroke_y	y	n/a
120.779	0.096	241558	keystroke_Key.space	Key.space	n/a
120.955	0.161	241910	keystroke_w	w	n/a
121.083	0.089	242166	keystroke_a	a	n/a
121.132	0.088	242264	keystroke_t	t	n/a
121.252	0.135	242504	keystroke_e	e	n/a
121.324	0.088	242648	keystroke_r	r	n/a
121.46	0.087	242920	keystroke_p	p	n/a
121.707	0.064	243414	keystroke_r	r	n/a
121.827	0.072	243654	keystroke_o	o	n/a
121.948	0.104	243896	keystroke_o	o	n/a
122.075	0.129	244150	keystroke_f	f	n/a
122.187	0.088	244374	keystroke_Key.space	Key.space	n/a
122.587	0.112	245174	keystroke_p	p	n/a
122.691	0.072	245382	keystroke_r	r	n/a
122.851	0.112	245702	keystroke_o	o	n/a
123.243	0.056	246486	keystroke_g	g	n/a
123.443	0.12	246886	keystroke_r	r	n/a
123.524	0.096	247048	keystroke_a	a	n/a
123.667	0.041	247334	keystroke_m	m	n/a
123.78	0.079	247560	keystroke_m	m	n/a
123.867	0.121	247734	keystroke_e	e	n/a
123.924	0.095	247848	keystroke_r	r	n/a
124.116	0.071	248232	keystroke_Key.enter	Key.enter	n/a
124.1925	4.6445	248385	prompt	n/a	receptors blackjack text sporting\n
124.74	0.08	249480	keystroke_r	r	n/a
124.795	0.072	249590	keystroke_e	e	n/a
124.948	0.087	249896	keystroke_c	c	n/a
125.027	0.089	250054	keystroke_e	e	n/a
125.124	0.103	250248	keystroke_p	p	n/a
125.243	0.065	250486	keystroke_t	t	n/a
125.396	0.111	250792	keystroke_o	o	n/a
125.42	0.175	250840	keystroke_r	r	n/a
125.516	0.127	251032	keystroke_s	s	n/a
125.579	0.088	251158	keystroke_Key.space	Key.space	n/a
125.86	0.072	251720	keystroke_b	b	n/a
125.972	0.088	251944	keystroke_l	l	n/a
126.036	0.095	252072	keystroke_a	a	n/a
126.116	0.088	252232	keystroke_c	c	n/a
126.187	0.089	252374	keystroke_k	k	n/a
126.372	0.1115	252744	keystroke_j	j	n/a
126.4595	0.104	252919	keystroke_a	a	n/a
126.5165	0.135	253033	keystroke_c	c	n/a
126.6995	0.112	253399	keystroke_k	k	n/a
126.8435	0.0795	253687	keystroke_Key.space	Key.space	n/a
126.955	0.112	253910	keystroke_t	t	n/a
127.035	0.08	254070	keystroke_e	e	n/a
127.227	0.089	254454	keystroke_x	x	n/a
127.475	0.104	254950	keystroke_t	t	n/a
127.547	0.096	255094	keystroke_Key.space	Key.space	n/a
127.739	0.0965	255478	keystroke_s	s	n/a
127.8675	0.088	255735	keystroke_p	p	n/a
128.0275	0.112	256055	keystroke_o	o	n/a
128.1315	0.048	256263	keystroke_r	r	n/a
128.2675	0.089	256535	keystroke_t	t	n/a
128.3795	0.056	256759	keystroke_i	i	n/a
128.4595	0.112	256919	keystroke_n	n	n/a
128.5795	0.08	257159	keystroke_g	g	n/a
128.7395	0.096	257479	keystroke_Key.enter	Key.enter	n/a
128.8395	6.5175	257679	prompt	n/a	massachusetts bloom spanish nights\n
129.4435	0.104	258887	keystroke_m	m	n/a
129.5235	0.056	259047	keystroke_a	a	n/a
129.6915	0.064	259383	keystroke_s	s	n/a
129.8275	0.072	259655	keystroke_s	s	n/a
130.1075	0.056	260215	keystroke_a	a	n/a
130.2675	0.08	260535	keystroke_c	c	n/a
130.4675	0.056	260935	keystroke_h	h	n/a
130.6355	0.08	261271	keystroke_u	u	n/a
130.7395	0.088	261479	keystroke_s	s	n/a
131.2755	0.088	262551	keystroke_e	e	n/a
131.4915	0.056	262983	keystroke_t	t	n/a
131.6115	0.072	263223	keystroke_t	t	n/a
131.8195	0.096	263639	keystroke_s	s	n/a
131.8835	0.096	263767	keystroke_Key.space	Key.space	n/a
132.2915	0.048	264583	keystroke_b	b	n/a
132.4835	0.072	264967	keystroke_l	l	n/a
132.6755	0.064	265351	keystroke_o	o	n/a
132.8035	0.088	265607	keystroke_o	o	n/a
132.9555	0.136	265911	keystroke_m	m	n/a
133.1315	0.12	266263	keystroke_Key.space	Key.space	n/a
133.2915	0.104	266583	keystroke_s	s	n/a
133.3875	0.104	266775	keystroke_p	p	n/a
133.4835	0.104	266967	keystroke_a	a	n/a
133.5475	0.112	267095	keystroke_n	n	n/a
133.6195	0.072	267239	keystroke_i	i	n/a
133.6915	0.104	267383	keystroke_s	s	n/a
133.7635	0.12	267527	keystroke_h	h	n/a
133.8355	0.096	267671	keystroke_Key.space	Key.space	n/a
133.9395	0.064	267879	keystroke_r	r	n/a
134.1315	0.0955	268263	keystroke_n	n	n/a
134.363	0.064	268726	keystroke_Key.backspace	Key.backspace	n/a
134.507	0.0725	269014	keystroke_Key.backspace	Key.backspace	n/a
134.6755	0.112	269351	keystroke_n	n	n/a
134.7555	0.072	269511	keystroke_i	i	n/a
134.8675	0.08	269735	keystroke_g	g	n/a
134.923	0.1285	269846	keystroke_h	h	n/a
135.027	0.1285	270054	keystroke_t	t	n/a
135.0995	0.0955	270199	keystroke_s	s	n/a
135.2755	0.0795	270551	keystroke_Key.enter	Key.enter	n/a
135.36	4.365	270720	prompt	n/a	helpful trip turns functional\n
135.9795	0.08	271959	keystroke_h	h	n/a
136.0515	0.081	272103	keystroke_e	e	n/a
136.1395	0.064	272279	keystroke_l	l	n/a
136.2675	0.072	272535	keystroke_p	p	n/a
136.4195	0.088	272839	keystroke_f	f	n/a
136.4915	0.064	272983	keystroke_u	u	n/a
136.6115	0.112	273223	keystroke_l	l	n/a
136.6835	0.088	273367	keystroke_Key.space	Key.space	n/a
136.7875	0.056	273575	keystroke_t	t	n/a
136.924	0.104	273848	keystroke_r	r	n/a
136.995	0.128	273990	keystroke_i	i	n/a
137.059	0.129	274118	keystroke_p	p	n/a
137.147	0.072	274294	keystroke_Key.space	Key.space	n/a
137.283	0.072	274566	keystroke_h	h	n/a
137.5395	0.056	275079	keystroke_Key.backspace	Key.backspace	n/a
137.6275	0.072	275255	keystroke_t	t	n/a
137.7395	0.08	275479	keystroke_u	u	n/a
137.8355	0.088	275671	keystroke_r	r	n/a
137.9155	0.128	275831	keystroke_n	n	n/a
138.0035	0.104	276007	keystroke_s	s	n/a
138.0595	0.08	276119	keystroke_Key.space	Key.space	n/a
138.2435	0.072	276487	keystroke_f	f	n/a
138.4355	0.072	276871	keystroke_u	u	n/a
138.5955	0.1125	277191	keystroke_n	n	n/a
138.708	0.079	277416	keystroke_c	c	n/a
138.9075	0.08	277815	keystroke_t	t	n/a
138.9475	0.104	277895	keystroke_i	i	n/a
138.9795	0.104	277959	keystroke_o	o	n/a
139.0115	0.096	278023	keystroke_n	n	n/a
139.1635	0.064	278327	keystroke_a	a	n/a
139.4275	0.0795	278855	keystroke_l	l	n/a
139.643	0.08	279286	keystroke_Key.enter	Key.enter	n/a
139.73	5.291	279460	prompt	n/a	treat armenia mightn't won't\n
140.323	0.073	280646	keystroke_t	t	n/a
140.5	0.119	281000	keystroke_r	r	n/a
140.555	0.144	281110	keystroke_e	e	n/a
140.635	0.129	281270	keystroke_a	a	n/a
140.747	0.112	281494	keystroke_t	t	n/a
140.835	0.064	281670	keystroke_Key.space	Key.space	n/a
141.011	0.104	282022	keystroke_a	a	n/a
141.099	0.081	282198	keystroke_r	r	n/a
141.211	0.096	282422	keystroke_m	m	n/a
141.299	0.064	282598	keystroke_e	e	n/a
141.419	0.144	282838	keystroke_n	n	n/a
141.539	0.12	283078	keystroke_i	i	n/a
141.643	0.104	283286	keystroke_a	a	n/a
141.715	0.056	283430	keystroke_Key.space	Key.space	n/a
141.843	0.096	283686	keystroke_m	m	n/a
141.916	0.071	283832	keystroke_i	i	n/a
142.011	0.08	284022	keystroke_g	g	n/a
142.099	0.072	284198	keystroke_h	h	n/a
142.211	0.073	284422	keystroke_t	t	n/a
142.291	0.097	284582	keystroke_n	n	n/a
142.467	0.12	284934	keystroke_'	'	n/a
142.579	0.104	285158	keystroke_t	t	n/a
142.659	0.072	285318	keystroke_Key.space	Key.space	n/a
142.827	0.096	285654	keystroke_w	w	n/a
142.899	0.104	285798	keystroke_o	o	n/a
142.971	0.105	285942	keystroke_n	n	n/a
143.091	0.016	286182	keystroke_n	n	n/a
143.131	0.112	286262	keystroke_'	'	n/a
143.307	0.064	286614	keystroke_t	t	n/a
143.667	0.048	287334	keystroke_Key.backspace	Key.backspace	n/a
143.779	0.064	287558	keystroke_Key.backspace	Key.backspace	n/a
144.059	0.048	288118	keystroke_Key.backspace	Key.backspace	n/a
144.459	0.088	288918	keystroke_'	'	n/a
144.579	0.04	289158	keystroke_t	t	n/a
144.939	0.08	289878	keystroke_Key.enter	Key.enter	n/a
145.0245	4.1485	290049	prompt	n/a	cleaners pain contrast had\n
145.6515	0.064	291303	keystroke_c	c	n/a
145.7315	0.104	291463	keystroke_l	l	n/a
145.8115	0.104	291623	keystroke_e	e	n/a
145.8995	0.064	291799	keystroke_a	a	n/a
145.9795	0.096	291959	keystroke_n	n	n/a
146.0755	0.168	292151	keystroke_e	e	n/a
146.1795	0.152	292359	keystroke_r	r	n/a
146.2595	0.112	292519	keystroke_s	s	n/a
146.3235	0.08	292647	keystroke_Key.space	Key.space	n/a
146.507	0.088	293014	keystroke_p	p	n/a
146.603	0.08	293206	keystroke_a	a	n/a
146.675	0.096	293350	keystroke_i	i	n/a
146.755	0.12	293510	keystroke_n	n	n/a
146.819	0.088	293638	keystroke_Key.space	Key.space	n/a
147.195	0.088	294390	keystroke_o	o	n/a
147.459	0.072	294918	keystroke_Key.backspace	Key.backspace	n/a
147.523	0.096	295046	keystroke_c	c	n/a
147.635	0.12	295270	keystroke_o	o	n/a
147.715	0.136	295430	keystroke_n	n	n/a
147.827	0.056	295654	keystroke_t	t	n/a
147.979	0.137	295958	keystroke_r	r	n/a
148.051	0.096	296102	keystroke_a	a	n/a
148.211	0.144	296422	keystroke_s	s	n/a
148.315	0.096	296630	keystroke_t	t	n/a
148.403	0.056	296806	keystroke_Key.space	Key.space	n/a
148.731	0.08	297462	keystroke_h	h	n/a
148.795	0.096	297590	keystroke_a	a	n/a
148.8995	0.088	297799	keystroke_d	d	n/a
149.0755	0.096	298151	keystroke_Key.enter	Key.enter	n/a
149.1765	3.8845	298353	prompt	n/a	location dump bras table\n
149.851	0.048	299702	keystroke_l	l	n/a
149.995	0.104	299990	keystroke_o	o	n/a
150.059	0.088	300118	keystroke_c	c	n/a
150.155	0.072	300310	keystroke_a	a	n/a
150.299	0.088	300598	keystroke_t	t	n/a
150.379	0.112	300758	keystroke_i	i	n/a
150.419	0.152	300838	keystroke_o	o	n/a
150.531	0.12	301062	keystroke_n	n	n/a
150.635	0.064	301270	keystroke_Key.space	Key.space	n/a
150.763	0.048	301526	keystroke_d	d	n/a
150.875	0.064	301750	keystroke_u	u	n/a
151.051	0.144	302102	keystroke_m	m	n/a
151.107	0.136	302214	keystroke_p	p	n/a
151.227	0.056	302454	keystroke_Key.space	Key.space	n/a
151.371	0.056	302742	keystroke_b	b	n/a
151.531	0.1125	303062	keystroke_r	r	n/a
151.6185	0.056	303237	keystroke_a	a	n/a
151.8665	0.0805	303733	keystroke_s	s	n/a
152.035	0.0555	304070	keystroke_Key.space	Key.space	n/a
152.3475	0.112	304695	keystroke_t	t	n/a
152.4275	0.072	304855	keystroke_a	a	n/a
152.5875	0.072	305175	keystroke_b	b	n/a
152.7405	0.071	305481	keystroke_l	l	n/a
152.7955	0.048	305591	keystroke_e	e	n/a
152.947	0.113	305894	keystroke_Key.enter	Key.enter	n/a
153.0635	6.9815	306127	prompt	n/a	wireless access appointments energy\n
153.699	0.072	307398	keystroke_w	w	n/a
153.811	0.0965	307622	keystroke_i	i	n/a
153.8835	0.112	307767	keystroke_r	r	n/a
153.9635	0.088	307927	keystroke_e	e	n/a
154.1075	0.096	308215	keystroke_l	l	n/a
154.2195	0.056	308439	keystroke_e	e	n/a
154.3795	0.08	308759	keystroke_s	s	n/a
154.5155	0.08	309031	keystroke_s	s	n/a
154.8035	0.088	309607	keystroke_Key.space	Key.space	n/a
154.9395	0.072	309879	keystroke_a	a	n/a
155.163	0.072	310326	keystroke_c	c	n/a
155.307	0.065	310614	keystroke_c	c	n/a
155.435	0.072	310870	keystroke_e	e	n/a
155.611	0.048	311222	keystroke_s	s	n/a
155.732	0.095	311464	keystroke_s	s	n/a
155.803	0.0715	311606	keystroke_Key.space	Key.space	n/a
155.987	0.0645	311974	keystroke_p	p	n/a
156.259	0.072	312518	keystroke_Key.backspace	Key.backspace	n/a
156.339	0.0885	312678	keystroke_a	a	n/a
156.4595	0.088	312919	keystroke_p	p	n/a
156.6115	0.104	313223	keystroke_p	p	n/a
156.7395	0.12	313479	keystroke_o	o	n/a
156.7795	0.088	313559	keystroke_i	i	n/a
157.099	0.088	314198	keystroke_t	t	n/a
157.5395	0.064	315079	keystroke_Key.backspace	Key.backspace	n/a
157.7075	0.064	315415	keystroke_n	n	n/a
157.7555	0.088	315511	keystroke_t	t	n/a
157.8835	0.088	315767	keystroke_m	m	n/a
158.0675	0.128	316135	keystroke_n	n	n/a
158.4435	0.072	316887	keystroke_Key.backspace	Key.backspace	n/a
158.5395	0.096	317079	keystroke_e	e	n/a
158.6275	0.112	317255	keystroke_n	n	n/a
158.7075	0.16	317415	keystroke_t	t	n/a
158.7875	0.104	317575	keystroke_s	s	n/a
158.8675	0.0555	317735	keystroke_Key.space	Key.space	n/a
159.211	0.072	318422	keystroke_e	e	n/a
159.347	0.088	318694	keystroke_n	n	n/a
159.371	0.12	318742	keystroke_e	e	n/a
159.483	0.072	318966	keystroke_r	r	n/a
159.635	0.088	319270	keystroke_g	g	n/a
159.747	0.088	319494	keystroke_y	y	n/a
159.947	0.096	319894	keystroke_Key.enter	Key.enter	n/a
160.0475	5.198	320095	prompt	n/a	charming expenditures anchor horses\n
160.595	0.08	321190	keystroke_c	c	n/a
160.683	0.088	321366	keystroke_h	h	n/a
160.747	0.096	321494	keystroke_a	a	n/a
160.859	0.0955	321718	keystroke_r	r	n/a
160.9315	0.112	321863	keystroke_m	m	n/a
161.0435	0.039	322087	keystroke_i	i	n/a
161.1305	0.137	322261	keystroke_n	n	n/a
161.1865	0.088	322373	keystroke_g	g	n/a
161.2345	0.08	322469	keystroke_Key.space	Key.space	n/a
161.3705	0.064	322741	keystroke_e	e	n/a
161.5155	0.087	323031	keystroke_x	x	n/a
161.6195	0.103	323239	keystroke_p	p	n/a
161.7625	0.096	323525	keystroke_n	n	n/a
162.131	0.0565	324262	keystroke_Key.backspace	Key.backspace	n/a
162.2355	0.048	324471	keystroke_e	e	n/a
162.2995	0.096	324599	keystroke_n	n	n/a
162.4115	0.08	324823	keystroke_d	d	n/a
162.5475	0.088	325095	keystroke_i	i	n/a
162.7955	0.088	325591	keystroke_t	t	n/a
163.0035	0.128	326007	keystroke_u	u	n/a
163.0835	0.192	326167	keystroke_r	r	n/a
163.1555	0.152	326311	keystroke_e	e	n/a
163.2355	0.104	326471	keystroke_s	s	n/a
163.3555	0.08	326711	keystroke_Key.space	Key.space	n/a
163.4915	0.088	326983	keystroke_a	a	n/a
163.6675	0.12	327335	keystroke_n	n	n/a
163.8435	0.088	327687	keystroke_c	c	n/a
163.9155	0.176	327831	keystroke_h	h	n/a
164.0195	0.112	328039	keystroke_o	o	n/a
164.1555	0.088	328311	keystroke_r	r	n/a
164.2435	0.016	328487	keystroke_Key.space	Key.space	n/a
164.3075	0.112	328615	keystroke_h	h	n/a
164.4195	0.128	328839	keystroke_o	o	n/a
164.6515	0.072	329303	keystroke_r	r	n/a
164.7945	0.089	329589	keystroke_s	s	n/a
164.8995	0.128	329799	keystroke_e	e	n/a
165.0115	0.055	330023	keystroke_s	s	n/a
165.1555	0.087	330311	keystroke_Key.enter	Key.enter	n/a
165.25	5.1955	330500	prompt	n/a	citysearch lambda omaha brutal\n
165.867	0.072	331734	keystroke_c	c	n/a
165.955	0.104	331910	keystroke_i	i	n/a
166.091	0.08	332182	keystroke_t	t	n/a
166.211	0.08	332422	keystroke_y	y	n/a
166.315	0.1195	332630	keystroke_s	s	n/a
166.5305	0.176	333061	keystroke_e	e	n/a
166.6275	0.096	333255	keystroke_a	a	n/a
166.7075	0.072	333415	keystroke_r	r	n/a
166.9065	0.152	333813	keystroke_c	c	n/a
167.0105	0.104	334021	keystroke_h	h	n/a
167.0425	0.104	334085	keystroke_Key.space	Key.space	n/a
167.2185	0.104	334437	keystroke_l	l	n/a
167.3065	0.104	334613	keystroke_a	a	n/a
167.4185	0.12	334837	keystroke_m	m	n/a
167.5545	0.0645	335109	keystroke_b	b	n/a
168.219	0.24	336438	keystroke_d	d	n/a
168.339	0.096	336678	keystroke_a	a	n/a
168.427	0.096	336854	keystroke_Key.space	Key.space	n/a
168.691	0.088	337382	keystroke_o	o	n/a
168.803	0.088	337606	keystroke_m	m	n/a
168.892	0.071	337784	keystroke_a	a	n/a
169.051	0.089	338102	keystroke_h	h	n/a
169.14	0.079	338280	keystroke_a	a	n/a
169.307	0.088	338614	keystroke_Key.space	Key.space	n/a
169.612	0.063	339224	keystroke_b	b	n/a
169.787	0.08	339574	keystroke_r	r	n/a
169.931	0.112	339862	keystroke_u	u	n/a
169.995	0.104	339990	keystroke_t	t	n/a
170.067	0.088	340134	keystroke_a	a	n/a
170.187	0.064	340374	keystroke_l	l	n/a
170.363	0.08	340726	keystroke_Key.enter	Key.enter	n/a
170.4485	4.989	340897	prompt	n/a	rational alpine gregory preparation\n
171.0835	0.104	342167	keystroke_r	r	n/a
171.1715	0.048	342343	keystroke_a	a	n/a
171.2995	0.096	342599	keystroke_t	t	n/a
171.3795	0.095	342759	keystroke_i	i	n/a
171.3865	0.144	342773	keystroke_o	o	n/a
171.4755	0.087	342951	keystroke_n	n	n/a
171.5555	0.079	343111	keystroke_a	a	n/a
171.6595	0.12	343319	keystroke_l	l	n/a
171.7545	0.096	343509	keystroke_Key.space	Key.space	n/a
171.8675	0.095	343735	keystroke_a	a	n/a
171.9635	0.095	343927	keystroke_p	p	n/a
172.267	0.072	344534	keystroke_Key.backspace	Key.backspace	n/a
172.451	0.064	344902	keystroke_l	l	n/a
172.563	0.096	345126	keystroke_p	p	n/a
172.675	0.072	345350	keystroke_i	i	n/a
172.795	0.144	345590	keystroke_n	n	n/a
172.867	0.088	345734	keystroke_e	e	n/a
172.931	0.072	345862	keystroke_Key.space	Key.space	n/a
173.091	0.048	346182	keystroke_g	g	n/a
173.259	0.072	346518	keystroke_r	r	n/a
173.299	0.072	346598	keystroke_e	e	n/a
173.451	0.08	346902	keystroke_g	g	n/a
173.579	0.096	347158	keystroke_o	o	n/a
173.675	0.104	347350	keystroke_r	r	n/a
173.779	0.096	347558	keystroke_y	y	n/a
173.827	0.08	347654	keystroke_Key.space	Key.space	n/a
173.987	0.12	347974	keystroke_p	p	n/a
174.059	0.128	348118	keystroke_r	r	n/a
174.132	0.087	348264	keystroke_e	e	n/a
174.243	0.112	348486	keystroke_p	p	n/a
174.315	0.112	348630	keystroke_a	a	n/a
174.459	0.112	348918	keystroke_r	r	n/a
174.811	0.096	349622	keystroke_a	a	n/a
174.939	0.0795	349878	keystroke_t	t	n/a
175.0275	0.143	350055	keystroke_i	i	n/a
175.1065	0.088	350213	keystroke_o	o	n/a
175.1315	0.095	350263	keystroke_n	n	n/a
175.3465	0.088	350693	keystroke_Key.enter	Key.enter	n/a
175.44	5.116	350880	prompt	n/a	pins expanding convergence slovak\n
176.027	0.08	352054	keystroke_p	p	n/a
176.243	0.104	352486	keystroke_n	n	n/a
176.5865	0.064	353173	keystroke_Key.backspace	Key.backspace	n/a
176.7385	0.072	353477	keystroke_i	i	n/a
176.8585	0.136	353717	keystroke_n	n	n/a
176.9305	0.089	353861	keystroke_s	s	n/a
176.9705	0.08	353941	keystroke_Key.space	Key.space	n/a
177.139	0.064	354278	keystroke_e	e	n/a
177.283	0.1125	354566	keystroke_x	x	n/a
177.411	0.112	354822	keystroke_p	p	n/a
177.523	0.088	355046	keystroke_a	a	n/a
177.579	0.112	355158	keystroke_n	n	n/a
177.723	0.088	355446	keystroke_d	d	n/a
177.787	0.072	355574	keystroke_i	i	n/a
177.883	0.144	355766	keystroke_n	n	n/a
177.979	0.08	355958	keystroke_g	g	n/a
178.035	0.08	356070	keystroke_Key.space	Key.space	n/a
178.331	0.096	356662	keystroke_c	c	n/a
178.371	0.136	356742	keystroke_o	o	n/a
178.451	0.136	356902	keystroke_n	n	n/a
178.515	0.08	357030	keystroke_v	v	n/a
178.651	0.144	357302	keystroke_e	e	n/a
178.739	0.072	357478	keystroke_r	r	n/a
178.899	0.072	357798	keystroke_g	g	n/a
178.979	0.104	357958	keystroke_e	e	n/a
179.099	0.152	358198	keystroke_n	n	n/a
179.235	0.048	358470	keystroke_c	c	n/a
179.251	0.112	358502	keystroke_e	e	n/a
179.331	0.104	358662	keystroke_Key.space	Key.space	n/a
179.787	0.088	359574	keystroke_s	s	n/a
179.859	0.064	359718	keystroke_l	l	n/a
180.019	0.088	360038	keystroke_o	o	n/a
180.099	0.104	360198	keystroke_v	v	n/a
180.171	0.096	360342	keystroke_a	a	n/a
180.283	0.08	360566	keystroke_k	k	n/a
180.467	0.088	360934	keystroke_Key.enter	Key.enter	n/a
180.559	4.078	361118	prompt	n/a	filtering get copper threat\n
181.035	0.088	362070	keystroke_p	p	n/a
181.371	0.072	362742	keystroke_Key.backspace	Key.backspace	n/a
181.475	0.08	362950	keystroke_f	f	n/a
181.563	0.048	363126	keystroke_i	i	n/a
181.675	0.112	363350	keystroke_l	l	n/a
181.771	0.08	363542	keystroke_t	t	n/a
181.891	0.1355	363782	keystroke_e	e	n/a
181.971	0.1115	363942	keystroke_r	r	n/a
182.0905	0.04	364181	keystroke_i	i	n/a
182.1625	0.128	364325	keystroke_n	n	n/a
182.2425	0.056	364485	keystroke_g	g	n/a
182.2665	0.072	364533	keystroke_Key.space	Key.space	n/a
182.427	0.064	364854	keystroke_g	g	n/a
182.539	0.128	365078	keystroke_e	e	n/a
182.619	0.112	365238	keystroke_t	t	n/a
182.707	0.088	365414	keystroke_Key.space	Key.space	n/a
182.891	0.0725	365782	keystroke_c	c	n/a
182.9545	0.072	365909	keystroke_o	o	n/a
183.1225	0.04	366245	keystroke_p	p	n/a
183.2425	0.064	366485	keystroke_p	p	n/a
183.3625	0.129	366725	keystroke_e	e	n/a
183.4105	0.096	366821	keystroke_r	r	n/a
183.8265	0.088	367653	keystroke_Key.space	Key.space	n/a
183.9545	0.088	367909	keystroke_t	t	n/a
184.0585	0.113	368117	keystroke_h	h	n/a
184.1225	0.144	368245	keystroke_r	r	n/a
184.2105	0.16	368421	keystroke_e	e	n/a
184.2755	0.119	368551	keystroke_a	a	n/a
184.3625	0.1045	368725	keystroke_t	t	n/a
184.539	0.096	369078	keystroke_Key.enter	Key.enter	n/a
184.64	4.413	369280	prompt	n/a	technology road projectors solar\n
185.291	0.103	370582	keystroke_t	t	n/a
185.363	0.088	370726	keystroke_e	e	n/a
185.555	0.064	371110	keystroke_c	c	n/a
185.603	0.056	371206	keystroke_h	h	n/a
185.763	0.08	371526	keystroke_n	n	n/a
185.939	0.064	371878	keystroke_o	o	n/a
186.107	0.064	372214	keystroke_l	l	n/a
186.243	0.112	372486	keystroke_o	o	n/a
186.4105	0.112	372821	keystroke_g	g	n/a
186.4825	0.12	372965	keystroke_y	y	n/a
186.5625	0.112	373125	keystroke_Key.space	Key.space	n/a
186.6505	0.112	373301	keystroke_r	r	n/a
186.7865	0.144	373573	keystroke_o	o	n/a
186.8905	0.128	373781	keystroke_a	a	n/a
187.0105	0.096	374021	keystroke_d	d	n/a
187.0745	0.088	374149	keystroke_Key.space	Key.space	n/a
187.2905	0.104	374581	keystroke_p	p	n/a
187.4025	0.08	374805	keystroke_r	r	n/a
187.4985	0.096	374997	keystroke_o	o	n/a
187.6105	0.128	375221	keystroke_j	j	n/a
187.6905	0.056	375381	keystroke_e	e	n/a
187.8345	0.056	375669	keystroke_c	c	n/a
188.019	0.071	376038	keystroke_t	t	n/a
188.131	0.136	376262	keystroke_o	o	n/a
188.202	0.153	376404	keystroke_r	r	n/a
188.282	0.105	376564	keystroke_s	s	n/a
188.346	0.089	376692	keystroke_Key.space	Key.space	n/a
188.475	0.088	376950	keystroke_s	s	n/a
188.539	0.056	377078	keystroke_o	o	n/a
188.675	0.12	377350	keystroke_l	l	n/a
188.746	0.081	377492	keystroke_a	a	n/a
188.787	0.112	377574	keystroke_r	r	n/a
188.963	0.087	377926	keystroke_Key.enter	Key.enter	n/a
189.058	4.002	378116	prompt	n/a	appointed head expertise jackie\n
189.547	0.088	379094	keystroke_a	a	n/a
189.651	0.088	379302	keystroke_p	p	n/a
189.7945	0.096	379589	keystroke_p	p	n/a
189.9545	0.152	379909	keystroke_o	o	n/a
190.0265	0.096	380053	keystroke_i	i	n/a
190.1465	0.12	380293	keystroke_n	n	n/a
190.2265	0.096	380453	keystroke_t	t	n/a
190.2985	0.04	380597	keystroke_e	e	n/a
190.4345	0.0965	380869	keystroke_d	d	n/a
190.498	0.064	380996	keystroke_Key.space	Key.space	n/a
190.683	0.095	381366	keystroke_h	h	n/a
190.866	0.089	381732	keystroke_e	e	n/a
190.93	0.1045	381860	keystroke_a	a	n/a
191.067	0.0555	382134	keystroke_d	d	n/a
191.1065	0.0805	382213	keystroke_Key.space	Key.space	n/a
191.2745	0.048	382549	keystroke_e	e	n/a
191.4025	0.096	382805	keystroke_x	x	n/a
191.515	0.1275	383030	keystroke_p	p	n/a
191.5945	0.128	383189	keystroke_e	e	n/a
191.699	0.0715	383398	keystroke_r	r	n/a
191.859	0.0875	383718	keystroke_t	t	n/a
191.9865	0.144	383973	keystroke_i	i	n/a
192.0505	0.1205	384101	keystroke_s	s	n/a
192.139	0.1115	384278	keystroke_e	e	n/a
192.2185	0.056	384437	keystroke_Key.space	Key.space	n/a
192.3385	0.1205	384677	keystroke_j	j	n/a
192.427	0.104	384854	keystroke_a	a	n/a
192.507	0.08	385014	keystroke_c	c	n/a
192.619	0.056	385238	keystroke_k	k	n/a
192.763	0.088	385526	keystroke_i	i	n/a
192.875	0.056	385750	keystroke_e	e	n/a
192.963	0.096	385926	keystroke_Key.enter	Key.enter	n/a
193.0655	6.0755	386131	prompt	n/a	thumbzilla sage opportunity plymouth\n
193.659	0.0875	387318	keystroke_t	t	n/a
193.7625	0.0565	387525	keystroke_h	h	n/a
193.915	0.048	387830	keystroke_u	u	n/a
194.075	0.1115	388150	keystroke_m	m	n/a
194.1945	0.0645	388389	keystroke_b	b	n/a
194.811	0.112	389622	keystroke_z	z	n/a
195.011	0.064	390022	keystroke_i	i	n/a
195.179	0.04	390358	keystroke_l	l	n/a
195.291	0.072	390582	keystroke_l	l	n/a
195.379	0.0955	390758	keystroke_a	a	n/a
195.435	0.128	390870	keystroke_Key.space	Key.space	n/a
195.603	0.104	391206	keystroke_s	s	n/a
195.667	0.128	391334	keystroke_a	a	n/a
195.819	0.112	391638	keystroke_g	g	n/a
195.907	0.1515	391814	keystroke_e	e	n/a
196.0105	0.0885	392021	keystroke_Key.space	Key.space	n/a
196.187	0.064	392374	keystroke_o	o	n/a
196.347	0.056	392694	keystroke_p	p	n/a
196.4665	0.064	392933	keystroke_p	p	n/a
196.6025	0.12	393205	keystroke_o	o	n/a
196.6905	0.064	393381	keystroke_r	r	n/a
196.8345	0.088	393669	keystroke_t	t	n/a
196.9145	0.0635	393829	keystroke_u	u	n/a
197.0665	0.0715	394133	keystroke_n	n	n/a
197.203	0.087	394406	keystroke_i	i	n/a
197.338	0.121	394676	keystroke_t	t	n/a
197.419	0.104	394838	keystroke_y	y	n/a
197.483	0.072	394966	keystroke_Key.space	Key.space	n/a
197.747	0.08	395494	keystroke_p	p	n/a
197.923	0.072	395846	keystroke_l	l	n/a
198.091	0.048	396182	keystroke_y	y	n/a
198.387	0.1035	396774	keystroke_m	m	n/a
198.5065	0.136	397013	keystroke_o	o	n/a
198.611	0.0795	397222	keystroke_u	u	n/a
198.7545	0.08	397509	keystroke_t	t	n/a
198.8025	0.081	397605	keystroke_h	h	n/a
199.0585	0.08	398117	keystroke_Key.enter	Key.enter	n/a
199.1435	4.7005	398287	prompt	n/a	investment costume allergy derived\n
199.7065	0.073	399413	keystroke_i	i	n/a
199.8505	0.128	399701	keystroke_n	n	n/a
199.9305	0.096	399861	keystroke_v	v	n/a
200.0505	0.12	400101	keystroke_e	e	n/a
200.1465	0.12	400293	keystroke_s	s	n/a
200.2505	0.08	400501	keystroke_t	t	n/a
200.3465	0.088	400693	keystroke_m	m	n/a
200.4345	0.136	400869	keystroke_e	e	n/a
200.5385	0.144	401077	keystroke_n	n	n/a
200.6345	0.096	401269	keystroke_t	t	n/a
200.6745	0.104	401349	keystroke_Key.space	Key.space	n/a
200.9465	0.088	401893	keystroke_c	c	n/a
201.0425	0.112	402085	keystroke_o	o	n/a
201.1385	0.096	402277	keystroke_s	s	n/a
201.2585	0.096	402517	keystroke_t	t	n/a
201.3625	0.064	402725	keystroke_u	u	n/a
201.5305	0.144	403061	keystroke_m	m	n/a
201.5865	0.112	403173	keystroke_e	e	n/a
201.6505	0.072	403301	keystroke_Key.space	Key.space	n/a
201.7945	0.096	403589	keystroke_a	a	n/a
201.9305	0.048	403861	keystroke_l	l	n/a
202.0585	0.08	404117	keystroke_l	l	n/a
202.1225	0.112	404245	keystroke_e	e	n/a
202.1865	0.08	404373	keystroke_r	r	n/a
202.3545	0.0955	404709	keystroke_g	g	n/a
202.459	0.119	404918	keystroke_y	y	n/a
202.522	0.08	405044	keystroke_Key.space	Key.space	n/a
202.667	0.071	405334	keystroke_d	d	n/a
202.81	0.1125	405620	keystroke_e	e	n/a
202.9385	0.072	405877	keystroke_r	r	n/a
203.0665	0.128	406133	keystroke_i	i	n/a
203.1385	0.064	406277	keystroke_v	v	n/a
203.2825	0.056	406565	keystroke_e	e	n/a
203.4265	0.064	406853	keystroke_d	d	n/a
203.7625	0.08	407525	keystroke_Key.enter	Key.enter	n/a
203.8475	5.4285	407695	prompt	n/a	footage world proposed municipality\n
204.354	0.064	408708	keystroke_f	f	n/a
204.458	0.064	408916	keystroke_o	o	n/a
204.586	0.112	409172	keystroke_o	o	n/a
204.682	0.089	409364	keystroke_t	t	n/a
204.73	0.112	409460	keystroke_a	a	n/a
204.866	0.1125	409732	keystroke_g	g	n/a
204.9145	0.128	409829	keystroke_e	e	n/a
205.0105	0.087	410021	keystroke_Key.space	Key.space	n/a
205.1465	0.088	410293	keystroke_w	w	n/a
205.2665	0.064	410533	keystroke_o	o	n/a
205.3615	0.089	410723	keystroke_r	r	n/a
205.5065	0.112	411013	keystroke_l	l	n/a
205.6105	0.128	411221	keystroke_d	d	n/a
205.6895	0.104	411379	keystroke_Key.space	Key.space	n/a
205.8745	0.088	411749	keystroke_p	p	n/a
206.0105	0.08	412021	keystroke_r	r	n/a
206.0985	0.072	412197	keystroke_o	o	n/a
206.2425	0.104	412485	keystroke_p	p	n/a
206.3945	0.1355	412789	keystroke_o	o	n/a
206.506	0.088	413012	keystroke_s	s	n/a
206.57	0.072	413140	keystroke_e	e	n/a
206.738	0.081	413476	keystroke_d	d	n/a
206.77	0.088	413540	keystroke_Key.space	Key.space	n/a
206.8985	0.0805	413797	keystroke_m	m	n/a
207.098	0.072	414196	keystroke_u	u	n/a
207.2985	0.064	414597	keystroke_n	n	n/a
207.4425	0.088	414885	keystroke_i	i	n/a
207.5465	0.08	415093	keystroke_c	c	n/a
207.6345	0.112	415269	keystroke_i	i	n/a
207.7385	0.096	415477	keystroke_p	p	n/a
207.9235	0.079	415847	keystroke_l	l	n/a
208.0185	0.08	416037	keystroke_a	a	n/a
208.3705	0.056	416741	keystroke_Key.backspace	Key.backspace	n/a
208.4745	0.048	416949	keystroke_Key.backspace	Key.backspace	n/a
208.5945	0.088	417189	keystroke_a	a	n/a
208.6745	0.056	417349	keystroke_l	l	n/a
208.7625	0.088	417525	keystroke_i	i	n/a
208.906	0.065	417812	keystroke_t	t	n/a
208.979	0.079	417958	keystroke_y	y	n/a
209.202	0.072	418404	keystroke_Key.enter	Key.enter	n/a
209.2795	4.2765	418559	prompt	n/a	tonight agency surprising security\n
209.93	0.088	419860	keystroke_t	t	n/a
210.019	0.0875	420038	keystroke_o	o	n/a
210.1145	0.12	420229	keystroke_n	n	n/a
210.2105	0.072	420421	keystroke_i	i	n/a
210.2985	0.072	420597	keystroke_g	g	n/a
210.3865	0.136	420773	keystroke_h	h	n/a
210.4585	0.096	420917	keystroke_t	t	n/a
210.5065	0.088	421013	keystroke_Key.space	Key.space	n/a
210.6265	0.104	421253	keystroke_a	a	n/a
210.7625	0.096	421525	keystroke_g	g	n/a
210.8665	0.112	421733	keystroke_e	e	n/a
210.9625	0.088	421925	keystroke_n	n	n/a
211.0825	0.112	422165	keystroke_c	c	n/a
211.1785	0.096	422357	keystroke_y	y	n/a
211.2345	0.096	422469	keystroke_Key.space	Key.space	n/a
211.3705	0.08	422741	keystroke_s	s	n/a
211.4665	0.104	422933	keystroke_u	u	n/a
211.5865	0.072	423173	keystroke_r	r	n/a
211.6505	0.12	423301	keystroke_p	p	n/a
211.7945	0.08	423589	keystroke_r	r	n/a
211.8825	0.088	423765	keystroke_i	i	n/a
211.9715	0.103	423943	keystroke_s	s	n/a
212.0505	0.064	424101	keystroke_i	i	n/a
212.1225	0.136	424245	keystroke_n	n	n/a
212.1865	0.08	424373	keystroke_g	g	n/a
212.2345	0.08	424469	keystroke_Key.space	Key.space	n/a
212.5465	0.112	425093	keystroke_s	s	n/a
212.6505	0.088	425301	keystroke_e	e	n/a
212.8025	0.08	425605	keystroke_c	c	n/a
212.8905	0.08	425781	keystroke_u	u	n/a
213.0105	0.088	426021	keystroke_r	r	n/a
213.0665	0.088	426133	keystroke_i	i	n/a
213.1945	0.08	426389	keystroke_t	t	n/a
213.2745	0.072	426549	keystroke_y	y	n/a
213.4825	0.072	426965	keystroke_Key.enter	Key.enter	n/a
213.5615	5.226	427123	prompt	n/a	accountability cleaning rivers editors\n
214.1385	0.072	428277	keystroke_a	a	n/a
214.2585	0.0475	428517	keystroke_c	c	n/a
214.394	0.056	428788	keystroke_c	c	n/a
214.466	0.104	428932	keystroke_o	o	n/a
214.786	0.064	429572	keystroke_u	u	n/a
214.97	0.112	429940	keystroke_n	n	n/a
215.05	0.104	430100	keystroke_t	t	n/a
215.138	0.04	430276	keystroke_a	a	n/a
215.29	0.072	430580	keystroke_b	b	n/a
215.378	0.072	430756	keystroke_i	i	n/a
215.514	0.12	431028	keystroke_l	l	n/a
215.594	0.0955	431188	keystroke_i	i	n/a
215.73	0.104	431460	keystroke_t	t	n/a
215.754	0.136	431508	keystroke_y	y	n/a
215.834	0.128	431668	keystroke_Key.space	Key.space	n/a
216.074	0.0795	432148	keystroke_c	c	n/a
216.1855	0.104	432371	keystroke_l	l	n/a
216.2655	0.1285	432531	keystroke_e	e	n/a
216.3455	0.0725	432691	keystroke_a	a	n/a
216.41	0.096	432820	keystroke_n	n	n/a
216.498	0.048	432996	keystroke_i	i	n/a
216.602	0.128	433204	keystroke_n	n	n/a
216.698	0.104	433396	keystroke_g	g	n/a
216.778	0.096	433556	keystroke_Key.space	Key.space	n/a
216.954	0.072	433908	keystroke_r	r	n/a
217.074	0.1205	434148	keystroke_i	i	n/a
217.1545	0.056	434309	keystroke_v	v	n/a
217.2745	0.16	434549	keystroke_e	e	n/a
217.3865	0.184	434773	keystroke_r	r	n/a
217.4825	0.112	434965	keystroke_s	s	n/a
217.5545	0.096	435109	keystroke_Key.space	Key.space	n/a
217.7625	0.056	435525	keystroke_e	e	n/a
217.9065	0.088	435813	keystroke_d	d	n/a
218.0265	0.08	436053	keystroke_i	i	n/a
218.1145	0.064	436229	keystroke_t	t	n/a
218.2585	0.104	436517	keystroke_o	o	n/a
218.4425	0.096	436885	keystroke_r	r	n/a
218.5865	0.08	437173	keystroke_s	s	n/a
218.6985	0.088	437397	keystroke_Key.enter	Key.enter	n/a
218.792	4.6995	437584	prompt	n/a	wisdom cite experimental strategies\n
219.4345	0.12	438869	keystroke_w	w	n/a
219.6105	0.096	439221	keystroke_i	i	n/a
219.8985	0.072	439797	keystroke_s	s	n/a
220.1305	0.08	440261	keystroke_d	d	n/a
220.242	0.152	440484	keystroke_o	o	n/a
220.362	0.112	440724	keystroke_m	m	n/a
220.402	0.104	440804	keystroke_Key.space	Key.space	n/a
220.562	0.072	441124	keystroke_c	c	n/a
220.643	0.159	441286	keystroke_i	i	n/a
220.77	0.136	441540	keystroke_t	t	n/a
220.842	0.104	441684	keystroke_e	e	n/a
220.907	0.071	441814	keystroke_Key.space	Key.space	n/a
221.026	0.072	442052	keystroke_e	e	n/a
221.162	0.08	442324	keystroke_x	x	n/a
221.274	0.112	442548	keystroke_p	p	n/a
221.33	0.128	442660	keystroke_e	e	n/a
221.45	0.089	442900	keystroke_r	r	n/a
221.53	0.057	443060	keystroke_i	i	n/a
221.666	0.104	443332	keystroke_m	m	n/a
221.747	0.111	443494	keystroke_e	e	n/a
221.866	0.096	443732	keystroke_n	n	n/a
221.946	0.136	443892	keystroke_t	t	n/a
222.018	0.112	444036	keystroke_a	a	n/a
222.122	0.128	444244	keystroke_l	l	n/a
222.186	0.12	444372	keystroke_Key.space	Key.space	n/a
222.33	0.104	444660	keystroke_s	s	n/a
222.45	0.056	444900	keystroke_t	t	n/a
222.618	0.073	445236	keystroke_r	r	n/a
222.658	0.12	445316	keystroke_a	a	n/a
222.786	0.096	445572	keystroke_t	t	n/a
222.842	0.08	445684	keystroke_e	e	n/a
222.994	0.08	445988	keystroke_g	g	n/a
223.098	0.121	446196	keystroke_i	i	n/a
223.178	0.12	446356	keystroke_e	e	n/a
223.266	0.096	446532	keystroke_s	s	n/a
223.41	0.08	446820	keystroke_Key.enter	Key.enter	n/a
223.4945	3.7255	446989	prompt	n/a	clan civilization oakland zone\n
224.122	0.104	448244	keystroke_c	c	n/a
224.21	0.08	448420	keystroke_l	l	n/a
224.298	0.104	448596	keystroke_a	a	n/a
224.386	0.104	448772	keystroke_n	n	n/a
224.45	0.08	448900	keystroke_Key.space	Key.space	n/a
224.5865	0.072	449173	keystroke_c	c	n/a
224.6745	0.0715	449349	keystroke_i	i	n/a
224.8105	0.072	449621	keystroke_v	v	n/a
224.842	0.057	449684	keystroke_i	i	n/a
224.97	0.104	449940	keystroke_l	l	n/a
225.075	0.111	450150	keystroke_i	i	n/a
225.17	0.088	450340	keystroke_z	z	n/a
225.338	0.064	450676	keystroke_a	a	n/a
225.41	0.1045	450820	keystroke_t	t	n/a
225.49	0.1125	450980	keystroke_i	i	n/a
225.5305	0.112	451061	keystroke_o	o	n/a
225.5625	0.112	451125	keystroke_n	n	n/a
225.6265	0.088	451253	keystroke_Key.space	Key.space	n/a
225.8345	0.08	451669	keystroke_o	o	n/a
225.9225	0.088	451845	keystroke_a	a	n/a
226.0825	0.064	452165	keystroke_k	k	n/a
226.2265	0.104	452453	keystroke_l	l	n/a
226.3225	0.096	452645	keystroke_a	a	n/a
226.4185	0.1355	452837	keystroke_n	n	n/a
226.4745	0.0955	452949	keystroke_d	d	n/a
226.554	0.096	453108	keystroke_Key.space	Key.space	n/a
226.73	0.057	453460	keystroke_z	z	n/a
226.77	0.136	453540	keystroke_o	o	n/a
226.85	0.088	453700	keystroke_n	n	n/a
226.986	0.072	453972	keystroke_e	e	n/a
227.138	0.08	454276	keystroke_Key.enter	Key.enter	n/a
227.2235	4.661	454447	prompt	n/a	schedules yorkshire winner annotation\n
227.7865	0.079	455573	keystroke_s	s	n/a
227.9135	0.072	455827	keystroke_c	c	n/a
228.0025	0.096	456005	keystroke_h	h	n/a
228.0825	0.048	456165	keystroke_e	e	n/a
228.2265	0.08	456453	keystroke_d	d	n/a
228.2815	0.105	456563	keystroke_u	u	n/a
228.3865	0.16	456773	keystroke_l	l	n/a
228.4495	0.129	456899	keystroke_e	e	n/a
228.5225	0.095	457045	keystroke_s	s	n/a
228.5695	0.096	457139	keystroke_Key.space	Key.space	n/a
228.8255	0.104	457651	keystroke_y	y	n/a
228.9055	0.112	457811	keystroke_o	o	n/a
229.0415	0.08	458083	keystroke_r	r	n/a
229.1545	0.104	458309	keystroke_k	k	n/a
229.2655	0.088	458531	keystroke_s	s	n/a
229.4015	0.192	458803	keystroke_h	h	n/a
229.4655	0.161	458931	keystroke_i	i	n/a
229.5455	0.104	459091	keystroke_r	r	n/a
229.5855	0.104	459171	keystroke_e	e	n/a
229.6415	0.0885	459283	keystroke_Key.space	Key.space	n/a
229.7935	0.081	459587	keystroke_w	w	n/a
229.8655	0.064	459731	keystroke_i	i	n/a
230.0095	0.048	460019	keystroke_n	n	n/a
230.1215	0.112	460243	keystroke_n	n	n/a
230.1775	0.16	460355	keystroke_e	e	n/a
230.2495	0.112	460499	keystroke_r	r	n/a
230.3215	0.08	460643	keystroke_Key.space	Key.space	n/a
230.6265	0.087	461253	keystroke_a	a	n/a
230.7455	0.064	461491	keystroke_n	n	n/a
230.8655	0.081	461731	keystroke_n	n	n/a
231.0025	0.128	462005	keystroke_o	o	n/a
231.17	0.088	462340	keystroke_t	t	n/a
231.266	0.12	462532	keystroke_a	a	n/a
231.363	0.0795	462726	keystroke_t	t	n/a
231.4505	0.096	462901	keystroke_i	i	n/a
231.4665	0.128	462933	keystroke_o	o	n/a
231.5545	0.08	463109	keystroke_n	n	n/a
231.8015	0.081	463603	keystroke_Key.enter	Key.enter	n/a
231.888	5.8675	463776	prompt	n/a	assumption nevertheless territory fantasy\n
232.4105	0.072	464821	keystroke_a	a	n/a
232.5705	0.072	465141	keystroke_s	s	n/a
232.7305	0.08	465461	keystroke_s	s	n/a
232.7945	0.056	465589	keystroke_u	u	n/a
232.954	0.128	465908	keystroke_m	m	n/a
233.034	0.12	466068	keystroke_p	p	n/a
233.203	0.087	466406	keystroke_t	t	n/a
233.298	0.128	466596	keystroke_i	i	n/a
233.338	0.177	466676	keystroke_o	o	n/a
233.426	0.112	466852	keystroke_n	n	n/a
233.506	0.072	467012	keystroke_Key.space	Key.space	n/a
233.666	0.104	467332	keystroke_n	n	n/a
233.73	0.096	467460	keystroke_e	e	n/a
234.034	0.08	468068	keystroke_v	v	n/a
234.234	0.104	468468	keystroke_e	e	n/a
234.402	0.08	468804	keystroke_r	r	n/a
234.594	0.08	469188	keystroke_t	t	n/a
234.698	0.104	469396	keystroke_h	h	n/a
234.794	0.056	469588	keystroke_e	e	n/a
234.9775	0.088	469955	keystroke_l	l	n/a
235.0905	0.048	470181	keystroke_e	e	n/a
235.2505	0.071	470501	keystroke_s	s	n/a
235.3855	0.0805	470771	keystroke_s	s	n/a
235.4415	0.0645	470883	keystroke_Key.space	Key.space	n/a
235.586	0.064	471172	keystroke_t	t	n/a
235.73	0.08	471460	keystroke_e	e	n/a
235.898	0.048	471796	keystroke_r	r	n/a
236.026	0.064	472052	keystroke_r	r	n/a
236.13	0.072	472260	keystroke_i	i	n/a
236.234	0.08	472468	keystroke_t	t	n/a
236.29	0.12	472580	keystroke_o	o	n/a
236.426	0.1035	472852	keystroke_r	r	n/a
236.5375	0.104	473075	keystroke_y	y	n/a
236.5935	0.088	473187	keystroke_Key.space	Key.space	n/a
236.7295	0.105	473459	keystroke_f	f	n/a
236.8095	0.1125	473619	keystroke_a	a	n/a
237.034	0.104	474068	keystroke_n	n	n/a
237.122	0.112	474244	keystroke_t	t	n/a
237.202	0.064	474404	keystroke_a	a	n/a
237.33	0.104	474660	keystroke_s	s	n/a
237.498	0.072	474996	keystroke_y	y	n/a
237.666	0.088	475332	keystroke_Key.enter	Key.enter	n/a
237.759	4.4045	475518	prompt	n/a	fingers climate ottawa eggs\n
238.234	0.088	476468	keystroke_f	f	n/a
238.354	0.072	476708	keystroke_i	i	n/a
238.45	0.112	476900	keystroke_n	n	n/a
238.49	0.064	476980	keystroke_g	g	n/a
238.602	0.2	477204	keystroke_e	e	n/a
238.698	0.152	477396	keystroke_r	r	n/a
238.778	0.12	477556	keystroke_s	s	n/a
238.826	0.104	477652	keystroke_Key.space	Key.space	n/a
239.018	0.088	478036	keystroke_c	c	n/a
239.09	0.064	478180	keystroke_l	l	n/a
239.21	0.064	478420	keystroke_i	i	n/a
239.338	0.168	478676	keystroke_m	m	n/a
239.395	0.119	478790	keystroke_a	a	n/a
239.482	0.136	478964	keystroke_t	t	n/a
239.546	0.104	479092	keystroke_e	e	n/a
239.586	0.088	479172	keystroke_Key.space	Key.space	n/a
239.746	0.088	479492	keystroke_o	o	n/a
239.842	0.056	479684	keystroke_t	t	n/a
239.986	0.064	479972	keystroke_t	t	n/a
240.4735	0.104	480947	keystroke_a	a	n/a
240.7705	0.095	481541	keystroke_w	w	n/a
240.8335	0.112	481667	keystroke_a	a	n/a
241.1055	0.056	482211	keystroke_Key.space	Key.space	n/a
241.4815	0.073	482963	keystroke_e	e	n/a
241.7295	0.072	483459	keystroke_g	g	n/a
241.8745	0.079	483749	keystroke_g	g	n/a
241.9135	0.096	483827	keystroke_s	s	n/a
242.0825	0.079	484165	keystroke_Key.enter	Key.enter	n/a
242.1695	6.994	484339	prompt	n/a	routines george christianity associate\n
242.7455	0.073	485491	keystroke_n	n	n/a
243.194	0.048	486388	keystroke_Key.backspace	Key.backspace	n/a
243.274	0.096	486548	keystroke_r	r	n/a
243.378	0.12	486756	keystroke_o	o	n/a
243.474	0.104	486948	keystroke_u	u	n/a
243.914	0.072	487828	keystroke_t	t	n/a
243.986	0.072	487972	keystroke_i	i	n/a
244.098	0.144	488196	keystroke_n	n	n/a
244.154	0.152	488308	keystroke_e	e	n/a
244.297	0.073	488594	keystroke_Key.space	Key.space	n/a
244.626	0.064	489252	keystroke_Key.backspace	Key.backspace	n/a
244.666	0.12	489332	keystroke_s	s	n/a
244.754	0.048	489508	keystroke_Key.space	Key.space	n/a
244.858	0.072	489716	keystroke_g	g	n/a
244.986	0.168	489972	keystroke_e	e	n/a
245.114	0.064	490228	keystroke_r	r	n/a
245.234	0.112	490468	keystroke_o	o	n/a
245.618	0.064	491236	keystroke_Key.backspace	Key.backspace	n/a
245.738	0.056	491476	keystroke_Key.backspace	Key.backspace	n/a
245.906	0.104	491812	keystroke_o	o	n/a
245.962	0.072	491924	keystroke_r	r	n/a
246.106	0.112	492212	keystroke_g	g	n/a
246.162	0.136	492324	keystroke_e	e	n/a
246.242	0.096	492484	keystroke_Key.space	Key.space	n/a
246.442	0.104	492884	keystroke_c	c	n/a
246.562	0.12	493124	keystroke_h	h	n/a
246.674	0.088	493348	keystroke_r	r	n/a
246.786	0.088	493572	keystroke_i	i	n/a
246.874	0.112	493748	keystroke_s	s	n/a
246.962	0.088	493924	keystroke_t	t	n/a
247.01	0.104	494020	keystroke_i	i	n/a
247.202	0.064	494404	keystroke_a	a	n/a
247.586	0.056	495172	keystroke_n	n	n/a
247.737	0.089	495474	keystroke_i	i	n/a
247.858	0.104	495716	keystroke_t	t	n/a
247.946	0.112	495892	keystroke_y	y	n/a
248.01	0.12	496020	keystroke_Key.space	Key.space	n/a
248.098	0.064	496196	keystroke_a	a	n/a
248.25	0.064	496500	keystroke_s	s	n/a
248.378	0.08	496756	keystroke_s	s	n/a
248.466	0.088	496932	keystroke_o	o	n/a
248.57	0.072	497140	keystroke_c	c	n/a
248.666	0.104	497332	keystroke_i	i	n/a
248.762	0.08	497524	keystroke_a	a	n/a
248.858	0.096	497716	keystroke_t	t	n/a
248.914	0.072	497828	keystroke_e	e	n/a
249.074	0.087	498148	keystroke_Key.enter	Key.enter	n/a
249.169	5.802	498338	prompt	n/a	remedy difficult subscriptions platforms\n
249.738	0.096	499476	keystroke_r	r	n/a
249.85	0.088	499700	keystroke_e	e	n/a
249.962	0.104	499924	keystroke_m	m	n/a
250.026	0.056	500052	keystroke_e	e	n/a
250.162	0.112	500324	keystroke_d	d	n/a
250.29	0.104	500580	keystroke_y	y	n/a
250.353	0.072	500706	keystroke_Key.space	Key.space	n/a
250.45	0.072	500900	keystroke_d	d	n/a
250.586	0.064	501172	keystroke_i	i	n/a
250.69	0.048	501380	keystroke_f	f	n/a
250.818	0.056	501636	keystroke_f	f	n/a
250.914	0.072	501828	keystroke_i	i	n/a
250.978	0.0805	501956	keystroke_c	c	n/a
251.042	0.08	502084	keystroke_u	u	n/a
251.178	0.152	502356	keystroke_l	l	n/a
251.25	0.088	502500	keystroke_t	t	n/a
251.305	0.081	502610	keystroke_Key.space	Key.space	n/a
251.57	0.096	503140	keystroke_s	s	n/a
251.698	0.08	503396	keystroke_u	u	n/a
252.1145	0.071	504229	keystroke_b	b	n/a
252.2825	0.088	504565	keystroke_s	s	n/a
252.4505	0.071	504901	keystroke_c	c	n/a
252.6425	0.079	505285	keystroke_r	r	n/a
252.7375	0.112	505475	keystroke_i	i	n/a
252.9455	0.104	505891	keystroke_p	p	n/a
253.1855	0.089	506371	keystroke_t	t	n/a
253.2895	0.136	506579	keystroke_i	i	n/a
253.3215	0.184	506643	keystroke_o	o	n/a
253.4175	0.152	506835	keystroke_n	n	n/a
253.4905	0.111	506981	keystroke_s	s	n/a
253.5855	0.096	507171	keystroke_Key.space	Key.space	n/a
253.818	0.0885	507636	keystroke_p	p	n/a
253.986	0.128	507972	keystroke_l	l	n/a
254.05	0.112	508100	keystroke_a	a	n/a
254.202	0.056	508404	keystroke_t	t	n/a
254.378	0.056	508756	keystroke_f	f	n/a
254.45	0.1115	508900	keystroke_o	o	n/a
254.5695	0.073	509139	keystroke_r	r	n/a
254.6495	0.096	509299	keystroke_m	m	n/a
254.7535	0.072	509507	keystroke_s	s	n/a
254.8815	0.088	509763	keystroke_Key.enter	Key.enter	n/a
254.974	5.469	509948	prompt	n/a	approximately nothing macedonia variance\n
255.4575	0.088	510915	keystroke_a	a	n/a
255.5935	0.072	511187	keystroke_p	p	n/a
255.7215	0.096	511443	keystroke_p	p	n/a
255.8735	0.064	511747	keystroke_r	r	n/a
255.9545	0.119	511909	keystroke_o	o	n/a
256.0815	0.08	512163	keystroke_x	x	n/a
256.1695	0.056	512339	keystroke_i	i	n/a
256.2895	0.112	512579	keystroke_m	m	n/a
256.3615	0.096	512723	keystroke_a	a	n/a
256.4495	0.128	512899	keystroke_t	t	n/a
256.5135	0.112	513027	keystroke_e	e	n/a
256.6015	0.072	513203	keystroke_l	l	n/a
256.7455	0.105	513491	keystroke_y	y	n/a
256.8335	0.064	513667	keystroke_Key.space	Key.space	n/a
257.002	0.08	514004	keystroke_n	n	n/a
257.066	0.112	514132	keystroke_o	o	n/a
257.258	0.072	514516	keystroke_t	t	n/a
257.266	0.104	514532	keystroke_h	h	n/a
257.338	0.063	514676	keystroke_i	i	n/a
257.49	0.128	514980	keystroke_n	n	n/a
257.561	0.089	515122	keystroke_g	g	n/a
257.618	0.095	515236	keystroke_Key.space	Key.space	n/a
258.3055	0.112	516611	keystroke_m	m	n/a
258.3855	0.064	516771	keystroke_a	a	n/a
258.5215	0.064	517043	keystroke_c	c	n/a
258.6575	0.056	517315	keystroke_e	e	n/a
258.8335	0.0875	517667	keystroke_d	d	n/a
258.954	0.088	517908	keystroke_o	o	n/a
259.065	0.144	518130	keystroke_n	n	n/a
259.137	0.12	518274	keystroke_i	i	n/a
259.233	0.104	518466	keystroke_a	a	n/a
259.297	0.081	518594	keystroke_Key.space	Key.space	n/a
259.522	0.08	519044	keystroke_v	v	n/a
259.593	0.104	519186	keystroke_a	a	n/a
259.738	0.095	519476	keystroke_r	r	n/a
259.85	0.079	519700	keystroke_i	i	n/a
259.913	0.121	519826	keystroke_a	a	n/a
260.058	0.105	520116	keystroke_n	n	n/a
260.122	0.08	520244	keystroke_c	c	n/a
260.178	0.064	520356	keystroke_e	e	n/a
260.354	0.088	520708	keystroke_Key.enter	Key.enter	n/a
260.4465	4.1565	520893	prompt	n/a	devel counting checking psychology\n
260.938	0.088	521876	keystroke_d	d	n/a
261.082	0.072	522164	keystroke_e	e	n/a
261.226	0.056	522452	keystroke_v	v	n/a
261.322	0.104	522644	keystroke_e	e	n/a
261.442	0.112	522884	keystroke_l	l	n/a
261.578	0.056	523156	keystroke_Key.space	Key.space	n/a
261.69	0.096	523380	keystroke_c	c	n/a
261.762	0.096	523524	keystroke_o	o	n/a
261.81	0.064	523620	keystroke_u	u	n/a
261.97	0.088	523940	keystroke_n	n	n/a
262.058	0.088	524116	keystroke_t	t	n/a
262.13	0.064	524260	keystroke_i	i	n/a
262.218	0.12	524436	keystroke_n	n	n/a
262.29	0.056	524580	keystroke_g	g	n/a
262.322	0.088	524644	keystroke_Key.space	Key.space	n/a
262.474	0.072	524948	keystroke_c	c	n/a
262.538	0.104	525076	keystroke_h	h	n/a
262.618	0.08	525236	keystroke_e	e	n/a
262.722	0.104	525444	keystroke_c	c	n/a
262.818	0.048	525636	keystroke_k	k	n/a
262.938	0.072	525876	keystroke_i	i	n/a
263.018	0.128	526036	keystroke_n	n	n/a
263.066	0.088	526132	keystroke_g	g	n/a
263.122	0.088	526244	keystroke_Key.space	Key.space	n/a
263.226	0.144	526452	keystroke_p	p	n/a
263.37	0.088	526740	keystroke_s	s	n/a
263.506	0.08	527012	keystroke_y	y	n/a
263.546	0.088	527092	keystroke_c	c	n/a
263.69	0.096	527380	keystroke_h	h	n/a
263.754	0.072	527508	keystroke_o	o	n/a
263.93	0.056	527860	keystroke_l	l	n/a
264.066	0.088	528132	keystroke_o	o	n/a
264.202	0.08	528404	keystroke_g	g	n/a
264.274	0.08	528548	keystroke_y	y	n/a
264.53	0.072	529060	keystroke_Key.enter	Key.enter	n/a
264.6065	5.9805	529213	prompt	n/a	twiki roger royal brunei\n
265.202	0.08	530404	keystroke_t	t	n/a
265.41	0.056	530820	keystroke_r	r	n/a
265.706	0.064	531412	keystroke_Key.backspace	Key.backspace	n/a
265.778	0.064	531556	keystroke_w	w	n/a
265.906	0.056	531812	keystroke_i	i	n/a
266.17	0.056	532340	keystroke_i	i	n/a
266.442	0.056	532884	keystroke_Key.backspace	Key.backspace	n/a
266.594	0.064	533188	keystroke_k	k	n/a
266.738	0.096	533476	keystroke_i	i	n/a
266.818	0.096	533636	keystroke_Key.space	Key.space	n/a
266.93	0.072	533860	keystroke_r	r	n/a
267.01	0.136	534020	keystroke_o	o	n/a
267.098	0.072	534196	keystroke_g	g	n/a
267.218	0.152	534436	keystroke_e	e	n/a
267.306	0.08	534612	keystroke_r	r	n/a
267.362	0.08	534724	keystroke_Key.space	Key.space	n/a
267.53	0.08	535060	keystroke_r	r	n/a
267.618	0.096	535236	keystroke_o	o	n/a
267.682	0.112	535364	keystroke_a	a	n/a
267.786	0.072	535572	keystroke_y	y	n/a
267.946	0.104	535892	keystroke_l	l	n/a
268.282	0.064	536564	keystroke_Key.backspace	Key.backspace	n/a
268.386	0.072	536772	keystroke_Key.backspace	Key.backspace	n/a
268.474	0.088	536948	keystroke_Key.backspace	Key.backspace	n/a
268.69	0.04	537380	keystroke_Key.backspace	Key.backspace	n/a
269.0495	0.1045	538099	keystroke_o	o	n/a
269.226	0.08	538452	keystroke_y	y	n/a
269.338	0.0955	538676	keystroke_a	a	n/a
269.426	0.128	538852	keystroke_l	l	n/a
269.5135	0.0965	539027	keystroke_Key.space	Key.space	n/a
269.73	0.049	539460	keystroke_b	b	n/a
269.89	0.0715	539780	keystroke_r	r	n/a
269.9455	0.04	539891	keystroke_u	u	n/a
270.0975	0.088	540195	keystroke_n	n	n/a
270.1935	0.08	540387	keystroke_e	e	n/a
270.338	0.0715	540676	keystroke_i	i	n/a
270.4975	0.088	540995	keystroke_Key.enter	Key.enter	n/a
270.59	4.845	541180	prompt	n/a	finder emotions joseph explore\n
271.1455	0.072	542291	keystroke_f	f	n/a
271.2015	0.056	542403	keystroke_i	i	n/a
271.2895	0.112	542579	keystroke_n	n	n/a
271.3375	0.072	542675	keystroke_g	g	n/a
271.6815	0.072	543363	keystroke_Key.backspace	Key.backspace	n/a
271.7135	0.072	543427	keystroke_d	d	n/a
271.8415	0.152	543683	keystroke_e	e	n/a
271.9535	0.088	543907	keystroke_r	r	n/a
272.1455	0.08	544291	keystroke_e	e	n/a
272.2335	0.128	544467	keystroke_m	m	n/a
272.5135	0.048	545027	keystroke_Key.backspace	Key.backspace	n/a
272.6255	0.064	545251	keystroke_Key.backspace	Key.backspace	n/a
272.6975	0.056	545395	keystroke_Key.space	Key.space	n/a
272.7535	0.088	545507	keystroke_e	e	n/a
272.8495	0.096	545699	keystroke_m	m	n/a
272.9305	0.103	545861	keystroke_o	o	n/a
273.2575	0.088	546515	keystroke_t	t	n/a
273.3615	0.128	546723	keystroke_i	i	n/a
273.4095	0.16	546819	keystroke_o	o	n/a
273.4815	0.12	546963	keystroke_n	n	n/a
273.5775	0.088	547155	keystroke_s	s	n/a
273.6255	0.056	547251	keystroke_Key.space	Key.space	n/a
273.7455	0.08	547491	keystroke_j	j	n/a
273.8895	0.104	547779	keystroke_o	o	n/a
274.0495	0.096	548099	keystroke_s	s	n/a
274.1535	0.1115	548307	keystroke_e	e	n/a
274.249	0.08	548498	keystroke_p	p	n/a
274.361	0.12	548722	keystroke_h	h	n/a
274.449	0.088	548898	keystroke_Key.space	Key.space	n/a
274.553	0.056	549106	keystroke_e	e	n/a
274.713	0.08	549426	keystroke_x	x	n/a
274.793	0.088	549586	keystroke_p	p	n/a
274.937	0.064	549874	keystroke_l	l	n/a
275.073	0.1045	550146	keystroke_o	o	n/a
275.1615	0.112	550323	keystroke_r	r	n/a
275.2175	0.08	550435	keystroke_e	e	n/a
275.3535	0.08	550707	keystroke_Key.enter	Key.enter	n/a
275.4385	4.876	550877	prompt	n/a	renewal whom ctrl jewelry\n
276.0495	0.08	552099	keystroke_r	r	n/a
276.1615	0.08	552323	keystroke_e	e	n/a
276.2495	0.088	552499	keystroke_n	n	n/a
276.3455	0.064	552691	keystroke_e	e	n/a
276.809	0.088	553618	keystroke_w	w	n/a
276.913	0.128	553826	keystroke_a	a	n/a
277.097	0.112	554194	keystroke_l	l	n/a
277.193	0.064	554386	keystroke_Key.space	Key.space	n/a
277.265	0.096	554530	keystroke_w	w	n/a
277.369	0.08	554738	keystroke_h	h	n/a
277.425	0.081	554850	keystroke_o	o	n/a
277.577	0.12	555154	keystroke_m	m	n/a
277.673	0.048	555346	keystroke_Key.space	Key.space	n/a
277.777	0.072	555554	keystroke_c	c	n/a
278.034	0.048	556068	keystroke_t	t	n/a
278.186	0.063	556372	keystroke_r	r	n/a
278.281	0.104	556562	keystroke_l	l	n/a
278.369	0.08	556738	keystroke_Key.space	Key.space	n/a
278.4975	0.096	556995	keystroke_j	j	n/a
278.61	0.063	557220	keystroke_e	e	n/a
278.841	0.088	557682	keystroke_w	w	n/a
279.041	0.048	558082	keystroke_e	e	n/a
279.369	0.032	558738	keystroke_e	e	n/a
279.689	0.0645	559378	keystroke_Key.backspace	Key.backspace	n/a
279.8735	0.0885	559747	keystroke_l	l	n/a
279.937	0.073	559874	keystroke_r	r	n/a
280.066	0.072	560132	keystroke_y	y	n/a
280.233	0.08	560466	keystroke_Key.enter	Key.enter	n/a
280.3185	4.932	560637	prompt	n/a	must've obtaining does filter\n
280.9295	0.0715	561859	keystroke_m	m	n/a
281.105	0.104	562210	keystroke_u	u	n/a
281.217	0.048	562434	keystroke_s	s	n/a
281.249	0.064	562498	keystroke_t	t	n/a
281.481	0.032	562962	keystroke_v	v	n/a
281.625	0.104	563250	keystroke_'	'	n/a
281.922	0.063	563844	keystroke_Key.backspace	Key.backspace	n/a
282.049	0.04	564098	keystroke_Key.backspace	Key.backspace	n/a
282.201	0.104	564402	keystroke_'	'	n/a
282.297	0.064	564594	keystroke_v	v	n/a
282.425	0.128	564850	keystroke_e	e	n/a
282.521	0.072	565042	keystroke_Key.space	Key.space	n/a
282.977	0.097	565954	keystroke_o	o	n/a
283.185	0.088	566370	keystroke_b	b	n/a
283.385	0.096	566770	keystroke_t	t	n/a
283.449	0.104	566898	keystroke_a	a	n/a
283.545	0.064	567090	keystroke_i	i	n/a
283.641	0.088	567282	keystroke_n	n	n/a
283.737	0.056	567474	keystroke_i	i	n/a
283.841	0.112	567682	keystroke_n	n	n/a
283.929	0.064	567858	keystroke_g	g	n/a
283.969	0.104	567938	keystroke_Key.space	Key.space	n/a
284.161	0.08	568322	keystroke_d	d	n/a
284.273	0.12	568546	keystroke_o	o	n/a
284.321	0.144	568642	keystroke_e	e	n/a
284.394	0.111	568788	keystroke_s	s	n/a
284.465	0.072	568930	keystroke_Key.space	Key.space	n/a
284.585	0.08	569170	keystroke_f	f	n/a
284.673	0.081	569346	keystroke_i	i	n/a
284.729	0.136	569458	keystroke_l	l	n/a
284.857	0.064	569714	keystroke_t	t	n/a
284.929	0.152	569858	keystroke_e	e	n/a
285.025	0.104	570050	keystroke_r	r	n/a
285.161	0.088	570322	keystroke_Key.enter	Key.enter	n/a
285.253	4.2535	570506	prompt	n/a	send confusion suse awareness\n
285.833	0.096	571666	keystroke_s	s	n/a
285.969	0.072	571938	keystroke_e	e	n/a
286.081	0.112	572162	keystroke_n	n	n/a
286.137	0.08	572274	keystroke_d	d	n/a
286.209	0.04	572418	keystroke_Key.space	Key.space	n/a
286.321	0.12	572642	keystroke_o	o	n/a
286.449	0.056	572898	keystroke_n	n	n/a
286.705	0.072	573410	keystroke_Key.backspace	Key.backspace	n/a
286.849	0.056	573698	keystroke_Key.backspace	Key.backspace	n/a
286.937	0.096	573874	keystroke_c	c	n/a
287.041	0.12	574082	keystroke_o	o	n/a
287.122	0.087	574244	keystroke_n	n	n/a
287.201	0.088	574402	keystroke_f	f	n/a
287.353	0.088	574706	keystroke_u	u	n/a
287.433	0.112	574866	keystroke_s	s	n/a
287.537	0.112	575074	keystroke_i	i	n/a
287.593	0.144	575186	keystroke_o	o	n/a
287.657	0.112	575314	keystroke_n	n	n/a
287.729	0.072	575458	keystroke_Key.space	Key.space	n/a
287.809	0.064	575618	keystroke_s	s	n/a
287.937	0.1195	575874	keystroke_u	u	n/a
287.993	0.1035	575986	keystroke_s	s	n/a
288.0885	0.105	576177	keystroke_e	e	n/a
288.1695	0.087	576339	keystroke_Key.space	Key.space	n/a
288.2965	0.096	576593	keystroke_a	a	n/a
288.4975	0.063	576995	keystroke_w	w	n/a
288.5375	0.112	577075	keystroke_a	a	n/a
288.6645	0.121	577329	keystroke_r	r	n/a
288.7535	0.087	577507	keystroke_e	e	n/a
288.906	0.0785	577812	keystroke_n	n	n/a
289.0095	0.056	578019	keystroke_e	e	n/a
289.1605	0.065	578321	keystroke_s	s	n/a
289.2965	0.072	578593	keystroke_s	s	n/a
289.4245	0.08	578849	keystroke_Key.enter	Key.enter	n/a
289.5115	3.955	579023	prompt	n/a	headlines york restoration dose\n
290.0895	0.112	580179	keystroke_h	h	n/a
290.1855	0.08	580371	keystroke_e	e	n/a
290.2095	0.088	580419	keystroke_a	a	n/a
290.4655	0.056	580931	keystroke_d	d	n/a
290.5455	0.0485	581091	keystroke_l	l	n/a
290.625	0.08	581250	keystroke_i	i	n/a
290.737	0.136	581474	keystroke_n	n	n/a
290.833	0.136	581666	keystroke_e	e	n/a
290.873	0.144	581746	keystroke_s	s	n/a
290.962	0.087	581924	keystroke_Key.space	Key.space	n/a
291.105	0.096	582210	keystroke_y	y	n/a
291.153	0.088	582306	keystroke_o	o	n/a
291.265	0.104	582530	keystroke_r	r	n/a
291.361	0.128	582722	keystroke_k	k	n/a
291.457	0.096	582914	keystroke_Key.space	Key.space	n/a
291.617	0.136	583234	keystroke_r	r	n/a
291.689	0.112	583378	keystroke_e	e	n/a
291.746	0.135	583492	keystroke_s	s	n/a
291.865	0.072	583730	keystroke_t	t	n/a
291.953	0.12	583906	keystroke_o	o	n/a
292.089	0.112	584178	keystroke_r	r	n/a
292.177	0.104	584354	keystroke_a	a	n/a
292.337	0.08	584674	keystroke_t	t	n/a
292.409	0.088	584818	keystroke_i	i	n/a
292.449	0.128	584898	keystroke_o	o	n/a
292.489	0.136	584978	keystroke_n	n	n/a
292.585	0.08	585170	keystroke_Key.space	Key.space	n/a
292.9055	0.088	585811	keystroke_d	d	n/a
293.0095	0.096	586019	keystroke_o	o	n/a
293.0735	0.136	586147	keystroke_s	s	n/a
293.1775	0.088	586355	keystroke_e	e	n/a
293.3835	0.081	586767	keystroke_Key.enter	Key.enter	n/a
293.47	4.8765	586940	prompt	n/a	freeze triumph pushed list\n
294.0255	0.056	588051	keystroke_f	f	n/a
294.1935	0.056	588387	keystroke_r	r	n/a
294.3215	0.064	588643	keystroke_e	e	n/a
294.4495	0.072	588899	keystroke_e	e	n/a
294.6255	0.048	589251	keystroke_z	z	n/a
294.6735	0.096	589347	keystroke_e	e	n/a
295.1135	0.096	590227	keystroke_Key.space	Key.space	n/a
295.2735	0.072	590547	keystroke_t	t	n/a
295.465	0.04	590930	keystroke_r	r	n/a
295.553	0.112	591106	keystroke_i	i	n/a
296.209	0.088	592418	keystroke_u	u	n/a
296.417	0.1035	592834	keystroke_m	m	n/a
296.489	0.0965	592978	keystroke_p	p	n/a
296.6415	0.104	593283	keystroke_h	h	n/a
296.7375	0.063	593475	keystroke_Key.space	Key.space	n/a
297.041	0.088	594082	keystroke_p	p	n/a
297.177	0.096	594354	keystroke_u	u	n/a
297.321	0.104	594642	keystroke_s	s	n/a
297.457	0.12	594914	keystroke_h	h	n/a
297.545	0.04	595090	keystroke_e	e	n/a
297.689	0.08	595378	keystroke_d	d	n/a
297.737	0.08	595474	keystroke_Key.space	Key.space	n/a
297.881	0.064	595762	keystroke_l	l	n/a
297.961	0.128	595922	keystroke_i	i	n/a
298.041	0.096	596082	keystroke_s	s	n/a
298.113	0.088	596226	keystroke_t	t	n/a
298.257	0.088	596514	keystroke_Key.enter	Key.enter	n/a
298.3515	4.123	596703	prompt	n/a	lawrence ebay paxil removed\n
298.9455	0.112	597891	keystroke_l	l	n/a
299.0325	0.096	598065	keystroke_a	a	n/a
299.2015	0.096	598403	keystroke_w	w	n/a
299.3845	0.12	598769	keystroke_r	r	n/a
299.4805	0.1045	598961	keystroke_e	e	n/a
299.601	0.144	599202	keystroke_n	n	n/a
299.729	0.072	599458	keystroke_c	c	n/a
299.761	0.112	599522	keystroke_e	e	n/a
299.841	0.08	599682	keystroke_Key.space	Key.space	n/a
299.969	0.0805	599938	keystroke_e	e	n/a
300.1455	0.096	600291	keystroke_b	b	n/a
300.2485	0.104	600497	keystroke_a	a	n/a
300.4095	0.12	600819	keystroke_y	y	n/a
300.4885	0.08	600977	keystroke_Key.space	Key.space	n/a
300.6095	0.103	601219	keystroke_p	p	n/a
300.7605	0.057	601521	keystroke_a	a	n/a
300.9285	0.1285	601857	keystroke_x	x	n/a
301.121	0.064	602242	keystroke_i	i	n/a
301.225	0.128	602450	keystroke_l	l	n/a
301.353	0.072	602706	keystroke_Key.space	Key.space	n/a
301.433	0.104	602866	keystroke_r	r	n/a
301.497	0.096	602994	keystroke_e	e	n/a
301.585	0.144	603170	keystroke_m	m	n/a
301.657	0.136	603314	keystroke_o	o	n/a
301.753	0.056	603506	keystroke_v	v	n/a
301.881	0.072	603762	keystroke_e	e	n/a
302.025	0.064	604050	keystroke_d	d	n/a
302.361	0.112	604722	keystroke_Key.enter	Key.enter	n/a
302.477	4.6855	604954	prompt	n/a	competitive strand applying websites\n
303.1055	0.096	606211	keystroke_c	c	n/a
303.1685	0.072	606337	keystroke_o	o	n/a
303.2575	0.111	606515	keystroke_m	m	n/a
303.2965	0.128	606593	keystroke_p	p	n/a
303.4965	0.056	606993	keystroke_e	e	n/a
303.6645	0.08	607329	keystroke_t	t	n/a
303.7925	0.072	607585	keystroke_i	i	n/a
303.8895	0.063	607779	keystroke_t	t	n/a
303.9605	0.104	607921	keystroke_i	i	n/a
304.0565	0.064	608113	keystroke_v	v	n/a
304.1605	0.088	608321	keystroke_e	e	n/a
304.2245	0.081	608449	keystroke_Key.space	Key.space	n/a
304.3445	0.08	608689	keystroke_s	s	n/a
304.4405	0.025	608881	keystroke_t	t	n/a
304.6735	0.143	609347	keystroke_r	r	n/a
304.7685	0.088	609537	keystroke_a	a	n/a
304.8805	0.136	609761	keystroke_n	n	n/a
304.9525	0.096	609905	keystroke_d	d	n/a
305.0175	0.071	610035	keystroke_Key.space	Key.space	n/a
305.145	0.096	610290	keystroke_a	a	n/a
305.249	0.048	610498	keystroke_p	p	n/a
305.369	0.08	610738	keystroke_p	p	n/a
305.497	0.088	610994	keystroke_l	l	n/a
305.665	0.096	611330	keystroke_y	y	n/a
305.729	0.08	611458	keystroke_i	i	n/a
305.881	0.144	611762	keystroke_n	n	n/a
305.945	0.088	611890	keystroke_g	g	n/a
305.993	0.088	611986	keystroke_Key.space	Key.space	n/a
306.089	0.096	612178	keystroke_w	w	n/a
306.153	0.088	612306	keystroke_e	e	n/a
306.345	0.072	612690	keystroke_b	b	n/a
306.5365	0.072	613073	keystroke_s	s	n/a
306.6805	0.12	613361	keystroke_i	i	n/a
306.7925	0.16	613585	keystroke_t	t	n/a
306.8565	0.12	613713	keystroke_e	e	n/a
306.9445	0.048	613889	keystroke_s	s	n/a
307.0645	0.096	614129	keystroke_Key.enter	Key.enter	n/a
307.1655	3.893	614331	prompt	n/a	formula transit reid birds\n
307.6645	0.088	615329	keystroke_f	f	n/a
307.7605	0.112	615521	keystroke_o	o	n/a
307.8645	0.088	615729	keystroke_r	r	n/a
307.9445	0.056	615889	keystroke_m	m	n/a
308.1045	0.064	616209	keystroke_u	u	n/a
308.2165	0.12	616433	keystroke_l	l	n/a
308.2885	0.096	616577	keystroke_a	a	n/a
308.2885	0.128	616577	keystroke_Key.space	Key.space	n/a
308.4885	0.056	616977	keystroke_t	t	n/a
308.6325	0.096	617265	keystroke_r	r	n/a
308.6645	0.096	617329	keystroke_a	a	n/a
308.7775	0.0955	617555	keystroke_n	n	n/a
308.874	0.103	617748	keystroke_s	s	n/a
308.985	0.1285	617970	keystroke_i	i	n/a
309.081	0.072	618162	keystroke_t	t	n/a
309.121	0.088	618242	keystroke_Key.space	Key.space	n/a
309.273	0.104	618546	keystroke_r	r	n/a
309.337	0.064	618674	keystroke_e	e	n/a
309.497	0.072	618994	keystroke_d	d	n/a
309.609	0.072	619218	keystroke_i	i	n/a
309.937	0.056	619874	keystroke_Key.backspace	Key.backspace	n/a
310.041	0.064	620082	keystroke_Key.backspace	Key.backspace	n/a
310.201	0.12	620402	keystroke_i	i	n/a
310.281	0.072	620562	keystroke_d	d	n/a
310.3285	0.0725	620657	keystroke_Key.space	Key.space	n/a
310.497	0.064	620994	keystroke_b	b	n/a
310.601	0.104	621202	keystroke_i	i	n/a
310.673	0.072	621346	keystroke_r	r	n/a
310.801	0.112	621602	keystroke_d	d	n/a
310.873	0.088	621746	keystroke_s	s	n/a
310.977	0.08	621954	keystroke_Key.enter	Key.enter	n/a
311.062	3.836	622124	prompt	n/a	joan utils lecture sponsor\n
311.625	0.056	623250	keystroke_j	j	n/a
311.817	0.112	623634	keystroke_o	o	n/a
311.945	0.089	623890	keystroke_a	a	n/a
312.057	0.112	624114	keystroke_n	n	n/a
312.145	0.088	624290	keystroke_Key.space	Key.space	n/a
312.321	0.088	624642	keystroke_u	u	n/a
312.433	0.072	624866	keystroke_t	t	n/a
312.562	0.055	625124	keystroke_i	i	n/a
312.697	0.088	625394	keystroke_l	l	n/a
313.057	0.1195	626114	keystroke_s	s	n/a
313.145	0.0715	626290	keystroke_Key.space	Key.space	n/a
313.3375	0.064	626675	keystroke_l	l	n/a
313.3935	0.064	626787	keystroke_e	e	n/a
313.5375	0.064	627075	keystroke_c	c	n/a
313.7205	0.056	627441	keystroke_t	t	n/a
313.8405	0.137	627681	keystroke_u	u	n/a
313.8965	0.112	627793	keystroke_r	r	n/a
313.9535	0.072	627907	keystroke_e	e	n/a
313.9845	0.097	627969	keystroke_Key.space	Key.space	n/a
314.1045	0.104	628209	keystroke_s	s	n/a
314.1855	0.072	628371	keystroke_p	p	n/a
314.305	0.096	628610	keystroke_o	o	n/a
314.401	0.096	628802	keystroke_n	n	n/a
314.473	0.0885	628946	keystroke_s	s	n/a
314.5535	0.12	629107	keystroke_o	o	n/a
314.6805	0.072	629361	keystroke_r	r	n/a
314.8085	0.088	629617	keystroke_Key.enter	Key.enter	n/a
314.902	5.5725	629804	prompt	n/a	concerns dayton conclusions dramatic\n
315.465	0.096	630930	keystroke_c	c	n/a
315.537	0.12	631074	keystroke_o	o	n/a
315.625	0.089	631250	keystroke_n	n	n/a
315.681	0.072	631362	keystroke_c	c	n/a
315.793	0.1435	631586	keystroke_e	e	n/a
315.9215	0.063	631843	keystroke_r	r	n/a
316.0175	0.143	632035	keystroke_n	n	n/a
316.0965	0.104	632193	keystroke_s	s	n/a
316.1615	0.087	632323	keystroke_Key.space	Key.space	n/a
316.5125	0.145	633025	keystroke_d	d	n/a
316.6245	0.104	633249	keystroke_a	a	n/a
316.7685	0.088	633537	keystroke_y	y	n/a
316.9365	0.104	633873	keystroke_t	t	n/a
317.0085	0.104	634017	keystroke_o	o	n/a
317.1135	0.111	634227	keystroke_n	n	n/a
317.1855	0.079	634371	keystroke_Key.space	Key.space	n/a
317.3455	0.096	634691	keystroke_c	c	n/a
317.4005	0.105	634801	keystroke_o	o	n/a
317.4645	0.081	634929	keystroke_n	n	n/a
317.5455	0.071	635091	keystroke_c	c	n/a
317.6645	0.088	635329	keystroke_l	l	n/a
317.7445	0.104	635489	keystroke_u	u	n/a
317.8415	0.087	635683	keystroke_s	s	n/a
317.9765	0.12	635953	keystroke_i	i	n/a
318.0085	0.16	636017	keystroke_o	o	n/a
318.0885	0.137	636177	keystroke_n	n	n/a
318.1775	0.071	636355	keystroke_s	s	n/a
318.2325	0.0725	636465	keystroke_Key.space	Key.space	n/a
318.393	0.024	636786	keystroke_d	d	n/a
318.761	0.12	637522	keystroke_r	r	n/a
318.841	0.088	637682	keystroke_a	a	n/a
319.017	0.096	638034	keystroke_a	a	n/a
319.121	0.064	638242	keystroke_t	t	n/a
319.193	0.104	638386	keystroke_i	i	n/a
319.577	0.032	639154	keystroke_Key.backspace	Key.backspace	n/a
319.665	0.048	639330	keystroke_Key.backspace	Key.backspace	n/a
319.761	0.056	639522	keystroke_Key.backspace	Key.backspace	n/a
319.937	0.104	639874	keystroke_m	m	n/a
319.985	0.096	639970	keystroke_a	a	n/a
320.073	0.072	640146	keystroke_t	t	n/a
320.193	0.08	640386	keystroke_i	i	n/a
320.281	0.064	640562	keystroke_c	c	n/a
320.417	0.056	640834	keystroke_Key.enter	Key.enter	n/a
320.478	5.3885	640956	prompt	n/a	exec airports nickel strategy\n
321.033	0.072	642066	keystroke_e	e	n/a
321.617	0.112	643234	keystroke_x	x	n/a
321.817	0.08	643634	keystroke_e	e	n/a
321.977	0.104	643954	keystroke_c	c	n/a
322.161	0.072	644322	keystroke_Key.space	Key.space	n/a
322.529	0.088	645058	keystroke_a	a	n/a
322.649	0.08	645298	keystroke_i	i	n/a
322.745	0.072	645490	keystroke_r	r	n/a
322.833	0.056	645666	keystroke_p	p	n/a
322.937	0.128	645874	keystroke_o	o	n/a
322.993	0.08	645986	keystroke_r	r	n/a
323.153	0.128	646306	keystroke_t	t	n/a
323.217	0.112	646434	keystroke_s	s	n/a
323.288	0.073	646576	keystroke_Key.space	Key.space	n/a
323.633	0.104	647266	keystroke_n	n	n/a
323.72	0.073	647440	keystroke_i	i	n/a
323.841	0.072	647682	keystroke_c	c	n/a
323.914	0.135	647828	keystroke_k	k	n/a
324.001	0.144	648002	keystroke_e	e	n/a
324.089	0.096	648178	keystroke_r	r	n/a
324.177	0.072	648354	keystroke_Key.space	Key.space	n/a
324.289	0.1035	648578	keystroke_s	s	n/a
324.3775	0.056	648755	keystroke_t	t	n/a
324.5215	0.095	649043	keystroke_r	r	n/a
324.5685	0.096	649137	keystroke_a	a	n/a
324.9365	0.064	649873	keystroke_t	t	n/a
324.9695	0.072	649939	keystroke_e	e	n/a
