onset	duration	sample	value	key	prompt_text
38.1505	11.698	76301	prompt	n/a	the quick brown fox jumps over a lazy dog\n
43.3825	0	86765	keystroke	t	n/a
43.3835	0.086	86767	keystroke	h	n/a
43.485	0.0745	86970	keystroke	e	n/a
43.515	0.0895	87030	keystroke	Key.space	n/a
43.8295	0.075	87659	keystroke	q	n/a
43.9345	0.165	87869	keystroke	u	n/a
44.054	0.136	88108	keystroke	i	n/a
44.249	0.06	88498	keystroke	c	n/a
44.429	0.105	88858	keystroke	k	n/a
44.535	0.12	89070	keystroke	Key.space	n/a
44.8195	0.0905	89639	keystroke	b	n/a
44.9695	0.0605	89939	keystroke	r	n/a
45.0895	0.1055	90179	keystroke	o	n/a
45.21	0.06	90420	keystroke	w	n/a
45.285	0.1045	90570	keystroke	n	n/a
45.3595	0.12	90719	keystroke	Key.space	n/a
45.4645	0.075	90929	keystroke	f	n/a
45.555	0.075	91110	keystroke	o	n/a
45.6895	0.0905	91379	keystroke	x	n/a
45.8095	0.09	91619	keystroke	Key.space	n/a
46.0495	0.1055	92099	keystroke	j	n/a
46.2745	0.075	92549	keystroke	u	n/a
46.5155	0.074	93031	keystroke	m	n/a
46.574	0.1205	93148	keystroke	p	n/a
46.7245	0.0755	93449	keystroke	s	n/a
46.8295	0.075	93659	keystroke	Key.space	n/a
46.935	0.0895	93870	keystroke	o	n/a
47.04	0.074	94080	keystroke	v	n/a
47.16	0.1345	94320	keystroke	e	n/a
47.265	0.1045	94530	keystroke	r	n/a
47.3845	0.135	94769	keystroke	Key.space	n/a
47.5495	0.09	95099	keystroke	a	n/a
47.685	0.1195	95370	keystroke	Key.space	n/a
47.8795	0.15	95759	keystroke	l	n/a
47.9845	0.0905	95969	keystroke	a	n/a
48.21	0.1045	96420	keystroke	z	n/a
48.48	0.105	96960	keystroke	y	n/a
48.5545	0.105	97109	keystroke	Key.space	n/a
48.7795	0.06	97559	keystroke	d	n/a
48.8545	0.09	97709	keystroke	o	n/a
48.9895	0.045	97979	keystroke	g	n/a
49.7995	0.0455	99599	keystroke	Key.enter	n/a
49.854	7.0425	99708	prompt	n/a	babe emergency phrase brokers\n
50.579	0.0905	101158	keystroke	b	n/a
50.685	0.0895	101370	keystroke	a	n/a
50.8345	0.135	101669	keystroke	b	n/a
51.015	0.0445	102030	keystroke	e	n/a
51.1195	0.075	102239	keystroke	Key.space	n/a
51.5845	0.045	103169	keystroke	e	n/a
51.6445	0.1055	103289	keystroke	m	n/a
51.7645	0.12	103529	keystroke	e	n/a
52.0495	0.12	104099	keystroke	g	n/a
52.215	0.075	104430	keystroke	e	n/a
52.5445	0.045	105089	keystroke	Key.backspace	n/a
52.6645	0.09	105329	keystroke	Key.backspace	n/a
52.74	0.0895	105480	keystroke	r	n/a
52.95	0.075	105900	keystroke	g	n/a
53.04	0.135	106080	keystroke	e	n/a
53.19	0.075	106380	keystroke	n	n/a
53.31	0.09	106620	keystroke	c	n/a
53.445	0.0745	106890	keystroke	y	n/a
53.5345	0.06	107069	keystroke	Key.space	n/a
54.2545	0.0755	108509	keystroke	p	n/a
54.465	0.075	108930	keystroke	h	n/a
54.5245	0.075	109049	keystroke	r	n/a
54.6295	0.12	109259	keystroke	a	n/a
54.6755	0.104	109351	keystroke	s	n/a
54.7345	0.12	109469	keystroke	e	n/a
54.8395	0.06	109679	keystroke	Key.space	n/a
55.3495	0.09	110699	keystroke	b	n/a
55.47	0.074	110940	keystroke	r	n/a
55.56	0.15	111120	keystroke	o	n/a
55.695	0.12	111390	keystroke	k	n/a
55.785	0.15	111570	keystroke	e	n/a
55.875	0.105	111750	keystroke	r	n/a
56.04	0.09	112080	keystroke	s	n/a
56.8195	0.0755	113639	keystroke	Key.enter	n/a
56.9005	6.282	113801	prompt	n/a	housing sophisticated muscle nick\n
57.5395	0.0755	115079	keystroke	h	n/a
57.7195	0.09	115439	keystroke	o	n/a
57.7795	0.1205	115559	keystroke	u	n/a
57.87	0.075	115740	keystroke	s	n/a
58.02	0.09	116040	keystroke	i	n/a
58.065	0.105	116130	keystroke	n	n/a
58.155	0.06	116310	keystroke	g	n/a
58.245	0.09	116490	keystroke	Key.space	n/a
58.8295	0.0755	117659	keystroke	s	n/a
58.92	0.0895	117840	keystroke	o	n/a
59.1295	0.075	118259	keystroke	p	n/a
59.2945	0.09	118589	keystroke	h	n/a
59.3995	0.121	118799	keystroke	i	n/a
59.5355	0.104	119071	keystroke	s	n/a
59.8045	0.0595	119609	keystroke	t	n/a
59.895	0.075	119790	keystroke	i	n/a
60.014	0.091	120028	keystroke	c	n/a
60.09	0.105	120180	keystroke	a	n/a
60.24	0.12	120480	keystroke	t	n/a
60.33	0.0895	120660	keystroke	e	n/a
60.495	0.0895	120990	keystroke	d	n/a
60.6	0.0595	121200	keystroke	Key.space	n/a
61.3055	0.0895	122611	keystroke	m	n/a
61.5005	0.0745	123001	keystroke	u	n/a
61.5905	0.1195	123181	keystroke	s	n/a
61.6945	0.09	123389	keystroke	c	n/a
61.8005	0.12	123601	keystroke	l	n/a
61.9345	0.0755	123869	keystroke	e	n/a
62.0245	0.09	124049	keystroke	Key.space	n/a
62.445	0.104	124890	keystroke	n	n/a
62.565	0.089	125130	keystroke	i	n/a
62.64	0.09	125280	keystroke	c	n/a
62.7455	0.0895	125491	keystroke	k	n/a
63.104	0.075	126208	keystroke	Key.enter	n/a
63.1875	10.1655	126375	prompt	n/a	daren't genres concrete greece\n
63.8705	0.015	127741	keystroke	s	n/a
64.3345	0.0605	128669	keystroke	Key.backspace	n/a
64.53	0.105	129060	keystroke	d	n/a
64.619	0.106	129238	keystroke	a	n/a
64.74	0.12	129480	keystroke	r	n/a
64.83	0.105	129660	keystroke	e	n/a
64.92	0.09	129840	keystroke	n	n/a
65.055	0.044	130110	keystroke	t	n/a
66.015	0.0295	132030	keystroke	Key.backspace	n/a
66.495	0.075	132990	keystroke	'	n/a
66.63	0.075	133260	keystroke	t	n/a
66.795	0.06	133590	keystroke	Key.space	n/a
68.2495	0.1205	136499	keystroke	g	n/a
68.7605	0.0445	137521	keystroke	e	n/a
68.88	0.09	137760	keystroke	n	n/a
69.12	0.135	138240	keystroke	r	n/a
69.21	0.12	138420	keystroke	e	n/a
69.39	0.105	138780	keystroke	s	n/a
69.554	0.076	139108	keystroke	Key.space	n/a
70.065	0.075	140130	keystroke	c	n/a
70.17	0.105	140340	keystroke	o	n/a
70.2295	0.105	140459	keystroke	n	n/a
70.3045	0.076	140609	keystroke	c	n/a
70.4995	0.1055	140999	keystroke	r	n/a
70.59	0.1045	141180	keystroke	e	n/a
70.7405	0.104	141481	keystroke	t	n/a
70.83	0.1045	141660	keystroke	e	n/a
70.9495	0.09	141899	keystroke	Key.space	n/a
71.805	0.0445	143610	keystroke	g	n/a
72.03	0.0595	144060	keystroke	r	n/a
72.2095	0.06	144419	keystroke	e	n/a
72.3445	0.09	144689	keystroke	e	n/a
72.54	0.105	145080	keystroke	c	n/a
72.6295	0.0755	145259	keystroke	e	n/a
73.2895	0.06	146579	keystroke	Key.enter	n/a
73.3575	6.954	146715	prompt	n/a	widescreen reliability port causes\n
74.025	0.075	148050	keystroke	w	n/a
74.145	0.105	148290	keystroke	i	n/a
74.235	0.06	148470	keystroke	d	n/a
74.4	0.075	148800	keystroke	e	n/a
74.49	0.15	148980	keystroke	s	n/a
74.625	0.06	149250	keystroke	c	n/a
74.8195	0.06	149639	keystroke	r	n/a
74.94	0.0745	149880	keystroke	e	n/a
75.0745	0.09	150149	keystroke	e	n/a
75.2095	0.106	150419	keystroke	n	n/a
75.5695	0.0755	151139	keystroke	Key.space	n/a
76.0045	0.12	152009	keystroke	r	n/a
76.095	0.1195	152190	keystroke	e	n/a
76.275	0.0895	152550	keystroke	l	n/a
76.4245	0.0905	152849	keystroke	i	n/a
76.5295	0.105	153059	keystroke	a	n/a
76.695	0.0895	153390	keystroke	b	n/a
76.8445	0.1055	153689	keystroke	i	n/a
77.0845	0.1055	154169	keystroke	l	n/a
77.2195	0.0905	154439	keystroke	i	n/a
77.34	0.074	154680	keystroke	t	n/a
77.444	0.075	154888	keystroke	y	n/a
77.624	0.06	155248	keystroke	Key.space	n/a
78.345	0.06	156690	keystroke	p	n/a
78.5245	0.075	157049	keystroke	o	n/a
78.5845	0.075	157169	keystroke	r	n/a
78.765	0.06	157530	keystroke	t	n/a
78.855	0.09	157710	keystroke	Key.space	n/a
78.975	0.09	157950	keystroke	c	n/a
79.035	0.105	158070	keystroke	a	n/a
79.155	0.06	158310	keystroke	u	n/a
79.26	0.06	158520	keystroke	s	n/a
79.29	0.1205	158580	keystroke	e	n/a
79.4855	0.074	158971	keystroke	s	n/a
80.2645	0.045	160529	keystroke	Key.enter	n/a
80.3155	6.3565	160631	prompt	n/a	mortgages speeds other notre\n
81.195	0.105	162390	keystroke	m	n/a
81.33	0.09	162660	keystroke	o	n/a
81.405	0.075	162810	keystroke	r	n/a
81.615	0.03	163230	keystroke	t	n/a
81.81	0.119	163620	keystroke	g	n/a
81.93	0.1195	163860	keystroke	a	n/a
82.035	0.15	164070	keystroke	g	n/a
82.14	0.18	164280	keystroke	e	n/a
82.245	0.135	164490	keystroke	s	n/a
82.41	0.059	164820	keystroke	Key.space	n/a
83.0545	0.045	166109	keystroke	s	n/a
83.1595	0.075	166319	keystroke	p	n/a
83.2495	0.06	166499	keystroke	e	n/a
83.3845	0.06	166769	keystroke	e	n/a
83.55	0.1195	167100	keystroke	d	n/a
83.625	0.1235	167250	keystroke	s	n/a
83.7145	0.0755	167429	keystroke	Key.space	n/a
84.4955	0.0745	168991	keystroke	o	n/a
84.5995	0.075	169199	keystroke	t	n/a
84.705	0.0895	169410	keystroke	h	n/a
84.7495	0.1045	169499	keystroke	e	n/a
84.825	0.09	169650	keystroke	r	n/a
84.899	0.09	169798	keystroke	Key.space	n/a
85.14	0.075	170280	keystroke	n	n/a
85.275	0.12	170550	keystroke	o	n/a
85.53	0.075	171060	keystroke	t	n/a
85.695	0.105	171390	keystroke	r	n/a
85.785	0.09	171570	keystroke	e	n/a
86.594	0.075	173188	keystroke	Key.enter	n/a
86.6785	6.398	173357	prompt	n/a	justice hudson levels platinum\n
87.3595	0.105	174719	keystroke	j	n/a
87.54	0.1045	175080	keystroke	u	n/a
87.6295	0.105	175259	keystroke	s	n/a
87.7195	0.06	175439	keystroke	t	n/a
87.7945	0.09	175589	keystroke	i	n/a
87.9145	0.105	175829	keystroke	c	n/a
87.975	0.1045	175950	keystroke	e	n/a
88.0495	0.075	176099	keystroke	Key.space	n/a
88.215	0.03	176430	keystroke	h	n/a
88.365	0.075	176730	keystroke	u	n/a
88.5	0.074	177000	keystroke	d	n/a
88.544	0.135	177088	keystroke	s	n/a
88.665	0.089	177330	keystroke	o	n/a
88.694	0.1055	177388	keystroke	n	n/a
88.784	0.0605	177568	keystroke	Key.space	n/a
89.5345	0.1055	179069	keystroke	l	n/a
89.654	0.09	179308	keystroke	e	n/a
89.8045	0.09	179609	keystroke	v	n/a
89.8795	0.09	179759	keystroke	e	n/a
89.9545	0.105	179909	keystroke	l	n/a
90.075	0.0895	180150	keystroke	s	n/a
90.1945	0.06	180389	keystroke	Key.space	n/a
91.0945	0.075	182189	keystroke	p	n/a
91.305	0.09	182610	keystroke	l	n/a
91.3795	0.0905	182759	keystroke	a	n/a
91.5595	0.06	183119	keystroke	t	n/a
91.68	0.135	183360	keystroke	i	n/a
91.785	0.12	183570	keystroke	n	n/a
92.13	0.06	184260	keystroke	u	n/a
92.31	0.075	184620	keystroke	m	n/a
92.9845	0.09	185969	keystroke	Key.enter	n/a
93.0815	5.5155	186163	prompt	n/a	cradle echo justify where\n
93.7495	0.105	187499	keystroke	c	n/a
93.9745	0.09	187949	keystroke	r	n/a
94.0945	0.0905	188189	keystroke	a	n/a
94.29	0.0595	188580	keystroke	d	n/a
94.4095	0.09	188819	keystroke	l	n/a
94.5005	0.059	189001	keystroke	e	n/a
94.725	0.06	189450	keystroke	Key.space	n/a
95.355	0.105	190710	keystroke	e	n/a
95.475	0.105	190950	keystroke	c	n/a
95.595	0.0595	191190	keystroke	h	n/a
95.6845	0.1205	191369	keystroke	o	n/a
95.8495	0.0745	191699	keystroke	Key.space	n/a
96.18	0.089	192360	keystroke	j	n/a
96.375	0.06	192750	keystroke	u	n/a
96.42	0.12	192840	keystroke	s	n/a
96.525	0.06	193050	keystroke	t	n/a
96.599	0.09	193198	keystroke	i	n/a
96.734	0.06	193468	keystroke	f	n/a
96.93	0.075	193860	keystroke	y	n/a
97.5145	0.09	195029	keystroke	Key.space	n/a
97.7245	0.0755	195449	keystroke	w	n/a
97.8145	0.075	195629	keystroke	h	n/a
97.8895	0.09	195779	keystroke	e	n/a
97.9645	0.135	195929	keystroke	r	n/a
98.0695	0.09	196139	keystroke	e	n/a
98.52	0.074	197040	keystroke	Key.enter	n/a
98.6015	9.265	197203	prompt	n/a	perceived plumbing dinner babies\n
99.2695	0.06	198539	keystroke	p	n/a
99.3145	0.09	198629	keystroke	e	n/a
99.3745	0.075	198749	keystroke	r	n/a
99.5845	0.105	199169	keystroke	c	n/a
99.6595	0.1205	199319	keystroke	e	n/a
99.7945	0.0755	199589	keystroke	i	n/a
99.8855	0.119	199771	keystroke	v	n/a
99.9595	0.0755	199919	keystroke	e	n/a
100.0945	0.1055	200189	keystroke	d	n/a
100.214	0.06	200428	keystroke	Key.space	n/a
100.9345	0.0905	201869	keystroke	p	n/a
101.1595	0.09	202319	keystroke	l	n/a
101.3395	0.076	202679	keystroke	u	n/a
101.5495	0.06	203099	keystroke	m	n/a
101.7445	0.046	203489	keystroke	b	n/a
101.835	0.1195	203670	keystroke	i	n/a
101.9245	0.0905	203849	keystroke	n	n/a
102.0295	0.0605	204059	keystroke	g	n/a
102.1645	0.06	204329	keystroke	Key.space	n/a
102.8245	0.076	205649	keystroke	d	n/a
102.96	0.09	205920	keystroke	i	n/a
103.0345	0.0305	206069	keystroke	n	n/a
103.11	0.09	206220	keystroke	n	n/a
103.245	0.104	206490	keystroke	e	n/a
103.334	0.06	206668	keystroke	r	n/a
103.395	0.06	206790	keystroke	Key.space	n/a
104.2495	0.075	208499	keystroke	b	n/a
104.3395	0.0905	208679	keystroke	a	n/a
104.4445	0.06	208889	keystroke	b	n/a
104.5495	0.06	209099	keystroke	e	n/a
104.5945	0.075	209189	keystroke	i	n/a
105.0895	0.0445	210179	keystroke	Key.backspace	n/a
105.194	0.0905	210388	keystroke	Key.backspace	n/a
105.435	0.0445	210870	keystroke	i	n/a
105.48	0.1195	210960	keystroke	e	n/a
105.5695	0.105	211139	keystroke	s	n/a
107.821	0.043	215642	keystroke	Key.enter	n/a
107.871	11.681	215742	prompt	n/a	produced harassment vacancies discuss\n
108.69	0.0595	217380	keystroke	p	n/a
108.7645	0.09	217529	keystroke	r	n/a
108.8845	0.0905	217769	keystroke	o	n/a
109.0045	0.0755	218009	keystroke	u	n/a
109.05	0.105	218100	keystroke	d	n/a
109.184	0.1055	218368	keystroke	c	n/a
109.2745	0.075	218549	keystroke	e	n/a
109.4545	0.06	218909	keystroke	d	n/a
109.6495	0.045	219299	keystroke	Key.backspace	n/a
109.7845	0.0595	219569	keystroke	Key.backspace	n/a
109.904	0.0755	219808	keystroke	Key.backspace	n/a
110.0545	0.0895	220109	keystroke	Key.backspace	n/a
110.204	0.09	220408	keystroke	Key.backspace	n/a
110.309	0.0755	220618	keystroke	d	n/a
110.4	0.105	220800	keystroke	u	n/a
110.489	0.091	220978	keystroke	c	n/a
110.55	0.09	221100	keystroke	e	n/a
110.7445	0.075	221489	keystroke	d	n/a
110.8345	0.06	221669	keystroke	Key.space	n/a
111.57	0.09	223140	keystroke	h	n/a
111.629	0.151	223258	keystroke	a	n/a
111.795	0.06	223590	keystroke	r	n/a
111.93	0.06	223860	keystroke	r	n/a
112.05	0.0445	224100	keystroke	a	n/a
112.3945	0.09	224789	keystroke	Key.backspace	n/a
112.544	0.09	225088	keystroke	Key.backspace	n/a
112.62	0.0895	225240	keystroke	a	n/a
112.844	0.0155	225688	keystroke	s	n/a
112.9345	0.075	225869	keystroke	s	n/a
113.1295	0.12	226259	keystroke	m	n/a
113.2645	0.0605	226529	keystroke	a	n/a
113.4895	0.075	226979	keystroke	e	n/a
113.6995	0.03	227399	keystroke	Key.backspace	n/a
113.8945	0.015	227789	keystroke	Key.backspace	n/a
113.925	0.0445	227850	keystroke	e	n/a
113.9995	0.09	227999	keystroke	n	n/a
114.1045	0.06	228209	keystroke	t	n/a
114.21	0.0745	228420	keystroke	Key.space	n/a
115.38	0.105	230760	keystroke	v	n/a
115.53	0.135	231060	keystroke	a	n/a
115.695	0.12	231390	keystroke	c	n/a
115.83	0.075	231660	keystroke	a	n/a
115.965	0.105	231930	keystroke	n	n/a
116.145	0.09	232290	keystroke	c	n/a
116.31	0.105	232620	keystroke	i	n/a
116.429	0.091	232858	keystroke	e	n/a
116.774	0.0905	233548	keystroke	s	n/a
116.9095	0.0745	233819	keystroke	Key.space	n/a
117.765	0.075	235530	keystroke	d	n/a
117.945	0.075	235890	keystroke	i	n/a
118.0345	0.0755	236069	keystroke	s	n/a
118.169	0.09	236338	keystroke	c	n/a
118.274	0.075	236548	keystroke	u	n/a
118.38	0.074	236760	keystroke	s	n/a
118.53	0.075	237060	keystroke	s	n/a
119.4895	0.06	238979	keystroke	Key.enter	n/a
119.5565	8.083	239113	prompt	n/a	postal lime faculty nato\n
120.3305	0.0595	240661	keystroke	p	n/a
120.525	0.06	241050	keystroke	o	n/a
120.615	0.09	241230	keystroke	s	n/a
120.75	0.075	241500	keystroke	t	n/a
120.8695	0.0755	241739	keystroke	a	n/a
120.93	0.09	241860	keystroke	l	n/a
121.14	0.075	242280	keystroke	Key.space	n/a
121.5295	0.09	243059	keystroke	l	n/a
121.7395	0.12	243479	keystroke	i	n/a
121.7995	0.15	243599	keystroke	m	n/a
121.9045	0.0605	243809	keystroke	e	n/a
122.3995	0.075	244799	keystroke	Key.space	n/a
123.2845	0.1355	246569	keystroke	f	n/a
123.4045	0.1205	246809	keystroke	a	n/a
123.4945	0.106	246989	keystroke	c	n/a
123.6145	0.09	247229	keystroke	u	n/a
123.7495	0.105	247499	keystroke	l	n/a
123.8705	0.074	247741	keystroke	t	n/a
124.199	0.076	248398	keystroke	y	n/a
124.604	0.076	249208	keystroke	Key.space	n/a
125.0695	0.091	250139	keystroke	n	n/a
125.145	0.1195	250290	keystroke	a	n/a
125.2495	0.06	250499	keystroke	t	n/a
125.37	0.06	250740	keystroke	o	n/a
127.6355	0.001	255271	keystroke	Key.enter	n/a
127.644	12.728	255288	prompt	n/a	campbell movements recipient toddler\n
128.325	0.1195	256650	keystroke	c	n/a
128.4295	0.09	256859	keystroke	a	n/a
128.49	0.12	256980	keystroke	m	n/a
128.909	0.09	257818	keystroke	p	n/a
129.165	0.074	258330	keystroke	b	n/a
129.2695	0.0745	258539	keystroke	e	n/a
129.3595	0.0605	258719	keystroke	l	n/a
129.48	0.104	258960	keystroke	l	n/a
129.794	0.06	259588	keystroke	Key.space	n/a
130.2745	0.135	260549	keystroke	m	n/a
130.4245	0.09	260849	keystroke	o	n/a
130.5295	0.0905	261059	keystroke	v	n/a
130.6045	0.076	261209	keystroke	e	n/a
130.6945	0.076	261389	keystroke	m	n/a
130.8	0.0745	261600	keystroke	e	n/a
130.89	0.0895	261780	keystroke	n	n/a
130.9945	0.06	261989	keystroke	t	n/a
131.1595	0.0755	262319	keystroke	s	n/a
131.37	0.06	262740	keystroke	Key.space	n/a
132.2695	0.091	264539	keystroke	r	n/a
132.345	0.075	264690	keystroke	e	n/a
132.48	0.105	264960	keystroke	c	n/a
132.6	0.0595	265200	keystroke	i	n/a
132.7795	0.06	265559	keystroke	p	n/a
132.9	0.0755	265800	keystroke	e	n/a
133.0195	0.06	266039	keystroke	i	n/a
133.3195	0.075	266639	keystroke	Key.backspace	n/a
133.4395	0.0755	266879	keystroke	Key.backspace	n/a
133.6345	0.09	267269	keystroke	i	n/a
133.71	0.0745	267420	keystroke	e	n/a
133.83	0.0905	267660	keystroke	n	n/a
133.9355	0.0595	267871	keystroke	t	n/a
134.3395	0.09	268679	keystroke	Key.space	n/a
135.0455	0.0595	270091	keystroke	d	n/a
135.39	0.06	270780	keystroke	Key.backspace	n/a
135.465	0.075	270930	keystroke	t	n/a
135.585	0.075	271170	keystroke	o	n/a
135.705	0.06	271410	keystroke	d	n/a
135.87	0.0445	271740	keystroke	l	n/a
135.99	0.0745	271980	keystroke	l	n/a
136.2895	0.06	272579	keystroke	Key.backspace	n/a
136.4095	0.1205	272819	keystroke	Key.backspace	n/a
136.5305	0.075	273061	keystroke	d	n/a
136.6795	0.075	273359	keystroke	l	n/a
136.7695	0.0905	273539	keystroke	e	n/a
136.845	0.075	273690	keystroke	r	n/a
140.356	0.014	280712	keystroke	Key.enter	n/a
140.3765	8.08	280753	prompt	n/a	expansys moral founder collaboration\n
141.045	0.045	282090	keystroke	e	n/a
141.21	0.105	282420	keystroke	x	n/a
141.36	0.0755	282720	keystroke	p	n/a
141.465	0.09	282930	keystroke	a	n/a
141.5855	0.0895	283171	keystroke	n	n/a
141.689	0.076	283378	keystroke	s	n/a
141.87	0.0755	283740	keystroke	y	n/a
141.96	0.06	283920	keystroke	s	n/a
142.38	0.045	284760	keystroke	Key.space	n/a
142.83	0.12	285660	keystroke	m	n/a
142.935	0.105	285870	keystroke	o	n/a
143.055	0.1045	286110	keystroke	r	n/a
143.1755	0.075	286351	keystroke	a	n/a
143.2505	0.074	286501	keystroke	l	n/a
143.5795	0.075	287159	keystroke	Key.space	n/a
144.0595	0.09	288119	keystroke	f	n/a
144.1345	0.121	288269	keystroke	o	n/a
144.1945	0.09	288389	keystroke	u	n/a
144.3745	0.09	288749	keystroke	n	n/a
144.4195	0.076	288839	keystroke	d	n/a
144.585	0.105	289170	keystroke	e	n/a
144.66	0.09	289320	keystroke	r	n/a
144.795	0.075	289590	keystroke	Key.space	n/a
145.2745	0.09	290549	keystroke	c	n/a
145.3795	0.076	290759	keystroke	o	n/a
145.5595	0.046	291119	keystroke	l	n/a
145.68	0.0895	291360	keystroke	l	n/a
145.7545	0.075	291509	keystroke	a	n/a
145.9345	0.045	291869	keystroke	b	n/a
146.0545	0.075	292109	keystroke	o	n/a
146.145	0.0745	292290	keystroke	r	n/a
146.2945	0.105	292589	keystroke	a	n/a
146.3995	0.061	292799	keystroke	t	n/a
146.4895	0.2555	292979	keystroke	i	n/a
146.5795	0.15	293159	keystroke	o	n/a
146.6245	0.15	293249	keystroke	n	n/a
148.3945	0.06	296789	keystroke	Key.enter	n/a
148.4615	11.0955	296923	prompt	n/a	centers arlington staying beaver\n
149.145	0.0895	298290	keystroke	c	n/a
149.2805	0.075	298561	keystroke	n	n/a
149.3395	0.0755	298679	keystroke	e	n/a
149.5045	0.075	299009	keystroke	t	n/a
149.5805	0.1045	299161	keystroke	e	n/a
149.6555	0.0895	299311	keystroke	r	n/a
150.0295	0.0305	300059	keystroke	Key.backspace	n/a
150.1495	0.06	300299	keystroke	Key.backspace	n/a
150.27	0.075	300540	keystroke	Key.backspace	n/a
150.42	0.075	300840	keystroke	Key.backspace	n/a
150.57	0.09	301140	keystroke	Key.backspace	n/a
150.75	0.06	301500	keystroke	e	n/a
150.825	0.075	301650	keystroke	n	n/a
150.96	0.0755	301920	keystroke	t	n/a
151.0955	0.1645	302191	keystroke	e	n/a
151.215	0.1055	302430	keystroke	r	n/a
151.38	0.105	302760	keystroke	s	n/a
151.5	0.06	303000	keystroke	Key.space	n/a
152.16	0.15	304320	keystroke	a	n/a
152.325	0.015	304650	keystroke	r	n/a
152.355	0.06	304710	keystroke	i	n/a
152.4755	0.1045	304951	keystroke	l	n/a
152.655	0.12	305310	keystroke	i	n/a
152.7155	0.0895	305431	keystroke	n	n/a
152.79	0.075	305580	keystroke	g	n/a
153.165	0.045	306330	keystroke	Key.backspace	n/a
153.285	0.06	306570	keystroke	Key.backspace	n/a
153.42	0.075	306840	keystroke	Key.backspace	n/a
153.555	0.075	307110	keystroke	Key.backspace	n/a
153.69	0.09	307380	keystroke	Key.backspace	n/a
154.0055	0.1345	308011	keystroke	l	n/a
154.245	0.075	308490	keystroke	i	n/a
154.275	0.12	308550	keystroke	n	n/a
154.38	0.0595	308760	keystroke	g	n/a
154.695	0.045	309390	keystroke	t	n/a
154.7555	0.1345	309511	keystroke	o	n/a
154.86	0.1055	309720	keystroke	n	n/a
154.995	0.1045	309990	keystroke	Key.space	n/a
155.2655	0.0745	310531	keystroke	s	n/a
155.3695	0.075	310739	keystroke	t	n/a
155.49	0.0595	310980	keystroke	a	n/a
155.7595	0.0905	311519	keystroke	y	n/a
155.985	0.089	311970	keystroke	i	n/a
156.015	0.105	312030	keystroke	n	n/a
156.135	0.045	312270	keystroke	g	n/a
156.255	0.06	312510	keystroke	Key.space	n/a
157.1545	0.0605	314309	keystroke	b	n/a
157.245	0.075	314490	keystroke	e	n/a
157.334	0.1055	314668	keystroke	a	n/a
157.425	0.075	314850	keystroke	v	n/a
157.529	0.151	315058	keystroke	e	n/a
157.649	0.091	315298	keystroke	r	n/a
159.51	0.0445	319020	keystroke	Key.enter	n/a
159.561	10.0305	319122	prompt	n/a	usda cleanup lance afghanistan\n
160.2605	0.059	320521	keystroke	u	n/a
160.335	0.1495	320670	keystroke	s	n/a
160.47	0.1195	320940	keystroke	d	n/a
160.575	0.1045	321150	keystroke	a	n/a
160.6795	0.075	321359	keystroke	Key.space	n/a
161.3405	0.089	322681	keystroke	c	n/a
161.5045	0.1055	323009	keystroke	l	n/a
161.6245	0.091	323249	keystroke	e	n/a
161.6845	0.075	323369	keystroke	a	n/a
161.7445	0.075	323489	keystroke	n	n/a
161.9995	0.0755	323999	keystroke	u	n/a
162.1345	0.1055	324269	keystroke	p	n/a
162.315	0.0745	324630	keystroke	Key.space	n/a
162.9755	0.0595	325951	keystroke	l	n/a
163.094	0.0765	326188	keystroke	a	n/a
163.155	0.105	326310	keystroke	n	n/a
163.2295	0.1355	326459	keystroke	c	n/a
163.32	0.089	326640	keystroke	e	n/a
163.4245	0.0745	326849	keystroke	Key.space	n/a
164.115	0.1345	328230	keystroke	a	n/a
164.31	0.09	328620	keystroke	f	n/a
164.655	0.06	329310	keystroke	g	n/a
164.76	0.075	329520	keystroke	h	n/a
164.88	0.075	329760	keystroke	a	n/a
164.97	0.105	329940	keystroke	n	n/a
165.18	0.075	330360	keystroke	s	n/a
165.315	0.09	330630	keystroke	i	n/a
165.45	0.06	330900	keystroke	t	n/a
165.72	0.0755	331440	keystroke	a	n/a
166.005	0.045	332010	keystroke	Key.backspace	n/a
166.125	0.075	332250	keystroke	Key.backspace	n/a
166.275	0.09	332550	keystroke	Key.backspace	n/a
167.4295	0.015	334859	keystroke	Key.backspace	n/a
167.5195	0.0605	335039	keystroke	i	n/a
167.595	0.0755	335190	keystroke	s	n/a
167.6995	0.075	335399	keystroke	t	n/a
167.8045	0.075	335609	keystroke	a	n/a
167.865	0.0745	335730	keystroke	n	n/a
169.5145	0.075	339029	keystroke	Key.enter	n/a
169.5965	10.045	339193	prompt	n/a	outcome ministry diabetes helicopter\n
170.25	0.075	340500	keystroke	o	n/a
170.355	0.0745	340710	keystroke	u	n/a
170.445	0.06	340890	keystroke	t	n/a
170.625	0.06	341250	keystroke	c	n/a
170.64	0.165	341280	keystroke	o	n/a
170.699	0.136	341398	keystroke	m	n/a
170.865	0.0745	341730	keystroke	e	n/a
171.0445	0.045	342089	keystroke	Key.space	n/a
171.6005	0.089	343201	keystroke	m	n/a
171.7195	0.135	343439	keystroke	i	n/a
171.8395	0.105	343679	keystroke	n	n/a
171.9295	0.12	343859	keystroke	i	n/a
172.0045	0.075	344009	keystroke	s	n/a
172.1855	0.0595	344371	keystroke	t	n/a
172.3195	0.045	344639	keystroke	r	n/a
172.395	0.0745	344790	keystroke	y	n/a
172.6495	0.06	345299	keystroke	Key.space	n/a
173.61	0.0595	347220	keystroke	d	n/a
173.7905	0.0885	347581	keystroke	i	n/a
173.91	0.074	347820	keystroke	a	n/a
174.0145	0.091	348029	keystroke	b	n/a
174.15	0.104	348300	keystroke	e	n/a
174.299	0.106	348598	keystroke	t	n/a
174.3755	0.1045	348751	keystroke	e	n/a
174.569	0.076	349138	keystroke	s	n/a
174.75	0.0595	349500	keystroke	Key.space	n/a
175.635	0.105	351270	keystroke	h	n/a
175.965	0.06	351930	keystroke	e	n/a
176.07	0.105	352140	keystroke	l	n/a
176.235	0.105	352470	keystroke	i	n/a
176.46	0.06	352920	keystroke	c	n/a
176.94	0.0145	353880	keystroke	p	n/a
177.3145	0.0755	354629	keystroke	Key.backspace	n/a
177.51	0.06	355020	keystroke	o	n/a
177.675	0.06	355350	keystroke	p	n/a
177.825	0.105	355650	keystroke	t	n/a
177.93	0.15	355860	keystroke	e	n/a
178.035	0.105	356070	keystroke	r	n/a
179.5645	0.0755	359129	keystroke	Key.enter	n/a
179.6455	8.996	359291	prompt	n/a	bridge decisions notes references\n
180.4045	0.12	360809	keystroke	b	n/a
180.5095	0.09	361019	keystroke	r	n/a
180.6295	0.09	361259	keystroke	i	n/a
180.7045	0.075	361409	keystroke	d	n/a
180.84	0.0745	361680	keystroke	g	n/a
180.885	0.1045	361770	keystroke	e	n/a
181.005	0.0745	362010	keystroke	Key.space	n/a
181.7395	0.075	363479	keystroke	d	n/a
181.9345	0.105	363869	keystroke	e	n/a
182.0245	0.12	364049	keystroke	c	n/a
182.1895	0.1055	364379	keystroke	i	n/a
182.3095	0.0755	364619	keystroke	s	n/a
182.4295	0.2405	364859	keystroke	i	n/a
182.4895	0.1655	364979	keystroke	o	n/a
182.5345	0.1655	365069	keystroke	n	n/a
182.684	0.075	365368	keystroke	s	n/a
182.8345	0.0745	365669	keystroke	Key.space	n/a
183.6745	0.0905	367349	keystroke	n	n/a
183.7795	0.105	367559	keystroke	o	n/a
183.855	0.1195	367710	keystroke	t	n/a
183.9295	0.18	367859	keystroke	e	n/a
184.0495	0.12	368099	keystroke	s	n/a
184.1545	0.075	368309	keystroke	Key.space	n/a
184.7095	0.12	369419	keystroke	r	n/a
185.04	0.2105	370080	keystroke	e	n/a
185.4	0.12	370800	keystroke	f	n/a
185.535	0.0895	371070	keystroke	e	n/a
185.6395	0.09	371279	keystroke	r	n/a
185.715	0.0895	371430	keystroke	e	n/a
185.91	0.1055	371820	keystroke	n	n/a
186.0295	0.1055	372059	keystroke	c	n/a
186.1195	0.0605	372239	keystroke	e	n/a
186.27	0.0445	372540	keystroke	e	n/a
186.66	0.0595	373320	keystroke	s	n/a
187.02	0.015	374040	keystroke	Key.backspace	n/a
187.0945	0.0745	374189	keystroke	Key.backspace	n/a
187.185	0.074	374370	keystroke	s	n/a
188.565	0.075	377130	keystroke	Key.enter	n/a
188.647	8.814	377294	prompt	n/a	cattle wide enclosure settings\n
192.273	0.012	384546	keystroke	c	n/a
192.273	0.102	384546	keystroke	a	n/a
192.495	0.0295	384990	keystroke	t	n/a
192.615	0.0595	385230	keystroke	t	n/a
192.735	0.09	385470	keystroke	l	n/a
192.8395	0.0455	385679	keystroke	e	n/a
192.93	0.075	385860	keystroke	Key.space	n/a
193.229	0.091	386458	keystroke	w	n/a
193.334	0.076	386668	keystroke	i	n/a
193.424	0.061	386848	keystroke	d	n/a
193.604	0.06	387208	keystroke	e	n/a
193.695	0.09	387390	keystroke	Key.space	n/a
193.89	0.059	387780	keystroke	e	n/a
193.98	0.089	387960	keystroke	n	n/a
194.07	0.09	388140	keystroke	c	n/a
194.28	0.074	388560	keystroke	l	n/a
194.459	0.076	388918	keystroke	o	n/a
194.565	0.075	389130	keystroke	s	n/a
194.775	0.075	389550	keystroke	u	n/a
194.895	0.119	389790	keystroke	r	n/a
194.9845	0.1055	389969	keystroke	e	n/a
195.104	0.06	390208	keystroke	Key.space	n/a
195.5245	0.045	391049	keystroke	s	n/a
195.6295	0.0905	391259	keystroke	e	n/a
195.824	0.0605	391648	keystroke	t	n/a
195.9745	0.0595	391949	keystroke	t	n/a
196.08	0.119	392160	keystroke	i	n/a
196.155	0.1045	392310	keystroke	n	n/a
196.229	0.105	392458	keystroke	g	n/a
196.32	0.075	392640	keystroke	s	n/a
197.4145	0.045	394829	keystroke	Key.enter	n/a
197.465	5.9365	394930	prompt	n/a	highlighted sarah yeast equation\n
198.255	0.09	396510	keystroke	h	n/a
198.39	0.12	396780	keystroke	i	n/a
198.615	0.075	397230	keystroke	g	n/a
198.6755	0.1045	397351	keystroke	h	n/a
198.8245	0.09	397649	keystroke	l	n/a
199.0045	0.06	398009	keystroke	i	n/a
199.1245	0.075	398249	keystroke	g	n/a
199.2145	0.09	398429	keystroke	h	n/a
199.3195	0.105	398639	keystroke	t	n/a
199.4095	0.075	398819	keystroke	e	n/a
199.5895	0.075	399179	keystroke	d	n/a
199.6795	0.105	399359	keystroke	Key.space	n/a
199.7995	0.0905	399599	keystroke	s	n/a
199.95	0.135	399900	keystroke	a	n/a
200.0695	0.12	400139	keystroke	r	n/a
200.2045	0.0755	400409	keystroke	a	n/a
200.3245	0.09	400649	keystroke	h	n/a
200.4595	0.075	400919	keystroke	Key.space	n/a
200.924	0.075	401848	keystroke	y	n/a
200.954	0.1055	401908	keystroke	e	n/a
201.045	0.12	402090	keystroke	a	n/a
201.104	0.165	402208	keystroke	s	n/a
201.2395	0.0595	402479	keystroke	t	n/a
201.359	0.09	402718	keystroke	Key.space	n/a
202.02	0.089	404040	keystroke	e	n/a
202.2	0.075	404400	keystroke	q	n/a
202.3045	0.0905	404609	keystroke	u	n/a
202.41	0.105	404820	keystroke	a	n/a
202.53	0.059	405060	keystroke	t	n/a
202.65	0.224	405300	keystroke	i	n/a
202.725	0.134	405450	keystroke	o	n/a
202.755	0.135	405510	keystroke	n	n/a
203.324	0.075	406648	keystroke	Key.enter	n/a
203.404	5.937	406808	prompt	n/a	formation grow measuring streets\n
204.1045	0.2105	408209	keystroke	f	n/a
204.33	0.0145	408660	keystroke	o	n/a
204.3595	0.0605	408719	keystroke	r	n/a
204.4345	0.09	408869	keystroke	m	n/a
204.555	0.1045	409110	keystroke	a	n/a
204.6295	0.0755	409259	keystroke	t	n/a
204.7345	0.24	409469	keystroke	i	n/a
204.7945	0.1195	409589	keystroke	o	n/a
204.81	0.194	409620	keystroke	n	n/a
204.959	0.0905	409918	keystroke	Key.space	n/a
205.17	0.0895	410340	keystroke	g	n/a
205.3195	0.09	410639	keystroke	r	n/a
205.425	0.0895	410850	keystroke	o	n/a
205.5295	0.0905	411059	keystroke	w	n/a
205.6345	0.105	411269	keystroke	Key.space	n/a
206.0405	0.104	412081	keystroke	m	n/a
206.1145	0.0905	412229	keystroke	e	n/a
206.19	0.105	412380	keystroke	a	n/a
206.25	0.12	412500	keystroke	s	n/a
206.4	0.06	412800	keystroke	u	n/a
206.475	0.09	412950	keystroke	r	n/a
206.655	0.12	413310	keystroke	i	n/a
206.715	0.105	413430	keystroke	n	n/a
206.82	0.06	413640	keystroke	g	n/a
206.925	0.059	413850	keystroke	Key.space	n/a
207.705	0.089	415410	keystroke	s	n/a
207.8545	0.06	415709	keystroke	t	n/a
207.99	0.09	415980	keystroke	r	n/a
208.125	0.0755	416250	keystroke	e	n/a
208.274	0.136	416548	keystroke	e	n/a
208.4105	0.0745	416821	keystroke	t	n/a
208.515	0.075	417030	keystroke	s	n/a
209.2795	0.06	418559	keystroke	Key.enter	n/a
209.3455	9.761	418691	prompt	n/a	grams mercedes crystal geographical\n
210.21	0.089	420420	keystroke	g	n/a
210.39	0.104	420780	keystroke	r	n/a
210.5095	0.0755	421019	keystroke	a	n/a
210.539	0.121	421078	keystroke	m	n/a
210.705	0.06	421410	keystroke	s	n/a
210.78	0.089	421560	keystroke	Key.space	n/a
211.275	0.09	422550	keystroke	m	n/a
211.3795	0.1355	422759	keystroke	e	n/a
211.485	0.075	422970	keystroke	r	n/a
211.665	0.105	423330	keystroke	c	n/a
211.7545	0.09	423509	keystroke	e	n/a
212.3855	0.104	424771	keystroke	d	n/a
212.745	0.075	425490	keystroke	e	n/a
212.9395	0.075	425879	keystroke	s	n/a
213.0445	0.0755	426089	keystroke	Key.space	n/a
214.0195	0.0745	428039	keystroke	c	n/a
214.215	0.059	428430	keystroke	r	n/a
214.32	0.075	428640	keystroke	y	n/a
214.455	0.12	428910	keystroke	s	n/a
214.59	0.03	429180	keystroke	t	n/a
214.65	0.075	429300	keystroke	a	n/a
214.8	0.12	429600	keystroke	l	n/a
215.009	0.0755	430018	keystroke	Key.space	n/a
215.76	0.075	431520	keystroke	g	n/a
215.955	0.075	431910	keystroke	e	n/a
216.1955	0.0745	432391	keystroke	o	n/a
216.585	0.06	433170	keystroke	g	n/a
216.735	0.075	433470	keystroke	r	n/a
217.02	0.075	434040	keystroke	a	n/a
217.2595	0.09	434519	keystroke	p	n/a
217.4995	0.0905	434999	keystroke	h	n/a
217.6195	0.105	435239	keystroke	i	n/a
217.7395	0.12	435479	keystroke	c	n/a
217.8295	0.1355	435659	keystroke	a	n/a
218.0395	0.075	436079	keystroke	l	n/a
219.0145	0.09	438029	keystroke	Key.enter	n/a
219.1105	7.211	438221	prompt	n/a	lined bobby intervals morgan\n
219.8095	0.06	439619	keystroke	l	n/a
219.9595	0.0905	439919	keystroke	i	n/a
220.005	0.105	440010	keystroke	n	n/a
220.08	0.075	440160	keystroke	e	n/a
220.245	0.075	440490	keystroke	d	n/a
220.335	0.074	440670	keystroke	Key.space	n/a
220.575	0.06	441150	keystroke	b	n/a
220.6945	0.0905	441389	keystroke	o	n/a
220.86	0.06	441720	keystroke	b	n/a
221.025	0.06	442050	keystroke	b	n/a
221.2345	0.045	442469	keystroke	y	n/a
221.2495	0.016	442499	keystroke	t	n/a
221.31	0.0745	442620	keystroke	Key.space	n/a
221.7445	0.045	443489	keystroke	Key.backspace	n/a
221.865	0.1045	443730	keystroke	Key.backspace	n/a
221.9995	0.06	443999	keystroke	Key.space	n/a
222.8995	0.1055	445799	keystroke	i	n/a
222.975	0.09	445950	keystroke	n	n/a
223.0945	0.0905	446189	keystroke	t	n/a
223.1695	0.165	446339	keystroke	e	n/a
223.2745	0.075	446549	keystroke	r	n/a
223.92	0.089	447840	keystroke	v	n/a
223.994	0.121	447988	keystroke	a	n/a
224.1	0.089	448200	keystroke	l	n/a
224.235	0.074	448470	keystroke	s	n/a
224.355	0.074	448710	keystroke	Key.space	n/a
225.105	0.119	450210	keystroke	m	n/a
225.21	0.104	450420	keystroke	o	n/a
225.299	0.075	450598	keystroke	r	n/a
225.4645	0.076	450929	keystroke	g	n/a
225.5095	0.09	451019	keystroke	a	n/a
225.584	0.09	451168	keystroke	n	n/a
226.244	0.076	452488	keystroke	Key.enter	n/a
226.326	11.2755	452652	prompt	n/a	elderly businesses volvo coach\n
226.9945	0.06	453989	keystroke	e	n/a
227.13	0.0895	454260	keystroke	l	n/a
227.2345	0.0605	454469	keystroke	d	n/a
227.3995	0.105	454799	keystroke	e	n/a
227.4745	0.09	454949	keystroke	r	n/a
227.595	0.0605	455190	keystroke	l	n/a
227.8045	0.0605	455609	keystroke	y	n/a
227.94	0.074	455880	keystroke	Key.space	n/a
228.585	0.1045	457170	keystroke	b	n/a
228.75	0.075	457500	keystroke	u	n/a
228.899	0.0905	457798	keystroke	s	n/a
229.0055	0.0895	458011	keystroke	i	n/a
229.0495	0.075	458099	keystroke	n	n/a
229.1695	0.0755	458339	keystroke	e	n/a
229.334	0.076	458668	keystroke	s	n/a
229.4705	0.1045	458941	keystroke	s	n/a
229.665	0.0905	459330	keystroke	e	n/a
229.7555	0.0895	459511	keystroke	s	n/a
230.025	0.044	460050	keystroke	Key.space	n/a
231.585	0.0155	463170	keystroke	v	n/a
231.6295	0.091	463259	keystroke	o	n/a
231.7795	0.091	463559	keystroke	v	n/a
232.095	0.0745	464190	keystroke	l	n/a
232.1995	0.075	464399	keystroke	e	n/a
232.7845	0.0295	465569	keystroke	Key.backspace	n/a
233.0545	0.075	466109	keystroke	o	n/a
233.205	0.0745	466410	keystroke	Key.space	n/a
233.6245	0.0445	467249	keystroke	Key.backspace	n/a
233.714	0.061	467428	keystroke	Key.backspace	n/a
233.8795	0.0755	467759	keystroke	Key.backspace	n/a
234.014	0.0755	468028	keystroke	Key.backspace	n/a
234.495	0.0895	468990	keystroke	l	n/a
234.6295	0.0605	469259	keystroke	v	n/a
234.8095	0.0745	469619	keystroke	o	n/a
235.0045	0.075	470009	keystroke	Key.space	n/a
236.0845	0.0905	472169	keystroke	c	n/a
236.19	0.09	472380	keystroke	o	n/a
236.2945	0.1205	472589	keystroke	a	n/a
236.3845	0.0905	472769	keystroke	c	n/a
236.49	0.075	472980	keystroke	h	n/a
237.5395	0.06	475079	keystroke	Key.enter	n/a
237.606	5.6355	475212	prompt	n/a	odds mounting dare michelle\n
238.2895	0.06	476579	keystroke	o	n/a
238.3645	0.0605	476729	keystroke	d	n/a
238.515	0.1495	477030	keystroke	d	n/a
238.6195	0.12	477239	keystroke	s	n/a
238.7545	0.09	477509	keystroke	Key.space	n/a
238.905	0.12	477810	keystroke	m	n/a
239.07	0.15	478140	keystroke	o	n/a
239.205	0.09	478410	keystroke	u	n/a
239.4	0.075	478800	keystroke	n	n/a
239.49	0.075	478980	keystroke	t	n/a
239.595	0.075	479190	keystroke	i	n/a
239.61	0.105	479220	keystroke	n	n/a
239.715	0.075	479430	keystroke	g	n/a
239.8345	0.09	479669	keystroke	Key.space	n/a
240.54	0.06	481080	keystroke	d	n/a
240.66	0.105	481320	keystroke	a	n/a
240.7655	0.1045	481531	keystroke	r	n/a
240.825	0.135	481650	keystroke	e	n/a
240.945	0.105	481890	keystroke	Key.space	n/a
241.095	0.12	482190	keystroke	m	n/a
241.275	0.105	482550	keystroke	i	n/a
241.32	0.03	482640	keystroke	c	n/a
241.859	0.075	483718	keystroke	h	n/a
241.994	0.061	483988	keystroke	e	n/a
242.1	0.06	484200	keystroke	l	n/a
242.25	0.0745	484500	keystroke	l	n/a
242.309	0.046	484618	keystroke	e	n/a
243.1645	0.075	486329	keystroke	Key.enter	n/a
243.246	7.3	486492	prompt	n/a	safer sculpture loving todd\n
244.0505	0.06	488101	keystroke	s	n/a
244.1705	0.09	488341	keystroke	a	n/a
244.2745	0.1195	488549	keystroke	f	n/a
244.3805	0.1645	488761	keystroke	e	n/a
244.499	0.1065	488998	keystroke	r	n/a
244.62	0.0895	489240	keystroke	Key.space	n/a
244.725	0.12	489450	keystroke	s	n/a
244.831	0.0895	489662	keystroke	c	n/a
244.9645	0.0755	489929	keystroke	u	n/a
245.1145	0.15	490229	keystroke	l	n/a
245.6545	0.076	491309	keystroke	p	n/a
245.9855	0.074	491971	keystroke	t	n/a
246.3145	0.09	492629	keystroke	u	n/a
246.4195	0.105	492839	keystroke	r	n/a
246.495	0.1055	492990	keystroke	e	n/a
246.6895	0.075	493379	keystroke	Key.space	n/a
247.32	0.1205	494640	keystroke	l	n/a
247.5295	0.105	495059	keystroke	o	n/a
247.68	0.09	495360	keystroke	v	n/a
247.83	0.12	495660	keystroke	i	n/a
247.92	0.105	495840	keystroke	n	n/a
247.98	0.06	495960	keystroke	g	n/a
248.175	0.075	496350	keystroke	Key.space	n/a
248.7445	0.105	497489	keystroke	l	n/a
249.059	0.075	498118	keystroke	Key.backspace	n/a
249.15	0.074	498300	keystroke	t	n/a
249.285	0.06	498570	keystroke	o	n/a
249.39	0.06	498780	keystroke	d	n/a
249.555	0.06	499110	keystroke	d	n/a
250.485	0.0595	500970	keystroke	Key.enter	n/a
250.5485	5.788	501097	prompt	n/a	membership bugs buck iron\n
251.13	0.09	502260	keystroke	m	n/a
251.235	0.075	502470	keystroke	e	n/a
251.37	0.09	502740	keystroke	m	n/a
251.61	0.06	503220	keystroke	b	n/a
251.715	0.12	503430	keystroke	e	n/a
251.79	0.105	503580	keystroke	r	n/a
252.06	0.09	504120	keystroke	s	n/a
252.135	0.12	504270	keystroke	h	n/a
252.24	0.105	504480	keystroke	i	n/a
252.45	0.12	504900	keystroke	p	n/a
252.675	0.075	505350	keystroke	Key.space	n/a
253.5005	0.1195	507001	keystroke	b	n/a
253.635	0.09	507270	keystroke	u	n/a
253.74	0.1205	507480	keystroke	g	n/a
253.845	0.12	507690	keystroke	s	n/a
253.98	0.06	507960	keystroke	Key.space	n/a
254.745	0.09	509490	keystroke	b	n/a
254.849	0.091	509698	keystroke	u	n/a
254.955	0.09	509910	keystroke	c	n/a
255.105	0.09	510210	keystroke	k	n/a
255.225	0.105	510450	keystroke	Key.space	n/a
255.435	0.075	510870	keystroke	i	n/a
255.54	0.06	511080	keystroke	r	n/a
255.646	0.089	511292	keystroke	o	n/a
255.705	0.075	511410	keystroke	n	n/a
256.29	0.045	512580	keystroke	Key.enter	n/a
256.3415	9.625	512683	prompt	n/a	entitled programmes differential involvement\n
257.1745	0.015	514349	keystroke	e	n/a
257.2195	0.1205	514439	keystroke	n	n/a
257.3545	0.06	514709	keystroke	t	n/a
257.46	0.0895	514920	keystroke	i	n/a
257.5345	0.075	515069	keystroke	t	n/a
257.685	0.075	515370	keystroke	l	n/a
257.7295	0.18	515459	keystroke	e	n/a
258.105	0.06	516210	keystroke	d	n/a
258.255	0.075	516510	keystroke	Key.space	n/a
259.11	0.0895	518220	keystroke	p	n/a
259.2145	0.0755	518429	keystroke	r	n/a
259.3495	0.075	518699	keystroke	o	n/a
259.4105	0.0745	518821	keystroke	g	n/a
259.5595	0.1055	519119	keystroke	r	n/a
259.6495	0.06	519299	keystroke	a	n/a
259.725	0.0605	519450	keystroke	m	n/a
259.8445	0.09	519689	keystroke	m	n/a
259.9195	0.15	519839	keystroke	e	n/a
260.0395	0.12	520079	keystroke	s	n/a
260.19	0.0745	520380	keystroke	Key.space	n/a
261.075	0.0745	522150	keystroke	d	n/a
261.21	0.09	522420	keystroke	i	n/a
261.2845	0.06	522569	keystroke	f	n/a
261.4205	0.104	522841	keystroke	f	n/a
261.5695	0.075	523139	keystroke	e	n/a
261.63	0.105	523260	keystroke	r	n/a
261.72	0.105	523440	keystroke	e	n/a
261.8095	0.1205	523619	keystroke	n	n/a
261.915	0.06	523830	keystroke	t	n/a
262.05	0.089	524100	keystroke	i	n/a
262.155	0.075	524310	keystroke	a	n/a
262.244	0.075	524488	keystroke	l	n/a
262.515	0.059	525030	keystroke	Key.space	n/a
263.2345	0.105	526469	keystroke	i	n/a
263.3095	0.075	526619	keystroke	n	n/a
263.3695	0.075	526739	keystroke	v	n/a
263.5195	0.105	527039	keystroke	o	n/a
263.7445	0.09	527489	keystroke	l	n/a
263.8045	0.15	527609	keystroke	v	n/a
263.9555	0.089	527911	keystroke	e	n/a
264.0595	0.0905	528119	keystroke	m	n/a
264.1645	0.0905	528329	keystroke	e	n/a
264.2695	0.075	528539	keystroke	n	n/a
264.3595	0.06	528719	keystroke	t	n/a
265.89	0.075	531780	keystroke	Key.enter	n/a
265.973	5.4685	531946	prompt	n/a	korea nail cycles add\n
266.8505	0.089	533701	keystroke	k	n/a
267.0445	0.09	534089	keystroke	o	n/a
267.12	0.1195	534240	keystroke	r	n/a
267.1795	0.121	534359	keystroke	e	n/a
267.2845	0.1205	534569	keystroke	a	n/a
267.3745	0.075	534749	keystroke	Key.space	n/a
268.1695	0.1055	536339	keystroke	n	n/a
268.2595	0.0605	536519	keystroke	a	n/a
268.3645	0.105	536729	keystroke	i	n/a
268.4845	0.1205	536969	keystroke	l	n/a
269.19	0.0895	538380	keystroke	Key.space	n/a
269.4145	0.06	538829	keystroke	c	n/a
269.55	0.0595	539100	keystroke	y	n/a
269.6395	0.105	539279	keystroke	c	n/a
269.7595	0.105	539519	keystroke	l	n/a
269.8495	0.165	539699	keystroke	e	n/a
269.9695	0.105	539939	keystroke	s	n/a
270.539	0.12	541078	keystroke	Key.space	n/a
270.6145	0.0905	541229	keystroke	a	n/a
270.72	0.06	541440	keystroke	d	n/a
270.839	0.106	541678	keystroke	d	n/a
271.3495	0.09	542699	keystroke	Key.enter	n/a
271.4465	8.1105	542893	prompt	n/a	projector strengthening name conclude\n
272.295	0.044	544590	keystroke	p	n/a
272.354	0.016	544708	keystroke	r	n/a
272.4295	0.09	544859	keystroke	o	n/a
272.504	0.091	545008	keystroke	j	n/a
272.5495	0.105	545099	keystroke	e	n/a
272.6245	0.0755	545249	keystroke	c	n/a
272.805	0.06	545610	keystroke	t	n/a
272.8945	0.075	545789	keystroke	o	n/a
272.9545	0.075	545909	keystroke	r	n/a
273.0745	0.075	546149	keystroke	Key.space	n/a
273.8545	0.09	547709	keystroke	s	n/a
273.9895	0.06	547979	keystroke	t	n/a
274.11	0.12	548220	keystroke	r	n/a
274.2	0.09	548400	keystroke	e	n/a
274.35	0.1045	548700	keystroke	n	n/a
274.4995	0.06	548999	keystroke	g	n/a
275.49	0.09	550980	keystroke	t	n/a
275.595	0.06	551190	keystroke	h	n/a
275.715	0.075	551430	keystroke	e	n/a
275.79	0.09	551580	keystroke	n	n/a
276	0.09	552000	keystroke	i	n/a
276.045	0.09	552090	keystroke	n	n/a
276.15	0.06	552300	keystroke	g	n/a
276.434	0.076	552868	keystroke	Key.space	n/a
277.5455	0.0745	555091	keystroke	n	n/a
277.6355	0.074	555271	keystroke	a	n/a
277.7245	0.105	555449	keystroke	m	n/a
277.8145	0.075	555629	keystroke	e	n/a
277.9195	0.09	555839	keystroke	Key.space	n/a
278.0695	0.075	556139	keystroke	c	n/a
278.1895	0.15	556379	keystroke	o	n/a
278.2945	0.0755	556589	keystroke	n	n/a
278.3995	0.09	556799	keystroke	c	n/a
278.5045	0.075	557009	keystroke	l	n/a
278.6245	0.06	557249	keystroke	u	n/a
278.6995	0.06	557399	keystroke	d	n/a
278.864	0.0755	557728	keystroke	e	n/a
279.4795	0.075	558959	keystroke	Key.enter	n/a
279.5605	9.269	559121	prompt	n/a	approaches merry volkswagen beam\n
280.1545	0.105	560309	keystroke	a	n/a
280.3045	0.06	560609	keystroke	p	n/a
280.4395	0.09	560879	keystroke	p	n/a
280.5145	0.075	561029	keystroke	r	n/a
280.6495	0.06	561299	keystroke	o	n/a
280.7395	0.1055	561479	keystroke	a	n/a
280.8155	0.1035	561631	keystroke	c	n/a
280.98	0.0445	561960	keystroke	h	n/a
281.054	0.076	562108	keystroke	e	n/a
281.1905	0.104	562381	keystroke	s	n/a
281.3395	0.0605	562679	keystroke	Key.space	n/a
281.8495	0.105	563699	keystroke	m	n/a
282.2545	0.045	564509	keystroke	e	n/a
282.39	0.0595	564780	keystroke	r	n/a
282.525	0.075	565050	keystroke	r	n/a
282.644	0.136	565288	keystroke	y	n/a
282.824	0.0605	565648	keystroke	Key.space	n/a
283.725	0.105	567450	keystroke	v	n/a
283.83	0.075	567660	keystroke	o	n/a
284.0245	0.0745	568049	keystroke	l	n/a
284.129	0.09	568258	keystroke	k	n/a
284.25	0.0595	568500	keystroke	s	n/a
284.429	0.0765	568858	keystroke	w	n/a
284.715	0.0595	569430	keystroke	a	n/a
284.835	0.12	569670	keystroke	g	n/a
284.94	0.09	569880	keystroke	e	n/a
285.015	0.075	570030	keystroke	n	n/a
285.705	0.105	571410	keystroke	Key.space	n/a
286.3645	0.0755	572729	keystroke	b	n/a
286.4545	0.1055	572909	keystroke	e	n/a
286.5145	0.1055	573029	keystroke	a	n/a
286.59	0.075	573180	keystroke	m	n/a
288.826	0.001	577652	keystroke	Key.enter	n/a
288.8345	6.352	577669	prompt	n/a	fail mainly explore racial\n
289.6645	0.0905	579329	keystroke	f	n/a
289.7695	0.12	579539	keystroke	a	n/a
289.875	0.075	579750	keystroke	i	n/a
290.0245	0.12	580049	keystroke	l	n/a
290.1145	0.1045	580229	keystroke	Key.space	n/a
290.34	0.09	580680	keystroke	m	n/a
290.459	0.076	580918	keystroke	a	n/a
290.55	0.12	581100	keystroke	i	n/a
290.61	0.0755	581220	keystroke	n	n/a
290.7445	0.0905	581489	keystroke	l	n/a
290.925	0.06	581850	keystroke	y	n/a
291.0145	0.0755	582029	keystroke	Key.space	n/a
291.8995	0.06	583799	keystroke	e	n/a
292.08	0.09	584160	keystroke	x	n/a
292.2	0.089	584400	keystroke	p	n/a
292.4245	0.06	584849	keystroke	l	n/a
292.62	0.0445	585240	keystroke	o	n/a
292.6795	0.09	585359	keystroke	r	n/a
292.755	0.089	585510	keystroke	e	n/a
292.8595	0.0445	585719	keystroke	Key.space	n/a
293.655	0.074	587310	keystroke	r	n/a
293.76	0.135	587520	keystroke	a	n/a
293.88	0.09	587760	keystroke	c	n/a
293.955	0.09	587910	keystroke	i	n/a
294.075	0.0595	588150	keystroke	a	n/a
294.15	0.06	588300	keystroke	l	n/a
295.124	0.0605	590248	keystroke	Key.enter	n/a
295.191	8.188	590382	prompt	n/a	engineers compile learn painting\n
295.77	0.06	591540	keystroke	e	n/a
295.845	0.09	591690	keystroke	n	n/a
295.979	0.061	591958	keystroke	g	n/a
296.055	0.1045	592110	keystroke	i	n/a
296.1295	0.075	592259	keystroke	n	n/a
296.1895	0.045	592379	keystroke	e	n/a
296.3395	0.1355	592679	keystroke	e	n/a
296.4445	0.1355	592889	keystroke	r	n/a
296.5645	0.105	593129	keystroke	s	n/a
296.6545	0.06	593309	keystroke	Key.space	n/a
297.48	0.0895	594960	keystroke	c	n/a
297.585	0.104	595170	keystroke	o	n/a
297.6295	0.1055	595259	keystroke	m	n/a
297.795	0.075	595590	keystroke	p	n/a
298.02	0.06	596040	keystroke	i	n/a
298.185	0.0745	596370	keystroke	l	n/a
298.244	0.061	596488	keystroke	e	n/a
298.4095	0.0895	596819	keystroke	Key.space	n/a
299.054	0.1065	598108	keystroke	l	n/a
299.145	0.12	598290	keystroke	e	n/a
299.235	0.104	598470	keystroke	a	n/a
299.31	0.089	598620	keystroke	r	n/a
299.4	0.075	598800	keystroke	n	n/a
299.76	0.075	599520	keystroke	Key.space	n/a
300.3745	0.031	600749	keystroke	p	n/a
300.42	0.075	600840	keystroke	a	n/a
300.5545	0.121	601109	keystroke	i	n/a
300.6145	0.106	601229	keystroke	n	n/a
300.6905	0.074	601381	keystroke	t	n/a
300.854	0.091	601708	keystroke	i	n/a
300.915	0.075	601830	keystroke	n	n/a
300.96	0.0455	601920	keystroke	g	n/a
303.377	0	606754	keystroke	Key.enter	n/a
303.3835	11.933	606767	prompt	n/a	rhythm imagine wallet clay\n
304.95	0.06	609900	keystroke	t	n/a
305.055	0.0755	610110	keystroke	h	n/a
305.519	0.03	611038	keystroke	Key.backspace	n/a
305.624	0.0755	611248	keystroke	Key.backspace	n/a
305.895	0.0745	611790	keystroke	r	n/a
306.0155	0.0595	612031	keystroke	h	n/a
307.47	0.0745	614940	keystroke	y	n/a
308.52	0.0445	617040	keystroke	t	n/a
308.565	0.0145	617130	keystroke	h	n/a
308.6695	0.105	617339	keystroke	m	n/a
308.8495	0.0755	617699	keystroke	Key.space	n/a
309.6145	0.1655	619229	keystroke	i	n/a
309.87	0.12	619740	keystroke	a	n/a
309.9745	0.06	619949	keystroke	g	n/a
310.274	0.045	620548	keystroke	Key.backspace	n/a
310.394	0.061	620788	keystroke	Key.backspace	n/a
310.53	0.09	621060	keystroke	m	n/a
310.635	0.105	621270	keystroke	a	n/a
310.71	0.075	621420	keystroke	g	n/a
310.799	0.076	621598	keystroke	i	n/a
310.815	0.09	621630	keystroke	n	n/a
310.92	0.045	621840	keystroke	e	n/a
311.055	0.045	622110	keystroke	Key.space	n/a
311.7	0.105	623400	keystroke	w	n/a
311.865	0.12	623730	keystroke	a	n/a
311.97	0.06	623940	keystroke	l	n/a
312.09	0.09	624180	keystroke	l	n/a
312.165	0.135	624330	keystroke	e	n/a
312.27	0.075	624540	keystroke	t	n/a
312.36	0.075	624720	keystroke	Key.space	n/a
312.75	0.045	625500	keystroke	c	n/a
312.975	0.09	625950	keystroke	l	n/a
313.05	0.075	626100	keystroke	a	n/a
313.245	0.06	626490	keystroke	y	n/a
315.255	0.0595	630510	keystroke	Key.enter	n/a
315.321	9.5205	630642	prompt	n/a	wifi saskatchewan concept achievements\n
316.2145	0.0755	632429	keystroke	w	n/a
316.3345	0.075	632669	keystroke	i	n/a
316.4395	0.0755	632879	keystroke	f	n/a
316.5295	0.091	633059	keystroke	i	n/a
316.6645	0.075	633329	keystroke	Key.space	n/a
317.205	0.03	634410	keystroke	s	n/a
317.43	0.105	634860	keystroke	a	n/a
317.52	0.12	635040	keystroke	s	n/a
318.5845	0.09	637169	keystroke	k	n/a
318.7045	0.075	637409	keystroke	a	n/a
318.825	0.075	637650	keystroke	t	n/a
319.0195	0.075	638039	keystroke	c	n/a
319.1095	0.076	638219	keystroke	h	n/a
319.41	0.075	638820	keystroke	e	n/a
319.695	0.09	639390	keystroke	w	n/a
319.8595	0.075	639719	keystroke	a	n/a
319.949	0.105	639898	keystroke	n	n/a
320.114	0.06	640228	keystroke	Key.space	n/a
321.105	0.09	642210	keystroke	c	n/a
321.18	0.135	642360	keystroke	o	n/a
321.255	0.09	642510	keystroke	n	n/a
321.33	0.1195	642660	keystroke	c	n/a
321.435	0.074	642870	keystroke	e	n/a
321.494	0.076	642988	keystroke	p	n/a
321.72	0.045	643440	keystroke	t	n/a
321.84	0.06	643680	keystroke	Key.space	n/a
322.245	0.015	644490	keystroke	a	n/a
322.6195	0.061	645239	keystroke	c	n/a
322.6955	0.0745	645391	keystroke	h	n/a
322.7845	0.075	645569	keystroke	i	n/a
322.905	0.0895	645810	keystroke	e	n/a
323.2055	0.059	646411	keystroke	v	n/a
323.28	0.09	646560	keystroke	e	n/a
323.385	0.0745	646770	keystroke	m	n/a
323.4745	0.0905	646949	keystroke	e	n/a
323.565	0.0745	647130	keystroke	n	n/a
323.6545	0.0605	647309	keystroke	t	n/a
323.805	0.0745	647610	keystroke	s	n/a
324.7645	0.075	649529	keystroke	Key.enter	n/a
324.8445	6.687	649689	prompt	n/a	executive bridal editors numeric\n
325.4855	0.0745	650971	keystroke	e	n/a
325.68	0.045	651360	keystroke	x	n/a
325.7545	0.1055	651509	keystroke	e	n/a
325.905	0.09	651810	keystroke	c	n/a
326.055	0.0895	652110	keystroke	u	n/a
326.1595	0.0605	652319	keystroke	t	n/a
326.2645	0.09	652529	keystroke	i	n/a
326.3845	0.0755	652769	keystroke	v	n/a
326.445	0.0895	652890	keystroke	e	n/a
326.5795	0.045	653159	keystroke	Key.space	n/a
327.4355	0.0895	654871	keystroke	b	n/a
327.54	0.044	655080	keystroke	r	n/a
327.645	0.075	655290	keystroke	i	n/a
327.81	0.075	655620	keystroke	d	n/a
327.9005	0.104	655801	keystroke	a	n/a
328.035	0.09	656070	keystroke	l	n/a
328.29	0.045	656580	keystroke	Key.space	n/a
328.83	0.045	657660	keystroke	e	n/a
328.935	0.075	657870	keystroke	d	n/a
329.025	0.075	658050	keystroke	i	n/a
329.145	0.0605	658290	keystroke	t	n/a
329.2205	0.075	658441	keystroke	o	n/a
329.3105	0.1195	658621	keystroke	r	n/a
329.4005	0.12	658801	keystroke	s	n/a
329.5055	0.059	659011	keystroke	Key.space	n/a
330.1945	0.091	660389	keystroke	n	n/a
330.4055	0.044	660811	keystroke	u	n/a
330.57	0.0755	661140	keystroke	m	n/a
330.7345	0.15	661469	keystroke	e	n/a
330.8395	0.0605	661679	keystroke	r	n/a
330.8695	0.09	661739	keystroke	i	n/a
331.0055	0.074	662011	keystroke	c	n/a
331.4545	0.075	662909	keystroke	Key.enter	n/a
331.536	9.4605	663072	prompt	n/a	applicable copied extension incomplete\n
332.1005	0.1045	664201	keystroke	a	n/a
332.34	0.06	664680	keystroke	p	n/a
332.4605	0.0895	664921	keystroke	p	n/a
332.64	0.06	665280	keystroke	i	n/a
332.865	0.045	665730	keystroke	l	n/a
333.4945	0.12	666989	keystroke	Key.backspace	n/a
333.63	0.0145	667260	keystroke	Key.backspace	n/a
333.9005	0.105	667801	keystroke	l	n/a
334.0795	0.09	668159	keystroke	i	n/a
334.2295	0.0905	668459	keystroke	c	n/a
334.334	0.1055	668668	keystroke	a	n/a
334.4995	0.105	668999	keystroke	b	n/a
334.6345	0.106	669269	keystroke	l	n/a
334.7545	0.06	669509	keystroke	e	n/a
334.8595	0.0755	669719	keystroke	Key.space	n/a
335.5955	0.089	671191	keystroke	c	n/a
335.7	0.0745	671400	keystroke	o	n/a
336.3305	0.06	672661	keystroke	p	n/a
336.5545	0.06	673109	keystroke	i	n/a
336.6295	0.0755	673259	keystroke	e	n/a
336.7645	0.105	673529	keystroke	d	n/a
337.0195	0.06	674039	keystroke	Key.space	n/a
337.7095	0.046	675419	keystroke	e	n/a
337.8295	0.091	675659	keystroke	x	n/a
337.995	0.1045	675990	keystroke	t	n/a
338.0845	0.06	676169	keystroke	e	n/a
338.1595	0.0905	676319	keystroke	n	n/a
338.28	0.06	676560	keystroke	s	n/a
338.385	0.195	676770	keystroke	i	n/a
338.4595	0.106	676919	keystroke	o	n/a
338.4895	0.106	676979	keystroke	n	n/a
338.6995	0.0605	677399	keystroke	Key.space	n/a
339.4805	0.149	678961	keystroke	i	n/a
339.5705	0.104	679141	keystroke	n	n/a
339.6905	0.0895	679381	keystroke	c	n/a
339.8095	0.105	679619	keystroke	o	n/a
339.9005	0.089	679801	keystroke	m	n/a
340.0355	0.105	680071	keystroke	p	n/a
340.2295	0.0905	680459	keystroke	l	n/a
340.3355	0.0445	680671	keystroke	e	n/a
340.395	0.105	680790	keystroke	t	n/a
340.485	0.09	680970	keystroke	e	n/a
340.9345	0.06	681869	keystroke	Key.enter	n/a
341.002	17.215	682004	prompt	n/a	battlefield phenomenon real matched\n
341.7755	0.075	683551	keystroke	b	n/a
341.8945	0.075	683789	keystroke	a	n/a
342.015	0.0445	684030	keystroke	t	n/a
342.1345	0.076	684269	keystroke	t	n/a
342.2405	0.1045	684481	keystroke	l	n/a
342.36	0.075	684720	keystroke	f	n/a
342.5095	0.075	685019	keystroke	i	n/a
342.5695	0.075	685139	keystroke	e	n/a
342.735	0.06	685470	keystroke	d	n/a
342.75	0.09	685500	keystroke	l	n/a
343.274	0.045	686548	keystroke	Key.backspace	n/a
343.394	0.061	686788	keystroke	Key.backspace	n/a
343.6345	0.0755	687269	keystroke	l	n/a
343.725	0.0595	687450	keystroke	d	n/a
343.8595	0.0455	687719	keystroke	Key.space	n/a
344.4295	0.06	688859	keystroke	Key.backspace	n/a
344.5795	0.045	689159	keystroke	Key.backspace	n/a
344.6845	0.075	689369	keystroke	Key.backspace	n/a
344.8195	0.06	689639	keystroke	Key.backspace	n/a
344.97	0.06	689940	keystroke	Key.backspace	n/a
345.285	0.06	690570	keystroke	Key.backspace	n/a
345.5245	0.0605	691049	keystroke	Key.backspace	n/a
346.23	0.0895	692460	keystroke	l	n/a
346.3645	0.06	692729	keystroke	e	n/a
346.575	0.06	693150	keystroke	f	n/a
346.725	0.0895	693450	keystroke	i	n/a
346.845	0.0895	693690	keystroke	e	n/a
346.9495	0.091	693899	keystroke	l	n/a
347.0545	0.0905	694109	keystroke	d	n/a
347.235	0.0445	694470	keystroke	Key.space	n/a
348.09	0.075	696180	keystroke	p	n/a
348.69	0.0455	697380	keystroke	e	n/a
348.765	0.0745	697530	keystroke	h	n/a
349.14	0.06	698280	keystroke	Key.backspace	n/a
349.2895	0.045	698579	keystroke	Key.backspace	n/a
349.425	0.0595	698850	keystroke	h	n/a
349.5	0.075	699000	keystroke	e	n/a
349.6045	0.0755	699209	keystroke	n	n/a
349.6945	0.09	699389	keystroke	o	n/a
350.4905	0.119	700981	keystroke	m	n/a
350.73	0.045	701460	keystroke	e	n/a
351.2995	0.105	702599	keystroke	o	n/a
351.7045	0.06	703409	keystroke	Key.backspace	n/a
354.527	0.0125	709054	keystroke	n	n/a
354.6155	0.105	709231	keystroke	o	n/a
354.7045	0.076	709409	keystroke	n	n/a
354.9295	0.075	709859	keystroke	Key.space	n/a
355.7405	0.0895	711481	keystroke	r	n/a
355.785	0.09	711570	keystroke	e	n/a
355.86	0.09	711720	keystroke	a	n/a
355.9655	0.1185	711931	keystroke	l	n/a
356.07	0.075	712140	keystroke	Key.space	n/a
356.2645	0.091	712529	keystroke	m	n/a
356.325	0.1045	712650	keystroke	a	n/a
356.4445	0.045	712889	keystroke	t	n/a
356.6095	0.09	713219	keystroke	c	n/a
356.7145	0.075	713429	keystroke	h	n/a
356.8055	0.059	713611	keystroke	e	n/a
356.9705	0.059	713941	keystroke	d	n/a
358.2	0.015	716400	keystroke	Key.enter	n/a
358.225	6.022	716450	prompt	n/a	marriage bracelet site elevation\n
358.8895	0.09	717779	keystroke	m	n/a
358.9495	0.1205	717899	keystroke	a	n/a
359.085	0.0595	718170	keystroke	r	n/a
359.2205	0.075	718441	keystroke	r	n/a
359.31	0.09	718620	keystroke	i	n/a
359.445	0.015	718890	keystroke	a	n/a
359.49	0.0595	718980	keystroke	g	n/a
359.535	0.09	719070	keystroke	e	n/a
359.6545	0.0605	719309	keystroke	Key.space	n/a
360.3905	0.0745	720781	keystroke	b	n/a
360.51	0.075	721020	keystroke	r	n/a
360.615	0.12	721230	keystroke	a	n/a
360.72	0.105	721440	keystroke	c	n/a
360.81	0.0905	721620	keystroke	e	n/a
360.8695	0.076	721739	keystroke	l	n/a
361.0205	0.09	722041	keystroke	e	n/a
361.0805	0.074	722161	keystroke	t	n/a
361.2295	0.061	722459	keystroke	Key.space	n/a
361.995	0.075	723990	keystroke	s	n/a
362.085	0.075	724170	keystroke	i	n/a
362.176	0.1045	724352	keystroke	t	n/a
362.25	0.0895	724500	keystroke	e	n/a
362.355	0.0745	724710	keystroke	Key.space	n/a
362.475	0.06	724950	keystroke	e	n/a
362.595	0.0755	725190	keystroke	l	n/a
362.6855	0.044	725371	keystroke	e	n/a
362.7755	0.09	725551	keystroke	v	n/a
362.91	0.105	725820	keystroke	a	n/a
362.985	0.075	725970	keystroke	t	n/a
363.075	0.21	726150	keystroke	i	n/a
363.18	0.12	726360	keystroke	o	n/a
363.225	0.105	726450	keystroke	n	n/a
364.185	0.06	728370	keystroke	Key.enter	n/a
364.2515	11.89	728503	prompt	n/a	anonymous recovery huge identifier\n
364.8005	0.089	729601	keystroke	a	n/a
364.9045	0.0755	729809	keystroke	n	n/a
365.04	0.105	730080	keystroke	o	n/a
365.16	0.075	730320	keystroke	n	n/a
365.415	0.03	730830	keystroke	y	n/a
365.6995	0.076	731399	keystroke	m	n/a
365.8205	0.1345	731641	keystroke	o	n/a
365.91	0.06	731820	keystroke	u	n/a
365.985	0.105	731970	keystroke	s	n/a
366.075	0.045	732150	keystroke	e	n/a
366.165	0.045	732330	keystroke	Key.space	n/a
366.63	0.045	733260	keystroke	Key.backspace	n/a
366.75	0.09	733500	keystroke	Key.backspace	n/a
366.87	0.09	733740	keystroke	Key.space	n/a
367.8005	0.0895	735601	keystroke	r	n/a
367.8745	0.09	735749	keystroke	e	n/a
368.0255	0.089	736051	keystroke	c	n/a
368.0995	0.0755	736199	keystroke	o	n/a
368.2345	0.045	736469	keystroke	v	n/a
368.2945	0.136	736589	keystroke	e	n/a
368.4	0.0905	736800	keystroke	r	n/a
368.505	0.0895	737010	keystroke	y	n/a
368.67	0.0745	737340	keystroke	Key.space	n/a
369.2555	0.06	738511	keystroke	h	n/a
369.4655	0.089	738931	keystroke	u	n/a
369.6145	0.09	739229	keystroke	g	n/a
369.6755	0.09	739351	keystroke	e	n/a
369.9	0.044	739800	keystroke	Key.space	n/a
370.665	0.075	741330	keystroke	i	n/a
370.77	0.075	741540	keystroke	d	n/a
370.98	0.06	741960	keystroke	e	n/a
371.055	0.0905	742110	keystroke	n	n/a
371.159	0.061	742318	keystroke	t	n/a
371.2655	0.0745	742531	keystroke	i	n/a
371.3705	0.0745	742741	keystroke	f	n/a
371.49	0.0745	742980	keystroke	i	n/a
371.5945	0.135	743189	keystroke	e	n/a
371.7145	0.075	743429	keystroke	r	n/a
376.127	0.013	752254	keystroke	Key.enter	n/a
376.1465	13.1835	752293	prompt	n/a	subsequently maintenance worm freeware\n
376.905	0.0905	753810	keystroke	s	n/a
377.085	0.12	754170	keystroke	u	n/a
377.19	0.075	754380	keystroke	b	n/a
377.28	0.105	754560	keystroke	s	n/a
377.4605	0.0745	754921	keystroke	e	n/a
377.655	0.09	755310	keystroke	q	n/a
377.7905	0.075	755581	keystroke	u	n/a
377.8805	0.0755	755761	keystroke	e	n/a
377.9855	0.089	755971	keystroke	n	n/a
378.0895	0.075	756179	keystroke	t	n/a
378.1795	0.09	756359	keystroke	l	n/a
378.3905	0.0595	756781	keystroke	y	n/a
378.48	0.075	756960	keystroke	Key.space	n/a
379.1255	0.105	758251	keystroke	m	n/a
379.2005	0.09	758401	keystroke	a	n/a
379.3655	0.089	758731	keystroke	i	n/a
379.4105	0.105	758821	keystroke	n	n/a
379.5905	0.105	759181	keystroke	t	n/a
379.6805	0.09	759361	keystroke	e	n/a
379.7855	0.09	759571	keystroke	n	n/a
380.76	0.075	761520	keystroke	a	n/a
380.85	0.0755	761700	keystroke	n	n/a
380.91	0.1205	761820	keystroke	c	n/a
381.015	0.0905	762030	keystroke	e	n/a
381.0895	0.06	762179	keystroke	Key.space	n/a
381.9595	0.0755	763919	keystroke	w	n/a
382.05	0.1055	764100	keystroke	o	n/a
382.1695	0.076	764339	keystroke	r	n/a
382.2595	0.1055	764519	keystroke	m	n/a
382.38	0.0745	764760	keystroke	Key.space	n/a
382.5905	0.074	765181	keystroke	f	n/a
382.7695	0.076	765539	keystroke	r	n/a
382.8905	0.075	765781	keystroke	e	n/a
383.0245	0.09	766049	keystroke	e	n/a
383.2495	0.166	766499	keystroke	a	n/a
383.4305	0.104	766861	keystroke	r	n/a
383.5045	0.091	767009	keystroke	e	n/a
384.0745	0.15	768149	keystroke	Key.backspace	n/a
384.2405	0.045	768481	keystroke	Key.backspace	n/a
384.3445	0.0905	768689	keystroke	Key.backspace	n/a
384.4505	0.1045	768901	keystroke	w	n/a
384.5705	0.1195	769141	keystroke	a	n/a
384.6605	0.1045	769321	keystroke	r	n/a
384.75	0.075	769500	keystroke	e	n/a
389.326	0.001	778652	keystroke	Key.enter	n/a
389.3345	14.695	778669	prompt	n/a	instrumental firm credits following\n
389.9705	0.105	779941	keystroke	i	n/a
390.0455	0.09	780091	keystroke	n	n/a
390.105	0.0755	780210	keystroke	s	n/a
390.195	0.0605	780390	keystroke	t	n/a
390.315	0.075	780630	keystroke	r	n/a
390.4055	0.0745	780811	keystroke	u	n/a
390.6005	0.09	781201	keystroke	m	n/a
390.6755	0.09	781351	keystroke	e	n/a
390.7805	0.09	781561	keystroke	n	n/a
390.8555	0.09	781711	keystroke	t	n/a
390.9465	0.104	781893	keystroke	a	n/a
391.0355	0.09	782071	keystroke	l	n/a
391.1855	0.075	782371	keystroke	Key.space	n/a
391.8005	0.089	783601	keystroke	f	n/a
391.921	0.0895	783842	keystroke	i	n/a
392.011	0.0745	784022	keystroke	r	n/a
392.1005	0.135	784201	keystroke	m	n/a
392.2505	0.089	784501	keystroke	Key.space	n/a
392.3855	0.1045	784771	keystroke	c	n/a
392.5945	0.106	785189	keystroke	r	n/a
392.6705	0.074	785341	keystroke	e	n/a
392.8655	0.059	785731	keystroke	d	n/a
393.0605	0.075	786121	keystroke	i	n/a
393.2095	0.076	786419	keystroke	t	n/a
393.3155	0.0895	786631	keystroke	s	n/a
393.5245	0.076	787049	keystroke	Key.space	n/a
394.155	0.09	788310	keystroke	b	n/a
394.65	0.06	789300	keystroke	Key.backspace	n/a
394.8005	0.0745	789601	keystroke	f	n/a
394.9505	0.09	789901	keystroke	o	n/a
395.16	0.0605	790320	keystroke	l	n/a
395.2805	0.0895	790561	keystroke	l	n/a
395.475	0.06	790950	keystroke	o	n/a
395.58	0.09	791160	keystroke	w	n/a
395.715	0.21	791430	keystroke	i	n/a
395.8805	0.06	791761	keystroke	g	n/a
395.9555	0.105	791911	keystroke	n	n/a
396.8245	0.075	793649	keystroke	Key.backspace	n/a
396.99	0.06	793980	keystroke	Key.backspace	n/a
397.2	0.0605	794400	keystroke	n	n/a
397.29	0.06	794580	keystroke	g	n/a
404.0265	0.001	808053	keystroke	Key.enter	n/a
404.034	9.6235	808068	prompt	n/a	surprise achievements disclosure mesh\n
404.746	0.0745	809492	keystroke	s	n/a
404.8355	0.075	809671	keystroke	u	n/a
404.9555	0.075	809911	keystroke	r	n/a
405.061	0.06	810122	keystroke	p	n/a
405.1805	0.075	810361	keystroke	r	n/a
405.3005	0.0755	810601	keystroke	i	n/a
405.36	0.076	810720	keystroke	s	n/a
405.4055	0.105	810811	keystroke	e	n/a
405.5255	0.075	811051	keystroke	Key.space	n/a
406.3965	0.104	812793	keystroke	a	n/a
406.4855	0.105	812971	keystroke	c	n/a
406.5755	0.09	813151	keystroke	h	n/a
406.6505	0.12	813301	keystroke	i	n/a
406.8305	0.12	813661	keystroke	e	n/a
407.2205	0.075	814441	keystroke	Key.backspace	n/a
407.3105	0.0745	814621	keystroke	v	n/a
407.7895	0.0905	815579	keystroke	Key.backspace	n/a
407.866	0.059	815732	keystroke	e	n/a
408.0755	0.0895	816151	keystroke	v	n/a
408.195	0.09	816390	keystroke	e	n/a
408.3905	0.09	816781	keystroke	m	n/a
408.496	0.104	816992	keystroke	e	n/a
408.6305	0.0755	817261	keystroke	n	n/a
408.7205	0.1345	817441	keystroke	t	n/a
408.84	0.106	817680	keystroke	s	n/a
409.0505	0.105	818101	keystroke	Key.space	n/a
409.8305	0.045	819661	keystroke	d	n/a
409.9205	0.105	819841	keystroke	i	n/a
410.0255	0.15	820051	keystroke	s	n/a
410.1605	0.06	820321	keystroke	c	n/a
410.4005	0.09	820801	keystroke	l	n/a
410.625	0.0755	821250	keystroke	o	n/a
410.7455	0.09	821491	keystroke	s	n/a
411.0915	0.089	822183	keystroke	u	n/a
411.2255	0.135	822451	keystroke	r	n/a
411.3305	0.075	822661	keystroke	e	n/a
411.4055	0.09	822811	keystroke	Key.space	n/a
412.441	0.044	824882	keystroke	m	n/a
412.455	0.1355	824910	keystroke	e	n/a
412.5755	0.09	825151	keystroke	s	n/a
412.636	0.0745	825272	keystroke	h	n/a
413.5955	0.06	827191	keystroke	Key.enter	n/a
413.6605	4.6765	827321	prompt	n/a	coast guys small monitor\n
414.3755	0.105	828751	keystroke	c	n/a
414.4955	0.0755	828991	keystroke	o	n/a
414.556	0.0745	829112	keystroke	a	n/a
414.6155	0.15	829231	keystroke	s	n/a
414.7205	0.06	829441	keystroke	t	n/a
414.8405	0.0895	829681	keystroke	Key.space	n/a
414.976	0.059	829952	keystroke	g	n/a
415.066	0.075	830132	keystroke	u	n/a
415.26	0.076	830520	keystroke	y	n/a
415.3805	0.0745	830761	keystroke	s	n/a
415.485	0.0755	830970	keystroke	Key.space	n/a
416.161	0.059	832322	keystroke	s	n/a
416.205	0.106	832410	keystroke	m	n/a
416.325	0.076	832650	keystroke	a	n/a
416.446	0.045	832892	keystroke	l	n/a
416.58	0.105	833160	keystroke	l	n/a
416.67	0.12	833340	keystroke	Key.space	n/a
416.8055	0.1495	833611	keystroke	m	n/a
416.94	0.105	833880	keystroke	o	n/a
417.181	0.089	834362	keystroke	n	n/a
417.24	0.105	834480	keystroke	i	n/a
417.361	0.045	834722	keystroke	t	n/a
417.4505	0.0905	834901	keystroke	o	n/a
417.5255	0.075	835051	keystroke	r	n/a
418.2455	0.09	836491	keystroke	Key.enter	n/a
418.341	10.557	836682	prompt	n/a	usda insertion photography shakespeare\n
419.206	0.074	838412	keystroke	u	n/a
419.266	0.075	838532	keystroke	d	n/a
419.356	0.119	838712	keystroke	s	n/a
419.805	0.075	839610	keystroke	Key.backspace	n/a
419.955	0.0905	839910	keystroke	Key.backspace	n/a
420.0305	0.1055	840061	keystroke	s	n/a
420.1205	0.12	840241	keystroke	d	n/a
420.2255	0.075	840451	keystroke	a	n/a
420.3155	0.075	840631	keystroke	Key.space	n/a
421.396	0.0745	842792	keystroke	i	n/a
421.44	0.0905	842880	keystroke	n	n/a
421.62	0.1505	843240	keystroke	s	n/a
421.756	0.1045	843512	keystroke	e	n/a
421.846	0.0595	843692	keystroke	r	n/a
421.9655	0.0755	843931	keystroke	t	n/a
422.056	0.24	844112	keystroke	i	n/a
422.131	0.1195	844262	keystroke	o	n/a
422.146	0.1795	844292	keystroke	n	n/a
422.3105	0.075	844621	keystroke	Key.space	n/a
422.5505	0.075	845101	keystroke	p	n/a
422.7305	0.0605	845461	keystroke	h	n/a
422.82	0.075	845640	keystroke	o	n/a
422.956	0.06	845912	keystroke	t	n/a
423.226	0.0595	846452	keystroke	o	n/a
423.5855	0.075	847171	keystroke	g	n/a
423.78	0.0755	847560	keystroke	r	n/a
423.9	0.046	847800	keystroke	a	n/a
423.915	0.061	847830	keystroke	p	n/a
424.111	0.06	848222	keystroke	h	n/a
424.3055	0.0455	848611	keystroke	y	n/a
424.4705	0.0605	848941	keystroke	Key.space	n/a
425.206	0.0595	850412	keystroke	s	n/a
425.5355	0.0755	851071	keystroke	h	n/a
425.6405	0.075	851281	keystroke	a	n/a
425.7455	0.09	851491	keystroke	k	n/a
425.836	0.0595	851672	keystroke	e	n/a
425.9855	0.0755	851971	keystroke	s	n/a
426.3315	0.0745	852663	keystroke	p	n/a
426.4355	0.1655	852871	keystroke	e	n/a
426.4655	0.136	852931	keystroke	a	n/a
426.795	0.1655	853590	keystroke	r	n/a
426.945	0.0755	853890	keystroke	e	n/a
428.835	0.061	857670	keystroke	Key.enter	n/a
428.9025	5.3345	857805	prompt	n/a	rome elderly elvis hiking\n
429.5105	0.06	859021	keystroke	r	n/a
429.5855	0.1205	859171	keystroke	o	n/a
429.6455	0.1205	859291	keystroke	m	n/a
429.736	0.075	859472	keystroke	e	n/a
429.826	0.09	859652	keystroke	Key.space	n/a
429.961	0.06	859922	keystroke	e	n/a
430.051	0.075	860102	keystroke	l	n/a
430.156	0.045	860312	keystroke	d	n/a
430.3205	0.1055	860641	keystroke	e	n/a
430.41	0.0455	860820	keystroke	r	n/a
430.4705	0.0905	860941	keystroke	l	n/a
430.68	0.061	861360	keystroke	y	n/a
430.7855	0.045	861571	keystroke	Key.space	n/a
431.761	0.059	863522	keystroke	e	n/a
431.925	0.075	863850	keystroke	l	n/a
432.061	0.059	864122	keystroke	v	n/a
432.166	0.09	864332	keystroke	i	n/a
432.285	0.06	864570	keystroke	s	n/a
432.4055	0.045	864811	keystroke	Key.space	n/a
432.751	0.0745	865502	keystroke	h	n/a
432.8405	0.09	865681	keystroke	i	n/a
433.051	0.0595	866102	keystroke	k	n/a
433.2305	0.06	866461	keystroke	i	n/a
433.2755	0.06	866551	keystroke	n	n/a
433.351	0.0445	866702	keystroke	g	n/a
434.1605	0.075	868321	keystroke	Key.enter	n/a
434.2415	6.5805	868483	prompt	n/a	churches diet officials those\n
434.9255	0.0305	869851	keystroke	c	n/a
435.0005	0.075	870001	keystroke	h	n/a
435.2105	0.075	870421	keystroke	u	n/a
435.3005	0.06	870601	keystroke	r	n/a
435.4955	0.0595	870991	keystroke	c	n/a
435.555	0.0755	871110	keystroke	h	n/a
435.676	0.0895	871352	keystroke	s	n/a
435.7505	0.12	871501	keystroke	e	n/a
436.1555	0.06	872311	keystroke	Key.backspace	n/a
436.2605	0.075	872521	keystroke	Key.backspace	n/a
436.2755	0.1195	872551	keystroke	e	n/a
436.351	0.1195	872702	keystroke	s	n/a
436.4855	0.075	872971	keystroke	Key.space	n/a
437.4605	0.075	874921	keystroke	d	n/a
437.5805	0.09	875161	keystroke	i	n/a
437.6705	0.1355	875341	keystroke	e	n/a
437.7755	0.075	875551	keystroke	t	n/a
437.8655	0.0895	875731	keystroke	Key.space	n/a
438.06	0.075	876120	keystroke	o	n/a
438.151	0.075	876302	keystroke	f	n/a
438.3	0.045	876600	keystroke	f	n/a
438.36	0.075	876720	keystroke	i	n/a
438.4505	0.09	876901	keystroke	c	n/a
438.5555	0.075	877111	keystroke	i	n/a
438.6605	0.09	877321	keystroke	a	n/a
438.766	0.0595	877532	keystroke	l	n/a
438.871	0.0595	877742	keystroke	s	n/a
439.2155	0.06	878431	keystroke	Key.space	n/a
439.6505	0.0605	879301	keystroke	t	n/a
439.7255	0.0745	879451	keystroke	h	n/a
439.815	0.105	879630	keystroke	o	n/a
439.935	0.061	879870	keystroke	s	n/a
439.9655	0.075	879931	keystroke	e	n/a
440.7455	0.0745	881491	keystroke	Key.enter	n/a
440.8255	6.6265	881651	prompt	n/a	bunch innovation bored verbal\n
441.5255	0.09	883051	keystroke	b	n/a
441.646	0.119	883292	keystroke	u	n/a
441.766	0.134	883532	keystroke	n	n/a
441.945	0.0755	883890	keystroke	c	n/a
442.036	0.0445	884072	keystroke	h	n/a
442.1255	0.09	884251	keystroke	Key.space	n/a
442.2755	0.0455	884551	keystroke	o	n/a
442.665	0.0605	885330	keystroke	Key.backspace	n/a
442.891	0.09	885782	keystroke	i	n/a
442.9955	0.105	885991	keystroke	n	n/a
443.1605	0.1055	886321	keystroke	n	n/a
443.3405	0.09	886681	keystroke	o	n/a
443.461	0.0745	886922	keystroke	v	n/a
443.731	0.0895	887462	keystroke	a	n/a
443.9705	0.045	887941	keystroke	t	n/a
444.0605	0.195	888121	keystroke	i	n/a
444.1205	0.12	888241	keystroke	o	n/a
444.1505	0.135	888301	keystroke	n	n/a
444.3455	0.075	888691	keystroke	Key.space	n/a
445.0355	0.0755	890071	keystroke	b	n/a
445.1705	0.09	890341	keystroke	o	n/a
445.2305	0.12	890461	keystroke	r	n/a
445.3205	0.06	890641	keystroke	e	n/a
445.5005	0.0755	891001	keystroke	d	n/a
445.5905	0.09	891181	keystroke	Key.space	n/a
445.7405	0.075	891481	keystroke	v	n/a
445.8455	0.105	891691	keystroke	e	n/a
445.9205	0.075	891841	keystroke	r	n/a
446.0245	0.0765	892049	keystroke	b	n/a
446.1305	0.075	892261	keystroke	a	n/a
446.2345	0.076	892469	keystroke	l	n/a
447.3745	0.076	894749	keystroke	Key.enter	n/a
447.455	5.907	894910	prompt	n/a	travel police matthew gays\n
448.081	0.074	896162	keystroke	t	n/a
448.2155	0.075	896431	keystroke	r	n/a
448.305	0.105	896610	keystroke	a	n/a
448.425	0.0905	896850	keystroke	v	n/a
448.4855	0.12	896971	keystroke	e	n/a
448.591	0.0745	897182	keystroke	l	n/a
448.696	0.1045	897392	keystroke	Key.space	n/a
448.965	0.0755	897930	keystroke	p	n/a
449.16	0.06	898320	keystroke	o	n/a
449.341	0.044	898682	keystroke	l	n/a
449.521	0.0445	899042	keystroke	i	n/a
449.55	0.0905	899100	keystroke	c	n/a
449.611	0.1045	899222	keystroke	e	n/a
449.7305	0.06	899461	keystroke	Key.space	n/a
450.5255	0.1205	901051	keystroke	m	n/a
450.8855	0.09	901771	keystroke	a	n/a
451.0205	0.06	902041	keystroke	t	n/a
451.1555	0.075	902311	keystroke	t	n/a
451.291	0.0895	902582	keystroke	h	n/a
451.396	0.105	902792	keystroke	e	n/a
451.4405	0.1345	902881	keystroke	w	n/a
451.5605	0.074	903121	keystroke	Key.space	n/a
451.7705	0.06	903541	keystroke	g	n/a
451.8455	0.075	903691	keystroke	a	n/a
451.9805	0.06	903961	keystroke	y	n/a
452.0705	0.0755	904141	keystroke	s	n/a
453.345	0.0155	906690	keystroke	Key.enter	n/a
453.3685	7.314	906737	prompt	n/a	uniform explain parliamentary diet\n
454.066	0.075	908132	keystroke	u	n/a
454.2455	0.09	908491	keystroke	n	n/a
454.351	0.0745	908702	keystroke	i	n/a
454.4255	0.075	908851	keystroke	f	n/a
454.5755	0.0755	909151	keystroke	o	n/a
454.6955	0.0605	909391	keystroke	r	n/a
454.8005	0.1205	909601	keystroke	m	n/a
454.98	0.076	909960	keystroke	Key.space	n/a
455.356	0.059	910712	keystroke	e	n/a
455.5355	0.09	911071	keystroke	x	n/a
455.6105	0.0755	911221	keystroke	p	n/a
455.7905	0.075	911581	keystroke	l	n/a
455.8805	0.075	911761	keystroke	a	n/a
456.0005	0.0605	912001	keystroke	i	n/a
456.0305	0.09	912061	keystroke	n	n/a
456.1655	0.075	912331	keystroke	Key.space	n/a
457.411	0.074	914822	keystroke	p	n/a
457.501	0.12	915002	keystroke	a	n/a
457.5905	0.0605	915181	keystroke	r	n/a
457.846	0.134	915692	keystroke	l	n/a
458.13	0.075	916260	keystroke	i	n/a
458.22	0.09	916440	keystroke	a	n/a
458.3705	0.09	916741	keystroke	m	n/a
458.5505	0.0905	917101	keystroke	e	n/a
458.6555	0.0745	917311	keystroke	n	n/a
458.76	0.0605	917520	keystroke	t	n/a
458.851	0.1345	917702	keystroke	a	n/a
458.9405	0.09	917881	keystroke	r	n/a
459.076	0.06	918152	keystroke	y	n/a
459.2405	0.045	918481	keystroke	Key.space	n/a
459.931	0.074	919862	keystroke	d	n/a
460.036	0.075	920072	keystroke	i	n/a
460.126	0.105	920252	keystroke	e	n/a
460.201	0.075	920402	keystroke	t	n/a
460.621	0.06	921242	keystroke	Key.enter	n/a
460.6875	9.775	921375	prompt	n/a	transport joyce access tournaments\n
461.296	0.045	922592	keystroke	t	n/a
461.416	0.075	922832	keystroke	r	n/a
461.5355	0.0905	923071	keystroke	n	n/a
461.6405	0.075	923281	keystroke	a	n/a
461.761	0.1045	923522	keystroke	s	n/a
462.1355	0.0455	924271	keystroke	Key.backspace	n/a
462.2705	0.045	924541	keystroke	Key.backspace	n/a
462.3905	0.1045	924781	keystroke	Key.backspace	n/a
462.5105	0.0595	925021	keystroke	a	n/a
462.6305	0.0445	925261	keystroke	n	n/a
462.721	0.074	925442	keystroke	s	n/a
462.84	0.0905	925680	keystroke	p	n/a
463.065	0.075	926130	keystroke	o	n/a
463.125	0.06	926250	keystroke	r	n/a
463.276	0.06	926552	keystroke	t	n/a
463.365	0.0605	926730	keystroke	Key.space	n/a
463.9355	0.0755	927871	keystroke	j	n/a
464.07	0.075	928140	keystroke	o	n/a
464.235	0.0755	928470	keystroke	y	n/a
464.52	0.1205	929040	keystroke	c	n/a
464.6255	0.0895	929251	keystroke	e	n/a
464.7	0.06	929400	keystroke	Key.space	n/a
465.42	0.091	930840	keystroke	a	n/a
465.541	0.074	931082	keystroke	c	n/a
465.676	0.0895	931352	keystroke	c	n/a
465.81	0.0755	931620	keystroke	e	n/a
465.976	0.06	931952	keystroke	s	n/a
466.11	0.075	932220	keystroke	s	n/a
466.23	0.075	932460	keystroke	Key.space	n/a
466.59	0.0605	933180	keystroke	t	n/a
466.785	0.1055	933570	keystroke	o	n/a
466.845	0.105	933690	keystroke	u	n/a
466.906	0.0745	933812	keystroke	r	n/a
467.2805	0.0755	934561	keystroke	n	n/a
467.5355	0.1055	935071	keystroke	m	n/a
467.6555	0.0905	935311	keystroke	a	n/a
467.9705	0.06	935941	keystroke	Key.backspace	n/a
468.1055	0.075	936211	keystroke	Key.backspace	n/a
468.2405	0.0905	936481	keystroke	a	n/a
468.3605	0.09	936721	keystroke	m	n/a
468.4955	0.075	936991	keystroke	e	n/a
468.5705	0.075	937141	keystroke	n	n/a
468.7055	0.075	937411	keystroke	t	n/a
468.8105	0.12	937621	keystroke	s	n/a
470.4005	0.06	940801	keystroke	Key.enter	n/a
470.4665	6.536	940933	prompt	n/a	first coordinate acute intention\n
471.1355	0.0745	942271	keystroke	f	n/a
471.256	0.089	942512	keystroke	i	n/a
471.33	0.0605	942660	keystroke	r	n/a
471.465	0.12	942930	keystroke	s	n/a
471.526	0.104	943052	keystroke	t	n/a
471.645	0.09	943290	keystroke	Key.space	n/a
471.7655	0.0905	943531	keystroke	c	n/a
471.8705	0.0745	943741	keystroke	o	n/a
471.976	0.0595	943952	keystroke	r	n/a
472.32	0.06	944640	keystroke	Key.backspace	n/a
472.5155	0.06	945031	keystroke	o	n/a
472.5905	0.045	945181	keystroke	r	n/a
472.7855	0.06	945571	keystroke	d	n/a
472.935	0.106	945870	keystroke	i	n/a
472.995	0.076	945990	keystroke	n	n/a
473.086	0.105	946172	keystroke	a	n/a
473.206	0.09	946412	keystroke	t	n/a
473.251	0.1045	946502	keystroke	e	n/a
473.4305	0.075	946861	keystroke	Key.space	n/a
474.1355	0.045	948271	keystroke	a	n/a
474.1955	0.075	948391	keystroke	c	n/a
474.3305	0.0755	948661	keystroke	u	n/a
474.4205	0.09	948841	keystroke	t	n/a
474.496	0.1045	948992	keystroke	e	n/a
474.5855	0.075	949171	keystroke	Key.space	n/a
475.0055	0.105	950011	keystroke	i	n/a
475.0645	0.106	950129	keystroke	n	n/a
475.231	0.09	950462	keystroke	t	n/a
475.306	0.09	950612	keystroke	e	n/a
475.426	0.1345	950852	keystroke	n	n/a
475.591	0.0595	951182	keystroke	t	n/a
475.7705	0.24	951541	keystroke	i	n/a
475.861	0.12	951722	keystroke	o	n/a
475.9205	0.104	951841	keystroke	n	n/a
476.9255	0.075	953851	keystroke	Key.enter	n/a
477.0075	7.42	954015	prompt	n/a	porcelain bunny logo barriers\n
477.8555	0.0605	955711	keystroke	p	n/a
478.051	0.074	956102	keystroke	o	n/a
478.1705	0.09	956341	keystroke	r	n/a
478.5905	0.0455	957181	keystroke	c	n/a
478.771	0.075	957542	keystroke	e	n/a
478.891	0.09	957782	keystroke	l	n/a
479.0555	0.09	958111	keystroke	a	n/a
479.191	0.119	958382	keystroke	i	n/a
479.236	0.12	958472	keystroke	n	n/a
479.4005	0.075	958801	keystroke	Key.space	n/a
480.1205	0.0755	960241	keystroke	b	n/a
480.2405	0.105	960481	keystroke	u	n/a
480.4355	0.075	960871	keystroke	n	n/a
480.5855	0.045	961171	keystroke	n	n/a
480.7955	0.045	961591	keystroke	y	n/a
480.8855	0.09	961771	keystroke	Key.space	n/a
481.1105	0.0755	962221	keystroke	l	n/a
481.3205	0.06	962641	keystroke	o	n/a
481.441	0.06	962882	keystroke	g	n/a
481.5155	0.075	963031	keystroke	o	n/a
481.6655	0.09	963331	keystroke	Key.space	n/a
481.8455	0.075	963691	keystroke	b	n/a
481.966	0.1195	963932	keystroke	a	n/a
482.1005	0.0455	964201	keystroke	r	n/a
482.2205	0.09	964441	keystroke	r	n/a
482.2805	0.09	964561	keystroke	i	n/a
482.3855	0.12	964771	keystroke	e	n/a
482.4605	0.09	964921	keystroke	r	n/a
482.8955	0.0445	965791	keystroke	s	n/a
484.35	0.075	968700	keystroke	Key.enter	n/a
484.4315	11.6545	968863	prompt	n/a	hourly similarly hierarchy robbie\n
485.056	0.075	970112	keystroke	h	n/a
485.221	0.089	970442	keystroke	o	n/a
485.266	0.075	970532	keystroke	u	n/a
485.356	0.075	970712	keystroke	r	n/a
485.446	0.0895	970892	keystroke	l	n/a
485.6555	0.06	971311	keystroke	y	n/a
485.7605	0.09	971521	keystroke	Key.space	n/a
486.4055	0.09	972811	keystroke	s	n/a
486.5255	0.165	973051	keystroke	i	n/a
486.6305	0.1055	973261	keystroke	m	n/a
486.826	0.0895	973652	keystroke	i	n/a
486.9755	0.105	973951	keystroke	l	n/a
487.0655	0.12	974131	keystroke	a	n/a
487.1405	0.105	974281	keystroke	r	n/a
487.4705	0.091	974941	keystroke	l	n/a
487.681	0.0595	975362	keystroke	y	n/a
487.9805	0.06	975961	keystroke	Key.space	n/a
488.5055	0.03	977011	keystroke	h	n/a
488.5655	0.1195	977131	keystroke	i	n/a
489.031	0.074	978062	keystroke	e	n/a
490.231	0.045	980462	keystroke	a	n/a
490.6655	0.0905	981331	keystroke	Key.backspace	n/a
490.8005	0.1055	981601	keystroke	r	n/a
490.891	0.12	981782	keystroke	a	n/a
490.951	0.1045	981902	keystroke	r	n/a
491.1905	0.075	982381	keystroke	c	n/a
491.311	0.0895	982622	keystroke	h	n/a
491.551	0.0445	983102	keystroke	y	n/a
491.6405	0.075	983281	keystroke	Key.space	n/a
492.601	0.06	985202	keystroke	r	n/a
492.691	0.075	985382	keystroke	o	n/a
492.886	0.0595	985772	keystroke	b	n/a
493.0055	0.105	986011	keystroke	b	n/a
493.096	0.1045	986192	keystroke	i	n/a
493.2005	0.075	986401	keystroke	e	n/a
496.0825	0.001	992165	keystroke	Key.enter	n/a
496.091	9.246	992182	prompt	n/a	design adsl wearing respiratory\n
496.666	0.0295	993332	keystroke	d	n/a
496.816	0.1045	993632	keystroke	e	n/a
496.9355	0.105	993871	keystroke	s	n/a
497.0255	0.09	994051	keystroke	i	n/a
497.1605	0.06	994321	keystroke	g	n/a
497.2355	0.0755	994471	keystroke	n	n/a
497.3255	0.06	994651	keystroke	Key.space	n/a
498.1355	0.105	996271	keystroke	a	n/a
498.2415	0.0895	996483	keystroke	d	n/a
498.6605	0.06	997321	keystroke	s	n/a
499.1255	0.075	998251	keystroke	l	n/a
499.305	0.075	998610	keystroke	Key.space	n/a
499.92	0.091	999840	keystroke	w	n/a
500.281	0.1345	1000562	keystroke	e	n/a
500.4305	0.0755	1000861	keystroke	a	n/a
500.4905	0.075	1000981	keystroke	r	n/a
500.6105	0.1045	1001221	keystroke	i	n/a
500.6705	0.105	1001341	keystroke	n	n/a
500.7305	0.0755	1001461	keystroke	g	n/a
500.851	0.09	1001702	keystroke	Key.space	n/a
501.706	0.1195	1003412	keystroke	r	n/a
501.796	0.1045	1003592	keystroke	e	n/a
501.9155	0.1195	1003831	keystroke	s	n/a
502.4105	0.09	1004821	keystroke	p	n/a
502.6355	0.045	1005271	keystroke	i	n/a
502.7405	0.105	1005481	keystroke	r	n/a
502.906	0.1045	1005812	keystroke	a	n/a
503.0255	0.06	1006051	keystroke	t	n/a
503.296	0.075	1006592	keystroke	o	n/a
503.3715	0.074	1006743	keystroke	r	n/a
503.5655	0.075	1007131	keystroke	y	n/a
505.261	0.074	1010522	keystroke	Key.enter	n/a
505.3415	7.136	1010683	prompt	n/a	bloom chicken managing eggs\n
505.966	0.0745	1011932	keystroke	b	n/a
506.086	0.105	1012172	keystroke	l	n/a
506.3405	0.045	1012681	keystroke	o	n/a
506.566	0.029	1013132	keystroke	o	n/a
506.581	0.105	1013162	keystroke	m	n/a
506.6705	0.09	1013341	keystroke	Key.space	n/a
507.21	0.076	1014420	keystroke	c	n/a
507.2555	0.075	1014511	keystroke	h	n/a
507.346	0.1195	1014692	keystroke	i	n/a
507.45	0.105	1014900	keystroke	c	n/a
507.5855	0.0745	1015171	keystroke	e	n/a
507.586	0.0895	1015172	keystroke	k	n/a
507.7355	0.1195	1015471	keystroke	n	n/a
507.9155	0.06	1015831	keystroke	Key.space	n/a
508.17	0.0455	1016340	keystroke	Key.backspace	n/a
508.2905	0.06	1016581	keystroke	Key.backspace	n/a
508.425	0.0755	1016850	keystroke	Key.backspace	n/a
508.5605	0.09	1017121	keystroke	Key.backspace	n/a
508.786	0.044	1017572	keystroke	k	n/a
508.8455	0.075	1017691	keystroke	e	n/a
508.936	0.09	1017872	keystroke	n	n/a
509.0405	0.09	1018081	keystroke	Key.space	n/a
509.821	0.0895	1019642	keystroke	m	n/a
509.9255	0.0745	1019851	keystroke	a	n/a
510.0305	0.075	1020061	keystroke	n	n/a
510.121	0.089	1020242	keystroke	a	n/a
510.226	0.0445	1020452	keystroke	g	n/a
510.405	0.075	1020810	keystroke	i	n/a
510.451	0.0895	1020902	keystroke	n	n/a
510.556	0.059	1021112	keystroke	g	n/a
510.6755	0.0595	1021351	keystroke	Key.space	n/a
511.051	0.06	1022102	keystroke	e	n/a
511.1855	0.0605	1022371	keystroke	g	n/a
511.321	0.0895	1022642	keystroke	g	n/a
511.426	0.09	1022852	keystroke	s	n/a
512.385	0.091	1024770	keystroke	Key.enter	n/a
512.4805	5.217	1024961	prompt	n/a	it competitive signs pending\n
513.091	0.074	1026182	keystroke	i	n/a
513.2105	0.0605	1026421	keystroke	t	n/a
513.2855	0.06	1026571	keystroke	Key.space	n/a
513.436	0.09	1026872	keystroke	c	n/a
513.511	0.1195	1027022	keystroke	o	n/a
513.5855	0.09	1027171	keystroke	m	n/a
513.766	0.0895	1027532	keystroke	p	n/a
513.9455	0.0605	1027891	keystroke	e	n/a
514.185	0.046	1028370	keystroke	t	n/a
514.276	0.06	1028552	keystroke	i	n/a
514.35	0.046	1028700	keystroke	t	n/a
514.426	0.0745	1028852	keystroke	i	n/a
514.516	0.09	1029032	keystroke	v	n/a
514.59	0.091	1029180	keystroke	e	n/a
514.695	0.06	1029390	keystroke	Key.space	n/a
515.4455	0.075	1030891	keystroke	s	n/a
515.5505	0.075	1031101	keystroke	i	n/a
515.6855	0.075	1031371	keystroke	g	n/a
515.8655	0.105	1031731	keystroke	n	n/a
516.0305	0.06	1032061	keystroke	s	n/a
516.1655	0.045	1032331	keystroke	Key.space	n/a
516.556	0.0595	1033112	keystroke	p	n/a
516.6455	0.06	1033291	keystroke	e	n/a
516.751	0.0895	1033502	keystroke	n	n/a
516.8415	0.0595	1033683	keystroke	d	n/a
516.916	0.0895	1033832	keystroke	i	n/a
516.961	0.0895	1033922	keystroke	n	n/a
517.0345	0.0615	1034069	keystroke	g	n/a
517.6055	0.0895	1035211	keystroke	Key.enter	n/a
517.7035	8.2295	1035407	prompt	n/a	thehun analysts andy bass\n
518.3255	0.045	1036651	keystroke	t	n/a
518.3855	0.09	1036771	keystroke	h	n/a
518.4905	0.06	1036981	keystroke	e	n/a
519.091	0.104	1038182	keystroke	h	n/a
519.18	0.06	1038360	keystroke	u	n/a
519.391	0.09	1038782	keystroke	n	n/a
519.6005	0.06	1039201	keystroke	Key.space	n/a
520.4555	0.1355	1040911	keystroke	a	n/a
520.6055	0.075	1041211	keystroke	n	n/a
520.6955	0.105	1041391	keystroke	a	n/a
520.8155	0.075	1041631	keystroke	l	n/a
521.041	0.044	1042082	keystroke	y	n/a
521.146	0.09	1042292	keystroke	s	n/a
521.341	0.045	1042682	keystroke	t	n/a
521.551	0.045	1043102	keystroke	s	n/a
521.7	0.061	1043400	keystroke	Key.space	n/a
522.3455	0.1055	1044691	keystroke	a	n/a
522.4655	0.0755	1044931	keystroke	n	n/a
522.6155	0.075	1045231	keystroke	d	n/a
522.736	0.0745	1045472	keystroke	y	n/a
522.8405	0.06	1045681	keystroke	Key.space	n/a
522.991	0.0595	1045982	keystroke	a	n/a
523.111	0.075	1046222	keystroke	b	n/a
523.5605	0.09	1047121	keystroke	Key.backspace	n/a
523.8155	0.075	1047631	keystroke	Key.backspace	n/a
524.1755	0.075	1048351	keystroke	b	n/a
524.2805	0.06	1048561	keystroke	a	n/a
524.4005	0.09	1048801	keystroke	s	n/a
524.5505	0.075	1049101	keystroke	s	n/a
525.8705	0.06	1051741	keystroke	Key.enter	n/a
525.9365	7.346	1051873	prompt	n/a	worthy magnetic customs norwegian\n
526.5755	0.0755	1053151	keystroke	w	n/a
526.6955	0.0605	1053391	keystroke	o	n/a
526.785	0.046	1053570	keystroke	r	n/a
526.936	0.06	1053872	keystroke	t	n/a
527.011	0.075	1054022	keystroke	h	n/a
527.19	0.061	1054380	keystroke	y	n/a
527.28	0.0755	1054560	keystroke	Key.space	n/a
527.521	0.09	1055042	keystroke	m	n/a
527.626	0.089	1055252	keystroke	a	n/a
527.716	0.045	1055432	keystroke	g	n/a
527.82	0.0905	1055640	keystroke	n	n/a
527.9405	0.075	1055881	keystroke	e	n/a
528.061	0.0745	1056122	keystroke	t	n/a
528.1955	0.09	1056391	keystroke	i	n/a
528.3005	0.06	1056601	keystroke	c	n/a
528.4055	0.075	1056811	keystroke	Key.space	n/a
528.8405	0.06	1057681	keystroke	c	n/a
528.9305	0.0755	1057861	keystroke	u	n/a
529.0065	0.1185	1058013	keystroke	s	n/a
529.0955	0.06	1058191	keystroke	t	n/a
529.17	0.105	1058340	keystroke	o	n/a
529.215	0.091	1058430	keystroke	m	n/a
529.336	0.074	1058672	keystroke	s	n/a
529.4555	0.0595	1058911	keystroke	Key.space	n/a
530.2055	0.09	1060411	keystroke	m	n/a
530.5505	0.045	1061101	keystroke	Key.backspace	n/a
530.7305	0.09	1061461	keystroke	n	n/a
530.9255	0.075	1061851	keystroke	o	n/a
531.0605	0.075	1062121	keystroke	r	n/a
531.4515	0.0745	1062903	keystroke	w	n/a
531.5555	0.09	1063111	keystroke	e	n/a
531.7805	0.0605	1063561	keystroke	g	n/a
531.8555	0.0745	1063711	keystroke	i	n/a
531.976	0.059	1063952	keystroke	a	n/a
532.051	0.074	1064102	keystroke	n	n/a
533.2055	0.075	1066411	keystroke	Key.enter	n/a
533.289	10.676	1066578	prompt	n/a	presentations medicines pakistan hardly\n
534.0305	0.076	1068061	keystroke	p	n/a
534.1205	0.105	1068241	keystroke	r	n/a
534.2105	0.0905	1068421	keystroke	e	n/a
534.2705	0.12	1068541	keystroke	s	n/a
534.376	0.1045	1068752	keystroke	e	n/a
534.4655	0.0905	1068931	keystroke	n	n/a
534.5705	0.075	1069141	keystroke	t	n/a
534.661	0.12	1069322	keystroke	a	n/a
534.7505	0.09	1069501	keystroke	t	n/a
534.8255	0.1645	1069651	keystroke	i	n/a
534.8855	0.1055	1069771	keystroke	o	n/a
534.9005	0.1355	1069801	keystroke	n	n/a
535.051	0.09	1070102	keystroke	s	n/a
535.155	0.0605	1070310	keystroke	Key.space	n/a
535.995	0.0905	1071990	keystroke	m	n/a
536.0705	0.06	1072141	keystroke	e	n/a
536.2205	0.1055	1072441	keystroke	d	n/a
536.3105	0.075	1072621	keystroke	i	n/a
536.4005	0.075	1072801	keystroke	c	n/a
536.5355	0.12	1073071	keystroke	i	n/a
536.626	0.1195	1073252	keystroke	n	n/a
536.7005	0.18	1073401	keystroke	e	n/a
536.8505	0.1055	1073701	keystroke	s	n/a
536.971	0.09	1073942	keystroke	Key.space	n/a
537.721	0.089	1075442	keystroke	p	n/a
537.87	0.106	1075740	keystroke	a	n/a
538.0355	0.075	1076071	keystroke	k	n/a
538.23	0.06	1076460	keystroke	i	n/a
538.275	0.105	1076550	keystroke	s	n/a
538.47	0.045	1076940	keystroke	t	n/a
538.62	0.061	1077240	keystroke	a	n/a
538.711	0.0895	1077422	keystroke	n	n/a
538.8455	0.045	1077691	keystroke	Key.space	n/a
540.706	0.075	1081412	keystroke	h	n/a
540.796	0.12	1081592	keystroke	a	n/a
540.916	0.105	1081832	keystroke	r	n/a
541.036	0.075	1082072	keystroke	d	n/a
541.066	0.09	1082132	keystroke	l	n/a
541.291	0.045	1082582	keystroke	y	n/a
543.9625	0	1087925	keystroke	Key.enter	n/a
543.97	7.5375	1087940	prompt	n/a	longer anybody victory lived\n
544.696	0.09	1089392	keystroke	l	n/a
544.9365	0.1195	1089873	keystroke	o	n/a
545.041	0.105	1090082	keystroke	n	n/a
545.085	0.075	1090170	keystroke	g	n/a
545.236	0.15	1090472	keystroke	e	n/a
545.326	0.105	1090652	keystroke	r	n/a
545.445	0.0755	1090890	keystroke	Key.space	n/a
545.9415	0.09	1091883	keystroke	a	n/a
546.0315	0.089	1092063	keystroke	n	n/a
546.241	0.06	1092482	keystroke	y	n/a
546.4205	0.0605	1092841	keystroke	b	n/a
546.5255	0.09	1093051	keystroke	o	n/a
546.6315	0.089	1093263	keystroke	d	n/a
546.7355	0.0595	1093471	keystroke	y	n/a
546.84	0.0905	1093680	keystroke	Key.space	n/a
547.5305	0.0755	1095061	keystroke	v	n/a
547.6655	0.075	1095331	keystroke	i	n/a
547.7255	0.105	1095451	keystroke	c	n/a
547.936	0.0595	1095872	keystroke	t	n/a
548.146	0.0745	1096292	keystroke	o	n/a
548.2655	0.0455	1096531	keystroke	r	n/a
548.3855	0.06	1096771	keystroke	y	n/a
548.4755	0.075	1096951	keystroke	Key.space	n/a
548.9255	0.105	1097851	keystroke	l	n/a
549.2105	0.045	1098421	keystroke	i	n/a
549.2705	0.0755	1098541	keystroke	v	n/a
549.3755	0.0605	1098751	keystroke	e	n/a
549.541	0.0745	1099082	keystroke	d	n/a
551.416	0.09	1102832	keystroke	Key.enter	n/a
551.5125	9.01	1103025	prompt	n/a	acts continued winds builds\n
552.181	0.1345	1104362	keystroke	a	n/a
552.3005	0.091	1104601	keystroke	c	n/a
552.51	0.061	1105020	keystroke	t	n/a
552.6005	0.1205	1105201	keystroke	s	n/a
552.7355	0.0745	1105471	keystroke	Key.space	n/a
552.961	0.044	1105922	keystroke	c	n/a
553.021	0.104	1106042	keystroke	o	n/a
553.096	0.089	1106192	keystroke	n	n/a
553.2155	0.0595	1106431	keystroke	t	n/a
553.3655	0.1645	1106731	keystroke	u	n/a
553.726	0.074	1107452	keystroke	Key.backspace	n/a
553.935	0.091	1107870	keystroke	i	n/a
553.996	0.089	1107992	keystroke	n	n/a
554.161	0.104	1108322	keystroke	u	n/a
554.251	0.059	1108502	keystroke	e	n/a
554.3705	0.1055	1108741	keystroke	d	n/a
554.46	0.0905	1108920	keystroke	Key.space	n/a
555.541	0.075	1111082	keystroke	w	n/a
555.631	0.09	1111262	keystroke	i	n/a
555.661	0.104	1111322	keystroke	n	n/a
555.751	0.1045	1111502	keystroke	d	n/a
555.8255	0.1055	1111651	keystroke	s	n/a
555.9155	0.06	1111831	keystroke	Key.space	n/a
556.771	0.1045	1113542	keystroke	b	n/a
556.935	0.09	1113870	keystroke	i	n/a
556.9655	0.0145	1113931	keystroke	8	n/a
557.1305	0.1055	1114261	keystroke	i	n/a
557.566	0.014	1115132	keystroke	Key.backspace	n/a
557.6855	0.0595	1115371	keystroke	Key.backspace	n/a
557.82	0.0905	1115640	keystroke	Key.backspace	n/a
558.166	0.165	1116332	keystroke	u	n/a
558.316	0.15	1116632	keystroke	i	n/a
558.5555	0.0905	1117111	keystroke	l	n/a
558.6755	0.18	1117351	keystroke	d	n/a
558.811	0.1045	1117622	keystroke	s	n/a
560.46	0.061	1120920	keystroke	Key.enter	n/a
560.5255	7.5305	1121051	prompt	n/a	gave globe stores robertson\n
561.136	0.06	1122272	keystroke	g	n/a
561.256	0.074	1122512	keystroke	a	n/a
561.361	0.075	1122722	keystroke	v	n/a
561.421	0.105	1122842	keystroke	e	n/a
561.526	0.075	1123052	keystroke	Key.space	n/a
561.766	0.06	1123532	keystroke	g	n/a
561.856	0.06	1123712	keystroke	l	n/a
562.036	0.119	1124072	keystroke	o	n/a
562.141	0.09	1124282	keystroke	b	n/a
562.215	0.091	1124430	keystroke	e	n/a
562.335	0.075	1124670	keystroke	Key.space	n/a
563.116	0.06	1126232	keystroke	s	n/a
563.2365	0.0445	1126473	keystroke	t	n/a
563.311	0.075	1126622	keystroke	o	n/a
563.4005	0.0755	1126801	keystroke	r	n/a
563.4305	0.1355	1126861	keystroke	e	n/a
563.536	0.1345	1127072	keystroke	s	n/a
563.6255	0.09	1127251	keystroke	Key.space	n/a
564.541	0.045	1129082	keystroke	r	n/a
564.601	0.0895	1129202	keystroke	o	n/a
564.7205	0.0905	1129441	keystroke	b	n/a
564.7805	0.136	1129561	keystroke	e	n/a
564.8855	0.0755	1129771	keystroke	r	n/a
565.051	0.0745	1130102	keystroke	t	n/a
565.1855	0.106	1130371	keystroke	s	n/a
565.306	0.1045	1130612	keystroke	o	n/a
565.3805	0.09	1130761	keystroke	n	n/a
568.0525	0.0005	1136105	keystroke	Key.enter	n/a
568.0605	10.807	1136121	prompt	n/a	needn't algorithm heaven bizrate\n
569.176	0.075	1138352	keystroke	n	n/a
569.265	0.0755	1138530	keystroke	e	n/a
569.4305	0.06	1138861	keystroke	e	n/a
569.5805	0.0905	1139161	keystroke	d	n/a
569.7605	0.1045	1139521	keystroke	n	n/a
570.451	0.075	1140902	keystroke	'	n/a
570.57	0.06	1141140	keystroke	t	n/a
570.676	0.105	1141352	keystroke	Key.space	n/a
571.605	0.075	1143210	keystroke	a	n/a
571.6965	0.074	1143393	keystroke	l	n/a
572.221	0.06	1144442	keystroke	g	n/a
572.326	0.09	1144652	keystroke	o	n/a
572.461	0.074	1144922	keystroke	r	n/a
572.9255	0.0605	1145851	keystroke	i	n/a
573.0155	0.045	1146031	keystroke	t	n/a
573.1355	0.06	1146271	keystroke	h	n/a
573.346	0.075	1146692	keystroke	m	n/a
573.526	0.09	1147052	keystroke	Key.space	n/a
574.201	0.074	1148402	keystroke	h	n/a
574.306	0.105	1148612	keystroke	e	n/a
574.531	0.0295	1149062	keystroke	d	n/a
574.546	0.15	1149092	keystroke	a	n/a
574.681	0.12	1149362	keystroke	v	n/a
574.98	0.045	1149960	keystroke	Key.backspace	n/a
575.101	0.075	1150202	keystroke	Key.backspace	n/a
575.2505	0.0755	1150501	keystroke	Key.backspace	n/a
575.296	0.074	1150592	keystroke	a	n/a
575.4155	0.045	1150831	keystroke	v	n/a
575.43	0.1055	1150860	keystroke	e	n/a
575.5505	0.06	1151101	keystroke	n	n/a
575.746	0.0595	1151492	keystroke	Key.space	n/a
576.616	0.045	1153232	keystroke	b	n/a
576.691	0.09	1153382	keystroke	i	n/a
576.841	0.075	1153682	keystroke	z	n/a
577.1855	0.0905	1154371	keystroke	r	n/a
577.336	0.119	1154672	keystroke	a	n/a
577.441	0.09	1154882	keystroke	t	n/a
577.501	0.105	1155002	keystroke	e	n/a
578.8055	0.0605	1157611	keystroke	Key.enter	n/a
578.872	7.6755	1157744	prompt	n/a	grenada spoke suzuki maps\n
579.541	0.06	1159082	keystroke	g	n/a
579.6905	0.09	1159381	keystroke	r	n/a
579.766	0.075	1159532	keystroke	e	n/a
579.856	0.075	1159712	keystroke	n	n/a
579.9755	0.1355	1159951	keystroke	a	n/a
580.1555	0.091	1160311	keystroke	d	n/a
580.2605	0.09	1160521	keystroke	a	n/a
580.366	0.0745	1160732	keystroke	Key.space	n/a
581.206	0.0745	1162412	keystroke	s	n/a
581.296	0.0595	1162592	keystroke	p	n/a
581.4755	0.1055	1162951	keystroke	o	n/a
581.551	0.09	1163102	keystroke	k	n/a
581.6555	0.06	1163311	keystroke	e	n/a
581.7755	0.045	1163551	keystroke	Key.space	n/a
582.511	0.0745	1165022	keystroke	s	n/a
582.6605	0.1195	1165321	keystroke	u	n/a
583.0215	0.0595	1166043	keystroke	z	n/a
583.1855	0.1205	1166371	keystroke	u	n/a
583.5305	0.061	1167061	keystroke	i	n/a
583.9505	0.06	1167901	keystroke	Key.backspace	n/a
584.2055	0.061	1168411	keystroke	k	n/a
584.3705	0.06	1168741	keystroke	i	n/a
584.536	0.074	1169072	keystroke	Key.space	n/a
585.166	0.0895	1170332	keystroke	m	n/a
585.271	0.059	1170542	keystroke	a	n/a
585.316	0.075	1170632	keystroke	p	n/a
585.4515	0.0585	1170903	keystroke	s	n/a
586.486	0.059	1172972	keystroke	Key.enter	n/a
586.5615	9.3915	1173123	prompt	n/a	unusual surfing pike investments\n
587.221	0.06	1174442	keystroke	u	n/a
587.386	0.075	1174772	keystroke	n	n/a
587.5655	0.075	1175131	keystroke	u	n/a
587.7005	0.0605	1175401	keystroke	s	n/a
588.016	0.12	1176032	keystroke	u	n/a
588.6305	0.105	1177261	keystroke	Key.backspace	n/a
588.7505	0.0605	1177501	keystroke	Key.backspace	n/a
589.606	0.075	1179212	keystroke	s	n/a
589.696	0.06	1179392	keystroke	u	n/a
589.801	0.075	1179602	keystroke	a	n/a
589.861	0.075	1179722	keystroke	l	n/a
589.981	0.075	1179962	keystroke	Key.space	n/a
590.761	0.0595	1181522	keystroke	s	n/a
590.896	0.0595	1181792	keystroke	u	n/a
590.986	0.045	1181972	keystroke	r	n/a
591.136	0.075	1182272	keystroke	f	n/a
591.2405	0.106	1182481	keystroke	i	n/a
591.3305	0.09	1182661	keystroke	n	n/a
591.4205	0.06	1182841	keystroke	g	n/a
591.541	0.075	1183082	keystroke	Key.space	n/a
592.261	0.045	1184522	keystroke	p	n/a
592.4555	0.03	1184911	keystroke	i	n/a
592.591	0.0595	1185182	keystroke	k	n/a
592.635	0.075	1185270	keystroke	e	n/a
592.7705	0.0605	1185541	keystroke	Key.space	n/a
593.5505	0.0305	1187101	keystroke	i	n/a
593.5665	0.029	1187133	keystroke	n	n/a
593.6105	0.03	1187221	keystroke	v	n/a
593.656	0.075	1187312	keystroke	e	n/a
593.8505	0.15	1187701	keystroke	s	n/a
593.9855	0.0605	1187971	keystroke	t	n/a
594.1205	0.075	1188241	keystroke	m	n/a
594.211	0.0745	1188422	keystroke	e	n/a
594.301	0.0745	1188602	keystroke	n	n/a
594.391	0.03	1188782	keystroke	t	n/a
594.556	0.075	1189112	keystroke	s	n/a
595.8755	0.075	1191751	keystroke	Key.enter	n/a
595.9565	7.901	1191913	prompt	n/a	addressed operates sponsors passage\n
596.596	0.105	1193192	keystroke	a	n/a
596.791	0.03	1193582	keystroke	d	n/a
596.896	0.075	1193792	keystroke	d	n/a
597.046	0.105	1194092	keystroke	r	n/a
597.121	0.0745	1194242	keystroke	e	n/a
597.2415	0.089	1194483	keystroke	s	n/a
597.406	0.075	1194812	keystroke	s	n/a
597.556	0.0605	1195112	keystroke	e	n/a
597.7205	0.06	1195441	keystroke	d	n/a
597.8255	0.0605	1195651	keystroke	Key.space	n/a
598.6205	0.0155	1197241	keystroke	o	n/a
598.7255	0.1055	1197451	keystroke	p	n/a
598.816	0.0895	1197632	keystroke	e	n/a
598.891	0.075	1197782	keystroke	r	n/a
599.011	0.0745	1198022	keystroke	a	n/a
599.101	0.0905	1198202	keystroke	t	n/a
599.1455	0.1505	1198291	keystroke	e	n/a
599.2805	0.1205	1198561	keystroke	s	n/a
599.3555	0.0755	1198711	keystroke	Key.space	n/a
600.151	0.075	1200302	keystroke	s	n/a
600.256	0.0755	1200512	keystroke	p	n/a
600.436	0.06	1200872	keystroke	o	n/a
600.542	0.089	1201084	keystroke	n	n/a
600.646	0.075	1201292	keystroke	s	n/a
600.781	0.06	1201562	keystroke	o	n/a
600.886	0.06	1201772	keystroke	r	n/a
601.1415	0.014	1202283	keystroke	s	n/a
601.231	0.0445	1202462	keystroke	Key.space	n/a
602.2665	0.0595	1204533	keystroke	p	n/a
602.356	0.045	1204712	keystroke	a	n/a
602.521	0.06	1205042	keystroke	s	n/a
602.671	0.075	1205342	keystroke	s	n/a
602.806	0.09	1205612	keystroke	a	n/a
602.9115	0.059	1205823	keystroke	g	n/a
602.941	0.105	1205882	keystroke	e	n/a
603.766	0.09	1207532	keystroke	Key.enter	n/a
603.8625	7.555	1207725	prompt	n/a	ventures talked transactions fast\n
604.576	0.015	1209152	keystroke	w	n/a
604.8305	0.0605	1209661	keystroke	Key.backspace	n/a
604.936	0.105	1209872	keystroke	v	n/a
605.026	0.076	1210052	keystroke	e	n/a
605.116	0.075	1210232	keystroke	n	n/a
605.221	0.0455	1210442	keystroke	t	n/a
605.37	0.076	1210740	keystroke	u	n/a
605.431	0.105	1210862	keystroke	r	n/a
605.506	0.1205	1211012	keystroke	e	n/a
605.5955	0.1205	1211191	keystroke	s	n/a
605.701	0.06	1211402	keystroke	Key.space	n/a
606.4355	0.06	1212871	keystroke	t	n/a
606.5555	0.0905	1213111	keystroke	a	n/a
606.676	0.075	1213352	keystroke	l	n/a
606.736	0.09	1213472	keystroke	k	n/a
606.7955	0.121	1213591	keystroke	e	n/a
607.0365	0.0885	1214073	keystroke	d	n/a
607.1855	0.061	1214371	keystroke	Key.space	n/a
607.9505	0.03	1215901	keystroke	t	n/a
608.0865	0.029	1216173	keystroke	r	n/a
608.1305	0.1055	1216261	keystroke	a	n/a
608.1755	0.106	1216351	keystroke	n	n/a
608.3715	0.045	1216743	keystroke	s	n/a
608.791	0.089	1217582	keystroke	a	n/a
608.9255	0.0605	1217851	keystroke	c	n/a
609.121	0.03	1218242	keystroke	t	n/a
609.181	0.18	1218362	keystroke	i	n/a
609.2555	0.091	1218511	keystroke	o	n/a
609.2705	0.105	1218541	keystroke	n	n/a
609.3915	0.0595	1218783	keystroke	s	n/a
609.5255	0.06	1219051	keystroke	Key.space	n/a
610.351	0.075	1220702	keystroke	f	n/a
610.486	0.105	1220972	keystroke	a	n/a
610.546	0.195	1221092	keystroke	s	n/a
610.681	0.075	1221362	keystroke	t	n/a
611.3255	0.0905	1222651	keystroke	Key.enter	n/a
611.4225	5.7095	1222845	prompt	n/a	tony trying partition focuses\n
612.151	0.06	1224302	keystroke	t	n/a
612.226	0.135	1224452	keystroke	o	n/a
612.331	0.06	1224662	keystroke	n	n/a
612.526	0.06	1225052	keystroke	y	n/a
612.616	0.075	1225232	keystroke	Key.space	n/a
612.676	0.06	1225352	keystroke	t	n/a
612.811	0.075	1225622	keystroke	r	n/a
612.9015	0.045	1225803	keystroke	y	n/a
613.036	0.1055	1226072	keystroke	i	n/a
613.081	0.0755	1226162	keystroke	n	n/a
613.1705	0.061	1226341	keystroke	g	n/a
613.291	0.0605	1226582	keystroke	Key.space	n/a
614.0405	0.106	1228081	keystroke	p	n/a
614.2055	0.0905	1228411	keystroke	a	n/a
614.266	0.0755	1228532	keystroke	r	n/a
614.4755	0.09	1228951	keystroke	t	n/a
614.6255	0.0905	1229251	keystroke	i	n/a
614.731	0.075	1229462	keystroke	t	n/a
614.8505	0.2555	1229701	keystroke	i	n/a
614.956	0.1355	1229912	keystroke	o	n/a
614.956	0.1645	1229912	keystroke	n	n/a
615.196	0.075	1230392	keystroke	Key.space	n/a
615.856	0.075	1231712	keystroke	f	n/a
615.991	0.074	1231982	keystroke	o	n/a
616.081	0.1045	1232162	keystroke	c	n/a
616.2005	0.0755	1232401	keystroke	u	n/a
616.3055	0.09	1232611	keystroke	s	n/a
616.381	0.09	1232762	keystroke	e	n/a
616.5155	0.076	1233031	keystroke	s	n/a
617.0715	0.059	1234143	keystroke	Key.enter	n/a
617.1355	8.592	1234271	prompt	n/a	represent buildings cleaners least\n
617.851	0.135	1235702	keystroke	r	n/a
617.956	0.075	1235912	keystroke	e	n/a
618.076	0.0755	1236152	keystroke	p	n/a
618.1815	0.0895	1236363	keystroke	r	n/a
618.226	0.12	1236452	keystroke	e	n/a
618.331	0.105	1236662	keystroke	s	n/a
618.496	0.09	1236992	keystroke	e	n/a
618.6165	0.1045	1237233	keystroke	n	n/a
618.706	0.045	1237412	keystroke	t	n/a
619.1405	0.075	1238281	keystroke	Key.space	n/a
619.411	0.045	1238822	keystroke	v	n/a
619.426	0.0455	1238852	keystroke	b	n/a
619.485	0.1215	1238970	keystroke	u	n/a
619.5165	0.119	1239033	keystroke	i	n/a
619.756	0.0455	1239512	keystroke	l	n/a
619.9805	0.06	1239961	keystroke	Key.backspace	n/a
620.1005	0.0905	1240201	keystroke	Key.backspace	n/a
620.2355	0.075	1240471	keystroke	Key.backspace	n/a
620.386	0.0745	1240772	keystroke	Key.backspace	n/a
620.5205	0.0905	1241041	keystroke	Key.backspace	n/a
620.6415	0.059	1241283	keystroke	b	n/a
620.7605	0.105	1241521	keystroke	u	n/a
620.8055	0.1055	1241611	keystroke	i	n/a
621.031	0.075	1242062	keystroke	l	n/a
621.151	0.0755	1242302	keystroke	d	n/a
621.271	0.075	1242542	keystroke	i	n/a
621.316	0.06	1242632	keystroke	n	n/a
621.391	0.0455	1242782	keystroke	g	n/a
621.5715	0.0595	1243143	keystroke	s	n/a
622.0355	0.075	1244071	keystroke	Key.space	n/a
622.4115	0.089	1244823	keystroke	c	n/a
622.5165	0.059	1245033	keystroke	l	n/a
622.696	0.0745	1245392	keystroke	e	n/a
622.8005	0.09	1245601	keystroke	a	n/a
622.9055	0.06	1245811	keystroke	n	n/a
622.9805	0.12	1245961	keystroke	e	n/a
623.0705	0.105	1246141	keystroke	r	n/a
623.146	0.1055	1246292	keystroke	s	n/a
623.281	0.074	1246562	keystroke	Key.space	n/a
624.136	0.06	1248272	keystroke	l	n/a
624.181	0.045	1248362	keystroke	e	n/a
624.2105	0.106	1248421	keystroke	a	n/a
