onset	duration	sample	value	key	prompt_text
3.03	12.436	6060	prompt	n/a	the quick brown fox jumps over a lazy dog\n
5.416	0.0575	10832	keystroke_t	t	n/a
5.458	0.105	10916	keystroke_h	h	n/a
5.548	0.135	11096	keystroke_e	e	n/a
5.653	0.12	11306	keystroke_Key.space	Key.space	n/a
5.953	0.1205	11906	keystroke_w	w	n/a
6.028	0.1645	12056	keystroke_u	u	n/a
6.133	0.15	12266	keystroke_i	i	n/a
6.298	0.1505	12596	keystroke_c	c	n/a
6.4625	0.1655	12925	keystroke_k	k	n/a
7.213	0.12	14426	keystroke_Key.space	Key.space	n/a
7.483	0.1205	14966	keystroke_b	b	n/a
7.618	0.089	15236	keystroke_r	r	n/a
7.7225	0.091	15445	keystroke_o	o	n/a
7.828	0.1355	15656	keystroke_w	w	n/a
7.9325	0.15	15865	keystroke_n	n	n/a
8.053	0.135	16106	keystroke_Key.space	Key.space	n/a
8.263	0.135	16526	keystroke_f	f	n/a
8.3525	0.1205	16705	keystroke_o	o	n/a
9.118	0.105	18236	keystroke_x	x	n/a
9.1785	0.1045	18357	keystroke_Key.space	Key.space	n/a
9.493	0.12	18986	keystroke_j	j	n/a
9.6725	0.091	19345	keystroke_u	u	n/a
9.8985	0.0895	19797	keystroke_m	m	n/a
10.063	0.09	20126	keystroke_p	p	n/a
10.243	0.1505	20486	keystroke_s	s	n/a
10.333	0.075	20666	keystroke_Key.space	Key.space	n/a
10.4685	0.09	20937	keystroke_o	o	n/a
10.663	0.09	21326	keystroke_b	b	n/a
10.7375	0.1655	21475	keystroke_e	e	n/a
10.918	0.0455	21836	keystroke_Key.space	Key.space	n/a
11.728	0.12	23456	keystroke_Key.backspace	Key.backspace	n/a
11.908	0.09	23816	keystroke_r	r	n/a
11.983	0.09	23966	keystroke_Key.space	Key.space	n/a
12.118	0.135	24236	keystroke_a	a	n/a
12.208	0.09	24416	keystroke_Key.space	Key.space	n/a
12.4485	0.1345	24897	keystroke_l	l	n/a
12.5375	0.1505	25075	keystroke_a	a	n/a
13.5285	0.135	27057	keystroke_x	x	n/a
14.1275	0.151	28255	keystroke_y	y	n/a
14.233	0.1355	28466	keystroke_Key.space	Key.space	n/a
14.5035	0.1345	29007	keystroke_d	d	n/a
14.5635	0.135	29127	keystroke_o	o	n/a
15.074	0.104	30148	keystroke_g	g	n/a
15.3735	0.0895	30747	keystroke_Key.enter	Key.enter	n/a
15.4765	6.138	30953	prompt	n/a	lock focal fetish falling\n
16.709	0.105	33418	keystroke_l	l	n/a
16.904	0.1195	33808	keystroke_o	o	n/a
17.0085	0.135	34017	keystroke_c	c	n/a
17.128	0.2255	34256	keystroke_k	k	n/a
17.2335	0.1345	34467	keystroke_Key.space	Key.space	n/a
17.459	0.119	34918	keystroke_l	l	n/a
17.6535	0.135	35307	keystroke_o	o	n/a
18.073	0.1505	36146	keystroke_c	c	n/a
18.178	0.1355	36356	keystroke_a	a	n/a
18.2535	0.225	36507	keystroke_l	l	n/a
18.388	0.1505	36776	keystroke_Key.space	Key.space	n/a
19.033	0.1205	38066	keystroke_f	f	n/a
19.093	0.1505	38186	keystroke_e	e	n/a
19.3485	0.0895	38697	keystroke_s	s	n/a
19.454	0.075	38908	keystroke_t	t	n/a
19.544	0.1195	39088	keystroke_i	i	n/a
19.679	0.134	39358	keystroke_s	s	n/a
19.799	0.179	39598	keystroke_h	h	n/a
19.9335	0.104	39867	keystroke_Key.space	Key.space	n/a
20.323	0.1355	40646	keystroke_f	f	n/a
20.518	0.18	41036	keystroke_a	a	n/a
20.6235	0.0445	41247	keystroke_l	l	n/a
20.758	0.1055	41516	keystroke_l	l	n/a
20.983	0.0755	41966	keystroke_i	i	n/a
21.1185	0.1045	42237	keystroke_n	n	n/a
21.193	0.1195	42386	keystroke_g	g	n/a
21.5385	0.0745	43077	keystroke_Key.enter	Key.enter	n/a
21.6295	7.5305	43259	prompt	n/a	mice mechanism preston influences\n
22.243	0.1345	44486	keystroke_m	m	n/a
22.4985	0.0595	44997	keystroke_i	i	n/a
22.5135	0.18	45027	keystroke_c	c	n/a
22.7535	0.1505	45507	keystroke_e	e	n/a
22.873	0.075	45746	keystroke_Key.space	Key.space	n/a
23.084	0.12	46168	keystroke_m	m	n/a
23.1735	0.0905	46347	keystroke_e	e	n/a
23.3985	0.1495	46797	keystroke_c	c	n/a
23.5035	0.1345	47007	keystroke_h	h	n/a
23.623	0.1805	47246	keystroke_a	a	n/a
24.074	0.0745	48148	keystroke_i	i	n/a
24.4785	0.09	48957	keystroke_Key.backspace	Key.backspace	n/a
24.733	0.061	49466	keystroke_n	n	n/a
24.8685	0.1045	49737	keystroke_i	i	n/a
24.9585	0.1795	49917	keystroke_s	s	n/a
25.1825	0.046	50365	keystroke_m	m	n/a
25.2135	0.165	50427	keystroke_Key.space	Key.space	n/a
25.5585	0.135	51117	keystroke_p	p	n/a
25.7385	0.195	51477	keystroke_r	r	n/a
25.9035	0.15	51807	keystroke_e	e	n/a
26.323	0.135	52646	keystroke_s	s	n/a
26.579	0.134	53158	keystroke_t	t	n/a
26.6985	0.105	53397	keystroke_o	o	n/a
26.8935	0.15	53787	keystroke_n	n	n/a
27.013	0.12	54026	keystroke_Key.space	Key.space	n/a
27.163	0.0755	54326	keystroke_i	i	n/a
27.328	0.105	54656	keystroke_n	n	n/a
27.478	0.1655	54956	keystroke_f	f	n/a
27.583	0.075	55166	keystroke_l	l	n/a
27.8085	0.09	55617	keystroke_u	u	n/a
28.3035	0.1345	56607	keystroke_e	e	n/a
28.3935	0.105	56787	keystroke_n	n	n/a
28.6185	0.2095	57237	keystroke_c	c	n/a
28.7695	0.1635	57539	keystroke_e	e	n/a
28.964	0.149	57928	keystroke_s	s	n/a
29.0835	0.0745	58167	keystroke_Key.enter	Key.enter	n/a
29.165	8.891	58330	prompt	n/a	maintaining since tremendous drainage\n
29.9385	0.135	59877	keystroke_m	m	n/a
30.029	0.15	60058	keystroke_a	a	n/a
30.1645	0.059	60329	keystroke_i	i	n/a
30.2985	0.12	60597	keystroke_n	n	n/a
30.494	0.1195	60988	keystroke_t	t	n/a
30.7035	0.135	61407	keystroke_a	a	n/a
30.764	0.0595	61528	keystroke_i	i	n/a
30.9285	0.075	61857	keystroke_n	n	n/a
31.0935	0.0605	62187	keystroke_i	i	n/a
31.229	0.1195	62458	keystroke_n	n	n/a
31.3335	0.135	62667	keystroke_g	g	n/a
31.4385	0.105	62877	keystroke_Key.space	Key.space	n/a
32.188	0.151	64376	keystroke_s	s	n/a
32.264	0.075	64528	keystroke_i	i	n/a
32.399	0.119	64798	keystroke_n	n	n/a
32.5485	0.195	65097	keystroke_c	c	n/a
32.7135	0.18	65427	keystroke_e	e	n/a
32.8485	0.12	65697	keystroke_Key.space	Key.space	n/a
33.0135	0.1055	66027	keystroke_t	t	n/a
33.284	0.15	66568	keystroke_r	r	n/a
33.539	0.135	67078	keystroke_e	e	n/a
33.7035	0.1205	67407	keystroke_m	m	n/a
33.779	0.1945	67558	keystroke_e	e	n/a
34.199	0.1345	68398	keystroke_n	n	n/a
34.3475	0.1515	68695	keystroke_d	d	n/a
34.7385	0.1795	69477	keystroke_f	f	n/a
34.8135	0.2095	69627	keystroke_o	o	n/a
34.933	0.165	69866	keystroke_u	u	n/a
35.7575	0.121	71515	keystroke_s	s	n/a
35.9085	0.12	71817	keystroke_Key.space	Key.space	n/a
36.6135	0.2395	73227	keystroke_d	d	n/a
36.958	0.1055	73916	keystroke_r	r	n/a
37.1835	0.18	74367	keystroke_a	a	n/a
37.2745	0.104	74549	keystroke_i	i	n/a
37.4385	0.075	74877	keystroke_n	n	n/a
37.5735	0.09	75147	keystroke_i	i	n/a
37.709	0.12	75418	keystroke_n	n	n/a
37.769	0.1195	75538	keystroke_g	g	n/a
37.963	0.09	75926	keystroke_Key.enter	Key.enter	n/a
38.067	9.0515	76134	prompt	n/a	worthy tracy influenced oxygen\n
39.539	0.149	79078	keystroke_w	w	n/a
39.628	0.135	79256	keystroke_o	o	n/a
39.7185	0.0895	79437	keystroke_r	r	n/a
39.9285	0.135	79857	keystroke_t	t	n/a
40.0185	0.1195	80037	keystroke_h	h	n/a
40.243	0.1955	80486	keystroke_y	y	n/a
40.3485	0.135	80697	keystroke_Key.space	Key.space	n/a
40.6785	0.1495	81357	keystroke_t	t	n/a
40.8585	0.15	81717	keystroke_r	r	n/a
41.1435	0.1795	82287	keystroke_a	a	n/a
41.3385	0.165	82677	keystroke_c	c	n/a
41.518	0.1805	83036	keystroke_y	y	n/a
41.608	0.1505	83216	keystroke_Key.space	Key.space	n/a
41.908	0.09	83816	keystroke_i	i	n/a
42.103	0.091	84206	keystroke_n	n	n/a
42.554	0.075	85108	keystroke_f	f	n/a
42.793	0.09	85586	keystroke_Key.backspace	Key.backspace	n/a
43.394	0.1195	86788	keystroke_f	f	n/a
43.4685	0.12	86937	keystroke_l	l	n/a
43.7235	0.09	87447	keystroke_u	u	n/a
43.8285	0.12	87657	keystroke_e	e	n/a
43.9935	0.12	87987	keystroke_n	n	n/a
44.129	0.1945	88258	keystroke_c	c	n/a
44.2635	0.15	88527	keystroke_e	e	n/a
44.7135	0.1355	89427	keystroke_d	d	n/a
45.013	0.105	90026	keystroke_Key.space	Key.space	n/a
45.298	0.1355	90596	keystroke_o	o	n/a
45.7635	0.165	91527	keystroke_x	x	n/a
45.8835	0.12	91767	keystroke_y	y	n/a
46.3185	0.1045	92637	keystroke_g	g	n/a
46.349	0.2245	92698	keystroke_e	e	n/a
46.5125	0.1655	93025	keystroke_n	n	n/a
46.588	0.1205	93176	keystroke_Key.space	Key.space	n/a
47.008	0.1055	94016	keystroke_Key.enter	Key.enter	n/a
47.1315	6.8255	94263	prompt	n/a	festival shipped siemens stan\n
48.433	0.1955	96866	keystroke_f	f	n/a
48.5235	0.1945	97047	keystroke_e	e	n/a
48.7785	0.15	97557	keystroke_s	s	n/a
49.3635	0.09	98727	keystroke_t	t	n/a
49.4545	0.149	98909	keystroke_i	i	n/a
49.694	0.1645	99388	keystroke_v	v	n/a
49.7985	0.2245	99597	keystroke_a	a	n/a
49.873	0.2855	99746	keystroke_l	l	n/a
50.008	0.1955	100016	keystroke_Key.space	Key.space	n/a
50.4735	0.2395	100947	keystroke_s	s	n/a
50.6985	0.1645	101397	keystroke_h	h	n/a
50.8185	0.1345	101637	keystroke_i	i	n/a
51.0885	0.075	102177	keystroke_p	p	n/a
51.224	0.1195	102448	keystroke_p	p	n/a
51.389	0.2845	102778	keystroke_e	e	n/a
51.5385	0.195	103077	keystroke_d	d	n/a
51.6885	0.089	103377	keystroke_Key.space	Key.space	n/a
52.004	0.194	104008	keystroke_s	s	n/a
52.078	0.135	104156	keystroke_i	i	n/a
52.228	0.195	104456	keystroke_e	e	n/a
52.424	0.104	104848	keystroke_m	m	n/a
52.498	0.1955	104996	keystroke_e	e	n/a
52.6785	0.0895	105357	keystroke_n	n	n/a
52.7835	0.1645	105567	keystroke_s	s	n/a
52.903	0.091	105806	keystroke_Key.space	Key.space	n/a
53.158	0.135	106316	keystroke_s	s	n/a
53.398	0.076	106796	keystroke_t	t	n/a
53.534	0.164	107068	keystroke_a	a	n/a
53.638	0.09	107276	keystroke_n	n	n/a
53.833	0.12	107666	keystroke_Key.enter	Key.enter	n/a
53.967	8.5375	107934	prompt	n/a	likelihood beast ieee diploma\n
54.643	0.106	109286	keystroke_k	k	n/a
54.7945	0.179	109589	keystroke_e	e	n/a
54.8835	0.075	109767	keystroke_i	i	n/a
55.0335	0.105	110067	keystroke_k	k	n/a
55.1075	0.181	110215	keystroke_e	e	n/a
55.2435	0.1205	110487	keystroke_l	l	n/a
55.4835	0.0895	110967	keystroke_i	i	n/a
55.663	0.105	111326	keystroke_n	n	n/a
55.7385	0.135	111477	keystroke_g	g	n/a
55.903	0.09	111806	keystroke_Key.space	Key.space	n/a
57.058	0.105	114116	keystroke_b	b	n/a
57.148	0.105	114296	keystroke_e	e	n/a
57.373	0.06	114746	keystroke_s	s	n/a
57.928	0.0605	115856	keystroke_Key.backspace	Key.backspace	n/a
58.003	0.18	116006	keystroke_a	a	n/a
58.093	0.21	116186	keystroke_s	s	n/a
58.4535	0.1495	116907	keystroke_t	t	n/a
58.528	0.0905	117056	keystroke_Key.space	Key.space	n/a
58.724	0.119	117448	keystroke_l	l	n/a
59.1275	0.076	118255	keystroke_Key.backspace	Key.backspace	n/a
59.3235	0.1345	118647	keystroke_i	i	n/a
59.4435	0.0745	118887	keystroke_e	e	n/a
59.608	0.1505	119216	keystroke_e	e	n/a
59.804	0.1495	119608	keystroke_e	e	n/a
60.3585	0.12	120717	keystroke_Key.space	Key.space	n/a
61.304	0.1495	122608	keystroke_d	d	n/a
61.3635	0.105	122727	keystroke_i	i	n/a
61.5725	0.0605	123145	keystroke_p	p	n/a
61.739	0.074	123478	keystroke_l	l	n/a
61.8885	0.0605	123777	keystroke_o	o	n/a
62.099	0.09	124198	keystroke_m	m	n/a
62.1585	0.1805	124317	keystroke_a	a	n/a
62.4275	0.075	124855	keystroke_Key.enter	Key.enter	n/a
62.5115	9.2785	125023	prompt	n/a	meters aerial moss powerseller\n
63.374	0.135	126748	keystroke_m	m	n/a
63.463	0.1355	126926	keystroke_e	e	n/a
63.748	0.09	127496	keystroke_t	t	n/a
63.898	0.1795	127796	keystroke_e	e	n/a
64.003	0.135	128006	keystroke_r	r	n/a
64.498	0.195	128996	keystroke_s	s	n/a
64.6785	0.135	129357	keystroke_Key.space	Key.space	n/a
64.8735	0.15	129747	keystroke_a	a	n/a
65.144	0.164	130288	keystroke_r	r	n/a
67.229	0.1045	134458	keystroke_r	r	n/a
67.3035	0.12	134607	keystroke_i	i	n/a
67.4685	0.1805	134937	keystroke_a	a	n/a
67.618	0.1655	135236	keystroke_l	l	n/a
67.784	0.149	135568	keystroke_Key.space	Key.space	n/a
68.3835	0.1205	136767	keystroke_m	m	n/a
68.5635	0.1505	137127	keystroke_o	o	n/a
68.699	0.1195	137398	keystroke_s	s	n/a
68.8935	0.1345	137787	keystroke_s	s	n/a
68.9835	0.09	137967	keystroke_Key.space	Key.space	n/a
69.1785	0.2245	138357	keystroke_p	p	n/a
69.2985	0.18	138597	keystroke_o	o	n/a
69.463	0.286	138926	keystroke_w	w	n/a
69.598	0.181	139196	keystroke_e	e	n/a
69.9885	0.1205	139977	keystroke_s	s	n/a
70.679	0.2695	141358	keystroke_e	e	n/a
70.7985	0.0605	141597	keystroke_l	l	n/a
70.9335	0.09	141867	keystroke_l	l	n/a
71.3985	0.3	142797	keystroke_e	e	n/a
71.6085	0.15	143217	keystroke_r	r	n/a
71.7135	0.075	143427	keystroke_Key.enter	Key.enter	n/a
71.795	9.775	143590	prompt	n/a	limousines mechanical environment attachments\n
72.734	0.1195	145468	keystroke_l	l	n/a
72.9435	0.0905	145887	keystroke_i	i	n/a
73.153	0.0755	146306	keystroke_m	m	n/a
73.3485	0.165	146697	keystroke_o	o	n/a
73.4535	0.105	146907	keystroke_u	u	n/a
73.5435	0.135	147087	keystroke_s	s	n/a
73.6335	0.09	147267	keystroke_i	i	n/a
73.7985	0.0905	147597	keystroke_n	n	n/a
73.8735	0.105	147747	keystroke_e	e	n/a
74.0685	0.12	148137	keystroke_s	s	n/a
74.1435	0.075	148287	keystroke_Key.space	Key.space	n/a
74.338	0.0895	148676	keystroke_m	m	n/a
74.4135	0.089	148827	keystroke_e	e	n/a
74.624	0.15	149248	keystroke_c	c	n/a
74.669	0.09	149338	keystroke_h	h	n/a
74.819	0.164	149638	keystroke_a	a	n/a
74.9235	0.075	149847	keystroke_n	n	n/a
75.089	0.135	150178	keystroke_i	i	n/a
75.224	0.075	150448	keystroke_s	s	n/a
75.494	0.164	150988	keystroke_c	c	n/a
75.568	0.21	151136	keystroke_a	a	n/a
75.748	0.211	151496	keystroke_k	k	n/a
75.8835	0.1205	151767	keystroke_Key.space	Key.space	n/a
76.544	0.1645	153088	keystroke_e	e	n/a
76.6185	0.135	153237	keystroke_n	n	n/a
77.0095	0.104	154019	keystroke_v	v	n/a
77.0685	0.12	154137	keystroke_i	i	n/a
77.264	0.12	154528	keystroke_r	r	n/a
77.354	0.06	154708	keystroke_o	o	n/a
77.533	0.106	155066	keystroke_n	n	n/a
77.594	0.134	155188	keystroke_e	e	n/a
77.743	0.075	155486	keystroke_m	m	n/a
77.819	0.134	155638	keystroke_e	e	n/a
77.909	0.09	155818	keystroke_n	n	n/a
78.014	0.105	156028	keystroke_t	t	n/a
78.103	0.12	156206	keystroke_Key.space	Key.space	n/a
78.403	0.1505	156806	keystroke_a	a	n/a
78.674	0.0595	157348	keystroke_t	t	n/a
78.824	0.1045	157648	keystroke_t	t	n/a
78.9735	0.1795	157947	keystroke_a	a	n/a
79.123	0.1205	158246	keystroke_c	c	n/a
79.183	0.105	158366	keystroke_h	h	n/a
79.3035	0.1045	158607	keystroke_e	e	n/a
80.0995	0.0895	160199	keystroke_=	=	n/a
80.9835	0.0905	161967	keystroke_m	m	n/a
81.0435	0.1055	162087	keystroke_e	e	n/a
81.1645	0.0895	162329	keystroke_n	n	n/a
81.2685	0.09	162537	keystroke_t	t	n/a
81.419	0.1345	162838	keystroke_s	s	n/a
81.5085	0.06	163017	keystroke_Key.enter	Key.enter	n/a
81.575	7.0305	163150	prompt	n/a	dicke entries micro formed\n
82.918	0.1055	165836	keystroke_d	d	n/a
82.9935	0.0905	165987	keystroke_i	i	n/a
83.129	0.105	166258	keystroke_c	c	n/a
83.189	0.0895	166378	keystroke_k	k	n/a
83.3545	0.1785	166709	keystroke_e	e	n/a
84.1335	0.135	168267	keystroke_Key.space	Key.space	n/a
84.584	0.149	169168	keystroke_e	e	n/a
84.719	0.1195	169438	keystroke_n	n	n/a
84.8535	0.09	169707	keystroke_t	t	n/a
85.049	0.164	170098	keystroke_r	r	n/a
85.1685	0.135	170337	keystroke_i	i	n/a
85.1835	0.1055	170367	keystroke_e	e	n/a
85.4385	0.165	170877	keystroke_s	s	n/a
85.5885	0.105	171177	keystroke_Key.space	Key.space	n/a
85.9045	0.104	171809	keystroke_m	m	n/a
86.1885	0.0755	172377	keystroke_i	i	n/a
86.2935	0.075	172587	keystroke_c	c	n/a
86.519	0.1645	173038	keystroke_r	r	n/a
86.6685	0.1795	173337	keystroke_o	o	n/a
86.7285	0.0605	173457	keystroke_i	i	n/a
86.7295	0.1935	173459	keystroke_Key.space	Key.space	n/a
87.3435	0.1505	174687	keystroke_f	f	n/a
87.434	0.104	174868	keystroke_o	o	n/a
87.524	0.1645	175048	keystroke_r	r	n/a
87.674	0.1645	175348	keystroke_m	m	n/a
87.7785	0.135	175557	keystroke_s	s	n/a
88.244	0.1495	176488	keystroke_e	e	n/a
88.319	0.1645	176638	keystroke_d	d	n/a
88.514	0.09	177028	keystroke_Key.enter	Key.enter	n/a
88.613	8.017	177226	prompt	n/a	mode advertisements mercedes propose\n
89.444	0.1195	178888	keystroke_m	m	n/a
89.6235	0.105	179247	keystroke_o	o	n/a
89.6985	0.106	179397	keystroke_r	r	n/a
89.7585	0.135	179517	keystroke_e	e	n/a
89.924	0.1195	179848	keystroke_Key.space	Key.space	n/a
90.2235	0.1655	180447	keystroke_a	a	n/a
90.419	0.135	180838	keystroke_d	d	n/a
90.704	0.1045	181408	keystroke_v	v	n/a
90.7935	0.1645	181587	keystroke_e	e	n/a
90.883	0.091	181766	keystroke_r	r	n/a
91.184	0.104	182368	keystroke_t	t	n/a
91.273	0.12	182546	keystroke_i	i	n/a
91.423	0.2565	182846	keystroke_s	s	n/a
91.528	0.226	183056	keystroke_e	e	n/a
91.783	0.0755	183566	keystroke_m	m	n/a
91.843	0.1205	183686	keystroke_e	e	n/a
91.948	0.09	183896	keystroke_n	n	n/a
92.0535	0.1205	184107	keystroke_t	t	n/a
92.293	0.166	184586	keystroke_s	s	n/a
92.398	0.12	184796	keystroke_Key.space	Key.space	n/a
92.6835	0.061	185367	keystroke_a	a	n/a
92.7885	0.12	185577	keystroke_m	m	n/a
93.569	0.2245	187138	keystroke_e	e	n/a
93.674	0.1645	187348	keystroke_r	r	n/a
94.4085	0.135	188817	keystroke_c	c	n/a
94.6035	0.1505	189207	keystroke_e	e	n/a
94.7835	0.1495	189567	keystroke_d	d	n/a
94.903	0.181	189806	keystroke_e	e	n/a
95.174	0.1795	190348	keystroke_s	s	n/a
95.278	0.1055	190556	keystroke_Key.space	Key.space	n/a
95.5185	0.105	191037	keystroke_p	p	n/a
95.608	0.1055	191216	keystroke_r	r	n/a
95.7285	0.09	191457	keystroke_o	o	n/a
96.0435	0.255	192087	keystroke_p	p	n/a
96.2085	0.136	192417	keystroke_o	o	n/a
96.2535	0.24	192507	keystroke_s	s	n/a
96.4185	0.15	192837	keystroke_e	e	n/a
96.5535	0.075	193107	keystroke_Key.enter	Key.enter	n/a
96.634	8.246	193268	prompt	n/a	resolutions grows kitty somewhere\n
97.543	0.106	195086	keystroke_r	r	n/a
97.603	0.121	195206	keystroke_e	e	n/a
97.799	0.1795	195598	keystroke_s	s	n/a
97.963	0.076	195926	keystroke_o	o	n/a
98.173	0.0455	196346	keystroke_l	l	n/a
98.3535	0.06	196707	keystroke_u	u	n/a
98.414	0.1345	196828	keystroke_t	t	n/a
98.654	0.105	197308	keystroke_i	i	n/a
98.714	0.135	197428	keystroke_o	o	n/a
98.9235	0.1055	197847	keystroke_n	n	n/a
98.9835	0.165	197967	keystroke_s	s	n/a
99.119	0.1045	198238	keystroke_Key.space	Key.space	n/a
99.2245	0.194	198449	keystroke_f	f	n/a
99.3885	0.18	198777	keystroke_r	r	n/a
99.4785	0.1055	198957	keystroke_o	o	n/a
99.7035	0.18	199407	keystroke_m	m	n/a
99.8085	0.12	199617	keystroke_Key.space	Key.space	n/a
101.219	0.1195	202438	keystroke_k	k	n/a
101.4285	0.105	202857	keystroke_i	i	n/a
101.819	0.075	203638	keystroke_t	t	n/a
101.983	0.106	203966	keystroke_t	t	n/a
102.043	0.106	204086	keystroke_l	l	n/a
102.3435	0.1655	204687	keystroke_y	y	n/a
102.4785	0.09	204957	keystroke_Key.space	Key.space	n/a
102.7035	0.195	205407	keystroke_s	s	n/a
102.7935	0.09	205587	keystroke_o	o	n/a
103.0485	0.1655	206097	keystroke_e	e	n/a
103.589	0.104	207178	keystroke_Key.backspace	Key.backspace	n/a
103.8595	0.12	207719	keystroke_m	m	n/a
103.964	0.1045	207928	keystroke_e	e	n/a
104.1745	0.2245	208349	keystroke_w	w	n/a
104.2785	0.09	208557	keystroke_h	h	n/a
104.2935	0.1655	208587	keystroke_e	e	n/a
104.548	0.1805	209096	keystroke_r	r	n/a
104.639	0.1795	209278	keystroke_e	e	n/a
104.804	0.0745	209608	keystroke_Key.enter	Key.enter	n/a
104.893	9.317	209786	prompt	n/a	selecting face anymore bass\n
108.437	0.1175	216874	keystroke_s	s	n/a
108.4785	0.33	216957	keystroke_e	e	n/a
108.5695	0.12	217139	keystroke_l	l	n/a
109.5135	0.1655	219027	keystroke_e	e	n/a
109.874	0.135	219748	keystroke_c	c	n/a
110.174	0.15	220348	keystroke_t	t	n/a
110.2485	0.1655	220497	keystroke_i	i	n/a
110.533	0.106	221066	keystroke_n	n	n/a
110.624	0.12	221248	keystroke_g	g	n/a
110.729	0.0745	221458	keystroke_Key.space	Key.space	n/a
110.939	0.18	221878	keystroke_f	f	n/a
111.0885	0.24	222177	keystroke_a	a	n/a
111.2535	0.21	222507	keystroke_c	c	n/a
111.4785	0.15	222957	keystroke_e	e	n/a
111.5835	0.1345	223167	keystroke_Key.space	Key.space	n/a
111.8235	0.0605	223647	keystroke_n	n	n/a
111.989	0.1195	223978	keystroke_u	u	n/a
112.0635	0.135	224127	keystroke_t	t	n/a
112.3185	0.09	224637	keystroke_m	m	n/a
112.5135	0.105	225027	keystroke_o	o	n/a
112.5285	0.135	225057	keystroke_r	r	n/a
112.6035	0.1655	225207	keystroke_e	e	n/a
112.7245	0.119	225449	keystroke_Key.space	Key.space	n/a
113.623	0.09	227246	keystroke_b	b	n/a
113.668	0.21	227336	keystroke_a	a	n/a
113.818	0.121	227636	keystroke_s	s	n/a
114.029	0.15	228058	keystroke_s	s	n/a
114.134	0.075	228268	keystroke_Key.enter	Key.enter	n/a
114.2145	6.221	228429	prompt	n/a	thriller chevy boots payroll\n
115.124	0.1195	230248	keystroke_t	t	n/a
115.2135	0.09	230427	keystroke_h	h	n/a
115.334	0.151	230668	keystroke_r	r	n/a
115.454	0.105	230908	keystroke_i	i	n/a
115.6645	0.0445	231329	keystroke_l	l	n/a
115.799	0.105	231598	keystroke_l	l	n/a
115.829	0.24	231658	keystroke_e	e	n/a
115.919	0.165	231838	keystroke_r	r	n/a
116.054	0.105	232108	keystroke_Key.space	Key.space	n/a
116.324	0.15	232648	keystroke_c	c	n/a
116.429	0.105	232858	keystroke_h	h	n/a
116.519	0.135	233038	keystroke_e	e	n/a
116.849	0.165	233698	keystroke_c	c	n/a
116.894	0.18	233788	keystroke_y	y	n/a
116.999	0.15	233998	keystroke_Key.space	Key.space	n/a
117.373	0.1065	234746	keystroke_b	b	n/a
117.854	0.075	235708	keystroke_o	o	n/a
118.0195	0.119	236039	keystroke_o	o	n/a
118.1545	0.089	236309	keystroke_t	t	n/a
118.4085	0.1355	236817	keystroke_s	s	n/a
118.499	0.09	236998	keystroke_Key.space	Key.space	n/a
118.859	0.12	237718	keystroke_p	p	n/a
118.949	0.135	237898	keystroke_a	a	n/a
119.443	0.136	238886	keystroke_y	y	n/a
119.729	0.135	239458	keystroke_r	r	n/a
119.803	0.091	239606	keystroke_o	o	n/a
120.014	0.0605	240028	keystroke_l	l	n/a
120.134	0.09	240268	keystroke_l	l	n/a
120.374	0.06	240748	keystroke_Key.enter	Key.enter	n/a
120.44	7.1825	240880	prompt	n/a	align victoria physician maintain\n
121.2435	0.165	242487	keystroke_a	a	n/a
121.319	0.0745	242638	keystroke_l	l	n/a
121.5135	0.105	243027	keystroke_i	i	n/a
121.694	0.105	243388	keystroke_g	g	n/a
121.844	0.209	243688	keystroke_n	n	n/a
121.994	0.149	243988	keystroke_Key.space	Key.space	n/a
122.909	0.1355	245818	keystroke_v	v	n/a
122.9685	0.1205	245937	keystroke_i	i	n/a
123.3135	0.105	246627	keystroke_t	t	n/a
123.4195	0.105	246839	keystroke_o	o	n/a
123.539	0.1205	247078	keystroke_r	r	n/a
123.6745	0.1045	247349	keystroke_i	i	n/a
123.8235	0.15	247647	keystroke_a	a	n/a
123.9285	0.075	247857	keystroke_Key.space	Key.space	n/a
124.1385	0.0305	248277	keystroke_p	p	n/a
124.289	0.1195	248578	keystroke_h	h	n/a
124.4685	0.1495	248937	keystroke_u	u	n/a
124.4835	0.15	248967	keystroke_s	s	n/a
124.829	0.104	249658	keystroke_o	o	n/a
124.874	0.2245	249748	keystroke_a	a	n/a
125.1285	0.24	250257	keystroke_l	l	n/a
125.248	0.15	250496	keystroke_Key.space	Key.space	n/a
126.134	0.1345	252268	keystroke_m	m	n/a
126.5385	0.1505	253077	keystroke_a	a	n/a
126.628	0.0615	253256	keystroke_i	i	n/a
126.7635	0.1055	253527	keystroke_n	n	n/a
126.8985	0.0595	253797	keystroke_t	t	n/a
127.1085	0.1055	254217	keystroke_i	i	n/a
127.124	0.165	254248	keystroke_a	a	n/a
127.304	0.0895	254608	keystroke_n	n	n/a
127.5585	0.06	255117	keystroke_Key.enter	Key.enter	n/a
127.6265	8.499	255253	prompt	n/a	examples honduras architects sitemap\n
128.4895	0.1195	256979	keystroke_e	e	n/a
128.804	0.1355	257608	keystroke_c	c	n/a
128.8935	0.18	257787	keystroke_a	a	n/a
128.9845	0.1045	257969	keystroke_m	m	n/a
129.1495	0.0745	258299	keystroke_p	p	n/a
129.299	0.12	258598	keystroke_l	l	n/a
129.359	0.119	258718	keystroke_e	e	n/a
129.554	0.135	259108	keystroke_s	s	n/a
129.629	0.105	259258	keystroke_Key.space	Key.space	n/a
129.809	0.075	259618	keystroke_h	h	n/a
129.959	0.0905	259918	keystroke_o	o	n/a
130.154	0.1345	260308	keystroke_n	n	n/a
130.2585	0.18	260517	keystroke_s	s	n/a
130.574	0.1645	261148	keystroke_d	d	n/a
130.648	0.151	261296	keystroke_u	u	n/a
130.844	0.135	261688	keystroke_e	e	n/a
131.0685	0.2105	262137	keystroke_a	a	n/a
131.159	0.165	262318	keystroke_d	d	n/a
131.7285	0.12	263457	keystroke_Key.space	Key.space	n/a
132.1035	0.1205	264207	keystroke_a	a	n/a
132.329	0.1645	264658	keystroke_r	r	n/a
132.5985	0.12	265197	keystroke_t	t	n/a
132.7335	0.135	265467	keystroke_i	i	n/a
133.228	0.1655	266456	keystroke_c	c	n/a
133.348	0.136	266696	keystroke_h	h	n/a
133.469	0.1195	266938	keystroke_i	i	n/a
133.5435	0.0895	267087	keystroke_s	s	n/a
133.648	0.12	267296	keystroke_n	n	n/a
134.339	0.1195	268678	keystroke_Key.space	Key.space	n/a
134.909	0.1495	269818	keystroke_s	s	n/a
135.0435	0.09	270087	keystroke_i	i	n/a
135.1635	0.1055	270327	keystroke_t	t	n/a
135.284	0.135	270568	keystroke_e	e	n/a
135.434	0.0595	270868	keystroke_m	m	n/a
135.5085	0.105	271017	keystroke_e	e	n/a
135.959	0.165	271918	keystroke_Key.enter	Key.enter	n/a
136.1385	6.0175	272277	prompt	n/a	panel products walnut kurt\n
137.2485	0.0755	274497	keystroke_p	p	n/a
137.2935	0.1505	274587	keystroke_a	a	n/a
137.519	0.09	275038	keystroke_n	n	n/a
137.638	0.1655	275276	keystroke_e	e	n/a
137.7585	0.165	275517	keystroke_l	l	n/a
137.864	0.105	275728	keystroke_Key.space	Key.space	n/a
138.0745	0.104	276149	keystroke_p	p	n/a
138.149	0.1195	276298	keystroke_r	r	n/a
138.284	0.135	276568	keystroke_o	o	n/a
138.974	0.075	277948	keystroke_d	d	n/a
139.034	0.105	278068	keystroke_u	u	n/a
139.154	0.1045	278308	keystroke_c	c	n/a
139.394	0.1045	278788	keystroke_t	t	n/a
139.5735	0.15	279147	keystroke_s	s	n/a
139.6485	0.105	279297	keystroke_Key.space	Key.space	n/a
139.9185	0.1655	279837	keystroke_w	w	n/a
140.1885	0.166	280377	keystroke_a	a	n/a
140.3695	0.105	280739	keystroke_l	l	n/a
140.7595	0.0745	281519	keystroke_n	n	n/a
140.954	0.105	281908	keystroke_u	u	n/a
141.119	0.1195	282238	keystroke_t	t	n/a
141.2235	0.075	282447	keystroke_Key.space	Key.space	n/a
141.359	0.1205	282718	keystroke_h	h	n/a
141.5845	0.134	283169	keystroke_i	i	n/a
141.7185	0.195	283437	keystroke_e	e	n/a
141.7935	0.06	283587	keystroke_r	r	n/a
141.8235	0.12	283647	keystroke_t	t	n/a
142.0785	0.075	284157	keystroke_Key.enter	Key.enter	n/a
142.1595	8.7855	284319	prompt	n/a	programmes dollar quebec received\n
143.2345	0.0885	286469	keystroke_p	p	n/a
143.353	0.121	286706	keystroke_r	r	n/a
143.4585	0.151	286917	keystroke_o	o	n/a
144.4185	0.15	288837	keystroke_g	g	n/a
144.494	0.1505	288988	keystroke_r	r	n/a
144.764	0.165	289528	keystroke_a	a	n/a
144.8685	0.075	289737	keystroke_m	m	n/a
144.9885	0.1205	289977	keystroke_m	m	n/a
145.0935	0.15	290187	keystroke_e	e	n/a
145.3635	0.0905	290727	keystroke_s	s	n/a
145.4085	0.105	290817	keystroke_Key.space	Key.space	n/a
145.6185	0.165	291237	keystroke_d	d	n/a
145.709	0.0745	291418	keystroke_o	o	n/a
145.889	0.075	291778	keystroke_l	l	n/a
146.024	0.1345	292048	keystroke_l	l	n/a
146.114	0.1345	292228	keystroke_a	a	n/a
146.3085	0.105	292617	keystroke_r	r	n/a
146.399	0.105	292798	keystroke_Key.space	Key.space	n/a
146.7745	0.2095	293549	keystroke_q	q	n/a
146.9545	0.134	293909	keystroke_u	u	n/a
147.388	0.165	294776	keystroke_e	e	n/a
147.704	0.1205	295408	keystroke_b	b	n/a
147.8385	0.105	295677	keystroke_e	e	n/a
148.4995	0.2085	296999	keystroke_d	d	n/a
149.4435	0.1045	298887	keystroke_Key.space	Key.space	n/a
149.7585	0.1205	299517	keystroke_r	r	n/a
149.834	0.12	299668	keystroke_e	e	n/a
150.103	0.1515	300206	keystroke_c	c	n/a
150.209	0.15	300418	keystroke_e	e	n/a
150.299	0.105	300598	keystroke_i	i	n/a
150.479	0.12	300958	keystroke_v	v	n/a
150.629	0.1945	301258	keystroke_e	e	n/a
150.7345	0.149	301469	keystroke_d	d	n/a
150.8685	0.075	301737	keystroke_Key.enter	Key.enter	n/a
150.951	7.9895	301902	prompt	n/a	proceeding teen unable preliminary\n
151.7685	0.105	303537	keystroke_p	p	n/a
151.844	0.1195	303688	keystroke_r	r	n/a
152.0095	0.1495	304019	keystroke_o	o	n/a
152.5035	0.105	305007	keystroke_f	f	n/a
153.044	0.12	306088	keystroke_Key.backspace	Key.backspace	n/a
153.284	0.09	306568	keystroke_c	c	n/a
153.509	0.09	307018	keystroke_e	e	n/a
153.6735	0.24	307347	keystroke_e	e	n/a
153.899	0.1655	307798	keystroke_d	d	n/a
154.0795	0.0885	308159	keystroke_i	i	n/a
154.2735	0.0755	308547	keystroke_n	n	n/a
154.3345	0.1345	308669	keystroke_g	g	n/a
154.453	0.106	308906	keystroke_Key.space	Key.space	n/a
154.724	0.104	309448	keystroke_t	t	n/a
154.904	0.12	309808	keystroke_e	e	n/a
155.0835	0.135	310167	keystroke_e	e	n/a
155.203	0.1505	310406	keystroke_n	n	n/a
155.2785	0.12	310557	keystroke_Key.space	Key.space	n/a
155.535	0.104	311070	keystroke_u	u	n/a
155.713	0.135	311426	keystroke_n	n	n/a
155.834	0.1655	311668	keystroke_a	a	n/a
155.968	0.076	311936	keystroke_b	b	n/a
156.179	0.045	312358	keystroke_l	l	n/a
156.2385	0.151	312477	keystroke_e	e	n/a
156.3745	0.119	312749	keystroke_Key.space	Key.space	n/a
156.644	0.1195	313288	keystroke_p	p	n/a
156.7935	0.166	313587	keystroke_r	r	n/a
156.989	0.15	313978	keystroke_e	e	n/a
157.1685	0.091	314337	keystroke_l	l	n/a
157.3645	0.0595	314729	keystroke_i	i	n/a
157.5735	0.03	315147	keystroke_m	m	n/a
157.7685	0.09	315537	keystroke_i	i	n/a
158.2485	0.135	316497	keystroke_n	n	n/a
158.3695	0.149	316739	keystroke_a	a	n/a
158.5485	0.105	317097	keystroke_r	r	n/a
158.6385	0.06	317277	keystroke_y	y	n/a
158.8785	0.0605	317757	keystroke_Key.enter	Key.enter	n/a
158.9475	6.6675	317895	prompt	n/a	minor kruger blah someone's\n
160.064	0.0745	320128	keystroke_m	m	n/a
160.244	0.06	320488	keystroke_i	i	n/a
160.379	0.09	320758	keystroke_n	n	n/a
160.5585	0.09	321117	keystroke_o	o	n/a
160.694	0.1195	321388	keystroke_r	r	n/a
160.7835	0.09	321567	keystroke_Key.space	Key.space	n/a
161.0095	0.12	322019	keystroke_k	k	n/a
161.4885	0.12	322977	keystroke_r	r	n/a
161.5935	0.1205	323187	keystroke_u	u	n/a
162.1045	0.0745	324209	keystroke_g	g	n/a
162.3285	0.15	324657	keystroke_e	e	n/a
162.4335	0.165	324867	keystroke_n	n	n/a
162.5385	0.075	325077	keystroke_Key.space	Key.space	n/a
162.7935	0.09	325587	keystroke_b	b	n/a
162.9885	0.135	325977	keystroke_l	l	n/a
163.0785	0.195	326157	keystroke_a	a	n/a
163.229	0.15	326458	keystroke_s	s	n/a
163.5435	0.09	327087	keystroke_Key.space	Key.space	n/a
164.219	0.1655	328438	keystroke_s	s	n/a
164.3535	0.091	328707	keystroke_o	o	n/a
164.5335	0.0905	329067	keystroke_m	m	n/a
164.5935	0.1505	329187	keystroke_e	e	n/a
164.7135	0.075	329427	keystroke_o	o	n/a
164.8345	0.119	329669	keystroke_n	n	n/a
164.8935	0.165	329787	keystroke_e	e	n/a
165.074	0.1345	330148	keystroke_'	'	n/a
165.2095	0.12	330419	keystroke_t	t	n/a
165.3745	0.134	330749	keystroke_s	s	n/a
165.5235	0.09	331047	keystroke_Key.enter	Key.enter	n/a
165.6195	7.946	331239	prompt	n/a	we'd witch published drive\n
166.634	0.21	333268	keystroke_w	w	n/a
166.738	0.1515	333476	keystroke_e	e	n/a
166.904	0.1505	333808	keystroke_;	;	n/a
167.069	0.135	334138	keystroke_d	d	n/a
167.188	0.106	334376	keystroke_Key.space	Key.space	n/a
168.104	0.165	336208	keystroke_w	w	n/a
168.2845	0.1345	336569	keystroke_i	i	n/a
168.434	0.1195	336868	keystroke_t	t	n/a
168.5835	0.195	337167	keystroke_h	h	n/a
169.574	0.105	339148	keystroke_Key.backspace	Key.backspace	n/a
169.6945	0.1195	339389	keystroke_c	c	n/a
169.859	0.165	339718	keystroke_h	h	n/a
169.979	0.105	339958	keystroke_Key.space	Key.space	n/a
170.1595	0.209	340319	keystroke_p	p	n/a
170.354	0.12	340708	keystroke_u	u	n/a
170.5945	0.165	341189	keystroke_v	v	n/a
170.7145	0.074	341429	keystroke_l	l	n/a
170.8935	0.12	341787	keystroke_i	i	n/a
171.0285	0.1505	342057	keystroke_s	s	n/a
171.119	0.105	342238	keystroke_h	h	n/a
171.239	0.21	342478	keystroke_e	e	n/a
171.389	0.15	342778	keystroke_d	d	n/a
171.508	0.106	343016	keystroke_Key.space	Key.space	n/a
172.169	0.1345	344338	keystroke_f	f	n/a
172.559	0.135	345118	keystroke_Key.backspace	Key.backspace	n/a
172.739	0.15	345478	keystroke_d	d	n/a
172.799	0.18	345598	keystroke_r	r	n/a
172.964	0.12	345928	keystroke_i	i	n/a
173.189	0.21	346378	keystroke_b	b	n/a
173.3235	0.195	346647	keystroke_e	e	n/a
173.4585	0.105	346917	keystroke_Key.enter	Key.enter	n/a
173.5705	15.28	347141	prompt	n/a	forecast wright essentials movements\n
179.4165	0.028	358833	keystroke_f	f	n/a
179.4595	0.1195	358919	keystroke_o	o	n/a
179.6235	0.1505	359247	keystroke_r	r	n/a
181.079	0.135	362158	keystroke_r	r	n/a
181.199	0.15	362398	keystroke_e	e	n/a
181.574	0.135	363148	keystroke_c	c	n/a
181.6795	0.2545	363359	keystroke_a	a	n/a
181.859	0.15	363718	keystroke_s	s	n/a
182.114	0.1945	364228	keystroke_e	e	n/a
182.294	0.105	364588	keystroke_Key.space	Key.space	n/a
182.954	0.104	365908	keystroke_Key.backspace	Key.backspace	n/a
183.134	0.09	366268	keystroke_Key.backspace	Key.backspace	n/a
183.24	0.119	366480	keystroke_t	t	n/a
183.389	0.12	366778	keystroke_Key.space	Key.space	n/a
183.6295	0.225	367259	keystroke_w	w	n/a
183.764	0.2095	367528	keystroke_e	e	n/a
183.9595	0.134	367919	keystroke_i	i	n/a
184.1085	0.151	368217	keystroke_g	g	n/a
184.2145	0.074	368429	keystroke_h	h	n/a
184.2735	0.1505	368547	keystroke_t	t	n/a
184.4085	0.1205	368817	keystroke_Key.space	Key.space	n/a
184.904	0.15	369808	keystroke_e	e	n/a
185.144	0.165	370288	keystroke_s	s	n/a
185.324	0.1195	370648	keystroke_s	s	n/a
186.33	0.134	372660	keystroke_e	e	n/a
186.434	0.1195	372868	keystroke_n	n	n/a
186.6145	0.119	373229	keystroke_t	t	n/a
186.8235	0.076	373647	keystroke_i	i	n/a
187.0185	0.0605	374037	keystroke_a	a	n/a
187.0635	0.0905	374127	keystroke_l	l	n/a
187.185	0.164	374370	keystroke_s	s	n/a
187.289	0.135	374578	keystroke_Key.space	Key.space	n/a
187.6935	0.106	375387	keystroke_m	m	n/a
187.874	0.1645	375748	keystroke_o	o	n/a
188.069	0.1045	376138	keystroke_v	v	n/a
188.2035	0.135	376407	keystroke_e	e	n/a
188.2635	0.09	376527	keystroke_m	m	n/a
188.4135	0.106	376827	keystroke_e	e	n/a
188.429	0.0905	376858	keystroke_n	n	n/a
188.549	0.09	377098	keystroke_t	t	n/a
188.714	0.1495	377428	keystroke_s	s	n/a
188.789	0.06	377578	keystroke_Key.enter	Key.enter	n/a
188.8545	10.166	377709	prompt	n/a	collection locks volume trademark\n
189.5545	0.1345	379109	keystroke_c	c	n/a
189.5995	0.0745	379199	keystroke_o	o	n/a
189.7785	0.061	379557	keystroke_l	l	n/a
189.8995	0.105	379799	keystroke_l	l	n/a
189.9445	0.105	379889	keystroke_e	e	n/a
190.6345	0.164	381269	keystroke_c	c	n/a
190.9945	0.149	381989	keystroke_t	t	n/a
191.0685	0.15	382137	keystroke_i	i	n/a
191.1745	0.1345	382349	keystroke_o	o	n/a
191.369	0.1805	382738	keystroke_n	n	n/a
191.459	0.135	382918	keystroke_Key.space	Key.space	n/a
191.7445	0.105	383489	keystroke_l	l	n/a
191.924	0.0755	383848	keystroke_o	o	n/a
192.419	0.135	384838	keystroke_c	c	n/a
192.5235	0.09	385047	keystroke_k	k	n/a
192.6285	0.181	385257	keystroke_s	s	n/a
192.7635	0.091	385527	keystroke_Key.space	Key.space	n/a
193.1545	0.1045	386309	keystroke_c	c	n/a
193.2	0.1045	386400	keystroke_o	o	n/a
193.799	0.105	387598	keystroke_l	l	n/a
194.324	0.075	388648	keystroke_Key.backspace	Key.backspace	n/a
194.474	0.135	388948	keystroke_Key.backspace	Key.backspace	n/a
194.654	0.136	389308	keystroke_v	v	n/a
194.939	0.105	389878	keystroke_l	l	n/a
196.4085	0.091	392817	keystroke_u	u	n/a
196.604	0.0745	393208	keystroke_m	m	n/a
196.664	0.1945	393328	keystroke_e	e	n/a
196.754	0.15	393508	keystroke_r	r	n/a
196.8885	0.1055	393777	keystroke_Key.space	Key.space	n/a
197.549	0.135	395098	keystroke_t	t	n/a
197.73	0.089	395460	keystroke_r	r	n/a
198.015	0.1645	396030	keystroke_a	a	n/a
198.1645	0.21	396329	keystroke_d	d	n/a
198.2845	0.149	396569	keystroke_e	e	n/a
198.3585	0.1055	396717	keystroke_m	m	n/a
198.4785	0.181	396957	keystroke_e	e	n/a
198.5245	0.1205	397049	keystroke_n	n	n/a
198.7635	0.181	397527	keystroke_a	a	n/a
198.8995	0.134	397799	keystroke_r	r	n/a
198.9285	0.09	397857	keystroke_Key.enter	Key.enter	n/a
199.035	10.111	398070	prompt	n/a	hawaiian natural packs adjustment\n
200.0095	0.15	400019	keystroke_h	h	n/a
200.0995	0.225	400199	keystroke_a	a	n/a
200.2785	0.1655	400557	keystroke_w	w	n/a
200.474	0.1505	400948	keystroke_a	a	n/a
200.654	0.0605	401308	keystroke_i	i	n/a
202.0495	0.12	404099	keystroke_i	i	n/a
202.1845	0.18	404369	keystroke_a	a	n/a
202.3045	0.105	404609	keystroke_n	n	n/a
202.3795	0.1645	404759	keystroke_s	s	n/a
202.5585	0.075	405117	keystroke_Key.space	Key.space	n/a
203.399	0.045	406798	keystroke_Key.backspace	Key.backspace	n/a
203.549	0.09	407098	keystroke_Key.backspace	Key.backspace	n/a
203.804	0.1045	407608	keystroke_Key.space	Key.space	n/a
204.119	0.1195	408238	keystroke_n	n	n/a
204.194	0.1045	408388	keystroke_a	a	n/a
204.419	0.1195	408838	keystroke_t	t	n/a
204.4935	0.1205	408987	keystroke_u	u	n/a
204.6585	0.1655	409317	keystroke_r	r	n/a
204.839	0.1805	409678	keystroke_a	a	n/a
204.9285	0.196	409857	keystroke_l	l	n/a
205.0485	0.12	410097	keystroke_Key.space	Key.space	n/a
206.1145	0.0905	412229	keystroke_p	p	n/a
206.3685	0.1655	412737	keystroke_c	c	n/a
206.504	0.135	413008	keystroke_k	k	n/a
207.224	0.105	414448	keystroke_s	s	n/a
207.284	0.119	414568	keystroke_Key.space	Key.space	n/a
207.539	0.24	415078	keystroke_a	a	n/a
207.6895	0.1345	415379	keystroke_s	s	n/a
207.869	0.105	415738	keystroke_j	j	n/a
208.0795	0.1345	416159	keystroke_u	u	n/a
208.2285	0.1055	416457	keystroke_s	s	n/a
208.4535	0.09	416907	keystroke_t	t	n/a
208.5745	0.12	417149	keystroke_e	e	n/a
208.5895	0.059	417179	keystroke_m	m	n/a
208.7395	0.074	417479	keystroke_n	n	n/a
208.754	0.0445	417508	keystroke_e	e	n/a
208.7995	0.134	417599	keystroke_t	t	n/a
209.084	0.06	418168	keystroke_Key.enter	Key.enter	n/a
209.151	8.9345	418302	prompt	n/a	transition refinance videos match\n
210.2235	0.136	420447	keystroke_t	t	n/a
210.3735	0.106	420747	keystroke_r	r	n/a
210.5545	0.284	421109	keystroke_a	a	n/a
210.7195	0.104	421439	keystroke_n	n	n/a
210.809	0.1055	421618	keystroke_s	s	n/a
210.929	0.0745	421858	keystroke_i	i	n/a
210.989	0.1645	421978	keystroke_s	s	n/a
211.109	0.1045	422218	keystroke_i	i	n/a
211.259	0.105	422518	keystroke_t	t	n/a
211.394	0.1945	422788	keystroke_e	e	n/a
211.8135	0.136	423627	keystroke_i	i	n/a
211.8895	0.149	423779	keystroke_t	t	n/a
211.9205	0.119	423841	keystroke_o	o	n/a
212.099	0.1345	424198	keystroke_n	n	n/a
212.6835	0.12	425367	keystroke_Key.space	Key.space	n/a
213.014	0.165	426028	keystroke_r	r	n/a
213.119	0.165	426238	keystroke_e	e	n/a
213.479	0.195	426958	keystroke_f	f	n/a
213.569	0.091	427138	keystroke_i	i	n/a
213.734	0.12	427468	keystroke_n	n	n/a
214.124	0.15	428248	keystroke_a	a	n/a
214.259	0.105	428518	keystroke_n	n	n/a
214.3795	0.2395	428759	keystroke_c	c	n/a
214.514	0.21	429028	keystroke_e	e	n/a
214.649	0.1055	429298	keystroke_Key.space	Key.space	n/a
215.144	0.1495	430288	keystroke_v	v	n/a
215.2645	0.135	430529	keystroke_i	i	n/a
215.909	0.165	431818	keystroke_d	d	n/a
216.089	0.1655	432178	keystroke_e	e	n/a
216.269	0.1505	432538	keystroke_o	o	n/a
216.434	0.135	432868	keystroke_s	s	n/a
216.509	0.075	433018	keystroke_Key.space	Key.space	n/a
216.704	0.075	433408	keystroke_m	m	n/a
216.764	0.12	433528	keystroke_a	a	n/a
217.304	0.105	434608	keystroke_t	t	n/a
217.6045	0.1045	435209	keystroke_c	c	n/a
217.679	0.075	435358	keystroke_b	b	n/a
217.964	0.12	435928	keystroke_Key.enter	Key.enter	n/a
218.099	7.1865	436198	prompt	n/a	assessment considering russell korean\n
218.834	0.21	437668	keystroke_a	a	n/a
219.029	0.0595	438058	keystroke_s	s	n/a
219.1785	0.0905	438357	keystroke_s	s	n/a
219.3435	0.1355	438687	keystroke_e	e	n/a
219.584	0.121	439168	keystroke_s	s	n/a
219.7645	0.209	439529	keystroke_s	s	n/a
219.9885	0.106	439977	keystroke_m	m	n/a
220.1095	0.1495	440219	keystroke_e	e	n/a
220.1985	0.0755	440397	keystroke_n	n	n/a
220.289	0.12	440578	keystroke_t	t	n/a
220.454	0.105	440908	keystroke_Key.space	Key.space	n/a
220.889	0.15	441778	keystroke_c	c	n/a
220.949	0.105	441898	keystroke_o	o	n/a
221.114	0.0905	442228	keystroke_n	n	n/a
221.2495	0.135	442499	keystroke_s	s	n/a
221.3085	0.107	442617	keystroke_i	i	n/a
221.4165	0.178	442833	keystroke_d	d	n/a
221.5645	0.2695	443129	keystroke_e	e	n/a
221.714	0.1805	443428	keystroke_r	r	n/a
221.924	0.09	443848	keystroke_i	i	n/a
222.104	0.075	444208	keystroke_n	n	n/a
222.1345	0.1495	444269	keystroke_g	g	n/a
222.269	0.1055	444538	keystroke_Key.space	Key.space	n/a
222.674	0.1795	445348	keystroke_r	r	n/a
222.8235	0.12	445647	keystroke_u	u	n/a
223.004	0.106	446008	keystroke_s	s	n/a
223.1845	0.104	446369	keystroke_s	s	n/a
223.1995	0.2545	446399	keystroke_e	e	n/a
223.394	0.195	446788	keystroke_l	l	n/a
223.4995	0.135	446999	keystroke_Key.space	Key.space	n/a
224.249	0.075	448498	keystroke_k	k	n/a
224.3845	0.1045	448769	keystroke_o	o	n/a
224.444	0.15	448888	keystroke_r	r	n/a
224.549	0.15	449098	keystroke_e	e	n/a
224.864	0.1505	449728	keystroke_a	a	n/a
224.969	0.1045	449938	keystroke_n	n	n/a
225.2085	0.075	450417	keystroke_Key.enter	Key.enter	n/a
225.2895	10.421	450579	prompt	n/a	needn't festivals multimedia thru\n
226.199	0.105	452398	keystroke_n	n	n/a
226.334	0.075	452668	keystroke_e	e	n/a
226.484	0.15	452968	keystroke_e	e	n/a
226.6485	0.151	453297	keystroke_d	d	n/a
227.0385	0.12	454077	keystroke_n	n	n/a
227.3085	0.1505	454617	keystroke_'	'	n/a
227.5045	0.119	455009	keystroke_t	t	n/a
227.6385	0.135	455277	keystroke_Key.space	Key.space	n/a
228.329	0.1355	456658	keystroke_f	f	n/a
228.644	0.135	457288	keystroke_e	e	n/a
228.839	0.1205	457678	keystroke_s	s	n/a
229.0195	0.12	458039	keystroke_t	t	n/a
229.124	0.195	458248	keystroke_i	i	n/a
229.334	0.165	458668	keystroke_v	v	n/a
229.544	0.1955	459088	keystroke_a	a	n/a
229.7845	0.1645	459569	keystroke_l	l	n/a
229.979	0.1345	459958	keystroke_s	s	n/a
230.0985	0.09	460197	keystroke_Key.space	Key.space	n/a
230.2935	0.121	460587	keystroke_m	m	n/a
230.519	0.1195	461038	keystroke_u	u	n/a
230.654	0.0905	461308	keystroke_s	s	n/a
230.804	0.1055	461608	keystroke_k	k	n/a
230.805	0.0585	461610	keystroke_l	l	n/a
230.9245	0.1495	461849	keystroke_t	t	n/a
231.329	0.075	462658	keystroke_Key.backspace	Key.backspace	n/a
231.494	0.06	462988	keystroke_Key.backspace	Key.backspace	n/a
231.659	0.12	463318	keystroke_Key.backspace	Key.backspace	n/a
232.0495	0.1045	464099	keystroke_Key.backspace	Key.backspace	n/a
232.364	0.18	464728	keystroke_l	l	n/a
232.379	0.105	464758	keystroke_k	k	n/a
233.069	0.135	466138	keystroke_Key.backspace	Key.backspace	n/a
233.3245	0.1345	466649	keystroke_t	t	n/a
233.445	0.074	466890	keystroke_i	i	n/a
233.684	0.105	467368	keystroke_m	m	n/a
233.759	0.105	467518	keystroke_e	e	n/a
233.9695	0.149	467939	keystroke_d	d	n/a
234.0595	0.1045	468119	keystroke_i	i	n/a
234.1785	0.181	468357	keystroke_a	a	n/a
234.3285	0.09	468657	keystroke_Key.space	Key.space	n/a
234.7035	0.12	469407	keystroke_t	t	n/a
234.7935	0.09	469587	keystroke_h	h	n/a
234.9145	0.135	469829	keystroke_r	r	n/a
235.4085	0.091	470817	keystroke_u	u	n/a
235.6635	0.045	471327	keystroke_Key.enter	Key.enter	n/a
235.72	9.861	471440	prompt	n/a	fleece crime recipient resource\n
236.505	0.1185	473010	keystroke_f	f	n/a
236.6685	0.1055	473337	keystroke_l	l	n/a
236.7585	0.075	473517	keystroke_e	e	n/a
237.0135	0.151	474027	keystroke_e	e	n/a
237.524	0.075	475048	keystroke_c	c	n/a
237.839	0.1655	475678	keystroke_e	e	n/a
237.989	0.09	475978	keystroke_Key.space	Key.space	n/a
238.4395	0.1345	476879	keystroke_c	c	n/a
238.694	0.105	477388	keystroke_r	r	n/a
238.754	0.12	477508	keystroke_i	i	n/a
239.0845	0.165	478169	keystroke_e	e	n/a
239.189	0.12	478378	keystroke_v	v	n/a
239.729	0.0755	479458	keystroke_Key.backspace	Key.backspace	n/a
239.879	0.105	479758	keystroke_Key.backspace	Key.backspace	n/a
240.7195	0.0895	481439	keystroke_m	m	n/a
240.824	0.1505	481648	keystroke_e	e	n/a
240.929	0.1195	481858	keystroke_Key.space	Key.space	n/a
241.1085	0.121	482217	keystroke_r	r	n/a
241.1845	0.1195	482369	keystroke_e	e	n/a
241.5735	0.21	483147	keystroke_e	e	n/a
241.8295	0.1045	483659	keystroke_i	i	n/a
242.264	0.105	484528	keystroke_p	p	n/a
242.5345	0.194	485069	keystroke_i	i	n/a
242.9695	0.134	485939	keystroke_e	e	n/a
243.0445	0.12	486089	keystroke_n	n	n/a
243.209	0.1355	486418	keystroke_t	t	n/a
243.2835	0.12	486567	keystroke_Key.space	Key.space	n/a
243.8095	0.12	487619	keystroke_r	r	n/a
243.884	0.1055	487768	keystroke_e	e	n/a
244.1245	0.135	488249	keystroke_s	s	n/a
244.1695	0.21	488339	keystroke_o	o	n/a
244.2895	0.135	488579	keystroke_u	u	n/a
244.9645	0.1045	489929	keystroke_r	r	n/a
245.265	0.239	490530	keystroke_e	e	n/a
245.474	0.105	490948	keystroke_Key.enter	Key.enter	n/a
245.594	12.4515	491188	prompt	n/a	precipitation civil username musician\n
246.4495	0.1945	492899	keystroke_p	p	n/a
246.659	0.135	493318	keystroke_r	r	n/a
246.959	0.1205	493918	keystroke_e	e	n/a
248.099	0.1655	496198	keystroke_i	i	n/a
248.7285	0.1505	497457	keystroke_Key.backspace	Key.backspace	n/a
248.9695	0.345	497939	keystroke_c	c	n/a
249.4195	0.165	498839	keystroke_i	i	n/a
250.049	0.1505	500098	keystroke_p	p	n/a
250.259	0.1345	500518	keystroke_i	i	n/a
250.8895	0.09	501779	keystroke_t	t	n/a
251.264	0.18	502528	keystroke_a	a	n/a
251.6695	0.15	503339	keystroke_t	t	n/a
251.7435	0.151	503487	keystroke_i	i	n/a
251.8345	0.12	503669	keystroke_o	o	n/a
252.06	0.1645	504120	keystroke_n	n	n/a
252.1195	0.12	504239	keystroke_Key.space	Key.space	n/a
252.3445	0.165	504689	keystroke_c	c	n/a
252.4495	0.15	504899	keystroke_i	i	n/a
252.6595	0.21	505319	keystroke_d	d	n/a
252.7795	0.135	505559	keystroke_i	i	n/a
253.034	0.2255	506068	keystroke_l	l	n/a
253.169	0.1505	506338	keystroke_Key.space	Key.space	n/a
254.264	0.075	508528	keystroke_i	i	n/a
254.324	0.2555	508648	keystroke_s	s	n/a
254.4895	0.209	508979	keystroke_e	e	n/a
254.834	0.0745	509668	keystroke_n	n	n/a
254.8935	0.181	509787	keystroke_a	a	n/a
255.0295	0.105	510059	keystroke_m	m	n/a
255.1495	0.135	510299	keystroke_e	e	n/a
255.2395	0.1495	510479	keystroke_Key.space	Key.space	n/a
255.929	0.06	511858	keystroke_n	n	n/a
256.319	0.135	512638	keystroke_Key.backspace	Key.backspace	n/a
256.65	0.0745	513300	keystroke_m	m	n/a
256.859	0.076	513718	keystroke_u	u	n/a
256.9195	0.1495	513839	keystroke_s	s	n/a
257.054	0.12	514108	keystroke_i	i	n/a
257.504	0.12	515008	keystroke_c	c	n/a
257.564	0.106	515128	keystroke_i	i	n/a
257.684	0.151	515368	keystroke_a	a	n/a
257.7595	0.09	515519	keystroke_n	n	n/a
257.999	0.045	515998	keystroke_Key.enter	Key.enter	n/a
258.0535	6.682	516107	prompt	n/a	teenage posing mentioned nowhere\n
258.81	0.119	517620	keystroke_t	t	n/a
259.004	0.09	518008	keystroke_e	e	n/a
259.184	0.135	518368	keystroke_e	e	n/a
259.3045	0.105	518609	keystroke_n	n	n/a
259.4695	0.1495	518939	keystroke_a	a	n/a
259.634	0.12	519268	keystroke_h	h	n/a
259.815	0.12	519630	keystroke_e	e	n/a
259.9045	0.1195	519809	keystroke_Key.space	Key.space	n/a
260.1295	0.239	520259	keystroke_p	p	n/a
260.2195	0.1795	520439	keystroke_o	o	n/a
260.28	0.1495	520560	keystroke_s	s	n/a
260.549	0.12	521098	keystroke_t	t	n/a
260.5645	0.0895	521129	keystroke_i	i	n/a
260.729	0.09	521458	keystroke_n	n	n/a
260.834	0.091	521668	keystroke_g	g	n/a
260.895	0.0735	521790	keystroke_Key.space	Key.space	n/a
261.089	0.12	522178	keystroke_m	m	n/a
261.1495	0.1345	522299	keystroke_e	e	n/a
262.1395	0.1205	524279	keystroke_t	t	n/a
262.215	0.1045	524430	keystroke_h	h	n/a
262.3935	0.1505	524787	keystroke_o	o	n/a
262.694	0.1805	525388	keystroke_f	f	n/a
262.9045	0.1495	525809	keystroke_Key.space	Key.space	n/a
263.3695	0.075	526739	keystroke_n	n	n/a
263.5495	0.1205	527099	keystroke_o	o	n/a
263.7585	0.2565	527517	keystroke_e	e	n/a
263.939	0.046	527878	keystroke_w	w	n/a
264.105	0.195	528210	keystroke_r	r	n/a
264.179	0.136	528358	keystroke_h	h	n/a
264.345	0.21	528690	keystroke_w	w	n/a
264.434	0.061	528868	keystroke_e	e	n/a
264.464	0.135	528928	keystroke_r	r	n/a
264.674	0.06	529348	keystroke_Key.enter	Key.enter	n/a
264.7415	8.4695	529483	prompt	n/a	conservative chambers select polish\n
265.7995	0.1655	531599	keystroke_c	c	n/a
265.8745	0.105	531749	keystroke_o	o	n/a
266.0245	0.135	532049	keystroke_n	n	n/a
266.1745	0.12	532349	keystroke_s	s	n/a
266.4445	0.2395	532889	keystroke_e	e	n/a
266.5645	0.1495	533129	keystroke_r	r	n/a
266.8945	0.119	533789	keystroke_v	v	n/a
267.0285	0.121	534057	keystroke_a	a	n/a
267.2845	0.12	534569	keystroke_t	t	n/a
267.3595	0.105	534719	keystroke_i	i	n/a
267.5395	0.09	535079	keystroke_n	n	n/a
267.6145	0.21	535229	keystroke_v	v	n/a
267.8095	0.105	535619	keystroke_r	r	n/a
267.8245	0.105	535649	keystroke_e	e	n/a
267.8835	0.1055	535767	keystroke_Key.space	Key.space	n/a
268.8145	0.1345	537629	keystroke_c	c	n/a
268.89	0.0895	537780	keystroke_h	h	n/a
269.0245	0.165	538049	keystroke_a	a	n/a
269.114	0.0755	538228	keystroke_m	m	n/a
269.3245	0.12	538649	keystroke_p	p	n/a
269.7445	0.135	539489	keystroke_Key.backspace	Key.backspace	n/a
269.9395	0.12	539879	keystroke_b	b	n/a
270.2395	0.195	540479	keystroke_e	e	n/a
270.344	0.1195	540688	keystroke_r	r	n/a
270.57	0.164	541140	keystroke_s	s	n/a
270.644	0.135	541288	keystroke_Key.space	Key.space	n/a
271.1245	0.105	542249	keystroke_s	s	n/a
271.3195	0.12	542639	keystroke_e	e	n/a
271.4245	0.0605	542849	keystroke_l	l	n/a
271.4995	0.105	542999	keystroke_e	e	n/a
271.6945	0.15	543389	keystroke_c	c	n/a
271.9505	0.134	543901	keystroke_t	t	n/a
272.0245	0.119	544049	keystroke_Key.space	Key.space	n/a
272.249	0.18	544498	keystroke_p	p	n/a
272.369	0.1205	544738	keystroke_o	o	n/a
272.564	0.09	545128	keystroke_l	l	n/a
272.76	0.1345	545520	keystroke_s	s	n/a
272.775	0.12	545550	keystroke_u	u	n/a
273.134	0.075	546268	keystroke_Key.enter	Key.enter	n/a
273.2175	8.978	546435	prompt	n/a	identifies cabinet coin transparency\n
274.17	0.104	548340	keystroke_i	i	n/a
274.5	0.1495	549000	keystroke_d	d	n/a
274.6045	0.1795	549209	keystroke_e	e	n/a
274.724	0.1205	549448	keystroke_n	n	n/a
274.859	0.1205	549718	keystroke_t	t	n/a
274.9645	0.12	549929	keystroke_i	i	n/a
275.1595	0.134	550319	keystroke_f	f	n/a
275.2785	0.106	550557	keystroke_i	i	n/a
275.3695	0.135	550739	keystroke_e	e	n/a
275.625	0.0745	551250	keystroke_s	s	n/a
275.654	0.12	551308	keystroke_Key.space	Key.space	n/a
275.954	0.18	551908	keystroke_c	c	n/a
276.359	0.195	552718	keystroke_a	a	n/a
276.8545	0.09	553709	keystroke_b	b	n/a
277.035	0.089	554070	keystroke_i	i	n/a
277.274	0.09	554548	keystroke_m	m	n/a
277.379	0.1355	554758	keystroke_e	e	n/a
277.6195	0.15	555239	keystroke_t	t	n/a
277.7245	0.1195	555449	keystroke_Key.space	Key.space	n/a
278.294	0.1505	556588	keystroke_c	c	n/a
278.339	0.2555	556678	keystroke_o	o	n/a
278.4895	0.1195	556979	keystroke_i	i	n/a
278.7895	0.1195	557579	keystroke_n	n	n/a
278.834	0.15	557668	keystroke_Key.space	Key.space	n/a
279.1795	0.1195	558359	keystroke_t	t	n/a
279.329	0.165	558658	keystroke_r	r	n/a
279.629	0.27	559258	keystroke_a	a	n/a
280.034	0.135	560068	keystroke_n	n	n/a
280.214	0.1355	560428	keystroke_s	s	n/a
280.9045	0.09	561809	keystroke_p	p	n/a
281.0095	0.135	562019	keystroke_a	a	n/a
281.249	0.135	562498	keystroke_r	r	n/a
281.339	0.135	562678	keystroke_e	e	n/a
281.4595	0.105	562919	keystroke_n	n	n/a
281.5795	0.0305	563159	keystroke_f	f	n/a
281.744	0.15	563488	keystroke_e	e	n/a
281.805	0.119	563610	keystroke_y	y	n/a
282.1345	0.0595	564269	keystroke_Key.enter	Key.enter	n/a
282.202	7.479	564404	prompt	n/a	how'll compound both ampland\n
282.974	0.12	565948	keystroke_h	h	n/a
283.2745	0.18	566549	keystroke_o	o	n/a
283.4395	0.165	566879	keystroke_w	w	n/a
283.964	0.1355	567928	keystroke_;	;	n/a
284.234	0.045	568468	keystroke_l	l	n/a
284.3535	0.196	568707	keystroke_l	l	n/a
284.4745	0.165	568949	keystroke_Key.space	Key.space	n/a
284.8495	0.135	569699	keystroke_c	c	n/a
284.8795	0.075	569759	keystroke_o	o	n/a
285.0295	0.0905	570059	keystroke_m	m	n/a
285.2095	0.225	570419	keystroke_p	p	n/a
285.3595	0.165	570719	keystroke_i	i	n/a
285.5545	0.18	571109	keystroke_s	s	n/a
286.049	0.121	572098	keystroke_m	m	n/a
286.214	0.09	572428	keystroke_d	d	n/a
286.364	0.1645	572728	keystroke_Key.space	Key.space	n/a
286.7395	0.0745	573479	keystroke_b	b	n/a
286.9035	0.1515	573807	keystroke_o	o	n/a
287.01	0.1195	574020	keystroke_t	t	n/a
287.1	0.1795	574200	keystroke_h	h	n/a
287.219	0.1505	574438	keystroke_Key.space	Key.space	n/a
287.4135	0.1515	574827	keystroke_a	a	n/a
288.1045	0.2095	576209	keystroke_m	m	n/a
288.1195	0.075	576239	keystroke_,	,	n/a
288.4645	0.165	576929	keystroke_p	p	n/a
289.1095	0.1195	578219	keystroke_l	l	n/a
289.244	0.135	578488	keystroke_a	a	n/a
289.424	0.165	578848	keystroke_d	d	n/a
289.604	0.0755	579208	keystroke_Key.enter	Key.enter	n/a
289.6855	11.4105	579371	prompt	n/a	flavor drew network decorating\n
290.7595	0.12	581519	keystroke_f	f	n/a
290.8645	0.105	581729	keystroke_l	l	n/a
290.8955	0.1785	581791	keystroke_a	a	n/a
291.404	0.1205	582808	keystroke_v	v	n/a
291.5095	0.12	583019	keystroke_o	o	n/a
291.6445	0.135	583289	keystroke_r	r	n/a
291.8385	0.12	583677	keystroke_Key.space	Key.space	n/a
292.3945	0.1355	584789	keystroke_d	d	n/a
292.5895	0.15	585179	keystroke_e	e	n/a
293.0095	0.165	586019	keystroke_Key.backspace	Key.backspace	n/a
293.1595	0.1345	586319	keystroke_r	r	n/a
293.2345	0.1645	586469	keystroke_e	e	n/a
293.594	0.196	587188	keystroke_w	w	n/a
293.8645	0.105	587729	keystroke_Key.space	Key.space	n/a
294.1795	0.0745	588359	keystroke_n	n	n/a
294.239	0.1505	588478	keystroke_e	e	n/a
294.509	0.0905	589018	keystroke_t	t	n/a
294.719	0.2255	589438	keystroke_w	w	n/a
294.824	0.18	589648	keystroke_e	e	n/a
294.9595	0.12	589919	keystroke_o	o	n/a
295.2745	0.1505	590549	keystroke_k	k	n/a
295.5445	0.15	591089	keystroke_Key.space	Key.space	n/a
296.1895	0.075	592379	keystroke_r	r	n/a
296.2195	0.165	592439	keystroke_e	e	n/a
296.4745	0.2095	592949	keystroke_c	c	n/a
296.64	0.149	593280	keystroke_o	o	n/a
297.854	0.0445	595708	keystroke_Key.backspace	Key.backspace	n/a
298.004	0.09	596008	keystroke_Key.backspace	Key.backspace	n/a
298.124	0.12	596248	keystroke_Key.backspace	Key.backspace	n/a
298.7845	0.1195	597569	keystroke_Key.backspace	Key.backspace	n/a
299.1295	0.0745	598259	keystroke_d	d	n/a
299.3245	0.09	598649	keystroke_e	e	n/a
299.579	0.1055	599158	keystroke_c	c	n/a
299.625	0.1345	599250	keystroke_o	o	n/a
299.9995	0.0905	599999	keystroke_r	r	n/a
300.2395	0.1205	600479	keystroke_a	a	n/a
300.5245	0.09	601049	keystroke_t	t	n/a
300.584	0.0905	601168	keystroke_i	i	n/a
300.7495	0.1055	601499	keystroke_n	n	n/a
300.84	0.0895	601680	keystroke_g	g	n/a
301.0495	0.045	602099	keystroke_Key.enter	Key.enter	n/a
301.1005	11.1555	602201	prompt	n/a	bestsellers sponsored becoming syntax\n
301.9045	0.135	603809	keystroke_b	b	n/a
302.0095	0.165	604019	keystroke_e	e	n/a
302.445	0.1345	604890	keystroke_s	s	n/a
302.685	0.1195	605370	keystroke_t	t	n/a
303.0595	0.2245	606119	keystroke_s	s	n/a
303.209	0.165	606418	keystroke_e	e	n/a
303.344	0.0755	606688	keystroke_l	l	n/a
303.494	0.12	606988	keystroke_l	l	n/a
303.5695	0.2695	607139	keystroke_e	e	n/a
303.749	0.121	607498	keystroke_r	r	n/a
303.945	0.359	607890	keystroke_s	s	n/a
304.0795	0.1045	608159	keystroke_Key.space	Key.space	n/a
304.305	0.3445	608610	keystroke_p	p	n/a
304.515	0.21	609030	keystroke_o	o	n/a
304.874	0.136	609748	keystroke_n	n	n/a
304.949	0.3005	609898	keystroke_s	s	n/a
305.144	0.1205	610288	keystroke_Key.space	Key.space	n/a
305.174	0.1815	610348	keystroke_d	d	n/a
305.954	0.12	611908	keystroke_Key.backspace	Key.backspace	n/a
306.164	0.12	612328	keystroke_Key.backspace	Key.backspace	n/a
306.8095	0.1945	613619	keystroke_s	s	n/a
307.289	0.15	614578	keystroke_Key.backspace	Key.backspace	n/a
307.4995	0.119	614999	keystroke_o	o	n/a
307.5895	0.15	615179	keystroke_r	r	n/a
307.7095	0.134	615419	keystroke_e	e	n/a
307.9935	0.1965	615987	keystroke_d	d	n/a
308.1745	0.134	616349	keystroke_Key.space	Key.space	n/a
309.134	0.1055	618268	keystroke_b	b	n/a
309.209	0.09	618418	keystroke_e	e	n/a
309.434	0.1655	618868	keystroke_c	c	n/a
309.495	0.09	618990	keystroke_o	o	n/a
309.675	0.075	619350	keystroke_m	m	n/a
309.8245	0.0895	619649	keystroke_i	i	n/a
309.9595	0.1195	619919	keystroke_g	g	n/a
309.99	0.104	619980	keystroke_n	n	n/a
310.169	0.075	620338	keystroke_Key.space	Key.space	n/a
310.229	0.181	620458	keystroke_s	s	n/a
310.38	0.1045	620760	keystroke_y	y	n/a
310.574	0.12	621148	keystroke_n	n	n/a
310.679	0.0755	621358	keystroke_t	t	n/a
310.814	0.165	621628	keystroke_a	a	n/a
312.0445	0.149	624089	keystroke_x	x	n/a
312.1795	0.074	624359	keystroke_Key.enter	Key.enter	n/a
312.262	6.1585	624524	prompt	n/a	last peers kodak savage\n
313.0795	0.1505	626159	keystroke_l	l	n/a
313.215	0.179	626430	keystroke_a	a	n/a
313.2895	0.1645	626579	keystroke_s	s	n/a
313.605	0.119	627210	keystroke_t	t	n/a
313.649	0.105	627298	keystroke_Key.space	Key.space	n/a
313.8445	0.0755	627689	keystroke_p	p	n/a
313.905	0.075	627810	keystroke_e	e	n/a
314.0845	0.1795	628169	keystroke_e	e	n/a
314.19	0.12	628380	keystroke_r	r	n/a
314.4145	0.135	628829	keystroke_s	s	n/a
314.5045	0.09	629009	keystroke_Key.space	Key.space	n/a
314.8795	0.1505	629759	keystroke_f	f	n/a
314.9245	0.135	629849	keystroke_o	o	n/a
315.3295	0.1655	630659	keystroke_s	s	n/a
315.614	0.1055	631228	keystroke_Key.space	Key.space	n/a
315.69	0.135	631380	keystroke_a	a	n/a
315.7795	0.1495	631559	keystroke_s	s	n/a
316.6645	0.1045	633329	keystroke_Key.space	Key.space	n/a
316.935	0.075	633870	keystroke_s	s	n/a
317.5045	0.165	635009	keystroke_a	a	n/a
317.6845	0.0605	635369	keystroke_v	v	n/a
317.7595	0.165	635519	keystroke_a	a	n/a
318.1045	0.1045	636209	keystroke_g	g	n/a
318.2535	0.12	636507	keystroke_e	e	n/a
318.3585	0.0605	636717	keystroke_Key.enter	Key.enter	n/a
318.425	10.8585	636850	prompt	n/a	outside newark mediterranean force\n
319.275	0.24	638550	keystroke_o	o	n/a
319.424	0.121	638848	keystroke_u	u	n/a
319.53	0.09	639060	keystroke_t	t	n/a
319.7695	0.1045	639539	keystroke_s	s	n/a
319.799	0.1205	639598	keystroke_i	i	n/a
320.055	0.1185	640110	keystroke_d	d	n/a
320.0835	0.1805	640167	keystroke_e	e	n/a
320.1745	0.075	640349	keystroke_Key.space	Key.space	n/a
320.3395	0.1055	640679	keystroke_n	n	n/a
320.4145	0.134	640829	keystroke_e	e	n/a
320.6395	0.2245	641279	keystroke_w	w	n/a
320.744	0.1345	641488	keystroke_e	e	n/a
320.985	0.18	641970	keystroke_a	a	n/a
321.6445	0.0895	643289	keystroke_Key.backspace	Key.backspace	n/a
321.794	0.1355	643588	keystroke_Key.backspace	Key.backspace	n/a
321.885	0.165	643770	keystroke_a	a	n/a
322.035	0.149	644070	keystroke_r	r	n/a
322.214	0.105	644428	keystroke_l	l	n/a
322.244	0.2105	644488	keystroke_k	k	n/a
322.379	0.135	644758	keystroke_Key.space	Key.space	n/a
323.504	0.105	647008	keystroke_m	m	n/a
323.594	0.1205	647188	keystroke_e	e	n/a
324.1045	0.1655	648209	keystroke_d	d	n/a
324.5695	0.06	649139	keystroke_i	i	n/a
324.8545	0.1055	649709	keystroke_t	t	n/a
325.2745	0.18	650549	keystroke_e	e	n/a
325.5295	0.0605	651059	keystroke_r	r	n/a
325.6645	0.09	651329	keystroke_r	r	n/a
325.8295	0.195	651659	keystroke_a	a	n/a
326.0095	0.119	652019	keystroke_n	n	n/a
326.19	0.15	652380	keystroke_i	i	n/a
326.2945	0.135	652589	keystroke_e	e	n/a
326.5195	0.1505	653039	keystroke_s	s	n/a
326.639	0.0905	653278	keystroke_Key.space	Key.space	n/a
327.7195	0.09	655439	keystroke_f	f	n/a
327.7795	0.105	655559	keystroke_o	o	n/a
328.049	0.075	656098	keystroke_r	r	n/a
328.289	0.1805	656578	keystroke_c	c	n/a
328.394	0.151	656788	keystroke_e	e	n/a
328.56	0.0595	657120	keystroke_]	]	n/a
329.129	0.1505	658258	keystroke_Key.enter	Key.enter	n/a
329.304	8.467	658608	prompt	n/a	newfoundland builds books crisis\n
330.225	0.1045	660450	keystroke_n	n	n/a
330.375	0.134	660750	keystroke_e	e	n/a
331.034	0.0905	662068	keystroke_w	w	n/a
331.3795	0.12	662759	keystroke_f	f	n/a
331.47	0.2245	662940	keystroke_o	o	n/a
331.6045	0.12	663209	keystroke_u	u	n/a
331.8445	0.09	663689	keystroke_n	n	n/a
331.9345	0.105	663869	keystroke_d	d	n/a
332.1	0.135	664200	keystroke_l	l	n/a
332.22	0.165	664440	keystroke_a	a	n/a
332.37	0.089	664740	keystroke_n	n	n/a
332.5195	0.15	665039	keystroke_f	f	n/a
332.624	0.0755	665248	keystroke_Key.space	Key.space	n/a
332.804	0.09	665608	keystroke_b	b	n/a
332.9695	0.1055	665939	keystroke_u	u	n/a
333.149	0.0905	666298	keystroke_i	i	n/a
333.3745	0.0895	666749	keystroke_l	l	n/a
333.4495	0.135	666899	keystroke_s	s	n/a
333.6735	0.106	667347	keystroke_Key.space	Key.space	n/a
335.549	0.105	671098	keystroke_b	b	n/a
335.789	0.06	671578	keystroke_o	o	n/a
335.9095	0.21	671819	keystroke_o	o	n/a
336.029	0.1955	672058	keystroke_k	k	n/a
336.195	0.1045	672390	keystroke_s	s	n/a
336.3145	0.075	672629	keystroke_Key.space	Key.space	n/a
336.5095	0.12	673019	keystroke_c	c	n/a
336.7795	0.1195	673559	keystroke_r	r	n/a
337.019	0.1205	674038	keystroke_s	s	n/a
337.11	0.0895	674220	keystroke_i	i	n/a
337.2145	0.1655	674429	keystroke_s	s	n/a
337.7235	0.046	675447	keystroke_Key.enter	Key.enter	n/a
337.7745	12.206	675549	prompt	n/a	whose witnesses minerals subscribers\n
338.7895	0.15	677579	keystroke_w	w	n/a
339.1045	0.09	678209	keystroke_j	j	n/a
339.7945	0.105	679589	keystroke_Key.backspace	Key.backspace	n/a
340.0795	0.09	680159	keystroke_h	h	n/a
340.2435	0.136	680487	keystroke_o	o	n/a
340.35	0.1795	680700	keystroke_s	s	n/a
340.4545	0.135	680909	keystroke_e	e	n/a
340.6045	0.075	681209	keystroke_Key.space	Key.space	n/a
341.174	0.135	682348	keystroke_w	w	n/a
341.279	0.121	682558	keystroke_i	i	n/a
341.43	0.1345	682860	keystroke_t	t	n/a
341.565	0.0295	683130	keystroke_h	h	n/a
342.0745	0.105	684149	keystroke_Key.backspace	Key.backspace	n/a
342.36	0.1045	684720	keystroke_n	n	n/a
342.4645	0.12	684929	keystroke_e	e	n/a
342.7045	0.045	685409	keystroke_s	s	n/a
342.8545	0.1495	685709	keystroke_s	s	n/a
342.974	0.105	685948	keystroke_Key.space	Key.space	n/a
343.229	0.1195	686458	keystroke_m	m	n/a
343.485	0.0585	686970	keystroke_i	i	n/a
343.6645	0.1195	687329	keystroke_n	n	n/a
346.3365	0.0575	692673	keystroke_e	e	n/a
346.484	0.105	692968	keystroke_r	r	n/a
346.6345	0.1495	693269	keystroke_a	a	n/a
346.785	0.014	693570	keystroke_l	l	n/a
346.92	0.1045	693840	keystroke_s	s	n/a
346.9795	0.12	693959	keystroke_Key.space	Key.space	n/a
347.3695	0.1055	694739	keystroke_s	s	n/a
347.609	0.1205	695218	keystroke_c	c	n/a
348.0595	0.105	696119	keystroke_Key.backspace	Key.backspace	n/a
348.345	0.0895	696690	keystroke_u	u	n/a
348.5995	0.0745	697199	keystroke_b	b	n/a
348.7495	0.1045	697499	keystroke_s	s	n/a
348.945	0.1345	697890	keystroke_c	c	n/a
349.2295	0.1205	698459	keystroke_r	r	n/a
349.275	0.09	698550	keystroke_i	i	n/a
349.455	0.1045	698910	keystroke_b	b	n/a
349.5445	0.1795	699089	keystroke_e	e	n/a
349.649	0.0905	699298	keystroke_r	r	n/a
349.8295	0.1195	699659	keystroke_s	s	n/a
349.9045	0.0745	699809	keystroke_Key.enter	Key.enter	n/a
349.9875	6.6985	699975	prompt	n/a	tramadol checks nudist burner\n
350.849	0.12	701698	keystroke_t	t	n/a
350.94	0.15	701880	keystroke_r	r	n/a
351.195	0.2095	702390	keystroke_a	a	n/a
351.3895	0.135	702779	keystroke_m	m	n/a
351.4795	0.195	702959	keystroke_a	a	n/a
351.75	0.179	703500	keystroke_d	d	n/a
351.9	0.119	703800	keystroke_o	o	n/a
352.3195	0.21	704639	keystroke_l	l	n/a
352.604	0.1205	705208	keystroke_Key.space	Key.space	n/a
352.7845	0.12	705569	keystroke_c	c	n/a
352.8745	0.1045	705749	keystroke_h	h	n/a
352.995	0.104	705990	keystroke_e	e	n/a
353.219	0.105	706438	keystroke_c	c	n/a
353.309	0.0905	706618	keystroke_k	k	n/a
353.4145	0.12	706829	keystroke_s	s	n/a
353.5645	0.105	707129	keystroke_Key.space	Key.space	n/a
354.015	0.075	708030	keystroke_n	n	n/a
354.2395	0.075	708479	keystroke_u	u	n/a
354.5545	0.1205	709109	keystroke_d	d	n/a
354.66	0.105	709320	keystroke_i	i	n/a
355.094	0.09	710188	keystroke_e	e	n/a
355.305	0.0745	710610	keystroke_s	s	n/a
355.4845	0.0895	710969	keystroke_t	t	n/a
355.544	0.0905	711088	keystroke_Key.space	Key.space	n/a
355.725	0.09	711450	keystroke_b	b	n/a
355.905	0.09	711810	keystroke_u	u	n/a
355.949	0.12	711898	keystroke_r	r	n/a
356.1445	0.1055	712289	keystroke_n	n	n/a
356.34	0.225	712680	keystroke_e	e	n/a
356.609	0.075	713218	keystroke_Key.enter	Key.enter	n/a
356.6925	8.349	713385	prompt	n/a	hebrew canvas narrow geology\n
358.2145	0.105	716429	keystroke_h	h	n/a
358.3045	0.1795	716609	keystroke_e	e	n/a
358.53	0.1195	717060	keystroke_b	b	n/a
358.7395	0.12	717479	keystroke_r	r	n/a
358.8145	0.1505	717629	keystroke_e	e	n/a
359.0995	0.1655	718199	keystroke_w	w	n/a
359.249	0.1045	718498	keystroke_Key.space	Key.space	n/a
359.535	0.18	719070	keystroke_c	c	n/a
359.8345	0.15	719669	keystroke_a	a	n/a
360.134	0.1355	720268	keystroke_r	r	n/a
360.869	0.12	721738	keystroke_Key.backspace	Key.backspace	n/a
361.1845	0.075	722369	keystroke_n	n	n/a
361.4545	0.09	722909	keystroke_v	v	n/a
361.5295	0.18	723059	keystroke_a	a	n/a
361.6345	0.18	723269	keystroke_s	s	n/a
361.7995	0.119	723599	keystroke_Key.space	Key.space	n/a
362.3245	0.1205	724649	keystroke_n	n	n/a
362.4295	0.1205	724859	keystroke_a	a	n/a
362.6545	0.045	725309	keystroke_r	r	n/a
362.7745	0.105	725549	keystroke_r	r	n/a
362.8945	0.105	725789	keystroke_o	o	n/a
363.179	0.1955	726358	keystroke_w	w	n/a
363.284	0.151	726568	keystroke_Key.space	Key.space	n/a
363.735	0.18	727470	keystroke_g	g	n/a
363.8545	0.1955	727709	keystroke_e	e	n/a
363.9745	0.105	727949	keystroke_o	o	n/a
364.1845	0.075	728369	keystroke_l	l	n/a
364.545	0.135	729090	keystroke_g	g	n/a
364.695	0.0895	729390	keystroke_y	y	n/a
365.0095	0.03	730019	keystroke_Key.enter	Key.enter	n/a
365.0525	7.1885	730105	prompt	n/a	seven probably desire gifts\n
365.7745	0.18	731549	keystroke_s	s	n/a
365.9095	0.135	731819	keystroke_e	e	n/a
366.0755	0.119	732151	keystroke_v	v	n/a
366.1345	0.225	732269	keystroke_e	e	n/a
366.2995	0.15	732599	keystroke_r	r	n/a
366.4345	0.1345	732869	keystroke_Key.space	Key.space	n/a
366.69	0.164	733380	keystroke_p	p	n/a
366.9295	0.136	733859	keystroke_r	r	n/a
367.034	0.106	734068	keystroke_o	o	n/a
367.2895	0.075	734579	keystroke_b	b	n/a
367.3945	0.1495	734789	keystroke_a	a	n/a
367.4545	0.1055	734909	keystroke_b	b	n/a
367.6945	0.0595	735389	keystroke_l	l	n/a
367.919	0.166	735838	keystroke_y	y	n/a
368.025	0.12	736050	keystroke_Key.space	Key.space	n/a
368.19	0.255	736380	keystroke_d	d	n/a
368.3545	0.1945	736709	keystroke_e	e	n/a
368.5795	0.1645	737159	keystroke_s	s	n/a
368.6395	0.1195	737279	keystroke_i	i	n/a
368.7745	0.1355	737549	keystroke_r	r	n/a
368.88	0.1495	737760	keystroke_e	e	n/a
369.4195	0.135	738839	keystroke_Key.space	Key.space	n/a
370.0345	0.18	740069	keystroke_g	g	n/a
370.17	0.12	740340	keystroke_i	i	n/a
370.32	0.1045	740640	keystroke_t	t	n/a
371.549	0.1655	743098	keystroke_Key.backspace	Key.backspace	n/a
371.6545	0.09	743309	keystroke_f	f	n/a
371.8645	0.09	743729	keystroke_t	t	n/a
372.0455	0.149	744091	keystroke_s	s	n/a
372.1645	0.075	744329	keystroke_Key.enter	Key.enter	n/a
372.246	7.195	744492	prompt	n/a	emerging peoples essex practice\n
373.065	0.089	746130	keystroke_e	e	n/a
373.1695	0.0745	746339	keystroke_m	m	n/a
373.245	0.209	746490	keystroke_e	e	n/a
373.379	0.09	746758	keystroke_r	r	n/a
373.5895	0.1205	747179	keystroke_g	g	n/a
373.724	0.06	747448	keystroke_i	i	n/a
373.874	0.06	747748	keystroke_n	n	n/a
373.9945	0.105	747989	keystroke_g	g	n/a
374.0395	0.0745	748079	keystroke_Key.space	Key.space	n/a
374.325	0.0895	748650	keystroke_p	p	n/a
374.4295	0.135	748859	keystroke_e	e	n/a
374.52	0.09	749040	keystroke_o	o	n/a
374.6695	0.075	749339	keystroke_p	p	n/a
374.8195	0.09	749639	keystroke_l	l	n/a
374.8945	0.165	749789	keystroke_e	e	n/a
375.374	0.195	750748	keystroke_s	s	n/a
375.539	0.106	751078	keystroke_Key.space	Key.space	n/a
375.7205	0.119	751441	keystroke_e	e	n/a
375.96	0.0595	751920	keystroke_s	s	n/a
376.11	0.2255	752220	keystroke_s	s	n/a
376.2445	0.255	752489	keystroke_e	e	n/a
376.6045	0.1505	753209	keystroke_d	d	n/a
377.0395	0.1505	754079	keystroke_Key.backspace	Key.backspace	n/a
377.16	0.119	754320	keystroke_x	x	n/a
377.4	0.1795	754800	keystroke_Key.space	Key.space	n/a
377.91	0.165	755820	keystroke_p	p	n/a
378.06	0.105	756120	keystroke_r	r	n/a
378.195	0.18	756390	keystroke_a	a	n/a
378.42	0.1345	756840	keystroke_c	c	n/a
378.675	0.12	757350	keystroke_t	t	n/a
378.7645	0.1355	757529	keystroke_i	i	n/a
378.9295	0.18	757859	keystroke_v	v	n/a
379.0195	0.18	758039	keystroke_e	e	n/a
379.3495	0.09	758699	keystroke_Key.enter	Key.enter	n/a
379.446	6.4755	758892	prompt	n/a	elvis score spencer ranking\n
380.49	0.09	760980	keystroke_e	e	n/a
380.594	0.121	761188	keystroke_l	l	n/a
380.88	0.12	761760	keystroke_v	v	n/a
381.0145	0.0905	762029	keystroke_i	i	n/a
381.1355	0.1495	762271	keystroke_s	s	n/a
381.24	0.12	762480	keystroke_Key.space	Key.space	n/a
381.465	0.12	762930	keystroke_s	s	n/a
381.72	0.135	763440	keystroke_c	c	n/a
381.825	0.134	763650	keystroke_o	o	n/a
382.034	0.241	764068	keystroke_s	s	n/a
382.17	0.18	764340	keystroke_e	e	n/a
382.2895	0.1195	764579	keystroke_Key.space	Key.space	n/a
382.439	0.226	764878	keystroke_s	s	n/a
382.62	0.1505	765240	keystroke_p	p	n/a
382.755	0.12	765510	keystroke_e	e	n/a
382.92	0.2095	765840	keystroke_a	a	n/a
383.114	0.1205	766228	keystroke_n	n	n/a
383.159	0.196	766318	keystroke_d	d	n/a
384.1195	0.18	768239	keystroke_e	e	n/a
384.3145	0.105	768629	keystroke_Key.space	Key.space	n/a
384.795	0.0745	769590	keystroke_r	r	n/a
384.9445	0.165	769889	keystroke_a	a	n/a
385.0495	0.0755	770099	keystroke_n	n	n/a
385.3045	0.09	770609	keystroke_k	k	n/a
385.4845	0.075	770969	keystroke_i	i	n/a
385.6345	0.1055	771269	keystroke_n	n	n/a
385.7245	0.09	771449	keystroke_g	g	n/a
385.874	0.045	771748	keystroke_Key.enter	Key.enter	n/a
385.933	6.3925	771866	prompt	n/a	salmon rate false hispanic\n
386.6095	0.1655	773219	keystroke_s	s	n/a
386.88	0.179	773760	keystroke_a	a	n/a
387.0135	0.076	774027	keystroke_l	l	n/a
387.255	0.12	774510	keystroke_m	m	n/a
387.524	0.061	775048	keystroke_o	o	n/a
387.6745	0.1805	775349	keystroke_n	n	n/a
387.795	0.1195	775590	keystroke_Key.space	Key.space	n/a
388.005	0.0895	776010	keystroke_r	r	n/a
388.1245	0.1055	776249	keystroke_a	a	n/a
388.3045	0.09	776609	keystroke_t	t	n/a
388.7395	0.18	777479	keystroke_e	e	n/a
388.9045	0.12	777809	keystroke_Key.space	Key.space	n/a
389.2645	0.135	778529	keystroke_f	f	n/a
389.4145	0.21	778829	keystroke_a	a	n/a
389.61	0.1045	779220	keystroke_l	l	n/a
389.8045	0.135	779609	keystroke_e	e	n/a
390.4945	0.105	780989	keystroke_Key.backspace	Key.backspace	n/a
390.54	0.18	781080	keystroke_s	s	n/a
390.66	0.165	781320	keystroke_e	e	n/a
390.7945	0.1055	781589	keystroke_Key.space	Key.space	n/a
391.035	0.134	782070	keystroke_h	h	n/a
391.14	0.1345	782280	keystroke_i	i	n/a
391.2305	0.149	782461	keystroke_s	s	n/a
391.4395	0.15	782879	keystroke_p	p	n/a
391.605	0.1945	783210	keystroke_a	a	n/a
391.7845	0.0605	783569	keystroke_n	n	n/a
391.9645	0.1045	783929	keystroke_i	i	n/a
392.084	0.151	784168	keystroke_c	c	n/a
392.2795	0.0445	784559	keystroke_Key.enter	Key.enter	n/a
392.33	12.551	784660	prompt	n/a	text hundred alike optimization\n
393.135	0.105	786270	keystroke_t	t	n/a
393.285	0.105	786570	keystroke_e	e	n/a
393.63	0.12	787260	keystroke_c	c	n/a
394.0345	0.135	788069	keystroke_Key.space	Key.space	n/a
394.1095	0.15	788219	keystroke_t	t	n/a
394.7545	0.06	789509	keystroke_Key.backspace	Key.backspace	n/a
394.8895	0.105	789779	keystroke_Key.backspace	Key.backspace	n/a
395.0695	0.0895	790139	keystroke_Key.backspace	Key.backspace	n/a
395.37	0.21	790740	keystroke_x	x	n/a
395.864	0.135	791728	keystroke_t	t	n/a
395.9245	0.1205	791849	keystroke_Key.space	Key.space	n/a
396.1355	0.119	792271	keystroke_h	h	n/a
396.27	0.105	792540	keystroke_i	i	n/a
396.5245	0.06	793049	keystroke_m	m	n/a
397.0045	0.12	794009	keystroke_Key.backspace	Key.backspace	n/a
397.2145	0.105	794429	keystroke_Key.backspace	Key.backspace	n/a
397.5	0.0895	795000	keystroke_u	u	n/a
397.725	0.09	795450	keystroke_n	n	n/a
397.9505	0.1045	795901	keystroke_d	d	n/a
398.205	0.1195	796410	keystroke_r	r	n/a
398.2945	0.18	796589	keystroke_e	e	n/a
398.4755	0.1495	796951	keystroke_d	d	n/a
398.58	0.105	797160	keystroke_Key.space	Key.space	n/a
398.715	0.1655	797430	keystroke_a	a	n/a
398.804	0.1065	797608	keystroke_l	l	n/a
399.0155	0.0745	798031	keystroke_i	i	n/a
399.18	0.089	798360	keystroke_k	k	n/a
399.254	0.15	798508	keystroke_e	e	n/a
399.36	0.1045	798720	keystroke_Key.space	Key.space	n/a
399.584	0.1355	799168	keystroke_o	o	n/a
399.8245	0.1345	799649	keystroke_p	p	n/a
400.11	0.12	800220	keystroke_t	t	n/a
400.1695	0.1045	800339	keystroke_i	i	n/a
400.395	0.075	800790	keystroke_m	m	n/a
400.5605	0.1045	801121	keystroke_i	i	n/a
401.415	0.18	802830	keystroke_x	x	n/a
402.0145	0.09	804029	keystroke_Key.backspace	Key.backspace	n/a
402.3895	0.105	804779	keystroke_Key.backspace	Key.backspace	n/a
402.72	0.1645	805440	keystroke_z	z	n/a
403.2445	0.12	806489	keystroke_Key.backspace	Key.backspace	n/a
403.4395	0.1505	806879	keystroke_i	i	n/a
403.6945	0.2405	807389	keystroke_z	z	n/a
403.8745	0.151	807749	keystroke_a	a	n/a
404.235	0.1495	808470	keystroke_t	t	n/a
404.31	0.1345	808620	keystroke_i	i	n/a
404.3995	0.121	808799	keystroke_o	o	n/a
404.6095	0.075	809219	keystroke_n	n	n/a
404.8345	0.045	809669	keystroke_Key.enter	Key.enter	n/a
404.887	8.6195	809774	prompt	n/a	asbestos defend extension sometimes\n
405.6	0.15	811200	keystroke_a	a	n/a
405.764	0.1505	811528	keystroke_s	s	n/a
406.11	0.09	812220	keystroke_b	b	n/a
406.2295	0.1055	812459	keystroke_e	e	n/a
406.395	0.12	812790	keystroke_s	s	n/a
406.5895	0.1195	813179	keystroke_t	t	n/a
406.7395	0.1055	813479	keystroke_o	o	n/a
406.889	0.121	813778	keystroke_r	r	n/a
406.994	0.106	813988	keystroke_Key.space	Key.space	n/a
407.475	0.1205	814950	keystroke_d	d	n/a
408.119	0.091	816238	keystroke_Key.backspace	Key.backspace	n/a
408.315	0.0595	816630	keystroke_Key.backspace	Key.backspace	n/a
408.4495	0.12	816899	keystroke_Key.backspace	Key.backspace	n/a
408.5545	0.12	817109	keystroke_s	s	n/a
408.6755	0.119	817351	keystroke_Key.space	Key.space	n/a
409.17	0.1505	818340	keystroke_d	d	n/a
409.2755	0.1045	818551	keystroke_e	e	n/a
409.4395	0.2405	818879	keystroke_f	f	n/a
409.575	0.165	819150	keystroke_e	e	n/a
409.77	0.0895	819540	keystroke_n	n	n/a
409.9345	0.135	819869	keystroke_d	d	n/a
410.0395	0.09	820079	keystroke_Key.space	Key.space	n/a
410.2795	0.1055	820559	keystroke_e	e	n/a
410.7595	0.15	821519	keystroke_x	x	n/a
411.1345	0.075	822269	keystroke_t	t	n/a
411.33	0.15	822660	keystroke_e	e	n/a
411.4645	0.105	822929	keystroke_n	n	n/a
411.6755	0.164	823351	keystroke_s	s	n/a
411.7345	0.0905	823469	keystroke_i	i	n/a
411.9145	0.12	823829	keystroke_o	o	n/a
412.1255	0.164	824251	keystroke_n	n	n/a
412.2295	0.09	824459	keystroke_Key.space	Key.space	n/a
412.455	0.075	824910	keystroke_o	o	n/a
412.4695	0.076	824939	keystroke_s	s	n/a
412.6205	0.09	825241	keystroke_m	m	n/a
412.6945	0.1505	825389	keystroke_e	e	n/a
412.905	0.1045	825810	keystroke_t	t	n/a
412.935	0.1055	825870	keystroke_i	i	n/a
413.115	0.12	826230	keystroke_m	m	n/a
413.19	0.105	826380	keystroke_e	e	n/a
413.355	0.105	826710	keystroke_s	s	n/a
413.4445	0.06	826889	keystroke_Key.enter	Key.enter	n/a
413.521	12.796	827042	prompt	n/a	financial niagara mightn't hazards\n
414.45	0.165	828900	keystroke_f	f	n/a
414.539	0.091	829078	keystroke_i	i	n/a
414.72	0.09	829440	keystroke_n	n	n/a
414.9	0.075	829800	keystroke_n	n	n/a
414.9595	0.181	829919	keystroke_a	a	n/a
415.394	0.09	830788	keystroke_Key.backspace	Key.backspace	n/a
415.5445	0.1045	831089	keystroke_Key.backspace	Key.backspace	n/a
415.664	0.105	831328	keystroke_a	a	n/a
415.799	0.1655	831598	keystroke_n	n	n/a
416.5495	0.15	833099	keystroke_c	c	n/a
416.6695	0.091	833339	keystroke_i	i	n/a
416.8045	0.1655	833609	keystroke_a	a	n/a
416.9105	0.239	833821	keystroke_l	l	n/a
417.0745	0.1495	834149	keystroke_Key.space	Key.space	n/a
417.345	0.0445	834690	keystroke_n	n	n/a
417.525	0.15	835050	keystroke_i	i	n/a
417.585	0.119	835170	keystroke_a	a	n/a
417.869	0.1215	835738	keystroke_g	g	n/a
418.095	0.1345	836190	keystroke_a	a	n/a
418.245	0.09	836490	keystroke_g	g	n/a
418.3795	0.1045	836759	keystroke_r	r	n/a
418.5	0.165	837000	keystroke_a	a	n/a
419.3395	0.1195	838679	keystroke_Key.space	Key.space	n/a
419.835	0.075	839670	keystroke_m	m	n/a
420.044	0.106	840088	keystroke_i	i	n/a
420.119	0.1205	840238	keystroke_g	g	n/a
420.225	0.119	840450	keystroke_h	h	n/a
420.345	0.134	840690	keystroke_t	t	n/a
422.3405	0.149	844681	keystroke_t	t	n/a
422.5195	0.12	845039	keystroke_n	n	n/a
422.805	0.1055	845610	keystroke_'	'	n/a
423.209	0.135	846418	keystroke_t	t	n/a
423.674	0.105	847348	keystroke_Key.space	Key.space	n/a
424.5745	0.105	849149	keystroke_h	h	n/a
424.6495	0.1955	849299	keystroke_a	a	n/a
425.25	0.15	850500	keystroke_z	z	n/a
425.55	0.135	851100	keystroke_a	a	n/a
425.79	0.105	851580	keystroke_r	r	n/a
426.0445	0.1205	852089	keystroke_d	d	n/a
426.12	0.119	852240	keystroke_s	s	n/a
426.24	0.075	852480	keystroke_Key.enter	Key.enter	n/a
426.33	5.356	852660	prompt	n/a	is nationally postal returns\n
427.1995	0.135	854399	keystroke_i	i	n/a
427.3495	0.105	854699	keystroke_s	s	n/a
427.44	0.09	854880	keystroke_Key.space	Key.space	n/a
427.6045	0.106	855209	keystroke_n	n	n/a
427.6805	0.119	855361	keystroke_a	a	n/a
427.8895	0.12	855779	keystroke_t	t	n/a
427.9645	0.15	855929	keystroke_i	i	n/a
428.055	0.105	856110	keystroke_o	o	n/a
428.2195	0.105	856439	keystroke_n	n	n/a
428.3255	0.1345	856651	keystroke_a	a	n/a
428.43	0.0595	856860	keystroke_l	l	n/a
428.55	0.075	857100	keystroke_l	l	n/a
428.774	0.181	857548	keystroke_y	y	n/a
428.909	0.106	857818	keystroke_Key.space	Key.space	n/a
429.134	0.2705	858268	keystroke_p	p	n/a
429.3005	0.194	858601	keystroke_o	o	n/a
429.33	0.21	858660	keystroke_s	s	n/a
429.585	0.1195	859170	keystroke_t	t	n/a
429.7505	0.2095	859501	keystroke_a	a	n/a
429.9445	0.1655	859889	keystroke_l	l	n/a
430.1395	0.1355	860279	keystroke_Key.space	Key.space	n/a
430.3495	0.15	860699	keystroke_r	r	n/a
430.4395	0.1505	860879	keystroke_e	e	n/a
430.7245	0.18	861449	keystroke_t	t	n/a
430.86	0.1045	861720	keystroke_u	u	n/a
430.92	0.239	861840	keystroke_e	e	n/a
431.1295	0.0905	862259	keystroke_r	r	n/a
431.189	0.105	862378	keystroke_n	n	n/a
431.265	0.18	862530	keystroke_s	s	n/a
431.3995	0.0895	862799	keystroke_Key.space	Key.space	n/a
431.6095	0.0755	863219	keystroke_Key.enter	Key.enter	n/a
431.694	11.6175	863388	prompt	n/a	tragedy suspect independently beside\n
432.5695	0.195	865139	keystroke_t	t	n/a
432.705	0.1355	865410	keystroke_r	r	n/a
433.11	0.015	866220	keystroke_a	a	n/a
433.14	0.09	866280	keystroke_d	d	n/a
433.56	0.135	867120	keystroke_g	g	n/a
433.62	0.151	867240	keystroke_e	e	n/a
433.935	0.074	867870	keystroke_y	y	n/a
433.964	0.151	867928	keystroke_d	d	n/a
434.084	0.151	868168	keystroke_y	y	n/a
434.669	0.165	869338	keystroke_Key.space	Key.space	n/a
435.314	0.09	870628	keystroke_s	s	n/a
435.435	0.105	870870	keystroke_u	u	n/a
435.525	0.1355	871050	keystroke_s	s	n/a
436.1995	0.1655	872399	keystroke_p	p	n/a
436.3495	0.1055	872699	keystroke_e	e	n/a
436.6345	0.135	873269	keystroke_c	c	n/a
436.9045	0.165	873809	keystroke_t	t	n/a
437.0105	0.119	874021	keystroke_Key.space	Key.space	n/a
437.2795	0.09	874559	keystroke_i	i	n/a
437.4445	0.135	874889	keystroke_n	n	n/a
437.76	0.18	875520	keystroke_d	d	n/a
437.8805	0.149	875761	keystroke_e	e	n/a
438.24	0.135	876480	keystroke_p	p	n/a
438.36	0.135	876720	keystroke_e	e	n/a
438.51	0.09	877020	keystroke_n	n	n/a
438.765	0.1345	877530	keystroke_d	d	n/a
438.869	0.15	877738	keystroke_e	e	n/a
438.975	0.1345	877950	keystroke_n	n	n/a
439.1245	0.1355	878249	keystroke_t	t	n/a
439.2745	0.1205	878549	keystroke_l	l	n/a
439.425	0.1795	878850	keystroke_y	y	n/a
439.575	0.1045	879150	keystroke_Key.space	Key.space	n/a
440.58	0.1045	881160	keystroke_b	b	n/a
440.655	0.1045	881310	keystroke_e	e	n/a
440.909	0.0465	881818	keystroke_s	s	n/a
440.9995	0.105	881999	keystroke_t	t	n/a
441.0745	0.12	882149	keystroke_i	i	n/a
441.1795	0.151	882359	keystroke_e	e	n/a
441.8995	0.075	883799	keystroke_Key.backspace	Key.backspace	n/a
442.0645	0.24	884129	keystroke_Key.backspace	Key.backspace	n/a
442.4545	0.15	884909	keystroke_Key.backspace	Key.backspace	n/a
442.7245	0.15	885449	keystroke_s	s	n/a
442.845	0.15	885690	keystroke_i	i	n/a
443.265	0.03	886530	keystroke_e	e	n/a
443.28	0.0295	886560	keystroke_Key.enter	Key.enter	n/a
443.3185	7.478	886637	prompt	n/a	lovely village auctions most\n
444.4955	0.12	888991	keystroke_l	l	n/a
444.7195	0.1355	889439	keystroke_i	i	n/a
444.915	0.165	889830	keystroke_v	v	n/a
445.11	0.15	890220	keystroke_e	e	n/a
445.185	0.15	890370	keystroke_l	l	n/a
445.6055	0.1645	891211	keystroke_y	y	n/a
445.679	0.151	891358	keystroke_Key.space	Key.space	n/a
445.965	0.135	891930	keystroke_v	v	n/a
446.085	0.045	892170	keystroke_i	i	n/a
446.1	0.015	892200	keystroke_o	o	n/a
446.34	0.03	892680	keystroke_l	l	n/a
446.4605	0.119	892921	keystroke_l	l	n/a
446.565	0.1345	893130	keystroke_a	a	n/a
446.7145	0.106	893429	keystroke_g	g	n/a
446.8345	0.15	893669	keystroke_e	e	n/a
446.9245	0.12	893849	keystroke_Key.space	Key.space	n/a
447.885	0.1195	895770	keystroke_a	a	n/a
448.065	0.12	896130	keystroke_c	c	n/a
448.7545	0.105	897509	keystroke_Key.backspace	Key.backspace	n/a
449.0095	0.1055	898019	keystroke_u	u	n/a
449.295	0.12	898590	keystroke_c	c	n/a
449.5655	0.1195	899131	keystroke_t	t	n/a
449.625	0.15	899250	keystroke_i	i	n/a
449.7	0.104	899400	keystroke_o	o	n/a
449.8795	0.1055	899759	keystroke_n	n	n/a
449.97	0.15	899940	keystroke_s	s	n/a
450.06	0.0895	900120	keystroke_Key.space	Key.space	n/a
450.2255	0.09	900451	keystroke_m	m	n/a
450.3905	0.1045	900781	keystroke_o	o	n/a
450.391	0.1195	900782	keystroke_s	s	n/a
450.554	0.151	901108	keystroke_t	t	n/a
450.7195	0.0755	901439	keystroke_Key.enter	Key.enter	n/a
450.802	11.905	901604	prompt	n/a	focusing faqs seeds laboratories\n
452.025	0.135	904050	keystroke_f	f	n/a
452.13	0.105	904260	keystroke_o	o	n/a
452.49	0.105	904980	keystroke_c	c	n/a
452.58	0.12	905160	keystroke_u	u	n/a
452.76	0.18	905520	keystroke_s	s	n/a
452.835	0.09	905670	keystroke_i	i	n/a
452.985	0.105	905970	keystroke_n	n	n/a
453.105	0.15	906210	keystroke_g	g	n/a
453.21	0.12	906420	keystroke_Key.space	Key.space	n/a
453.9295	0.076	907859	keystroke_f	f	n/a
454.2145	0.1355	908429	keystroke_a	a	n/a
454.89	0.12	909780	keystroke_w	w	n/a
455.4	0.135	910800	keystroke_Key.backspace	Key.backspace	n/a
455.5505	0.0595	911101	keystroke_q	q	n/a
455.745	0.164	911490	keystroke_s	s	n/a
455.895	0.134	911790	keystroke_Key.space	Key.space	n/a
456.0905	0.2395	912181	keystroke_s	s	n/a
456.315	0.135	912630	keystroke_e	e	n/a
456.5395	0.1355	913079	keystroke_e	e	n/a
456.914	0.18	913828	keystroke_s	s	n/a
457.3645	0.1355	914729	keystroke_Key.backspace	Key.backspace	n/a
457.4855	0.18	914971	keystroke_d	d	n/a
457.6055	0.135	915211	keystroke_s	s	n/a
457.6955	0.104	915391	keystroke_Key.space	Key.space	n/a
457.9045	0.0905	915809	keystroke_k	k	n/a
457.9795	0.2105	915959	keystroke_a	a	n/a
458.669	0.0905	917338	keystroke_Key.backspace	Key.backspace	n/a
458.82	0.1645	917640	keystroke_Key.backspace	Key.backspace	n/a
459.2405	0.105	918481	keystroke_l	l	n/a
459.3605	0.164	918721	keystroke_a	a	n/a
459.5695	0.09	919139	keystroke_b	b	n/a
459.78	0.1045	919560	keystroke_o	o	n/a
459.9745	0.1045	919949	keystroke_r	r	n/a
460.155	0.135	920310	keystroke_a	a	n/a
460.455	0.09	920910	keystroke_t	t	n/a
461.37	0.1055	922740	keystroke_o	o	n/a
462.165	0.09	924330	keystroke_r	r	n/a
462.24	0.12	924480	keystroke_i	i	n/a
462.33	0.12	924660	keystroke_e	e	n/a
462.525	0.09	925050	keystroke_s	s	n/a
462.645	0.06	925290	keystroke_Key.enter	Key.enter	n/a
462.712	6.4595	925424	prompt	n/a	thinks auto aspect tenant\n
463.455	0.105	926910	keystroke_t	t	n/a
463.5155	0.1495	927031	keystroke_h	h	n/a
463.604	0.106	927208	keystroke_i	i	n/a
463.77	0.09	927540	keystroke_n	n	n/a
463.965	0.09	927930	keystroke_k	k	n/a
464.19	0.0895	928380	keystroke_Key.space	Key.space	n/a
464.3255	0.149	928651	keystroke_s	s	n/a
464.715	0.09	929430	keystroke_Key.backspace	Key.backspace	n/a
464.88	0.105	929760	keystroke_Key.backspace	Key.backspace	n/a
464.955	0.105	929910	keystroke_s	s	n/a
465.075	0.105	930150	keystroke_Key.space	Key.space	n/a
465.165	0.165	930330	keystroke_a	a	n/a
465.3	0.135	930600	keystroke_u	u	n/a
465.5705	0.1345	931141	keystroke_t	t	n/a
465.66	0.1955	931320	keystroke_o	o	n/a
465.734	0.181	931468	keystroke_Key.space	Key.space	n/a
466.155	0.1205	932310	keystroke_a	a	n/a
466.245	0.18	932490	keystroke_s	s	n/a
466.455	0.15	932910	keystroke_p	p	n/a
466.5755	0.134	933151	keystroke_e	e	n/a
466.86	0.1655	933720	keystroke_c	c	n/a
467.1905	0.1495	934381	keystroke_t	t	n/a
467.295	0.134	934590	keystroke_Key.space	Key.space	n/a
467.655	0.105	935310	keystroke_t	t	n/a
467.805	0.134	935610	keystroke_e	e	n/a
467.9105	0.0595	935821	keystroke_n	n	n/a
468.0145	0.135	936029	keystroke_e	e	n/a
468.5095	0.15	937019	keystroke_Key.backspace	Key.backspace	n/a
468.6445	0.106	937289	keystroke_a	a	n/a
468.81	0.1045	937620	keystroke_n	n	n/a
468.8845	0.1205	937769	keystroke_t	t	n/a
469.11	0.0595	938220	keystroke_Key.enter	Key.enter	n/a
469.1765	6.5045	938353	prompt	n/a	partnerships warrant rich snowboard\n
470.19	0.074	940380	keystroke_p	p	n/a
470.25	0.15	940500	keystroke_a	a	n/a
470.4305	0.0885	940861	keystroke_r	r	n/a
470.6255	0.104	941251	keystroke_t	t	n/a
470.76	0.075	941520	keystroke_n	n	n/a
470.82	0.18	941640	keystroke_e	e	n/a
470.91	0.12	941820	keystroke_r	r	n/a
471.1655	0.149	942331	keystroke_s	s	n/a
471.255	0.1195	942510	keystroke_h	h	n/a
471.3445	0.106	942689	keystroke_i	i	n/a
471.5845	0.106	943169	keystroke_p	p	n/a
471.66	0.15	943320	keystroke_s	s	n/a
471.765	0.12	943530	keystroke_Key.space	Key.space	n/a
471.9595	0.12	943919	keystroke_w	w	n/a
472.1245	0.136	944249	keystroke_a	a	n/a
472.35	0.0295	944700	keystroke_r	r	n/a
472.485	0.105	944970	keystroke_r	r	n/a
472.62	0.165	945240	keystroke_a	a	n/a
472.77	0.075	945540	keystroke_n	n	n/a
472.89	0.135	945780	keystroke_t	t	n/a
472.98	0.1195	945960	keystroke_Key.space	Key.space	n/a
473.1755	0.149	946351	keystroke_r	r	n/a
473.2655	0.12	946531	keystroke_i	i	n/a
473.4595	0.1955	946919	keystroke_c	c	n/a
473.535	0.1805	947070	keystroke_h	h	n/a
473.64	0.1195	947280	keystroke_Key.space	Key.space	n/a
473.88	0.195	947760	keystroke_s	s	n/a
473.9995	0.061	947999	keystroke_n	n	n/a
474.1655	0.1045	948331	keystroke_o	o	n/a
474.2995	0.21	948599	keystroke_w	w	n/a
474.7195	0.0905	949439	keystroke_b	b	n/a
474.9145	0.1505	949829	keystroke_o	o	n/a
475.0045	0.1805	950009	keystroke_a	a	n/a
475.26	0.0895	950520	keystroke_r	r	n/a
475.485	0.12	950970	keystroke_d	d	n/a
475.62	0.0595	951240	keystroke_Key.enter	Key.enter	n/a
475.6865	7.63	951373	prompt	n/a	days dealt focus must\n
476.5045	0.1955	953009	keystroke_s	s	n/a
476.865	0.1945	953730	keystroke_a	a	n/a
476.88	0.1045	953760	keystroke_d	d	n/a
477.0155	0.1345	954031	keystroke_y	y	n/a
477.1795	0.24	954359	keystroke_d	d	n/a
477.3295	0.1205	954659	keystroke_Key.space	Key.space	n/a
477.3895	0.151	954779	keystroke_s	s	n/a
478.6345	0.135	957269	keystroke_Key.backspace	Key.backspace	n/a
478.8145	0.15	957629	keystroke_d	d	n/a
478.8895	0.1205	957779	keystroke_e	e	n/a
479.07	0.15	958140	keystroke_a	a	n/a
479.175	0.12	958350	keystroke_l	l	n/a
479.4305	0.15	958861	keystroke_t	t	n/a
479.6095	0.121	959219	keystroke_h	h	n/a
480.51	0.09	961020	keystroke_Key.backspace	Key.backspace	n/a
480.809	0.106	961618	keystroke_Key.space	Key.space	n/a
481.5895	0.12	963179	keystroke_f	f	n/a
481.6645	0.0905	963329	keystroke_o	o	n/a
482.055	0.18	964110	keystroke_c	c	n/a
482.205	0.105	964410	keystroke_u	u	n/a
482.355	0.195	964710	keystroke_s	s	n/a
482.459	0.121	964918	keystroke_Key.space	Key.space	n/a
482.715	0.09	965430	keystroke_m	m	n/a
482.91	0.105	965820	keystroke_u	u	n/a
482.94	0.105	965880	keystroke_s	s	n/a
483.21	0.0445	966420	keystroke_t	t	n/a
483.2695	0.045	966539	keystroke_Key.enter	Key.enter	n/a
483.321	10.915	966642	prompt	n/a	movies creation internationally psychology\n
484.3495	0.075	968699	keystroke_m	m	n/a
484.5295	0.1205	969059	keystroke_o	o	n/a
484.665	0.1195	969330	keystroke_v	v	n/a
484.8305	0.074	969661	keystroke_i	i	n/a
484.8755	0.134	969751	keystroke_e	e	n/a
485.0845	0.15	970169	keystroke_s	s	n/a
485.2195	0.105	970439	keystroke_Key.space	Key.space	n/a
485.5355	0.104	971071	keystroke_c	c	n/a
485.8955	0.075	971791	keystroke_r	r	n/a
485.9255	0.1495	971851	keystroke_e	e	n/a
486.15	0.104	972300	keystroke_a	a	n/a
486.36	0.149	972720	keystroke_t	t	n/a
486.5245	0.1355	973049	keystroke_i	i	n/a
486.645	0.119	973290	keystroke_o	o	n/a
486.855	0.135	973710	keystroke_n	n	n/a
486.914	0.105	973828	keystroke_Key.space	Key.space	n/a
487.1555	0.074	974311	keystroke_i	i	n/a
487.305	0.1355	974610	keystroke_n	n	n/a
487.41	0.09	974820	keystroke_t	t	n/a
487.5605	0.179	975121	keystroke_e	e	n/a
487.6505	0.119	975301	keystroke_r	r	n/a
487.725	0.1195	975450	keystroke_n	n	n/a
487.8295	0.106	975659	keystroke_a	a	n/a
488.0255	0.164	976051	keystroke_t	t	n/a
488.0705	0.09	976141	keystroke_i	i	n/a
488.2045	0.105	976409	keystroke_o	o	n/a
488.504	0.0455	977008	keystroke_n	n	n/a
488.64	0.045	977280	keystroke_n	n	n/a
489.0295	0.12	978059	keystroke_Key.backspace	Key.backspace	n/a
489.1645	0.1205	978329	keystroke_a	a	n/a
489.316	0.044	978632	keystroke_k	k	n/a
489.75	0.135	979500	keystroke_l	l	n/a
490.29	0.075	980580	keystroke_l	l	n/a
490.785	0.09	981570	keystroke_Key.backspace	Key.backspace	n/a
491.0705	0.1645	982141	keystroke_u	u	n/a
491.2795	0.1355	982559	keystroke_Key.space	Key.space	n/a
491.5655	0.09	983131	keystroke_s	s	n/a
491.5955	0.134	983191	keystroke_p	p	n/a
492.93	0.135	985860	keystroke_y	y	n/a
493.23	0.165	986460	keystroke_c	c	n/a
493.3055	0.0595	986611	keystroke_h	h	n/a
493.485	0.045	986970	keystroke_o	o	n/a
493.6205	0.0595	987241	keystroke_l	l	n/a
493.755	0.1055	987510	keystroke_o	o	n/a
493.845	0.09	987690	keystroke_g	g	n/a
493.9505	0.0745	987901	keystroke_y	y	n/a
494.19	0.045	988380	keystroke_Key.enter	Key.enter	n/a
494.2435	6.4885	988487	prompt	n/a	likes placing equations besides\n
495.075	0.075	990150	keystroke_l	l	n/a
495.27	0.045	990540	keystroke_i	i	n/a
495.42	0.075	990840	keystroke_k	k	n/a
495.48	0.105	990960	keystroke_e	e	n/a
495.675	0.1195	991350	keystroke_s	s	n/a
495.75	0.075	991500	keystroke_Key.space	Key.space	n/a
495.8995	0.091	991799	keystroke_p	p	n/a
496.1255	0.1195	992251	keystroke_l	l	n/a
496.23	0.15	992460	keystroke_a	a	n/a
496.38	0.21	992760	keystroke_c	c	n/a
496.5755	0.0745	993151	keystroke_i	i	n/a
496.7555	0.0745	993511	keystroke_n	n	n/a
496.8455	0.1045	993691	keystroke_g	g	n/a
496.934	0.076	993868	keystroke_Key.space	Key.space	n/a
497.445	0.0755	994890	keystroke_e	e	n/a
497.88	0.135	995760	keystroke_q	q	n/a
498.106	0.104	996212	keystroke_u	u	n/a
498.195	0.1655	996390	keystroke_a	a	n/a
498.4805	0.1195	996961	keystroke_t	t	n/a
498.555	0.12	997110	keystroke_i	i	n/a
498.63	0.1055	997260	keystroke_o	o	n/a
498.84	0.075	997680	keystroke_n	n	n/a
498.885	0.15	997770	keystroke_s	s	n/a
499.02	0.075	998040	keystroke_Key.space	Key.space	n/a
499.169	0.106	998338	keystroke_b	b	n/a
499.2305	0.1345	998461	keystroke_e	e	n/a
499.6055	0.119	999211	keystroke_d	d	n/a
499.6945	0.1205	999389	keystroke_i	i	n/a
499.83	0.1505	999660	keystroke_s	s	n/a
500.265	0.12	1000530	keystroke_e	e	n/a
500.49	0.1195	1000980	keystroke_d	d	n/a
500.6545	0.075	1001309	keystroke_Key.enter	Key.enter	n/a
500.7415	8.63	1001483	prompt	n/a	residents files withdrawal poker\n
502.4105	0.09	1004821	keystroke_r	r	n/a
502.4695	0.121	1004939	keystroke_e	e	n/a
502.6805	0.09	1005361	keystroke_s	s	n/a
503.43	0.0905	1006860	keystroke_i	i	n/a
503.595	0.1795	1007190	keystroke_d	d	n/a
503.7155	0.1795	1007431	keystroke_e	e	n/a
503.82	0.106	1007640	keystroke_n	n	n/a
503.985	0.105	1007970	keystroke_t	t	n/a
504.1505	0.1495	1008301	keystroke_s	s	n/a
504.24	0.1055	1008480	keystroke_Key.space	Key.space	n/a
504.495	0.18	1008990	keystroke_f	f	n/a
504.57	0.09	1009140	keystroke_i	i	n/a
504.765	0.105	1009530	keystroke_l	l	n/a
505.2155	0.1195	1010431	keystroke_e	e	n/a
505.395	0.165	1010790	keystroke_s	s	n/a
505.53	0.12	1011060	keystroke_Key.space	Key.space	n/a
505.815	0.1505	1011630	keystroke_w	w	n/a
505.936	0.1035	1011872	keystroke_i	i	n/a
506.0695	0.151	1012139	keystroke_t	t	n/a
506.1745	0.091	1012349	keystroke_h	h	n/a
506.52	0.1045	1013040	keystroke_d	d	n/a
506.76	0.0905	1013520	keystroke_r	r	n/a
506.881	0.1495	1013762	keystroke_a	a	n/a
507.1045	0.256	1014209	keystroke_w	w	n/a
507.915	0.1505	1015830	keystroke_a	a	n/a
507.99	0.1795	1015980	keystroke_l	l	n/a
508.1395	0.091	1016279	keystroke_Key.space	Key.space	n/a
508.3355	0.195	1016671	keystroke_p	p	n/a
508.4545	0.121	1016909	keystroke_o	o	n/a
508.6805	0.105	1017361	keystroke_k	k	n/a
508.7555	0.135	1017511	keystroke_e	e	n/a
509.1305	0.1345	1018261	keystroke_r	r	n/a
509.2795	0.091	1018559	keystroke_Key.enter	Key.enter	n/a
509.379	6.9565	1018758	prompt	n/a	roberts pair driven roland\n
510.3905	0.1195	1020781	keystroke_r	r	n/a
510.4355	0.1195	1020871	keystroke_o	o	n/a
510.6595	0.09	1021319	keystroke_b	b	n/a
510.735	0.1945	1021470	keystroke_e	e	n/a
510.8255	0.1345	1021651	keystroke_r	r	n/a
511.0795	0.1065	1022159	keystroke_t	t	n/a
511.2305	0.1505	1022461	keystroke_s	s	n/a
511.3195	0.0905	1022639	keystroke_Key.space	Key.space	n/a
511.53	0.12	1023060	keystroke_p	p	n/a
511.651	0.1645	1023302	keystroke_a	a	n/a
511.8905	0.15	1023781	keystroke_r	r	n/a
512.0405	0.12	1024081	keystroke_i	i	n/a
512.6995	0.045	1025399	keystroke_Key.backspace	Key.backspace	n/a
512.85	0.045	1025700	keystroke_Key.backspace	Key.backspace	n/a
513.015	0.105	1026030	keystroke_i	i	n/a
513.1795	0.1215	1026359	keystroke_r	r	n/a
513.465	0.105	1026930	keystroke_Key.space	Key.space	n/a
513.975	0.0905	1027950	keystroke_d	d	n/a
514.185	0.105	1028370	keystroke_r	r	n/a
514.305	0.12	1028610	keystroke_i	i	n/a
514.44	0.1805	1028880	keystroke_v	v	n/a
514.725	0.165	1029450	keystroke_e	e	n/a
514.845	0.165	1029690	keystroke_n	n	n/a
514.935	0.1195	1029870	keystroke_Key.space	Key.space	n/a
515.2055	0.1195	1030411	keystroke_r	r	n/a
515.2805	0.075	1030561	keystroke_o	o	n/a
515.445	0.105	1030890	keystroke_l	l	n/a
515.58	0.1345	1031160	keystroke_a	a	n/a
515.6995	0.046	1031399	keystroke_n	n	n/a
516.105	0.135	1032210	keystroke_d	d	n/a
516.27	0.06	1032540	keystroke_Key.enter	Key.enter	n/a
516.34	11.9165	1032680	prompt	n/a	deutsche cameron synopsis regulation\n
518.6275	0.073	1037255	keystroke_d	d	n/a
518.6395	0.1955	1037279	keystroke_e	e	n/a
518.82	0.105	1037640	keystroke_u	u	n/a
519.6905	0.1045	1039381	keystroke_t	t	n/a
519.975	0.1655	1039950	keystroke_s	s	n/a
520.38	0.165	1040760	keystroke_c	c	n/a
520.5	0.12	1041000	keystroke_h	h	n/a
520.6655	0.135	1041331	keystroke_e	e	n/a
520.875	0.09	1041750	keystroke_Key.space	Key.space	n/a
521.4	0.1495	1042800	keystroke_s	s	n/a
522.105	0.12	1044210	keystroke_Key.backspace	Key.backspace	n/a
522.24	0.1655	1044480	keystroke_c	c	n/a
522.3445	0.166	1044689	keystroke_a	a	n/a
522.4805	0.1345	1044961	keystroke_m	m	n/a
522.615	0.1505	1045230	keystroke_e	e	n/a
522.72	0.1645	1045440	keystroke_r	r	n/a
522.855	0.0905	1045710	keystroke_o	o	n/a
523.0505	0.1795	1046101	keystroke_n	n	n/a
523.17	0.12	1046340	keystroke_Key.space	Key.space	n/a
523.5755	0.1195	1047151	keystroke_s	s	n/a
523.95	0.105	1047900	keystroke_y	y	n/a
524.191	0.09	1048382	keystroke_n	n	n/a
524.4605	0.1055	1048921	keystroke_o	o	n/a
524.835	0.1055	1049670	keystroke_p	p	n/a
525.6905	0.104	1051381	keystroke_s	s	n/a
525.78	0.1055	1051560	keystroke_i	i	n/a
525.9305	0.1645	1051861	keystroke_s	s	n/a
526.0955	0.0895	1052191	keystroke_Key.space	Key.space	n/a
526.7395	0.1215	1053479	keystroke_r	r	n/a
526.7845	0.151	1053569	keystroke_e	e	n/a
527.01	0.1355	1054020	keystroke_g	g	n/a
527.16	0.105	1054320	keystroke_u	u	n/a
527.4	0.12	1054800	keystroke_l	l	n/a
527.4905	0.0745	1054981	keystroke_a	a	n/a
527.685	0.1055	1055370	keystroke_t	t	n/a
527.7	0.135	1055400	keystroke_i	i	n/a
527.8055	0.1045	1055611	keystroke_o	o	n/a
527.9855	0.0745	1055971	keystroke_n	n	n/a
528.21	0.045	1056420	keystroke_Key.enter	Key.enter	n/a
528.263	6.1435	1056526	prompt	n/a	bool beds rally medicines\n
528.9455	0.09	1057891	keystroke_b	b	n/a
529.17	0.045	1058340	keystroke_o	o	n/a
529.7845	0.106	1059569	keystroke_o	o	n/a
530.026	0.1635	1060052	keystroke_l	l	n/a
530.2045	0.0905	1060409	keystroke_Key.space	Key.space	n/a
530.3855	0.104	1060771	keystroke_b	b	n/a
530.4905	0.119	1060981	keystroke_e	e	n/a
530.8055	0.119	1061611	keystroke_d	d	n/a
530.9845	0.1505	1061969	keystroke_s	s	n/a
531.1195	0.1205	1062239	keystroke_Key.space	Key.space	n/a
531.466	0.105	1062932	keystroke_r	r	n/a
531.63	0.165	1063260	keystroke_a	a	n/a
531.705	0.075	1063410	keystroke_l	l	n/a
531.8555	0.0745	1063711	keystroke_l	l	n/a
532.0955	0.1645	1064191	keystroke_y	y	n/a
532.215	0.105	1064430	keystroke_Key.space	Key.space	n/a
532.5155	0.104	1065031	keystroke_m	m	n/a
532.605	0.061	1065210	keystroke_e	e	n/a
532.755	0.1645	1065510	keystroke_d	d	n/a
532.8745	0.12	1065749	keystroke_i	i	n/a
533.7605	0.135	1067521	keystroke_c	c	n/a
533.8655	0.06	1067731	keystroke_i	i	n/a
534.0145	0.091	1068029	keystroke_n	n	n/a
534.0755	0.09	1068151	keystroke_e	e	n/a
534.2555	0.12	1068511	keystroke_s	s	n/a
534.3605	0.044	1068721	keystroke_Key.enter	Key.enter	n/a
534.4135	7.598	1068827	prompt	n/a	spelling instant electron edition\n
535.1705	0.149	1070341	keystroke_e	e	n/a
535.725	0.105	1071450	keystroke_Key.backspace	Key.backspace	n/a
535.8755	0.1345	1071751	keystroke_s	s	n/a
535.9655	0.135	1071931	keystroke_p	p	n/a
536.1155	0.135	1072231	keystroke_e	e	n/a
536.2205	0.075	1072441	keystroke_l	l	n/a
536.4005	0.06	1072801	keystroke_l	l	n/a
536.565	0.105	1073130	keystroke_i	i	n/a
536.731	0.089	1073462	keystroke_n	n	n/a
536.806	0.119	1073612	keystroke_g	g	n/a
536.926	0.029	1073852	keystroke_Key.space	Key.space	n/a
537.105	0.06	1074210	keystroke_i	i	n/a
537.2405	0.1205	1074481	keystroke_n	n	n/a
537.3455	0.105	1074691	keystroke_s	s	n/a
537.541	0.0895	1075082	keystroke_t	t	n/a
537.676	0.134	1075352	keystroke_a	a	n/a
537.78	0.1045	1075560	keystroke_n	n	n/a
537.8695	0.136	1075739	keystroke_t	t	n/a
537.975	0.1205	1075950	keystroke_Key.space	Key.space	n/a
538.2455	0.1055	1076491	keystroke_e	e	n/a
538.3355	0.1045	1076671	keystroke_l	l	n/a
538.4245	0.106	1076849	keystroke_e	e	n/a
538.6655	0.1495	1077331	keystroke_c	c	n/a
538.9655	0.165	1077931	keystroke_t	t	n/a
539.0705	0.18	1078141	keystroke_r	r	n/a
539.236	0.1345	1078472	keystroke_o	o	n/a
539.9245	0.18	1079849	keystroke_n	n	n/a
540.0745	0.105	1080149	keystroke_Key.space	Key.space	n/a
540.3745	0.1355	1080749	keystroke_e	e	n/a
540.66	0.1655	1081320	keystroke_d	d	n/a
541.066	0.149	1082132	keystroke_i	i	n/a
541.35	0.165	1082700	keystroke_t	t	n/a
541.4705	0.1495	1082941	keystroke_i	i	n/a
541.53	0.1355	1083060	keystroke_o	o	n/a
541.725	0.0895	1083450	keystroke_n	n	n/a
541.9645	0.0455	1083929	keystroke_Key.enter	Key.enter	n/a
542.019	7.223	1084038	prompt	n/a	pulse marco anatomy pontiac\n
542.8805	0.105	1085761	keystroke_p	p	n/a
543.0305	0.12	1086061	keystroke_u	u	n/a
543.2855	0.104	1086571	keystroke_l	l	n/a
543.496	0.1195	1086992	keystroke_s	s	n/a
543.6895	0.181	1087379	keystroke_e	e	n/a
543.8395	0.105	1087679	keystroke_Key.space	Key.space	n/a
544.4995	0.136	1088999	keystroke_m	m	n/a
544.6055	0.12	1089211	keystroke_a	a	n/a
544.8595	0.106	1089719	keystroke_c	c	n/a
545.145	0.1505	1090290	keystroke_r	r	n/a
545.25	0.21	1090500	keystroke_o	o	n/a
545.385	0.12	1090770	keystroke_Key.space	Key.space	n/a
545.685	0.09	1091370	keystroke_a	a	n/a
545.776	0.075	1091552	keystroke_n	n	n/a
545.851	0.149	1091702	keystroke_a	a	n/a
546.1805	0.135	1092361	keystroke_t	t	n/a
546.2555	0.075	1092511	keystroke_o	o	n/a
546.4495	0.0605	1092899	keystroke_m	m	n/a
546.7205	0.12	1093441	keystroke_y	y	n/a
546.8095	0.1055	1093619	keystroke_Key.space	Key.space	n/a
547.11	0.1655	1094220	keystroke_p	p	n/a
547.545	0.09	1095090	keystroke_n	n	n/a
547.7855	0.1055	1095571	keystroke_t	t	n/a
548.13	0.1655	1096260	keystroke_o	o	n/a
548.37	0.135	1096740	keystroke_a	a	n/a
548.565	0.15	1097130	keystroke_c	c	n/a
548.8645	0.1665	1097729	keystroke_e	e	n/a
549.0895	0.15	1098179	keystroke_Key.enter	Key.enter	n/a
549.2465	7.6	1098493	prompt	n/a	pilot bosnia clocks shopzilla\n
550.4105	0.179	1100821	keystroke_p	p	n/a
550.56	0.06	1101120	keystroke_i	i	n/a
550.7855	0.0895	1101571	keystroke_l	l	n/a
550.965	0.1205	1101930	keystroke_o	o	n/a
551.0995	0.121	1102199	keystroke_t	t	n/a
551.1905	0.105	1102381	keystroke_Key.space	Key.space	n/a
551.4155	0.0895	1102831	keystroke_b	b	n/a
551.5805	0.1195	1103161	keystroke_o	o	n/a
551.6705	0.15	1103341	keystroke_s	s	n/a
551.79	0.105	1103580	keystroke_n	n	n/a
551.97	0.135	1103940	keystroke_i	i	n/a
552.24	0.045	1104480	keystroke_e	e	n/a
552.675	0.135	1105350	keystroke_Key.backspace	Key.backspace	n/a
552.825	0.15	1105650	keystroke_a	a	n/a
552.915	0.1505	1105830	keystroke_Key.space	Key.space	n/a
553.335	0.105	1106670	keystroke_c	c	n/a
553.381	0.0745	1106762	keystroke_l	l	n/a
553.56	0.09	1107120	keystroke_o	o	n/a
553.665	0.1205	1107330	keystroke_c	c	n/a
553.74	0.12	1107480	keystroke_k	k	n/a
553.89	0.135	1107780	keystroke_s	s	n/a
553.98	0.12	1107960	keystroke_Key.space	Key.space	n/a
554.6105	0.12	1109221	keystroke_s	s	n/a
554.955	0.06	1109910	keystroke_h	h	n/a
555.135	0.06	1110270	keystroke_o	o	n/a
555.315	0.09	1110630	keystroke_p	p	n/a
556.0505	0.1945	1112101	keystroke_z	z	n/a
556.2	0.091	1112400	keystroke_i	i	n/a
556.41	0.045	1112820	keystroke_l	l	n/a
556.531	0.119	1113062	keystroke_l	l	n/a
556.665	0.1355	1113330	keystroke_a	a	n/a
556.77	0.075	1113540	keystroke_Key.enter	Key.enter	n/a
556.8505	13.076	1113701	prompt	n/a	registrar entertaining period ronald\n
561.3465	0.0435	1122693	keystroke_r	r	n/a
561.405	0.0605	1122810	keystroke_e	e	n/a
561.946	0.1195	1123892	keystroke_g	g	n/a
562.0505	0.104	1124101	keystroke_i	i	n/a
562.1695	0.151	1124339	keystroke_s	s	n/a
562.606	0.15	1125212	keystroke_t	t	n/a
562.816	0.12	1125632	keystroke_r	r	n/a
563.0705	0.135	1126141	keystroke_a	a	n/a
563.4755	0.165	1126951	keystroke_r	r	n/a
563.6555	0.12	1127311	keystroke_Key.space	Key.space	n/a
563.806	0.1495	1127612	keystroke_e	e	n/a
563.9105	0.105	1127821	keystroke_n	n	n/a
564.06	0.1055	1128120	keystroke_t	t	n/a
564.1955	0.2105	1128391	keystroke_e	e	n/a
564.3	0.136	1128600	keystroke_r	r	n/a
564.931	0.105	1129862	keystroke_t	t	n/a
565.1105	0.1945	1130221	keystroke_a	a	n/a
565.17	0.1055	1130340	keystroke_i	i	n/a
565.35	0.075	1130700	keystroke_n	n	n/a
565.501	0.09	1131002	keystroke_i	i	n/a
565.681	0.105	1131362	keystroke_n	n	n/a
565.7405	0.1195	1131481	keystroke_g	g	n/a
566.355	0.1205	1132710	keystroke_Key.space	Key.space	n/a
566.58	0.15	1133160	keystroke_p	p	n/a
566.715	0.15	1133430	keystroke_e	e	n/a
