onset	duration	sample	value	key	prompt_text
6.3025	15.993	12605	prompt	n/a	the quick brown fox jumps over a lazy dog\n
10.2345	0.001	20469	keystroke_t	t	n/a
10.2615	0.045	20523	keystroke_h	h	n/a
10.3365	0.105	20673	keystroke_e	e	n/a
10.4565	0.1055	20913	keystroke_Key.space	Key.space	n/a
10.8615	0.105	21723	keystroke_q	q	n/a
10.9515	0.045	21903	keystroke_u	u	n/a
11.0865	0.0755	22173	keystroke_i	i	n/a
11.2365	0.075	22473	keystroke_c	c	n/a
11.3265	0.06	22653	keystroke_k	k	n/a
11.9415	0.06	23883	keystroke_Key.space	Key.space	n/a
12.2565	0.06	24513	keystroke_b	b	n/a
12.6315	0.09	25263	keystroke_r	r	n/a
12.7215	0.1055	25443	keystroke_o	o	n/a
12.857	0.105	25714	keystroke_w	w	n/a
13.4265	0.075	26853	keystroke_n	n	n/a
13.6665	0.105	27333	keystroke_Key.space	Key.space	n/a
13.8465	0.105	27693	keystroke_f	f	n/a
13.9215	0.09	27843	keystroke_o	o	n/a
14.1015	0.135	28203	keystroke_x	x	n/a
14.2515	0.12	28503	keystroke_Key.space	Key.space	n/a
14.4015	0.075	28803	keystroke_j	j	n/a
14.5965	0.045	29193	keystroke_u	u	n/a
14.7615	0.075	29523	keystroke_m	m	n/a
14.9415	0.045	29883	keystroke_p	p	n/a
15.0465	0.105	30093	keystroke_s	s	n/a
15.1965	0.135	30393	keystroke_Key.space	Key.space	n/a
15.9015	0.12	31803	keystroke_o	o	n/a
16.0515	0.06	32103	keystroke_v	v	n/a
16.1565	0.15	32313	keystroke_e	e	n/a
16.2315	0.105	32463	keystroke_r	r	n/a
16.3215	0.105	32643	keystroke_Key.space	Key.space	n/a
16.5915	0.12	33183	keystroke_a	a	n/a
16.6815	0.09	33363	keystroke_Key.space	Key.space	n/a
16.8325	0.104	33665	keystroke_l	l	n/a
17.0115	0.135	34023	keystroke_z	z	n/a
17.1315	0.075	34263	keystroke_y	y	n/a
17.2965	0.12	34593	keystroke_Key.space	Key.space	n/a
17.642	0.105	35284	keystroke_d	d	n/a
17.732	0.12	35464	keystroke_o	o	n/a
17.867	0.075	35734	keystroke_g	g	n/a
18.917	0.09	37834	keystroke_Key.backspace	Key.backspace	n/a
19.112	0.09	38224	keystroke_Key.backspace	Key.backspace	n/a
19.292	0.104	38584	keystroke_Key.backspace	Key.backspace	n/a
19.592	0.015	39184	keystroke_Key.backspace	Key.backspace	n/a
19.682	0.105	39364	keystroke_Key.backspace	Key.backspace	n/a
19.952	0.09	39904	keystroke_Key.backspace	Key.backspace	n/a
20.2215	0.0905	40443	keystroke_a	a	n/a
20.5215	0.135	41043	keystroke_z	z	n/a
20.6415	0.06	41283	keystroke_y	y	n/a
21.2715	0.09	42543	keystroke_Key.space	Key.space	n/a
21.4665	0.09	42933	keystroke_d	d	n/a
21.5115	0.105	43023	keystroke_o	o	n/a
21.6765	0.075	43353	keystroke_g	g	n/a
22.2165	0.075	44433	keystroke_Key.enter	Key.enter	n/a
22.3015	17.347	44603	prompt	n/a	compressed settled quiet allowance\n
30.9045	0.042	61809	keystroke_c	c	n/a
32.7015	0.0605	65403	keystroke_o	o	n/a
33.2715	0.0905	66543	keystroke_m	m	n/a
33.527	0.0145	67054	keystroke_p	p	n/a
33.6165	0.15	67233	keystroke_r	r	n/a
33.6915	0.09	67383	keystroke_e	e	n/a
33.932	0.045	67864	keystroke_s	s	n/a
34.0515	0.1355	68103	keystroke_s	s	n/a
34.1715	0.045	68343	keystroke_e	e	n/a
34.3215	0.1055	68643	keystroke_d	d	n/a
34.4415	0.0905	68883	keystroke_Key.space	Key.space	n/a
34.6365	0.135	69273	keystroke_s	s	n/a
34.9665	0.1205	69933	keystroke_e	e	n/a
35.4615	0.045	70923	keystroke_t	t	n/a
35.5815	0.09	71163	keystroke_t	t	n/a
35.687	0.1045	71374	keystroke_l	l	n/a
35.762	0.0745	71524	keystroke_e	e	n/a
35.957	0.1045	71914	keystroke_d	d	n/a
36.0615	0.12	72123	keystroke_Key.space	Key.space	n/a
36.2715	0.1505	72543	keystroke_q	q	n/a
36.3615	0.0455	72723	keystroke_u	u	n/a
36.4965	0.0905	72993	keystroke_i	i	n/a
36.632	0.0445	73264	keystroke_e	e	n/a
37.1715	0.075	74343	keystroke_t	t	n/a
37.3065	0.135	74613	keystroke_Key.space	Key.space	n/a
37.9965	0.15	75993	keystroke_a	a	n/a
38.1315	0.075	76263	keystroke_l	l	n/a
38.2665	0.075	76533	keystroke_l	l	n/a
38.4465	0.09	76893	keystroke_o	o	n/a
38.5065	0.12	77013	keystroke_w	w	n/a
38.7615	0.135	77523	keystroke_a	a	n/a
38.8515	0.105	77703	keystroke_n	n	n/a
39.0165	0.06	78033	keystroke_c	c	n/a
39.1815	0.105	78363	keystroke_e	e	n/a
39.5415	0.105	79083	keystroke_Key.enter	Key.enter	n/a
39.6545	7.945	79309	prompt	n/a	july belarus attention aside\n
40.2015	0.075	80403	keystroke_j	j	n/a
40.3815	0.045	80763	keystroke_u	u	n/a
40.4715	0.135	80943	keystroke_s	s	n/a
41.4315	0.06	82863	keystroke_Key.backspace	Key.backspace	n/a
41.7015	0.09	83403	keystroke_l	l	n/a
41.9115	0.045	83823	keystroke_y	y	n/a
42.1515	0.12	84303	keystroke_Key.space	Key.space	n/a
42.4215	0.045	84843	keystroke_b	b	n/a
43.5615	0.045	87123	keystroke_e	e	n/a
43.9965	0.15	87993	keystroke_l	l	n/a
44.2665	0.18	88533	keystroke_a	a	n/a
44.4915	0.105	88983	keystroke_r	r	n/a
44.5815	0.075	89163	keystroke_u	u	n/a
44.7165	0.12	89433	keystroke_s	s	n/a
44.8215	0.12	89643	keystroke_Key.space	Key.space	n/a
45.0615	0.195	90123	keystroke_a	a	n/a
45.3465	0.06	90693	keystroke_t	t	n/a
45.4815	0.075	90963	keystroke_t	t	n/a
45.5715	0.105	91143	keystroke_e	e	n/a
45.6915	0.09	91383	keystroke_n	n	n/a
45.9015	0.12	91803	keystroke_t	t	n/a
45.9915	0.075	91983	keystroke_i	i	n/a
46.1115	0.18	92223	keystroke_o	o	n/a
46.2765	0.105	92553	keystroke_n	n	n/a
46.6065	0.105	93213	keystroke_Key.space	Key.space	n/a
46.7715	0.12	93543	keystroke_a	a	n/a
46.9965	0.12	93993	keystroke_s	s	n/a
47.0565	0.105	94113	keystroke_i	i	n/a
47.1915	0.06	94383	keystroke_d	d	n/a
47.3565	0.105	94713	keystroke_e	e	n/a
47.4765	0.12	94953	keystroke_Key.enter	Key.enter	n/a
47.604	10.165	95208	prompt	n/a	stuff resolved conferencing external\n
48.3315	0.165	96663	keystroke_s	s	n/a
48.6315	0.075	97263	keystroke_t	t	n/a
48.7965	0.075	97593	keystroke_u	u	n/a
49.1265	0.045	98253	keystroke_f	f	n/a
49.2765	0.06	98553	keystroke_f	f	n/a
49.3815	0.135	98763	keystroke_Key.space	Key.space	n/a
49.7265	0.12	99453	keystroke_r	r	n/a
49.8015	0.075	99603	keystroke_e	e	n/a
50.0265	0.105	100053	keystroke_s	s	n/a
50.1015	0.075	100203	keystroke_o	o	n/a
50.2965	0.105	100593	keystroke_l	l	n/a
50.4315	0.09	100863	keystroke_v	v	n/a
50.5665	0.105	101133	keystroke_e	e	n/a
50.8065	0.105	101613	keystroke_d	d	n/a
50.8965	0.09	101793	keystroke_Key.space	Key.space	n/a
51.2415	0.12	102483	keystroke_c	c	n/a
51.3165	0.12	102633	keystroke_o	o	n/a
51.4665	0.09	102933	keystroke_n	n	n/a
51.6315	0.09	103263	keystroke_f	f	n/a
51.8115	0.135	103623	keystroke_e	e	n/a
52.0065	0.12	104013	keystroke_r	r	n/a
52.0815	0.12	104163	keystroke_e	e	n/a
52.3965	0.06	104793	keystroke_c	c	n/a
54.0165	0.09	108033	keystroke_Key.backspace	Key.backspace	n/a
54.3015	0.105	108603	keystroke_n	n	n/a
54.6315	0.075	109263	keystroke_c	c	n/a
54.7515	0.075	109503	keystroke_i	i	n/a
54.9615	0.09	109923	keystroke_n	n	n/a
55.0365	0.105	110073	keystroke_g	g	n/a
55.1565	0.09	110313	keystroke_Key.space	Key.space	n/a
55.6215	0.06	111243	keystroke_e	e	n/a
55.8765	0.09	111753	keystroke_x	x	n/a
56.2665	0.075	112533	keystroke_t	t	n/a
56.3265	0.165	112653	keystroke_e	e	n/a
56.8515	0.105	113703	keystroke_r	r	n/a
57.1815	0.06	114363	keystroke_n	n	n/a
57.2565	0.12	114513	keystroke_a	a	n/a
57.3915	0.075	114783	keystroke_l	l	n/a
57.7065	0.06	115413	keystroke_Key.enter	Key.enter	n/a
57.7745	7.9745	115549	prompt	n/a	arising creation something anaheim\n
58.5165	0.105	117033	keystroke_s	s	n/a
59.7165	0.09	119433	keystroke_Key.backspace	Key.backspace	n/a
59.8665	0.165	119733	keystroke_a	a	n/a
60.2415	0.06	120483	keystroke_r	r	n/a
60.3465	0.06	120693	keystroke_i	i	n/a
60.4965	0.15	120993	keystroke_s	s	n/a
60.6315	0.106	121263	keystroke_i	i	n/a
60.7065	0.075	121413	keystroke_n	n	n/a
60.7825	0.09	121565	keystroke_g	g	n/a
60.8565	0.09	121713	keystroke_Key.space	Key.space	n/a
61.2465	0.09	122493	keystroke_c	c	n/a
61.4865	0.15	122973	keystroke_r	r	n/a
61.5765	0.12	123153	keystroke_e	e	n/a
61.8165	0.165	123633	keystroke_a	a	n/a
62.0115	0.12	124023	keystroke_t	t	n/a
62.1625	0.074	124325	keystroke_i	i	n/a
62.2965	0.135	124593	keystroke_o	o	n/a
62.4165	0.075	124833	keystroke_n	n	n/a
62.4915	0.09	124983	keystroke_Key.space	Key.space	n/a
62.6715	0.12	125343	keystroke_s	s	n/a
62.7465	0.09	125493	keystroke_o	o	n/a
62.8815	0.09	125763	keystroke_m	m	n/a
62.9565	0.09	125913	keystroke_e	e	n/a
63.0915	0.09	126183	keystroke_t	t	n/a
63.1665	0.075	126333	keystroke_h	h	n/a
63.2575	0.09	126515	keystroke_i	i	n/a
63.3915	0.045	126783	keystroke_n	n	n/a
63.9615	0.06	127923	keystroke_g	g	n/a
64.0815	0.105	128163	keystroke_Key.space	Key.space	n/a
64.5915	0.135	129183	keystroke_a	a	n/a
64.7865	0.09	129573	keystroke_n	n	n/a
64.8615	0.135	129723	keystroke_a	a	n/a
65.0565	0.06	130113	keystroke_h	h	n/a
65.1765	0.09	130353	keystroke_e	e	n/a
65.3115	0.09	130623	keystroke_i	i	n/a
65.4465	0.105	130893	keystroke_m	m	n/a
65.6715	0.075	131343	keystroke_Key.enter	Key.enter	n/a
65.753	9.341	131506	prompt	n/a	tobacco varying sorts ambien\n
66.4825	0.104	132965	keystroke_t	t	n/a
66.6015	0.105	133203	keystroke_o	o	n/a
66.8865	0.06	133773	keystroke_b	b	n/a
66.9625	0.104	133925	keystroke_a	a	n/a
67.2915	0.075	134583	keystroke_c	c	n/a
67.4415	0.075	134883	keystroke_c	c	n/a
67.5615	0.106	135123	keystroke_o	o	n/a
67.7115	0.105	135423	keystroke_Key.space	Key.space	n/a
68.0265	0.09	136053	keystroke_v	v	n/a
68.1915	0.165	136383	keystroke_a	a	n/a
68.3575	0.119	136715	keystroke_r	r	n/a
68.5065	0.075	137013	keystroke_y	y	n/a
68.7165	0.12	137433	keystroke_i	i	n/a
68.8065	0.091	137613	keystroke_n	n	n/a
68.9115	0.12	137823	keystroke_g	g	n/a
69.0165	0.075	138033	keystroke_Key.space	Key.space	n/a
69.2415	0.106	138483	keystroke_s	s	n/a
69.3015	0.105	138603	keystroke_o	o	n/a
69.4665	0.06	138933	keystroke_r	r	n/a
69.6465	0.06	139293	keystroke_t	t	n/a
69.7975	0.134	139595	keystroke_s	s	n/a
69.9325	0.119	139865	keystroke_Key.space	Key.space	n/a
70.4115	0.06	140823	keystroke_m	m	n/a
71.1015	0.075	142203	keystroke_Key.backspace	Key.backspace	n/a
71.2825	0.119	142565	keystroke_a	a	n/a
71.4915	0.09	142983	keystroke_m	m	n/a
71.7315	0.046	143463	keystroke_n	n	n/a
71.7465	0.031	143493	keystroke_b	b	n/a
72.2115	0.09	144423	keystroke_i	i	n/a
72.7215	0.15	145443	keystroke_Key.backspace	Key.backspace	n/a
72.9615	0.09	145923	keystroke_Key.backspace	Key.backspace	n/a
73.1715	0.075	146343	keystroke_Key.backspace	Key.backspace	n/a
73.6815	0.075	147363	keystroke_b	b	n/a
74.4015	0.075	148803	keystroke_i	i	n/a
74.7165	0.09	149433	keystroke_e	e	n/a
74.8225	0.075	149645	keystroke_n	n	n/a
75.0165	0.075	150033	keystroke_Key.enter	Key.enter	n/a
75.1	7.1935	150200	prompt	n/a	wrote continue concerts squad\n
75.8125	0.105	151625	keystroke_w	w	n/a
75.9925	0.089	151985	keystroke_r	r	n/a
76.0965	0.105	152193	keystroke_o	o	n/a
76.2625	0.15	152525	keystroke_t	t	n/a
76.4725	0.15	152945	keystroke_e	e	n/a
76.6665	0.135	153333	keystroke_Key.space	Key.space	n/a
77.2365	0.151	154473	keystroke_c	c	n/a
77.4015	0.105	154803	keystroke_o	o	n/a
77.5975	0.075	155195	keystroke_n	n	n/a
77.7925	0.089	155585	keystroke_t	t	n/a
77.8965	0.076	155793	keystroke_i	i	n/a
78.0765	0.061	156153	keystroke_n	n	n/a
78.2715	0.061	156543	keystroke_u	u	n/a
78.4215	0.091	156843	keystroke_e	e	n/a
78.5265	0.105	157053	keystroke_Key.space	Key.space	n/a
78.7365	0.151	157473	keystroke_c	c	n/a
78.8125	0.12	157625	keystroke_o	o	n/a
78.9175	0.075	157835	keystroke_n	n	n/a
79.1425	0.089	158285	keystroke_c	c	n/a
79.3675	0.18	158735	keystroke_e	e	n/a
79.6375	0.089	159275	keystroke_r	r	n/a
79.8475	0.06	159695	keystroke_t	t	n/a
80.0125	0.119	160025	keystroke_s	s	n/a
80.1465	0.105	160293	keystroke_Key.space	Key.space	n/a
80.3875	0.089	160775	keystroke_s	s	n/a
80.6125	0.134	161225	keystroke_q	q	n/a
80.7625	0.075	161525	keystroke_u	u	n/a
81.0765	0.121	162153	keystroke_a	a	n/a
81.6465	0.106	163293	keystroke_d	d	n/a
82.2025	0.089	164405	keystroke_Key.enter	Key.enter	n/a
82.301	9.218	164602	prompt	n/a	thehun invisible father regression\n
82.9375	0.075	165875	keystroke_t	t	n/a
83.0565	0.075	166113	keystroke_h	h	n/a
83.1925	0.105	166385	keystroke_e	e	n/a
83.5825	0.06	167165	keystroke_h	h	n/a
83.7465	0.06	167493	keystroke_u	u	n/a
84.0015	0.061	168003	keystroke_n	n	n/a
84.3915	0.105	168783	keystroke_Key.space	Key.space	n/a
84.6315	0.091	169263	keystroke_i	i	n/a
84.7675	0.09	169535	keystroke_n	n	n/a
86.7465	0.075	173493	keystroke_v	v	n/a
86.8375	0.075	173675	keystroke_i	i	n/a
86.987	0.1205	173974	keystroke_s	s	n/a
87.152	0.0755	174304	keystroke_i	i	n/a
87.407	0.06	174814	keystroke_b	b	n/a
87.572	0.075	175144	keystroke_l	l	n/a
87.707	0.075	175414	keystroke_e	e	n/a
87.9765	0.1055	175953	keystroke_Key.space	Key.space	n/a
88.472	0.075	176944	keystroke_f	f	n/a
88.607	0.135	177214	keystroke_a	a	n/a
88.757	0.09	177514	keystroke_t	t	n/a
88.8775	0.0745	177755	keystroke_h	h	n/a
88.982	0.165	177964	keystroke_e	e	n/a
89.057	0.195	178114	keystroke_r	r	n/a
89.2365	0.1045	178473	keystroke_Key.space	Key.space	n/a
89.552	0.12	179104	keystroke_r	r	n/a
89.582	0.1055	179164	keystroke_e	e	n/a
89.852	0.075	179704	keystroke_g	g	n/a
90.032	0.135	180064	keystroke_r	r	n/a
90.122	0.105	180244	keystroke_e	e	n/a
90.392	0.06	180784	keystroke_s	s	n/a
90.512	0.195	181024	keystroke_s	s	n/a
90.632	0.09	181264	keystroke_i	i	n/a
90.752	0.15	181504	keystroke_o	o	n/a
90.857	0.105	181714	keystroke_n	n	n/a
91.412	0.105	182824	keystroke_Key.enter	Key.enter	n/a
91.5235	9.34	183047	prompt	n/a	brochures compiler speeds generation\n
92.192	0.06	184384	keystroke_b	b	n/a
92.447	0.0895	184894	keystroke_r	r	n/a
92.5215	0.105	185043	keystroke_o	o	n/a
93.0765	0.12	186153	keystroke_c	c	n/a
93.1665	0.06	186333	keystroke_h	h	n/a
93.3765	0.06	186753	keystroke_u	u	n/a
93.6915	0.135	187383	keystroke_r	r	n/a
93.7815	0.105	187563	keystroke_e	e	n/a
94.0215	0.105	188043	keystroke_s	s	n/a
94.1865	0.135	188373	keystroke_Key.space	Key.space	n/a
94.6365	0.09	189273	keystroke_c	c	n/a
94.7415	0.135	189483	keystroke_o	o	n/a
94.8315	0.075	189663	keystroke_m	m	n/a
95.0115	0.09	190023	keystroke_p	p	n/a
95.2965	0.105	190593	keystroke_l	l	n/a
95.8365	0.075	191673	keystroke_Key.backspace	Key.backspace	n/a
96.0915	0.06	192183	keystroke_i	i	n/a
96.3015	0.09	192603	keystroke_l	l	n/a
96.5115	0.195	193023	keystroke_e	e	n/a
96.6915	0.09	193383	keystroke_r	r	n/a
97.1415	0.105	194283	keystroke_Key.space	Key.space	n/a
97.3515	0.135	194703	keystroke_s	s	n/a
97.5615	0.105	195123	keystroke_p	p	n/a
97.7565	0.06	195513	keystroke_e	e	n/a
97.8765	0.06	195753	keystroke_e	e	n/a
98.0715	0.06	196143	keystroke_d	d	n/a
98.2215	0.105	196443	keystroke_s	s	n/a
98.3715	0.105	196743	keystroke_Key.space	Key.space	n/a
98.6715	0.075	197343	keystroke_g	g	n/a
98.8365	0.12	197673	keystroke_e	e	n/a
99.0465	0.075	198093	keystroke_n	n	n/a
99.1965	0.15	198393	keystroke_e	e	n/a
99.6015	0.135	199203	keystroke_r	r	n/a
99.7515	0.27	199503	keystroke_a	a	n/a
99.9915	0.135	199983	keystroke_t	t	n/a
100.1865	0.135	200373	keystroke_i	i	n/a
100.3065	0.24	200613	keystroke_o	o	n/a
100.4565	0.105	200913	keystroke_n	n	n/a
100.7865	0.075	201573	keystroke_Key.enter	Key.enter	n/a
100.87	6.8785	201740	prompt	n/a	product trip proportion victorian\n
101.4915	0.09	202983	keystroke_p	p	n/a
101.6715	0.105	203343	keystroke_r	r	n/a
101.7465	0.12	203493	keystroke_o	o	n/a
102.1665	0.075	204333	keystroke_d	d	n/a
102.2565	0.075	204513	keystroke_u	u	n/a
102.4215	0.135	204843	keystroke_c	c	n/a
102.5415	0.09	205083	keystroke_t	t	n/a
102.7215	0.105	205443	keystroke_Key.space	Key.space	n/a
102.9315	0.075	205863	keystroke_t	t	n/a
103.0965	0.105	206193	keystroke_r	r	n/a
103.1865	0.075	206373	keystroke_i	i	n/a
103.3365	0.135	206673	keystroke_p	p	n/a
103.4865	0.12	206973	keystroke_Key.space	Key.space	n/a
103.8615	0.12	207723	keystroke_p	p	n/a
104.0565	0.12	208113	keystroke_r	r	n/a
104.1615	0.075	208323	keystroke_o	o	n/a
104.3265	0.105	208653	keystroke_p	p	n/a
104.5665	0.09	209133	keystroke_o	o	n/a
104.7015	0.075	209403	keystroke_r	r	n/a
104.8815	0.075	209763	keystroke_t	t	n/a
105.0165	0.105	210033	keystroke_i	i	n/a
105.1815	0.15	210363	keystroke_o	o	n/a
105.3015	0.105	210603	keystroke_n	n	n/a
105.4215	0.105	210843	keystroke_Key.space	Key.space	n/a
105.7965	0.09	211593	keystroke_v	v	n/a
105.9465	0.075	211893	keystroke_i	i	n/a
106.1265	0.105	212253	keystroke_c	c	n/a
106.3065	0.09	212613	keystroke_t	t	n/a
106.4565	0.105	212913	keystroke_o	o	n/a
106.6065	0.105	213213	keystroke_r	r	n/a
107.1765	0.075	214353	keystroke_i	i	n/a
107.3715	0.12	214743	keystroke_a	a	n/a
107.4765	0.075	214953	keystroke_n	n	n/a
107.6565	0.09	215313	keystroke_Key.enter	Key.enter	n/a
107.7535	7.6595	215507	prompt	n/a	follow constraints league booth\n
108.4815	0.105	216963	keystroke_f	f	n/a
108.6165	0.06	217233	keystroke_o	o	n/a
108.7965	0.075	217593	keystroke_l	l	n/a
108.9315	0.075	217863	keystroke_l	l	n/a
109.0965	0.105	218193	keystroke_o	o	n/a
109.1865	0.12	218373	keystroke_w	w	n/a
109.3965	0.12	218793	keystroke_Key.space	Key.space	n/a
109.7565	0.09	219513	keystroke_c	c	n/a
109.8615	0.105	219723	keystroke_o	o	n/a
109.9965	0.075	219993	keystroke_n	n	n/a
110.1015	0.105	220203	keystroke_s	s	n/a
110.2965	0.075	220593	keystroke_t	t	n/a
110.5065	0.135	221013	keystroke_r	r	n/a
110.6265	0.15	221253	keystroke_a	a	n/a
110.7615	0.09	221523	keystroke_i	i	n/a
110.8815	0.075	221763	keystroke_n	n	n/a
112.1265	0.075	224253	keystroke_t	t	n/a
112.2615	0.12	224523	keystroke_s	s	n/a
112.4115	0.105	224823	keystroke_Key.space	Key.space	n/a
112.6065	0.12	225213	keystroke_l	l	n/a
112.6965	0.105	225393	keystroke_e	e	n/a
112.8165	0.09	225633	keystroke_a	a	n/a
113.5365	0.135	227073	keystroke_g	g	n/a
113.7465	0.06	227493	keystroke_u	u	n/a
113.8515	0.105	227703	keystroke_e	e	n/a
114.0165	0.105	228033	keystroke_Key.space	Key.space	n/a
114.5415	0.075	229083	keystroke_b	b	n/a
114.7665	0.075	229533	keystroke_o	o	n/a
114.9165	0.09	229833	keystroke_o	o	n/a
115.0515	0.09	230103	keystroke_t	t	n/a
115.1565	0.06	230313	keystroke_h	h	n/a
115.3215	0.09	230643	keystroke_Key.enter	Key.enter	n/a
115.418	7.121	230836	prompt	n/a	banner smtp fork qualifications\n
116.1615	0.09	232323	keystroke_b	b	n/a
116.3115	0.135	232623	keystroke_a	a	n/a
116.4315	0.06	232863	keystroke_n	n	n/a
116.5665	0.075	233133	keystroke_n	n	n/a
116.7015	0.135	233403	keystroke_e	e	n/a
116.8815	0.09	233763	keystroke_r	r	n/a
117.0165	0.09	234033	keystroke_Key.space	Key.space	n/a
117.3765	0.12	234753	keystroke_s	s	n/a
117.5265	0.105	235053	keystroke_m	m	n/a
117.8265	0.105	235653	keystroke_t	t	n/a
118.0065	0.09	236013	keystroke_p	p	n/a
118.1115	0.12	236223	keystroke_Key.space	Key.space	n/a
118.4115	0.075	236823	keystroke_f	f	n/a
118.5315	0.105	237063	keystroke_o	o	n/a
118.7715	0.105	237543	keystroke_r	r	n/a
119.0115	0.09	238023	keystroke_k	k	n/a
119.3115	0.105	238623	keystroke_Key.space	Key.space	n/a
119.7615	0.12	239523	keystroke_q	q	n/a
119.9415	0.075	239883	keystroke_u	u	n/a
120.5865	0.135	241173	keystroke_a	a	n/a
120.7815	0.105	241563	keystroke_l	l	n/a
120.9315	0.075	241863	keystroke_i	i	n/a
121.2315	0.06	242463	keystroke_f	f	n/a
121.3065	0.075	242613	keystroke_i	i	n/a
121.5165	0.1345	243033	keystroke_c	c	n/a
121.636	0.1355	243272	keystroke_a	a	n/a
121.7115	0.12	243423	keystroke_t	t	n/a
121.8165	0.105	243633	keystroke_i	i	n/a
121.891	0.225	243782	keystroke_o	o	n/a
122.026	0.105	244052	keystroke_n	n	n/a
122.176	0.12	244352	keystroke_s	s	n/a
122.4765	0.0595	244953	keystroke_Key.enter	Key.enter	n/a
122.5445	14.6785	245089	prompt	n/a	electron transactions chelsea score\n
123.1965	0.0745	246393	keystroke_e	e	n/a
123.391	0.105	246782	keystroke_l	l	n/a
123.4815	0.045	246963	keystroke_e	e	n/a
123.691	0.18	247382	keystroke_c	c	n/a
123.856	0.1205	247712	keystroke_t	t	n/a
124.1565	0.1045	248313	keystroke_r	r	n/a
124.291	0.1355	248582	keystroke_o	o	n/a
124.441	0.09	248882	keystroke_n	n	n/a
124.456	0.015	248912	keystroke_o	o	n/a
124.546	0.1355	249092	keystroke_Key.space	Key.space	n/a
125.461	0.12	250922	keystroke_Key.backspace	Key.backspace	n/a
125.656	0.075	251312	keystroke_Key.backspace	Key.backspace	n/a
126.541	0.12	253082	keystroke_Key.space	Key.space	n/a
126.886	0.075	253772	keystroke_t	t	n/a
127.036	0.135	254072	keystroke_r	r	n/a
127.141	0.15	254282	keystroke_a	a	n/a
127.321	0.105	254642	keystroke_n	n	n/a
127.531	0.12	255062	keystroke_s	s	n/a
127.666	0.135	255332	keystroke_a	a	n/a
127.951	0.09	255902	keystroke_c	c	n/a
128.1315	0.0895	256263	keystroke_t	t	n/a
128.236	0.12	256472	keystroke_i	i	n/a
128.341	0.2405	256682	keystroke_o	o	n/a
128.476	0.09	256952	keystroke_n	n	n/a
128.626	0.15	257252	keystroke_s	s	n/a
128.821	0.105	257642	keystroke_Key.space	Key.space	n/a
129.271	0.135	258542	keystroke_c	c	n/a
129.421	0.075	258842	keystroke_h	h	n/a
129.556	0.105	259112	keystroke_e	e	n/a
129.796	0.105	259592	keystroke_l	l	n/a
130.021	0.105	260042	keystroke_s	s	n/a
130.186	0.09	260372	keystroke_e	e	n/a
130.471	0.12	260942	keystroke_a	a	n/a
130.696	0.045	261392	keystroke_Key.space	Key.space	n/a
133.414	0.042	266828	keystroke_Key.backspace	Key.backspace	n/a
136.219	0.042	272438	keystroke_Key.space	Key.space	n/a
136.366	0.075	272732	keystroke_s	s	n/a
136.561	0.105	273122	keystroke_c	c	n/a
136.681	0.135	273362	keystroke_o	o	n/a
136.817	0.12	273634	keystroke_r	r	n/a
136.891	0.12	273782	keystroke_e	e	n/a
137.101	0.12	274202	keystroke_Key.enter	Key.enter	n/a
137.2285	7.975	274457	prompt	n/a	reveal outline flows what'll\n
137.912	0.134	275824	keystroke_r	r	n/a
138.001	0.09	276002	keystroke_e	e	n/a
138.271	0.135	276542	keystroke_v	v	n/a
138.451	0.165	276902	keystroke_e	e	n/a
138.707	0.134	277414	keystroke_a	a	n/a
138.871	0.105	277742	keystroke_l	l	n/a
139.291	0.105	278582	keystroke_Key.space	Key.space	n/a
139.681	0.075	279362	keystroke_o	o	n/a
139.862	0.059	279724	keystroke_u	u	n/a
139.982	0.134	279964	keystroke_t	t	n/a
140.146	0.09	280292	keystroke_l	l	n/a
140.326	0.09	280652	keystroke_i	i	n/a
140.401	0.09	280802	keystroke_n	n	n/a
140.551	0.12	281102	keystroke_e	e	n/a
140.866	0.09	281732	keystroke_Key.space	Key.space	n/a
141.572	0.135	283144	keystroke_f	f	n/a
141.722	0.06	283444	keystroke_l	l	n/a
141.886	0.09	283772	keystroke_o	o	n/a
141.946	0.106	283892	keystroke_w	w	n/a
142.171	0.18	284342	keystroke_s	s	n/a
142.291	0.09	284582	keystroke_Key.space	Key.space	n/a
142.516	0.091	285032	keystroke_w	w	n/a
142.621	0.106	285242	keystroke_h	h	n/a
142.741	0.21	285482	keystroke_a	a	n/a
142.921	0.105	285842	keystroke_t	t	n/a
143.116	0.121	286232	keystroke_'	'	n/a
143.341	0.076	286682	keystroke_l	l	n/a
143.506	0.076	287012	keystroke_l	l	n/a
143.686	0.105	287372	keystroke_Key.space	Key.space	n/a
144.781	0.06	289562	keystroke_Key.backspace	Key.backspace	n/a
145.156	0.045	290312	keystroke_Key.enter	Key.enter	n/a
145.207	5.6515	290414	prompt	n/a	acts extending armstrong among\n
145.952	0.105	291904	keystroke_a	a	n/a
146.162	0.119	292324	keystroke_c	c	n/a
146.341	0.135	292682	keystroke_t	t	n/a
146.537	0.134	293074	keystroke_s	s	n/a
146.716	0.12	293432	keystroke_Key.space	Key.space	n/a
147.1205	0.06	294241	keystroke_e	e	n/a
147.3605	0.12	294721	keystroke_x	x	n/a
147.6605	0.09	295321	keystroke_t	t	n/a
147.7205	0.12	295441	keystroke_e	e	n/a
147.8715	0.075	295743	keystroke_n	n	n/a
147.9905	0.12	295981	keystroke_d	d	n/a
148.0655	0.136	296131	keystroke_i	i	n/a
148.1715	0.074	296343	keystroke_n	n	n/a
148.2305	0.105	296461	keystroke_g	g	n/a
148.5915	0.104	297183	keystroke_a	a	n/a
148.8305	0.12	297661	keystroke_r	r	n/a
149.0265	0.074	298053	keystroke_m	m	n/a
149.2505	0.106	298501	keystroke_s	s	n/a
149.4155	0.091	298831	keystroke_t	t	n/a
149.5955	0.09	299191	keystroke_r	r	n/a
149.6565	0.135	299313	keystroke_o	o	n/a
149.7605	0.105	299521	keystroke_n	n	n/a
149.8355	0.091	299671	keystroke_g	g	n/a
149.9705	0.09	299941	keystroke_Key.space	Key.space	n/a
150.1655	0.12	300331	keystroke_a	a	n/a
150.3005	0.045	300601	keystroke_m	m	n/a
150.3915	0.089	300783	keystroke_o	o	n/a
150.5105	0.091	301021	keystroke_n	n	n/a
150.6615	0.089	301323	keystroke_g	g	n/a
150.7655	0.09	301531	keystroke_Key.enter	Key.enter	n/a
150.865	7.838	301730	prompt	n/a	why'd country locking excellent\n
152.5065	0.089	305013	keystroke_w	w	n/a
152.6265	0.075	305253	keystroke_h	h	n/a
152.8205	0.061	305641	keystroke_y	y	n/a
153.5855	0.106	307171	keystroke_'	'	n/a
153.7365	0.104	307473	keystroke_d	d	n/a
154.0505	0.105	308101	keystroke_Key.space	Key.space	n/a
154.3215	0.12	308643	keystroke_c	c	n/a
154.4115	0.12	308823	keystroke_o	o	n/a
154.5455	0.046	309091	keystroke_u	u	n/a
155.0855	0.091	310171	keystroke_n	n	n/a
155.2065	0.075	310413	keystroke_t	t	n/a
155.4155	0.105	310831	keystroke_r	r	n/a
155.5365	0.074	311073	keystroke_y	y	n/a
155.6855	0.105	311371	keystroke_Key.space	Key.space	n/a
155.9405	0.075	311881	keystroke_l	l	n/a
156.1215	0.089	312243	keystroke_o	o	n/a
156.2715	0.105	312543	keystroke_c	c	n/a
156.3605	0.076	312721	keystroke_k	k	n/a
156.5415	0.164	313083	keystroke_i	i	n/a
156.6305	0.091	313261	keystroke_n	n	n/a
156.7355	0.105	313471	keystroke_g	g	n/a
156.7955	0.12	313591	keystroke_Key.space	Key.space	n/a
157.0205	0.075	314041	keystroke_e	e	n/a
157.2305	0.121	314461	keystroke_x	x	n/a
157.4865	0.075	314973	keystroke_c	c	n/a
157.6815	0.075	315363	keystroke_e	e	n/a
157.8315	0.075	315663	keystroke_l	l	n/a
157.9815	0.12	315963	keystroke_l	l	n/a
158.1315	0.134	316263	keystroke_e	e	n/a
158.2815	0.075	316563	keystroke_n	n	n/a
158.4015	0.089	316803	keystroke_t	t	n/a
158.6115	0.09	317223	keystroke_Key.enter	Key.enter	n/a
158.707	7.601	317414	prompt	n/a	pottery stuffed flows promoted\n
159.3605	0.06	318721	keystroke_p	p	n/a
159.5705	0.106	319141	keystroke_o	o	n/a
159.7665	0.06	319533	keystroke_t	t	n/a
159.9315	0.105	319863	keystroke_t	t	n/a
160.1565	0.105	320313	keystroke_e	e	n/a
160.3365	0.104	320673	keystroke_r	r	n/a
160.4865	0.075	320973	keystroke_y	y	n/a
160.6355	0.105	321271	keystroke_Key.space	Key.space	n/a
160.8455	0.106	321691	keystroke_s	s	n/a
161.0565	0.059	322113	keystroke_t	t	n/a
161.1615	0.075	322323	keystroke_u	u	n/a
161.3405	0.045	322681	keystroke_f	f	n/a
161.4315	0.075	322863	keystroke_f	f	n/a
161.5815	0.075	323163	keystroke_e	e	n/a
161.7765	0.119	323553	keystroke_d	d	n/a
161.9105	0.091	323821	keystroke_Key.space	Key.space	n/a
162.1815	0.089	324363	keystroke_f	f	n/a
162.3465	0.09	324693	keystroke_l	l	n/a
162.5565	0.09	325113	keystroke_o	o	n/a
162.7215	0.12	325443	keystroke_w	w	n/a
163.5465	0.135	327093	keystroke_s	s	n/a
163.7405	0.121	327481	keystroke_Key.space	Key.space	n/a
163.9665	0.075	327933	keystroke_p	p	n/a
164.1315	0.134	328263	keystroke_r	r	n/a
164.2515	0.06	328503	keystroke_o	o	n/a
164.4465	0.06	328893	keystroke_m	m	n/a
164.6715	0.105	329343	keystroke_o	o	n/a
164.9115	0.165	329823	keystroke_t	t	n/a
165.0465	0.12	330093	keystroke_e	e	n/a
165.7665	0.105	331533	keystroke_d	d	n/a
166.2015	0.104	332403	keystroke_Key.enter	Key.enter	n/a
166.3145	8.3635	332629	prompt	n/a	foot configuring citations create\n
167.2215	0.1195	334443	keystroke_f	f	n/a
167.521	0.075	335042	keystroke_o	o	n/a
167.6715	0.105	335343	keystroke_o	o	n/a
167.8215	0.12	335643	keystroke_t	t	n/a
167.956	0.1205	335912	keystroke_Key.space	Key.space	n/a
168.571	0.1355	337142	keystroke_c	c	n/a
168.691	0.1055	337382	keystroke_o	o	n/a
168.8265	0.075	337653	keystroke_n	n	n/a
169.396	0.09	338792	keystroke_f	f	n/a
169.516	0.09	339032	keystroke_i	i	n/a
169.621	0.09	339242	keystroke_g	g	n/a
169.846	0.075	339692	keystroke_u	u	n/a
169.996	0.165	339992	keystroke_r	r	n/a
170.131	0.165	340262	keystroke_e	e	n/a
170.896	0.105	341792	keystroke_Key.backspace	Key.backspace	n/a
171.166	0.135	342332	keystroke_i	i	n/a
171.256	0.105	342512	keystroke_n	n	n/a
171.406	0.09	342812	keystroke_g	g	n/a
171.526	0.12	343052	keystroke_Key.space	Key.space	n/a
172.201	0.1055	344402	keystroke_c	c	n/a
172.321	0.075	344642	keystroke_i	i	n/a
172.456	0.075	344912	keystroke_t	t	n/a
172.606	0.18	345212	keystroke_a	a	n/a
172.756	0.105	345512	keystroke_t	t	n/a
172.876	0.075	345752	keystroke_i	i	n/a
173.011	0.165	346022	keystroke_o	o	n/a
173.131	0.12	346262	keystroke_n	n	n/a
173.236	0.135	346472	keystroke_s	s	n/a
173.386	0.09	346772	keystroke_Key.space	Key.space	n/a
173.581	0.09	347162	keystroke_c	c	n/a
173.776	0.165	347552	keystroke_r	r	n/a
173.896	0.12	347792	keystroke_e	e	n/a
174.076	0.195	348152	keystroke_a	a	n/a
174.241	0.12	348482	keystroke_t	t	n/a
174.331	0.105	348662	keystroke_e	e	n/a
174.601	0.0755	349202	keystroke_Key.enter	Key.enter	n/a
174.6835	9.0555	349367	prompt	n/a	goat distributor tulsa creek\n
175.381	0.12	350762	keystroke_g	g	n/a
175.516	0.105	351032	keystroke_o	o	n/a
175.681	0.135	351362	keystroke_a	a	n/a
175.906	0.09	351812	keystroke_t	t	n/a
176.056	0.12	352112	keystroke_Key.space	Key.space	n/a
176.386	0.09	352772	keystroke_d	d	n/a
176.476	0.09	352952	keystroke_i	i	n/a
176.596	0.105	353192	keystroke_s	s	n/a
176.761	0.09	353522	keystroke_t	t	n/a
176.956	0.105	353912	keystroke_r	r	n/a
177.031	0.06	354062	keystroke_i	i	n/a
177.211	0.06	354422	keystroke_b	b	n/a
177.406	0.06	354812	keystroke_u	u	n/a
177.796	0.105	355592	keystroke_t	t	n/a
177.916	0.105	355832	keystroke_o	o	n/a
178.066	0.075	356132	keystroke_r	r	n/a
178.246	0.105	356492	keystroke_Key.space	Key.space	n/a
179.011	0.075	358022	keystroke_t	t	n/a
179.236	0.045	358472	keystroke_u	u	n/a
179.941	0.105	359882	keystroke_l	l	n/a
180.076	0.09	360152	keystroke_s	s	n/a
180.331	0.15	360662	keystroke_a	a	n/a
180.736	0.09	361472	keystroke_Key.space	Key.space	n/a
180.991	0.12	361982	keystroke_c	c	n/a
182.461	0.12	364922	keystroke_Key.backspace	Key.backspace	n/a
182.716	0.1055	365432	keystroke_c	c	n/a
182.986	0.12	365972	keystroke_r	r	n/a
183.181	0.075	366362	keystroke_e	e	n/a
183.346	0.105	366692	keystroke_e	e	n/a
183.481	0.075	366962	keystroke_k	k	n/a
183.661	0.075	367322	keystroke_Key.enter	Key.enter	n/a
183.749	6.335	367498	prompt	n/a	town indicators albert ross\n
184.396	0.075	368792	keystroke_t	t	n/a
184.516	0.09	369032	keystroke_o	o	n/a
184.636	0.105	369272	keystroke_w	w	n/a
184.756	0.06	369512	keystroke_n	n	n/a
184.861	0.105	369722	keystroke_Key.space	Key.space	n/a
185.056	0.15	370112	keystroke_i	i	n/a
185.161	0.105	370322	keystroke_n	n	n/a
185.326	0.09	370652	keystroke_d	d	n/a
185.431	0.075	370862	keystroke_i	i	n/a
185.581	0.15	371162	keystroke_c	c	n/a
185.746	0.135	371492	keystroke_a	a	n/a
185.836	0.135	371672	keystroke_t	t	n/a
186.601	0.12	373202	keystroke_o	o	n/a
186.811	0.105	373622	keystroke_r	r	n/a
186.976	0.135	373952	keystroke_s	s	n/a
187.126	0.12	374252	keystroke_Key.space	Key.space	n/a
187.846	0.15	375692	keystroke_a	a	n/a
187.951	0.09	375902	keystroke_l	l	n/a
188.176	0.075	376352	keystroke_b	b	n/a
188.326	0.15	376652	keystroke_e	e	n/a
188.521	0.075	377042	keystroke_r	r	n/a
188.716	0.075	377432	keystroke_t	t	n/a
188.8515	0.1045	377703	keystroke_Key.space	Key.space	n/a
189.241	0.105	378482	keystroke_r	r	n/a
189.376	0.135	378752	keystroke_o	o	n/a
189.541	0.06	379082	keystroke_s	s	n/a
189.676	0.105	379352	keystroke_s	s	n/a
189.976	0.105	379952	keystroke_Key.enter	Key.enter	n/a
190.091	11.0325	380182	prompt	n/a	blue father oklahoma sexuality\n
190.816	0.075	381632	keystroke_b	b	n/a
191.011	0.09	382022	keystroke_l	l	n/a
191.191	0.06	382382	keystroke_u	u	n/a
191.326	0.09	382652	keystroke_e	e	n/a
191.491	0.105	382982	keystroke_Key.space	Key.space	n/a
191.671	0.105	383342	keystroke_f	f	n/a
191.791	0.15	383582	keystroke_a	a	n/a
191.911	0.105	383822	keystroke_t	t	n/a
192.046	0.075	384092	keystroke_h	h	n/a
192.166	0.18	384332	keystroke_e	e	n/a
192.256	0.15	384512	keystroke_r	r	n/a
192.421	0.105	384842	keystroke_Key.space	Key.space	n/a
192.571	0.09	385142	keystroke_o	o	n/a
192.826	0.06	385652	keystroke_k	k	n/a
193.006	0.105	386012	keystroke_l	l	n/a
193.126	0.135	386252	keystroke_a	a	n/a
193.291	0.075	386582	keystroke_h	h	n/a
193.411	0.135	386822	keystroke_a	a	n/a
193.576	0.09	387152	keystroke_o	o	n/a
194.686	0.09	389372	keystroke_Key.backspace	Key.backspace	n/a
195.076	0.105	390152	keystroke_Key.backspace	Key.backspace	n/a
196.741	0.09	393482	keystroke_o	o	n/a
196.906	0.09	393812	keystroke_m	m	n/a
197.041	0.15	394082	keystroke_a	a	n/a
197.221	0.09	394442	keystroke_Key.space	Key.space	n/a
197.446	0.135	394892	keystroke_s	s	n/a
197.671	0.09	395342	keystroke_e	e	n/a
198.256	0.12	396512	keystroke_x	x	n/a
199.726	0.075	399452	keystroke_u	u	n/a
199.966	0.15	399932	keystroke_a	a	n/a
200.071	0.09	400142	keystroke_l	l	n/a
200.221	0.09	400442	keystroke_i	i	n/a
200.401	0.105	400802	keystroke_t	t	n/a
200.521	0.06	401042	keystroke_y	y	n/a
201.016	0.105	402032	keystroke_Key.enter	Key.enter	n/a
201.128	8.875	402256	prompt	n/a	vertex arrested cast longitude\n
201.781	0.09	403562	keystroke_v	v	n/a
201.946	0.165	403892	keystroke_e	e	n/a
202.096	0.105	404192	keystroke_r	r	n/a
202.516	0.091	405032	keystroke_t	t	n/a
202.681	0.105	405362	keystroke_e	e	n/a
202.996	0.105	405992	keystroke_x	x	n/a
203.161	0.12	406322	keystroke_Key.space	Key.space	n/a
203.386	0.135	406772	keystroke_a	a	n/a
203.611	0.075	407222	keystroke_r	r	n/a
203.776	0.09	407552	keystroke_r	r	n/a
203.941	0.105	407882	keystroke_e	e	n/a
204.151	0.165	408302	keystroke_s	s	n/a
204.286	0.15	408572	keystroke_t	t	n/a
204.361	0.12	408722	keystroke_e	e	n/a
204.601	0.15	409202	keystroke_d	d	n/a
204.721	0.09	409442	keystroke_Key.space	Key.space	n/a
205.066	0.09	410132	keystroke_c	c	n/a
205.276	0.09	410552	keystroke_a	a	n/a
205.591	0.105	411182	keystroke_s	s	n/a
205.966	0.135	411932	keystroke_t	t	n/a
206.611	0.135	413222	keystroke_Key.space	Key.space	n/a
206.836	0.075	413672	keystroke_l	l	n/a
207.016	0.09	414032	keystroke_o	o	n/a
207.181	0.105	414362	keystroke_n	n	n/a
207.901	0.09	415802	keystroke_g	g	n/a
208.021	0.105	416042	keystroke_i	i	n/a
208.306	0.075	416612	keystroke_t	t	n/a
208.411	0.06	416822	keystroke_u	u	n/a
208.771	0.09	417542	keystroke_e	e	n/a
209.446	0.09	418892	keystroke_Key.backspace	Key.backspace	n/a
209.596	0.06	419192	keystroke_d	d	n/a
209.761	0.075	419522	keystroke_e	e	n/a
209.896	0.105	419792	keystroke_Key.enter	Key.enter	n/a
210.008	6.804	420016	prompt	n/a	radios showed freely customize\n
211.021	0.135	422042	keystroke_r	r	n/a
211.171	0.105	422342	keystroke_a	a	n/a
211.381	0.135	422762	keystroke_d	d	n/a
211.501	0.06	423002	keystroke_i	i	n/a
211.666	0.105	423332	keystroke_o	o	n/a
211.981	0.105	423962	keystroke_s	s	n/a
212.101	0.105	424202	keystroke_Key.space	Key.space	n/a
212.326	0.12	424652	keystroke_s	s	n/a
212.431	0.06	424862	keystroke_h	h	n/a
212.506	0.12	425012	keystroke_o	o	n/a
212.596	0.09	425192	keystroke_w	w	n/a
212.896	0.09	425792	keystroke_e	e	n/a
213.496	0.0745	426992	keystroke_d	d	n/a
213.631	0.089	427262	keystroke_Key.space	Key.space	n/a
213.841	0.09	427682	keystroke_f	f	n/a
214.021	0.105	428042	keystroke_r	r	n/a
214.216	0.06	428432	keystroke_e	e	n/a
214.351	0.105	428702	keystroke_e	e	n/a
214.426	0.09	428852	keystroke_l	l	n/a
214.636	0.06	429272	keystroke_y	y	n/a
214.756	0.09	429512	keystroke_Key.space	Key.space	n/a
215.086	0.135	430172	keystroke_c	c	n/a
215.206	0.09	430412	keystroke_u	u	n/a
215.356	0.105	430712	keystroke_s	s	n/a
215.536	0.105	431072	keystroke_t	t	n/a
215.686	0.105	431372	keystroke_o	o	n/a
215.866	0.09	431732	keystroke_m	m	n/a
216.016	0.105	432032	keystroke_i	i	n/a
216.271	0.105	432542	keystroke_z	z	n/a
216.526	0.09	433052	keystroke_e	e	n/a
216.706	0.104	433412	keystroke_Key.enter	Key.enter	n/a
216.8175	8.1555	433635	prompt	n/a	consolidation admission messages armor\n
217.486	0.12	434972	keystroke_c	c	n/a
217.621	0.105	435242	keystroke_o	o	n/a
217.786	0.075	435572	keystroke_n	n	n/a
217.921	0.135	435842	keystroke_s	s	n/a
219.166	0.09	438332	keystroke_o	o	n/a
219.391	0.075	438782	keystroke_l	l	n/a
219.511	0.105	439022	keystroke_i	i	n/a
219.736	0.135	439472	keystroke_d	d	n/a
219.856	0.165	439712	keystroke_a	a	n/a
220.006	0.15	440012	keystroke_t	t	n/a
220.111	0.105	440222	keystroke_i	i	n/a
220.201	0.225	440402	keystroke_o	o	n/a
220.321	0.09	440642	keystroke_n	n	n/a
220.441	0.105	440882	keystroke_Key.space	Key.space	n/a
220.591	0.135	441182	keystroke_a	a	n/a
220.741	0.135	441482	keystroke_d	d	n/a
220.876	0.09	441752	keystroke_m	m	n/a
220.996	0.075	441992	keystroke_i	i	n/a
221.116	0.06	442232	keystroke_s	s	n/a
221.236	0.15	442472	keystroke_s	s	n/a
221.371	0.12	442742	keystroke_i	i	n/a
221.476	0.165	442952	keystroke_o	o	n/a
221.581	0.105	443162	keystroke_n	n	n/a
221.716	0.105	443432	keystroke_Key.space	Key.space	n/a
221.851	0.06	443702	keystroke_m	m	n/a
222.001	0.075	444002	keystroke_e	e	n/a
222.226	0.045	444452	keystroke_s	s	n/a
222.361	0.105	444722	keystroke_s	s	n/a
222.496	0.21	444992	keystroke_a	a	n/a
222.721	0.12	445442	keystroke_g	g	n/a
222.796	0.135	445592	keystroke_e	e	n/a
223.036	0.12	446072	keystroke_s	s	n/a
223.171	0.09	446342	keystroke_Key.space	Key.space	n/a
223.906	0.135	447812	keystroke_a	a	n/a
224.221	0.135	448442	keystroke_r	r	n/a
224.416	0.09	448832	keystroke_m	m	n/a
224.536	0.12	449072	keystroke_o	o	n/a
224.686	0.09	449372	keystroke_r	r	n/a
224.896	0.075	449792	keystroke_Key.enter	Key.enter	n/a
224.978	7.2545	449956	prompt	n/a	paso accomplish implied very\n
225.706	0.09	451412	keystroke_p	p	n/a
225.841	0.105	451682	keystroke_a	a	n/a
226.291	0.12	452582	keystroke_s	s	n/a
226.412	0.104	452824	keystroke_o	o	n/a
226.561	0.12	453122	keystroke_Key.space	Key.space	n/a
226.816	0.105	453632	keystroke_a	a	n/a
228.331	0.075	456662	keystroke_c	c	n/a
228.481	0.09	456962	keystroke_c	c	n/a
228.601	0.09	457202	keystroke_o	o	n/a
228.7655	0.105	457531	keystroke_m	m	n/a
228.946	0.0745	457892	keystroke_p	p	n/a
229.1105	0.12	458221	keystroke_l	l	n/a
229.2455	0.1205	458491	keystroke_i	i	n/a
229.3805	0.1355	458761	keystroke_s	s	n/a
229.517	0.0735	459034	keystroke_h	h	n/a
229.6205	0.1205	459241	keystroke_Key.space	Key.space	n/a
229.8155	0.105	459631	keystroke_i	i	n/a
230.0705	0.0605	460141	keystroke_m	m	n/a
230.2505	0.09	460501	keystroke_p	p	n/a
230.4305	0.075	460861	keystroke_l	l	n/a
230.5655	0.0755	461131	keystroke_i	i	n/a
230.7005	0.0605	461401	keystroke_e	e	n/a
230.9255	0.075	461851	keystroke_d	d	n/a
231.0905	0.105	462181	keystroke_Key.space	Key.space	n/a
231.5705	0.075	463141	keystroke_v	v	n/a
231.7055	0.15	463411	keystroke_e	e	n/a
231.8105	0.12	463621	keystroke_r	r	n/a
231.9755	0.06	463951	keystroke_y	y	n/a
232.1555	0.075	464311	keystroke_Key.enter	Key.enter	n/a
232.2365	5.876	464473	prompt	n/a	oils nights streaming spank\n
232.8755	0.09	465751	keystroke_o	o	n/a
233.0555	0.045	466111	keystroke_i	i	n/a
233.2205	0.09	466441	keystroke_l	l	n/a
233.4155	0.09	466831	keystroke_s	s	n/a
233.5355	0.09	467071	keystroke_Key.space	Key.space	n/a
233.7155	0.075	467431	keystroke_n	n	n/a
233.8055	0.105	467611	keystroke_i	i	n/a
233.9255	0.075	467851	keystroke_g	g	n/a
234.0015	0.074	468003	keystroke_h	h	n/a
234.1205	0.105	468241	keystroke_t	t	n/a
234.3005	0.165	468601	keystroke_s	s	n/a
234.4055	0.12	468811	keystroke_Key.space	Key.space	n/a
234.6005	0.12	469201	keystroke_s	s	n/a
234.7505	0.09	469501	keystroke_t	t	n/a
234.9155	0.135	469831	keystroke_r	r	n/a
235.0205	0.18	470041	keystroke_e	e	n/a
235.2155	0.165	470431	keystroke_a	a	n/a
235.3505	0.075	470701	keystroke_m	m	n/a
235.4855	0.12	470971	keystroke_i	i	n/a
235.5755	0.075	471151	keystroke_n	n	n/a
235.6655	0.09	471331	keystroke_g	g	n/a
235.7405	0.075	471481	keystroke_Key.space	Key.space	n/a
235.9505	0.12	471901	keystroke_s	s	n/a
236.0855	0.09	472171	keystroke_p	p	n/a
236.1905	0.165	472381	keystroke_e	e	n/a
237.3005	0.06	474601	keystroke_Key.backspace	Key.backspace	n/a
237.4205	0.15	474841	keystroke_a	a	n/a
237.5555	0.075	475111	keystroke_n	n	n/a
237.7505	0.09	475501	keystroke_k	k	n/a
238.0205	0.09	476041	keystroke_Key.enter	Key.enter	n/a
238.1175	10.03	476235	prompt	n/a	shower promotional formed efficiently\n
238.8305	0.135	477661	keystroke_s	s	n/a
238.9205	0.06	477841	keystroke_h	h	n/a
239.0705	0.105	478141	keystroke_o	o	n/a
239.2055	0.15	478411	keystroke_w	w	n/a
239.4005	0.18	478801	keystroke_e	e	n/a
239.5355	0.15	479071	keystroke_r	r	n/a
239.7605	0.135	479521	keystroke_Key.space	Key.space	n/a
240.1055	0.12	480211	keystroke_p	p	n/a
240.3905	0.135	480781	keystroke_r	r	n/a
240.4655	0.09	480931	keystroke_o	o	n/a
240.6755	0.06	481351	keystroke_m	m	n/a
240.7955	0.105	481591	keystroke_o	o	n/a
240.9305	0.15	481861	keystroke_t	t	n/a
241.0205	0.105	482041	keystroke_e	e	n/a
241.1705	0.075	482341	keystroke_i	i	n/a
241.2755	0.18	482551	keystroke_o	o	n/a
241.3955	0.09	482791	keystroke_n	n	n/a
242.1605	0.075	484321	keystroke_Key.backspace	Key.backspace	n/a
242.3555	0.09	484711	keystroke_Key.backspace	Key.backspace	n/a
242.5805	0.09	485161	keystroke_Key.backspace	Key.backspace	n/a
243.0905	0.06	486181	keystroke_Key.backspace	Key.backspace	n/a
243.9305	0.075	487861	keystroke_i	i	n/a
244.0505	0.135	488101	keystroke_o	o	n/a
244.1555	0.09	488311	keystroke_n	n	n/a
244.3955	0.135	488791	keystroke_a	a	n/a
244.5455	0.105	489091	keystroke_l	l	n/a
244.6955	0.12	489391	keystroke_Key.space	Key.space	n/a
245.3855	0.075	490771	keystroke_f	f	n/a
245.4905	0.12	490981	keystroke_o	o	n/a
245.5955	0.105	491191	keystroke_r	r	n/a
245.7305	0.075	491461	keystroke_m	m	n/a
245.8205	0.075	491641	keystroke_e	e	n/a
246.0155	0.105	492031	keystroke_d	d	n/a
246.1055	0.105	492211	keystroke_Key.space	Key.space	n/a
246.4355	0.075	492871	keystroke_e	e	n/a
246.6755	0.045	493351	keystroke_f	f	n/a
246.7805	0.09	493561	keystroke_f	f	n/a
246.9455	0.075	493891	keystroke_i	i	n/a
247.0505	0.105	494101	keystroke_c	c	n/a
247.1855	0.075	494371	keystroke_i	i	n/a
247.2905	0.105	494581	keystroke_e	e	n/a
247.4105	0.075	494821	keystroke_n	n	n/a
247.5155	0.09	495031	keystroke_t	t	n/a
247.6205	0.06	495241	keystroke_l	l	n/a
247.8005	0.06	495601	keystroke_y	y	n/a
248.0855	0.06	496171	keystroke_Key.enter	Key.enter	n/a
248.152	12.5355	496304	prompt	n/a	academy roland commonwealth declaration\n
248.8955	0.12	497791	keystroke_a	a	n/a
249.1355	0.105	498271	keystroke_c	c	n/a
249.3005	0.105	498601	keystroke_a	a	n/a
249.9755	0.075	499951	keystroke_d	d	n/a
250.1555	0.09	500311	keystroke_e	e	n/a
250.2605	0.075	500521	keystroke_m	m	n/a
250.5155	0.06	501031	keystroke_y	y	n/a
251.0105	0.105	502021	keystroke_Key.space	Key.space	n/a
251.2955	0.135	502591	keystroke_r	r	n/a
251.4605	0.075	502921	keystroke_o	o	n/a
251.6405	0.075	503281	keystroke_l	l	n/a
251.7455	0.135	503491	keystroke_a	a	n/a
251.8955	0.075	503791	keystroke_n	n	n/a
252.0465	0.119	504093	keystroke_d	d	n/a
252.4355	0.09	504871	keystroke_Key.space	Key.space	n/a
252.6455	0.105	505291	keystroke_c	c	n/a
252.7805	0.09	505561	keystroke_o	o	n/a
253.0055	0.045	506011	keystroke_m	m	n/a
253.1405	0.045	506281	keystroke_m	m	n/a
253.2755	0.09	506551	keystroke_o	o	n/a
253.4255	0.09	506851	keystroke_n	n	n/a
253.9805	0.09	507961	keystroke_w	w	n/a
254.6855	0.135	509371	keystroke_e	e	n/a
254.8355	0.15	509671	keystroke_a	a	n/a
257.284	0.012	514568	keystroke_l	l	n/a
257.581	0.105	515162	keystroke_t	t	n/a
257.701	0.06	515402	keystroke_h	h	n/a
258.27	0.09	516540	keystroke_Key.space	Key.space	n/a
258.7655	0.06	517531	keystroke_d	d	n/a
258.9305	0.045	517861	keystroke_e	e	n/a
259.1255	0.09	518251	keystroke_c	c	n/a
259.3505	0.105	518701	keystroke_l	l	n/a
259.4855	0.165	518971	keystroke_a	a	n/a
259.6955	0.15	519391	keystroke_r	r	n/a
259.8465	0.149	519693	keystroke_a	a	n/a
260.0555	0.12	520111	keystroke_t	t	n/a
260.1765	0.104	520353	keystroke_i	i	n/a
260.2955	0.15	520591	keystroke_o	o	n/a
260.4005	0.075	520801	keystroke_n	n	n/a
260.6105	0.075	521221	keystroke_Key.enter	Key.enter	n/a
260.6925	10.24	521385	prompt	n/a	disorder myers decorative meyer\n
261.3605	0.09	522721	keystroke_d	d	n/a
261.4955	0.09	522991	keystroke_i	i	n/a
261.6455	0.09	523291	keystroke_s	s	n/a
262.1255	0.121	524251	keystroke_o	o	n/a
262.2605	0.09	524521	keystroke_r	r	n/a
262.6505	0.075	525301	keystroke_d	d	n/a
263.5955	0.09	527191	keystroke_e	e	n/a
263.9705	0.06	527941	keystroke_r	r	n/a
264.2555	0.09	528511	keystroke_Key.space	Key.space	n/a
264.7955	0.075	529591	keystroke_m	m	n/a
265.0205	0.06	530041	keystroke_y	y	n/a
265.3055	0.12	530611	keystroke_e	e	n/a
265.3805	0.105	530761	keystroke_r	r	n/a
265.6805	0.105	531361	keystroke_s	s	n/a
265.8155	0.105	531631	keystroke_Key.space	Key.space	n/a
266.1755	0.075	532351	keystroke_d	d	n/a
266.3555	0.06	532711	keystroke_e	e	n/a
266.5665	0.105	533133	keystroke_c	c	n/a
266.7155	0.12	533431	keystroke_o	o	n/a
266.8655	0.135	533731	keystroke_r	r	n/a
267.0455	0.18	534091	keystroke_a	a	n/a
267.2105	0.12	534421	keystroke_t	t	n/a
267.3455	0.09	534691	keystroke_i	i	n/a
267.4965	0.194	534993	keystroke_v	v	n/a
267.6605	0.195	535321	keystroke_e	e	n/a
267.8405	0.12	535681	keystroke_Key.space	Key.space	n/a
268.6965	0.089	537393	keystroke_m	m	n/a
268.8005	0.105	537601	keystroke_e	e	n/a
270.3455	0.075	540691	keystroke_y	y	n/a
270.4655	0.151	540931	keystroke_e	e	n/a
270.5705	0.105	541141	keystroke_r	r	n/a
270.8405	0.09	541681	keystroke_Key.enter	Key.enter	n/a
270.9375	7.075	541875	prompt	n/a	seminar compact awareness ministry\n
271.6205	0.15	543241	keystroke_s	s	n/a
271.7555	0.09	543511	keystroke_e	e	n/a
271.8605	0.075	543721	keystroke_m	m	n/a
272.0105	0.135	544021	keystroke_i	i	n/a
272.1155	0.09	544231	keystroke_n	n	n/a
272.2505	0.18	544501	keystroke_a	a	n/a
272.3855	0.12	544771	keystroke_r	r	n/a
272.5205	0.09	545041	keystroke_Key.space	Key.space	n/a
272.7915	0.104	545583	keystroke_c	c	n/a
273.3005	0.105	546601	keystroke_o	o	n/a
273.4215	0.074	546843	keystroke_m	m	n/a
273.6165	0.119	547233	keystroke_p	p	n/a
273.7205	0.105	547441	keystroke_a	a	n/a
274.0955	0.121	548191	keystroke_c	c	n/a
274.2605	0.075	548521	keystroke_t	t	n/a
274.3655	0.105	548731	keystroke_Key.space	Key.space	n/a
274.5755	0.105	549151	keystroke_a	a	n/a
274.8465	0.119	549693	keystroke_w	w	n/a
275.0705	0.18	550141	keystroke_a	a	n/a
275.2515	0.12	550503	keystroke_r	r	n/a
275.3105	0.12	550621	keystroke_e	e	n/a
275.5805	0.075	551161	keystroke_n	n	n/a
275.6705	0.075	551341	keystroke_e	e	n/a
275.8805	0.06	551761	keystroke_s	s	n/a
276.015	0.105	552030	keystroke_s	s	n/a
276.15	0.1055	552300	keystroke_Key.space	Key.space	n/a
276.3005	0.0905	552601	keystroke_m	m	n/a
276.42	0.0905	552840	keystroke_i	i	n/a
276.6005	0.0595	553201	keystroke_n	n	n/a
276.7065	0.1345	553413	keystroke_i	i	n/a
276.7665	0.1335	553533	keystroke_s	s	n/a
276.9455	0.0895	553891	keystroke_t	t	n/a
277.666	0.104	555332	keystroke_r	r	n/a
277.7265	0.074	555453	keystroke_y	y	n/a
277.9205	0.0895	555841	keystroke_Key.enter	Key.enter	n/a
278.0195	10.344	556039	prompt	n/a	appearance receptors peaceful precisely\n
278.7	0.15	557400	keystroke_a	a	n/a
278.91	0.046	557820	keystroke_p	p	n/a
279.3	0.105	558600	keystroke_p	p	n/a
279.525	0.15	559050	keystroke_e	e	n/a
280.276	0.12	560552	keystroke_r	r	n/a
281.43	0.105	562860	keystroke_Key.backspace	Key.backspace	n/a
281.641	0.134	563282	keystroke_a	a	n/a
282.331	0.134	564662	keystroke_r	r	n/a
282.556	0.119	565112	keystroke_a	a	n/a
282.676	0.09	565352	keystroke_n	n	n/a
282.78	0.091	565560	keystroke_c	c	n/a
282.946	0.104	565892	keystroke_e	e	n/a
283.08	0.105	566160	keystroke_Key.space	Key.space	n/a
283.35	0.151	566700	keystroke_r	r	n/a
283.456	0.09	566912	keystroke_e	e	n/a
283.696	0.074	567392	keystroke_c	c	n/a
283.86	0.12	567720	keystroke_e	e	n/a
283.996	0.104	567992	keystroke_p	p	n/a
284.146	0.104	568292	keystroke_t	t	n/a
284.296	0.119	568592	keystroke_o	o	n/a
284.4	0.09	568800	keystroke_r	r	n/a
284.655	0.121	569310	keystroke_s	s	n/a
284.76	0.12	569520	keystroke_Key.space	Key.space	n/a
285.225	0.121	570450	keystroke_p	p	n/a
285.33	0.06	570660	keystroke_e	e	n/a
285.51	0.105	571020	keystroke_a	a	n/a
285.72	0.076	571440	keystroke_c	c	n/a
285.901	0.059	571802	keystroke_e	e	n/a
286.111	0.105	572222	keystroke_f	f	n/a
286.2	0.046	572400	keystroke_u	u	n/a
286.335	0.12	572670	keystroke_l	l	n/a
286.47	0.09	572940	keystroke_Key.space	Key.space	n/a
286.725	0.121	573450	keystroke_p	p	n/a
286.921	0.134	573842	keystroke_r	r	n/a
287.01	0.075	574020	keystroke_e	e	n/a
287.236	0.105	574472	keystroke_c	c	n/a
287.325	0.091	574650	keystroke_i	i	n/a
287.506	0.15	575012	keystroke_s	s	n/a
287.791	0.12	575582	keystroke_e	e	n/a
287.926	0.09	575852	keystroke_l	l	n/a
288.121	0.045	576242	keystroke_y	y	n/a
288.286	0.074	576572	keystroke_Key.enter	Key.enter	n/a
288.369	10.1335	576738	prompt	n/a	weeks andrews meetings angola\n
288.931	0.09	577862	keystroke_w	w	n/a
289.141	0.029	578282	keystroke_e	e	n/a
289.245	0.076	578490	keystroke_e	e	n/a
289.38	0.105	578760	keystroke_k	k	n/a
289.501	0.105	579002	keystroke_s	s	n/a
289.636	0.105	579272	keystroke_Key.space	Key.space	n/a
289.921	0.075	579842	keystroke_s	s	n/a
290.805	0.136	581610	keystroke_a	a	n/a
290.955	0.075	581910	keystroke_n	n	n/a
291.091	0.089	582182	keystroke_d	d	n/a
291.466	0.089	582932	keystroke_r	r	n/a
291.87	0.09	583740	keystroke_Key.backspace	Key.backspace	n/a
292.2	0.09	584400	keystroke_Key.backspace	Key.backspace	n/a
292.455	0.09	584910	keystroke_Key.backspace	Key.backspace	n/a
292.681	0.074	585362	keystroke_Key.backspace	Key.backspace	n/a
292.86	0.075	585720	keystroke_Key.backspace	Key.backspace	n/a
293.116	0.104	586232	keystroke_a	a	n/a
293.641	0.09	587282	keystroke_n	n	n/a
293.776	0.09	587552	keystroke_d	d	n/a
294.016	0.135	588032	keystroke_r	r	n/a
294.091	0.165	588182	keystroke_e	e	n/a
294.346	0.105	588692	keystroke_w	w	n/a
294.616	0.105	589232	keystroke_s	s	n/a
294.825	0.105	589650	keystroke_Key.space	Key.space	n/a
295.171	0.074	590342	keystroke_m	m	n/a
295.306	0.044	590612	keystroke_e	e	n/a
295.441	0.135	590882	keystroke_e	e	n/a
295.621	0.12	591242	keystroke_t	t	n/a
295.756	0.165	591512	keystroke_i	i	n/a
295.906	0.074	591812	keystroke_n	n	n/a
296.071	0.105	592142	keystroke_g	g	n/a
296.596	0.135	593192	keystroke_s	s	n/a
296.776	0.09	593552	keystroke_Key.space	Key.space	n/a
297.301	0.15	594602	keystroke_a	a	n/a
297.405	0.076	594810	keystroke_n	n	n/a
297.631	0.12	595262	keystroke_g	g	n/a
297.766	0.075	595532	keystroke_o	o	n/a
297.946	0.105	595892	keystroke_l	l	n/a
298.081	0.12	596162	keystroke_a	a	n/a
298.426	0.075	596852	keystroke_Key.enter	Key.enter	n/a
298.507	6.536	597014	prompt	n/a	genuine factor holly leone\n
299.221	0.075	598442	keystroke_g	g	n/a
299.401	0.09	598802	keystroke_e	e	n/a
299.566	0.075	599132	keystroke_n	n	n/a
299.911	0.045	599822	keystroke_u	u	n/a
300.046	0.075	600092	keystroke_i	i	n/a
300.241	0.075	600482	keystroke_n	n	n/a
300.346	0.075	600692	keystroke_e	e	n/a
300.556	0.12	601112	keystroke_d	d	n/a
301.171	0.06	602342	keystroke_Key.backspace	Key.backspace	n/a
301.35	0.106	602700	keystroke_Key.space	Key.space	n/a
301.621	0.135	603242	keystroke_f	f	n/a
301.726	0.12	603452	keystroke_a	a	n/a
301.921	0.21	603842	keystroke_c	c	n/a
302.116	0.09	604232	keystroke_t	t	n/a
302.221	0.12	604442	keystroke_o	o	n/a
302.356	0.09	604712	keystroke_r	r	n/a
302.596	0.105	605192	keystroke_Key.space	Key.space	n/a
303.031	0.06	606062	keystroke_h	h	n/a
303.166	0.075	606332	keystroke_o	o	n/a
303.346	0.075	606692	keystroke_l	l	n/a
303.481	0.045	606962	keystroke_l	l	n/a
303.661	0.045	607322	keystroke_y	y	n/a
303.766	0.12	607532	keystroke_Key.space	Key.space	n/a
303.886	0.09	607772	keystroke_l	l	n/a
303.991	0.12	607982	keystroke_e	e	n/a
304.261	0.105	608522	keystroke_o	o	n/a
304.531	0.105	609062	keystroke_n	n	n/a
304.696	0.105	609392	keystroke_e	e	n/a
304.966	0.075	609932	keystroke_Key.enter	Key.enter	n/a
305.0485	8.7695	610097	prompt	n/a	baltimore notices encryption steven\n
306.031	0.09	612062	keystroke_b	b	n/a
306.226	0.135	612452	keystroke_a	a	n/a
306.526	0.105	613052	keystroke_l	l	n/a
306.856	0.12	613712	keystroke_t	t	n/a
306.946	0.075	613892	keystroke_i	i	n/a
307.141	0.06	614282	keystroke_m	m	n/a
307.261	0.105	614522	keystroke_o	o	n/a
307.381	0.165	614762	keystroke_r	r	n/a
307.486	0.15	614972	keystroke_e	e	n/a
307.591	0.09	615182	keystroke_Key.space	Key.space	n/a
307.786	0.075	615572	keystroke_n	n	n/a
307.891	0.12	615782	keystroke_o	o	n/a
308.026	0.09	616052	keystroke_t	t	n/a
308.146	0.09	616292	keystroke_i	i	n/a
308.266	0.075	616532	keystroke_c	c	n/a
308.431	0.075	616862	keystroke_e	e	n/a
308.611	0.12	617222	keystroke_s	s	n/a
308.746	0.135	617492	keystroke_Key.space	Key.space	n/a
310.261	0.09	620522	keystroke_e	e	n/a
310.381	0.09	620762	keystroke_n	n	n/a
310.561	0.105	621122	keystroke_c	c	n/a
310.786	0.12	621572	keystroke_r	r	n/a
310.921	0.06	621842	keystroke_y	y	n/a
311.176	0.075	622352	keystroke_p	p	n/a
311.341	0.105	622682	keystroke_t	t	n/a
311.461	0.06	622922	keystroke_i	i	n/a
311.551	0.165	623102	keystroke_o	o	n/a
311.686	0.09	623372	keystroke_n	n	n/a
311.791	0.105	623582	keystroke_Key.space	Key.space	n/a
312.076	0.105	624152	keystroke_s	s	n/a
312.256	0.105	624512	keystroke_t	t	n/a
312.406	0.165	624812	keystroke_e	e	n/a
313.171	0.12	626342	keystroke_v	v	n/a
313.261	0.12	626522	keystroke_e	e	n/a
313.486	0.09	626972	keystroke_n	n	n/a
313.741	0.075	627482	keystroke_Key.enter	Key.enter	n/a
313.8235	9.5345	627647	prompt	n/a	pleasant sections activated spokesman\n
314.506	0.09	629012	keystroke_p	p	n/a
314.776	0.09	629552	keystroke_l	l	n/a
314.851	0.12	629702	keystroke_e	e	n/a
315.121	0.135	630242	keystroke_a	a	n/a
315.496	0.12	630992	keystroke_s	s	n/a
315.601	0.15	631202	keystroke_a	a	n/a
315.736	0.075	631472	keystroke_n	n	n/a
315.886	0.09	631772	keystroke_t	t	n/a
316.021	0.06	632042	keystroke_Key.space	Key.space	n/a
316.186	0.135	632372	keystroke_s	s	n/a
316.321	0.075	632642	keystroke_e	e	n/a
316.531	0.165	633062	keystroke_c	c	n/a
316.666	0.135	633332	keystroke_t	t	n/a
316.786	0.12	633572	keystroke_i	i	n/a
316.861	0.195	633722	keystroke_o	o	n/a
316.996	0.075	633992	keystroke_n	n	n/a
317.056	0.135	634112	keystroke_s	s	n/a
317.206	0.105	634412	keystroke_Key.space	Key.space	n/a
317.386	0.12	634772	keystroke_a	a	n/a
317.626	0.105	635252	keystroke_c	c	n/a
317.641	0.015	635282	keystroke_s	s	n/a
317.776	0.105	635552	keystroke_t	t	n/a
317.896	0.09	635792	keystroke_i	i	n/a
319.051	0.075	638102	keystroke_Key.backspace	Key.backspace	n/a
319.381	0.09	638762	keystroke_Key.backspace	Key.backspace	n/a
319.681	0.075	639362	keystroke_Key.backspace	Key.backspace	n/a
320.251	0.06	640502	keystroke_t	t	n/a
320.356	0.075	640712	keystroke_i	i	n/a
320.491	0.12	640982	keystroke_v	v	n/a
320.596	0.15	641192	keystroke_a	a	n/a
320.716	0.15	641432	keystroke_t	t	n/a
320.836	0.075	641672	keystroke_e	e	n/a
321.091	0.09	642182	keystroke_d	d	n/a
321.226	0.105	642452	keystroke_Key.space	Key.space	n/a
321.766	0.135	643532	keystroke_s	s	n/a
321.916	0.075	643832	keystroke_p	p	n/a
322.096	0.09	644192	keystroke_o	o	n/a
322.381	0.09	644762	keystroke_k	k	n/a
322.456	0.06	644912	keystroke_e	e	n/a
322.621	0.12	645242	keystroke_s	s	n/a
322.846	0.075	645692	keystroke_m	m	n/a
322.936	0.12	645872	keystroke_a	a	n/a
323.041	0.075	646082	keystroke_n	n	n/a
323.281	0.075	646562	keystroke_Key.enter	Key.enter	n/a
323.3615	8.2755	646723	prompt	n/a	love treatments celtic you're\n
324.166	0.075	648332	keystroke_l	l	n/a
324.361	0.09	648722	keystroke_o	o	n/a
324.481	0.135	648962	keystroke_v	v	n/a
324.571	0.195	649142	keystroke_e	e	n/a
324.721	0.105	649442	keystroke_Key.space	Key.space	n/a
324.916	0.09	649832	keystroke_t	t	n/a
325.111	0.135	650222	keystroke_r	r	n/a
325.201	0.165	650402	keystroke_e	e	n/a
326.026	0.15	652052	keystroke_a	a	n/a
326.206	0.09	652412	keystroke_t	t	n/a
326.461	0.075	652922	keystroke_m	m	n/a
326.537	0.134	653074	keystroke_e	e	n/a
326.656	0.075	653312	keystroke_n	n	n/a
326.746	0.09	653492	keystroke_t	t	n/a
326.9255	0.1505	653851	keystroke_s	s	n/a
327.106	0.105	654212	keystroke_Key.space	Key.space	n/a
327.5255	0.12	655051	keystroke_c	c	n/a
327.9605	0.0755	655921	keystroke_e	e	n/a
328.2455	0.12	656491	keystroke_l	l	n/a
328.411	0.1045	656822	keystroke_t	t	n/a
328.5455	0.09	657091	keystroke_i	i	n/a
328.726	0.1195	657452	keystroke_c	c	n/a
328.8465	0.1045	657693	keystroke_Key.space	Key.space	n/a
329.1755	0.0755	658351	keystroke_y	y	n/a
329.326	0.1345	658652	keystroke_o	o	n/a
329.4905	0.105	658981	keystroke_u	u	n/a
330.3755	0.105	660751	keystroke_'	'	n/a
330.5555	0.15	661111	keystroke_r	r	n/a
330.6455	0.12	661291	keystroke_e	e	n/a
331.5455	0.09	663091	keystroke_Key.enter	Key.enter	n/a
331.643	5.499	663286	prompt	n/a	sword measure diving decided\n
332.3705	0.135	664741	keystroke_s	s	n/a
332.6865	0.119	665373	keystroke_w	w	n/a
332.8205	0.12	665641	keystroke_o	o	n/a
332.9705	0.135	665941	keystroke_r	r	n/a
333.3755	0.105	666751	keystroke_d	d	n/a
333.4955	0.12	666991	keystroke_Key.space	Key.space	n/a
333.7655	0.09	667531	keystroke_m	m	n/a
333.8705	0.09	667741	keystroke_e	e	n/a
334.0355	0.105	668071	keystroke_a	a	n/a
334.2155	0.12	668431	keystroke_s	s	n/a
334.3205	0.06	668641	keystroke_u	u	n/a
334.4405	0.165	668881	keystroke_r	r	n/a
334.5755	0.136	669151	keystroke_e	e	n/a
334.7405	0.105	669481	keystroke_Key.space	Key.space	n/a
334.9505	0.12	669901	keystroke_d	d	n/a
335.1005	0.075	670201	keystroke_i	i	n/a
335.2655	0.09	670531	keystroke_v	v	n/a
335.3705	0.15	670741	keystroke_i	i	n/a
335.4455	0.12	670891	keystroke_n	n	n/a
335.5805	0.12	671161	keystroke_g	g	n/a
335.6705	0.09	671341	keystroke_Key.space	Key.space	n/a
336.0305	0.06	672061	keystroke_d	d	n/a
336.1655	0.06	672331	keystroke_e	e	n/a
336.3605	0.105	672721	keystroke_c	c	n/a
336.4505	0.09	672901	keystroke_i	i	n/a
336.5555	0.075	673111	keystroke_d	d	n/a
336.7205	0.045	673441	keystroke_e	e	n/a
336.9005	0.105	673801	keystroke_d	d	n/a
337.0505	0.09	674101	keystroke_Key.enter	Key.enter	n/a
337.146	9.5965	674292	prompt	n/a	opinions retained conduct bang\n
338.1305	0.09	676261	keystroke_o	o	n/a
338.3255	0.09	676651	keystroke_p	p	n/a
338.5205	0.06	677041	keystroke_i	i	n/a
338.7305	0.06	677461	keystroke_n	n	n/a
338.8655	0.075	677731	keystroke_i	i	n/a
339.0155	0.09	678031	keystroke_o	o	n/a
339.1505	0.075	678301	keystroke_n	n	n/a
339.2705	0.15	678541	keystroke_s	s	n/a
339.4055	0.09	678811	keystroke_Key.space	Key.space	n/a
340.0055	0.12	680011	keystroke_r	r	n/a
340.0505	0.15	680101	keystroke_e	e	n/a
340.2305	0.135	680461	keystroke_l	l	n/a
340.3205	0.12	680641	keystroke_t	t	n/a
340.4255	0.18	680851	keystroke_a	a	n/a
340.5605	0.15	681121	keystroke_i	i	n/a
340.6655	0.075	681331	keystroke_n	n	n/a
340.7255	0.075	681451	keystroke_e	e	n/a
341.4305	0.075	682861	keystroke_Key.backspace	Key.backspace	n/a
341.7005	0.0895	683401	keystroke_Key.backspace	Key.backspace	n/a
341.91	0.09	683820	keystroke_Key.backspace	Key.backspace	n/a
342.18	0.09	684360	keystroke_Key.backspace	Key.backspace	n/a
342.421	0.089	684842	keystroke_Key.backspace	Key.backspace	n/a
342.66	0.091	685320	keystroke_Key.backspace	Key.backspace	n/a
342.826	0.15	685652	keystroke_t	t	n/a
342.946	0.18	685892	keystroke_a	a	n/a
343.11	0.136	686220	keystroke_i	i	n/a
343.2	0.121	686400	keystroke_n	n	n/a
343.305	0.075	686610	keystroke_e	e	n/a
343.516	0.09	687032	keystroke_d	d	n/a
343.651	0.12	687302	keystroke_Key.space	Key.space	n/a
344.491	0.12	688982	keystroke_c	c	n/a
344.626	0.119	689252	keystroke_o	o	n/a
345.166	0.09	690332	keystroke_n	n	n/a
345.361	0.09	690722	keystroke_d	d	n/a
345.465	0.061	690930	keystroke_u	u	n/a
345.601	0.165	691202	keystroke_c	c	n/a
345.751	0.105	691502	keystroke_t	t	n/a
345.856	0.104	691712	keystroke_Key.space	Key.space	n/a
346.051	0.06	692102	keystroke_b	b	n/a
346.141	0.12	692282	keystroke_a	a	n/a
346.291	0.075	692582	keystroke_n	n	n/a
346.411	0.09	692822	keystroke_d	d	n/a
346.681	0.059	693362	keystroke_Key.enter	Key.enter	n/a
346.747	9.1905	693494	prompt	n/a	view contracting pixels respiratory\n
347.7605	0.105	695521	keystroke_v	v	n/a
347.8805	0.075	695761	keystroke_i	i	n/a
347.9705	0.12	695941	keystroke_e	e	n/a
348.076	0.1345	696152	keystroke_w	w	n/a
348.225	0.1055	696450	keystroke_Key.space	Key.space	n/a
348.5405	0.105	697081	keystroke_c	c	n/a
348.6155	0.075	697231	keystroke_o	o	n/a
348.7955	0.09	697591	keystroke_n	n	n/a
348.9155	0.075	697831	keystroke_t	t	n/a
349.0805	0.15	698161	keystroke_r	r	n/a
349.2155	0.12	698431	keystroke_a	a	n/a
349.4555	0.15	698911	keystroke_c	c	n/a
349.8605	0.09	699721	keystroke_t	t	n/a
350.0105	0.105	700021	keystroke_i	i	n/a
350.1605	0.075	700321	keystroke_n	n	n/a
350.2805	0.135	700561	keystroke_g	g	n/a
350.4155	0.09	700831	keystroke_Key.space	Key.space	n/a
351.2705	0.075	702541	keystroke_p	p	n/a
351.4655	0.075	702931	keystroke_i	i	n/a
351.6005	0.105	703201	keystroke_c	c	n/a
352.3805	0.075	704761	keystroke_Key.backspace	Key.backspace	n/a
352.4855	0.12	704971	keystroke_x	x	n/a
352.6955	0.09	705391	keystroke_e	e	n/a
352.8155	0.135	705631	keystroke_l	l	n/a
353.0255	0.075	706051	keystroke_s	s	n/a
353.6255	0.12	707251	keystroke_Key.space	Key.space	n/a
354.0605	0.135	708121	keystroke_r	r	n/a
354.1505	0.09	708301	keystroke_e	e	n/a
354.3455	0.105	708691	keystroke_s	s	n/a
354.6455	0.12	709291	keystroke_p	p	n/a
354.8705	0.075	709741	keystroke_i	i	n/a
355.0655	0.135	710131	keystroke_r	r	n/a
355.2155	0.135	710431	keystroke_a	a	n/a
355.3205	0.105	710641	keystroke_t	t	n/a
355.4405	0.105	710881	keystroke_o	o	n/a
355.5305	0.135	711061	keystroke_r	r	n/a
355.6805	0.06	711361	keystroke_y	y	n/a
355.8605	0.075	711721	keystroke_Key.enter	Key.enter	n/a
355.9415	8.006	711883	prompt	n/a	advisor remember wireless guided\n
356.6855	0.105	713371	keystroke_a	a	n/a
356.8955	0.09	713791	keystroke_d	d	n/a
357.1205	0.12	714241	keystroke_v	v	n/a
357.2255	0.075	714451	keystroke_i	i	n/a
357.3905	0.075	714781	keystroke_s	s	n/a
357.4665	0.104	714933	keystroke_o	o	n/a
357.5855	0.09	715171	keystroke_r	r	n/a
357.7055	0.09	715411	keystroke_Key.space	Key.space	n/a
358.1255	0.165	716251	keystroke_r	r	n/a
358.2755	0.09	716551	keystroke_e	e	n/a
358.4105	0.09	716821	keystroke_m	m	n/a
358.5305	0.105	717061	keystroke_e	e	n/a
358.7255	0.075	717451	keystroke_m	m	n/a
359.1605	0.06	718321	keystroke_b	b	n/a
359.2355	0.12	718471	keystroke_e	e	n/a
359.3255	0.105	718651	keystroke_r	r	n/a
359.7455	0.105	719491	keystroke_Key.space	Key.space	n/a
360.4205	0.09	720841	keystroke_Key.backspace	Key.backspace	n/a
361.4105	0.105	722821	keystroke_Key.space	Key.space	n/a
361.6655	0.105	723331	keystroke_w	w	n/a
361.7555	0.09	723511	keystroke_i	i	n/a
361.8755	0.12	723751	keystroke_r	r	n/a
361.9355	0.135	723871	keystroke_e	e	n/a
362.0855	0.135	724171	keystroke_l	l	n/a
362.1905	0.09	724381	keystroke_e	e	n/a
362.4155	0.06	724831	keystroke_s	s	n/a
362.5355	0.105	725071	keystroke_s	s	n/a
362.6705	0.105	725341	keystroke_Key.space	Key.space	n/a
362.9405	0.135	725881	keystroke_g	g	n/a
363.0605	0.06	726121	keystroke_u	u	n/a
363.1955	0.12	726391	keystroke_i	i	n/a
363.4355	0.075	726871	keystroke_d	d	n/a
363.5705	0.06	727141	keystroke_e	e	n/a
363.7355	0.12	727471	keystroke_d	d	n/a
363.8705	0.075	727741	keystroke_Key.enter	Key.enter	n/a
363.9545	10.898	727909	prompt	n/a	chicago deer merchants southwest\n
364.5905	0.09	729181	keystroke_c	c	n/a
364.8005	0.06	729601	keystroke_h	h	n/a
364.9205	0.09	729841	keystroke_i	i	n/a
365.0705	0.15	730141	keystroke_c	c	n/a
365.2055	0.15	730411	keystroke_a	a	n/a
365.4305	0.12	730861	keystroke_g	g	n/a
365.5655	0.105	731131	keystroke_o	o	n/a
365.6715	0.074	731343	keystroke_Key.space	Key.space	n/a
365.8655	0.075	731731	keystroke_d	d	n/a
366.1805	0.075	732361	keystroke_e	e	n/a
366.3755	0.09	732751	keystroke_e	e	n/a
366.5555	0.135	733111	keystroke_r	r	n/a
366.6755	0.135	733351	keystroke_Key.space	Key.space	n/a
366.9155	0.09	733831	keystroke_m	m	n/a
367.3055	0.165	734611	keystroke_e	e	n/a
367.4405	0.09	734881	keystroke_r	r	n/a
367.9805	0.135	735961	keystroke_c	c	n/a
368.1605	0.075	736321	keystroke_j	j	n/a
369.2705	0.075	738541	keystroke_Key.backspace	Key.backspace	n/a
369.5855	0.09	739171	keystroke_Key.backspace	Key.backspace	n/a
371.0555	0.105	742111	keystroke_c	c	n/a
371.1755	0.075	742351	keystroke_h	h	n/a
371.4605	0.18	742921	keystroke_a	a	n/a
371.6255	0.09	743251	keystroke_n	n	n/a
371.9405	0.105	743881	keystroke_t	t	n/a
372.1955	0.09	744391	keystroke_s	s	n/a
372.4355	0.12	744871	keystroke_Key.space	Key.space	n/a
372.9155	0.15	745831	keystroke_s	s	n/a
373.0505	0.09	746101	keystroke_o	o	n/a
373.3955	0.06	746791	keystroke_u	u	n/a
373.5605	0.105	747121	keystroke_t	t	n/a
373.6665	0.059	747333	keystroke_h	h	n/a
373.8755	0.09	747751	keystroke_w	w	n/a
374.1005	0.09	748201	keystroke_e	e	n/a
374.3855	0.12	748771	keystroke_s	s	n/a
374.5355	0.09	749071	keystroke_t	t	n/a
374.7605	0.09	749521	keystroke_Key.enter	Key.enter	n/a
374.8575	11.3795	749715	prompt	n/a	lyrics be aggressive avatar\n
375.5705	0.075	751141	keystroke_l	l	n/a
375.7505	0.06	751501	keystroke_y	y	n/a
375.9455	0.09	751891	keystroke_r	r	n/a
376.0505	0.06	752101	keystroke_i	i	n/a
376.2005	0.075	752401	keystroke_c	c	n/a
376.3805	0.12	752761	keystroke_s	s	n/a
376.4855	0.105	752971	keystroke_Key.space	Key.space	n/a
376.6955	0.06	753391	keystroke_b	b	n/a
376.8005	0.09	753601	keystroke_e	e	n/a
376.9955	0.12	753991	keystroke_Key.space	Key.space	n/a
377.2355	0.12	754471	keystroke_a	a	n/a
377.4155	0.075	754831	keystroke_g	g	n/a
377.5955	0.045	755191	keystroke_g	g	n/a
377.7755	0.135	755551	keystroke_r	r	n/a
378.6005	0.06	757201	keystroke_e	e	n/a
378.8105	0.06	757621	keystroke_s	s	n/a
378.9455	0.09	757891	keystroke_s	s	n/a
379.0505	0.09	758101	keystroke_i	i	n/a
379.1855	0.135	758371	keystroke_v	v	n/a
379.2155	0.075	758431	keystroke_b	b	n/a
379.2755	0.18	758551	keystroke_e	e	n/a
379.3955	0.105	758791	keystroke_Key.space	Key.space	n/a
379.6505	0.09	759301	keystroke_a	a	n/a
379.8755	0.12	759751	keystroke_v	v	n/a
379.9655	0.18	759931	keystroke_a	a	n/a
380.1605	0.09	760321	keystroke_t	t	n/a
380.4905	0.15	760981	keystroke_a	a	n/a
380.6105	0.09	761221	keystroke_r	r	n/a
381.4955	0.09	762991	keystroke_Key.backspace	Key.backspace	n/a
381.7055	0.09	763411	keystroke_Key.backspace	Key.backspace	n/a
381.8855	0.105	763771	keystroke_Key.backspace	Key.backspace	n/a
382.0805	0.1045	764161	keystroke_Key.backspace	Key.backspace	n/a
382.29	0.1055	764580	keystroke_Key.backspace	Key.backspace	n/a
382.5155	0.075	765031	keystroke_Key.backspace	Key.backspace	n/a
382.7555	0.1045	765511	keystroke_Key.backspace	Key.backspace	n/a
383.0255	0.105	766051	keystroke_Key.backspace	Key.backspace	n/a
383.325	0.12	766650	keystroke_Key.backspace	Key.backspace	n/a
384.525	0.09	769050	keystroke_e	e	n/a
384.63	0.12	769260	keystroke_Key.space	Key.space	n/a
384.84	0.105	769680	keystroke_a	a	n/a
384.99	0.135	769980	keystroke_v	v	n/a
385.095	0.15	770190	keystroke_a	a	n/a
385.29	0.105	770580	keystroke_t	t	n/a
385.44	0.166	770880	keystroke_a	a	n/a
385.575	0.09	771150	keystroke_r	r	n/a
386.145	0.09	772290	keystroke_Key.enter	Key.enter	n/a
386.2415	10.1665	772483	prompt	n/a	migration blind injury blame\n
386.97	0.06	773940	keystroke_m	m	n/a
387.105	0.075	774210	keystroke_i	i	n/a
387.24	0.075	774480	keystroke_g	g	n/a
387.435	0.105	774870	keystroke_r	r	n/a
387.525	0.15	775050	keystroke_a	a	n/a
387.63	0.12	775260	keystroke_t	t	n/a
387.765	0.09	775530	keystroke_i	i	n/a
387.87	0.195	775740	keystroke_o	o	n/a
388.005	0.075	776010	keystroke_n	n	n/a
388.095	0.135	776190	keystroke_Key.space	Key.space	n/a
388.425	0.075	776850	keystroke_n	n	n/a
389.52	0.105	779040	keystroke_Key.backspace	Key.backspace	n/a
389.821	0.089	779642	keystroke_b	b	n/a
390.075	0.06	780150	keystroke_l	l	n/a
390.195	0.075	780390	keystroke_i	i	n/a
390.345	0.09	780690	keystroke_n	n	n/a
391.7705	0.075	783541	keystroke_d	d	n/a
391.8755	0.135	783751	keystroke_Key.space	Key.space	n/a
392.1005	0.075	784201	keystroke_j	j	n/a
392.2955	0.06	784591	keystroke_u	u	n/a
393.0605	0.105	786121	keystroke_Key.backspace	Key.backspace	n/a
393.2405	0.074	786481	keystroke_Key.backspace	Key.backspace	n/a
393.4355	0.135	786871	keystroke_i	i	n/a
393.5555	0.09	787111	keystroke_n	n	n/a
393.7805	0.06	787561	keystroke_j	j	n/a
393.9605	0.06	787921	keystroke_u	u	n/a
394.6955	0.12	789391	keystroke_r	r	n/a
394.8455	0.06	789691	keystroke_y	y	n/a
394.9655	0.135	789931	keystroke_Key.space	Key.space	n/a
395.2055	0.06	790411	keystroke_b	b	n/a
395.4155	0.105	790831	keystroke_l	l	n/a
395.7305	0.12	791461	keystroke_a	a	n/a
395.9405	0.06	791881	keystroke_m	m	n/a
396.1055	0.075	792211	keystroke_e	e	n/a
396.3005	0.105	792601	keystroke_Key.enter	Key.enter	n/a
396.4125	7.5095	792825	prompt	n/a	millions dare living democratic\n
397.1855	0.075	794371	keystroke_m	m	n/a
397.3505	0.06	794701	keystroke_i	i	n/a
397.5455	0.09	795091	keystroke_l	l	n/a
398.0555	0.075	796111	keystroke_l	l	n/a
398.2055	0.075	796411	keystroke_i	i	n/a
398.4005	0.105	796801	keystroke_o	o	n/a
398.5205	0.075	797041	keystroke_n	n	n/a
398.6555	0.15	797311	keystroke_s	s	n/a
398.7905	0.105	797581	keystroke_Key.space	Key.space	n/a
399.0005	0.135	798001	keystroke_d	d	n/a
399.1205	0.225	798241	keystroke_a	a	n/a
399.3305	0.18	798661	keystroke_r	r	n/a
399.4655	0.135	798931	keystroke_e	e	n/a
399.5705	0.12	799141	keystroke_Key.space	Key.space	n/a
399.7355	0.105	799471	keystroke_l	l	n/a
399.9305	0.075	799861	keystroke_i	i	n/a
400.0805	0.09	800161	keystroke_v	v	n/a
400.1855	0.165	800371	keystroke_i	i	n/a
400.2905	0.105	800581	keystroke_n	n	n/a
400.3355	0.135	800671	keystroke_g	g	n/a
400.4405	0.105	800881	keystroke_Key.space	Key.space	n/a
400.8905	0.075	801781	keystroke_d	d	n/a
401.0705	0.075	802141	keystroke_e	e	n/a
401.2205	0.075	802441	keystroke_m	m	n/a
401.3705	0.12	802741	keystroke_o	o	n/a
401.5805	0.09	803161	keystroke_c	c	n/a
401.8055	0.135	803611	keystroke_r	r	n/a
401.9255	0.225	803851	keystroke_a	a	n/a
402.1355	0.105	804271	keystroke_t	t	n/a
402.2705	0.075	804541	keystroke_i	i	n/a
402.4655	0.105	804931	keystroke_v	v	n/a
403.3355	0.09	806671	keystroke_Key.backspace	Key.backspace	n/a
403.4555	0.09	806911	keystroke_c	c	n/a
403.8455	0.075	807691	keystroke_Key.enter	Key.enter	n/a
403.927	9.6555	807854	prompt	n/a	emily request advert sodium\n
404.5505	0.09	809101	keystroke_e	e	n/a
404.6705	0.075	809341	keystroke_l	l	n/a
404.8505	0.045	809701	keystroke_i	i	n/a
405.8855	0.06	811771	keystroke_Key.backspace	Key.backspace	n/a
406.0655	0.06	812131	keystroke_Key.backspace	Key.backspace	n/a
406.3205	0.06	812641	keystroke_m	m	n/a
406.5155	0.045	813031	keystroke_i	i	n/a
406.6805	0.09	813361	keystroke_l	l	n/a
406.8755	0.045	813751	keystroke_y	y	n/a
407.2805	0.09	814561	keystroke_Key.space	Key.space	n/a
407.5205	0.135	815041	keystroke_r	r	n/a
407.5955	0.12	815191	keystroke_e	e	n/a
407.9405	0.015	815881	keystroke_q	q	n/a
407.9705	0.06	815941	keystroke_u	u	n/a
408.1205	0.105	816241	keystroke_e	e	n/a
408.3305	0.18	816661	keystroke_s	s	n/a
408.4805	0.12	816961	keystroke_t	t	n/a
408.5705	0.09	817141	keystroke_Key.space	Key.space	n/a
408.7655	0.12	817531	keystroke_a	a	n/a
408.9455	0.09	817891	keystroke_d	d	n/a
409.1705	0.105	818341	keystroke_v	v	n/a
409.3505	0.15	818701	keystroke_e	e	n/a
409.4405	0.105	818881	keystroke_r	r	n/a
409.6205	0.105	819241	keystroke_t	t	n/a
409.7405	0.09	819481	keystroke_Key.space	Key.space	n/a
409.9055	0.12	819811	keystroke_s	s	n/a
410.0855	0.105	820171	keystroke_o	o	n/a
410.4005	0.105	820801	keystroke_d	d	n/a
410.5205	0.075	821041	keystroke_i	i	n/a
410.7155	0.105	821431	keystroke_c	c	n/a
410.9855	0.045	821971	keystroke_u	u	n/a
411.6305	0.075	823261	keystroke_Key.backspace	Key.backspace	n/a
412.1105	0.105	824221	keystroke_Key.backspace	Key.backspace	n/a
412.2905	0.075	824581	keystroke_u	u	n/a
412.5455	0.06	825091	keystroke_m	m	n/a
413.4905	0.09	826981	keystroke_Key.enter	Key.enter	n/a
413.588	7.8245	827176	prompt	n/a	surprised erotica worthy variations\n
414.2555	0.135	828511	keystroke_s	s	n/a
414.3605	0.06	828721	keystroke_u	u	n/a
414.4805	0.12	828961	keystroke_r	r	n/a
414.7505	0.075	829501	keystroke_p	p	n/a
414.9605	0.045	829921	keystroke_i	i	n/a
415.6355	0.075	831271	keystroke_Key.backspace	Key.backspace	n/a
415.7705	0.12	831541	keystroke_r	r	n/a
415.9055	0.075	831811	keystroke_i	i	n/a
416.0105	0.15	832021	keystroke_s	s	n/a
416.1005	0.105	832201	keystroke_e	e	n/a
416.3255	0.12	832651	keystroke_d	d	n/a
416.4305	0.105	832861	keystroke_Key.space	Key.space	n/a
416.6855	0.075	833371	keystroke_e	e	n/a
416.9705	0.12	833941	keystroke_r	r	n/a
417.0755	0.09	834151	keystroke_o	o	n/a
417.2555	0.06	834511	keystroke_t	t	n/a
417.3605	0.075	834721	keystroke_i	i	n/a
417.5105	0.135	835021	keystroke_c	c	n/a
417.6605	0.18	835321	keystroke_a	a	n/a
418.2605	0.105	836521	keystroke_Key.space	Key.space	n/a
418.6655	0.135	837331	keystroke_w	w	n/a
418.7705	0.09	837541	keystroke_o	o	n/a
418.8755	0.09	837751	keystroke_r	r	n/a
419.1005	0.105	838201	keystroke_t	t	n/a
419.2055	0.045	838411	keystroke_h	h	n/a
419.3855	0.06	838771	keystroke_y	y	n/a
419.4755	0.105	838951	keystroke_Key.space	Key.space	n/a
419.7605	0.105	839521	keystroke_v	v	n/a
419.9705	0.135	839941	keystroke_a	a	n/a
420.2555	0.09	840511	keystroke_r	r	n/a
420.3605	0.075	840721	keystroke_i	i	n/a
420.4805	0.135	840961	keystroke_a	a	n/a
420.7505	0.09	841501	keystroke_t	t	n/a
420.8415	0.089	841683	keystroke_i	i	n/a
420.9755	0.21	841951	keystroke_o	o	n/a
421.0805	0.09	842161	keystroke_n	n	n/a
421.2155	0.105	842431	keystroke_s	s	n/a
421.3355	0.075	842671	keystroke_Key.enter	Key.enter	n/a
421.417	8.5005	842834	prompt	n/a	brad zshops uganda would've\n
422.1305	0.075	844261	keystroke_b	b	n/a
422.3555	0.165	844711	keystroke_r	r	n/a
423.0605	0.105	846121	keystroke_a	a	n/a
423.2855	0.105	846571	keystroke_d	d	n/a
423.4055	0.09	846811	keystroke_Key.space	Key.space	n/a
423.7505	0.105	847501	keystroke_z	z	n/a
424.2455	0.1045	848491	keystroke_s	s	n/a
424.365	0.0605	848730	keystroke_h	h	n/a
424.4705	0.1045	848941	keystroke_o	o	n/a
424.6205	0.1345	849241	keystroke_p	p	n/a
424.875	0.12	849750	keystroke_s	s	n/a
425.895	0.09	851790	keystroke_Key.space	Key.space	n/a
426.15	0.06	852300	keystroke_u	u	n/a
426.405	0.1505	852810	keystroke_g	g	n/a
426.51	0.15	853020	keystroke_a	a	n/a
426.6755	0.0895	853351	keystroke_n	n	n/a
426.825	0.18	853650	keystroke_d	d	n/a
426.975	0.15	853950	keystroke_a	a	n/a
427.53	0.165	855060	keystroke_Key.space	Key.space	n/a
428.0405	0.1345	856081	keystroke_w	w	n/a
428.13	0.105	856260	keystroke_o	o	n/a
428.22	0.06	856440	keystroke_u	u	n/a
428.355	0.135	856710	keystroke_l	l	n/a
428.475	0.105	856950	keystroke_d	d	n/a
428.85	0.135	857700	keystroke_'	'	n/a
429.03	0.135	858060	keystroke_v	v	n/a
429.135	0.135	858270	keystroke_e	e	n/a
429.825	0.09	859650	keystroke_Key.enter	Key.enter	n/a
429.9235	6.864	859847	prompt	n/a	consensus faster gregory delays\n
430.62	0.105	861240	keystroke_c	c	n/a
430.71	0.12	861420	keystroke_o	o	n/a
430.8	0.09	861600	keystroke_n	n	n/a
430.905	0.165	861810	keystroke_s	s	n/a
431.055	0.09	862110	keystroke_e	e	n/a
431.19	0.075	862380	keystroke_n	n	n/a
431.325	0.105	862650	keystroke_s	s	n/a
431.445	0.06	862890	keystroke_u	u	n/a
431.535	0.12	863070	keystroke_s	s	n/a
431.685	0.105	863370	keystroke_Key.space	Key.space	n/a
431.94	0.105	863880	keystroke_f	f	n/a
432.405	0.105	864810	keystroke_a	a	n/a
432.585	0.12	865170	keystroke_s	s	n/a
432.75	0.105	865500	keystroke_t	t	n/a
432.856	0.194	865712	keystroke_e	e	n/a
432.99	0.12	865980	keystroke_r	r	n/a
433.08	0.105	866160	keystroke_Key.space	Key.space	n/a
433.275	0.075	866550	keystroke_g	g	n/a
433.44	0.12	866880	keystroke_r	r	n/a
433.515	0.135	867030	keystroke_e	e	n/a
433.935	0.105	867870	keystroke_g	g	n/a
434.041	0.089	868082	keystroke_o	o	n/a
434.16	0.12	868320	keystroke_r	r	n/a
434.281	0.074	868562	keystroke_y	y	n/a
434.385	0.12	868770	keystroke_Key.space	Key.space	n/a
434.64	0.075	869280	keystroke_d	d	n/a
434.79	0.09	869580	keystroke_e	e	n/a
434.925	0.09	869850	keystroke_l	l	n/a
435.585	0.12	871170	keystroke_a	a	n/a
435.72	0.06	871440	keystroke_y	y	n/a
435.855	0.12	871710	keystroke_s	s	n/a
436.71	0.075	873420	keystroke_Key.enter	Key.enter	n/a
436.792	7.3755	873584	prompt	n/a	grand urls administrative reward\n
437.505	0.075	875010	keystroke_g	g	n/a
437.7	0.135	875400	keystroke_r	r	n/a
437.79	0.135	875580	keystroke_a	a	n/a
437.94	0.075	875880	keystroke_n	n	n/a
438.075	0.105	876150	keystroke_d	d	n/a
438.165	0.135	876330	keystroke_Key.space	Key.space	n/a
438.57	0.075	877140	keystroke_u	u	n/a
438.751	0.089	877502	keystroke_r	r	n/a
438.915	0.09	877830	keystroke_l	l	n/a
439.035	0.12	878070	keystroke_s	s	n/a
439.305	0.09	878610	keystroke_Key.space	Key.space	n/a
439.665	0.105	879330	keystroke_a	a	n/a
439.83	0.09	879660	keystroke_d	d	n/a
439.965	0.075	879930	keystroke_m	m	n/a
440.085	0.09	880170	keystroke_i	i	n/a
440.25	0.075	880500	keystroke_n	n	n/a
440.37	0.12	880740	keystroke_i	i	n/a
440.505	0.105	881010	keystroke_s	s	n/a
440.655	0.09	881310	keystroke_t	t	n/a
440.865	0.12	881730	keystroke_r	r	n/a
441.225	0.135	882450	keystroke_a	a	n/a
441.63	0.06	883260	keystroke_t	t	n/a
441.735	0.075	883470	keystroke_i	i	n/a
441.84	0.165	883680	keystroke_v	v	n/a
441.99	0.121	883980	keystroke_e	e	n/a
442.155	0.105	884310	keystroke_Key.space	Key.space	n/a
442.755	0.15	885510	keystroke_r	r	n/a
442.845	0.09	885690	keystroke_e	e	n/a
443.19	0.12	886380	keystroke_w	w	n/a
443.37	0.195	886740	keystroke_a	a	n/a
443.535	0.105	887070	keystroke_r	r	n/a
443.835	0.105	887670	keystroke_d	d	n/a
444.09	0.075	888180	keystroke_Key.enter	Key.enter	n/a
444.1725	6.85	888345	prompt	n/a	alex roots offers triangle\n
444.84	0.136	889680	keystroke_a	a	n/a
444.976	0.089	889952	keystroke_l	l	n/a
445.051	0.044	890102	keystroke_e	e	n/a
445.23	0.135	890460	keystroke_x	x	n/a
445.695	0.105	891390	keystroke_Key.space	Key.space	n/a
445.95	0.121	891900	keystroke_r	r	n/a
446.145	0.075	892290	keystroke_o	o	n/a
446.28	0.121	892560	keystroke_o	o	n/a
446.46	0.09	892920	keystroke_t	t	n/a
446.64	0.135	893280	keystroke_s	s	n/a
446.76	0.105	893520	keystroke_Key.space	Key.space	n/a
446.925	0.12	893850	keystroke_o	o	n/a
447.075	0.045	894150	keystroke_f	f	n/a
447.165	0.09	894330	keystroke_f	f	n/a
447.36	0.165	894720	keystroke_e	e	n/a
447.48	0.12	894960	keystroke_r	r	n/a
447.735	0.105	895470	keystroke_s	s	n/a
447.93	0.135	895860	keystroke_Key.space	Key.space	n/a
448.365	0.075	896730	keystroke_t	t	n/a
448.545	0.105	897090	keystroke_r	r	n/a
448.68	0.075	897360	keystroke_i	i	n/a
448.92	0.12	897840	keystroke_a	a	n/a
449.055	0.06	898110	keystroke_n	n	n/a
449.145	0.12	898290	keystroke_g	g	n/a
449.25	0.09	898500	keystroke_e	e	n/a
449.43	0.075	898860	keystroke_l	l	n/a
450.18	0.075	900360	keystroke_Key.backspace	Key.backspace	n/a
450.915	0.105	901830	keystroke_Key.enter	Key.enter	n/a
451.028	5.56	902056	prompt	n/a	aqua differ breast relations\n
451.74	0.135	903480	keystroke_a	a	n/a
452.086	0.119	904172	keystroke_q	q	n/a
452.19	0.075	904380	keystroke_u	u	n/a
452.446	0.119	904892	keystroke_a	a	n/a
452.58	0.09	905160	keystroke_Key.space	Key.space	n/a
452.806	0.09	905612	keystroke_d	d	n/a
452.91	0.076	905820	keystroke_i	i	n/a
453.195	0.061	906390	keystroke_f	f	n/a
453.301	0.104	906602	keystroke_f	f	n/a
453.78	0.135	907560	keystroke_e	e	n/a
453.8995	0.0915	907799	keystroke_r	r	n/a
454.0945	0.09	908189	keystroke_Key.space	Key.space	n/a
454.3645	0.075	908729	keystroke_b	b	n/a
454.486	0.1485	908972	keystroke_r	r	n/a
454.5445	0.18	909089	keystroke_e	e	n/a
454.7545	0.1655	909509	keystroke_a	a	n/a
454.9495	0.165	909899	keystroke_s	s	n/a
455.1295	0.091	910259	keystroke_t	t	n/a
455.1895	0.1055	910379	keystroke_Key.space	Key.space	n/a
455.415	0.1195	910830	keystroke_r	r	n/a
455.5055	0.09	911011	keystroke_e	e	n/a
455.6405	0.119	911281	keystroke_l	l	n/a
455.7455	0.134	911491	keystroke_a	a	n/a
455.8505	0.105	911701	keystroke_t	t	n/a
455.9705	0.09	911941	keystroke_i	i	n/a
456.0305	0.194	912061	keystroke_o	o	n/a
456.1355	0.074	912271	keystroke_n	n	n/a
456.1505	0.0145	912301	keystroke_i	i	n/a
456.2545	0.135	912509	keystroke_s	s	n/a
456.5405	0.044	913081	keystroke_Key.enter	Key.enter	n/a
456.5955	6.8025	913191	prompt	n/a	halo toner sarah housewares\n
457.7255	0.06	915451	keystroke_h	h	n/a
457.8605	0.135	915721	keystroke_a	a	n/a
457.9795	0.075	915959	keystroke_l	l	n/a
458.1605	0.074	916321	keystroke_o	o	n/a
458.3095	0.09	916619	keystroke_Key.space	Key.space	n/a
458.5655	0.09	917131	keystroke_t	t	n/a
458.6695	0.091	917339	keystroke_o	o	n/a
458.8355	0.075	917671	keystroke_n	n	n/a
458.9695	0.15	917939	keystroke_e	e	n/a
459.1645	0.121	918329	keystroke_r	r	n/a
459.3445	0.106	918689	keystroke_Key.space	Key.space	n/a
459.7055	0.12	919411	keystroke_s	s	n/a
459.8545	0.166	919709	keystroke_a	a	n/a
460.0345	0.12	920069	keystroke_r	r	n/a
460.1395	0.136	920279	keystroke_a	a	n/a
460.3195	0.061	920639	keystroke_h	h	n/a
460.4695	0.12	920939	keystroke_Key.space	Key.space	n/a
460.6945	0.075	921389	keystroke_h	h	n/a
460.7845	0.151	921569	keystroke_o	o	n/a
460.8895	0.091	921779	keystroke_u	u	n/a
461.0255	0.195	922051	keystroke_s	s	n/a
461.1605	0.12	922321	keystroke_e	e	n/a
462.0005	0.15	924001	keystroke_w	w	n/a
462.2095	0.166	924419	keystroke_a	a	n/a
462.4205	0.164	924841	keystroke_r	r	n/a
462.6305	0.135	925261	keystroke_e	e	n/a
462.9605	0.09	925921	keystroke_s	s	n/a
463.3045	0.091	926609	keystroke_Key.enter	Key.enter	n/a
463.403	9.879	926806	prompt	n/a	chrysler adaptation drain remix\n
464.0705	0.09	928141	keystroke_c	c	n/a
464.2945	0.076	928589	keystroke_h	h	n/a
464.5205	0.12	929041	keystroke_r	r	n/a
464.7295	0.061	929459	keystroke_y	y	n/a
464.9105	0.134	929821	keystroke_s	s	n/a
465.0755	0.105	930151	keystroke_l	l	n/a
465.2555	0.18	930511	keystroke_e	e	n/a
465.4795	0.106	930959	keystroke_r	r	n/a
465.6145	0.136	931229	keystroke_Key.space	Key.space	n/a
467.4455	0.12	934891	keystroke_d	d	n/a
468.2405	0.074	936481	keystroke_Key.backspace	Key.backspace	n/a
468.4055	0.12	936811	keystroke_a	a	n/a
468.6005	0.15	937201	keystroke_d	d	n/a
468.7355	0.135	937471	keystroke_a	a	n/a
469.9505	0.09	939901	keystroke_p	p	n/a
470.1455	0.12	940291	keystroke_t	t	n/a
470.2505	0.165	940501	keystroke_a	a	n/a
470.4305	0.12	940861	keystroke_t	t	n/a
470.5355	0.075	941071	keystroke_i	i	n/a
470.7005	0.15	941401	keystroke_o	o	n/a
470.8655	0.075	941731	keystroke_n	n	n/a
471.1505	0.014	942301	keystroke_Key.space	Key.space	n/a
471.2855	0.105	942571	keystroke_d	d	n/a
471.4505	0.15	942901	keystroke_r	r	n/a
471.5555	0.195	943111	keystroke_a	a	n/a
471.7205	0.135	943441	keystroke_i	i	n/a
471.8255	0.105	943651	keystroke_n	n	n/a
472.0495	0.106	944099	keystroke_Key.space	Key.space	n/a
472.2755	0.18	944551	keystroke_r	r	n/a
472.4255	0.105	944851	keystroke_e	e	n/a
472.5905	0.075	945181	keystroke_m	m	n/a
472.7555	0.075	945511	keystroke_i	i	n/a
472.9055	0.12	945811	keystroke_x	x	n/a
473.1905	0.09	946381	keystroke_Key.enter	Key.enter	n/a
473.288	6.519	946576	prompt	n/a	ralph masters happen aspect\n
474.0155	0.165	948031	keystroke_r	r	n/a
474.1055	0.165	948211	keystroke_a	a	n/a
474.9755	0.105	949951	keystroke_l	l	n/a
475.2755	0.09	950551	keystroke_p	p	n/a
475.4855	0.075	950971	keystroke_h	h	n/a
475.9505	0.09	951901	keystroke_Key.space	Key.space	n/a
476.2655	0.09	952531	keystroke_m	m	n/a
476.3855	0.12	952771	keystroke_a	a	n/a
476.5655	0.12	953131	keystroke_s	s	n/a
476.7455	0.165	953491	keystroke_t	t	n/a
476.9255	0.225	953851	keystroke_e	e	n/a
477.0755	0.15	954151	keystroke_r	r	n/a
477.1955	0.12	954391	keystroke_Key.space	Key.space	n/a
477.4205	0.075	954841	keystroke_h	h	n/a
477.5405	0.15	955081	keystroke_a	a	n/a
477.6755	0.075	955351	keystroke_p	p	n/a
477.8405	0.09	955681	keystroke_p	p	n/a
477.9905	0.105	955981	keystroke_e	e	n/a
478.1255	0.09	956251	keystroke_n	n	n/a
478.2605	0.105	956521	keystroke_Key.space	Key.space	n/a
478.47	0.105	956940	keystroke_a	a	n/a
478.65	0.12	957300	keystroke_s	s	n/a
478.8	0.105	957600	keystroke_p	p	n/a
478.92	0.075	957840	keystroke_e	e	n/a
479.205	0.09	958410	keystroke_c	c	n/a
479.37	0.12	958740	keystroke_t	t	n/a
479.715	0.0905	959430	keystroke_Key.enter	Key.enter	n/a
479.811	6.236	959622	prompt	n/a	diane monitors expand enable\n
480.6	0.135	961200	keystroke_d	d	n/a
480.75	0.06	961500	keystroke_i	i	n/a
480.93	0.1205	961860	keystroke_a	a	n/a
481.095	0.09	962190	keystroke_n	n	n/a
481.4405	0.0895	962881	keystroke_e	e	n/a
481.65	0.09	963300	keystroke_Key.space	Key.space	n/a
481.9055	0.0745	963811	keystroke_m	m	n/a
482.025	0.12	964050	keystroke_o	o	n/a
482.34	0.06	964680	keystroke_n	n	n/a
482.46	0.09	964920	keystroke_i	i	n/a
482.58	0.075	965160	keystroke_t	t	n/a
482.7	0.12	965400	keystroke_o	o	n/a
482.805	0.09	965610	keystroke_r	r	n/a
482.9855	0.1945	965971	keystroke_s	s	n/a
483.135	0.075	966270	keystroke_Key.space	Key.space	n/a
483.33	0.06	966660	keystroke_e	e	n/a
483.555	0.105	967110	keystroke_x	x	n/a
483.645	0.09	967290	keystroke_p	p	n/a
483.84	0.135	967680	keystroke_a	a	n/a
483.99	0.06	967980	keystroke_n	n	n/a
484.095	0.12	968190	keystroke_d	d	n/a
484.23	0.09	968460	keystroke_Key.space	Key.space	n/a
484.635	0.09	969270	keystroke_e	e	n/a
484.8	0.105	969600	keystroke_n	n	n/a
484.92	0.15	969840	keystroke_a	a	n/a
485.175	0.06	970350	keystroke_b	b	n/a
485.34	0.09	970680	keystroke_l	l	n/a
485.52	0.06	971040	keystroke_e	e	n/a
485.97	0.075	971940	keystroke_Key.enter	Key.enter	n/a
486.0505	12.5365	972101	prompt	n/a	manufacturers disaster produced dome\n
486.765	0.06	973530	keystroke_m	m	n/a
486.87	0.135	973740	keystroke_a	a	n/a
487.065	0.09	974130	keystroke_n	n	n/a
487.335	0.06	974670	keystroke_u	u	n/a
487.59	0.135	975180	keystroke_f	f	n/a
487.71	0.09	975420	keystroke_a	a	n/a
487.95	0.18	975900	keystroke_c	c	n/a
488.55	0.09	977100	keystroke_t	t	n/a
488.91	0.09	977820	keystroke_u	u	n/a
489.255	0.135	978510	keystroke_r	r	n/a
489.435	0.135	978870	keystroke_e	e	n/a
489.615	0.195	979230	keystroke_r	r	n/a
489.78	0.075	979560	keystroke_e	e	n/a
489.99	0.09	979980	keystroke_s	s	n/a
490.125	0.105	980250	keystroke_Key.space	Key.space	n/a
490.395	0.075	980790	keystroke_i	i	n/a
491.55	0.105	983100	keystroke_Key.backspace	Key.backspace	n/a
492.63	0.12	985260	keystroke_Key.backspace	Key.backspace	n/a
493.47	0.075	986940	keystroke_Key.backspace	Key.backspace	n/a
493.635	0.075	987270	keystroke_Key.backspace	Key.backspace	n/a
494.085	0.09	988170	keystroke_s	s	n/a
494.34	0.12	988680	keystroke_Key.space	Key.space	n/a
494.61	0.075	989220	keystroke_d	d	n/a
494.715	0.09	989430	keystroke_i	i	n/a
494.835	0.105	989670	keystroke_s	s	n/a
495.36	0.105	990720	keystroke_a	a	n/a
495.54	0.09	991080	keystroke_s	s	n/a
495.81	0.105	991620	keystroke_t	t	n/a
495.99	0.195	991980	keystroke_e	e	n/a
496.155	0.12	992310	keystroke_r	r	n/a
496.305	0.12	992610	keystroke_Key.space	Key.space	n/a
496.53	0.12	993060	keystroke_p	p	n/a
496.68	0.135	993360	keystroke_r	r	n/a
496.8	0.105	993600	keystroke_o	o	n/a
496.95	0.09	993900	keystroke_d	d	n/a
497.055	0.075	994110	keystroke_u	u	n/a
497.19	0.09	994380	keystroke_c	c	n/a
497.385	0.06	994770	keystroke_e	e	n/a
497.55	0.105	995100	keystroke_d	d	n/a
497.685	0.12	995370	keystroke_Key.space	Key.space	n/a
497.925	0.105	995850	keystroke_d	d	n/a
498.06	0.15	996120	keystroke_o	o	n/a
498.18	0.075	996360	keystroke_m	m	n/a
498.315	0.09	996630	keystroke_e	e	n/a
498.48	0.105	996960	keystroke_Key.enter	Key.enter	n/a
498.591	13.091	997182	prompt	n/a	president adjustments theaters folding\n
499.35	0.06	998700	keystroke_p	p	n/a
499.455	0.15	998910	keystroke_r	r	n/a
499.53	0.12	999060	keystroke_e	e	n/a
499.77	0.105	999540	keystroke_s	s	n/a
499.89	0.075	999780	keystroke_i	i	n/a
500.01	0.06	1000020	keystroke_d	d	n/a
500.145	0.105	1000290	keystroke_e	e	n/a
500.325	0.075	1000650	keystroke_n	n	n/a
500.46	0.075	1000920	keystroke_t	t	n/a
500.58	0.09	1001160	keystroke_Key.space	Key.space	n/a
500.775	0.105	1001550	keystroke_a	a	n/a
500.985	0.105	1001970	keystroke_d	d	n/a
501.105	0.075	1002210	keystroke_j	j	n/a
501.285	0.06	1002570	keystroke_u	u	n/a
501.375	0.21	1002750	keystroke_s	s	n/a
501.54	0.135	1003080	keystroke_t	t	n/a
501.765	0.075	1003530	keystroke_m	m	n/a
501.87	0.12	1003740	keystroke_e	e	n/a
501.975	0.06	1003950	keystroke_n	n	n/a
502.095	0.135	1004190	keystroke_t	t	n/a
502.335	0.165	1004670	keystroke_s	s	n/a
502.515	0.06	1005030	keystroke_Key.space	Key.space	n/a
502.53	0.015	1005060	keystroke_s	s	n/a
502.71	0.105	1005420	keystroke_t	t	n/a
502.8	0.06	1005600	keystroke_h	h	n/a
502.95	0.15	1005900	keystroke_r	r	n/a
503.235	0.12	1006470	keystroke_e	e	n/a
503.445	0.15	1006890	keystroke_a	a	n/a
503.625	0.105	1007250	keystroke_t	t	n/a
503.85	0.195	1007700	keystroke_e	e	n/a
504.03	0.09	1008060	keystroke_r	r	n/a
504.255	0.105	1008510	keystroke_s	s	n/a
504.42	0.105	1008840	keystroke_Key.space	Key.space	n/a
504.66	0.12	1009320	keystroke_f	f	n/a
505.71	0.135	1011420	keystroke_Key.backspace	Key.backspace	n/a
506.025	0.105	1012050	keystroke_Key.backspace	Key.backspace	n/a
506.22	0.075	1012440	keystroke_Key.backspace	Key.backspace	n/a
506.4	0.075	1012800	keystroke_Key.backspace	Key.backspace	n/a
506.61	0.075	1013220	keystroke_Key.backspace	Key.backspace	n/a
506.82	0.09	1013640	keystroke_Key.backspace	Key.backspace	n/a
507.03	0.105	1014060	keystroke_Key.backspace	Key.backspace	n/a
507.225	0.09	1014450	keystroke_Key.backspace	Key.backspace	n/a
507.45	0.075	1014900	keystroke_Key.backspace	Key.backspace	n/a
507.69	0.075	1015380	keystroke_Key.backspace	Key.backspace	n/a
507.915	0.075	1015830	keystroke_Key.backspace	Key.backspace	n/a
508.2	0.09	1016400	keystroke_Key.backspace	Key.backspace	n/a
508.47	0.105	1016940	keystroke_t	t	n/a
508.62	0.06	1017240	keystroke_h	h	n/a
508.785	0.105	1017570	keystroke_e	e	n/a
508.95	0.195	1017900	keystroke_a	a	n/a
509.085	0.15	1018170	keystroke_t	t	n/a
509.88	0.15	1019760	keystroke_e	e	n/a
510	0.09	1020000	keystroke_r	r	n/a
510.21	0.12	1020420	keystroke_s	s	n/a
510.345	0.105	1020690	keystroke_Key.space	Key.space	n/a
510.57	0.15	1021140	keystroke_f	f	n/a
510.69	0.075	1021380	keystroke_o	o	n/a
510.87	0.09	1021740	keystroke_l	l	n/a
510.99	0.075	1021980	keystroke_d	d	n/a
511.2	0.165	1022400	keystroke_i	i	n/a
511.305	0.09	1022610	keystroke_n	n	n/a
511.41	0.105	1022820	keystroke_g	g	n/a
511.605	0.075	1023210	keystroke_Key.enter	Key.enter	n/a
511.6865	11.111	1023373	prompt	n/a	childrens labels authors prevention\n
512.4	0.09	1024800	keystroke_c	c	n/a
512.52	0.06	1025040	keystroke_h	h	n/a
512.685	0.075	1025370	keystroke_i	i	n/a
512.865	0.09	1025730	keystroke_l	l	n/a
513.015	0.075	1026030	keystroke_d	d	n/a
513.255	0.135	1026510	keystroke_r	r	n/a
513.33	0.15	1026660	keystroke_e	e	n/a
514.08	0.075	1028160	keystroke_n	n	n/a
514.545	0.075	1029090	keystroke_s	s	n/a
514.68	0.105	1029360	keystroke_Key.space	Key.space	n/a
514.905	0.105	1029810	keystroke_l	l	n/a
515.025	0.15	1030050	keystroke_a	a	n/a
515.16	0.06	1030320	keystroke_b	b	n/a
515.295	0.075	1030590	keystroke_e	e	n/a
518.688	0.027	1037376	keystroke_l	l	n/a
518.895	0.12	1037790	keystroke_s	s	n/a
520.05	0.135	1040100	keystroke_Key.space	Key.space	n/a
520.335	0.165	1040670	keystroke_a	a	n/a
520.455	0.06	1040910	keystroke_u	u	n/a
520.56	0.09	1041120	keystroke_t	t	n/a
520.665	0.03	1041330	keystroke_h	h	n/a
520.71	0.105	1041420	keystroke_o	o	n/a
520.816	0.104	1041632	keystroke_r	r	n/a
521.085	0.105	1042170	keystroke_s	s	n/a
521.205	0.135	1042410	keystroke_Key.space	Key.space	n/a
521.415	0.105	1042830	keystroke_p	p	n/a
521.521	0.119	1043042	keystroke_r	r	n/a
521.58	0.105	1043160	keystroke_e	e	n/a
521.8495	0.0905	1043699	keystroke_v	v	n/a
521.9695	0.1355	1043939	keystroke_e	e	n/a
522.121	0.044	1044242	keystroke_n	n	n/a
522.1795	0.105	1044359	keystroke_t	t	n/a
522.2995	0.0755	1044599	keystroke_i	i	n/a
522.42	0.1645	1044840	keystroke_o	o	n/a
522.54	0.0895	1045080	keystroke_n	n	n/a
522.735	0.06	1045470	keystroke_Key.enter	Key.enter	n/a
522.8025	7.1645	1045605	prompt	n/a	hobbies nomination ourselves use\n
523.545	0.0595	1047090	keystroke_h	h	n/a
523.7095	0.061	1047419	keystroke_o	o	n/a
523.9345	0.06	1047869	keystroke_b	b	n/a
524.1905	0.014	1048381	keystroke_b	b	n/a
524.3545	0.075	1048709	keystroke_i	i	n/a
524.5195	0.06	1049039	keystroke_e	e	n/a
524.7445	0.105	1049489	keystroke_s	s	n/a
524.8645	0.105	1049729	keystroke_Key.space	Key.space	n/a
525.0445	0.06	1050089	keystroke_n	n	n/a
525.1205	0.194	1050241	keystroke_o	o	n/a
526.1405	0.074	1052281	keystroke_m	m	n/a
526.2905	0.074	1052581	keystroke_i	i	n/a
526.4395	0.09	1052879	keystroke_n	n	n/a
526.5455	0.149	1053091	keystroke_a	a	n/a
526.6795	0.09	1053359	keystroke_t	t	n/a
526.7545	0.091	1053509	keystroke_i	i	n/a
526.8295	0.166	1053659	keystroke_o	o	n/a
526.9345	0.105	1053869	keystroke_n	n	n/a
527.0245	0.135	1054049	keystroke_Key.space	Key.space	n/a
527.1895	0.135	1054379	keystroke_o	o	n/a
527.4145	0.075	1054829	keystroke_u	u	n/a
527.8795	0.105	1055759	keystroke_r	r	n/a
528.1205	0.179	1056241	keystroke_s	s	n/a
528.2545	0.121	1056509	keystroke_e	e	n/a
528.4195	0.12	1056839	keystroke_l	l	n/a
528.5995	0.135	1057199	keystroke_v	v	n/a
528.6895	0.12	1057379	keystroke_e	e	n/a
528.9445	0.105	1057889	keystroke_s	s	n/a
529.1545	0.135	1058309	keystroke_Key.space	Key.space	n/a
529.4545	0.076	1058909	keystroke_u	u	n/a
529.5145	0.151	1059029	keystroke_s	s	n/a
529.6045	0.105	1059209	keystroke_e	e	n/a
529.9195	0.045	1059839	keystroke_Key.enter	Key.enter	n/a
529.973	7.704	1059946	prompt	n/a	rehabilitation where're diesel clothing\n
531.0295	0.195	1062059	keystroke_r	r	n/a
531.1205	0.134	1062241	keystroke_e	e	n/a
531.3595	0.06	1062719	keystroke_h	h	n/a
531.4505	0.164	1062901	keystroke_a	a	n/a
531.6905	0.06	1063381	keystroke_b	b	n/a
531.8545	0.06	1063709	keystroke_i	i	n/a
532.0055	0.104	1064011	keystroke_l	l	n/a
532.1395	0.106	1064279	keystroke_i	i	n/a
532.2595	0.105	1064519	keystroke_t	t	n/a
532.3795	0.18	1064759	keystroke_a	a	n/a
532.5005	0.12	1065001	keystroke_t	t	n/a
532.5895	0.135	1065179	keystroke_i	i	n/a
532.6795	0.2855	1065359	keystroke_o	o	n/a
532.83	0.0745	1065660	keystroke_n	n	n/a
532.92	0.1195	1065840	keystroke_Key.space	Key.space	n/a
533.1745	0.1355	1066349	keystroke_w	w	n/a
533.2945	0.0905	1066589	keystroke_h	h	n/a
533.3695	0.135	1066739	keystroke_e	e	n/a
533.5195	0.105	1067039	keystroke_r	r	n/a
533.5945	0.105	1067189	keystroke_e	e	n/a
533.8795	0.075	1067759	keystroke_'	'	n/a
534.1645	0.105	1068329	keystroke_r	r	n/a
534.2395	0.12	1068479	keystroke_e	e	n/a
534.4345	0.135	1068869	keystroke_Key.space	Key.space	n/a
535.0645	0.195	1070129	keystroke_d	d	n/a
535.2605	0.074	1070521	keystroke_i	i	n/a
535.4245	0.06	1070849	keystroke_e	e	n/a
535.7395	0.165	1071479	keystroke_s	s	n/a
535.8595	0.105	1071719	keystroke_e	e	n/a
536.0695	0.09	1072139	keystroke_l	l	n/a
536.2345	0.105	1072469	keystroke_Key.space	Key.space	n/a
536.5495	0.105	1073099	keystroke_c	c	n/a
536.6995	0.09	1073399	keystroke_l	l	n/a
536.8795	0.09	1073759	keystroke_o	o	n/a
537.0295	0.075	1074059	keystroke_t	t	n/a
537.1195	0.045	1074239	keystroke_h	h	n/a
537.2095	0.18	1074419	keystroke_i	i	n/a
537.3295	0.09	1074659	keystroke_n	n	n/a
537.4945	0.09	1074989	keystroke_g	g	n/a
537.5995	0.075	1075199	keystroke_Key.enter	Key.enter	n/a
537.682	5.8295	1075364	prompt	n/a	keyboards when mint stevens\n
538.4695	0.075	1076939	keystroke_k	k	n/a
538.5595	0.105	1077119	keystroke_e	e	n/a
538.7095	0.06	1077419	keystroke_y	y	n/a
538.9495	0.075	1077899	keystroke_b	b	n/a
539.0845	0.105	1078169	keystroke_o	o	n/a
539.2195	0.15	1078439	keystroke_a	a	n/a
539.3245	0.12	1078649	keystroke_r	r	n/a
539.6095	0.09	1079219	keystroke_d	d	n/a
539.7745	0.12	1079549	keystroke_s	s	n/a
539.9095	0.09	1079819	keystroke_Key.space	Key.space	n/a
540.0745	0.12	1080149	keystroke_w	w	n/a
540.1945	0.06	1080389	keystroke_h	h	n/a
540.3145	0.12	1080629	keystroke_e	e	n/a
540.4495	0.06	1080899	keystroke_n	n	n/a
540.5545	0.105	1081109	keystroke_Key.space	Key.space	n/a
540.6895	0.075	1081379	keystroke_m	m	n/a
540.8245	0.15	1081649	keystroke_i	i	n/a
540.9755	0.089	1081951	keystroke_n	n	n/a
541.1845	0.09	1082369	keystroke_t	t	n/a
541.6945	0.075	1083389	keystroke_Key.space	Key.space	n/a
542.0245	0.06	1084049	keystroke_s	s	n/a
542.2645	0.135	1084529	keystroke_t	t	n/a
542.3845	0.09	1084769	keystroke_e	e	n/a
542.715	0.075	1085430	keystroke_v	v	n/a
542.775	0.1195	1085550	keystroke_e	e	n/a
542.9545	0.09	1085909	keystroke_n	n	n/a
543.18	0.0895	1086360	keystroke_s	s	n/a
543.435	0.075	1086870	keystroke_Key.enter	Key.enter	n/a
543.517	11.979	1087034	prompt	n/a	amend assumptions storage fairly\n
544.2595	0.135	1088519	keystroke_a	a	n/a
544.4245	0.0905	1088849	keystroke_m	m	n/a
544.56	0.09	1089120	keystroke_e	e	n/a
544.6795	0.075	1089359	keystroke_n	n	n/a
544.83	0.0745	1089660	keystroke_d	d	n/a
544.9045	0.12	1089809	keystroke_Key.space	Key.space	n/a
545.2345	0.015	1090469	keystroke_a	a	n/a
545.3395	0.06	1090679	keystroke_s	s	n/a
545.4745	0.135	1090949	keystroke_s	s	n/a
545.5195	0.06	1091039	keystroke_u	u	n/a
545.7445	0.075	1091489	keystroke_m	m	n/a
545.9545	0.06	1091909	keystroke_p	p	n/a
546.5245	0.135	1093049	keystroke_t	t	n/a
546.6445	0.075	1093289	keystroke_i	i	n/a
546.7645	0.18	1093529	keystroke_o	o	n/a
546.8995	0.09	1093799	keystroke_n	n	n/a
547.0795	0.18	1094159	keystroke_s	s	n/a
547.1845	0.105	1094369	keystroke_Key.space	Key.space	n/a
547.4245	0.09	1094849	keystroke_t	t	n/a
547.5595	0.135	1095119	keystroke_o	o	n/a
547.6945	0.105	1095389	keystroke_r	r	n/a
547.9045	0.225	1095809	keystroke_a	a	n/a
548.0845	0.135	1096169	keystroke_g	g	n/a
548.1745	0.135	1096349	keystroke_e	e	n/a
548.9695	0.045	1097939	keystroke_Key.backspace	Key.backspace	n/a
549.1645	0.09	1098329	keystroke_Key.backspace	Key.backspace	n/a
549.3745	0.09	1098749	keystroke_Key.backspace	Key.backspace	n/a
549.6145	0.09	1099229	keystroke_Key.backspace	Key.backspace	n/a
549.8545	0.09	1099709	keystroke_Key.backspace	Key.backspace	n/a
550.1395	0.105	1100279	keystroke_Key.backspace	Key.backspace	n/a
550.9645	0.105	1101929	keystroke_s	s	n/a
551.1745	0.09	1102349	keystroke_t	t	n/a
551.3245	0.12	1102649	keystroke_o	o	n/a
552.0895	0.135	1104179	keystroke_r	r	n/a
552.2095	0.165	1104419	keystroke_a	a	n/a
552.7045	0.105	1105409	keystroke_g	g	n/a
552.8245	0.135	1105649	keystroke_e	e	n/a
553.1095	0.12	1106219	keystroke_Key.space	Key.space	n/a
553.7095	0.09	1107419	keystroke_f	f	n/a
554.0545	0.12	1108109	keystroke_a	a	n/a
554.2045	0.06	1108409	keystroke_i	i	n/a
554.3995	0.09	1108799	keystroke_r	r	n/a
554.5045	0.09	1109009	keystroke_l	l	n/a
554.7145	0.06	1109429	keystroke_y	y	n/a
555.4045	0.09	1110809	keystroke_Key.enter	Key.enter	n/a
555.505	6.802	1111010	prompt	n/a	celebrities area protein tickets\n
556.2145	0.06	1112429	keystroke_c	c	n/a
556.3795	0.075	1112759	keystroke_e	e	n/a
556.4995	0.105	1112999	keystroke_l	l	n/a
556.6345	0.105	1113269	keystroke_e	e	n/a
556.7845	0.06	1113569	keystroke_b	b	n/a
557.1745	0.135	1114349	keystroke_r	r	n/a
557.4145	0.09	1114829	keystroke_i	i	n/a
557.5645	0.105	1115129	keystroke_t	t	n/a
557.8795	0.09	1115759	keystroke_i	i	n/a
558.0745	0.09	1116149	keystroke_e	e	n/a
558.3895	0.09	1116779	keystroke_s	s	n/a
558.5245	0.09	1117049	keystroke_Key.space	Key.space	n/a
558.8845	0.12	1117769	keystroke_a	a	n/a
559.1095	0.15	1118219	keystroke_r	r	n/a
559.2745	0.105	1118549	keystroke_e	e	n/a
559.5295	0.135	1119059	keystroke_a	a	n/a
559.6795	0.09	1119359	keystroke_Key.space	Key.space	n/a
559.8895	0.105	1119779	keystroke_p	p	n/a
560.0545	0.12	1120109	keystroke_r	r	n/a
560.1595	0.09	1120319	keystroke_o	o	n/a
560.3095	0.09	1120619	keystroke_t	t	n/a
560.3845	0.135	1120769	keystroke_e	e	n/a
560.5945	0.105	1121189	keystroke_i	i	n/a
560.7445	0.075	1121489	keystroke_n	n	n/a
560.8645	0.105	1121729	keystroke_Key.space	Key.space	n/a
561.2395	0.09	1122479	keystroke_t	t	n/a
561.3445	0.06	1122689	keystroke_i	i	n/a
561.4945	0.075	1122989	keystroke_c	c	n/a
561.5845	0.09	1123169	keystroke_k	k	n/a
561.7195	0.12	1123439	keystroke_e	e	n/a
561.8245	0.09	1123649	keystroke_t	t	n/a
561.9895	0.105	1123979	keystroke_s	s	n/a
562.2295	0.075	1124459	keystroke_Key.enter	Key.enter	n/a
562.314	14.9175	1124628	prompt	n/a	shark document acdbentity bathroom\n
563.0245	0.105	1126049	keystroke_s	s	n/a
563.1445	0.09	1126289	keystroke_h	h	n/a
563.2795	0.135	1126559	keystroke_a	a	n/a
563.3845	0.105	1126769	keystroke_r	r	n/a
563.5645	0.105	1127129	keystroke_k	k	n/a
563.9395	0.105	1127879	keystroke_Key.space	Key.space	n/a
564.5395	0.105	1129079	keystroke_d	d	n/a
564.6595	0.09	1129319	keystroke_o	o	n/a
564.7945	0.12	1129589	keystroke_c	c	n/a
564.8995	0.045	1129799	keystroke_u	u	n/a
565.0795	0.075	1130159	keystroke_m	m	n/a
565.1845	0.12	1130369	keystroke_e	e	n/a
565.3195	0.09	1130639	keystroke_n	n	n/a
565.4395	0.12	1130879	keystroke_t	t	n/a
565.5605	0.089	1131121	keystroke_Key.space	Key.space	n/a
565.7995	0.105	1131599	keystroke_a	a	n/a
566.0995	0.09	1132199	keystroke_c	c	n/a
566.3545	0.09	1132709	keystroke_d	d	n/a
566.6695	0.06	1133339	keystroke_b	b	n/a
566.8345	0.105	1133669	keystroke_e	e	n/a
566.9845	0.105	1133969	keystroke_n	n	n/a
567.1495	0.105	1134299	keystroke_t	t	n/a
567.2695	0.09	1134539	keystroke_i	i	n/a
567.7345	0.076	1135469	keystroke_y	y	n/a
568.6345	0.15	1137269	keystroke_Key.backspace	Key.backspace	n/a
570.3745	0.105	1140749	keystroke_t	t	n/a
570.4645	0.06	1140929	keystroke_y	y	n/a
571.0795	0.12	1142159	keystroke_Key.space	Key.space	n/a
571.2745	0.091	1142549	keystroke_b	b	n/a
571.4545	0.165	1142909	keystroke_a	a	n/a
571.7845	0.135	1143569	keystroke_t	t	n/a
571.9795	0.09	1143959	keystroke_h	h	n/a
575.6725	0.072	1151345	keystroke_r	r	n/a
575.7745	0.075	1151549	keystroke_o	o	n/a
575.9245	0.12	1151849	keystroke_o	o	n/a
576.059	0.09	1152118	keystroke_m	m	n/a
577.124	0.105	1154248	keystroke_Key.enter	Key.enter	n/a
577.236	13.6455	1154472	prompt	n/a	plains hanging inside corresponding\n
577.965	0.104	1155930	keystroke_p	p	n/a
578.174	0.075	1156348	keystroke_l	l	n/a
578.279	0.135	1156558	keystroke_a	a	n/a
578.339	0.151	1156678	keystroke_i	i	n/a
578.474	0.06	1156948	keystroke_n	n	n/a
578.549	0.12	1157098	keystroke_s	s	n/a
578.699	0.09	1157398	keystroke_Key.space	Key.space	n/a
578.939	0.045	1157878	keystroke_h	h	n/a
579.044	0.151	1158088	keystroke_a	a	n/a
579.209	0.061	1158418	keystroke_n	n	n/a
579.435	0.074	1158870	keystroke_g	g	n/a
579.494	0.151	1158988	keystroke_i	i	n/a
