onset	duration	sample	value	key	prompt_text
9.7555	18.883	19511	prompt	n/a	the quick brown fox jumps over a lazy dog\n
15.048	0.013	30096	keystroke_t	t	n/a
15.5405	0.09	31081	keystroke_h	h	n/a
15.6005	0.075	31201	keystroke_e	e	n/a
16.5155	0.09	33031	keystroke_Key.space	Key.space	n/a
17.431	0.09	34862	keystroke_q	q	n/a
17.551	0.09	35102	keystroke_u	u	n/a
17.986	0.06	35972	keystroke_i	i	n/a
18.061	0.075	36122	keystroke_c	c	n/a
18.376	0.075	36752	keystroke_k	k	n/a
18.691	0.1045	37382	keystroke_Key.space	Key.space	n/a
19.096	0.0895	38192	keystroke_b	b	n/a
19.3205	0.09	38641	keystroke_r	r	n/a
19.4705	0.09	38941	keystroke_o	o	n/a
19.6655	0.09	39331	keystroke_w	w	n/a
19.8155	0.135	39631	keystroke_n	n	n/a
19.9205	0.105	39841	keystroke_Key.space	Key.space	n/a
20.1755	0.12	40351	keystroke_f	f	n/a
20.3405	0.075	40681	keystroke_o	o	n/a
20.6105	0.105	41221	keystroke_x	x	n/a
20.9105	0.1055	41821	keystroke_Key.space	Key.space	n/a
21.856	0.09	43712	keystroke_j	j	n/a
22.051	0.09	44102	keystroke_u	u	n/a
22.6205	0.105	45241	keystroke_m	m	n/a
23.2205	0.09	46441	keystroke_p	p	n/a
23.2955	0.075	46591	keystroke_s	s	n/a
23.5955	0.09	47191	keystroke_Key.space	Key.space	n/a
24.706	0.09	49412	keystroke_o	o	n/a
24.811	0.135	49622	keystroke_v	v	n/a
25.036	0.105	50072	keystroke_e	e	n/a
25.111	0.09	50222	keystroke_r	r	n/a
25.2905	0.075	50581	keystroke_Key.space	Key.space	n/a
25.3505	0.075	50701	keystroke_a	a	n/a
25.4705	0.09	50941	keystroke_Key.space	Key.space	n/a
26.191	0.075	52382	keystroke_l	l	n/a
26.596	0.0895	53192	keystroke_a	a	n/a
26.8355	0.06	53671	keystroke_z	z	n/a
27.1955	0.09	54391	keystroke_y	y	n/a
27.3005	0.09	54601	keystroke_Key.space	Key.space	n/a
27.5255	0.075	55051	keystroke_d	d	n/a
27.6305	0.105	55261	keystroke_o	o	n/a
27.7805	0.09	55561	keystroke_g	g	n/a
28.5605	0.075	57121	keystroke_Key.enter	Key.enter	n/a
28.642	19.871	57284	prompt	n/a	physiology they're implement helped\n
29.641	0.105	59282	keystroke_p	p	n/a
38.343	0.028	76686	keystroke_h	h	n/a
38.761	0.09	77522	keystroke_y	y	n/a
39.631	0.105	79262	keystroke_s	s	n/a
39.826	0.09	79652	keystroke_i	i	n/a
40.171	0.1045	80342	keystroke_o	o	n/a
40.3805	0.121	80761	keystroke_l	l	n/a
40.6365	0.075	81273	keystroke_o	o	n/a
40.861	0.105	81722	keystroke_g	g	n/a
41.071	0.105	82142	keystroke_y	y	n/a
41.311	0.0455	82622	keystroke_Key.space	Key.space	n/a
41.671	0.09	83342	keystroke_t	t	n/a
41.791	0.091	83582	keystroke_h	h	n/a
42.166	0.045	84332	keystroke_e	e	n/a
42.286	0.091	84572	keystroke_y	y	n/a
43.2465	0.105	86493	keystroke_'	'	n/a
43.3965	0.135	86793	keystroke_r	r	n/a
43.4865	0.075	86973	keystroke_e	e	n/a
44.1015	0.09	88203	keystroke_Key.space	Key.space	n/a
44.371	0.09	88742	keystroke_i	i	n/a
44.6415	0.075	89283	keystroke_m	m	n/a
45.1815	0.09	90363	keystroke_p	p	n/a
45.601	0.105	91202	keystroke_l	l	n/a
46.066	0.06	92132	keystroke_e	e	n/a
46.426	0.075	92852	keystroke_m	m	n/a
46.546	0.075	93092	keystroke_e	e	n/a
46.651	0.075	93302	keystroke_n	n	n/a
46.801	0.09	93602	keystroke_t	t	n/a
46.981	0.06	93962	keystroke_Key.space	Key.space	n/a
47.191	0.09	94382	keystroke_h	h	n/a
47.461	0.09	94922	keystroke_e	e	n/a
47.716	0.075	95432	keystroke_l	l	n/a
47.941	0.075	95882	keystroke_o	o	n/a
48.031	0.075	96062	keystroke_e	e	n/a
48.166	0.105	96332	keystroke_d	d	n/a
48.406	0.1055	96812	keystroke_Key.enter	Key.enter	n/a
48.5165	9.0565	97033	prompt	n/a	pine diana rates weekly\n
50.0265	0.075	100053	keystroke_p	p	n/a
50.7915	0.06	101583	keystroke_i	i	n/a
51.0165	0.09	102033	keystroke_n	n	n/a
51.1215	0.045	102243	keystroke_e	e	n/a
51.2865	0.0895	102573	keystroke_Key.space	Key.space	n/a
51.721	0.12	103442	keystroke_d	d	n/a
51.886	0.075	103772	keystroke_i	i	n/a
52.696	0.09	105392	keystroke_a	a	n/a
52.952	0.075	105904	keystroke_n	n	n/a
53.041	0.091	106082	keystroke_a	a	n/a
53.911	0.12	107822	keystroke_Key.space	Key.space	n/a
54.287	0.104	108574	keystroke_r	r	n/a
54.541	0.105	109082	keystroke_a	a	n/a
54.616	0.136	109232	keystroke_t	t	n/a
54.766	0.06	109532	keystroke_e	e	n/a
54.976	0.06	109952	keystroke_s	s	n/a
55.426	0.12	110852	keystroke_Key.space	Key.space	n/a
55.666	0.075	111332	keystroke_w	w	n/a
55.921	0.045	111842	keystroke_e	e	n/a
56.011	0.075	112022	keystroke_e	e	n/a
56.326	0.06	112652	keystroke_k	k	n/a
56.6565	0.045	113313	keystroke_l	l	n/a
57.0015	0.09	114003	keystroke_y	y	n/a
57.5565	0.015	115113	keystroke_Key.enter	Key.enter	n/a
57.5765	8.6215	115153	prompt	n/a	committed videos linked flashing\n
58.3815	0.075	116763	keystroke_c	c	n/a
58.4865	0.06	116973	keystroke_o	o	n/a
58.7565	0.075	117513	keystroke_m	m	n/a
58.8915	0.09	117783	keystroke_m	m	n/a
59.3415	0.0755	118683	keystroke_i	i	n/a
59.671	0.061	119342	keystroke_t	t	n/a
59.882	0.014	119764	keystroke_t	t	n/a
60.032	0.06	120064	keystroke_e	e	n/a
60.182	0.06	120364	keystroke_e	e	n/a
60.9015	0.06	121803	keystroke_Key.backspace	Key.backspace	n/a
60.9465	0.03	121893	keystroke_d	d	n/a
61.2165	0.075	122433	keystroke_Key.space	Key.space	n/a
61.5015	0.09	123003	keystroke_v	v	n/a
61.7265	0.06	123453	keystroke_i	i	n/a
62.207	0.015	124414	keystroke_d	d	n/a
62.342	0.09	124684	keystroke_e	e	n/a
62.957	0.075	125914	keystroke_o	o	n/a
63.002	0.06	126004	keystroke_s	s	n/a
63.196	0.091	126392	keystroke_Key.space	Key.space	n/a
63.451	0.045	126902	keystroke_l	l	n/a
63.841	0.06	127682	keystroke_i	i	n/a
64.036	0.0905	128072	keystroke_n	n	n/a
64.1715	0.0595	128343	keystroke_k	k	n/a
64.4565	0.075	128913	keystroke_e	e	n/a
64.651	0.06	129302	keystroke_d	d	n/a
64.771	0.105	129542	keystroke_Key.space	Key.space	n/a
64.966	0.075	129932	keystroke_f	f	n/a
65.101	0.0905	130202	keystroke_l	l	n/a
65.2815	0.105	130563	keystroke_a	a	n/a
65.3715	0.135	130743	keystroke_s	s	n/a
65.4915	0.09	130983	keystroke_h	h	n/a
65.6265	0.045	131253	keystroke_i	i	n/a
65.7165	0.09	131433	keystroke_n	n	n/a
65.8365	0.075	131673	keystroke_g	g	n/a
66.1065	0.0895	132213	keystroke_Key.enter	Key.enter	n/a
66.201	15.4925	132402	prompt	n/a	castle adjustments washington weak\n
67.172	0.075	134344	keystroke_c	c	n/a
67.352	0.06	134704	keystroke_a	a	n/a
67.397	0.12	134794	keystroke_s	s	n/a
67.8915	0.075	135783	keystroke_t	t	n/a
68.2065	0.06	136413	keystroke_l	l	n/a
68.4765	0.12	136953	keystroke_y	y	n/a
68.896	0.105	137792	keystroke_Key.space	Key.space	n/a
69.331	0.06	138662	keystroke_Key.backspace	Key.backspace	n/a
69.481	0.06	138962	keystroke_Key.backspace	Key.backspace	n/a
69.631	0.12	139262	keystroke_e	e	n/a
69.736	0.105	139472	keystroke_Key.space	Key.space	n/a
69.961	0.06	139922	keystroke_a	a	n/a
70.141	0.0305	140282	keystroke_d	d	n/a
70.246	0.09	140492	keystroke_j	j	n/a
70.441	0.09	140882	keystroke_u	u	n/a
70.576	0.09	141152	keystroke_s	s	n/a
70.997	0.09	141994	keystroke_t	t	n/a
72.002	0.06	144004	keystroke_m	m	n/a
72.092	0.045	144184	keystroke_e	e	n/a
72.242	0.045	144484	keystroke_n	n	n/a
72.302	0.105	144604	keystroke_t	t	n/a
72.482	0.09	144964	keystroke_Key.space	Key.space	n/a
72.677	0.075	145354	keystroke_w	w	n/a
72.902	0.21	145804	keystroke_s	s	n/a
72.962	0.045	145924	keystroke_a	a	n/a
73.442	0.09	146884	keystroke_h	h	n/a
73.832	0.075	147664	keystroke_Key.backspace	Key.backspace	n/a
73.997	0.06	147994	keystroke_Key.backspace	Key.backspace	n/a
74.162	0.06	148324	keystroke_Key.backspace	Key.backspace	n/a
74.7465	0.09	149493	keystroke_a	a	n/a
74.8215	0.12	149643	keystroke_s	s	n/a
75.0915	0.0905	150183	keystroke_h	h	n/a
75.242	0.075	150484	keystroke_i	i	n/a
75.391	0.076	150782	keystroke_n	n	n/a
75.512	0.089	151024	keystroke_g	g	n/a
75.707	0.0895	151414	keystroke_t	t	n/a
75.8115	0.075	151623	keystroke_o	o	n/a
75.8265	0.18	151653	keystroke_n	n	n/a
75.9765	0.1045	151953	keystroke_Key.space	Key.space	n/a
76.127	0.059	152254	keystroke_w	w	n/a
77.7615	0.09	155523	keystroke_e	e	n/a
77.9565	0.06	155913	keystroke_a	a	n/a
78.0765	0.105	156153	keystroke_k	k	n/a
81.604	0.088	163208	keystroke_Key.enter	Key.enter	n/a
81.697	14.517	163394	prompt	n/a	jordan argentina bulgarian atlanta\n
83.252	0.089	166504	keystroke_j	j	n/a
83.506	0.075	167012	keystroke_o	o	n/a
84.0315	0.09	168063	keystroke_r	r	n/a
84.2415	0.105	168483	keystroke_d	d	n/a
84.3615	0.105	168723	keystroke_a	a	n/a
84.5865	0.09	169173	keystroke_n	n	n/a
85.2165	0.1045	170433	keystroke_Key.space	Key.space	n/a
85.591	0.135	171182	keystroke_a	a	n/a
85.696	0.105	171392	keystroke_r	r	n/a
85.936	0.09	171872	keystroke_g	g	n/a
86.131	0.045	172262	keystroke_e	e	n/a
86.281	0.06	172562	keystroke_n	n	n/a
86.356	0.12	172712	keystroke_t	t	n/a
86.566	0.0605	173132	keystroke_i	i	n/a
86.687	0.09	173374	keystroke_n	n	n/a
86.777	0.075	173554	keystroke_a	a	n/a
87.1065	0.105	174213	keystroke_Key.space	Key.space	n/a
87.9765	0.09	175953	keystroke_b	b	n/a
88.4715	0.09	176943	keystroke_u	u	n/a
88.9065	0.075	177813	keystroke_l	l	n/a
89.536	0.12	179072	keystroke_g	g	n/a
90.151	0.09	180302	keystroke_a	a	n/a
90.211	0.1355	180422	keystroke_r	r	n/a
90.4965	0.075	180993	keystroke_i	i	n/a
90.7665	0.045	181533	keystroke_a	a	n/a
90.8565	0.105	181713	keystroke_n	n	n/a
91.0215	0.105	182043	keystroke_Key.space	Key.space	n/a
94.7435	0.058	189487	keystroke_a	a	n/a
94.7865	0.12	189573	keystroke_t	t	n/a
95.1315	0.09	190263	keystroke_l	l	n/a
95.4165	0.075	190833	keystroke_a	a	n/a
95.5215	0.09	191043	keystroke_n	n	n/a
95.6715	0.12	191343	keystroke_t	t	n/a
95.8365	0.06	191673	keystroke_a	a	n/a
96.1065	0.1045	192213	keystroke_Key.enter	Key.enter	n/a
96.218	6.94	192436	prompt	n/a	stated confusion probe donate\n
97.006	0.0905	194012	keystroke_s	s	n/a
97.5915	0.075	195183	keystroke_t	t	n/a
97.7715	0.075	195543	keystroke_a	a	n/a
97.8165	0.135	195633	keystroke_t	t	n/a
97.9965	0.09	195993	keystroke_e	e	n/a
98.2215	0.09	196443	keystroke_d	d	n/a
98.4765	0.105	196953	keystroke_Key.space	Key.space	n/a
98.7465	0.075	197493	keystroke_c	c	n/a
98.9265	0.06	197853	keystroke_o	o	n/a
99.0165	0.12	198033	keystroke_n	n	n/a
99.4065	0.105	198813	keystroke_f	f	n/a
99.7215	0.105	199443	keystroke_u	u	n/a
100.0815	0.09	200163	keystroke_s	s	n/a
100.2165	0.0745	200433	keystroke_i	i	n/a
100.381	0.105	200762	keystroke_o	o	n/a
100.426	0.12	200852	keystroke_n	n	n/a
100.801	0.09	201602	keystroke_Key.space	Key.space	n/a
101.1465	0.12	202293	keystroke_p	p	n/a
101.3715	0.105	202743	keystroke_r	r	n/a
101.4315	0.09	202863	keystroke_o	o	n/a
101.687	0.0895	203374	keystroke_b	b	n/a
101.8065	0.0905	203613	keystroke_e	e	n/a
102.0465	0.075	204093	keystroke_Key.space	Key.space	n/a
102.227	0.06	204454	keystroke_d	d	n/a
102.347	0.075	204694	keystroke_o	o	n/a
102.407	0.12	204814	keystroke_n	n	n/a
102.662	0.105	205324	keystroke_a	a	n/a
102.737	0.1495	205474	keystroke_t	t	n/a
102.8715	0.075	205743	keystroke_e	e	n/a
103.081	0.075	206162	keystroke_Key.enter	Key.enter	n/a
103.1625	7.2255	206325	prompt	n/a	tail teenage indicates jose\n
103.936	0.075	207872	keystroke_t	t	n/a
104.146	0.06	208292	keystroke_a	a	n/a
104.3415	0.06	208683	keystroke_i	i	n/a
104.6115	0.06	209223	keystroke_l	l	n/a
104.8515	0.1345	209703	keystroke_Key.space	Key.space	n/a
105.076	0.09	210152	keystroke_t	t	n/a
105.2415	0.06	210483	keystroke_e	e	n/a
105.4815	0.03	210963	keystroke_n	n	n/a
105.602	0.06	211204	keystroke_n	n	n/a
106.1565	0.06	212313	keystroke_Key.backspace	Key.backspace	n/a
106.2765	0.075	212553	keystroke_Key.backspace	Key.backspace	n/a
106.3815	0.06	212763	keystroke_e	e	n/a
106.6515	0.045	213303	keystroke_n	n	n/a
106.8765	0.075	213753	keystroke_a	a	n/a
106.9365	0.12	213873	keystroke_g	g	n/a
107.0865	0.06	214173	keystroke_e	e	n/a
107.2515	0.09	214503	keystroke_Key.space	Key.space	n/a
107.5215	0.06	215043	keystroke_i	i	n/a
107.6865	0.075	215373	keystroke_n	n	n/a
107.8065	0.045	215613	keystroke_d	d	n/a
107.9265	0.06	215853	keystroke_i	i	n/a
108.0165	0.09	216033	keystroke_c	c	n/a
108.2415	0.09	216483	keystroke_a	a	n/a
108.3615	0.165	216723	keystroke_t	t	n/a
108.4965	0.09	216993	keystroke_e	e	n/a
108.6915	0.075	217383	keystroke_s	s	n/a
108.9915	0.09	217983	keystroke_Key.space	Key.space	n/a
109.2915	0.09	218583	keystroke_j	j	n/a
109.5315	0.075	219063	keystroke_o	o	n/a
109.8465	0.075	219693	keystroke_s	s	n/a
110.0115	0.075	220023	keystroke_e	e	n/a
110.2815	0.105	220563	keystroke_Key.enter	Key.enter	n/a
110.3915	7.6765	220783	prompt	n/a	tier risks athletics chinese\n
111.392	0.12	222784	keystroke_t	t	n/a
111.917	0.06	223834	keystroke_i	i	n/a
112.367	0.015	224734	keystroke_e	e	n/a
112.5915	0.06	225183	keystroke_r	r	n/a
112.8915	0.09	225783	keystroke_Key.space	Key.space	n/a
113.1165	0.09	226233	keystroke_r	r	n/a
113.3115	0.06	226623	keystroke_i	i	n/a
113.4915	0.06	226983	keystroke_s	s	n/a
113.5965	0.06	227193	keystroke_k	k	n/a
113.9415	0.045	227883	keystroke_s	s	n/a
114.1815	0.09	228363	keystroke_Key.space	Key.space	n/a
114.4815	0.06	228963	keystroke_a	a	n/a
114.7065	0.075	229413	keystroke_t	t	n/a
114.8265	0.075	229653	keystroke_h	h	n/a
115.3665	0.09	230733	keystroke_l	l	n/a
115.5765	0.06	231153	keystroke_e	e	n/a
115.8015	0.09	231603	keystroke_t	t	n/a
116.0715	0.0755	232143	keystroke_i	i	n/a
116.1315	0.0605	232263	keystroke_c	c	n/a
116.282	0.06	232564	keystroke_s	s	n/a
116.416	0.12	232832	keystroke_Key.space	Key.space	n/a
116.672	0.0745	233344	keystroke_c	c	n/a
116.7915	0.06	233583	keystroke_h	h	n/a
116.8815	0.09	233763	keystroke_i	i	n/a
117.0015	0.09	234003	keystroke_n	n	n/a
117.242	0.12	234484	keystroke_e	e	n/a
117.572	0.045	235144	keystroke_s	s	n/a
117.707	0.075	235414	keystroke_e	e	n/a
117.977	0.09	235954	keystroke_Key.enter	Key.enter	n/a
118.071	13.932	236142	prompt	n/a	squad constructed sticker blvd\n
118.9215	0.105	237843	keystroke_s	s	n/a
119.701	0.12	239402	keystroke_q	q	n/a
119.971	0.105	239942	keystroke_u	u	n/a
120.151	0.15	240302	keystroke_a	a	n/a
120.286	0.12	240572	keystroke_r	r	n/a
120.871	0.06	241742	keystroke_Key.backspace	Key.backspace	n/a
120.946	0.06	241892	keystroke_d	d	n/a
121.5915	0.09	243183	keystroke_Key.space	Key.space	n/a
121.8465	0.0605	243693	keystroke_c	c	n/a
121.8915	0.09	243783	keystroke_o	o	n/a
121.9965	0.105	243993	keystroke_n	n	n/a
122.2815	0.075	244563	keystroke_t	t	n/a
122.4615	0.075	244923	keystroke_r	r	n/a
122.671	0.09	245342	keystroke_u	u	n/a
122.776	0.045	245552	keystroke_c	c	n/a
123.091	0.09	246182	keystroke_t	t	n/a
123.226	0.075	246452	keystroke_e	e	n/a
123.422	0.074	246844	keystroke_d	d	n/a
123.691	0.09	247382	keystroke_Key.space	Key.space	n/a
124.5915	0.0905	249183	keystroke_Key.backspace	Key.backspace	n/a
124.7715	0.0605	249543	keystroke_Key.backspace	Key.backspace	n/a
124.967	0.045	249934	keystroke_Key.backspace	Key.backspace	n/a
125.147	0.0745	250294	keystroke_Key.backspace	Key.backspace	n/a
125.342	0.06	250684	keystroke_Key.backspace	Key.backspace	n/a
125.492	0.06	250984	keystroke_Key.backspace	Key.backspace	n/a
125.627	0.075	251254	keystroke_Key.backspace	Key.backspace	n/a
125.777	0.075	251554	keystroke_Key.backspace	Key.backspace	n/a
126.332	0.075	252664	keystroke_s	s	n/a
126.512	0.075	253024	keystroke_t	t	n/a
126.692	0.075	253384	keystroke_r	r	n/a
127.187	0.12	254374	keystroke_u	u	n/a
127.322	0.105	254644	keystroke_c	c	n/a
127.577	0.12	255154	keystroke_t	t	n/a
127.727	0.075	255454	keystroke_e	e	n/a
127.922	0.045	255844	keystroke_d	d	n/a
128.072	0.105	256144	keystroke_Key.space	Key.space	n/a
128.312	0.135	256624	keystroke_s	s	n/a
128.417	0.12	256834	keystroke_t	t	n/a
128.567	0.075	257134	keystroke_i	i	n/a
128.717	0.075	257434	keystroke_c	c	n/a
128.852	0.075	257704	keystroke_k	k	n/a
128.987	0.075	257974	keystroke_e	e	n/a
129.047	0.09	258094	keystroke_r	r	n/a
129.257	0.074	258514	keystroke_Key.space	Key.space	n/a
129.812	0.089	259624	keystroke_b	b	n/a
130.5765	0.075	261153	keystroke_l	l	n/a
131.0565	0.0895	262113	keystroke_v	v	n/a
131.296	0.06	262592	keystroke_d	d	n/a
131.912	0.0895	263824	keystroke_Key.enter	Key.enter	n/a
132.006	7.4975	264012	prompt	n/a	mercury fundamentals craps makers\n
133.1565	0.075	266313	keystroke_m	m	n/a
133.5015	0.045	267003	keystroke_e	e	n/a
133.5315	0.12	267063	keystroke_r	r	n/a
133.8615	0.045	267723	keystroke_c	c	n/a
133.9215	0.105	267843	keystroke_u	u	n/a
134.0865	0.075	268173	keystroke_r	r	n/a
134.1765	0.12	268353	keystroke_y	y	n/a
134.8815	0.09	269763	keystroke_Key.space	Key.space	n/a
135.0465	0.1195	270093	keystroke_f	f	n/a
135.196	0.075	270392	keystroke_u	u	n/a
135.301	0.075	270602	keystroke_n	n	n/a
135.406	0.06	270812	keystroke_d	d	n/a
135.646	0.0755	271292	keystroke_a	a	n/a
136.0515	0.06	272103	keystroke_m	m	n/a
136.1565	0.06	272313	keystroke_e	e	n/a
136.2765	0.075	272553	keystroke_n	n	n/a
136.3365	0.12	272673	keystroke_t	t	n/a
136.4865	0.075	272973	keystroke_a	a	n/a
136.6365	0.06	273273	keystroke_l	l	n/a
136.7115	0.06	273423	keystroke_s	s	n/a
136.9515	0.0755	273903	keystroke_Key.space	Key.space	n/a
137.161	0.075	274322	keystroke_c	c	n/a
137.371	0.0755	274742	keystroke_r	r	n/a
137.476	0.1205	274952	keystroke_a	a	n/a
137.6565	0.1045	275313	keystroke_p	p	n/a
137.822	0.06	275644	keystroke_s	s	n/a
138.047	0.09	276094	keystroke_Key.space	Key.space	n/a
138.317	0.075	276634	keystroke_m	m	n/a
138.467	0.09	276934	keystroke_a	a	n/a
138.617	0.06	277234	keystroke_k	k	n/a
138.722	0.09	277444	keystroke_e	e	n/a
138.782	0.09	277564	keystroke_r	r	n/a
138.932	0.06	277864	keystroke_s	s	n/a
139.4265	0.075	278853	keystroke_Key.enter	Key.enter	n/a
139.5075	10.7505	279015	prompt	n/a	instruments dispatch nowhere poly\n
140.2365	0.06	280473	keystroke_i	i	n/a
140.4015	0.105	280803	keystroke_n	n	n/a
140.5515	0.18	281103	keystroke_s	s	n/a
140.7465	0.075	281493	keystroke_t	t	n/a
140.9415	0.075	281883	keystroke_r	r	n/a
141.1065	0.105	282213	keystroke_u	u	n/a
141.7215	0.0605	283443	keystroke_m	m	n/a
141.812	0.045	283624	keystroke_e	e	n/a
141.932	0.06	283864	keystroke_n	n	n/a
141.977	0.075	283954	keystroke_t	t	n/a
142.397	0.089	284794	keystroke_Key.space	Key.space	n/a
142.622	0.06	285244	keystroke_d	d	n/a
142.742	0.075	285484	keystroke_i	i	n/a
143.792	0.0745	287584	keystroke_s	s	n/a
143.957	0.0895	287914	keystroke_p	p	n/a
144.1515	0.09	288303	keystroke_a	a	n/a
144.4065	0.09	288813	keystroke_t	t	n/a
144.6615	0.0605	289323	keystroke_c	c	n/a
144.752	0.0895	289504	keystroke_h	h	n/a
144.8565	0.105	289713	keystroke_Key.space	Key.space	n/a
145.0665	0.075	290133	keystroke_n	n	n/a
145.4715	0.075	290943	keystroke_o	o	n/a
145.7565	0.09	291513	keystroke_w	w	n/a
146.1765	0.09	292353	keystroke_h	h	n/a
146.702	0.06	293404	keystroke_e	e	n/a
146.867	0.135	293734	keystroke_r	r	n/a
146.957	0.09	293914	keystroke_e	e	n/a
147.107	0.1195	294214	keystroke_Key.space	Key.space	n/a
147.4215	0.105	294843	keystroke_p	p	n/a
147.9165	0.105	295833	keystroke_l	l	n/a
148.7565	0.09	297513	keystroke_Key.backspace	Key.backspace	n/a
149.356	0.046	298712	keystroke_o	o	n/a
149.536	0.061	299072	keystroke_l	l	n/a
149.806	0.091	299612	keystroke_y	y	n/a
150.181	0.075	300362	keystroke_Key.enter	Key.enter	n/a
150.2615	8.667	300523	prompt	n/a	distinguished adjusted worker potatoes\n
151.0225	0.075	302045	keystroke_d	d	n/a
151.202	0.06	302404	keystroke_i	i	n/a
151.292	0.06	302584	keystroke_s	s	n/a
151.517	0.09	303034	keystroke_t	t	n/a
151.622	0.06	303244	keystroke_i	i	n/a
151.757	0.0595	303514	keystroke_n	n	n/a
151.8765	0.075	303753	keystroke_g	g	n/a
152.0565	0.09	304113	keystroke_u	u	n/a
152.2965	0.075	304593	keystroke_i	i	n/a
152.5965	0.09	305193	keystroke_s	s	n/a
153.2265	0.06	306453	keystroke_h	h	n/a
153.3315	0.06	306663	keystroke_e	e	n/a
153.497	0.06	306994	keystroke_d	d	n/a
153.647	0.105	307294	keystroke_Key.space	Key.space	n/a
153.992	0.09	307984	keystroke_a	a	n/a
154.157	0.045	308314	keystroke_d	d	n/a
154.262	0.09	308524	keystroke_j	j	n/a
154.457	0.075	308914	keystroke_u	u	n/a
154.547	0.1345	309094	keystroke_s	s	n/a
154.7415	0.12	309483	keystroke_t	t	n/a
154.8765	0.06	309753	keystroke_e	e	n/a
155.0565	0.075	310113	keystroke_d	d	n/a
155.177	0.09	310354	keystroke_Key.space	Key.space	n/a
155.312	0.09	310624	keystroke_w	w	n/a
155.417	0.09	310834	keystroke_o	o	n/a
155.552	0.105	311104	keystroke_r	r	n/a
155.717	0.06	311434	keystroke_k	k	n/a
155.822	0.105	311644	keystroke_e	e	n/a
155.897	0.075	311794	keystroke_r	r	n/a
156.6315	0.105	313263	keystroke_Key.space	Key.space	n/a
157.0365	0.075	314073	keystroke_p	p	n/a
157.2915	0.09	314583	keystroke_o	o	n/a
157.877	0.0745	315754	keystroke_t	t	n/a
158.1615	0.12	316323	keystroke_a	a	n/a
158.2665	0.105	316533	keystroke_t	t	n/a
158.4765	0.075	316953	keystroke_o	o	n/a
158.5215	0.06	317043	keystroke_e	e	n/a
158.6865	0.075	317373	keystroke_s	s	n/a
158.8815	0.045	317763	keystroke_Key.enter	Key.enter	n/a
158.932	15.057	317864	prompt	n/a	highest pattern chocolate spectacular\n
159.6165	0.09	319233	keystroke_h	h	n/a
159.7815	0.06	319563	keystroke_i	i	n/a
159.8865	0.09	319773	keystroke_g	g	n/a
159.9465	0.105	319893	keystroke_h	h	n/a
160.3815	0.075	320763	keystroke_e	e	n/a
160.5165	0.15	321033	keystroke_s	s	n/a
160.6215	0.105	321243	keystroke_t	t	n/a
160.7415	0.105	321483	keystroke_Key.space	Key.space	n/a
160.9515	0.12	321903	keystroke_p	p	n/a
161.177	0.0745	322354	keystroke_a	a	n/a
161.417	0.075	322834	keystroke_t	t	n/a
161.552	0.09	323104	keystroke_t	t	n/a
161.747	0.0755	323494	keystroke_e	e	n/a
161.8075	0.09	323615	keystroke_r	r	n/a
161.9425	0.09	323885	keystroke_n	n	n/a
162.2725	0.09	324545	keystroke_Key.space	Key.space	n/a
162.6625	0.075	325325	keystroke_c	c	n/a
162.8275	0.045	325655	keystroke_h	h	n/a
163.0075	0.06	326015	keystroke_o	o	n/a
163.202	0.03	326404	keystroke_l	l	n/a
163.277	0.09	326554	keystroke_c	c	n/a
163.907	0.045	327814	keystroke_Key.backspace	Key.backspace	n/a
164.027	0.06	328054	keystroke_Key.backspace	Key.backspace	n/a
164.132	0.105	328264	keystroke_c	c	n/a
164.327	0.075	328654	keystroke_l	l	n/a
164.507	0.1205	329014	keystroke_a	a	n/a
164.6125	0.1345	329225	keystroke_t	t	n/a
164.732	0.06	329464	keystroke_e	e	n/a
164.9125	0.09	329825	keystroke_Key.space	Key.space	n/a
165.0775	0.0745	330155	keystroke_s	s	n/a
165.227	0.105	330454	keystroke_p	p	n/a
165.677	0.0455	331354	keystroke_Key.backspace	Key.backspace	n/a
165.8275	0.06	331655	keystroke_Key.backspace	Key.backspace	n/a
166.007	0.045	332014	keystroke_Key.backspace	Key.backspace	n/a
166.142	0.0455	332284	keystroke_Key.backspace	Key.backspace	n/a
166.292	0.045	332584	keystroke_Key.backspace	Key.backspace	n/a
166.427	0.06	332854	keystroke_Key.backspace	Key.backspace	n/a
166.667	0.0605	333334	keystroke_Key.backspace	Key.backspace	n/a
166.8625	0.06	333725	keystroke_Key.backspace	Key.backspace	n/a
167.702	0.105	335404	keystroke_c	c	n/a
168.917	0.09	337834	keystroke_o	o	n/a
169.052	0.06	338104	keystroke_l	l	n/a
169.187	0.12	338374	keystroke_a	a	n/a
169.307	0.12	338614	keystroke_t	t	n/a
169.442	0.0455	338884	keystroke_e	e	n/a
169.5625	0.12	339125	keystroke_Key.space	Key.space	n/a
170.4175	0.06	340835	keystroke_s	s	n/a
170.7925	0.075	341585	keystroke_p	p	n/a
171.1825	0.06	342365	keystroke_e	e	n/a
171.3925	0.075	342785	keystroke_c	c	n/a
172.3525	0.075	344705	keystroke_t	t	n/a
172.8775	0.045	345755	keystroke_a	a	n/a
173.0275	0.075	346055	keystroke_c	c	n/a
173.1925	0.075	346385	keystroke_u	u	n/a
173.4325	0.135	346865	keystroke_l	l	n/a
173.5825	0.075	347165	keystroke_a	a	n/a
173.6425	0.09	347285	keystroke_r	r	n/a
173.8825	0.105	347765	keystroke_Key.enter	Key.enter	n/a
173.993	14.396	347986	prompt	n/a	workstation usgs investment gratuit\n
174.7825	0.075	349565	keystroke_w	w	n/a
174.9925	0.0745	349985	keystroke_o	o	n/a
175.112	0.1055	350224	keystroke_r	r	n/a
175.2325	0.09	350465	keystroke_k	k	n/a
175.6675	0.045	351335	keystroke_s	s	n/a
175.9225	0.09	351845	keystroke_t	t	n/a
176.3875	0.06	352775	keystroke_a	a	n/a
176.4175	0.1045	352835	keystroke_t	t	n/a
176.537	0.09	353074	keystroke_i	i	n/a
176.762	0.105	353524	keystroke_n	n	n/a
176.777	0.045	353554	keystroke_o	o	n/a
177.4675	0.045	354935	keystroke_Key.backspace	Key.backspace	n/a
177.5875	0.09	355175	keystroke_Key.backspace	Key.backspace	n/a
177.9175	0.09	355835	keystroke_o	o	n/a
177.9925	0.09	355985	keystroke_n	n	n/a
178.652	0.06	357304	keystroke_Key.space	Key.space	n/a
179.027	0.075	358054	keystroke_s	s	n/a
179.447	0.075	358894	keystroke_u	u	n/a
180.197	0.06	360394	keystroke_Key.backspace	Key.backspace	n/a
180.332	0.09	360664	keystroke_Key.backspace	Key.backspace	n/a
181.007	0.075	362014	keystroke_u	u	n/a
181.187	0.09	362374	keystroke_s	s	n/a
181.862	0.105	363724	keystroke_g	g	n/a
182.042	0.075	364084	keystroke_s	s	n/a
182.237	0.105	364474	keystroke_Key.space	Key.space	n/a
182.447	0.06	364894	keystroke_i	i	n/a
182.627	0.06	365254	keystroke_n	n	n/a
183.572	0.105	367144	keystroke_v	v	n/a
183.962	0.06	367924	keystroke_e	e	n/a
184.247	0.06	368494	keystroke_s	s	n/a
184.427	0.09	368854	keystroke_t	t	n/a
184.757	0.09	369514	keystroke_m	m	n/a
184.877	0.03	369754	keystroke_e	e	n/a
185.042	0.03	370084	keystroke_n	n	n/a
185.057	0.045	370114	keystroke_t	t	n/a
185.9115	0.091	371823	keystroke_Key.space	Key.space	n/a
186.1525	0.074	372305	keystroke_g	g	n/a
186.5415	0.09	373083	keystroke_r	r	n/a
186.7975	0.12	373595	keystroke_a	a	n/a
186.9025	0.059	373805	keystroke_t	t	n/a
187.772	0.09	375544	keystroke_u	u	n/a
187.952	0.105	375904	keystroke_i	i	n/a
188.042	0.09	376084	keystroke_t	t	n/a
188.282	0.105	376564	keystroke_Key.enter	Key.enter	n/a
188.3925	8.2165	376785	prompt	n/a	leonard scheme transfer removing\n
189.3775	0.075	378755	keystroke_l	l	n/a
189.4975	0.09	378995	keystroke_e	e	n/a
189.6615	0.12	379323	keystroke_o	o	n/a
189.7975	0.09	379595	keystroke_n	n	n/a
190.0525	0.06	380105	keystroke_a	a	n/a
190.0975	0.09	380195	keystroke_r	r	n/a
190.277	0.06	380554	keystroke_d	d	n/a
190.457	0.09	380914	keystroke_Key.space	Key.space	n/a
190.757	0.06	381514	keystroke_s	s	n/a
190.937	0.06	381874	keystroke_c	c	n/a
191.0725	0.0445	382145	keystroke_h	h	n/a
191.222	0.06	382444	keystroke_e	e	n/a
191.4175	0.045	382835	keystroke_d	d	n/a
192.032	0.06	384064	keystroke_Key.backspace	Key.backspace	n/a
192.363	0.059	384726	keystroke_m	m	n/a
192.437	0.061	384874	keystroke_e	e	n/a
192.602	0.09	385204	keystroke_Key.space	Key.space	n/a
192.887	0.135	385774	keystroke_t	t	n/a
193.1725	0.06	386345	keystroke_r	r	n/a
193.2775	0.09	386555	keystroke_a	a	n/a
193.7425	0.075	387485	keystroke_n	n	n/a
193.9825	0.06	387965	keystroke_s	s	n/a
194.3725	0.075	388745	keystroke_f	f	n/a
194.5225	0.09	389045	keystroke_e	e	n/a
194.5975	0.06	389195	keystroke_r	r	n/a
194.7625	0.09	389525	keystroke_Key.space	Key.space	n/a
195.0175	0.1195	390035	keystroke_r	r	n/a
195.197	0.075	390394	keystroke_e	e	n/a
195.377	0.09	390754	keystroke_m	m	n/a
195.587	0.075	391174	keystroke_o	o	n/a
195.872	0.09	391744	keystroke_v	v	n/a
195.977	0.06	391954	keystroke_i	i	n/a
196.1575	0.075	392315	keystroke_n	n	n/a
196.2475	0.045	392495	keystroke_g	g	n/a
196.5025	0.104	393005	keystroke_Key.enter	Key.enter	n/a
196.612	17.427	393224	prompt	n/a	driving ancient spirituality flavor\n
197.3275	0.059	394655	keystroke_d	d	n/a
197.5065	0.061	395013	keystroke_r	r	n/a
197.6715	0.045	395343	keystroke_i	i	n/a
197.7475	0.119	395495	keystroke_v	v	n/a
197.8515	0.045	395703	keystroke_i	i	n/a
197.9725	0.074	395945	keystroke_n	n	n/a
198.0475	0.0595	396095	keystroke_g	g	n/a
198.7515	0.105	397503	keystroke_Key.space	Key.space	n/a
198.9775	0.06	397955	keystroke_a	a	n/a
199.247	0.045	398494	keystroke_n	n	n/a
199.8165	0.075	399633	keystroke_c	c	n/a
200.0865	0.06	400173	keystroke_i	i	n/a
200.252	0.06	400504	keystroke_e	e	n/a
200.342	0.0595	400684	keystroke_n	n	n/a
200.4025	0.0895	400805	keystroke_t	t	n/a
200.627	0.09	401254	keystroke_Key.space	Key.space	n/a
201.152	0.045	402304	keystroke_s	s	n/a
201.482	0.12	402964	keystroke_p	p	n/a
202.2175	0.075	404435	keystroke_o	o	n/a
202.5775	0.075	405155	keystroke_r	r	n/a
203.207	0.09	406414	keystroke_i	i	n/a
203.582	0.105	407164	keystroke_t	t	n/a
203.7475	0.09	407495	keystroke_u	u	n/a
203.972	0.06	407944	keystroke_a	a	n/a
204.092	0.045	408184	keystroke_l	l	n/a
205.0375	0.075	410075	keystroke_Key.backspace	Key.backspace	n/a
205.1725	0.075	410345	keystroke_Key.backspace	Key.backspace	n/a
205.3375	0.045	410675	keystroke_Key.backspace	Key.backspace	n/a
205.5475	0.06	411095	keystroke_Key.backspace	Key.backspace	n/a
205.7125	0.045	411425	keystroke_Key.backspace	Key.backspace	n/a
205.8625	0.06	411725	keystroke_Key.backspace	Key.backspace	n/a
205.9975	0.09	411995	keystroke_Key.backspace	Key.backspace	n/a
207.0015	0.076	414003	keystroke_i	i	n/a
207.512	0.015	415024	keystroke_r	r	n/a
207.617	0.075	415234	keystroke_i	i	n/a
207.752	0.09	415504	keystroke_t	t	n/a
207.992	0.0895	415984	keystroke_u	u	n/a
208.2025	0.044	416405	keystroke_a	a	n/a
208.2615	0.075	416523	keystroke_l	l	n/a
208.5475	0.045	417095	keystroke_i	i	n/a
210.0175	0.0595	420035	keystroke_t	t	n/a
210.1975	0.105	420395	keystroke_y	y	n/a
210.3175	0.105	420635	keystroke_Key.space	Key.space	n/a
210.5275	0.105	421055	keystroke_f	f	n/a
210.707	0.09	421414	keystroke_l	l	n/a
210.8265	0.09	421653	keystroke_a	a	n/a
210.9315	0.12	421863	keystroke_v	v	n/a
211.0815	0.0755	422163	keystroke_o	o	n/a
213.499	0.001	426998	keystroke_r	r	n/a
213.992	0.045	427984	keystroke_Key.enter	Key.enter	n/a
214.042	9.7015	428084	prompt	n/a	mortgage nikon generator ricky\n
215.042	0.0905	430084	keystroke_m	m	n/a
215.3575	0.045	430715	keystroke_o	o	n/a
215.5975	0.09	431195	keystroke_r	r	n/a
215.8975	0.09	431795	keystroke_t	t	n/a
216.482	0.15	432964	keystroke_g	g	n/a
216.707	0.06	433414	keystroke_a	a	n/a
216.752	0.105	433504	keystroke_g	g	n/a
216.887	0.075	433774	keystroke_e	e	n/a
217.037	0.105	434074	keystroke_Key.space	Key.space	n/a
217.292	0.105	434584	keystroke_n	n	n/a
217.5165	0.045	435033	keystroke_i	i	n/a
217.6965	0.075	435393	keystroke_k	k	n/a
217.8915	0.075	435783	keystroke_o	o	n/a
217.9515	0.105	435903	keystroke_n	n	n/a
218.2065	0.075	436413	keystroke_Key.space	Key.space	n/a
218.4775	0.104	436955	keystroke_g	g	n/a
218.8225	0.075	437645	keystroke_n	n	n/a
219.212	0.045	438424	keystroke_e	e	n/a
220.007	0.09	440014	keystroke_Key.backspace	Key.backspace	n/a
220.127	0.135	440254	keystroke_Key.backspace	Key.backspace	n/a
221.372	0.03	442744	keystroke_e	e	n/a
221.522	0.0595	443044	keystroke_n	n	n/a
221.657	0.1205	443314	keystroke_e	e	n/a
221.732	0.1195	443464	keystroke_r	r	n/a
222.047	0.105	444094	keystroke_a	a	n/a
222.107	0.105	444214	keystroke_t	t	n/a
222.227	0.105	444454	keystroke_o	o	n/a
222.317	0.06	444634	keystroke_r	r	n/a
222.632	0.045	445264	keystroke_Key.space	Key.space	n/a
222.707	0.09	445414	keystroke_r	r	n/a
222.887	0.0605	445774	keystroke_i	i	n/a
222.9775	0.059	445955	keystroke_c	c	n/a
223.0815	0.06	446163	keystroke_k	k	n/a
223.3665	0.091	446733	keystroke_y	y	n/a
223.6665	0.075	447333	keystroke_Key.enter	Key.enter	n/a
223.7465	8.922	447493	prompt	n/a	edit defeat criticism frederick\n
224.417	0.06	448834	keystroke_e	e	n/a
224.597	0.045	449194	keystroke_d	d	n/a
224.687	0.06	449374	keystroke_i	i	n/a
225.0475	0.09	450095	keystroke_t	t	n/a
225.2575	0.09	450515	keystroke_Key.space	Key.space	n/a
225.3925	0.06	450785	keystroke_d	d	n/a
225.5875	0.015	451175	keystroke_e	e	n/a
226.112	0.105	452224	keystroke_f	f	n/a
226.457	0.09	452914	keystroke_e	e	n/a
226.607	0.105	453214	keystroke_a	a	n/a
226.682	0.105	453364	keystroke_t	t	n/a
226.967	0.0895	453934	keystroke_Key.space	Key.space	n/a
227.402	0.015	454804	keystroke_c	c	n/a
227.567	0.09	455134	keystroke_r	r	n/a
228.6325	0.044	457265	keystroke_i	i	n/a
228.7065	0.076	457413	keystroke_t	t	n/a
228.812	0.0745	457624	keystroke_i	i	n/a
228.992	0.0745	457984	keystroke_c	c	n/a
229.0975	0.059	458195	keystroke_i	i	n/a
229.787	0.075	459574	keystroke_s	s	n/a
229.877	0.075	459754	keystroke_m	m	n/a
230.057	0.09	460114	keystroke_Key.space	Key.space	n/a
230.207	0.09	460414	keystroke_f	f	n/a
230.402	0.105	460804	keystroke_r	r	n/a
230.508	0.104	461016	keystroke_e	e	n/a
230.717	0.06	461434	keystroke_d	d	n/a
230.927	0.075	461854	keystroke_e	e	n/a
230.972	0.09	461944	keystroke_r	r	n/a
231.077	0.06	462154	keystroke_i	i	n/a
231.242	0.0905	462484	keystroke_k	k	n/a
231.362	0.09	462724	keystroke_c	c	n/a
231.9625	0.044	463925	keystroke_Key.backspace	Key.backspace	n/a
232.0815	0.09	464163	keystroke_Key.backspace	Key.backspace	n/a
232.2175	0.06	464435	keystroke_c	c	n/a
232.3375	0.075	464675	keystroke_k	k	n/a
232.5775	0.09	465155	keystroke_Key.enter	Key.enter	n/a
232.6745	6.0995	465349	prompt	n/a	western heard math prison\n
233.417	0.075	466834	keystroke_w	w	n/a
233.657	0.045	467314	keystroke_e	e	n/a
233.852	0.12	467704	keystroke_s	s	n/a
233.973	0.074	467946	keystroke_t	t	n/a
234.092	0.075	468184	keystroke_e	e	n/a
234.137	0.105	468274	keystroke_r	r	n/a
234.302	0.105	468604	keystroke_n	n	n/a
234.437	0.12	468874	keystroke_Key.space	Key.space	n/a
235.052	0.03	470104	keystroke_h	h	n/a
235.3075	0.105	470615	keystroke_e	e	n/a
235.4575	0.12	470915	keystroke_a	a	n/a
235.5325	0.1045	471065	keystroke_r	r	n/a
235.712	0.06	471424	keystroke_d	d	n/a
235.907	0.09	471814	keystroke_Key.space	Key.space	n/a
236.2075	0.075	472415	keystroke_n	n	n/a
236.582	0.075	473164	keystroke_Key.backspace	Key.backspace	n/a
236.883	0.06	473766	keystroke_m	m	n/a
236.987	0.06	473974	keystroke_a	a	n/a
237.078	0.0895	474156	keystroke_t	t	n/a
237.1825	0.09	474365	keystroke_h	h	n/a
237.2875	0.075	474575	keystroke_Key.space	Key.space	n/a
237.5575	0.105	475115	keystroke_p	p	n/a
237.6775	0.09	475355	keystroke_r	r	n/a
237.8425	0.12	475685	keystroke_i	i	n/a
238.0525	0.075	476105	keystroke_s	s	n/a
238.2475	0.15	476495	keystroke_o	o	n/a
238.3675	0.105	476735	keystroke_n	n	n/a
238.7425	0.03	477485	keystroke_Key.enter	Key.enter	n/a
238.777	6.717	477554	prompt	n/a	lace killing lucy ferry\n
239.5075	0.0445	479015	keystroke_l	l	n/a
239.582	0.075	479164	keystroke_a	a	n/a
239.747	0.075	479494	keystroke_c	c	n/a
239.9425	0.03	479885	keystroke_e	e	n/a
240.032	0.075	480064	keystroke_Key.space	Key.space	n/a
240.182	0.0605	480364	keystroke_k	k	n/a
240.3475	0.0445	480695	keystroke_i	i	n/a
240.602	0.06	481204	keystroke_l	l	n/a
240.827	0.015	481654	keystroke_l	l	n/a
240.9175	0.0745	481835	keystroke_i	i	n/a
241.112	0.0905	482224	keystroke_n	n	n/a
241.2325	0.09	482465	keystroke_g	g	n/a
241.3975	0.075	482795	keystroke_Key.space	Key.space	n/a
241.6825	0.075	483365	keystroke_l	l	n/a
241.8475	0.075	483695	keystroke_u	u	n/a
241.9525	0.09	483905	keystroke_c	c	n/a
242.0575	0.075	484115	keystroke_h	h	n/a
242.2225	0.09	484445	keystroke_Key.space	Key.space	n/a
242.4025	0.105	484805	keystroke_f	f	n/a
242.8525	0.015	485705	keystroke_Key.backspace	Key.backspace	n/a
242.9425	0.06	485885	keystroke_Key.backspace	Key.backspace	n/a
243.0775	0.09	486155	keystroke_Key.backspace	Key.backspace	n/a
243.6325	0.105	487265	keystroke_y	y	n/a
243.7675	0.12	487535	keystroke_Key.space	Key.space	n/a
243.9475	0.105	487895	keystroke_f	f	n/a
244.5025	0.06	489005	keystroke_e	e	n/a
244.7125	0.045	489425	keystroke_r	r	n/a
244.8325	0.075	489665	keystroke_r	r	n/a
244.9375	0.105	489875	keystroke_y	y	n/a
245.1475	0.06	490295	keystroke_Key.space	Key.space	n/a
245.4025	0.09	490805	keystroke_Key.enter	Key.enter	n/a
245.497	7.977	490994	prompt	n/a	clinton soldier naturally dishes\n
246.4075	0.075	492815	keystroke_c	c	n/a
246.6625	0.075	493325	keystroke_l	l	n/a
246.8275	0.06	493655	keystroke_i	i	n/a
246.993	0.06	493986	keystroke_n	n	n/a
247.1575	0.09	494315	keystroke_t	t	n/a
247.3225	0.09	494645	keystroke_o	o	n/a
247.3975	0.09	494795	keystroke_n	n	n/a
247.5475	0.09	495095	keystroke_Key.space	Key.space	n/a
247.8025	0.06	495605	keystroke_s	s	n/a
247.8775	0.075	495755	keystroke_o	o	n/a
248.0425	0.105	496085	keystroke_l	l	n/a
248.6725	0.045	497345	keystroke_d	d	n/a
249.8425	0.075	499685	keystroke_i	i	n/a
249.9475	0.075	499895	keystroke_e	e	n/a
250.0075	0.06	500015	keystroke_r	r	n/a
250.1125	0.075	500225	keystroke_Key.space	Key.space	n/a
250.367	0.015	500734	keystroke_n	n	n/a
250.802	0.06	501604	keystroke_a	a	n/a
251.027	0.09	502054	keystroke_t	t	n/a
251.192	0.09	502384	keystroke_u	u	n/a
251.297	0.06	502594	keystroke_r	r	n/a
251.372	0.0905	502744	keystroke_a	a	n/a
251.6575	0.075	503315	keystroke_l	l	n/a
251.8525	0.045	503705	keystroke_l	l	n/a
252.0925	0.1355	504185	keystroke_y	y	n/a
252.212	0.06	504424	keystroke_Key.space	Key.space	n/a
252.287	0.091	504574	keystroke_d	d	n/a
252.513	0.03	505026	keystroke_i	i	n/a
252.603	0.059	505206	keystroke_s	s	n/a
252.873	0.075	505746	keystroke_h	h	n/a
253.022	0.06	506044	keystroke_e	e	n/a
253.1725	0.09	506345	keystroke_s	s	n/a
253.368	0.105	506736	keystroke_Key.enter	Key.enter	n/a
253.477	7.9175	506954	prompt	n/a	they mails afford medicines\n
254.913	0.09	509826	keystroke_t	t	n/a
255.123	0.0745	510246	keystroke_h	h	n/a
255.2275	0.045	510455	keystroke_e	e	n/a
255.3175	0.045	510635	keystroke_y	y	n/a
255.4375	0.105	510875	keystroke_Key.space	Key.space	n/a
256.1725	0.075	512345	keystroke_m	m	n/a
256.2625	0.075	512525	keystroke_a	a	n/a
256.4125	0.06	512825	keystroke_i	i	n/a
256.5775	0.06	513155	keystroke_l	l	n/a
256.6675	0.075	513335	keystroke_s	s	n/a
256.803	0.09	513606	keystroke_Key.space	Key.space	n/a
256.908	0.09	513816	keystroke_a	a	n/a
257.148	0.045	514296	keystroke_f	f	n/a
257.298	0.045	514596	keystroke_f	f	n/a
257.403	0.06	514806	keystroke_o	o	n/a
257.598	0.045	515196	keystroke_r	r	n/a
257.733	0.075	515466	keystroke_d	d	n/a
257.883	0.09	515766	keystroke_Key.space	Key.space	n/a
258.318	0.0595	516636	keystroke_m	m	n/a
258.4975	0.045	516995	keystroke_e	e	n/a
258.7975	0.03	517595	keystroke_e	e	n/a
259.5475	0.06	519095	keystroke_Key.backspace	Key.backspace	n/a
259.6975	0.06	519395	keystroke_d	d	n/a
259.9675	0.045	519935	keystroke_i	i	n/a
260.0875	0.09	520175	keystroke_c	c	n/a
260.1925	0.06	520385	keystroke_i	i	n/a
260.3575	0.09	520715	keystroke_n	n	n/a
260.9575	0.075	521915	keystroke_e	e	n/a
261.153	0.045	522306	keystroke_s	s	n/a
261.273	0.12	522546	keystroke_Key.enter	Key.enter	n/a
261.3985	8.7105	522797	prompt	n/a	brutal crucial function veteran\n
262.2925	0.075	524585	keystroke_b	b	n/a
262.5925	0.075	525185	keystroke_r	r	n/a
263.193	0.045	526386	keystroke_u	u	n/a
263.583	0.06	527166	keystroke_t	t	n/a
263.718	0.06	527436	keystroke_a	a	n/a
263.852	0.091	527704	keystroke_l	l	n/a
264.017	0.106	528034	keystroke_Key.space	Key.space	n/a
264.243	0.09	528486	keystroke_c	c	n/a
264.543	0.06	529086	keystroke_r	r	n/a
264.723	0.075	529446	keystroke_u	u	n/a
264.918	0.09	529836	keystroke_c	c	n/a
265.052	0.061	530104	keystroke_i	i	n/a
265.158	0.0895	530316	keystroke_a	a	n/a
265.2925	0.075	530585	keystroke_l	l	n/a
266.043	0.104	532086	keystroke_Key.space	Key.space	n/a
266.343	0.09	532686	keystroke_f	f	n/a
266.523	0.075	533046	keystroke_u	u	n/a
267.078	0.06	534156	keystroke_n	n	n/a
267.2875	0.075	534575	keystroke_c	c	n/a
267.5125	0.09	535025	keystroke_t	t	n/a
267.6475	0.06	535295	keystroke_i	i	n/a
267.7525	0.105	535505	keystroke_o	o	n/a
267.8275	0.1505	535655	keystroke_n	n	n/a
267.963	0.075	535926	keystroke_Key.space	Key.space	n/a
268.428	0.105	536856	keystroke_v	v	n/a
268.938	0.06	537876	keystroke_e	e	n/a
269.193	0.075	538386	keystroke_t	t	n/a
269.4175	0.075	538835	keystroke_e	e	n/a
269.4625	0.09	538925	keystroke_r	r	n/a
269.5975	0.075	539195	keystroke_a	a	n/a
269.7325	0.105	539465	keystroke_n	n	n/a
270.0325	0.075	540065	keystroke_Key.enter	Key.enter	n/a
270.1115	9.9575	540223	prompt	n/a	corresponding offense laser cinema\n
270.903	0.09	541806	keystroke_c	c	n/a
271.1425	0.0605	542285	keystroke_o	o	n/a
271.608	0.06	543216	keystroke_r	r	n/a
271.728	0.09	543456	keystroke_r	r	n/a
272.0125	0.075	544025	keystroke_s	s	n/a
272.403	0.105	544806	keystroke_Key.backspace	Key.backspace	n/a
272.523	0.09	545046	keystroke_e	e	n/a
272.733	0.12	545466	keystroke_s	s	n/a
272.958	0.0595	545916	keystroke_p	p	n/a
273.2575	0.075	546515	keystroke_o	o	n/a
273.3475	0.0755	546695	keystroke_n	n	n/a
273.438	0.06	546876	keystroke_d	d	n/a
273.558	0.044	547116	keystroke_i	i	n/a
273.618	0.105	547236	keystroke_n	n	n/a
273.753	0.06	547506	keystroke_g	g	n/a
274.368	0.09	548736	keystroke_Key.space	Key.space	n/a
274.578	0.0595	549156	keystroke_o	o	n/a
274.728	0.06	549456	keystroke_f	f	n/a
274.878	0.045	549756	keystroke_f	f	n/a
275.313	0.089	550626	keystroke_e	e	n/a
275.552	0.06	551104	keystroke_n	n	n/a
275.627	0.061	551254	keystroke_s	s	n/a
275.748	0.075	551496	keystroke_e	e	n/a
276.2125	0.105	552425	keystroke_Key.space	Key.space	n/a
276.4975	0.06	552995	keystroke_l	l	n/a
276.5875	0.09	553175	keystroke_a	a	n/a
276.6475	0.105	553295	keystroke_s	s	n/a
277.008	0.105	554016	keystroke_e	e	n/a
277.083	0.105	554166	keystroke_r	r	n/a
277.218	0.09	554436	keystroke_Key.space	Key.space	n/a
277.518	0.075	555036	keystroke_c	c	n/a
277.608	0.06	555216	keystroke_i	i	n/a
277.788	0.075	555576	keystroke_n	n	n/a
277.818	0.06	555636	keystroke_c	c	n/a
279.0025	0.06	558005	keystroke_Key.backspace	Key.backspace	n/a
279.5575	0.045	559115	keystroke_e	e	n/a
279.7075	0.075	559415	keystroke_m	m	n/a
279.7835	0.089	559567	keystroke_a	a	n/a
280.0075	0.06	560015	keystroke_Key.enter	Key.enter	n/a
280.0725	7.4365	560145	prompt	n/a	loading lasting nest i'll\n
280.8475	0.045	561695	keystroke_l	l	n/a
281.0425	0.045	562085	keystroke_o	o	n/a
281.1025	0.09	562205	keystroke_a	a	n/a
281.3425	0.03	562685	keystroke_d	d	n/a
281.447	0.075	562894	keystroke_i	i	n/a
281.583	0.075	563166	keystroke_n	n	n/a
281.702	0.076	563404	keystroke_g	g	n/a
282.078	0.075	564156	keystroke_Key.space	Key.space	n/a
282.288	0.06	564576	keystroke_l	l	n/a
282.393	0.06	564786	keystroke_a	a	n/a
282.573	0.06	565146	keystroke_s	s	n/a
282.738	0.09	565476	keystroke_t	t	n/a
282.843	0.06	565686	keystroke_i	i	n/a
282.963	0.075	565926	keystroke_n	n	n/a
283.053	0.075	566106	keystroke_g	g	n/a
283.428	0.09	566856	keystroke_Key.space	Key.space	n/a
283.683	0.06	567366	keystroke_n	n	n/a
283.788	0.06	567576	keystroke_e	e	n/a
284.2225	0.09	568445	keystroke_s	s	n/a
284.2825	0.075	568565	keystroke_t	t	n/a
284.4175	0.09	568835	keystroke_Key.space	Key.space	n/a
284.6725	0.15	569345	keystroke_Key.shift	Key.shift	n/a
285.0475	0.06	570095	keystroke_Key.shift	Key.shift	n/a
285.183	0.075	570366	keystroke_i	i	n/a
286.1275	0.075	572255	keystroke_'	'	n/a
286.5475	0.09	573095	keystroke_l	l	n/a
286.8325	0.09	573665	keystroke_l	l	n/a
287.4625	0.045	574925	keystroke_Key.enter	Key.enter	n/a
287.5115	11.5775	575023	prompt	n/a	ecology seeker laboratories engineer\n
288.2875	0.075	576575	keystroke_e	e	n/a
288.5275	0.075	577055	keystroke_c	c	n/a
288.6625	0.06	577325	keystroke_o	o	n/a
288.843	0.0295	577686	keystroke_l	l	n/a
289.008	0.03	578016	keystroke_o	o	n/a
289.083	0.09	578166	keystroke_g	g	n/a
289.638	0.105	579276	keystroke_y	y	n/a
289.953	0.105	579906	keystroke_Key.space	Key.space	n/a
290.118	0.075	580236	keystroke_s	s	n/a
290.433	0.075	580866	keystroke_e	e	n/a
290.583	0.045	581166	keystroke_e	e	n/a
290.733	0.06	581466	keystroke_k	k	n/a
290.853	0.105	581706	keystroke_e	e	n/a
290.928	0.075	581856	keystroke_r	r	n/a
291.108	0.075	582216	keystroke_Key.space	Key.space	n/a
291.303	0.075	582606	keystroke_l	l	n/a
291.468	0.075	582936	keystroke_a	a	n/a
291.618	0.06	583236	keystroke_b	b	n/a
292.548	0.045	585096	keystroke_o	o	n/a
292.623	0.06	585246	keystroke_r	r	n/a
293.6725	0.09	587345	keystroke_a	a	n/a
293.7775	0.075	587555	keystroke_t	t	n/a
293.9725	0.0755	587945	keystroke_o	o	n/a
294.093	0.09	588186	keystroke_r	r	n/a
294.153	0.06	588306	keystroke_e	e	n/a
294.198	0.075	588396	keystroke_i	i	n/a
294.318	0.105	588636	keystroke_s	s	n/a
295.113	0.0745	590226	keystroke_Key.backspace	Key.backspace	n/a
295.2775	0.075	590555	keystroke_Key.backspace	Key.backspace	n/a
295.4425	0.06	590885	keystroke_Key.backspace	Key.backspace	n/a
295.5925	0.06	591185	keystroke_Key.backspace	Key.backspace	n/a
295.6975	0.105	591395	keystroke_Key.backspace	Key.backspace	n/a
296.733	0.045	593466	keystroke_o	o	n/a
297.1525	0.075	594305	keystroke_r	r	n/a
297.2725	0.09	594545	keystroke_i	i	n/a
297.3475	0.06	594695	keystroke_e	e	n/a
297.5125	0.075	595025	keystroke_s	s	n/a
297.6625	0.075	595325	keystroke_Key.space	Key.space	n/a
297.8275	0.0755	595655	keystroke_e	e	n/a
298.008	0.045	596016	keystroke_n	n	n/a
298.083	0.075	596166	keystroke_g	g	n/a
298.308	0.045	596616	keystroke_i	i	n/a
298.518	0.03	597036	keystroke_n	n	n/a
298.638	0.074	597276	keystroke_n	n	n/a
298.772	0.091	597544	keystroke_e	e	n/a
298.833	0.09	597666	keystroke_r	r	n/a
298.983	0.104	597966	keystroke_Key.enter	Key.enter	n/a
299.0935	13.721	598187	prompt	n/a	prophet analysts activists overhead\n
300.0775	0.09	600155	keystroke_p	p	n/a
300.2275	0.105	600455	keystroke_r	r	n/a
300.4975	0.09	600995	keystroke_h	h	n/a
301.1125	0.06	602225	keystroke_Key.backspace	Key.backspace	n/a
301.9525	0.12	603905	keystroke_o	o	n/a
302.3425	0.075	604685	keystroke_p	p	n/a
302.7175	0.075	605435	keystroke_h	h	n/a
302.9125	0.06	605825	keystroke_e	e	n/a
302.9875	0.075	605975	keystroke_n	n	n/a
303.0925	0.105	606185	keystroke_Key.space	Key.space	n/a
303.258	0.074	606516	keystroke_a	a	n/a
303.392	0.061	606784	keystroke_n	n	n/a
304.307	0.045	608614	keystroke_Key.backspace	Key.backspace	n/a
304.443	0.075	608886	keystroke_Key.backspace	Key.backspace	n/a
304.622	0.045	609244	keystroke_Key.backspace	Key.backspace	n/a
304.967	0.0605	609934	keystroke_Key.backspace	Key.backspace	n/a
305.4935	0.089	610987	keystroke_t	t	n/a
305.6575	0.09	611315	keystroke_Key.space	Key.space	n/a
306.453	0.075	612906	keystroke_a	a	n/a
306.768	0.06	613536	keystroke_n	n	n/a
306.858	0.075	613716	keystroke_a	a	n/a
307.203	0.09	614406	keystroke_l	l	n/a
307.5775	0.045	615155	keystroke_y	y	n/a
307.7275	0.06	615455	keystroke_s	s	n/a
308.478	0.105	616956	keystroke_t	t	n/a
308.658	0.09	617316	keystroke_s	s	n/a
308.853	0.105	617706	keystroke_Key.space	Key.space	n/a
308.988	0.09	617976	keystroke_a	a	n/a
309.2275	0.06	618455	keystroke_c	c	n/a
309.4375	0.075	618875	keystroke_t	t	n/a
309.6485	0.059	619297	keystroke_i	i	n/a
309.6925	0.075	619385	keystroke_v	v	n/a
309.8125	0.06	619625	keystroke_i	i	n/a
310.6225	0.075	621245	keystroke_s	s	n/a
310.7125	0.075	621425	keystroke_t	t	n/a
310.8325	0.06	621665	keystroke_s	s	n/a
310.9975	0.09	621995	keystroke_Key.space	Key.space	n/a
311.1775	0.09	622355	keystroke_o	o	n/a
311.3125	0.09	622625	keystroke_v	v	n/a
311.553	0.105	623106	keystroke_e	e	n/a
311.673	0.075	623346	keystroke_r	r	n/a
312.0475	0.0755	624095	keystroke_h	h	n/a
312.228	0.0445	624456	keystroke_e	e	n/a
312.3475	0.1205	624695	keystroke_a	a	n/a
312.4225	0.105	624845	keystroke_r	r	n/a
312.6025	0.045	625205	keystroke_d	d	n/a
312.7075	0.1055	625415	keystroke_Key.enter	Key.enter	n/a
312.817	7.4975	625634	prompt	n/a	variable single diary victorian\n
313.563	0.09	627126	keystroke_v	v	n/a
313.758	0.09	627516	keystroke_a	a	n/a
313.818	0.105	627636	keystroke_r	r	n/a
313.998	0.075	627996	keystroke_i	i	n/a
314.088	0.075	628176	keystroke_a	a	n/a
314.208	0.0745	628416	keystroke_b	b	n/a
314.4025	0.06	628805	keystroke_l	l	n/a
314.4925	0.06	628985	keystroke_e	e	n/a
314.6125	0.075	629225	keystroke_Key.space	Key.space	n/a
315.0175	0.075	630035	keystroke_s	s	n/a
315.1075	0.0605	630215	keystroke_i	i	n/a
315.228	0.075	630456	keystroke_n	n	n/a
315.318	0.06	630636	keystroke_g	g	n/a
315.573	0.045	631146	keystroke_l	l	n/a
315.678	0.06	631356	keystroke_e	e	n/a
315.843	0.059	631686	keystroke_Key.space	Key.space	n/a
316.113	0.06	632226	keystroke_d	d	n/a
316.413	0.06	632826	keystroke_i	i	n/a
316.983	0.09	633966	keystroke_a	a	n/a
317.073	0.09	634146	keystroke_r	r	n/a
317.2225	0.12	634445	keystroke_y	y	n/a
317.3725	0.09	634745	keystroke_Key.space	Key.space	n/a
317.6725	0.0455	635345	keystroke_v	v	n/a
318.0475	0.0605	636095	keystroke_i	i	n/a
318.153	0.075	636306	keystroke_c	c	n/a
318.393	0.075	636786	keystroke_t	t	n/a
318.528	0.09	637056	keystroke_o	o	n/a
318.633	0.075	637266	keystroke_r	r	n/a
318.723	0.045	637446	keystroke_i	i	n/a
318.858	0.06	637716	keystroke_a	a	n/a
318.873	0.075	637746	keystroke_n	n	n/a
320.208	0.105	640416	keystroke_Key.enter	Key.enter	n/a
320.317	8.743	640634	prompt	n/a	brief made agreements ongoing\n
321.0775	0.0605	642155	keystroke_b	b	n/a
321.4225	0.105	642845	keystroke_r	r	n/a
321.6475	0.06	643295	keystroke_e	e	n/a
322.2625	0.0605	644525	keystroke_Key.backspace	Key.backspace	n/a
322.563	0.045	645126	keystroke_i	i	n/a
322.638	0.06	645276	keystroke_e	e	n/a
322.788	0.09	645576	keystroke_f	f	n/a
323.628	0.09	647256	keystroke_Key.space	Key.space	n/a
323.8675	0.06	647735	keystroke_m	m	n/a
323.9125	0.105	647825	keystroke_a	a	n/a
324.3025	0.06	648605	keystroke_e	e	n/a
324.6325	0.075	649265	keystroke_Key.backspace	Key.backspace	n/a
324.7675	0.045	649535	keystroke_d	d	n/a
324.9175	0.06	649835	keystroke_e	e	n/a
325.053	0.075	650106	keystroke_Key.space	Key.space	n/a
325.158	0.1045	650316	keystroke_a	a	n/a
325.3225	0.075	650645	keystroke_g	g	n/a
325.5325	0.06	651065	keystroke_r	r	n/a
326.8975	0.045	653795	keystroke_e	e	n/a
327.0325	0.045	654065	keystroke_e	e	n/a
327.1675	0.075	654335	keystroke_m	m	n/a
327.2575	0.045	654515	keystroke_e	e	n/a
327.3625	0.06	654725	keystroke_n	n	n/a
327.4075	0.075	654815	keystroke_t	t	n/a
327.6175	0.045	655235	keystroke_s	s	n/a
327.7375	0.09	655475	keystroke_Key.space	Key.space	n/a
327.9925	0.09	655985	keystroke_o	o	n/a
328.0975	0.06	656195	keystroke_n	n	n/a
328.2025	0.06	656405	keystroke_g	g	n/a
328.3225	0.105	656645	keystroke_o	o	n/a
328.4125	0.09	656825	keystroke_i	i	n/a
328.5325	0.075	657065	keystroke_n	n	n/a
328.6375	0.075	657275	keystroke_g	g	n/a
328.9675	0.091	657935	keystroke_Key.enter	Key.enter	n/a
329.0665	5.228	658133	prompt	n/a	recipes johns sandy praise\n
329.8225	0.12	659645	keystroke_r	r	n/a
329.9275	0.075	659855	keystroke_e	e	n/a
330.1375	0.075	660275	keystroke_c	c	n/a
330.3025	0.045	660605	keystroke_i	i	n/a
330.4675	0.09	660935	keystroke_p	p	n/a
330.5725	0.03	661145	keystroke_e	e	n/a
330.678	0.075	661356	keystroke_s	s	n/a
330.858	0.075	661716	keystroke_Key.space	Key.space	n/a
331.143	0.06	662286	keystroke_j	j	n/a
331.488	0.105	662976	keystroke_o	o	n/a
331.623	0.12	663246	keystroke_h	h	n/a
331.863	0.03	663726	keystroke_n	n	n/a
332.043	0.075	664086	keystroke_s	s	n/a
332.478	0.105	664956	keystroke_Key.space	Key.space	n/a
332.643	0.06	665286	keystroke_s	s	n/a
332.778	0.075	665556	keystroke_a	a	n/a
332.793	0.075	665586	keystroke_n	n	n/a
332.943	0.06	665886	keystroke_d	d	n/a
333.063	0.09	666126	keystroke_Key.space	Key.space	n/a
333.423	0.045	666846	keystroke_p	p	n/a
333.528	0.075	667056	keystroke_r	r	n/a
333.633	0.09	667266	keystroke_a	a	n/a
333.813	0.045	667626	keystroke_i	i	n/a
333.873	0.09	667746	keystroke_s	s	n/a
334.053	0.045	668106	keystroke_e	e	n/a
334.218	0.075	668436	keystroke_Key.enter	Key.enter	n/a
334.2975	10.047	668595	prompt	n/a	concepts networking charter chinese\n
334.998	0.09	669996	keystroke_c	c	n/a
335.133	0.09	670266	keystroke_o	o	n/a
335.268	0.09	670536	keystroke_n	n	n/a
335.373	0.075	670746	keystroke_c	c	n/a
335.613	0.075	671226	keystroke_e	e	n/a
335.793	0.105	671586	keystroke_p	p	n/a
335.943	0.09	671886	keystroke_t	t	n/a
336.1075	0.075	672215	keystroke_s	s	n/a
336.4525	0.075	672905	keystroke_Key.space	Key.space	n/a
336.7675	0.06	673535	keystroke_n	n	n/a
336.8875	0.06	673775	keystroke_e	e	n/a
336.9925	0.09	673985	keystroke_t	t	n/a
337.1725	0.09	674345	keystroke_o	o	n/a
337.2025	0.075	674405	keystroke_w	w	n/a
337.4575	0.075	674915	keystroke_r	r	n/a
337.6525	0.06	675305	keystroke_k	k	n/a
337.9825	0.045	675965	keystroke_Key.backspace	Key.backspace	n/a
338.1175	0.045	676235	keystroke_Key.backspace	Key.backspace	n/a
338.2675	0.06	676535	keystroke_Key.backspace	Key.backspace	n/a
338.4175	0.06	676835	keystroke_Key.backspace	Key.backspace	n/a
338.718	0.06	677436	keystroke_w	w	n/a
338.9725	0.09	677945	keystroke_o	o	n/a
339.1225	0.0605	678245	keystroke_r	r	n/a
339.213	0.06	678426	keystroke_k	k	n/a
339.468	0.03	678936	keystroke_i	i	n/a
339.543	0.06	679086	keystroke_n	n	n/a
339.633	0.075	679266	keystroke_g	g	n/a
340.4275	0.09	680855	keystroke_Key.space	Key.space	n/a
340.998	0.09	681996	keystroke_c	c	n/a
341.133	0.09	682266	keystroke_h	h	n/a
341.253	0.09	682506	keystroke_a	a	n/a
341.313	0.105	682626	keystroke_r	r	n/a
341.5535	0.06	683107	keystroke_t	t	n/a
341.6435	0.135	683287	keystroke_e	e	n/a
341.7335	0.12	683467	keystroke_r	r	n/a
341.8985	0.09	683797	keystroke_Key.space	Key.space	n/a
342.0485	0.06	684097	keystroke_c	c	n/a
342.1235	0.075	684247	keystroke_i	i	n/a
342.2885	0.06	684577	keystroke_n	n	n/a
342.8435	0.075	685687	keystroke_Key.backspace	Key.backspace	n/a
342.9635	0.075	685927	keystroke_Key.backspace	Key.backspace	n/a
343.2485	0.075	686497	keystroke_h	h	n/a
343.4285	0.059	686857	keystroke_i	i	n/a
343.5635	0.075	687127	keystroke_n	n	n/a
343.7585	0.075	687517	keystroke_e	e	n/a
343.9385	0.06	687877	keystroke_s	s	n/a
344.058	0.075	688116	keystroke_e	e	n/a
344.2675	0.075	688535	keystroke_Key.enter	Key.enter	n/a
344.3475	10.947	688695	prompt	n/a	pharmacies corresponding rocket rational\n
345.303	0.075	690606	keystroke_p	p	n/a
345.7825	0.09	691565	keystroke_h	h	n/a
346.3525	0.075	692705	keystroke_a	a	n/a
346.5475	0.075	693095	keystroke_r	r	n/a
346.8025	0.09	693605	keystroke_m	m	n/a
346.983	0.075	693966	keystroke_a	a	n/a
347.223	0.105	694446	keystroke_c	c	n/a
347.418	0.06	694836	keystroke_i	i	n/a
347.493	0.045	694986	keystroke_e	e	n/a
347.643	0.09	695286	keystroke_s	s	n/a
347.973	0.09	695946	keystroke_Key.space	Key.space	n/a
348.168	0.105	696336	keystroke_c	c	n/a
348.3635	0.09	696727	keystroke_o	o	n/a
348.8735	0.03	697747	keystroke_r	r	n/a
348.9935	0.09	697987	keystroke_r	r	n/a
349.218	0.075	698436	keystroke_e	e	n/a
349.518	0.06	699036	keystroke_s	s	n/a
349.8785	0.135	699757	keystroke_p	p	n/a
350.2225	0.105	700445	keystroke_o	o	n/a
350.748	0.105	701496	keystroke_n	n	n/a
350.928	0.09	701856	keystroke_d	d	n/a
351.048	0.06	702096	keystroke_i	i	n/a
351.168	0.06	702336	keystroke_n	n	n/a
351.258	0.075	702516	keystroke_g	g	n/a
352.053	0.1205	704106	keystroke_Key.space	Key.space	n/a
352.2635	0.105	704527	keystroke_r	r	n/a
352.3835	0.09	704767	keystroke_o	o	n/a
352.5185	0.105	705037	keystroke_c	c	n/a
352.6535	0.06	705307	keystroke_k	k	n/a
352.7435	0.06	705487	keystroke_e	e	n/a
352.8635	0.09	705727	keystroke_t	t	n/a
353.2075	0.075	706415	keystroke_Key.space	Key.space	n/a
353.5985	0.075	707197	keystroke_r	r	n/a
353.8985	0.09	707797	keystroke_a	a	n/a
353.9435	0.09	707887	keystroke_t	t	n/a
354.0785	0.09	708157	keystroke_i	i	n/a
354.2885	0.09	708577	keystroke_o	o	n/a
354.3485	0.105	708697	keystroke_n	n	n/a
354.4685	0.0895	708937	keystroke_a	a	n/a
354.5735	0.075	709147	keystroke_l	l	n/a
355.2185	0.075	710437	keystroke_Key.enter	Key.enter	n/a
355.298	7.617	710596	prompt	n/a	installed owned unlikely graph\n
356.1785	0.075	712357	keystroke_i	i	n/a
356.4035	0.06	712807	keystroke_n	n	n/a
356.553	0.09	713106	keystroke_s	s	n/a
356.718	0.121	713436	keystroke_t	t	n/a
356.868	0.09	713736	keystroke_a	a	n/a
357.078	0.06	714156	keystroke_l	l	n/a
357.2135	0.09	714427	keystroke_l	l	n/a
357.3485	0.075	714697	keystroke_e	e	n/a
357.5135	0.075	715027	keystroke_d	d	n/a
357.6635	0.09	715327	keystroke_Key.space	Key.space	n/a
357.9035	0.089	715807	keystroke_o	o	n/a
358.0985	0.089	716197	keystroke_w	w	n/a
358.3535	0.059	716707	keystroke_n	n	n/a
358.4425	0.075	716885	keystroke_e	e	n/a
358.698	0.09	717396	keystroke_d	d	n/a
358.863	0.06	717726	keystroke_Key.space	Key.space	n/a
359.193	0.075	718386	keystroke_u	u	n/a
359.373	0.06	718746	keystroke_n	n	n/a
359.898	0.075	719796	keystroke_l	l	n/a
360.078	0.031	720156	keystroke_i	i	n/a
360.228	0.06	720456	keystroke_k	k	n/a
360.333	0.105	720666	keystroke_e	e	n/a
360.543	0.046	721086	keystroke_l	l	n/a
360.8585	0.09	721717	keystroke_y	y	n/a
360.9785	0.075	721957	keystroke_Key.space	Key.space	n/a
361.308	0.09	722616	keystroke_g	g	n/a
361.503	0.09	723006	keystroke_r	r	n/a
361.623	0.105	723246	keystroke_a	a	n/a
361.758	0.09	723516	keystroke_p	p	n/a
361.9835	0.105	723967	keystroke_h	h	n/a
362.2685	0.075	724537	keystroke_y	y	n/a
362.8685	0.045	725737	keystroke_Key.enter	Key.enter	n/a
362.9185	12.8215	725837	prompt	n/a	polish families specializing photographic\n
363.7535	0.075	727507	keystroke_p	p	n/a
364.1435	0.075	728287	keystroke_o	o	n/a
364.3835	0.075	728767	keystroke_l	l	n/a
364.5185	0.06	729037	keystroke_i	i	n/a
364.623	0.075	729246	keystroke_s	s	n/a
364.833	0.075	729666	keystroke_Key.space	Key.space	n/a
365.2535	0.06	730507	keystroke_Key.backspace	Key.backspace	n/a
365.5085	0.12	731017	keystroke_h	h	n/a
365.7485	0.075	731497	keystroke_Key.space	Key.space	n/a
366.0335	0.075	732067	keystroke_f	f	n/a
366.2585	0.105	732517	keystroke_a	a	n/a
366.4235	0.075	732847	keystroke_m	m	n/a
366.6485	0.045	733297	keystroke_i	i	n/a
366.8135	0.12	733627	keystroke_l	l	n/a
366.9035	0.075	733807	keystroke_i	i	n/a
367.053	0.06	734106	keystroke_e	e	n/a
367.2185	0.09	734437	keystroke_s	s	n/a
367.668	0.0905	735336	keystroke_Key.space	Key.space	n/a
368.1185	0.09	736237	keystroke_s	s	n/a
368.3585	0.105	736717	keystroke_p	p	n/a
368.5085	0.075	737017	keystroke_e	e	n/a
368.7335	0.075	737467	keystroke_c	c	n/a
368.8685	0.075	737737	keystroke_i	i	n/a
368.9885	0.105	737977	keystroke_a	a	n/a
369.183	0.06	738366	keystroke_l	l	n/a
369.468	0.06	738936	keystroke_i	i	n/a
369.588	0.06	739176	keystroke_z	z	n/a
369.693	0.045	739386	keystroke_i	i	n/a
369.858	0.06	739716	keystroke_n	n	n/a
369.963	0.09	739926	keystroke_g	g	n/a
370.518	0.06	741036	keystroke_Key.space	Key.space	n/a
370.743	0.075	741486	keystroke_t	t	n/a
370.833	0.03	741666	keystroke_h	h	n/a
370.908	0.045	741816	keystroke_e	e	n/a
371.208	0.15	742416	keystroke_Key.space	Key.space	n/a
371.748	0.09	743496	keystroke_p	p	n/a
372.274	0.089	744548	keystroke_h	h	n/a
373.3535	0.06	746707	keystroke_o	o	n/a
373.4435	0.105	746887	keystroke_t	t	n/a
373.5335	0.06	747067	keystroke_o	o	n/a
374.2535	0.06	748507	keystroke_g	g	n/a
374.4185	0.06	748837	keystroke_r	r	n/a
374.4935	0.12	748987	keystroke_a	a	n/a
374.7335	0.12	749467	keystroke_p	p	n/a
374.9435	0.09	749887	keystroke_h	h	n/a
375.1235	0.06	750247	keystroke_i	i	n/a
375.2435	0.105	750487	keystroke_c	c	n/a
375.6785	0.06	751357	keystroke_Key.enter	Key.enter	n/a
375.7425	7.3175	751485	prompt	n/a	justify stories donate subdivision\n
376.8185	0.09	753637	keystroke_j	j	n/a
377.013	0.075	754026	keystroke_u	u	n/a
377.1335	0.105	754267	keystroke_s	s	n/a
377.2385	0.06	754477	keystroke_t	t	n/a
377.3735	0.045	754747	keystroke_i	i	n/a
377.6585	0.075	755317	keystroke_f	f	n/a
377.8085	0.105	755617	keystroke_y	y	n/a
378.0635	0.075	756127	keystroke_Key.space	Key.space	n/a
378.3185	0.0755	756637	keystroke_s	s	n/a
378.439	0.09	756878	keystroke_t	t	n/a
378.543	0.061	757086	keystroke_o	o	n/a
378.633	0.135	757266	keystroke_r	r	n/a
378.753	0.045	757506	keystroke_i	i	n/a
378.784	0.03	757568	keystroke_e	e	n/a
378.934	0.06	757868	keystroke_s	s	n/a
379.1735	0.075	758347	keystroke_Key.space	Key.space	n/a
379.6385	0.075	759277	keystroke_d	d	n/a
379.7285	0.105	759457	keystroke_o	o	n/a
379.8485	0.09	759697	keystroke_n	n	n/a
380.2535	0.105	760507	keystroke_a	a	n/a
380.3435	0.1195	760687	keystroke_t	t	n/a
380.4335	0.1045	760867	keystroke_e	e	n/a
380.673	0.075	761346	keystroke_Key.space	Key.space	n/a
380.898	0.06	761796	keystroke_s	s	n/a
381.003	0.075	762006	keystroke_u	u	n/a
381.108	0.1055	762216	keystroke_b	b	n/a
381.4535	0.045	762907	keystroke_d	d	n/a
381.6485	0.06	763297	keystroke_i	i	n/a
381.7535	0.06	763507	keystroke_v	v	n/a
381.8435	0.06	763687	keystroke_i	i	n/a
382.4135	0.09	764827	keystroke_s	s	n/a
382.5185	0.06	765037	keystroke_i	i	n/a
382.6235	0.105	765247	keystroke_o	o	n/a
382.7135	0.105	765427	keystroke_n	n	n/a
382.9685	0.09	765937	keystroke_Key.enter	Key.enter	n/a
383.063	5.022	766126	prompt	n/a	admit drew cleaners sounds\n
383.703	0.09	767406	keystroke_a	a	n/a
383.868	0.075	767736	keystroke_d	d	n/a
383.928	0.075	767856	keystroke_m	m	n/a
384.123	0.09	768246	keystroke_i	i	n/a
384.483	0.09	768966	keystroke_t	t	n/a
384.618	0.105	769236	keystroke_Key.space	Key.space	n/a
384.903	0.06	769806	keystroke_d	d	n/a
385.068	0.135	770136	keystroke_r	r	n/a
385.158	0.09	770316	keystroke_e	e	n/a
385.233	0.075	770466	keystroke_w	w	n/a
385.428	0.075	770856	keystroke_Key.space	Key.space	n/a
385.698	0.06	771396	keystroke_c	c	n/a
385.848	0.09	771696	keystroke_l	l	n/a
385.953	0.06	771906	keystroke_e	e	n/a
386.463	0.09	772926	keystroke_a	a	n/a
386.658	0.075	773316	keystroke_n	n	n/a
386.808	0.105	773616	keystroke_e	e	n/a
386.868	0.105	773736	keystroke_r	r	n/a
387.033	0.075	774066	keystroke_s	s	n/a
387.1985	0.075	774397	keystroke_Key.space	Key.space	n/a
387.3185	0.0895	774637	keystroke_s	s	n/a
387.423	0.09	774846	keystroke_o	o	n/a
387.468	0.09	774936	keystroke_u	u	n/a
387.678	0.09	775356	keystroke_n	n	n/a
387.753	0.105	775506	keystroke_d	d	n/a
387.843	0.09	775686	keystroke_s	s	n/a
388.053	0.03	776106	keystroke_Key.enter	Key.enter	n/a
388.088	7.9325	776176	prompt	n/a	colin beaver incredible delayed\n
388.968	0.075	777936	keystroke_c	c	n/a
389.073	0.06	778146	keystroke_o	o	n/a
389.239	0.06	778478	keystroke_l	l	n/a
389.374	0.075	778748	keystroke_i	i	n/a
389.9735	0.09	779947	keystroke_n	n	n/a
390.0935	0.075	780187	keystroke_Key.space	Key.space	n/a
390.3335	0.06	780667	keystroke_b	b	n/a
390.4085	0.075	780817	keystroke_e	e	n/a
390.6035	0.0755	781207	keystroke_a	a	n/a
390.829	0.09	781658	keystroke_v	v	n/a
391.054	0.1045	782108	keystroke_e	e	n/a
391.114	0.1045	782228	keystroke_r	r	n/a
391.2935	0.075	782587	keystroke_Key.space	Key.space	n/a
391.4885	0.03	782977	keystroke_i	i	n/a
391.6385	0.045	783277	keystroke_n	n	n/a
391.7285	0.06	783457	keystroke_d	d	n/a
392.404	0.06	784808	keystroke_Key.backspace	Key.backspace	n/a
392.509	0.075	785018	keystroke_c	c	n/a
392.779	0.12	785558	keystroke_r	r	n/a
392.869	0.105	785738	keystroke_e	e	n/a
393.2885	0.075	786577	keystroke_d	d	n/a
393.4385	0.075	786877	keystroke_i	i	n/a
393.6785	0.075	787357	keystroke_b	b	n/a
393.9035	0.03	787807	keystroke_l	l	n/a
393.9635	0.045	787927	keystroke_e	e	n/a
394.0985	0.06	788197	keystroke_Key.space	Key.space	n/a
394.2185	0.075	788437	keystroke_d	d	n/a
394.4285	0.06	788857	keystroke_e	e	n/a
394.624	0.06	789248	keystroke_l	l	n/a
394.834	0.06	789668	keystroke_a	a	n/a
395.044	0.03	790088	keystroke_y	y	n/a
395.359	0.075	790718	keystroke_e	e	n/a
395.479	0.09	790958	keystroke_d	d	n/a
395.9435	0.075	791887	keystroke_Key.enter	Key.enter	n/a
396.0235	13.6015	792047	prompt	n/a	carries sapphire regression mumbai\n
396.889	0.075	793778	keystroke_a	a	n/a
397.2935	0.09	794587	keystroke_Key.backspace	Key.backspace	n/a
397.414	0.09	794828	keystroke_c	c	n/a
397.594	0.09	795188	keystroke_a	a	n/a
397.849	0.044	795698	keystroke_r	r	n/a
397.999	0.044	795998	keystroke_r	r	n/a
398.194	0.044	796388	keystroke_i	i	n/a
398.254	0.045	796508	keystroke_e	e	n/a
398.389	0.06	796778	keystroke_s	s	n/a
398.494	0.089	796988	keystroke_Key.space	Key.space	n/a
398.614	0.075	797228	keystroke_s	s	n/a
399.064	0.075	798128	keystroke_a	a	n/a
399.243	0.241	798486	keystroke_p	p	n/a
400.069	0.075	800138	keystroke_p	p	n/a
400.3385	0.09	800677	keystroke_h	h	n/a
400.564	0.03	801128	keystroke_i	i	n/a
400.759	0.135	801518	keystroke_r	r	n/a
400.849	0.09	801698	keystroke_e	e	n/a
401.149	0.105	802298	keystroke_Key.space	Key.space	n/a
401.314	0.12	802628	keystroke_r	r	n/a
401.449	0.075	802898	keystroke_e	e	n/a
401.659	0.06	803318	keystroke_g	g	n/a
401.824	0.12	803648	keystroke_r	r	n/a
401.929	0.075	803858	keystroke_e	e	n/a
402.214	0.03	804428	keystroke_s	s	n/a
402.424	0.09	804848	keystroke_s	s	n/a
402.604	0.075	805208	keystroke_s	s	n/a
402.739	0.075	805478	keystroke_i	i	n/a
402.859	0.135	805718	keystroke_o	o	n/a
402.949	0.135	805898	keystroke_n	n	n/a
403.069	0.09	806138	keystroke_Key.space	Key.space	n/a
403.339	0.06	806678	keystroke_m	m	n/a
403.534	0.045	807068	keystroke_u	u	n/a
404.4935	0.06	808987	keystroke_Key.backspace	Key.backspace	n/a
404.5835	0.12	809167	keystroke_Key.backspace	Key.backspace	n/a
404.7785	0.075	809557	keystroke_Key.backspace	Key.backspace	n/a
404.9285	0.06	809857	keystroke_Key.backspace	Key.backspace	n/a
405.0935	0.075	810187	keystroke_Key.backspace	Key.backspace	n/a
405.2135	0.105	810427	keystroke_Key.backspace	Key.backspace	n/a
405.8435	0.06	811687	keystroke_Key.backspace	Key.backspace	n/a
406.3845	0.074	812769	keystroke_i	i	n/a
406.5635	0.075	813127	keystroke_o	o	n/a
406.6235	0.135	813247	keystroke_n	n	n/a
406.8035	0.09	813607	keystroke_Key.space	Key.space	n/a
407.194	0.075	814388	keystroke_m	m	n/a
407.479	0.105	814958	keystroke_u	u	n/a
407.704	0.06	815408	keystroke_b	b	n/a
409.0235	0.09	818047	keystroke_a	a	n/a
409.1285	0.045	818257	keystroke_i	i	n/a
409.5185	0.105	819037	keystroke_Key.enter	Key.enter	n/a
409.628	11.547	819256	prompt	n/a	entitled finds developments emission\n
410.404	0.075	820808	keystroke_e	e	n/a
410.644	0.045	821288	keystroke_n	n	n/a
411.034	0.0895	822068	keystroke_t	t	n/a
411.364	0.06	822728	keystroke_i	i	n/a
411.514	0.09	823028	keystroke_t	t	n/a
411.664	0.06	823328	keystroke_l	l	n/a
411.739	0.06	823478	keystroke_e	e	n/a
411.904	0.075	823808	keystroke_d	d	n/a
412.174	0.09	824348	keystroke_Key.space	Key.space	n/a
412.534	0.105	825068	keystroke_f	f	n/a
412.669	0.09	825338	keystroke_i	i	n/a
412.804	0.0745	825608	keystroke_n	n	n/a
412.8935	0.06	825787	keystroke_d	d	n/a
413.0135	0.075	826027	keystroke_s	s	n/a
413.6735	0.075	827347	keystroke_Key.space	Key.space	n/a
413.8535	0.045	827707	keystroke_d	d	n/a
414.094	0.06	828188	keystroke_v	v	n/a
414.304	0.045	828608	keystroke_e	e	n/a
414.7685	0.06	829537	keystroke_Key.backspace	Key.backspace	n/a
414.9035	0.09	829807	keystroke_Key.backspace	Key.backspace	n/a
415.0245	0.06	830049	keystroke_e	e	n/a
415.219	0.075	830438	keystroke_v	v	n/a
415.444	0.075	830888	keystroke_e	e	n/a
416.8235	0.06	833647	keystroke_l	l	n/a
417.0035	0.06	834007	keystroke_o	o	n/a
417.1985	0.06	834397	keystroke_p	p	n/a
417.5285	0.075	835057	keystroke_m	m	n/a
417.6335	0.075	835267	keystroke_e	e	n/a
417.7385	0.06	835477	keystroke_n	n	n/a
417.8135	0.0905	835627	keystroke_t	t	n/a
419.089	0.075	838178	keystroke_s	s	n/a
419.254	0.075	838508	keystroke_Key.space	Key.space	n/a
419.404	0.06	838808	keystroke_e	e	n/a
419.524	0.075	839048	keystroke_m	m	n/a
419.959	0.045	839918	keystroke_i	i	n/a
420.244	0.045	840488	keystroke_s	s	n/a
420.349	0.045	840698	keystroke_s	s	n/a
420.6035	0.06	841207	keystroke_i	i	n/a
420.7235	0.105	841447	keystroke_o	o	n/a
420.7985	0.105	841597	keystroke_n	n	n/a
421.1135	0.06	842227	keystroke_Key.enter	Key.enter	n/a
421.1805	6.31	842361	prompt	n/a	identified leather nails inter\n
421.9235	0.0605	843847	keystroke_i	i	n/a
422.209	0.06	844418	keystroke_d	d	n/a
422.434	0.06	844868	keystroke_e	e	n/a
422.629	0.09	845258	keystroke_n	n	n/a
422.719	0.089	845438	keystroke_t	t	n/a
422.9585	0.0605	845917	keystroke_i	i	n/a
423.0335	0.105	846067	keystroke_f	f	n/a
423.184	0.0745	846368	keystroke_i	i	n/a
423.2735	0.06	846547	keystroke_e	e	n/a
423.6185	0.045	847237	keystroke_d	d	n/a
423.7985	0.1055	847597	keystroke_Key.space	Key.space	n/a
424.054	0.075	848108	keystroke_l	l	n/a
424.174	0.06	848348	keystroke_e	e	n/a
424.339	0.12	848678	keystroke_a	a	n/a
424.474	0.09	848948	keystroke_t	t	n/a
424.639	0.0895	849278	keystroke_h	h	n/a
424.7585	0.12	849517	keystroke_e	e	n/a
424.8335	0.09	849667	keystroke_r	r	n/a
424.9535	0.075	849907	keystroke_Key.space	Key.space	n/a
425.163	0.061	850326	keystroke_n	n	n/a
425.239	0.06	850478	keystroke_a	a	n/a
425.359	0.045	850718	keystroke_i	i	n/a
425.508	0.046	851016	keystroke_l	l	n/a
426.0335	0.105	852067	keystroke_s	s	n/a
426.1535	0.06	852307	keystroke_Key.space	Key.space	n/a
426.2735	0.06	852547	keystroke_i	i	n/a
426.3935	0.0755	852787	keystroke_n	n	n/a
426.5585	0.03	853117	keystroke_t	t	n/a
427.1885	0.105	854377	keystroke_e	e	n/a
427.2485	0.09	854497	keystroke_r	r	n/a
427.399	0.0895	854798	keystroke_Key.enter	Key.enter	n/a
427.4945	7.931	854989	prompt	n/a	spencer futures bearing ranked\n
428.314	0.09	856628	keystroke_s	s	n/a
428.419	0.105	856838	keystroke_p	p	n/a
428.554	0.06	857108	keystroke_e	e	n/a
428.809	0.075	857618	keystroke_n	n	n/a
428.914	0.06	857828	keystroke_c	c	n/a
429.3335	0.12	858667	keystroke_e	e	n/a
429.4085	0.06	858817	keystroke_r	r	n/a
429.5735	0.12	859147	keystroke_Key.space	Key.space	n/a
429.7985	0.045	859597	keystroke_f	f	n/a
429.9035	0.0745	859807	keystroke_u	u	n/a
430.023	0.06	860046	keystroke_t	t	n/a
430.098	0.075	860196	keystroke_u	u	n/a
430.158	0.165	860316	keystroke_r	r	n/a
430.293	0.06	860586	keystroke_e	e	n/a
430.668	0.091	861336	keystroke_s	s	n/a
430.863	0.06	861726	keystroke_Key.space	Key.space	n/a
431.0435	0.075	862087	keystroke_b	b	n/a
431.134	0.06	862268	keystroke_e	e	n/a
431.284	0.09	862568	keystroke_a	a	n/a
431.328	0.091	862656	keystroke_r	r	n/a
431.434	0.06	862868	keystroke_i	i	n/a
431.539	0.09	863078	keystroke_n	n	n/a
431.823	0.076	863646	keystroke_d	d	n/a
432.049	0.075	864098	keystroke_Key.space	Key.space	n/a
432.334	0.09	864668	keystroke_r	r	n/a
432.484	0.06	864968	keystroke_n	n	n/a
432.559	0.105	865118	keystroke_a	a	n/a
432.9785	0.15	865957	keystroke_Key.backspace	Key.backspace	n/a
433.2335	0.06	866467	keystroke_Key.backspace	Key.backspace	n/a
433.3685	0.075	866737	keystroke_Key.backspace	Key.backspace	n/a
433.5485	0.06	867097	keystroke_Key.backspace	Key.backspace	n/a
433.6985	0.1055	867397	keystroke_Key.backspace	Key.backspace	n/a
433.954	0.0595	867908	keystroke_g	g	n/a
434.104	0.105	868208	keystroke_Key.space	Key.space	n/a
434.4785	0.075	868957	keystroke_r	r	n/a
434.5985	0.075	869197	keystroke_a	a	n/a
434.6885	0.06	869377	keystroke_n	n	n/a
434.8685	0.045	869737	keystroke_k	k	n/a
434.9285	0.06	869857	keystroke_e	e	n/a
435.1085	0.06	870217	keystroke_d	d	n/a
435.3335	0.09	870667	keystroke_Key.enter	Key.enter	n/a
435.429	8.8165	870858	prompt	n/a	adelaide frontpage sweden goat\n
436.504	0.075	873008	keystroke_a	a	n/a
436.909	0.0895	873818	keystroke_d	d	n/a
437.419	0.06	874838	keystroke_e	e	n/a
437.899	0.075	875798	keystroke_l	l	n/a
438.229	0.0895	876458	keystroke_a	a	n/a
438.4385	0.0605	876877	keystroke_i	i	n/a
438.484	0.06	876968	keystroke_d	d	n/a
438.6935	0.06	877387	keystroke_Key.space	Key.space	n/a
438.9485	0.06	877897	keystroke_f	f	n/a
439.1435	0.045	878287	keystroke_r	r	n/a
439.2185	0.0905	878437	keystroke_o	o	n/a
439.294	0.105	878588	keystroke_n	n	n/a
439.8035	0.105	879607	keystroke_t	t	n/a
440.0735	0.0745	880147	keystroke_p	p	n/a
440.179	0.119	880358	keystroke_a	a	n/a
440.314	0.105	880628	keystroke_g	g	n/a
441.154	0.045	882308	keystroke_e	e	n/a
441.244	0.0895	882488	keystroke_Key.space	Key.space	n/a
441.4535	0.06	882907	keystroke_s	s	n/a
441.8285	0.06	883657	keystroke_w	w	n/a
442.0235	0.045	884047	keystroke_e	e	n/a
442.714	0.105	885428	keystroke_d	d	n/a
443.239	0.045	886478	keystroke_e	e	n/a
443.299	0.06	886598	keystroke_n	n	n/a
443.404	0.1045	886808	keystroke_Key.space	Key.space	n/a
443.5235	0.06	887047	keystroke_g	g	n/a
443.6585	0.045	887317	keystroke_o	o	n/a
443.779	0.09	887558	keystroke_a	a	n/a
443.884	0.09	887768	keystroke_t	t	n/a
444.154	0.09	888308	keystroke_Key.enter	Key.enter	n/a
444.249	10.2865	888498	prompt	n/a	thumbzilla starts sorted salad\n
445.234	0.09	890468	keystroke_t	t	n/a
445.519	0.075	891038	keystroke_h	h	n/a
445.669	0.06	891338	keystroke_u	u	n/a
445.894	0.06	891788	keystroke_m	m	n/a
446.464	0.06	892928	keystroke_b	b	n/a
447.9185	0.075	895837	keystroke_z	z	n/a
448.0085	0.075	896017	keystroke_i	i	n/a
448.2635	0.045	896527	keystroke_l	l	n/a
448.3985	0.045	896797	keystroke_l	l	n/a
448.5335	0.06	897067	keystroke_a	a	n/a
448.7135	0.09	897427	keystroke_Key.space	Key.space	n/a
448.939	0.075	897878	keystroke_s	s	n/a
450.0045	0.09	900009	keystroke_t	t	n/a
450.1845	0.09	900369	keystroke_a	a	n/a
450.2295	0.12	900459	keystroke_r	r	n/a
450.5745	0.045	901149	keystroke_t	t	n/a
450.9785	0.075	901957	keystroke_s	s	n/a
451.129	0.09	902258	keystroke_Key.space	Key.space	n/a
451.354	0.075	902708	keystroke_s	s	n/a
451.474	0.06	902948	keystroke_o	o	n/a
451.579	0.075	903158	keystroke_r	r	n/a
452.1495	0.075	904299	keystroke_t	t	n/a
452.3145	0.06	904629	keystroke_e	e	n/a
452.4945	0.075	904989	keystroke_d	d	n/a
452.5995	0.089	905199	keystroke_Key.space	Key.space	n/a
452.7495	0.074	905499	keystroke_s	s	n/a
453.3035	0.075	906607	keystroke_a	a	n/a
453.6335	0.075	907267	keystroke_l	l	n/a
453.7235	0.06	907447	keystroke_a	a	n/a
453.8585	0.075	907717	keystroke_d	d	n/a
454.4285	0.105	908857	keystroke_Key.enter	Key.enter	n/a
454.5385	10.482	909077	prompt	n/a	katrina staying expenses boating\n
455.494	0.06	910988	keystroke_k	k	n/a
455.629	0.09	911258	keystroke_a	a	n/a
455.8235	0.0605	911647	keystroke_t	t	n/a
455.974	0.09	911948	keystroke_r	r	n/a
456.1235	0.06	912247	keystroke_i	i	n/a
456.2735	0.0605	912547	keystroke_n	n	n/a
456.469	0.0595	912938	keystroke_a	a	n/a
456.6935	0.09	913387	keystroke_Key.space	Key.space	n/a
456.9485	0.06	913897	keystroke_s	s	n/a
457.0845	0.1045	914169	keystroke_t	t	n/a
457.234	0.075	914468	keystroke_a	a	n/a
457.669	0.105	915338	keystroke_y	y	n/a
457.864	0.045	915728	keystroke_i	i	n/a
458.104	0.03	916208	keystroke_g	g	n/a
458.779	0.06	917558	keystroke_Key.backspace	Key.backspace	n/a
459.334	0.075	918668	keystroke_i	i	n/a
459.469	0.09	918938	keystroke_n	n	n/a
459.604	0.0455	919208	keystroke_g	g	n/a
459.9945	0.06	919989	keystroke_Key.space	Key.space	n/a
460.204	0.09	920408	keystroke_s	s	n/a
460.654	0.06	921308	keystroke_Key.backspace	Key.backspace	n/a
460.819	0.075	921638	keystroke_e	e	n/a
461.2535	0.0905	922507	keystroke_x	x	n/a
461.554	0.09	923108	keystroke_Key.backspace	Key.backspace	n/a
461.809	0.105	923618	keystroke_x	x	n/a
462.244	0.075	924488	keystroke_p	p	n/a
462.499	0.06	924998	keystroke_e	e	n/a
462.709	0.045	925418	keystroke_n	n	n/a
462.769	0.09	925538	keystroke_s	s	n/a
462.934	0.0595	925868	keystroke_e	e	n/a
463.0835	0.1055	926167	keystroke_s	s	n/a
463.249	0.09	926498	keystroke_Key.space	Key.space	n/a
463.819	0.045	927638	keystroke_b	b	n/a
464.179	0.075	928358	keystroke_o	o	n/a
464.344	0.045	928688	keystroke_a	a	n/a
464.479	0.06	928958	keystroke_t	t	n/a
464.539	0.075	929078	keystroke_i	i	n/a
464.674	0.075	929348	keystroke_n	n	n/a
464.734	0.09	929468	keystroke_g	g	n/a
464.974	0.045	929948	keystroke_Key.enter	Key.enter	n/a
465.024	4.7215	930048	prompt	n/a	if blocked internet gone\n
465.739	0.06	931478	keystroke_i	i	n/a
465.829	0.09	931658	keystroke_f	f	n/a
465.949	0.06	931898	keystroke_Key.space	Key.space	n/a
466.114	0.0755	932228	keystroke_b	b	n/a
466.324	0.045	932648	keystroke_l	l	n/a
466.4895	0.0445	932979	keystroke_o	o	n/a
466.5795	0.075	933159	keystroke_c	c	n/a
466.6245	0.09	933249	keystroke_k	k	n/a
466.8495	0.06	933699	keystroke_e	e	n/a
466.9845	0.075	933969	keystroke_d	d	n/a
467.1345	0.09	934269	keystroke_Key.space	Key.space	n/a
467.4495	0.045	934899	keystroke_i	i	n/a
467.5845	0.06	935169	keystroke_n	n	n/a
467.6595	0.075	935319	keystroke_t	t	n/a
467.8245	0.075	935649	keystroke_e	e	n/a
467.8695	0.09	935739	keystroke_r	r	n/a
468.7695	0.075	937539	keystroke_n	n	n/a
468.8445	0.12	937689	keystroke_e	e	n/a
468.9495	0.09	937899	keystroke_t	t	n/a
469.0695	0.0745	938139	keystroke_Key.space	Key.space	n/a
469.204	0.06	938408	keystroke_g	g	n/a
469.249	0.105	938498	keystroke_o	o	n/a
469.339	0.075	938678	keystroke_n	n	n/a
469.459	0.06	938918	keystroke_e	e	n/a
469.6695	0.075	939339	keystroke_Key.enter	Key.enter	n/a
469.7485	6.3125	939497	prompt	n/a	plymouth elected handled rover\n
470.6145	0.09	941229	keystroke_p	p	n/a
471.0345	0.0745	942069	keystroke_l	l	n/a
471.514	0.06	943028	keystroke_y	y	n/a
471.844	0.075	943688	keystroke_m	m	n/a
472.219	0.09	944438	keystroke_o	o	n/a
472.534	0.09	945068	keystroke_u	u	n/a
472.729	0.105	945458	keystroke_t	t	n/a
472.819	0.075	945638	keystroke_h	h	n/a
472.999	0.0755	945998	keystroke_Key.space	Key.space	n/a
473.164	0.075	946328	keystroke_e	e	n/a
473.314	0.045	946628	keystroke_l	l	n/a
473.374	0.06	946748	keystroke_e	e	n/a
473.569	0.0745	947138	keystroke_c	c	n/a
473.779	0.105	947558	keystroke_t	t	n/a
473.899	0.075	947798	keystroke_e	e	n/a
474.0795	0.06	948159	keystroke_d	d	n/a
474.2145	0.045	948429	keystroke_Key.space	Key.space	n/a
474.3945	0.06	948789	keystroke_h	h	n/a
474.5145	0.06	949029	keystroke_a	a	n/a
474.6045	0.09	949209	keystroke_n	n	n/a
474.6795	0.06	949359	keystroke_d	d	n/a
474.874	0.06	949748	keystroke_l	l	n/a
474.949	0.045	949898	keystroke_e	e	n/a
475.0845	0.0905	950169	keystroke_d	d	n/a
475.264	0.06	950528	keystroke_Key.space	Key.space	n/a
475.429	0.0605	950858	keystroke_r	r	n/a
475.5045	0.075	951009	keystroke_o	o	n/a
475.6095	0.105	951219	keystroke_v	v	n/a
475.8195	0.06	951639	keystroke_e	e	n/a
475.8645	0.075	951729	keystroke_r	r	n/a
475.9845	0.075	951969	keystroke_Key.enter	Key.enter	n/a
476.0635	6.462	952127	prompt	n/a	hour tribune western lesson\n
476.884	0.045	953768	keystroke_h	h	n/a
477.109	0.0755	954218	keystroke_o	o	n/a
477.1395	0.09	954279	keystroke_u	u	n/a
477.2145	0.075	954429	keystroke_r	r	n/a
477.5895	0.045	955179	keystroke_Key.space	Key.space	n/a
477.7245	0.075	955449	keystroke_t	t	n/a
477.8745	0.09	955749	keystroke_r	r	n/a
478.0245	0.06	956049	keystroke_i	i	n/a
478.654	0.045	957308	keystroke_b	b	n/a
478.999	0.06	957998	keystroke_u	u	n/a
479.1945	0.075	958389	keystroke_n	n	n/a
479.2845	0.06	958569	keystroke_e	e	n/a
479.5245	0.06	959049	keystroke_Key.space	Key.space	n/a
479.8095	0.06	959619	keystroke_w	w	n/a
480.0645	0.045	960129	keystroke_e	e	n/a
480.3795	0.135	960759	keystroke_s	s	n/a
480.4995	0.09	960999	keystroke_t	t	n/a
480.6345	0.105	961269	keystroke_e	e	n/a
480.6945	0.075	961389	keystroke_r	r	n/a
481.0845	0.1045	962169	keystroke_Key.space	Key.space	n/a
481.339	0.09	962678	keystroke_l	l	n/a
481.489	0.06	962978	keystroke_e	e	n/a
481.7295	0.045	963459	keystroke_s	s	n/a
481.8495	0.075	963699	keystroke_s	s	n/a
482.1045	0.12	964209	keystroke_o	o	n/a
482.2095	0.09	964419	keystroke_n	n	n/a
482.4795	0.0445	964959	keystroke_Key.enter	Key.enter	n/a
482.529	6.072	965058	prompt	n/a	accurate inquiries often stored\n
483.214	0.06	966428	keystroke_a	a	n/a
483.4845	0.045	966969	keystroke_c	c	n/a
483.6495	0.06	967299	keystroke_c	c	n/a
483.8295	0.06	967659	keystroke_u	u	n/a
483.9195	0.0895	967839	keystroke_r	r	n/a
484.054	0.1055	968108	keystroke_a	a	n/a
484.1295	0.1195	968259	keystroke_t	t	n/a
484.2345	0.075	968469	keystroke_e	e	n/a
484.4895	0.015	968979	keystroke_Key.space	Key.space	n/a
484.715	0.044	969430	keystroke_i	i	n/a
484.909	0.06	969818	keystroke_n	n	n/a
485.584	0.076	971168	keystroke_q	q	n/a
485.809	0.075	971618	keystroke_u	u	n/a
485.974	0.061	971948	keystroke_i	i	n/a
486.079	0.09	972158	keystroke_r	r	n/a
486.229	0.06	972458	keystroke_i	i	n/a
486.304	0.06	972608	keystroke_e	e	n/a
486.469	0.061	972938	keystroke_s	s	n/a
486.634	0.09	973268	keystroke_Key.space	Key.space	n/a
486.874	0.06	973748	keystroke_o	o	n/a
486.979	0.075	973958	keystroke_f	f	n/a
487.279	0.075	974558	keystroke_t	t	n/a
487.4445	0.06	974889	keystroke_e	e	n/a
487.5645	0.06	975129	keystroke_n	n	n/a
487.7295	0.09	975459	keystroke_Key.space	Key.space	n/a
487.8945	0.105	975789	keystroke_s	s	n/a
487.9845	0.075	975969	keystroke_t	t	n/a
488.0895	0.075	976179	keystroke_o	o	n/a
488.1795	0.09	976359	keystroke_r	r	n/a
488.2245	0.09	976449	keystroke_e	e	n/a
488.3745	0.0745	976749	keystroke_d	d	n/a
488.509	0.0905	977018	keystroke_Key.enter	Key.enter	n/a
488.604	12.627	977208	prompt	n/a	qatar report carol encryption\n
489.9345	0.075	979869	keystroke_q	q	n/a
490.204	0.105	980408	keystroke_a	a	n/a
491.134	0.105	982268	keystroke_t	t	n/a
491.284	0.09	982568	keystroke_a	a	n/a
491.344	0.105	982688	keystroke_r	r	n/a
492.0795	0.09	984159	keystroke_Key.space	Key.space	n/a
492.2445	0.105	984489	keystroke_r	r	n/a
492.7545	0.06	985509	keystroke_e	e	n/a
492.949	0.061	985898	keystroke_p	p	n/a
494.5995	0.075	989199	keystroke_o	o	n/a
494.914	0.06	989828	keystroke_r	r	n/a
495.064	0.0905	990128	keystroke_t	t	n/a
495.1995	0.15	990399	keystroke_Key.space	Key.space	n/a
495.4995	0.105	990999	keystroke_c	c	n/a
495.7245	0.09	991449	keystroke_a	a	n/a
495.7845	0.105	991569	keystroke_r	r	n/a
495.9645	0.09	991929	keystroke_o	o	n/a
496.1295	0.12	992259	keystroke_l	l	n/a
496.3695	0.06	992739	keystroke_Key.space	Key.space	n/a
496.6095	0.045	993219	keystroke_e	e	n/a
496.9845	0.06	993969	keystroke_n	n	n/a
497.164	0.09	994328	keystroke_c	c	n/a
497.72	0.074	995440	keystroke_y	y	n/a
497.854	0.075	995708	keystroke_r	r	n/a
498.034	0.09	996068	keystroke_p	p	n/a
500.571	0.028	1001142	keystroke_t	t	n/a
500.614	0.03	1001228	keystroke_i	i	n/a
500.719	0.135	1001438	keystroke_o	o	n/a
500.809	0.1055	1001618	keystroke_n	n	n/a
501.1545	0.075	1002309	keystroke_Key.enter	Key.enter	n/a
501.2355	14.9805	1002471	prompt	n/a	pharmaceutical angeles marina graduates\n
502.3235	0.1655	1004647	keystroke_p	p	n/a
502.804	0.105	1005608	keystroke_h	h	n/a
503.3585	0.09	1006717	keystroke_a	a	n/a
503.5545	0.089	1007109	keystroke_r	r	n/a
503.8385	0.075	1007677	keystroke_m	m	n/a
503.9585	0.105	1007917	keystroke_a	a	n/a
504.229	0.075	1008458	keystroke_c	c	n/a
504.499	0.06	1008998	keystroke_e	e	n/a
505.519	0.12	1011038	keystroke_u	u	n/a
505.759	0.06	1011518	keystroke_t	t	n/a
505.894	0.075	1011788	keystroke_i	i	n/a
506.089	0.09	1012178	keystroke_c	c	n/a
506.314	0.09	1012628	keystroke_a	a	n/a
506.419	0.1355	1012838	keystroke_l	l	n/a
506.5845	0.105	1013169	keystroke_Key.space	Key.space	n/a
506.8995	0.06	1013799	keystroke_g	g	n/a
507.3945	0.06	1014789	keystroke_Key.backspace	Key.backspace	n/a
507.5595	0.06	1015119	keystroke_a	a	n/a
508.1445	0.105	1016289	keystroke_n	n	n/a
508.5345	0.1045	1017069	keystroke_g	g	n/a
508.969	0.075	1017938	keystroke_e	e	n/a
509.254	0.075	1018508	keystroke_l	l	n/a
509.314	0.06	1018628	keystroke_e	e	n/a
509.479	0.105	1018958	keystroke_s	s	n/a
509.674	0.09	1019348	keystroke_Key.space	Key.space	n/a
510.1845	0.075	1020369	keystroke_m	m	n/a
510.3045	0.075	1020609	keystroke_a	a	n/a
510.3645	0.12	1020729	keystroke_r	r	n/a
510.739	0.075	1021478	keystroke_i	i	n/a
510.934	0.09	1021868	keystroke_n	n	n/a
511.144	0.075	1022288	keystroke_s	s	n/a
511.459	0.06	1022918	keystroke_Key.space	Key.space	n/a
511.684	0.075	1023368	keystroke_g	g	n/a
512.734	0.075	1025468	keystroke_Key.backspace	Key.backspace	n/a
512.884	0.12	1025768	keystroke_Key.backspace	Key.backspace	n/a
513.6645	0.015	1027329	keystroke_Key.backspace	Key.backspace	n/a
513.8445	0.06	1027689	keystroke_a	a	n/a
514.0395	0.09	1028079	keystroke_Key.space	Key.space	n/a
514.3395	0.12	1028679	keystroke_g	g	n/a
514.819	0.106	1029638	keystroke_r	r	n/a
514.955	0.09	1029910	keystroke_a	a	n/a
515.15	0.074	1030300	keystroke_d	d	n/a
515.539	0.076	1031078	keystroke_u	u	n/a
515.599	0.09	1031198	keystroke_a	a	n/a
515.69	0.149	1031380	keystroke_t	t	n/a
515.794	0.075	1031588	keystroke_e	e	n/a
515.945	0.104	1031890	keystroke_s	s	n/a
516.109	0.105	1032218	keystroke_Key.enter	Key.enter	n/a
516.2195	16.9615	1032439	prompt	n/a	exercise lindsay annually computation\n
516.9345	0.06	1033869	keystroke_e	e	n/a
517.249	0.0755	1034498	keystroke_x	x	n/a
517.8795	0.135	1035759	keystroke_e	e	n/a
517.9995	0.06	1035999	keystroke_r	r	n/a
518.1945	0.075	1036389	keystroke_c	c	n/a
518.3445	0.06	1036689	keystroke_i	i	n/a
518.4195	0.075	1036839	keystroke_s	s	n/a
518.5845	0.045	1037169	keystroke_e	e	n/a
518.6745	0.105	1037349	keystroke_Key.space	Key.space	n/a
518.9895	0.06	1037979	keystroke_l	l	n/a
519.155	0.045	1038310	keystroke_i	i	n/a
519.26	0.0745	1038520	keystroke_n	n	n/a
519.3195	0.12	1038639	keystroke_d	d	n/a
519.4695	0.074	1038939	keystroke_a	a	n/a
519.6195	0.09	1039239	keystroke_y	y	n/a
519.7535	0.091	1039507	keystroke_Key.space	Key.space	n/a
519.9345	0.075	1039869	keystroke_a	a	n/a
520.13	0.044	1040260	keystroke_n	n	n/a
520.234	0.075	1040468	keystroke_n	n	n/a
520.6695	0.09	1041339	keystroke_u	u	n/a
520.8045	0.09	1041609	keystroke_a	a	n/a
520.9545	0.045	1041909	keystroke_l	l	n/a
521.1045	0.06	1042209	keystroke_l	l	n/a
521.3895	0.045	1042779	keystroke_Key.backspace	Key.backspace	n/a
521.509	0.09	1043018	keystroke_Key.backspace	Key.backspace	n/a
521.689	0.06	1043378	keystroke_Key.backspace	Key.backspace	n/a
521.854	0.075	1043708	keystroke_Key.backspace	Key.backspace	n/a
522.094	0.06	1044188	keystroke_Key.backspace	Key.backspace	n/a
522.259	0.075	1044518	keystroke_Key.backspace	Key.backspace	n/a
522.409	0.09	1044818	keystroke_Key.backspace	Key.backspace	n/a
522.559	0.075	1045118	keystroke_Key.backspace	Key.backspace	n/a
522.784	0.0455	1045568	keystroke_Key.backspace	Key.backspace	n/a
523.1145	0.06	1046229	keystroke_Key.backspace	Key.backspace	n/a
523.6245	0.075	1047249	keystroke_s	s	n/a
523.8045	0.0595	1047609	keystroke_a	a	n/a
523.984	0.12	1047968	keystroke_y	y	n/a
524.134	0.105	1048268	keystroke_Key.space	Key.space	n/a
524.299	0.075	1048598	keystroke_a	a	n/a
526.3245	0.045	1052649	keystroke_n	n	n/a
526.429	0.075	1052858	keystroke_n	n	n/a
527.1345	0.09	1054269	keystroke_u	u	n/a
527.2995	0.075	1054599	keystroke_a	a	n/a
527.4195	0.045	1054839	keystroke_l	l	n/a
527.5545	0.06	1055109	keystroke_l	l	n/a
527.7795	0.15	1055559	keystroke_y	y	n/a
527.9145	0.1195	1055829	keystroke_Key.space	Key.space	n/a
528.454	0.03	1056908	keystroke_o	o	n/a
529.054	0.075	1058108	keystroke_Key.backspace	Key.backspace	n/a
529.3845	0.075	1058769	keystroke_c	c	n/a
529.5495	0.0895	1059099	keystroke_o	o	n/a
529.819	0.0755	1059638	keystroke_m	m	n/a
530.104	0.09	1060208	keystroke_p	p	n/a
530.404	0.06	1060808	keystroke_u	u	n/a
530.704	0.075	1061408	keystroke_t	t	n/a
531.109	0.06	1062218	keystroke_a	a	n/a
531.154	0.106	1062308	keystroke_t	t	n/a
531.394	0.06	1062788	keystroke_o	o	n/a
531.814	0.045	1063628	keystroke_Key.backspace	Key.backspace	n/a
532.564	0.075	1065128	keystroke_i	i	n/a
532.744	0.105	1065488	keystroke_o	o	n/a
532.819	0.105	1065638	keystroke_n	n	n/a
533.149	0.0305	1066298	keystroke_Key.enter	Key.enter	n/a
533.184	8.487	1066368	prompt	n/a	dover keeping colin constitute\n
533.974	0.06	1067948	keystroke_d	d	n/a
534.139	0.075	1068278	keystroke_o	o	n/a
534.215	0.089	1068430	keystroke_v	v	n/a
534.409	0.075	1068818	keystroke_e	e	n/a
534.454	0.12	1068908	keystroke_r	r	n/a
534.604	0.09	1069208	keystroke_Key.space	Key.space	n/a
534.949	0.105	1069898	keystroke_k	k	n/a
535.3245	0.045	1070649	keystroke_e	e	n/a
535.4595	0.075	1070919	keystroke_e	e	n/a
535.5645	0.075	1071129	keystroke_p	p	n/a
535.6545	0.03	1071309	keystroke_o	o	n/a
536.584	0.045	1073168	keystroke_Key.backspace	Key.backspace	n/a
537.004	0.015	1074008	keystroke_i	i	n/a
537.049	0.105	1074098	keystroke_n	n	n/a
537.664	0.0755	1075328	keystroke_g	g	n/a
537.814	0.0755	1075628	keystroke_Key.space	Key.space	n/a
538.0545	0.06	1076109	keystroke_c	c	n/a
538.1595	0.06	1076319	keystroke_o	o	n/a
538.3545	0.06	1076709	keystroke_l	l	n/a
538.4895	0.045	1076979	keystroke_i	i	n/a
538.5945	0.0745	1077189	keystroke_n	n	n/a
538.879	0.075	1077758	keystroke_Key.space	Key.space	n/a
539.0295	0.105	1078059	keystroke_c	c	n/a
539.1945	0.045	1078389	keystroke_o	o	n/a
539.2245	0.105	1078449	keystroke_n	n	n/a
539.4495	0.075	1078899	keystroke_s	s	n/a
539.7795	0.06	1079559	keystroke_t	t	n/a
540.1095	0.075	1080219	keystroke_i	i	n/a
540.3945	0.09	1080789	keystroke_t	t	n/a
541.0545	0.0895	1082109	keystroke_u	u	n/a
541.174	0.075	1082348	keystroke_t	t	n/a
541.369	0.09	1082738	keystroke_e	e	n/a
541.579	0.09	1083158	keystroke_Key.enter	Key.enter	n/a
541.6755	8.5605	1083351	prompt	n/a	coffee connections accounts promotions\n
542.539	0.075	1085078	keystroke_c	c	n/a
542.8095	0.075	1085619	keystroke_o	o	n/a
543.0195	0.03	1086039	keystroke_f	f	n/a
543.1695	0.06	1086339	keystroke_f	f	n/a
543.394	0.046	1086788	keystroke_e	e	n/a
543.544	0.075	1087088	keystroke_e	e	n/a
543.7545	0.105	1087509	keystroke_Key.space	Key.space	n/a
544.0545	0.09	1088109	keystroke_c	c	n/a
544.2645	0.075	1088529	keystroke_o	o	n/a
544.5495	0.06	1089099	keystroke_n	n	n/a
544.6845	0.06	1089369	keystroke_n	n	n/a
544.8045	0.09	1089609	keystroke_e	e	n/a
545.0445	0.075	1090089	keystroke_c	c	n/a
545.269	0.075	1090538	keystroke_t	t	n/a
545.359	0.075	1090718	keystroke_i	i	n/a
545.509	0.09	1091018	keystroke_o	o	n/a
545.554	0.09	1091108	keystroke_n	n	n/a
545.689	0.06	1091378	keystroke_s	s	n/a
546.0195	0.075	1092039	keystroke_Key.space	Key.space	n/a
546.1245	0.0605	1092249	keystroke_a	a	n/a
546.425	0.044	1092850	keystroke_c	c	n/a
546.53	0.075	1093060	keystroke_c	c	n/a
546.739	0.091	1093478	keystroke_o	o	n/a
546.785	0.119	1093570	keystroke_u	u	n/a
547.04	0.075	1094080	keystroke_n	n	n/a
547.13	0.0895	1094260	keystroke_t	t	n/a
547.2795	0.075	1094559	keystroke_s	s	n/a
547.489	0.09	1094978	keystroke_Key.space	Key.space	n/a
547.864	0.09	1095728	keystroke_p	p	n/a
548.059	0.09	1096118	keystroke_r	r	n/a
548.164	0.06	1096328	keystroke_o	o	n/a
548.539	0.045	1097078	keystroke_m	m	n/a
549.1245	0.075	1098249	keystroke_o	o	n/a
549.3345	0.09	1098669	keystroke_t	t	n/a
549.3795	0.075	1098759	keystroke_i	i	n/a
549.5145	0.105	1099029	keystroke_o	o	n/a
549.5895	0.09	1099179	keystroke_n	n	n/a
549.6495	0.09	1099299	keystroke_s	s	n/a
550.174	0.06	1100348	keystroke_Key.enter	Key.enter	n/a
550.239	7.992	1100478	prompt	n/a	hill ministers corrected guilty\n
550.9845	0.09	1101969	keystroke_h	h	n/a
551.2845	0.06	1102569	keystroke_i	i	n/a
551.5395	0.045	1103079	keystroke_l	l	n/a
551.6895	0.03	1103379	keystroke_l	l	n/a
552.3645	0.09	1104729	keystroke_Key.space	Key.space	n/a
552.6795	0.09	1105359	keystroke_m	m	n/a
553.0245	0.045	1106049	keystroke_i	i	n/a
553.4295	0.075	1106859	keystroke_n	n	n/a
553.684	0.045	1107368	keystroke_i	i	n/a
553.969	0.105	1107938	keystroke_s	s	n/a
554.09	0.0895	1108180	keystroke_t	t	n/a
554.2245	0.105	1108449	keystroke_e	e	n/a
554.2995	0.105	1108599	keystroke_r	r	n/a
554.4495	0.075	1108899	keystroke_s	s	n/a
554.5995	0.105	1109199	keystroke_Key.space	Key.space	n/a
554.7645	0.075	1109529	keystroke_c	c	n/a
554.9145	0.06	1109829	keystroke_o	o	n/a
555.3495	0.09	1110699	keystroke_r	r	n/a
555.5295	0.09	1111059	keystroke_r	r	n/a
555.6945	0.075	1111389	keystroke_e	e	n/a
555.9195	0.0895	1111839	keystroke_c	c	n/a
556.129	0.06	1112258	keystroke_t	t	n/a
556.204	0.075	1112408	keystroke_e	e	n/a
556.384	0.06	1112768	keystroke_d	d	n/a
556.519	0.075	1113038	keystroke_Key.space	Key.space	n/a
556.609	0.075	1113218	keystroke_g	g	n/a
556.699	0.105	1113398	keystroke_u	u	n/a
556.849	0.0605	1113698	keystroke_i	i	n/a
557.0295	0.06	1114059	keystroke_l	l	n/a
557.134	0.06	1114268	keystroke_d	d	n/a
557.344	0.06	1114688	keystroke_t	t	n/a
557.494	0.09	1114988	keystroke_y	y	n/a
558.154	0.075	1116308	keystroke_Key.enter	Key.enter	n/a
558.234	5.907	1116468	prompt	n/a	likewise it consist ranges\n
558.95	0.059	1117900	keystroke_l	l	n/a
559.099	0.06	1118198	keystroke_i	i	n/a
559.264	0.06	1118528	keystroke_k	k	n/a
559.279	0.06	1118558	keystroke_e	e	n/a
559.879	0.09	1119758	keystroke_w	w	n/a
560.164	0.06	1120328	keystroke_i	i	n/a
560.209	0.06	1120418	keystroke_s	s	n/a
560.374	0.045	1120748	keystroke_e	e	n/a
560.464	0.09	1120928	keystroke_Key.space	Key.space	n/a
560.66	0.044	1121320	keystroke_i	i	n/a
560.764	0.06	1121528	keystroke_t	t	n/a
560.884	0.09	1121768	keystroke_Key.space	Key.space	n/a
561.094	0.0755	1122188	keystroke_c	c	n/a
561.2145	0.135	1122429	keystroke_o	o	n/a
561.3045	0.075	1122609	keystroke_n	n	n/a
562.0545	0.06	1124109	keystroke_s	s	n/a
562.2645	0.06	1124529	keystroke_i	i	n/a
562.3095	0.0595	1124619	keystroke_s	s	n/a
562.475	0.045	1124950	keystroke_t	t	n/a
562.595	0.06	1125190	keystroke_e	e	n/a
562.729	0.105	1125458	keystroke_Key.space	Key.space	n/a
563.074	0.091	1126148	keystroke_r	r	n/a
563.27	0.075	1126540	keystroke_a	a	n/a
563.39	0.075	1126780	keystroke_n	n	n/a
563.45	0.075	1126900	keystroke_g	g	n/a
563.6	0.12	1127200	keystroke_e	e	n/a
563.84	0.075	1127680	keystroke_s	s	n/a
564.035	0.104	1128070	keystroke_Key.enter	Key.enter	n/a
564.144	15.042	1128288	prompt	n/a	shortly territories quantum marc\n
564.905	0.075	1129810	keystroke_s	s	n/a
565.025	0.075	1130050	keystroke_h	h	n/a
565.1745	0.075	1130349	keystroke_o	o	n/a
565.2645	0.075	1130529	keystroke_r	r	n/a
565.4445	0.075	1130889	keystroke_t	t	n/a
565.5495	0.09	1131099	keystroke_l	l	n/a
565.79	0.1195	1131580	keystroke_y	y	n/a
565.9395	0.075	1131879	keystroke_Key.space	Key.space	n/a
566.5545	0.09	1133109	keystroke_t	t	n/a
566.8095	0.045	1133619	keystroke_e	e	n/a
567.049	0.06	1134098	keystroke_r	r	n/a
567.1695	0.09	1134339	keystroke_r	r	n/a
567.5895	0.09	1135179	keystroke_o	o	n/a
569.5095	0.09	1139019	keystroke_Key.backspace	Key.backspace	n/a
571.07	0.06	1142140	keystroke_i	i	n/a
571.3095	0.105	1142619	keystroke_t	t	n/a
571.4445	0.075	1142889	keystroke_o	o	n/a
571.5495	0.105	1143099	keystroke_i	i	n/a
571.7295	0.15	1143459	keystroke_r	r	n/a
571.8195	0.0905	1143639	keystroke_e	e	n/a
572.029	0.046	1144058	keystroke_s	s	n/a
572.374	0.061	1144748	keystroke_Key.backspace	Key.backspace	n/a
572.539	0.045	1145078	keystroke_Key.backspace	Key.backspace	n/a
572.689	0.06	1145378	keystroke_Key.backspace	Key.backspace	n/a
573.095	0.0745	1146190	keystroke_Key.backspace	Key.backspace	n/a
574.4895	0.135	1148979	keystroke_r	r	n/a
574.8195	0.045	1149639	keystroke_i	i	n/a
574.8495	0.075	1149699	keystroke_e	e	n/a
575.0145	0.075	1150029	keystroke_s	s	n/a
575.1495	0.09	1150299	keystroke_Key.space	Key.space	n/a
576.425	0.09	1152850	keystroke_q	q	n/a
576.59	0.105	1153180	keystroke_u	u	n/a
576.8	0.075	1153600	keystroke_a	a	n/a
577.325	0.075	1154650	keystroke_n	n	n/a
577.595	0.09	1155190	keystroke_t	t	n/a
577.7	0.045	1155400	keystroke_u	u	n/a
577.895	0.09	1155790	keystroke_m	m	n/a
578.09	0.045	1156180	keystroke_Key.space	Key.space	n/a
578.405	0.09	1156810	keystroke_m	m	n/a
578.51	0.09	1157020	keystroke_a	a	n/a
578.54	0.12	1157080	keystroke_r	r	n/a
578.8695	0.09	1157739	keystroke_c	c	n/a
579.0945	0.0905	1158189	keystroke_Key.enter	Key.enter	n/a
579.189	8.232	1158378	prompt	n/a	reef patch arrange formation\n
579.89	0.105	1159780	keystroke_r	r	n/a
580.1745	0.06	1160349	keystroke_e	e	n/a
580.3245	0.03	1160649	keystroke_e	e	n/a
580.4895	0.105	1160979	keystroke_f	f	n/a
580.8045	0.12	1161609	keystroke_Key.space	Key.space	n/a
581.15	0.09	1162300	keystroke_p	p	n/a
581.3	0.06	1162600	keystroke_a	a	n/a
581.33	0.105	1162660	keystroke_t	t	n/a
581.555	0.075	1163110	keystroke_c	c	n/a
581.645	0.135	1163290	keystroke_h	h	n/a
581.75	0.09	1163500	keystroke_Key.space	Key.space	n/a
581.99	0.105	1163980	keystroke_r	r	n/a
582.395	0.105	1164790	keystroke_Key.backspace	Key.backspace	n/a
582.605	0.09	1165210	keystroke_a	a	n/a
582.875	0.06	1165750	keystroke_r	r	n/a
583.01	0.075	1166020	keystroke_r	r	n/a
583.5195	0.06	1167039	keystroke_a	a	n/a
583.6695	0.0755	1167339	keystroke_n	n	n/a
583.73	0.075	1167460	keystroke_g	g	n/a
583.865	0.059	1167730	keystroke_e	e	n/a
584.015	0.09	1168030	keystroke_Key.space	Key.space	n/a
584.315	0.075	1168630	keystroke_f	f	n/a
584.45	0.075	1168900	keystroke_o	o	n/a
584.69	0.075	1169380	keystroke_m	m	n/a
585.32	0.06	1170640	keystroke_Key.backspace	Key.backspace	n/a
585.44	0.075	1170880	keystroke_r	r	n/a
586.295	0.075	1172590	keystroke_m	m	n/a
586.52	0.06	1173040	keystroke_a	a	n/a
586.595	0.105	1173190	keystroke_t	t	n/a
586.715	0.075	1173430	keystroke_i	i	n/a
586.85	0.105	1173700	keystroke_o	o	n/a
586.925	0.105	1173850	keystroke_n	n	n/a
587.359	0.06	1174718	keystroke_Key.enter	Key.enter	n/a
587.4245	14.232	1174849	prompt	n/a	shoulder we'd've presidential accurate\n
588.545	0.075	1177090	keystroke_s	s	n/a
588.799	0.076	1177598	keystroke_h	h	n/a
589.04	0.075	1178080	keystroke_u	u	n/a
589.804	0.0455	1179608	keystroke_Key.backspace	Key.backspace	n/a
590.9145	0.09	1181829	keystroke_o	o	n/a
590.9745	0.09	1181949	keystroke_u	u	n/a
591.1695	0.045	1182339	keystroke_l	l	n/a
591.2445	0.075	1182489	keystroke_d	d	n/a
591.455	0.075	1182910	keystroke_e	e	n/a
591.5	0.12	1183000	keystroke_r	r	n/a
591.725	0.105	1183450	keystroke_Key.space	Key.space	n/a
592.325	0.09	1184650	keystroke_w	w	n/a
592.385	0.105	1184770	keystroke_e	e	n/a
593.21	0.06	1186420	keystroke_'	'	n/a
593.375	0.075	1186750	keystroke_d	d	n/a
595.612	0.013	1191224	keystroke_'	'	n/a
595.79	0.09	1191580	keystroke_v	v	n/a
595.94	0.105	1191880	keystroke_e	e	n/a
596.495	0.075	1192990	keystroke_Key.space	Key.space	n/a
596.87	0.045	1193740	keystroke_p	p	n/a
597.14	0.12	1194280	keystroke_r	r	n/a
597.29	0.09	1194580	keystroke_e	e	n/a
597.56	0.075	1195120	keystroke_s	s	n/a
597.9645	0.075	1195929	keystroke_i	i	n/a
598.3245	0.045	1196649	keystroke_d	d	n/a
599.1345	0.045	1198269	keystroke_e	e	n/a
599.2855	0.06	1198571	keystroke_n	n	n/a
599.3605	0.09	1198721	keystroke_t	t	n/a
599.5405	0.0595	1199081	keystroke_i	i	n/a
599.66	0.075	1199320	keystroke_a	a	n/a
599.765	0.075	1199530	keystroke_l	l	n/a
599.93	0.059	1199860	keystroke_Key.space	Key.space	n/a
600.38	0.06	1200760	keystroke_a	a	n/a
600.6495	0.03	1201299	keystroke_c	c	n/a
600.7845	0.0305	1201569	keystroke_c	c	n/a
600.9645	0.075	1201929	keystroke_u	u	n/a
601.0545	0.06	1202109	keystroke_r	r	n/a
601.1445	0.1055	1202289	keystroke_a	a	n/a
601.235	0.12	1202470	keystroke_t	t	n/a
601.34	0.09	1202680	keystroke_e	e	n/a
601.58	0.075	1203160	keystroke_Key.enter	Key.enter	n/a
601.6595	10.1975	1203319	prompt	n/a	terrible surround armenia unions\n
602.2695	0.075	1204539	keystroke_t	t	n/a
602.4495	0.076	1204899	keystroke_e	e	n/a
602.7045	0.045	1205409	keystroke_r	r	n/a
602.8245	0.06	1205649	keystroke_r	r	n/a
602.9145	0.075	1205829	keystroke_i	i	n/a
603.1095	0.076	1206219	keystroke_b	b	n/a
603.4255	0.015	1206851	keystroke_l	l	n/a
604.0855	0.06	1208171	keystroke_e	e	n/a
604.2805	0.105	1208561	keystroke_Key.space	Key.space	n/a
604.4155	0.075	1208831	keystroke_s	s	n/a
604.64	0.075	1209280	keystroke_u	u	n/a
605.5395	0.06	1211079	keystroke_r	r	n/a
605.7055	0.104	1211411	keystroke_r	r	n/a
605.9445	0.0905	1211889	keystroke_o	o	n/a
606.005	0.06	1212010	keystroke_u	u	n/a
606.185	0.075	1212370	keystroke_n	n	n/a
606.275	0.045	1212550	keystroke_d	d	n/a
606.455	0.105	1212910	keystroke_Key.space	Key.space	n/a
607.115	0.0745	1214230	keystroke_a	a	n/a
607.535	0.06	1215070	keystroke_m	m	n/a
607.94	0.045	1215880	keystroke_Key.backspace	Key.backspace	n/a
608.15	0.09	1216300	keystroke_r	r	n/a
608.78	0.075	1217560	keystroke_m	m	n/a
608.9	0.075	1217800	keystroke_e	e	n/a
609.035	0.075	1218070	keystroke_n	n	n/a
609.2145	0.06	1218429	keystroke_i	i	n/a
609.2595	0.06	1218519	keystroke_a	a	n/a
609.605	0.09	1219210	keystroke_Key.space	Key.space	n/a
609.8905	0.075	1219781	keystroke_u	u	n/a
610.8205	0.105	1221641	keystroke_n	n	n/a
611.2405	0.06	1222481	keystroke_i	i	n/a
611.3905	0.0895	1222781	keystroke_o	o	n/a
611.42	0.135	1222840	keystroke_n	n	n/a
611.57	0.075	1223140	keystroke_s	s	n/a
611.795	0.06	1223590	keystroke_Key.enter	Key.enter	n/a
611.8645	9.052	1223729	prompt	n/a	subjective frames chevy constitute\n
612.7695	0.091	1225539	keystroke_s	s	n/a
612.8755	0.045	1225751	keystroke_u	u	n/a
613.265	0.09	1226530	keystroke_n	n	n/a
613.925	0.09	1227850	keystroke_Key.backspace	Key.backspace	n/a
614.3445	0.03	1228689	keystroke_b	b	n/a
614.5545	0.075	1229109	keystroke_j	j	n/a
614.6895	0.06	1229379	keystroke_e	e	n/a
614.9145	0.09	1229829	keystroke_c	c	n/a
615.155	0.06	1230310	keystroke_t	t	n/a
615.26	0.075	1230520	keystroke_i	i	n/a
615.335	0.0905	1230670	keystroke_v	v	n/a
615.5005	0.075	1231001	keystroke_e	e	n/a
615.6505	0.075	1231301	keystroke_Key.space	Key.space	n/a
616.0705	0.075	1232141	keystroke_f	f	n/a
616.2355	0.075	1232471	keystroke_r	r	n/a
616.3255	0.089	1232651	keystroke_a	a	n/a
616.4605	0.075	1232921	keystroke_m	m	n/a
616.5495	0.046	1233099	keystroke_e	e	n/a
616.7005	0.06	1233401	keystroke_s	s	n/a
616.9255	0.09	1233851	keystroke_Key.space	Key.space	n/a
617.2705	0.075	1234541	keystroke_c	c	n/a
617.3755	0.075	1234751	keystroke_h	h	n/a
617.5105	0.045	1235021	keystroke_e	e	n/a
617.7955	0.105	1235591	keystroke_v	v	n/a
618.305	0.075	1236610	keystroke_y	y	n/a
618.395	0.09	1236790	keystroke_Key.space	Key.space	n/a
618.83	0.09	1237660	keystroke_c	c	n/a
619.3245	0.06	1238649	keystroke_o	o	n/a
619.4895	0.075	1238979	keystroke_n	n	n/a
619.685	0.06	1239370	keystroke_s	s	n/a
619.9555	0.09	1239911	keystroke_t	t	n/a
620.1205	0.09	1240241	keystroke_i	i	n/a
620.2255	0.06	1240451	keystroke_t	t	n/a
620.3455	0.06	1240691	keystroke_u	u	n/a
620.4505	0.075	1240901	keystroke_t	t	n/a
620.6155	0.075	1241231	keystroke_e	e	n/a
620.8105	0.105	1241621	keystroke_Key.enter	Key.enter	n/a
620.9195	14.4725	1241839	prompt	n/a	trinidad silicon tokyo elementary\n
621.95	0.09	1243900	keystroke_t	t	n/a
622.19	0.105	1244380	keystroke_r	r	n/a
622.385	0.09	1244770	keystroke_i	i	n/a
622.565	0.09	1245130	keystroke_n	n	n/a
622.715	0.06	1245430	keystroke_i	i	n/a
622.835	0.06	1245670	keystroke_d	d	n/a
623.0445	0.0905	1246089	keystroke_a	a	n/a
623.3745	0.076	1246749	keystroke_d	d	n/a
623.6295	0.06	1247259	keystroke_Key.space	Key.space	n/a
625.3245	0.09	1250649	keystroke_s	s	n/a
625.5345	0.0605	1251069	keystroke_i	i	n/a
625.775	0.09	1251550	keystroke_l	l	n/a
625.94	0.06	1251880	keystroke_i	i	n/a
626.315	0.06	1252630	keystroke_c	c	n/a
626.63	0.09	1253260	keystroke_o	o	n/a
626.735	0.09	1253470	keystroke_n	n	n/a
627.7695	0.1205	1255539	keystroke_Key.space	Key.space	n/a
628.19	0.09	1256380	keystroke_t	t	n/a
628.445	0.06	1256890	keystroke_o	o	n/a
628.7	0.06	1257400	keystroke_k	k	n/a
628.8955	0.0595	1257791	keystroke_l	l	n/a
629.21	0.045	1258420	keystroke_y	y	n/a
630.3505	0.09	1260701	keystroke_o	o	n/a
630.71	0.045	1261420	keystroke_Key.backspace	Key.backspace	n/a
630.83	0.06	1261660	keystroke_Key.backspace	Key.backspace	n/a
630.995	0.061	1261990	keystroke_Key.backspace	Key.backspace	n/a
631.805	0.075	1263610	keystroke_y	y	n/a
