onset	duration	sample	value	key	prompt_text
1.7145	10.403	3429	prompt	n/a	the quick brown fox jumps over a lazy dog\n
3.1485	0.044	6297	keystroke	r	n/a
3.7325	0.075	7465	keystroke	Key.backspace	n/a
3.9875	0.135	7975	keystroke	t	n/a
4.1375	0.105	8275	keystroke	h	n/a
4.2575	0.195	8515	keystroke	e	n/a
4.3925	0.15	8785	keystroke	Key.space	n/a
4.6025	0.135	9205	keystroke	q	n/a
4.7825	0.09	9565	keystroke	u	n/a
5.0375	0.09	10075	keystroke	i	n/a
5.3375	0.15	10675	keystroke	c	n/a
5.5025	0.105	11005	keystroke	k	n/a
5.7085	0.119	11417	keystroke	Key.space	n/a
5.8725	0.09	11745	keystroke	b	n/a
6.0825	0.06	12165	keystroke	r	n/a
6.1575	0.092	12315	keystroke	o	n/a
6.2945	0.135	12589	keystroke	w	n/a
6.4895	0.075	12979	keystroke	n	n/a
6.6395	0.1355	13279	keystroke	Key.space	n/a
7.0145	0.1055	14029	keystroke	f	n/a
7.105	0.105	14210	keystroke	o	n/a
7.525	0.1345	15050	keystroke	x	n/a
7.6895	0.1205	15379	keystroke	Key.space	n/a
7.915	0.09	15830	keystroke	f	n/a
8.44	0.0895	16880	keystroke	Key.backspace	n/a
8.875	0.09	17750	keystroke	j	n/a
9.055	0.075	18110	keystroke	u	n/a
9.25	0.12	18500	keystroke	m	n/a
9.385	0.12	18770	keystroke	p	n/a
9.52	0.15	19040	keystroke	s	n/a
9.625	0.1345	19250	keystroke	Key.space	n/a
9.7605	0.1045	19521	keystroke	o	n/a
9.895	0.135	19790	keystroke	v	n/a
10	0.165	20000	keystroke	e	n/a
10.12	0.075	20240	keystroke	r	n/a
10.285	0.0895	20570	keystroke	Key.space	n/a
10.3595	0.135	20719	keystroke	a	n/a
10.4795	0.105	20959	keystroke	Key.space	n/a
10.7045	0.105	21409	keystroke	l	n/a
10.8395	0.075	21679	keystroke	a	n/a
11.0645	0.165	22129	keystroke	z	n/a
11.1845	0.0895	22369	keystroke	y	n/a
11.319	0.12	22638	keystroke	Key.space	n/a
11.545	0.134	23090	keystroke	d	n/a
11.62	0.119	23240	keystroke	o	n/a
11.845	0.089	23690	keystroke	g	n/a
12.069	0.045	24138	keystroke	Key.enter	n/a
12.1215	9.145	24243	prompt	n/a	portugal week energy luke\n
13.0445	0.075	26089	keystroke	p	n/a
13.1945	0.09	26389	keystroke	r	n/a
13.2995	0.15	26599	keystroke	o	n/a
13.5245	0.105	27049	keystroke	t	n/a
13.6595	0.09	27319	keystroke	u	n/a
14.3795	0.105	28759	keystroke	g	n/a
14.5445	0.15	29089	keystroke	a	n/a
14.6345	0.135	29269	keystroke	l	n/a
14.8295	0.12	29659	keystroke	Key.space	n/a
14.994	0.12	29988	keystroke	w	n/a
15.219	0.106	30438	keystroke	e	n/a
15.4145	0.12	30829	keystroke	e	n/a
15.5495	0.1345	31099	keystroke	k	n/a
15.744	0.12	31488	keystroke	Key.space	n/a
16.149	0.09	32298	keystroke	e	n/a
16.314	0.12	32628	keystroke	n	n/a
16.9895	0.075	33979	keystroke	r	n/a
17.679	0.09	35358	keystroke	Key.backspace	n/a
17.755	0.179	35510	keystroke	e	n/a
17.875	0.104	35750	keystroke	r	n/a
18.5495	0.12	37099	keystroke	g	n/a
18.7295	0.105	37459	keystroke	y	n/a
19.0595	0.105	38119	keystroke	Key.space	n/a
19.6895	0.075	39379	keystroke	l	n/a
20.4995	0.045	40999	keystroke	u	n/a
20.859	0.0905	41718	keystroke	k	n/a
20.9645	0.15	41929	keystroke	e	n/a
21.1895	0.075	42379	keystroke	Key.enter	n/a
21.2695	10.752	42539	prompt	n/a	energy hammer glen contributor\n
22.1495	0.105	44299	keystroke	e	n/a
22.3145	0.1355	44629	keystroke	n	n/a
22.7645	0.045	45529	keystroke	e	n/a
24.2495	0.12	48499	keystroke	r	n/a
24.7295	0.1055	49459	keystroke	g	n/a
24.985	0.03	49970	keystroke	y	n/a
25.24	0.105	50480	keystroke	Key.space	n/a
25.42	0.09	50840	keystroke	h	n/a
25.645	0.119	51290	keystroke	a	n/a
25.84	0.075	51680	keystroke	m	n/a
25.99	0.0755	51980	keystroke	m	n/a
26.1695	0.225	52339	keystroke	e	n/a
26.3045	0.12	52609	keystroke	r	n/a
26.4395	0.1195	52879	keystroke	Key.space	n/a
27.1595	0.105	54319	keystroke	g	n/a
27.2805	0.104	54561	keystroke	l	n/a
27.4295	0.12	54859	keystroke	e	n/a
27.6395	0.121	55279	keystroke	n	n/a
27.8045	0.105	55609	keystroke	Key.space	n/a
28.3905	0.149	56781	keystroke	c	n/a
28.4645	0.2255	56929	keystroke	o	n/a
28.6155	0.2995	57231	keystroke	n	n/a
29.17	0.105	58340	keystroke	t	n/a
29.41	0.135	58820	keystroke	r	n/a
30.205	0.09	60410	keystroke	i	n/a
30.58	0.075	61160	keystroke	b	n/a
30.76	0.1055	61520	keystroke	u	n/a
30.9845	0.106	61969	keystroke	t	n/a
31.1045	0.121	62209	keystroke	o	n/a
31.2705	0.104	62541	keystroke	r	n/a
31.9445	0.075	63889	keystroke	Key.enter	n/a
32.0255	13.916	64051	prompt	n/a	that're inclusion custody focuses\n
32.7845	0.12	65569	keystroke	t	n/a
32.8895	0.1355	65779	keystroke	h	n/a
33.19	0.165	66380	keystroke	a	n/a
33.34	0.105	66680	keystroke	t	n/a
33.535	0.12	67070	keystroke	'	n/a
34.3745	0.09	68749	keystroke	Key.backspace	n/a
35.3645	0.075	70729	keystroke	'	n/a
35.5595	0.15	71119	keystroke	r	n/a
35.6195	0.195	71239	keystroke	e	n/a
35.8295	0.165	71659	keystroke	Key.space	n/a
36.9995	0.075	73999	keystroke	r	n/a
37.4195	0.075	74839	keystroke	Key.backspace	n/a
37.705	0.1645	75410	keystroke	i	n/a
37.7945	0.165	75589	keystroke	n	n/a
38.0645	0.15	76129	keystroke	c	n/a
38.1845	0.09	76369	keystroke	l	n/a
38.4395	0.1055	76879	keystroke	u	n/a
39.1745	0.1055	78349	keystroke	s	n/a
39.295	0.255	78590	keystroke	i	n/a
39.4	0.151	78800	keystroke	o	n/a
39.475	0.15	78950	keystroke	n	n/a
39.595	0.1345	79190	keystroke	Key.space	n/a
39.9395	0.15	79879	keystroke	c	n/a
40.84	0.045	81680	keystroke	i	n/a
41.2145	0.09	82429	keystroke	Key.backspace	n/a
41.4855	0.089	82971	keystroke	u	n/a
41.5905	0.104	83181	keystroke	s	n/a
41.86	0.09	83720	keystroke	t	n/a
41.92	0.135	83840	keystroke	o	n/a
42.4	0.135	84800	keystroke	d	n/a
42.595	0.09	85190	keystroke	y	n/a
42.9845	0.135	85969	keystroke	Key.space	n/a
43.4505	0.119	86901	keystroke	f	n/a
43.6145	0.15	87229	keystroke	o	n/a
44.3495	0.091	88699	keystroke	c	n/a
44.4695	0.12	88939	keystroke	u	n/a
45.1595	0.1205	90319	keystroke	s	n/a
45.385	0.075	90770	keystroke	e	n/a
45.61	0.09	91220	keystroke	s	n/a
45.865	0.075	91730	keystroke	Key.enter	n/a
45.9465	8.845	91893	prompt	n/a	characters can zoloft represents\n
46.735	0.12	93470	keystroke	c	n/a
47.095	0.12	94190	keystroke	h	n/a
47.335	0.09	94670	keystroke	a	n/a
47.545	0.09	95090	keystroke	r	n/a
47.71	0.105	95420	keystroke	a	n/a
47.95	0.1195	95900	keystroke	c	n/a
48.3095	0.105	96619	keystroke	t	n/a
48.4445	0.15	96889	keystroke	e	n/a
48.5345	0.15	97069	keystroke	r	n/a
48.6695	0.24	97339	keystroke	s	n/a
48.9845	0.1205	97969	keystroke	Key.space	n/a
49.225	0.12	98450	keystroke	c	n/a
49.315	0.15	98630	keystroke	a	n/a
49.42	0.15	98840	keystroke	n	n/a
49.585	0.12	99170	keystroke	Key.space	n/a
50.0645	0.15	100129	keystroke	z	n/a
50.2595	0.045	100519	keystroke	o	n/a
50.4995	0.045	100999	keystroke	l	n/a
50.6795	0.076	101359	keystroke	o	n/a
50.9955	0.12	101991	keystroke	f	n/a
51.4005	0.15	102801	keystroke	t	n/a
52.015	0.12	104030	keystroke	Key.space	n/a
52.78	0.15	105560	keystroke	r	n/a
52.885	0.18	105770	keystroke	e	n/a
53.155	0.12	106310	keystroke	p	n/a
53.365	0.135	106730	keystroke	r	n/a
53.455	0.105	106910	keystroke	e	n/a
53.695	0.165	107390	keystroke	s	n/a
53.875	0.1355	107750	keystroke	n	n/a
53.905	0.2255	107810	keystroke	e	n/a
54.1455	0.135	108291	keystroke	t	n/a
54.46	0.15	108920	keystroke	s	n/a
54.73	0.06	109460	keystroke	Key.enter	n/a
54.795	13.242	109590	prompt	n/a	holidays offense criticism hopkins\n
56.02	0.15	112040	keystroke	h	n/a
56.11	0.105	112220	keystroke	o	n/a
56.335	0.105	112670	keystroke	l	n/a
56.53	0.105	113060	keystroke	i	n/a
56.755	0.12	113510	keystroke	d	n/a
56.905	0.105	113810	keystroke	a	n/a
56.98	0.135	113960	keystroke	y	n/a
57.175	0.15	114350	keystroke	s	n/a
57.5045	0.12	115009	keystroke	Key.space	n/a
57.7445	0.105	115489	keystroke	o	n/a
57.9545	0.015	115909	keystroke	f	n/a
58.0595	0.12	116119	keystroke	f	n/a
58.4195	0.09	116839	keystroke	e	n/a
58.5395	0.105	117079	keystroke	n	n/a
58.75	0.105	117500	keystroke	c	n/a
59.155	0.075	118310	keystroke	Key.backspace	n/a
59.23	0.195	118460	keystroke	s	n/a
59.38	0.165	118760	keystroke	e	n/a
59.5	0.135	119000	keystroke	Key.space	n/a
59.89	0.105	119780	keystroke	c	n/a
60.145	0.1195	120290	keystroke	r	n/a
60.4895	0.12	120979	keystroke	i	n/a
60.8645	0.135	121729	keystroke	t	n/a
61.0145	0.09	122029	keystroke	i	n/a
61.3745	0.105	122749	keystroke	s	n/a
61.885	0.135	123770	keystroke	i	n/a
62.7395	0.075	125479	keystroke	Key.backspace	n/a
62.8895	0.09	125779	keystroke	Key.backspace	n/a
62.9955	0.179	125991	keystroke	c	n/a
63.1905	0.119	126381	keystroke	i	n/a
63.3695	0.12	126739	keystroke	s	n/a
63.6095	0.121	127219	keystroke	m	n/a
63.8055	0.135	127611	keystroke	Key.space	n/a
64.1055	0.15	128211	keystroke	h	n/a
64.2255	0.165	128451	keystroke	o	n/a
64.69	0.135	129380	keystroke	p	n/a
65.53	0.06	131060	keystroke	l	n/a
65.8605	0.1495	131721	keystroke	i	n/a
66.355	0.0755	132710	keystroke	Key.backspace	n/a
66.49	0.0745	132980	keystroke	Key.backspace	n/a
67.0005	0.09	134001	keystroke	k	n/a
67.2555	0.1645	134511	keystroke	i	n/a
67.345	0.165	134690	keystroke	n	n/a
67.69	0.1645	135380	keystroke	s	n/a
67.9445	0.09	135889	keystroke	Key.enter	n/a
68.0405	16.1065	136081	prompt	n/a	browser relevance bracket medline\n
68.77	0.105	137540	keystroke	b	n/a
68.89	0.15	137780	keystroke	r	n/a
69.025	0.12	138050	keystroke	o	n/a
69.205	0.12	138410	keystroke	w	n/a
69.5195	0.165	139039	keystroke	e	n/a
70.2995	0.075	140599	keystroke	Key.backspace	n/a
70.3895	0.09	140779	keystroke	s	n/a
70.5995	0.286	141199	keystroke	e	n/a
70.7805	0.135	141561	keystroke	r	n/a
71.1555	0.15	142311	keystroke	Key.space	n/a
71.5905	0.135	143181	keystroke	r	n/a
71.6805	0.1045	143361	keystroke	e	n/a
71.845	0.135	143690	keystroke	l	n/a
71.995	0.135	143990	keystroke	e	n/a
72.505	0.03	145010	keystroke	v	n/a
72.625	0.0595	145250	keystroke	a	n/a
73.1195	0.12	146239	keystroke	n	n/a
73.3445	0.15	146689	keystroke	c	n/a
73.4955	0.15	146991	keystroke	e	n/a
73.9295	0.105	147859	keystroke	Key.space	n/a
75.0995	0.09	150199	keystroke	b	n/a
75.31	0.165	150620	keystroke	r	n/a
75.46	0.12	150920	keystroke	a	n/a
75.76	0.165	151520	keystroke	c	n/a
76.03	0.09	152060	keystroke	k	n/a
76.435	0.09	152870	keystroke	e	n/a
76.63	0.1195	153260	keystroke	t	n/a
76.9745	0.105	153949	keystroke	Key.space	n/a
77.3345	0.09	154669	keystroke	m	n/a
77.5295	0.0755	155059	keystroke	d	n/a
77.7095	0.075	155419	keystroke	e	n/a
80.622	0.028	161244	keystroke	Key.backspace	n/a
80.71	0.105	161420	keystroke	Key.backspace	n/a
81.01	0.09	162020	keystroke	e	n/a
81.235	0.165	162470	keystroke	d	n/a
82.7805	0.09	165561	keystroke	i	n/a
83.4255	0.0895	166851	keystroke	n	n/a
83.62	0.15	167240	keystroke	e	n/a
84.07	0.075	168140	keystroke	Key.enter	n/a
84.153	6.8035	168306	prompt	n/a	maternity layers ladder heading\n
84.91	0.105	169820	keystroke	m	n/a
85.06	0.105	170120	keystroke	e	n/a
85.2705	0.12	170541	keystroke	a	n/a
85.4195	0.151	170839	keystroke	t	n/a
85.6155	0.135	171231	keystroke	e	n/a
85.6905	0.18	171381	keystroke	r	n/a
85.9455	0.15	171891	keystroke	n	n/a
86.1105	0.12	172221	keystroke	i	n/a
86.3655	0.15	172731	keystroke	t	n/a
86.5005	0.12	173001	keystroke	y	n/a
86.68	0.135	173360	keystroke	Key.space	n/a
86.875	0.075	173750	keystroke	l	n/a
87.01	0.12	174020	keystroke	a	n/a
87.22	0.12	174440	keystroke	y	n/a
87.445	0.2395	174890	keystroke	e	n/a
87.595	0.1045	175190	keystroke	r	n/a
87.7145	0.255	175429	keystroke	s	n/a
87.9545	0.12	175909	keystroke	Key.space	n/a
88.2095	0.105	176419	keystroke	l	n/a
88.5245	0.1205	177049	keystroke	a	n/a
88.7195	0.075	177439	keystroke	d	n/a
88.885	0.09	177770	keystroke	d	n/a
89.125	0.255	178250	keystroke	e	n/a
89.29	0.165	178580	keystroke	r	n/a
89.425	0.15	178850	keystroke	Key.space	n/a
89.74	0.105	179480	keystroke	h	n/a
89.905	0.135	179810	keystroke	e	n/a
89.995	0.24	179990	keystroke	a	n/a
90.205	0.135	180410	keystroke	d	n/a
90.49	0.21	180980	keystroke	i	n/a
90.58	0.15	181160	keystroke	n	n/a
90.715	0.12	181430	keystroke	g	n/a
90.895	0.06	181790	keystroke	Key.enter	n/a
90.96	7.8265	181920	prompt	n/a	corporations badly google accredited\n
91.915	0.105	183830	keystroke	c	n/a
92.035	0.105	184070	keystroke	o	n/a
92.215	0.135	184430	keystroke	r	n/a
92.41	0.105	184820	keystroke	p	n/a
92.665	0.06	185330	keystroke	o	n/a
92.7845	0.165	185569	keystroke	r	n/a
92.9795	0.165	185959	keystroke	a	n/a
93.1145	0.135	186229	keystroke	t	n/a
93.3095	0.225	186619	keystroke	i	n/a
93.3705	0.135	186741	keystroke	o	n/a
93.4445	0.18	186889	keystroke	n	n/a
93.5795	0.1805	187159	keystroke	s	n/a
93.73	0.165	187460	keystroke	Key.space	n/a
94.1805	0.105	188361	keystroke	b	n/a
94.3005	0.15	188601	keystroke	a	n/a
94.5105	0.105	189021	keystroke	d	n/a
94.7355	0.105	189471	keystroke	l	n/a
94.9905	0.135	189981	keystroke	y	n/a
95.1405	0.165	190281	keystroke	Key.space	n/a
95.3655	0.12	190731	keystroke	g	n/a
95.5455	0.075	191091	keystroke	o	n/a
95.71	0.075	191420	keystroke	o	n/a
95.815	0.15	191630	keystroke	g	n/a
95.965	0.09	191930	keystroke	l	n/a
96.085	0.15	192170	keystroke	e	n/a
96.19	0.165	192380	keystroke	Key.space	n/a
96.415	0.1045	192830	keystroke	a	n/a
96.715	0.09	193430	keystroke	c	n/a
96.865	0.12	193730	keystroke	c	n/a
97.195	0.12	194390	keystroke	r	n/a
97.48	0.09	194960	keystroke	e	n/a
97.705	0.1045	195410	keystroke	d	n/a
97.8545	0.135	195709	keystroke	i	n/a
98.0045	0.12	196009	keystroke	t	n/a
98.2145	0.12	196429	keystroke	e	n/a
98.3795	0.06	196759	keystroke	d	n/a
98.7545	0.03	197509	keystroke	Key.enter	n/a
98.7895	7.3025	197579	prompt	n/a	futures travesti math tions\n
99.5355	0.135	199071	keystroke	f	n/a
99.6995	0.12	199399	keystroke	u	n/a
99.9095	0.09	199819	keystroke	t	n/a
100.0295	0.105	200059	keystroke	u	n/a
100.1795	0.12	200359	keystroke	r	n/a
100.2395	0.18	200479	keystroke	e	n/a
100.4345	0.135	200869	keystroke	s	n/a
100.6445	0.15	201289	keystroke	Key.space	n/a
101.2455	0.075	202491	keystroke	t	n/a
101.3805	0.165	202761	keystroke	r	n/a
101.5305	0.15	203061	keystroke	a	n/a
101.785	0.12	203570	keystroke	v	n/a
101.98	0.15	203960	keystroke	e	n/a
102.445	0.1055	204890	keystroke	s	n/a
102.6705	0.104	205341	keystroke	t	n/a
102.9105	0.044	205821	keystroke	i	n/a
103.7195	0.121	207439	keystroke	Key.space	n/a
103.9745	0.076	207949	keystroke	m	n/a
104.1105	0.105	208221	keystroke	a	n/a
104.2755	0.119	208551	keystroke	t	n/a
104.4245	0.136	208849	keystroke	h	n/a
104.6045	0.121	209209	keystroke	Key.space	n/a
105.0545	0.016	210109	keystroke	t	n/a
105.4	0.27	210800	keystroke	i	n/a
105.535	0.15	211070	keystroke	o	n/a
105.625	0.1505	211250	keystroke	n	n/a
105.8055	0.12	211611	keystroke	s	n/a
106.0455	0.045	212091	keystroke	Key.enter	n/a
106.098	8.5135	212196	prompt	n/a	exposure outdoors european valuation\n
106.84	0.105	213680	keystroke	e	n/a
107.035	0.135	214070	keystroke	s	n/a
107.425	0.075	214850	keystroke	Key.backspace	n/a
107.53	0.15	215060	keystroke	x	n/a
107.725	0.12	215450	keystroke	p	n/a
107.965	0.105	215930	keystroke	o	n/a
108.295	0.165	216590	keystroke	s	n/a
108.535	0.06	217070	keystroke	u	n/a
108.745	0.15	217490	keystroke	r	n/a
108.82	0.18	217640	keystroke	e	n/a
109.015	0.15	218030	keystroke	Key.space	n/a
109.27	0.2105	218540	keystroke	o	n/a
109.375	0.1655	218750	keystroke	u	n/a
109.5405	0.15	219081	keystroke	t	n/a
109.8405	0.119	219681	keystroke	d	n/a
110.0205	0.075	220041	keystroke	o	n/a
110.2005	0.075	220401	keystroke	o	n/a
110.4255	0.12	220851	keystroke	r	n/a
110.6805	0.1495	221361	keystroke	s	n/a
110.875	0.15	221750	keystroke	Key.space	n/a
111.175	0.09	222350	keystroke	e	n/a
111.43	0.105	222860	keystroke	u	n/a
111.655	0.15	223310	keystroke	r	n/a
111.82	0.12	223640	keystroke	i	n/a
112.06	0.105	224120	keystroke	p	n/a
112.225	0.135	224450	keystroke	e	n/a
112.36	0.135	224720	keystroke	a	n/a
112.51	0.15	225020	keystroke	n	n/a
112.69	0.1655	225380	keystroke	Key.space	n/a
112.9455	0.135	225891	keystroke	v	n/a
113.1255	0.105	226251	keystroke	a	n/a
113.2905	0.105	226581	keystroke	l	n/a
113.5445	0.105	227089	keystroke	u	n/a
113.7845	0.105	227569	keystroke	a	n/a
114.0095	0.075	228019	keystroke	t	n/a
114.1595	0.21	228319	keystroke	i	n/a
114.2195	0.135	228439	keystroke	o	n/a
114.2945	0.12	228589	keystroke	n	n/a
114.5345	0.075	229069	keystroke	Key.enter	n/a
114.615	12.2515	229230	prompt	n/a	technique baltimore carriers agree\n
115.555	0.09	231110	keystroke	t	n/a
115.765	0.105	231530	keystroke	e	n/a
116.08	0.18	232160	keystroke	c	n/a
116.245	0.165	232490	keystroke	h	n/a
116.605	0.195	233210	keystroke	n	n/a
116.77	0.18	233540	keystroke	i	n/a
117.19	0.105	234380	keystroke	q	n/a
117.325	0.1645	234650	keystroke	u	n/a
117.73	0.135	235460	keystroke	e	n/a
117.97	0.1345	235940	keystroke	Key.space	n/a
118.2545	0.121	236509	keystroke	b	n/a
118.4355	0.135	236871	keystroke	a	n/a
118.5855	0.105	237171	keystroke	l	n/a
118.87	0.105	237740	keystroke	t	n/a
119.92	0.09	239840	keystroke	i	n/a
120.295	0.195	240590	keystroke	m	n/a
120.43	0.165	240860	keystroke	o	n/a
120.61	0.195	241220	keystroke	r	n/a
120.715	0.195	241430	keystroke	e	n/a
120.88	0.165	241760	keystroke	Key.space	n/a
121.285	0.105	242570	keystroke	c	n/a
121.495	0.105	242990	keystroke	a	n/a
121.705	0.105	243410	keystroke	r	n/a
122.545	0.12	245090	keystroke	r	n/a
122.8	0.12	245600	keystroke	i	n/a
123.01	0.24	246020	keystroke	e	n/a
123.16	0.135	246320	keystroke	r	n/a
123.31	0.18	246620	keystroke	s	n/a
123.505	0.135	247010	keystroke	Key.space	n/a
123.9995	0.031	247999	keystroke	a	n/a
124.975	0.12	249950	keystroke	f	n/a
125.605	0.09	251210	keystroke	Key.backspace	n/a
125.74	0.12	251480	keystroke	g	n/a
126.01	0.135	252020	keystroke	r	n/a
126.2955	0.09	252591	keystroke	e	n/a
126.4905	0.075	252981	keystroke	e	n/a
126.7455	0.12	253491	keystroke	Key.enter	n/a
126.87	6.9715	253740	prompt	n/a	boards packard hindu submitted\n
127.6	0.09	255200	keystroke	b	n/a
127.8105	0.119	255621	keystroke	o	n/a
127.9905	0.135	255981	keystroke	a	n/a
128.1555	0.105	256311	keystroke	r	n/a
128.3955	0.2095	256791	keystroke	d	n/a
128.56	0.1645	257120	keystroke	s	n/a
128.6795	0.135	257359	keystroke	Key.space	n/a
128.8895	0.105	257779	keystroke	p	n/a
129.0095	0.135	258019	keystroke	a	n/a
129.2195	0.1505	258439	keystroke	c	n/a
129.34	0.12	258680	keystroke	k	n/a
129.52	0.105	259040	keystroke	a	n/a
129.7	0.09	259400	keystroke	r	n/a
129.925	0.165	259850	keystroke	d	n/a
130.075	0.12	260150	keystroke	Key.space	n/a
130.39	0.12	260780	keystroke	h	n/a
130.465	0.165	260930	keystroke	i	n/a
130.69	0.15	261380	keystroke	n	n/a
130.9	0.135	261800	keystroke	d	n/a
131.1405	0.12	262281	keystroke	u	n/a
131.3205	0.12	262641	keystroke	Key.space	n/a
131.5605	0.12	263121	keystroke	s	n/a
131.7405	0.105	263481	keystroke	u	n/a
132.0255	0.119	264051	keystroke	b	n/a
132.6095	0.09	265219	keystroke	m	n/a
132.805	0.105	265610	keystroke	i	n/a
133.03	0.03	266060	keystroke	t	n/a
133.15	0.105	266300	keystroke	t	n/a
133.33	0.09	266660	keystroke	e	n/a
133.54	0.12	267080	keystroke	d	n/a
133.765	0.075	267530	keystroke	Key.enter	n/a
133.845	11.5465	267690	prompt	n/a	involved futures mobility underlying\n
134.5	0.165	269000	keystroke	i	n/a
134.68	0.15	269360	keystroke	n	n/a
134.935	0.15	269870	keystroke	v	n/a
135.13	0.09	270260	keystroke	o	n/a
135.37	0.105	270740	keystroke	l	n/a
135.55	0.135	271100	keystroke	v	n/a
135.805	0.09	271610	keystroke	e	n/a
136.045	0.12	272090	keystroke	d	n/a
136.15	0.12	272300	keystroke	Key.space	n/a
136.495	0.075	272990	keystroke	t	n/a
137.14	0.06	274280	keystroke	Key.backspace	n/a
137.23	0.12	274460	keystroke	f	n/a
137.425	0.15	274850	keystroke	u	n/a
137.725	0.1205	275450	keystroke	t	n/a
137.9055	0.0895	275811	keystroke	u	n/a
137.995	0.165	275990	keystroke	r	n/a
138.13	0.195	276260	keystroke	e	n/a
138.31	0.165	276620	keystroke	s	n/a
138.445	0.135	276890	keystroke	Key.space	n/a
138.79	0.12	277580	keystroke	m	n/a
138.925	0.12	277850	keystroke	o	n/a
139.4805	0.089	278961	keystroke	b	n/a
139.7795	0.09	279559	keystroke	i	n/a
139.9895	0.106	279979	keystroke	l	n/a
140.1705	0.09	280341	keystroke	i	n/a
140.41	0.105	280820	keystroke	t	n/a
140.575	0.105	281150	keystroke	y	n/a
140.8145	0.135	281629	keystroke	Key.space	n/a
141.2195	0.015	282439	keystroke	y	n/a
142	0.0755	284000	keystroke	Key.backspace	n/a
142.3305	0.09	284661	keystroke	u	n/a
142.5405	0.09	285081	keystroke	n	n/a
142.6755	0.1195	285351	keystroke	d	n/a
142.915	0.18	285830	keystroke	e	n/a
142.99	0.18	285980	keystroke	r	n/a
143.6045	0.105	287209	keystroke	l	n/a
144.4	0.015	288800	keystroke	y	n/a
144.58	0.195	289160	keystroke	i	n/a
144.67	0.195	289340	keystroke	n	n/a
144.805	0.195	289610	keystroke	g	n/a
145.315	0.075	290630	keystroke	Key.enter	n/a
145.395	8.5165	290790	prompt	n/a	educational buyers mapping atlanta\n
146.1695	0.106	292339	keystroke	e	n/a
146.4105	0.089	292821	keystroke	d	n/a
146.5455	0.044	293091	keystroke	u	n/a
146.6355	0.12	293271	keystroke	c	n/a
146.8605	0.12	293721	keystroke	a	n/a
147.0105	0.1345	294021	keystroke	t	n/a
147.19	0.21	294380	keystroke	i	n/a
147.265	0.12	294530	keystroke	o	n/a
147.295	0.18	294590	keystroke	n	n/a
147.46	0.12	294920	keystroke	a	n/a
147.595	0.15	295190	keystroke	l	n/a
147.775	0.12	295550	keystroke	Key.space	n/a
148.03	0.105	296060	keystroke	b	n/a
148.33	0.09	296660	keystroke	u	n/a
148.885	0.09	297770	keystroke	y	n/a
149.095	0.27	298190	keystroke	e	n/a
149.215	0.18	298430	keystroke	r	n/a
149.38	0.165	298760	keystroke	s	n/a
149.56	0.165	299120	keystroke	Key.space	n/a
149.89	0.105	299780	keystroke	m	n/a
150.055	0.12	300110	keystroke	a	n/a
150.22	0.0445	300440	keystroke	p	n/a
150.3545	0.09	300709	keystroke	p	n/a
150.595	0.195	301190	keystroke	i	n/a
150.67	0.1955	301340	keystroke	n	n/a
150.745	0.1805	301490	keystroke	g	n/a
150.9105	0.105	301821	keystroke	Key.space	n/a
151.0905	0.12	302181	keystroke	a	n/a
151.2555	0.105	302511	keystroke	l	n/a
152.2755	0.06	304551	keystroke	Key.backspace	n/a
152.4255	0.105	304851	keystroke	t	n/a
152.6505	0.1045	305301	keystroke	l	n/a
152.785	0.12	305570	keystroke	a	n/a
153.01	0.135	306020	keystroke	n	n/a
153.46	0.105	306920	keystroke	t	n/a
153.566	0.149	307132	keystroke	a	n/a
153.835	0.075	307670	keystroke	Key.enter	n/a
153.9165	6.52	307833	prompt	n/a	pads coaching allen demographic\n
154.6895	0.076	309379	keystroke	p	n/a
154.7945	0.136	309589	keystroke	a	n/a
154.9905	0.119	309981	keystroke	d	n/a
155.1705	0.12	310341	keystroke	s	n/a
155.3495	0.1355	310699	keystroke	Key.space	n/a
155.605	0.1205	311210	keystroke	c	n/a
155.7105	0.0895	311421	keystroke	o	n/a
155.905	0.09	311810	keystroke	a	n/a
156.19	0.135	312380	keystroke	c	n/a
156.34	0.12	312680	keystroke	h	n/a
156.505	0.195	313010	keystroke	i	n/a
156.595	0.195	313190	keystroke	n	n/a
156.745	0.165	313490	keystroke	g	n/a
156.85	0.135	313700	keystroke	Key.space	n/a
157	0.1355	314000	keystroke	a	n/a
157.1505	0.075	314301	keystroke	l	n/a
157.3005	0.09	314601	keystroke	l	n/a
157.4355	0.12	314871	keystroke	e	n/a
157.5705	0.1495	315141	keystroke	n	n/a
157.75	0.135	315500	keystroke	Key.space	n/a
157.99	0.09	315980	keystroke	d	n/a
158.2005	0.105	316401	keystroke	e	n/a
158.395	0.1655	316790	keystroke	m	n/a
158.5305	0.12	317061	keystroke	o	n/a
158.8155	0.135	317631	keystroke	g	n/a
158.9805	0.135	317961	keystroke	r	n/a
159.1605	0.12	318321	keystroke	a	n/a
159.2805	0.165	318561	keystroke	p	n/a
159.4305	0.15	318861	keystroke	h	n/a
159.8345	0.12	319669	keystroke	i	n/a
160.1345	0.12	320269	keystroke	c	n/a
160.3895	0.045	320779	keystroke	Key.enter	n/a
160.4395	10.722	320879	prompt	n/a	batman councils modelling broken\n
161.7405	0.105	323481	keystroke	b	n/a
161.8755	0.105	323751	keystroke	a	n/a
162.3855	0.1195	324771	keystroke	t	n/a
162.7455	0.0895	325491	keystroke	m	n/a
162.94	0.12	325880	keystroke	a	n/a
163.09	0.105	326180	keystroke	n	n/a
163.27	0.12	326540	keystroke	Key.space	n/a
163.51	0.135	327020	keystroke	c	n/a
163.78	0.03	327560	keystroke	n	n/a
164.3345	0.195	328669	keystroke	Key.backspace	n/a
164.6045	0.2105	329209	keystroke	o	n/a
164.695	0.135	329390	keystroke	n	n/a
166.315	0.12	332630	keystroke	Key.backspace	n/a
166.7045	0.105	333409	keystroke	u	n/a
166.93	0.12	333860	keystroke	n	n/a
167.29	0.135	334580	keystroke	c	n/a
167.38	0.105	334760	keystroke	i	n/a
167.605	0.105	335210	keystroke	l	n/a
167.83	0.135	335660	keystroke	s	n/a
167.995	0.165	335990	keystroke	Key.space	n/a
168.235	0.21	336470	keystroke	m	n/a
168.4	0.12	336800	keystroke	o	n/a
168.61	0.12	337220	keystroke	d	n/a
168.835	0.105	337670	keystroke	e	n/a
168.985	0.12	337970	keystroke	l	n/a
169.15	0.105	338300	keystroke	l	n/a
169.4045	0.24	338809	keystroke	i	n/a
169.5095	0.18	339019	keystroke	n	n/a
169.5695	0.15	339139	keystroke	g	n/a
169.6905	0.134	339381	keystroke	Key.space	n/a
169.8695	0.121	339739	keystroke	b	n/a
170.02	0.18	340040	keystroke	r	n/a
170.185	0.06	340370	keystroke	o	n/a
170.455	0.075	340910	keystroke	k	n/a
170.77	0.045	341540	keystroke	e	n/a
170.83	0.09	341660	keystroke	n	n/a
171.1155	0.045	342231	keystroke	Key.enter	n/a
171.1655	9.1465	342331	prompt	n/a	prizes cardiff istanbul retain\n
171.8505	0.12	343701	keystroke	p	n/a
172.0605	0.12	344121	keystroke	r	n/a
172.195	0.105	344390	keystroke	i	n/a
172.36	0.15	344720	keystroke	z	n/a
172.555	0.1205	345110	keystroke	e	n/a
172.7945	0.1355	345589	keystroke	s	n/a
172.975	0.1195	345950	keystroke	Key.space	n/a
173.2595	0.1355	346519	keystroke	c	n/a
173.3955	0.149	346791	keystroke	a	n/a
173.6495	0.0905	347299	keystroke	r	n/a
173.89	0.12	347780	keystroke	d	n/a
174.175	0.1045	348350	keystroke	i	n/a
174.385	0.0595	348770	keystroke	f	n/a
174.5345	0.09	349069	keystroke	f	n/a
174.7445	0.15	349489	keystroke	Key.space	n/a
174.9995	0.1355	349999	keystroke	i	n/a
175.1495	0.12	350299	keystroke	n	n/a
175.435	0.0895	350870	keystroke	s	n/a
175.7945	0.135	351589	keystroke	t	n/a
176.0645	0.12	352129	keystroke	a	n/a
176.2445	0.12	352489	keystroke	n	n/a
176.6345	0.135	353269	keystroke	b	n/a
176.755	0.1045	353510	keystroke	u	n/a
176.9955	0.075	353991	keystroke	l	n/a
177.1305	0.09	354261	keystroke	Key.space	n/a
177.5355	0.134	355071	keystroke	r	n/a
177.6245	0.135	355249	keystroke	e	n/a
177.8345	0.1355	355669	keystroke	t	n/a
177.985	0.12	355970	keystroke	i	n/a
178.015	0.135	356030	keystroke	a	n/a
178.645	0.09	357290	keystroke	n	n/a
179.2	0.06	358400	keystroke	Key.backspace	n/a
179.35	0.075	358700	keystroke	Key.backspace	n/a
179.5	0.09	359000	keystroke	Key.backspace	n/a
179.7095	0.1205	359419	keystroke	a	n/a
179.8745	0.195	359749	keystroke	i	n/a
179.98	0.1345	359960	keystroke	n	n/a
180.2495	0.0605	360499	keystroke	Key.enter	n/a
180.3165	12.595	360633	prompt	n/a	bride george haiti qualification\n
181.06	0.105	362120	keystroke	b	n/a
181.24	0.1355	362480	keystroke	r	n/a
181.3905	0.075	362781	keystroke	i	n/a
181.675	0.09	363350	keystroke	d	n/a
182.905	0.12	365810	keystroke	e	n/a
183.31	0.15	366620	keystroke	Key.space	n/a
183.7295	0.075	367459	keystroke	g	n/a
183.9095	0.09	367819	keystroke	e	n/a
184.1655	0.09	368331	keystroke	o	n/a
184.33	0.12	368660	keystroke	r	n/a
184.585	0.12	369170	keystroke	g	n/a
184.72	0.15	369440	keystroke	e	n/a
184.885	0.18	369770	keystroke	Key.space	n/a
185.185	0.12	370370	keystroke	h	n/a
185.32	0.12	370640	keystroke	a	n/a
185.485	0.135	370970	keystroke	i	n/a
185.77	0.105	371540	keystroke	t	n/a
185.92	0.09	371840	keystroke	i	n/a
186.145	0.12	372290	keystroke	Key.space	n/a
186.46	0.1205	372920	keystroke	q	n/a
186.6245	0.076	373249	keystroke	u	n/a
186.8655	0.105	373731	keystroke	l	n/a
187.0745	0.106	374149	keystroke	i	n/a
187.6905	0.0745	375381	keystroke	Key.backspace	n/a
187.825	0.0905	375650	keystroke	Key.backspace	n/a
187.9455	0.105	375891	keystroke	q	n/a
188.7255	0.15	377451	keystroke	Key.backspace	n/a
189.295	0.1055	378590	keystroke	a	n/a
189.5955	0.1045	379191	keystroke	l	n/a
189.865	0.105	379730	keystroke	i	n/a
190.6605	0.1195	381321	keystroke	f	n/a
190.795	0.09	381590	keystroke	i	n/a
190.96	0.135	381920	keystroke	c	n/a
191.155	0.105	382310	keystroke	a	n/a
191.38	0.105	382760	keystroke	t	n/a
191.5	0.225	383000	keystroke	i	n/a
191.575	0.135	383150	keystroke	o	n/a
191.635	0.1645	383270	keystroke	n	n/a
191.7845	0.105	383569	keystroke	s	n/a
192.55	0.075	385100	keystroke	Key.backspace	n/a
192.835	0.0755	385670	keystroke	Key.enter	n/a
192.9145	9.1775	385829	prompt	n/a	northeast western trustees triangle\n
193.8705	0.18	387741	keystroke	n	n/a
194.0055	0.135	388011	keystroke	o	n/a
194.1855	0.135	388371	keystroke	r	n/a
194.3955	0.135	388791	keystroke	t	n/a
194.5455	0.105	389091	keystroke	h	n/a
194.7855	0.135	389571	keystroke	e	n/a
194.9655	0.15	389931	keystroke	a	n/a
195.1605	0.134	390321	keystroke	s	n/a
195.3095	0.165	390619	keystroke	t	n/a
195.5195	0.135	391039	keystroke	Key.space	n/a
195.7445	0.135	391489	keystroke	w	n/a
195.8805	0.209	391761	keystroke	e	n/a
196.0445	0.1655	392089	keystroke	s	n/a
196.2255	0.12	392451	keystroke	t	n/a
196.465	0.09	392930	keystroke	e	n/a
196.57	0.1505	393140	keystroke	r	n/a
196.975	0.12	393950	keystroke	n	n/a
197.215	0.135	394430	keystroke	Key.space	n/a
197.7095	0.1355	395419	keystroke	t	n/a
197.83	0.12	395660	keystroke	h	n/a
197.995	0.18	395990	keystroke	r	n/a
198.16	0.12	396320	keystroke	u	n/a
198.49	0.105	396980	keystroke	s	n/a
198.7605	0.09	397521	keystroke	t	n/a
198.9855	0.09	397971	keystroke	e	n/a
199.3005	0.075	398601	keystroke	e	n/a
199.5555	0.105	399111	keystroke	s	n/a
199.7355	0.15	399471	keystroke	Key.space	n/a
200.0355	0.075	400071	keystroke	t	n/a
200.1855	0.15	400371	keystroke	r	n/a
200.3505	0.105	400701	keystroke	i	n/a
201.0255	0.12	402051	keystroke	a	n/a
201.1605	0.105	402321	keystroke	n	n/a
201.3855	0.12	402771	keystroke	g	n/a
201.6105	0.09	403221	keystroke	l	n/a
201.7455	0.12	403491	keystroke	e	n/a
202.0155	0.0745	404031	keystroke	Key.enter	n/a
202.095	9.777	404190	prompt	n/a	proteins viewing speak prohibited\n
202.99	0.105	405980	keystroke	p	n/a
203.2145	0.165	406429	keystroke	r	n/a
203.425	0.09	406850	keystroke	o	n/a
203.95	0.15	407900	keystroke	t	n/a
204.19	0.075	408380	keystroke	e	n/a
204.67	0.0905	409340	keystroke	i	n/a
204.9705	0.105	409941	keystroke	n	n/a
205.18	0.135	410360	keystroke	s	n/a
205.315	0.135	410630	keystroke	Key.space	n/a
205.675	0.105	411350	keystroke	v	n/a
205.9155	0.09	411831	keystroke	i	n/a
206.2	0.1355	412400	keystroke	e	n/a
206.9055	0.105	413811	keystroke	w	n/a
207.7605	0.2245	415521	keystroke	i	n/a
207.91	0.18	415820	keystroke	n	n/a
208.045	0.165	416090	keystroke	g	n/a
208.18	0.135	416360	keystroke	Key.space	n/a
208.465	0.105	416930	keystroke	s	n/a
208.615	0.12	417230	keystroke	p	n/a
208.75	0.135	417500	keystroke	e	n/a
208.87	0.15	417740	keystroke	a	n/a
209.035	0.135	418070	keystroke	k	n/a
209.215	0.15	418430	keystroke	Key.space	n/a
209.6355	0.09	419271	keystroke	p	n/a
209.7855	0.135	419571	keystroke	r	n/a
209.9055	0.1045	419811	keystroke	o	n/a
210.25	0.15	420500	keystroke	h	n/a
210.385	0.105	420770	keystroke	i	n/a
210.79	0.165	421580	keystroke	b	n/a
210.895	0.12	421790	keystroke	i	n/a
211.09	0.12	422180	keystroke	t	n/a
211.345	0.105	422690	keystroke	e	n/a
211.57	0.12	423140	keystroke	d	n/a
211.81	0.06	423620	keystroke	Key.enter	n/a
211.8755	5.486	423751	prompt	n/a	brave seek digital hired\n
212.62	0.12	425240	keystroke	b	n/a
212.755	0.135	425510	keystroke	r	n/a
212.92	0.1505	425840	keystroke	a	n/a
213.1305	0.195	426261	keystroke	v	n/a
213.2955	0.135	426591	keystroke	e	n/a
213.4005	0.165	426801	keystroke	Key.space	n/a
213.6255	0.105	427251	keystroke	s	n/a
213.8355	0.0745	427671	keystroke	e	n/a
214	0.09	428000	keystroke	e	n/a
214.15	0.12	428300	keystroke	k	n/a
214.3145	0.135	428629	keystroke	Key.space	n/a
214.6295	0.1205	429259	keystroke	d	n/a
214.7045	0.0905	429409	keystroke	i	n/a
214.9295	0.1055	429859	keystroke	g	n/a
215.0645	0.0905	430129	keystroke	i	n/a
215.2005	0.134	430401	keystroke	t	n/a
215.3805	0.104	430761	keystroke	a	n/a
215.4995	0.106	430999	keystroke	l	n/a
215.695	0.105	431390	keystroke	Key.space	n/a
216.19	0.105	432380	keystroke	h	n/a
216.415	0.12	432830	keystroke	i	n/a
216.64	0.121	433280	keystroke	r	n/a
216.85	0.09	433700	keystroke	e	n/a
217.045	0.12	434090	keystroke	d	n/a
217.285	0.075	434570	keystroke	Key.enter	n/a
217.3645	7.8725	434729	prompt	n/a	drives sampling liability surge\n
218.0655	0.12	436131	keystroke	d	n/a
218.2005	0.09	436401	keystroke	i	n/a
218.3805	0.1045	436761	keystroke	r	n/a
218.7255	0.06	437451	keystroke	Key.backspace	n/a
218.8755	0.075	437751	keystroke	Key.backspace	n/a
218.9655	0.12	437931	keystroke	r	n/a
219.1455	0.135	438291	keystroke	i	n/a
219.3705	0.135	438741	keystroke	v	n/a
219.6105	0.105	439221	keystroke	e	n/a
219.805	0.135	439610	keystroke	s	n/a
219.955	0.12	439910	keystroke	Key.space	n/a
220.42	0.1055	440840	keystroke	s	n/a
220.7055	0.135	441411	keystroke	a	n/a
220.8855	0.0895	441771	keystroke	m	n/a
221.14	0.09	442280	keystroke	p	n/a
221.365	0.09	442730	keystroke	l	n/a
221.59	0.165	443180	keystroke	i	n/a
221.665	0.195	443330	keystroke	n	n/a
221.785	0.165	443570	keystroke	g	n/a
221.905	0.12	443810	keystroke	Key.space	n/a
222.16	0.12	444320	keystroke	h	n/a
222.355	0.15	444710	keystroke	i	n/a
222.6105	0.1195	445221	keystroke	a	n/a
222.895	0.12	445790	keystroke	b	n/a
223.1205	0.105	446241	keystroke	i	n/a
223.3605	0.09	446721	keystroke	l	n/a
223.5105	0.09	447021	keystroke	i	n/a
223.6755	0.135	447351	keystroke	t	n/a
223.8255	0.09	447651	keystroke	y	n/a
223.9905	0.089	447981	keystroke	Key.space	n/a
224.2305	0.135	448461	keystroke	s	n/a
224.3505	0.12	448701	keystroke	u	n/a
224.5155	0.135	449031	keystroke	r	n/a
224.7555	0.15	449511	keystroke	g	n/a
224.8605	0.135	449721	keystroke	e	n/a
225.1605	0.075	450321	keystroke	Key.enter	n/a
225.2395	15.567	450479	prompt	n/a	afraid analyzes equipped sons\n
226.1955	0.135	452391	keystroke	a	n/a
226.78	0.105	453560	keystroke	r	n/a
227.4245	0.09	454849	keystroke	Key.backspace	n/a
227.6345	0.09	455269	keystroke	Key.backspace	n/a
228.0255	0.21	456051	keystroke	a	n/a
228.4005	0.15	456801	keystroke	d	n/a
228.7755	0.104	457551	keystroke	r	n/a
229.0455	0.12	458091	keystroke	a	n/a
229.3145	0.136	458629	keystroke	i	n/a
229.5105	0.165	459021	keystroke	d	n/a
229.6595	0.15	459319	keystroke	Key.space	n/a
230.98	0.075	461960	keystroke	Key.backspace	n/a
231.13	0.0905	462260	keystroke	Key.backspace	n/a
231.295	0.075	462590	keystroke	Key.backspace	n/a
231.445	0.09	462890	keystroke	Key.backspace	n/a
231.94	0.09	463880	keystroke	Key.backspace	n/a
232.5255	0.12	465051	keystroke	Key.backspace	n/a
232.7805	0.21	465561	keystroke	f	n/a
233.4105	0.165	466821	keystroke	r	n/a
233.6355	0.165	467271	keystroke	a	n/a
234.1305	0.135	468261	keystroke	i	n/a
234.4905	0.135	468981	keystroke	f	n/a
234.5955	0.165	469191	keystroke	Key.space	n/a
235.0905	0.12	470181	keystroke	a	n/a
235.1955	0.18	470391	keystroke	n	n/a
235.3605	0.135	470721	keystroke	a	n/a
235.5855	0.105	471171	keystroke	l	n/a
235.8705	0.075	471741	keystroke	y	n/a
236.35	0.135	472700	keystroke	z	n/a
236.56	0.12	473120	keystroke	e	n/a
236.8	0.15	473600	keystroke	s	n/a
237.16	0.12	474320	keystroke	Key.space	n/a
237.415	0.15	474830	keystroke	e	n/a
237.895	0.135	475790	keystroke	q	n/a
238.12	0.12	476240	keystroke	u	n/a
238.39	0.09	476780	keystroke	i	n/a
238.661	0.059	477322	keystroke	p	n/a
238.78	0.1055	477560	keystroke	p	n/a
238.96	0.105	477920	keystroke	e	n/a
239.2	0.18	478400	keystroke	d	n/a
239.71	0.135	479420	keystroke	Key.space	n/a
240.025	0.12	480050	keystroke	s	n/a
240.146	0.2095	480292	keystroke	o	n/a
240.3105	0.15	480621	keystroke	n	n/a
240.4905	0.135	480981	keystroke	s	n/a
240.715	0.09	481430	keystroke	Key.enter	n/a
240.8095	7.812	481619	prompt	n/a	consumer maintaining manager jesus\n
241.525	0.1355	483050	keystroke	c	n/a
241.6455	0.18	483291	keystroke	o	n/a
241.7505	0.15	483501	keystroke	n	n/a
241.9155	0.15	483831	keystroke	s	n/a
242.0805	0.075	484161	keystroke	u	n/a
242.2905	0.12	484581	keystroke	m	n/a
242.3955	0.27	484791	keystroke	e	n/a
242.5605	0.18	485121	keystroke	r	n/a
242.7255	0.15	485451	keystroke	Key.space	n/a
242.995	0.09	485990	keystroke	m	n/a
243.145	0.135	486290	keystroke	a	n/a
243.43	0.105	486860	keystroke	i	n/a
243.61	0.12	487220	keystroke	n	n/a
243.895	0.15	487790	keystroke	t	n/a
244.09	0.135	488180	keystroke	a	n/a
244.33	0.15	488660	keystroke	i	n/a
244.42	0.12	488840	keystroke	n	n/a
244.7055	0.165	489411	keystroke	i	n/a
244.7495	0.181	489499	keystroke	n	n/a
244.9155	0.135	489831	keystroke	g	n/a
245.0195	0.12	490039	keystroke	Key.space	n/a
245.2	0.075	490400	keystroke	m	n/a
245.35	0.105	490700	keystroke	a	n/a
245.456	0.104	490912	keystroke	n	n/a
245.651	0.074	491302	keystroke	a	n/a
245.7855	0.119	491571	keystroke	g	n/a
245.9955	0.1795	491991	keystroke	e	n/a
246.115	0.165	492230	keystroke	r	n/a
246.265	0.135	492530	keystroke	Key.space	n/a
246.4895	0.09	492979	keystroke	j	n/a
246.7	0.18	493400	keystroke	e	n/a
247.2705	0.15	494541	keystroke	s	n/a
247.5255	0.12	495051	keystroke	u	n/a
247.7055	0.12	495411	keystroke	e	n/a
248.2155	0.09	496431	keystroke	Key.backspace	n/a
248.3205	0.1345	496641	keystroke	s	n/a
248.515	0.105	497030	keystroke	Key.enter	n/a
248.6255	9.4915	497251	prompt	n/a	singapore flat newest payments\n
249.3845	0.151	498769	keystroke	s	n/a
249.5655	0.12	499131	keystroke	i	n/a
249.73	0.12	499460	keystroke	n	n/a
249.955	0.12	499910	keystroke	g	n/a
250.18	0.105	500360	keystroke	a	n/a
250.405	0.09	500810	keystroke	p	n/a
250.585	0.15	501170	keystroke	o	n/a
250.7655	0.1645	501531	keystroke	r	n/a
250.8855	0.1495	501771	keystroke	e	n/a
251.65	0.135	503300	keystroke	Key.space	n/a
252.055	0.151	504110	keystroke	f	n/a
252.16	0.135	504320	keystroke	l	n/a
252.6855	0.09	505371	keystroke	a	n/a
252.8355	0.1795	505671	keystroke	t	n/a
253.075	0.135	506150	keystroke	Key.space	n/a
253.48	0.12	506960	keystroke	n	n/a
253.615	0.18	507230	keystroke	e	n/a
253.69	0.1655	507380	keystroke	w	n/a
254.2305	0.15	508461	keystroke	e	n/a
254.3955	0.135	508791	keystroke	s	n/a
254.5905	0.1645	509181	keystroke	t	n/a
255.145	0.1655	510290	keystroke	Key.space	n/a
255.3705	0.12	510741	keystroke	p	n/a
255.5355	0.105	511071	keystroke	a	n/a
255.7155	0.075	511431	keystroke	y	n/a
256.0155	0.09	512031	keystroke	m	n/a
256.4955	0.119	512991	keystroke	e	n/a
256.7355	0.12	513471	keystroke	n	n/a
257.0655	0.15	514131	keystroke	t	n/a
257.7105	0.195	515421	keystroke	s	n/a
258.0255	0.09	516051	keystroke	Key.enter	n/a
258.12	8.412	516240	prompt	n/a	deep spirits tires andrew\n
258.9855	0.105	517971	keystroke	d	n/a
259.2105	0.06	518421	keystroke	e	n/a
259.375	0.105	518750	keystroke	e	n/a
259.51	0.12	519020	keystroke	p	n/a
259.675	0.135	519350	keystroke	Key.space	n/a
260.14	0.15	520280	keystroke	s	n/a
260.65	0.105	521300	keystroke	p	n/a
260.89	0.09	521780	keystroke	i	n/a
261.145	0.3005	522290	keystroke	r	n/a
261.61	0.15	523220	keystroke	i	n/a
261.85	0.165	523700	keystroke	t	n/a
262.705	0.135	525410	keystroke	s	n/a
262.915	0.15	525830	keystroke	Key.space	n/a
263.335	0.105	526670	keystroke	t	n/a
263.515	0.12	527030	keystroke	i	n/a
263.71	0.1355	527420	keystroke	r	n/a
263.8305	0.135	527661	keystroke	e	n/a
264.0855	0.15	528171	keystroke	s	n/a
264.2205	0.15	528441	keystroke	Key.space	n/a
264.5205	0.075	529041	keystroke	a	n/a
265.0755	0.12	530151	keystroke	n	n/a
265.3755	0.12	530751	keystroke	d	n/a
265.7055	0.12	531411	keystroke	r	n/a
265.8855	0.135	531771	keystroke	e	n/a
266.2	0.12	532400	keystroke	w	n/a
266.4405	0.09	532881	keystroke	Key.enter	n/a
266.5345	6.9875	533069	prompt	n/a	devices davis campaign nathan\n
267.1305	0.105	534261	keystroke	d	n/a
267.3405	0.09	534681	keystroke	e	n/a
267.6255	0.12	535251	keystroke	v	n/a
267.7895	0.076	535579	keystroke	i	n/a
268.0005	0.105	536001	keystroke	c	n/a
268.1355	0.15	536271	keystroke	e	n/a
268.3305	0.135	536661	keystroke	s	n/a
268.4945	0.136	536989	keystroke	Key.space	n/a
268.9305	0.09	537861	keystroke	d	n/a
269.1255	0.119	538251	keystroke	a	n/a
269.4705	0.104	538941	keystroke	v	n/a
269.6655	0.09	539331	keystroke	i	n/a
269.8155	0.135	539631	keystroke	s	n/a
269.9195	0.181	539839	keystroke	Key.space	n/a
270.265	0.135	540530	keystroke	c	n/a
270.415	0.121	540830	keystroke	a	n/a
270.551	0.135	541102	keystroke	m	n/a
270.7	0.1355	541400	keystroke	p	n/a
270.8655	0.12	541731	keystroke	a	n/a
271.0005	0.105	542001	keystroke	i	n/a
271.1805	0.12	542361	keystroke	g	n/a
271.39	0.135	542780	keystroke	n	n/a
271.57	0.15	543140	keystroke	Key.space	n/a
271.795	0.06	543590	keystroke	n	n/a
271.901	0.12	543802	keystroke	a	n/a
272.23	0.105	544460	keystroke	t	n/a
272.365	0.121	544730	keystroke	h	n/a
272.755	0.135	545510	keystroke	a	n/a
272.98	0.1055	545960	keystroke	n	n/a
273.4605	0.06	546921	keystroke	Key.enter	n/a
273.527	13.465	547054	prompt	n/a	strengths basename equally bullet\n
274.4355	0.0595	548871	keystroke	s	n/a
274.615	0.121	549230	keystroke	t	n/a
274.87	0.1355	549740	keystroke	r	n/a
275.0655	0.135	550131	keystroke	e	n/a
275.2605	0.135	550521	keystroke	n	n/a
275.5005	0.105	551001	keystroke	g	n/a
275.8155	0.105	551631	keystroke	t	n/a
275.9355	0.12	551871	keystroke	h	n/a
276.2055	0.15	552411	keystroke	s	n/a
276.3855	0.165	552771	keystroke	Key.space	n/a
276.8805	0.105	553761	keystroke	b	n/a
277.06	0.135	554120	keystroke	a	n/a
277.225	0.165	554450	keystroke	s	n/a
277.375	0.165	554750	keystroke	e	n/a
277.81	0.135	555620	keystroke	n	n/a
278.065	0.15	556130	keystroke	a	n/a
278.2	0.12	556400	keystroke	m	n/a
278.335	0.135	556670	keystroke	e	n/a
278.455	0.135	556910	keystroke	Key.space	n/a
278.8305	0.075	557661	keystroke	q	n/a
280.4505	0.15	560901	keystroke	u	n/a
281.23	0.075	562460	keystroke	Key.backspace	n/a
282.0395	0.09	564079	keystroke	Key.backspace	n/a
283.0605	0.12	566121	keystroke	e	n/a
283.3605	0.12	566721	keystroke	q	n/a
283.6455	0.135	567291	keystroke	u	n/a
284.261	0.119	568522	keystroke	a	n/a
284.5	0.0755	569000	keystroke	l	n/a
284.6205	0.1195	569241	keystroke	l	n/a
284.785	0.135	569570	keystroke	y	n/a
284.965	0.135	569930	keystroke	Key.space	n/a
285.325	0.166	570650	keystroke	b	n/a
285.521	0.089	571042	keystroke	u	n/a
285.7455	0.075	571491	keystroke	l	n/a
285.8805	0.09	571761	keystroke	l	n/a
286.0905	0.075	572181	keystroke	t	n/a
286.4355	0.075	572871	keystroke	Key.backspace	n/a
286.5255	0.1645	573051	keystroke	e	n/a
286.6605	0.1195	573321	keystroke	t	n/a
286.93	0.06	573860	keystroke	Key.enter	n/a
286.995	7.497	573990	prompt	n/a	streaming amount basement sure\n
287.6655	0.135	575331	keystroke	s	n/a
287.8905	0.134	575781	keystroke	t	n/a
288.1455	0.15	576291	keystroke	r	n/a
288.2495	0.1805	576499	keystroke	e	n/a
288.3855	0.149	576771	keystroke	a	n/a
288.5505	0.075	577101	keystroke	m	n/a
288.7455	0.2245	577491	keystroke	i	n/a
288.8505	0.2095	577701	keystroke	n	n/a
288.9255	0.1805	577851	keystroke	g	n/a
289.045	0.15	578090	keystroke	Key.space	n/a
289.36	0.09	578720	keystroke	m	n/a
289.495	0.105	578990	keystroke	a	n/a
290.395	0.075	580790	keystroke	Key.backspace	n/a
290.53	0.09	581060	keystroke	Key.backspace	n/a
290.74	0.12	581480	keystroke	a	n/a
290.9055	0.135	581811	keystroke	m	n/a
291.0555	0.2545	582111	keystroke	o	n/a
291.1605	0.1945	582321	keystroke	u	n/a
291.25	0.18	582500	keystroke	n	n/a
291.415	0.1355	582830	keystroke	t	n/a
292.015	0.15	584030	keystroke	Key.space	n/a
292.496	0.12	584992	keystroke	b	n/a
292.631	0.1195	585262	keystroke	a	n/a
292.7355	0.195	585471	keystroke	s	n/a
292.8855	0.135	585771	keystroke	e	n/a
293.11	0.075	586220	keystroke	m	n/a
293.2	0.136	586400	keystroke	e	n/a
293.306	0.134	586612	keystroke	n	n/a
293.425	0.136	586850	keystroke	t	n/a
293.53	0.15	587060	keystroke	Key.space	n/a
293.755	0.15	587510	keystroke	s	n/a
293.95	0.06	587900	keystroke	u	n/a
294.0855	0.1645	588171	keystroke	r	n/a
294.1905	0.1645	588381	keystroke	e	n/a
294.43	0.06	588860	keystroke	Key.enter	n/a
294.495	8.7425	588990	prompt	n/a	landscapes remainder planning reprints\n
295.3755	0.105	590751	keystroke	l	n/a
295.4955	0.12	590991	keystroke	a	n/a
295.6605	0.12	591321	keystroke	n	n/a
295.8105	0.135	591621	keystroke	d	n/a
296.0205	0.1195	592041	keystroke	s	n/a
296.35	0.12	592700	keystroke	c	n/a
296.575	0.09	593150	keystroke	a	n/a
296.83	0.105	593660	keystroke	p	n/a
297.025	0.09	594050	keystroke	e	n/a
297.205	0.15	594410	keystroke	s	n/a
297.37	0.135	594740	keystroke	Key.space	n/a
297.745	0.135	595490	keystroke	r	n/a
297.805	0.195	595610	keystroke	e	n/a
298.1205	0.105	596241	keystroke	m	n/a
298.3605	0.12	596721	keystroke	a	n/a
298.6455	0.15	597291	keystroke	i	n/a
298.7505	0.1345	597501	keystroke	n	n/a
299.08	0.12	598160	keystroke	d	n/a
299.32	0.18	598640	keystroke	e	n/a
299.425	0.15	598850	keystroke	r	n/a
299.635	0.135	599270	keystroke	Key.space	n/a
299.845	0.09	599690	keystroke	p	n/a
300.04	0.105	600080	keystroke	l	n/a
300.205	0.135	600410	keystroke	a	n/a
300.4	0.075	600800	keystroke	n	n/a
300.551	0.074	601102	keystroke	n	n/a
300.745	0.1955	601490	keystroke	i	n/a
300.835	0.2105	601670	keystroke	n	n/a
300.9705	0.15	601941	keystroke	g	n/a
301.0605	0.165	602121	keystroke	Key.space	n/a
301.5105	0.1645	603021	keystroke	r	n/a
301.615	0.165	603230	keystroke	e	n/a
301.855	0.12	603710	keystroke	p	n/a
302.065	0.135	604130	keystroke	r	n/a
302.245	0.1805	604490	keystroke	i	n/a
302.32	0.1805	604640	keystroke	n	n/a
302.4405	0.165	604881	keystroke	t	n/a
302.921	0.105	605842	keystroke	s	n/a
303.1755	0.06	606351	keystroke	Key.enter	n/a
303.2405	12.8665	606481	prompt	n/a	nirvana third what's buffalo\n
303.9255	0.12	607851	keystroke	n	n/a
304.136	0.1345	608272	keystroke	i	n/a
304.4205	0.135	608841	keystroke	v	n/a
304.9305	0.06	609861	keystroke	Key.backspace	n/a
305.0205	0.165	610041	keystroke	r	n/a
306.0255	0.135	612051	keystroke	v	n/a
306.2055	0.12	612411	keystroke	a	n/a
306.3855	0.12	612771	keystroke	n	n/a
306.5655	0.1195	613131	keystroke	a	n/a
306.6555	0.1345	613311	keystroke	Key.space	n/a
306.97	0.12	613940	keystroke	t	n/a
307.045	0.135	614090	keystroke	h	n/a
307.21	0.12	614420	keystroke	i	n/a
307.255	0.12	614510	keystroke	r	n/a
308.02	0.1205	616040	keystroke	d	n/a
308.0655	0.18	616131	keystroke	Key.space	n/a
308.635	0.135	617270	keystroke	w	n/a
308.755	0.12	617510	keystroke	a	n/a
309.251	0.104	618502	keystroke	h	n/a
309.565	0.09	619130	keystroke	Key.backspace	n/a
309.7	0.09	619400	keystroke	Key.backspace	n/a
309.955	0.12	619910	keystroke	h	n/a
310.09	0.091	620180	keystroke	a	n/a
310.166	0.149	620332	keystroke	t	n/a
310.405	0.165	620810	keystroke	s	n/a
310.6	0.1205	621200	keystroke	'	n/a
310.8555	0.105	621711	keystroke	Key.space	n/a
311.485	0.06	622970	keystroke	Key.backspace	n/a
311.62	0.21	623240	keystroke	Key.backspace	n/a
312.0855	0.06	624171	keystroke	Key.backspace	n/a
312.745	0.105	625490	keystroke	'	n/a
312.865	0.12	625730	keystroke	s	n/a
312.925	0.15	625850	keystroke	Key.space	n/a
313.225	0.1205	626450	keystroke	b	n/a
313.72	0.135	627440	keystroke	u	n/a
314.08	0.09	628160	keystroke	f	n/a
314.231	0.1345	628462	keystroke	f	n/a
315.251	0.135	630502	keystroke	a	n/a
315.566	0.075	631132	keystroke	l	n/a
315.7605	0.075	631521	keystroke	o	n/a
316.0305	0.075	632061	keystroke	Key.enter	n/a
316.11	10.1965	632220	prompt	n/a	clearing mentor sunday podcast\n
316.9905	0.12	633981	keystroke	c	n/a
317.2455	0.105	634491	keystroke	l	n/a
317.4405	0.15	634881	keystroke	e	n/a
317.5305	0.15	635061	keystroke	a	n/a
317.6805	0.135	635361	keystroke	r	n/a
317.9205	0.105	635841	keystroke	n	n/a
318.3405	0.075	636681	keystroke	Key.backspace	n/a
318.6255	0.225	637251	keystroke	i	n/a
318.6855	0.21	637371	keystroke	n	n/a
318.8205	0.165	637641	keystroke	g	n/a
318.9255	0.18	637851	keystroke	Key.space	n/a
319.1505	0.1045	638301	keystroke	m	n/a
319.3	0.105	638600	keystroke	e	n/a
319.87	0.016	639740	keystroke	t	n/a
320.335	0.075	640670	keystroke	Key.backspace	n/a
320.635	0.105	641270	keystroke	n	n/a
320.77	0.15	641540	keystroke	t	n/a
320.905	0.12	641810	keystroke	o	n/a
321.04	0.195	642080	keystroke	r	n/a
321.355	0.18	642710	keystroke	Key.space	n/a
321.835	0.165	643670	keystroke	s	n/a
321.985	0.12	643970	keystroke	u	n/a
322.165	0.12	644330	keystroke	n	n/a
322.315	0.18	644630	keystroke	d	n/a
322.48	0.195	644960	keystroke	a	n/a
322.646	0.149	645292	keystroke	y	n/a
323.3205	0.18	646641	keystroke	Key.space	n/a
323.8305	0.135	647661	keystroke	p	n/a
324.3705	0.15	648741	keystroke	o	n/a
324.6555	0.2245	649311	keystroke	d	n/a
325.495	0.12	650990	keystroke	c	n/a
325.585	0.105	651170	keystroke	a	n/a
325.675	0.165	651350	keystroke	s	n/a
325.975	0.09	651950	keystroke	t	n/a
326.23	0.075	652460	keystroke	Key.enter	n/a
326.311	8.621	652622	prompt	n/a	athens party javascript stronger\n
326.995	0.135	653990	keystroke	a	n/a
327.34	0.105	654680	keystroke	t	n/a
327.43	0.135	654860	keystroke	h	n/a
327.58	0.15	655160	keystroke	e	n/a
327.745	0.12	655490	keystroke	n	n/a
327.895	0.15	655790	keystroke	s	n/a
328.075	0.165	656150	keystroke	Key.space	n/a
328.315	0.1205	656630	keystroke	p	n/a
328.465	0.165	656930	keystroke	a	n/a
328.6455	0.135	657291	keystroke	r	n/a
328.8555	0.135	657711	keystroke	t	n/a
329.0355	0.12	658071	keystroke	y	n/a
329.2155	0.15	658431	keystroke	Key.space	n/a
330.295	0.12	660590	keystroke	j	n/a
330.461	0.119	660922	keystroke	a	n/a
330.7305	0.165	661461	keystroke	v	n/a
330.9105	0.075	661821	keystroke	a	n/a
331.1805	0.09	662361	keystroke	s	n/a
331.5255	0.12	663051	keystroke	c	n/a
331.7655	0.075	663531	keystroke	r	n/a
332.0205	0.09	664041	keystroke	i	n/a
332.2305	0.105	664461	keystroke	p	n/a
332.5305	0.165	665061	keystroke	t	n/a
332.905	0.12	665810	keystroke	Key.space	n/a
333.1605	0.075	666321	keystroke	s	n/a
333.3705	0.135	666741	keystroke	t	n/a
333.6405	0.18	667281	keystroke	r	n/a
333.8355	0.1345	667671	keystroke	o	n/a
333.8805	0.1945	667761	keystroke	n	n/a
334.375	0.075	668750	keystroke	g	n/a
334.54	0.15	669080	keystroke	e	n/a
334.645	0.12	669290	keystroke	r	n/a
334.885	0.045	669770	keystroke	Key.enter	n/a
334.935	6.2065	669870	prompt	n/a	civic invention bill exposed\n
335.8905	0.1795	671781	keystroke	c	n/a
336.0555	0.09	672111	keystroke	i	n/a
336.22	0.105	672440	keystroke	v	n/a
336.34	0.0905	672680	keystroke	i	n/a
336.5505	0.1505	673101	keystroke	c	n/a
336.746	0.135	673492	keystroke	Key.space	n/a
337.0005	0.135	674001	keystroke	i	n/a
337.0905	0.15	674181	keystroke	n	n/a
337.315	0.105	674630	keystroke	v	n/a
337.496	0.134	674992	keystroke	e	n/a
337.615	0.106	675230	keystroke	n	n/a
337.766	0.149	675532	keystroke	t	n/a
337.96	0.1805	675920	keystroke	i	n/a
337.99	0.1655	675980	keystroke	o	n/a
338.05	0.1955	676100	keystroke	n	n/a
338.2005	0.1345	676401	keystroke	Key.space	n/a
338.425	0.06	676850	keystroke	b	n/a
338.575	0.09	677150	keystroke	i	n/a
338.815	0.075	677630	keystroke	l	n/a
338.98	0.075	677960	keystroke	l	n/a
339.1	0.15	678200	keystroke	Key.space	n/a
339.73	0.075	679460	keystroke	e	n/a
339.9105	0.15	679821	keystroke	x	n/a
340.0305	0.075	680061	keystroke	p	n/a
340.2405	0.09	680481	keystroke	o	n/a
340.3905	0.225	680781	keystroke	s	n/a
340.5855	0.105	681171	keystroke	e	n/a
340.8105	0.12	681621	keystroke	d	n/a
341.0805	0.06	682161	keystroke	Key.enter	n/a
341.145	7.767	682290	prompt	n/a	nation galleries issn wifi\n
341.8905	0.135	683781	keystroke	n	n/a
342.0105	0.12	684021	keystroke	a	n/a
342.2355	0.09	684471	keystroke	t	n/a
342.4155	0.2395	684831	keystroke	i	n/a
342.445	0.18	684890	keystroke	o	n/a
342.52	0.195	685040	keystroke	n	n/a
342.716	0.134	685432	keystroke	Key.space	n/a
343.7655	0.1195	687531	keystroke	g	n/a
343.945	0.18	687890	keystroke	a	n/a
344.215	0.06	688430	keystroke	l	n/a
344.38	0.09	688760	keystroke	l	n/a
344.605	0.1505	689210	keystroke	e	n/a
344.7405	0.135	689481	keystroke	r	n/a
344.9805	0.075	689961	keystroke	i	n/a
345.0855	0.1495	690171	keystroke	e	n/a
345.19	0.18	690380	keystroke	s	n/a
345.355	0.15	690710	keystroke	Key.space	n/a
345.685	0.09	691370	keystroke	i	n/a
345.97	0.075	691940	keystroke	s	n/a
346.15	0.105	692300	keystroke	s	n/a
346.315	0.105	692630	keystroke	n	n/a
346.51	0.1355	693020	keystroke	Key.space	n/a
347.156	0.09	694312	keystroke	i	n/a
347.246	0.1945	694492	keystroke	w	n/a
347.7705	0.045	695541	keystroke	Key.backspace	n/a
347.9655	0.015	695931	keystroke	Key.backspace	n/a
347.9955	0.1205	695991	keystroke	w	n/a
348.161	0.09	696322	keystroke	i	n/a
348.326	0.12	696652	keystroke	f	n/a
348.521	0.075	697042	keystroke	i	n/a
348.881	0.03	697762	keystroke	Key.enter	n/a
348.9155	9.3115	697831	prompt	n/a	targeted mightn't hugo click\n
349.735	0.105	699470	keystroke	t	n/a
349.855	0.165	699710	keystroke	a	n/a
349.99	0.105	699980	keystroke	r	n/a
350.215	0.12	700430	keystroke	g	n/a
350.305	0.15	700610	keystroke	e	n/a
350.53	0.1355	701060	keystroke	t	n/a
350.7555	0.105	701511	keystroke	e	n/a
350.9805	0.12	701961	keystroke	d	n/a
351.0705	0.165	702141	keystroke	Key.space	n/a
351.4755	0.06	702951	keystroke	n	n/a
351.7155	0.15	703431	keystroke	i	n/a
352.015	0.135	704030	keystroke	g	n/a
352.21	0.12	704420	keystroke	h	n/a
353.1705	0.1195	706341	keystroke	t	n/a
354.146	0.105	708292	keystroke	n	n/a
354.43	0.121	708860	keystroke	'	n/a
354.851	0.165	709702	keystroke	t	n/a
355.421	0.12	710842	keystroke	Key.space	n/a
355.856	0.18	711712	keystroke	h	n/a
356.006	0.135	712012	keystroke	u	n/a
356.246	0.165	712492	keystroke	g	n/a
356.426	0.12	712852	keystroke	o	n/a
356.741	0.149	713482	keystroke	Key.space	n/a
357.086	0.195	714172	keystroke	c	n/a
357.206	0.089	714412	keystroke	l	n/a
357.401	0.1045	714802	keystroke	i	n/a
357.5655	0.15	715131	keystroke	c	n/a
357.8055	0.105	715611	keystroke	k	n/a
358.1505	0.075	716301	keystroke	Key.enter	n/a
358.23	8.7875	716460	prompt	n/a	standing rendering cliff texts\n
359.036	0.105	718072	keystroke	s	n/a
359.26	0.135	718520	keystroke	t	n/a
359.426	0.134	718852	keystroke	a	n/a
359.935	0.105	719870	keystroke	n	n/a
360.1605	0.105	720321	keystroke	d	n/a
360.3105	0.225	720621	keystroke	i	n/a
360.4005	0.195	720801	keystroke	n	n/a
360.4755	0.195	720951	keystroke	g	n/a
360.5805	0.15	721161	keystroke	Key.space	n/a
360.8655	0.15	721731	keystroke	r	n/a
360.9405	0.15	721881	keystroke	e	n/a
361.8555	0.1045	723711	keystroke	n	n/a
362.11	0.0905	724220	keystroke	d	n/a
362.365	0.15	724730	keystroke	e	n/a
362.53	0.12	725060	keystroke	r	n/a
362.7555	0.195	725511	keystroke	i	n/a
362.8605	0.195	725721	keystroke	n	n/a
362.9655	0.1955	725931	keystroke	g	n/a
363.1305	0.1505	726261	keystroke	Key.space	n/a
363.416	0.135	726832	keystroke	c	n/a
363.521	0.09	727042	keystroke	l	n/a
363.716	0.12	727432	keystroke	i	n/a
363.986	0.06	727972	keystroke	f	n/a
364.136	0.12	728272	keystroke	f	n/a
364.361	0.134	728722	keystroke	Key.space	n/a
364.796	0.075	729592	keystroke	e	n/a
365.036	0.06	730072	keystroke	t	n/a
365.351	0.075	730702	keystroke	Key.backspace	n/a
365.4855	0.1055	730971	keystroke	Key.backspace	n/a
365.62	0.18	731240	keystroke	t	n/a
365.755	0.165	731510	keystroke	e	n/a
366.115	0.0905	732230	keystroke	x	n/a
366.3405	0.12	732681	keystroke	t	n/a
366.6105	0.1045	733221	keystroke	s	n/a
366.955	0.06	733910	keystroke	Key.enter	n/a
367.024	15.983	734048	prompt	n/a	tolerance adjustable satisfied positioning\n
368.0955	0.135	736191	keystroke	t	n/a
368.2455	0.1205	736491	keystroke	o	n/a
368.8005	0.12	737601	keystroke	l	n/a
369.1305	0.18	738261	keystroke	e	n/a
369.2955	0.165	738591	keystroke	r	n/a
369.5205	0.165	739041	keystroke	a	n/a
369.6555	0.15	739311	keystroke	n	n/a
369.8205	0.15	739641	keystroke	c	n/a
369.9105	0.165	739821	keystroke	e	n/a
370.0605	0.15	740121	keystroke	Key.space	n/a
370.3905	0.15	740781	keystroke	a	n/a
371.291	0.135	742582	keystroke	d	n/a
371.831	0.15	743662	keystroke	j	n/a
372.131	0.135	744262	keystroke	u	n/a
372.491	0.105	744982	keystroke	s	n/a
372.7155	0.09	745431	keystroke	t	n/a
372.8655	0.09	745731	keystroke	i	n/a
373.4955	0.075	746991	keystroke	Key.backspace	n/a
373.5855	0.12	747171	keystroke	a	n/a
373.7955	0.135	747591	keystroke	b	n/a
373.9455	0.135	747891	keystroke	l	n/a
374.0955	0.135	748191	keystroke	e	n/a
374.1705	0.15	748341	keystroke	Key.space	n/a
374.4255	0.09	748851	keystroke	s	n/a
374.6655	0.12	749331	keystroke	t	n/a
375.2205	0.09	750441	keystroke	Key.backspace	n/a
375.3855	0.0895	750771	keystroke	Key.backspace	n/a
375.895	0.15	751790	keystroke	s	n/a
376.135	0.15	752270	keystroke	a	n/a
376.586	0.12	753172	keystroke	t	n/a
376.736	0.135	753472	keystroke	i	n/a
376.976	0.12	753952	keystroke	f	n/a
377.786	0.165	755572	keystroke	s	n/a
378.461	0.18	756922	keystroke	f	n/a
378.716	0.09	757432	keystroke	i	n/a
378.8655	0.075	757731	keystroke	e	n/a
379.0605	0.15	758121	keystroke	d	n/a
379.2405	0.18	758481	keystroke	Key.space	n/a
379.7805	0.105	759561	keystroke	p	n/a
380.0655	0.105	760131	keystroke	o	n/a
380.7255	0.135	761451	keystroke	s	n/a
380.9205	0.105	761841	keystroke	i	n/a
381.941	0.1495	763882	keystroke	t	n/a
382.0905	0.2705	764181	keystroke	i	n/a
382.196	0.1045	764392	keystroke	o	n/a
382.2405	0.1505	764481	keystroke	n	n/a
382.511	0.2095	765022	keystroke	i	n/a
382.586	0.1795	765172	keystroke	n	n/a
382.736	0.12	765472	keystroke	g	n/a
382.9305	0.075	765861	keystroke	Key.enter	n/a
383.01	7.8125	766020	prompt	n/a	establish viral cruise completing\n
383.8305	0.105	767661	keystroke	e	n/a
384.0405	0.12	768081	keystroke	s	n/a
384.3555	0.15	768711	keystroke	t	n/a
384.5205	0.105	769041	keystroke	a	n/a
384.7755	0.12	769551	keystroke	b	n/a
384.9715	0.089	769943	keystroke	l	n/a
385.1505	0.09	770301	keystroke	i	n/a
385.2705	0.15	770541	keystroke	s	n/a
385.4355	0.12	770871	keystroke	h	n/a
385.571	0.15	771142	keystroke	Key.space	n/a
385.916	0.2095	771832	keystroke	v	n/a
386.1105	0.12	772221	keystroke	i	n/a
386.4705	0.12	772941	keystroke	r	n/a
386.771	0.12	773542	keystroke	a	n/a
386.996	0.105	773992	keystroke	l	n/a
387.161	0.105	774322	keystroke	Key.space	n/a
387.371	0.135	774742	keystroke	c	n/a
387.671	0.165	775342	keystroke	r	n/a
387.971	0.09	775942	keystroke	u	n/a
388.241	0.0745	776482	keystroke	i	n/a
388.451	0.1495	776902	keystroke	s	n/a
388.6605	0.12	777321	keystroke	e	n/a
388.7205	0.15	777441	keystroke	Key.space	n/a
388.9905	0.135	777981	keystroke	c	n/a
389.1405	0.18	778281	keystroke	o	n/a
389.2605	0.165	778521	keystroke	m	n/a
389.4855	0.105	778971	keystroke	p	n/a
389.7105	0.105	779421	keystroke	l	n/a
389.8755	0.105	779751	keystroke	e	n/a
390.0855	0.09	780171	keystroke	t	n/a
390.2505	0.18	780501	keystroke	i	n/a
390.3105	0.166	780621	keystroke	n	n/a
390.4905	0.105	780981	keystroke	g	n/a
390.746	0.075	781492	keystroke	Key.enter	n/a
390.825	15.4175	781650	prompt	n/a	emergency incorporated cord utah\n
391.5405	0.12	783081	keystroke	e	n/a
391.781	0.105	783562	keystroke	m	n/a
391.961	0.12	783922	keystroke	e	n/a
392.3205	0.12	784641	keystroke	r	n/a
393.191	0.09	786382	keystroke	g	n/a
393.371	0.09	786742	keystroke	e	n/a
393.506	0.12	787012	keystroke	n	n/a
393.671	0.165	787342	keystroke	c	n/a
393.821	0.09	787642	keystroke	y	n/a
394.0155	0.12	788031	keystroke	Key.space	n/a
394.2105	0.12	788421	keystroke	i	n/a
394.4355	0.1055	788871	keystroke	n	n/a
394.856	0.105	789712	keystroke	c	n/a
394.976	0.105	789952	keystroke	o	n/a
395.186	0.12	790372	keystroke	r	n/a
395.471	0.09	790942	keystroke	p	n/a
395.711	0.105	791422	keystroke	o	n/a
395.891	0.195	791782	keystroke	r	n/a
396.056	0.195	792112	keystroke	t	n/a
396.221	0.15	792442	keystroke	e	n/a
396.461	0.21	792922	keystroke	d	n/a
396.641	0.1495	793282	keystroke	Key.space	n/a
400.648	0.001	801296	keystroke	Key.backspace	n/a
400.795	0.076	801590	keystroke	Key.backspace	n/a
401.005	0.075	802010	keystroke	Key.backspace	n/a
401.185	0.106	802370	keystroke	Key.backspace	n/a
401.471	0.18	802942	keystroke	a	n/a
401.816	0.044	803632	keystroke	Key.backspace	n/a
401.951	0.075	803902	keystroke	Key.backspace	n/a
402.086	0.15	804172	keystroke	a	n/a
402.326	0.1345	804652	keystroke	t	n/a
402.5205	0.075	805041	keystroke	e	n/a
403.0455	0.165	806091	keystroke	d	n/a
403.3455	0.15	806691	keystroke	Key.space	n/a
403.6605	0.135	807321	keystroke	c	n/a
403.7965	0.104	807593	keystroke	o	n/a
403.9905	0.105	807981	keystroke	r	n/a
404.261	0.18	808522	keystroke	d	n/a
404.456	0.135	808912	keystroke	Key.space	n/a
405.041	0.135	810082	keystroke	u	n/a
405.326	0.105	810652	keystroke	t	n/a
405.551	0.15	811102	keystroke	a	n/a
405.881	0.075	811762	keystroke	h	n/a
406.166	0.075	812332	keystroke	Key.enter	n/a
406.2475	7.825	812495	prompt	n/a	efforts ballet rotary regarding\n
407.0065	0.134	814013	keystroke	e	n/a
407.2755	0.075	814551	keystroke	f	n/a
407.4255	0.151	814851	keystroke	f	n/a
407.8015	0.1045	815603	keystroke	o	n/a
407.936	0.105	815872	keystroke	r	n/a
408.146	0.1345	816292	keystroke	t	n/a
408.521	0.165	817042	keystroke	s	n/a
408.716	0.15	817432	keystroke	Key.space	n/a
409.151	0.1195	818302	keystroke	b	n/a
409.3905	0.121	818781	keystroke	a	n/a
409.6905	0.075	819381	keystroke	l	n/a
409.8405	0.12	819681	keystroke	l	n/a
409.9755	0.135	819951	keystroke	e	n/a
410.1855	0.12	820371	keystroke	t	n/a
410.4255	0.12	820851	keystroke	Key.space	n/a
410.6515	0.15	821303	keystroke	r	n/a
410.8015	0.089	821603	keystroke	o	n/a
411.116	0.12	822232	keystroke	t	n/a
411.296	0.18	822592	keystroke	a	n/a
411.521	0.135	823042	keystroke	r	n/a
411.821	0.12	823642	keystroke	y	n/a
412.091	0.12	824182	keystroke	Key.space	n/a
412.376	0.18	824752	keystroke	r	n/a
412.526	0.18	825052	keystroke	e	n/a
412.856	0.135	825712	keystroke	g	n/a
412.976	0.165	825952	keystroke	a	n/a
413.126	0.12	826252	keystroke	r	n/a
413.396	0.195	826792	keystroke	d	n/a
413.576	0.225	827152	keystroke	i	n/a
413.666	0.165	827332	keystroke	n	n/a
413.756	0.165	827512	keystroke	g	n/a
413.98	0.091	827960	keystroke	Key.enter	n/a
414.077	10.375	828154	prompt	n/a	accessible reasoning carries gasoline\n
414.7905	0.1355	829581	keystroke	a	n/a
415.076	0.1045	830152	keystroke	c	n/a
415.271	0.0595	830542	keystroke	c	n/a
415.5415	0.075	831083	keystroke	e	n/a
415.7515	0.0895	831503	keystroke	s	n/a
415.946	0.075	831892	keystroke	s	n/a
416.2455	0.12	832491	keystroke	i	n/a
416.5305	0.12	833061	keystroke	b	n/a
416.6805	0.12	833361	keystroke	l	n/a
416.8455	0.136	833691	keystroke	e	n/a
416.9505	0.1655	833901	keystroke	Key.space	n/a
417.3255	0.1655	834651	keystroke	r	n/a
417.506	0.18	835012	keystroke	e	n/a
417.791	0.1195	835582	keystroke	a	n/a
418.0755	0.1355	836151	keystroke	s	n/a
418.256	0.1495	836512	keystroke	o	n/a
418.3305	0.12	836661	keystroke	n	n/a
418.5105	0.21	837021	keystroke	i	n/a
418.6005	0.21	837201	keystroke	n	n/a
418.7215	0.194	837443	keystroke	g	n/a
418.8855	0.165	837771	keystroke	Key.space	n/a
419.1555	0.105	838311	keystroke	c	n/a
419.3505	0.12	838701	keystroke	a	n/a
419.5905	0.15	839181	keystroke	r	n/a
419.8905	0.12	839781	keystroke	r	n/a
420.1455	0.105	840291	keystroke	i	n/a
420.3405	0.1805	840681	keystroke	e	n/a
420.491	0.18	840982	keystroke	s	n/a
420.611	0.18	841222	keystroke	Key.space	n/a
421.121	0.12	842242	keystroke	g	n/a
421.286	0.09	842572	keystroke	s	n/a
421.376	0.1795	842752	keystroke	a	n/a
422.561	0.06	845122	keystroke	Key.backspace	n/a
422.696	0.09	845392	keystroke	Key.backspace	n/a
422.846	0.135	845692	keystroke	a	n/a
422.966	0.24	845932	keystroke	s	n/a
423.401	0.105	846802	keystroke	o	n/a
423.671	0.075	847342	keystroke	l	n/a
423.8805	0.18	847761	keystroke	i	n/a
424.0305	0.15	848061	keystroke	n	n/a
424.1805	0.1355	848361	keystroke	e	n/a
424.376	0.074	848752	keystroke	Key.enter	n/a
424.4565	12.1905	848913	prompt	n/a	arabia compressed wallpapers substitute\n
425.1405	0.135	850281	keystroke	a	n/a
425.3655	0.12	850731	keystroke	r	n/a
425.6055	0.15	851211	keystroke	a	n/a
426.0855	0.1055	852171	keystroke	b	n/a
426.221	0.135	852442	keystroke	i	n/a
426.416	0.15	852832	keystroke	a	n/a
426.581	0.15	853162	keystroke	Key.space	n/a
426.866	0.1495	853732	keystroke	c	n/a
426.9855	0.195	853971	keystroke	o	n/a
427.0755	0.18	854151	keystroke	m	n/a
428.1405	0.12	856281	keystroke	p	n/a
428.3805	0.165	856761	keystroke	r	n/a
428.6655	0.12	857331	keystroke	e	n/a
428.9205	0.135	857841	keystroke	s	n/a
429.1305	0.09	858261	keystroke	s	n/a
429.3105	0.075	858621	keystroke	e	n/a
429.5055	0.1655	859011	keystroke	d	n/a
429.6255	0.135	859251	keystroke	Key.space	n/a
429.9705	0.18	859941	keystroke	w	n/a
430.1355	0.165	860271	keystroke	a	n/a
430.3155	0.075	860631	keystroke	l	n/a
430.4805	0.075	860961	keystroke	l	n/a
430.6905	0.09	861381	keystroke	p	n/a
430.8255	0.12	861651	keystroke	a	n/a
431.0205	0.075	862041	keystroke	p	n/a
431.2005	0.3	862401	keystroke	e	n/a
431.4105	0.105	862821	keystroke	r	n/a
431.5755	0.165	863151	keystroke	s	n/a
431.7555	0.195	863511	keystroke	Key.space	n/a
432.1905	0.12	864381	keystroke	s	n/a
432.3255	0.1195	864651	keystroke	u	n/a
432.58	0.09	865160	keystroke	b	n/a
433.3155	0.12	866631	keystroke	s	n/a
433.6155	0.105	867231	keystroke	t	n/a
433.7355	0.1055	867471	keystroke	i	n/a
434.336	0.15	868672	keystroke	t	n/a
434.516	0.09	869032	keystroke	u	n/a
434.7855	0.06	869571	keystroke	l	n/a
435.22	0.06	870440	keystroke	Key.backspace	n/a
435.596	0.104	871192	keystroke	e	n/a
435.985	0.09	871970	keystroke	Key.backspace	n/a
436.061	0.165	872122	keystroke	t	n/a
436.166	0.195	872332	keystroke	e	n/a
436.571	0.075	873142	keystroke	Key.enter	n/a
436.65	9.417	873300	prompt	n/a	number obituaries tubes vessel\n
437.6055	0.03	875211	keystroke	u	n/a
438.145	0.075	876290	keystroke	Key.backspace	n/a
438.5205	0.075	877041	keystroke	n	n/a
438.7155	0.06	877431	keystroke	u	n/a
438.9255	0.075	877851	keystroke	m	n/a
439.1805	0.0905	878361	keystroke	b	n/a
439.376	0.165	878752	keystroke	e	n/a
439.451	0.15	878902	keystroke	r	n/a
439.586	0.135	879172	keystroke	Key.space	n/a
440.381	0.135	880762	keystroke	o	n/a
440.546	0.1345	881092	keystroke	b	n/a
440.8005	0.135	881601	keystroke	i	n/a
441.5055	0.15	883011	keystroke	t	n/a
441.6855	0.135	883371	keystroke	u	n/a
441.9705	0.15	883941	keystroke	a	n/a
442.1655	0.12	884331	keystroke	r	n/a
442.4805	0.105	884961	keystroke	i	n/a
442.6755	0.15	885351	keystroke	e	n/a
442.7805	0.18	885561	keystroke	s	n/a
442.9455	0.135	885891	keystroke	Key.space	n/a
443.3205	0.12	886641	keystroke	t	n/a
443.4855	0.105	886971	keystroke	u	n/a
443.7255	0.075	887451	keystroke	b	n/a
443.9655	0.0905	887931	keystroke	e	n/a
444.161	0.12	888322	keystroke	s	n/a
444.341	0.135	888682	keystroke	Key.space	n/a
444.851	0.09	889702	keystroke	v	n/a
445.0305	0.105	890061	keystroke	e	n/a
445.2105	0.105	890421	keystroke	s	n/a
445.4055	0.09	890811	keystroke	s	n/a
445.5855	0.105	891171	keystroke	e	n/a
445.7505	0.075	891501	keystroke	l	n/a
446.0205	0.045	892041	keystroke	Key.enter	n/a
446.07	13.3175	892140	prompt	n/a	nutrition nasdaq chambers reconstruction\n
447.5205	0.105	895041	keystroke	n	n/a
447.7305	0.105	895461	keystroke	u	n/a
448.2255	0.135	896451	keystroke	t	n/a
448.4205	0.165	896841	keystroke	r	n/a
448.826	0.075	897652	keystroke	i	n/a
449.531	0.105	899062	keystroke	t	n/a
449.666	0.315	899332	keystroke	i	n/a
449.801	0.134	899602	keystroke	o	n/a
449.846	0.18	899692	keystroke	n	n/a
450.071	0.164	900142	keystroke	Key.space	n/a
450.9555	0.15	901911	keystroke	n	n/a
451.0455	0.1355	902091	keystroke	a	n/a
451.226	0.15	902452	keystroke	s	n/a
453.086	0.135	906172	keystroke	d	n/a
453.221	0.135	906442	keystroke	a	n/a
453.671	0.105	907342	keystroke	q	n/a
454.136	0.1645	908272	keystroke	Key.space	n/a
454.5555	0.1505	909111	keystroke	c	n/a
454.676	0.09	909352	keystroke	h	n/a
454.811	0.135	909622	keystroke	a	n/a
454.961	0.105	909922	keystroke	m	n/a
455.351	0.09	910702	keystroke	b	n/a
455.501	0.21	911002	keystroke	e	n/a
455.636	0.165	911272	keystroke	r	n/a
455.786	0.165	911572	keystroke	s	n/a
455.921	0.15	911842	keystroke	Key.space	n/a
456.551	0.165	913102	keystroke	r	n/a
456.626	0.15	913252	keystroke	e	n/a
456.9555	0.15	913911	keystroke	c	n/a
457.0905	0.18	914181	keystroke	o	n/a
457.1805	0.15	914361	keystroke	n	n/a
457.5255	0.12	915051	keystroke	s	n/a
457.841	0.059	915682	keystroke	t	n/a
458.021	0.164	916042	keystroke	r	n/a
458.246	0.104	916492	keystroke	u	n/a
458.545	0.1055	917090	keystroke	c	n/a
458.8005	0.105	917601	keystroke	t	n/a
458.95	0.2105	917900	keystroke	i	n/a
459.0105	0.151	918021	keystroke	o	n/a
459.0555	0.1345	918111	keystroke	n	n/a
459.2955	0.09	918591	keystroke	Key.enter	n/a
459.39	13.3175	918780	prompt	n/a	loans biological toilet kent\n
460.151	0.089	920302	keystroke	l	n/a
460.3605	0.0905	920721	keystroke	o	n/a
460.5855	0.09	921171	keystroke	a	n/a
461.231	0.09	922462	keystroke	n	n/a
461.426	0.1345	922852	keystroke	s	n/a
461.6805	0.15	923361	keystroke	Key.space	n/a
461.9805	0.075	923961	keystroke	b	n/a
462.1605	0.09	924321	keystroke	i	n/a
462.5355	0.045	925071	keystroke	o	n/a
462.745	0.0915	925490	keystroke	l	n/a
462.9705	0.0745	925941	keystroke	o	n/a
463.21	0.12	926420	keystroke	g	n/a
463.345	0.135	926690	keystroke	i	n/a
468.0725	0.028	936145	keystroke	b	n/a
468.4905	0.12	936981	keystroke	Key.backspace	n/a
469.031	0.1795	938062	keystroke	c	n/a
469.151	0.1795	938302	keystroke	a	n/a
469.3465	0.135	938693	keystroke	l	n/a
469.9165	0.12	939833	keystroke	Key.space	n/a
470.1415	0.165	940283	keystroke	t	n/a
470.2765	0.119	940553	keystroke	o	n/a
470.5915	0.0895	941183	keystroke	i	n/a
470.981	0.135	941962	keystroke	l	n/a
471.236	0.195	942472	keystroke	e	n/a
471.401	0.165	942802	keystroke	t	n/a
471.551	0.1645	943102	keystroke	Key.space	n/a
472.046	0.105	944092	keystroke	k	n/a
472.196	0.12	944392	keystroke	e	n/a
472.301	0.135	944602	keystroke	n	n/a
472.451	0.15	944902	keystroke	t	n/a
472.646	0.0595	945292	keystroke	Key.enter	n/a
472.7105	10.002	945421	prompt	n/a	physical stress americas european\n
473.7255	0.105	947451	keystroke	p	n/a
473.8905	0.1355	947781	keystroke	h	n/a
474.146	0.105	948292	keystroke	y	n/a
474.431	0.135	948862	keystroke	s	n/a
474.551	0.105	949102	keystroke	i	n/a
474.7455	0.12	949491	keystroke	c	n/a
474.9705	0.1055	949941	keystroke	a	n/a
475.181	0.105	950362	keystroke	l	n/a
475.436	0.105	950872	keystroke	Key.space	n/a
475.646	0.105	951292	keystroke	s	n/a
475.856	0.12	951712	keystroke	t	n/a
476.0355	0.18	952071	keystroke	r	n/a
476.2165	0.15	952433	keystroke	e	n/a
476.4405	0.12	952881	keystroke	s	n/a
476.6655	0.09	953331	keystroke	s	n/a
476.711	0.165	953422	keystroke	Key.space	n/a
476.966	0.1195	953932	keystroke	a	n/a
477.1455	0.1805	954291	keystroke	m	n/a
477.3555	0.241	954711	keystroke	e	n/a
477.4465	0.165	954893	keystroke	r	n/a
477.6265	0.105	955253	keystroke	i	n/a
477.7615	0.165	955523	keystroke	c	n/a
477.956	0.135	955912	keystroke	a	n/a
478.421	0.135	956842	keystroke	s	n/a
478.661	0.135	957322	keystroke	Key.space	n/a
479.1115	0.1195	958223	keystroke	e	n/a
479.426	0.105	958852	keystroke	u	n/a
479.846	0.105	959692	keystroke	r	n/a
479.921	0.09	959842	keystroke	i	n/a
480.131	0.15	960262	keystroke	p	n/a
480.656	0.09	961312	keystroke	Key.backspace	n/a
480.791	0.105	961582	keystroke	Key.backspace	n/a
481.496	0.09	962992	keystroke	o	n/a
481.691	0.0895	963382	keystroke	p	n/a
481.8555	0.18	963711	keystroke	e	n/a
481.9905	0.195	963981	keystroke	a	n/a
482.2155	0.09	964431	keystroke	n	n/a
482.6205	0.0905	965241	keystroke	Key.enter	n/a
482.7165	15.296	965433	prompt	n/a	optimization acquire trustees west\n
483.5065	0.089	967013	keystroke	o	n/a
483.731	0.105	967462	keystroke	p	n/a
484.0455	0.1205	968091	keystroke	t	n/a
484.2105	0.12	968421	keystroke	i	n/a
484.5105	0.105	969021	keystroke	m	n/a
485.006	0.0895	970012	keystroke	i	n/a
485.411	0.12	970822	keystroke	z	n/a
485.651	0.1045	971302	keystroke	a	n/a
485.8905	0.09	971781	keystroke	t	n/a
485.9955	0.255	971991	keystroke	i	n/a
486.0855	0.135	972171	keystroke	o	n/a
486.1605	0.18	972321	keystroke	n	n/a
486.2955	0.135	972591	keystroke	Key.space	n/a
486.761	0.045	973522	keystroke	a	n/a
487.226	0.105	974452	keystroke	Key.backspace	n/a
487.316	0.1055	974632	keystroke	s	n/a
487.571	0.12	975142	keystroke	q	n/a
487.7655	0.12	975531	keystroke	u	n/a
489.341	0.0755	978682	keystroke	Key.backspace	n/a
489.4905	0.091	978981	keystroke	Key.backspace	n/a
490.151	0.105	980302	keystroke	Key.backspace	n/a
490.436	0.12	980872	keystroke	a	n/a
490.7655	0.105	981531	keystroke	c	n/a
491.1105	0.12	982221	keystroke	q	n/a
491.3655	0.105	982731	keystroke	u	n/a
491.6655	0.09	983331	keystroke	i	n/a
491.981	0.165	983962	keystroke	r	n/a
492.281	0.12	984562	keystroke	e	n/a
492.701	0.135	985402	keystroke	Key.space	n/a
493.001	0.12	986002	keystroke	t	n/a
493.241	0.15	986482	keystroke	r	n/a
494.4415	0.0895	988883	keystroke	u	n/a
494.7105	0.135	989421	keystroke	s	n/a
494.951	0.12	989902	keystroke	t	n/a
495.2965	0.075	990593	keystroke	e	n/a
495.4615	0.0745	990923	keystroke	e	n/a
495.6555	0.135	991311	keystroke	s	n/a
495.8505	0.135	991701	keystroke	Key.space	n/a
496.1055	0.12	992211	keystroke	w	n/a
496.2405	0.09	992481	keystroke	h	n/a
496.4355	0.1505	992871	keystroke	e	n/a
497.066	0.06	994132	keystroke	Key.backspace	n/a
497.201	0.09	994402	keystroke	Key.backspace	n/a
497.306	0.225	994612	keystroke	e	n/a
497.4865	0.134	994973	keystroke	s	n/a
497.6055	0.165	995211	keystroke	t	n/a
497.9355	0.075	995871	keystroke	Key.enter	n/a
498.016	7.7365	996032	prompt	n/a	sized pump middle statistics\n
498.7905	0.15	997581	keystroke	s	n/a
498.9705	0.0755	997941	keystroke	i	n/a
499.166	0.1195	998332	keystroke	z	n/a
499.3455	0.105	998691	keystroke	e	n/a
499.5855	0.165	999171	keystroke	d	n/a
499.7355	0.12	999471	keystroke	Key.space	n/a
499.9155	0.12	999831	keystroke	p	n/a
500.1705	0.105	1000341	keystroke	u	n/a
500.4855	0.091	1000971	keystroke	m	n/a
500.726	0.075	1001452	keystroke	p	n/a
501.011	0.135	1002022	keystroke	Key.space	n/a
501.536	0.09	1003072	keystroke	m	n/a
501.731	0.075	1003462	keystroke	i	n/a
501.896	0.09	1003792	keystroke	d	n/a
502.076	0.09	1004152	keystroke	d	n/a
502.301	0.105	1004602	keystroke	l	n/a
502.451	0.135	1004902	keystroke	e	n/a
502.556	0.18	1005112	keystroke	Key.space	n/a
502.781	0.135	1005562	keystroke	s	n/a
503.036	0.15	1006072	keystroke	t	n/a
503.216	0.15	1006432	keystroke	a	n/a
503.411	0.1655	1006822	keystroke	t	n/a
504.041	0.165	1008082	keystroke	i	n/a
504.431	0.135	1008862	keystroke	s	n/a
504.8815	0.045	1009763	keystroke	t	n/a
505.0155	0.09	1010031	keystroke	i	n/a
505.2105	0.15	1010421	keystroke	c	n/a
505.3765	0.119	1010753	keystroke	s	n/a
505.6755	0.075	1011351	keystroke	Key.enter	n/a
505.755	9.1325	1011510	prompt	n/a	sympathy headed mysterious she's\n
506.426	0.15	1012852	keystroke	s	n/a
506.651	0.0895	1013302	keystroke	y	n/a
507.026	0.105	1014052	keystroke	m	n/a
507.266	0.09	1014532	keystroke	p	n/a
507.836	0.12	1015672	keystroke	a	n/a
508.076	0.09	1016152	keystroke	t	n/a
508.196	0.105	1016392	keystroke	h	n/a
508.436	0.09	1016872	keystroke	y	n/a
508.631	0.12	1017262	keystroke	Key.space	n/a
508.931	0.09	1017862	keystroke	h	n/a
509.0815	0.105	1018163	keystroke	e	n/a
509.2315	0.15	1018463	keystroke	a	n/a
509.4265	0.105	1018853	keystroke	d	n/a
509.6665	0.075	1019333	keystroke	e	n/a
509.8765	0.135	1019753	keystroke	d	n/a
509.9665	0.1345	1019933	keystroke	Key.space	n/a
510.221	0.09	1020442	keystroke	m	n/a
510.641	0.09	1021282	keystroke	y	n/a
510.971	0.195	1021942	keystroke	s	n/a
511.181	0.06	1022362	keystroke	s	n/a
511.856	0.09	1023712	keystroke	Key.backspace	n/a
512.171	0.15	1024342	keystroke	t	n/a
512.336	0.195	1024672	keystroke	e	n/a
512.456	0.165	1024912	keystroke	r	n/a
512.666	0.15	1025332	keystroke	i	n/a
512.831	0.255	1025662	keystroke	o	n/a
512.951	0.15	1025902	keystroke	u	n/a
513.131	0.18	1026262	keystroke	s	n/a
513.266	0.15	1026532	keystroke	Key.space	n/a
513.881	0.135	1027762	keystroke	s	n/a
514.001	0.1195	1028002	keystroke	h	n/a
514.1505	0.105	1028301	keystroke	e	n/a
514.3755	0.06	1028751	keystroke	'	n/a
514.4955	0.135	1028991	keystroke	s	n/a
514.8405	0.045	1029681	keystroke	Key.enter	n/a
514.891	7.9015	1029782	prompt	n/a	jose otherwise photoshop warming\n
515.6815	0.1795	1031363	keystroke	j	n/a
515.816	0.15	1031632	keystroke	o	n/a
516.146	0.18	1032292	keystroke	s	n/a
516.281	0.15	1032562	keystroke	e	n/a
516.386	0.165	1032772	keystroke	Key.space	n/a
516.8355	0.1055	1033671	keystroke	o	n/a
517.016	0.15	1034032	keystroke	t	n/a
517.151	0.135	1034302	keystroke	h	n/a
517.211	0.21	1034422	keystroke	e	n/a
517.361	0.165	1034722	keystroke	r	n/a
518.0955	0.091	1036191	keystroke	w	n/a
518.1705	0.091	1036341	keystroke	i	n/a
518.3205	0.196	1036641	keystroke	s	n/a
518.5315	0.165	1037063	keystroke	e	n/a
518.6655	0.15	1037331	keystroke	Key.space	n/a
519.0855	0.06	1038171	keystroke	p	n/a
519.2805	0.1055	1038561	keystroke	h	n/a
519.461	0.09	1038922	keystroke	o	n/a
520.1655	0.105	1040331	keystroke	t	n/a
520.2855	0.09	1040571	keystroke	o	n/a
520.721	0.12	1041442	keystroke	s	n/a
520.826	0.2095	1041652	keystroke	h	n/a
521.0055	0.18	1042011	keystroke	o	n/a
521.2305	0.105	1042461	keystroke	p	n/a
521.4105	0.135	1042821	keystroke	Key.space	n/a
521.6205	0.196	1043241	keystroke	w	n/a
521.7715	0.135	1043543	keystroke	a	n/a
521.9515	0.15	1043903	keystroke	r	n/a
522.1465	0.09	1044293	keystroke	m	n/a
522.3415	0.1795	1044683	keystroke	i	n/a
522.431	0.165	1044862	keystroke	n	n/a
522.551	0.12	1045102	keystroke	g	n/a
522.761	0.03	1045522	keystroke	Key.enter	n/a
522.7955	7.632	1045591	prompt	n/a	played must edwards solved\n
523.5105	0.105	1047021	keystroke	p	n/a
523.7505	0.106	1047501	keystroke	l	n/a
524.0655	0.03	1048131	keystroke	y	n/a
524.4555	0.045	1048911	keystroke	Key.backspace	n/a
524.5905	0.1355	1049181	keystroke	a	n/a
524.756	0.09	1049512	keystroke	y	n/a
524.996	0.075	1049992	keystroke	e	n/a
525.2205	0.15	1050441	keystroke	d	n/a
525.3555	0.105	1050711	keystroke	Key.space	n/a
525.6105	0.06	1051221	keystroke	m	n/a
525.8055	0.09	1051611	keystroke	u	n/a
525.9405	0.211	1051881	keystroke	s	n/a
526.1065	0.15	1052213	keystroke	t	n/a
526.1965	0.15	1052393	keystroke	Key.space	n/a
526.6915	0.09	1053383	keystroke	e	n/a
526.9165	0.135	1053833	keystroke	d	n/a
527.3515	0.27	1054703	keystroke	w	n/a
527.6965	0.1795	1055393	keystroke	a	n/a
527.921	0.105	1055842	keystroke	r	n/a
528.161	0.15	1056322	keystroke	d	n/a
528.341	0.135	1056682	keystroke	s	n/a
528.551	0.135	1057102	keystroke	Key.space	n/a
528.806	0.135	1057612	keystroke	s	n/a
529.151	0.09	1058302	keystroke	o	n/a
529.376	0.09	1058752	keystroke	l	n/a
529.631	0.12	1059262	keystroke	v	n/a
529.841	0.075	1059682	keystroke	e	n/a
530.036	0.12	1060072	keystroke	d	n/a
530.351	0.075	1060702	keystroke	Key.enter	n/a
530.433	7.8695	1060866	prompt	n/a	giant surrey elections describing\n
531.2065	0.135	1062413	keystroke	g	n/a
531.3715	0.105	1062743	keystroke	i	n/a
531.5665	0.135	1063133	keystroke	a	n/a
531.7315	0.105	1063463	keystroke	n	n/a
531.8815	0.1345	1063763	keystroke	t	n/a
531.971	0.15	1063942	keystroke	Key.space	n/a
532.211	0.135	1064422	keystroke	s	n/a
532.316	0.12	1064632	keystroke	u	n/a
532.571	0.0455	1065142	keystroke	r	n/a
532.706	0.105	1065412	keystroke	r	n/a
532.976	0.135	1065952	keystroke	e	n/a
533.201	0.1195	1066402	keystroke	y	n/a
533.3955	0.12	1066791	keystroke	Key.space	n/a
533.6665	0.0895	1067333	keystroke	e	n/a
533.801	0.1055	1067602	keystroke	l	n/a
533.9365	0.105	1067873	keystroke	e	n/a
534.221	0.105	1068442	keystroke	c	n/a
534.506	0.105	1069012	keystroke	t	n/a
534.6865	0.225	1069373	keystroke	i	n/a
534.7765	0.12	1069553	keystroke	o	n/a
534.8515	0.135	1069703	keystroke	n	n/a
535.0465	0.165	1070093	keystroke	s	n/a
535.2715	0.15	1070543	keystroke	Key.space	n/a
535.5715	0.075	1071143	keystroke	d	n/a
535.7515	0.075	1071503	keystroke	e	n/a
535.976	0.1055	1071952	keystroke	s	n/a
536.2015	0.12	1072403	keystroke	c	n/a
536.4415	0.105	1072883	keystroke	r	n/a
537.2665	0.09	1074533	keystroke	i	n/a
537.4615	0.104	1074923	keystroke	b	n/a
537.6415	0.195	1075283	keystroke	i	n/a
537.7165	0.24	1075433	keystroke	n	n/a
537.8815	0.135	1075763	keystroke	g	n/a
538.2415	0.06	1076483	keystroke	Key.enter	n/a
538.306	10.7965	1076612	prompt	n/a	stadium sign athletic suits\n
539.156	0.105	1078312	keystroke	s	n/a
540.1905	0.135	1080381	keystroke	t	n/a
540.341	0.1195	1080682	keystroke	a	n/a
541.1505	0.165	1082301	keystroke	f	n/a
541.3905	0.0755	1082781	keystroke	i	n/a
541.9465	0.06	1083893	keystroke	Key.backspace	n/a
542.0815	0.075	1084163	keystroke	Key.backspace	n/a
542.2915	0.105	1084583	keystroke	d	n/a
542.6215	0.03	1085243	keystroke	i	n/a
542.8015	0.0745	1085603	keystroke	u	n/a
543.206	0.09	1086412	keystroke	m	n/a
543.431	0.135	1086862	keystroke	Key.space	n/a
543.671	0.15	1087342	keystroke	s	n/a
543.806	0.09	1087612	keystroke	i	n/a
544.136	0.1495	1088272	keystroke	g	n/a
544.3905	0.121	1088781	keystroke	n	n/a
544.556	0.1345	1089112	keystroke	Key.space	n/a
545.0965	0.089	1090193	keystroke	a	n/a
545.4115	0.089	1090823	keystroke	t	n/a
545.5305	0.1055	1091061	keystroke	h	n/a
546.3105	0.105	1092621	keystroke	l	n/a
546.4755	0.135	1092951	keystroke	e	n/a
547.0765	0.105	1094153	keystroke	c	n/a
547.3315	0.09	1094663	keystroke	t	n/a
547.4665	0.09	1094933	keystroke	i	n/a
547.796	0.015	1095592	keystroke	c	n/a
547.812	0.104	1095624	keystroke	Key.space	n/a
548.006	0.12	1096012	keystroke	s	n/a
548.216	0.09	1096432	keystroke	u	n/a
548.471	0.135	1096942	keystroke	i	n/a
548.621	0.0905	1097242	keystroke	t	n/a
548.8165	0.12	1097633	keystroke	s	n/a
549.0415	0.059	1098083	keystroke	Key.enter	n/a
549.106	13.3465	1098212	prompt	n/a	tennessee weapon lancaster upgrades\n
550.136	0.15	1100272	keystroke	t	n/a
550.286	0.12	1100572	keystroke	e	n/a
550.541	0.075	1101082	keystroke	n	n/a
550.7205	0.06	1101441	keystroke	n	n/a
551.0205	0.15	1102041	keystroke	e	n/a
551.4405	0.12	1102881	keystroke	s	n/a
551.6505	0.091	1103301	keystroke	s	n/a
551.8765	0.06	1103753	keystroke	e	n/a
552.0565	0.06	1104113	keystroke	e	n/a
552.386	0.105	1104772	keystroke	Key.space	n/a
552.566	0.1205	1105132	keystroke	w	n/a
553.3165	0.18	1106633	keystroke	e	n/a
553.4965	0.105	1106993	keystroke	a	n/a
554.171	0.12	1108342	keystroke	p	n/a
555.3265	0.15	1110653	keystroke	o	n/a
555.4315	0.165	1110863	keystroke	n	n/a
555.6115	0.12	1111223	keystroke	Key.space	n/a
555.8365	0.105	1111673	keystroke	l	n/a
556.0315	0.12	1112063	keystroke	a	n/a
556.5855	0.1055	1113171	keystroke	n	n/a
556.9915	0.135	1113983	keystroke	c	n/a
557.1565	0.12	1114313	keystroke	a	n/a
557.2615	0.15	1114523	keystroke	s	n/a
557.5015	0.18	1115003	keystroke	t	n/a
557.6965	0.1795	1115393	keystroke	e	n/a
557.7715	0.1795	1115543	keystroke	r	n/a
557.921	0.18	1115842	keystroke	Key.space	n/a
558.566	0.105	1117132	keystroke	u	n/a
558.836	0.09	1117672	keystroke	n	n/a
559.286	0.06	1118572	keystroke	Key.backspace	n/a
559.541	0.075	1119082	keystroke	p	n/a
559.841	0.15	1119682	keystroke	g	n/a
559.992	0.164	1119984	keystroke	r	n/a
560.141	0.15	1120282	keystroke	a	n/a
560.6655	0.105	1121331	keystroke	d	n/a
560.9505	0.18	1121901	keystroke	e	n/a
561.0405	0.135	1122081	keystroke	r	n/a
561.521	0.06	1123042	keystroke	Key.backspace	n/a
562.121	0.105	1124242	keystroke	s	n/a
562.376	0.075	1124752	keystroke	Key.enter	n/a
562.456	12.642	1124912	prompt	n/a	platinum italian sudden simplified\n
563.1565	0.1045	1126313	keystroke	p	n/a
563.396	0.18	1126792	keystroke	l	n/a
563.577	0.089	1127154	keystroke	a	n/a
563.936	0.12	1127872	keystroke	t	n/a
564.086	0.105	1128172	keystroke	i	n/a
565.391	0.06	1130782	keystroke	n	n/a
565.466	0.015	1130932	keystroke	u	n/a
565.616	0.075	1131232	keystroke	m	n/a
566.381	0.15	1132762	keystroke	Key.space	n/a
566.786	0.12	1133572	keystroke	i	n/a
567.056	0.12	1134112	keystroke	t	n/a
567.236	0.135	1134472	keystroke	a	n/a
567.446	0.075	1134892	keystroke	l	n/a
567.596	0.105	1135192	keystroke	i	n/a
567.821	0.12	1135642	keystroke	a	n/a
567.986	0.135	1135972	keystroke	n	n/a
568.181	0.15	1136362	keystroke	Key.space	n/a
568.451	0.135	1136902	keystroke	s	n/a
568.571	0.09	1137142	keystroke	u	n/a
568.7955	0.076	1137591	keystroke	d	n/a
568.9905	0.0755	1137981	keystroke	d	n/a
569.1705	0.121	1138341	keystroke	e	n/a
569.3365	0.12	1138673	keystroke	n	n/a
569.6055	0.135	1139211	keystroke	Key.space	n/a
569.9815	0.1345	1139963	keystroke	s	n/a
570.116	0.06	1140232	keystroke	i	n/a
570.386	0.105	1140772	keystroke	m	n/a
570.656	0.075	1141312	keystroke	p	n/a
570.896	0.12	1141792	keystroke	l	n/a
572.381	0.12	1144762	keystroke	f	n/a
572.531	0.1355	1145062	keystroke	i	n/a
573.761	0.06	1147522	keystroke	Key.backspace	n/a
573.971	0.015	1147942	keystroke	Key.backspace	n/a
574.166	0.0905	1148332	keystroke	i	n/a
574.3915	0.135	1148783	keystroke	f	n/a
574.5115	0.09	1149023	keystroke	i	n/a
574.6465	0.0745	1149293	keystroke	e	n/a
574.856	0.105	1149712	keystroke	d	n/a
575.051	0.045	1150102	keystroke	Key.enter	n/a
575.101	13.602	1150202	prompt	n/a	temporal eclipse packet tropical\n
575.862	0.165	1151724	keystroke	t	n/a
575.966	0.166	1151932	keystroke	e	n/a
576.191	0.105	1152382	keystroke	m	n/a
576.357	0.105	1152714	keystroke	p	n/a
576.611	0.105	1153222	keystroke	o	n/a
576.912	0.179	1153824	keystroke	r	n/a
577.106	0.135	1154212	keystroke	s	n/a
577.346	0.105	1154692	keystroke	l	n/a
577.7965	0.06	1155593	keystroke	Key.backspace	n/a
577.9015	0.09	1155803	keystroke	Key.backspace	n/a
578.0215	0.135	1156043	keystroke	a	n/a
578.2315	0.09	1156463	keystroke	l	n/a
578.4115	0.15	1156823	keystroke	Key.space	n/a
579.281	0.135	1158562	keystroke	e	n/a
579.686	0.12	1159372	keystroke	c	n/a
580.466	0.09	1160932	keystroke	l	n/a
580.8265	0.06	1161653	keystroke	i	n/a
581.0215	0.09	1162043	keystroke	p	n/a
581.441	0.15	1162882	keystroke	s	n/a
581.606	0.1805	1163212	keystroke	e	n/a
581.7715	0.1345	1163543	keystroke	Key.space	n/a
582.221	0.1205	1164442	keystroke	a	n/a
582.6265	0.075	1165253	keystroke	Key.backspace	n/a
583.2565	0.089	1166513	keystroke	p	n/a
583.3765	0.1345	1166753	keystroke	a	n/a
583.616	0.1345	1167232	keystroke	c	n/a
583.7655	0.091	1167531	keystroke	k	n/a
583.9305	0.2555	1167861	keystroke	e	n/a
584.1255	0.1505	1168251	keystroke	t	n/a
584.246	0.18	1168492	keystroke	Key.space	n/a
584.9515	0.105	1169903	keystroke	t	n/a
585.1315	0.195	1170263	keystroke	r	n/a
585.7165	0.09	1171433	keystroke	o	n/a
586.9765	0.06	1173953	keystroke	p	n/a
587.771	0.0605	1175542	keystroke	i	n/a
588.0415	0.135	1176083	keystroke	c	n/a
588.1465	0.15	1176293	keystroke	a	n/a
588.3115	0.105	1176623	keystroke	l	n/a
588.6565	0.045	1177313	keystroke	Key.enter	n/a
588.7075	10.8705	1177415	prompt	n/a	fool locator frederick strong\n
589.5565	0.045	1179113	keystroke	d	n/a
589.6315	0.165	1179263	keystroke	f	n/a
590.1415	0.06	1180283	keystroke	Key.backspace	n/a
590.2765	0.089	1180553	keystroke	Key.backspace	n/a
590.381	0.195	1180762	keystroke	f	n/a
590.591	0.09	1181182	keystroke	o	n/a
590.936	0.06	1181872	keystroke	o	n/a
591.191	0.075	1182382	keystroke	l	n/a
591.986	0.12	1183972	keystroke	Key.space	n/a
592.271	0.09	1184542	keystroke	l	n/a
592.496	0.075	1184992	keystroke	o	n/a
592.6765	0.15	1185353	keystroke	c	n/a
592.7665	0.135	1185533	keystroke	a	n/a
593.0215	0.105	1186043	keystroke	t	n/a
593.1415	0.12	1186283	keystroke	o	n/a
593.3065	0.12	1186613	keystroke	r	n/a
593.4115	0.135	1186823	keystroke	Key.space	n/a
593.7415	0.135	1187483	keystroke	f	n/a
594.0415	0.195	1188083	keystroke	r	n/a
594.1915	0.165	1188383	keystroke	e	n/a
596.186	0.18	1192372	keystroke	d	n/a
596.7415	0.165	1193483	keystroke	e	n/a
597.1915	0.135	1194383	keystroke	r	n/a
597.431	0.105	1194862	keystroke	i	n/a
597.671	0.165	1195342	keystroke	c	n/a
597.851	0.105	1195702	keystroke	k	n/a
597.971	0.15	1195942	keystroke	Key.space	n/a
598.181	0.09	1196362	keystroke	s	n/a
598.421	0.09	1196842	keystroke	t	n/a
598.601	0.105	1197202	keystroke	r	n/a
599.1115	0.1795	1198223	keystroke	o	n/a
599.216	0.12	1198432	keystroke	n	n/a
599.321	0.12	1198642	keystroke	g	n/a
599.486	0.09	1198972	keystroke	Key.enter	n/a
599.5825	6.37	1199165	prompt	n/a	winds journal system charges\n
600.251	0.105	1200502	keystroke	w	n/a
600.371	0.12	1200742	keystroke	i	n/a
600.641	0.0905	1201282	keystroke	n	n/a
600.7615	0.18	1201523	keystroke	d	n/a
600.9865	0.09	1201973	keystroke	s	n/a
601.1065	0.135	1202213	keystroke	Key.space	n/a
601.451	0.15	1202902	keystroke	j	n/a
601.631	0.18	1203262	keystroke	o	n/a
602.067	0.1485	1204134	keystroke	u	n/a
602.606	0.1505	1205212	keystroke	r	n/a
602.8915	0.09	1205783	keystroke	n	n/a
603.0865	0.12	1206173	keystroke	a	n/a
603.2515	0.09	1206503	keystroke	l	n/a
603.4165	0.12	1206833	keystroke	Key.space	n/a
603.701	0.09	1207402	keystroke	s	n/a
603.806	0.09	1207612	keystroke	y	n/a
603.911	0.12	1207822	keystroke	s	n/a
604.151	0.1205	1208302	keystroke	t	n/a
604.2265	0.165	1208453	keystroke	e	n/a
604.4065	0.12	1208813	keystroke	m	n/a
604.5715	0.12	1209143	keystroke	Key.space	n/a
604.7965	0.15	1209593	keystroke	c	n/a
604.9015	0.105	1209803	keystroke	h	n/a
605.0215	0.135	1210043	keystroke	a	n/a
605.2015	0.12	1210403	keystroke	r	n/a
605.3965	0.1495	1210793	keystroke	g	n/a
605.5015	0.1195	1211003	keystroke	e	n/a
605.7115	0.135	1211423	keystroke	s	n/a
605.8915	0.06	1211783	keystroke	Key.enter	n/a
605.9555	6.7175	1211911	prompt	n/a	owner taking warnings great\n
606.6715	0.12	1213343	keystroke	o	n/a
606.911	0.1355	1213822	keystroke	w	n/a
607.121	0.1045	1214242	keystroke	n	n/a
607.3165	0.224	1214633	keystroke	e	n/a
607.4505	0.106	1214901	keystroke	r	n/a
607.6005	0.121	1215201	keystroke	s	n/a
608.2165	0.06	1216433	keystroke	Key.backspace	n/a
608.4865	0.135	1216973	keystroke	Key.space	n/a
608.7265	0.135	1217453	keystroke	t	n/a
608.8765	0.135	1217753	keystroke	a	n/a
608.9965	0.105	1217993	keystroke	k	n/a
609.2365	0.18	1218473	keystroke	i	n/a
609.3115	0.195	1218623	keystroke	n	n/a
609.4465	0.135	1218893	keystroke	g	n/a
609.5365	0.135	1219073	keystroke	Key.space	n/a
609.7315	0.165	1219463	keystroke	w	n/a
609.8665	0.135	1219733	keystroke	a	n/a
610.0765	0.15	1220153	keystroke	r	n/a
610.2865	0.0895	1220573	keystroke	n	n/a
610.466	0.1955	1220932	keystroke	i	n/a
610.571	0.165	1221142	keystroke	n	n/a
610.6765	0.1945	1221353	keystroke	g	n/a
611.1565	0.15	1222313	keystroke	s	n/a
611.5315	0.15	1223063	keystroke	Key.space	n/a
611.786	0.12	1223572	keystroke	g	n/a
612.086	0.165	1224172	keystroke	r	n/a
612.206	0.1805	1224412	keystroke	e	n/a
612.311	0.1945	1224622	keystroke	a	n/a
612.4465	0.119	1224893	keystroke	t	n/a
612.6105	0.061	1225221	keystroke	Key.enter	n/a
612.676	5.517	1225352	prompt	n/a	plate dogs universe prix\n
613.3755	0.0755	1226751	keystroke	p	n/a
613.571	0.1195	1227142	keystroke	l	n/a
613.7065	0.12	1227413	keystroke	a	n/a
613.9015	0.135	1227803	keystroke	t	n/a
614.0065	0.165	1228013	keystroke	e	n/a
614.1565	0.1045	1228313	keystroke	Key.space	n/a
614.426	0.12	1228852	keystroke	d	n/a
614.531	0.09	1229062	keystroke	o	n/a
614.741	0.135	1229482	keystroke	g	n/a
614.996	0.165	1229992	keystroke	s	n/a
615.221	0.12	1230442	keystroke	Key.space	n/a
615.416	0.105	1230832	keystroke	u	n/a
615.611	0.105	1231222	keystroke	n	n/a
615.791	0.075	1231582	keystroke	i	n/a
616.061	0.12	1232122	keystroke	v	n/a
616.301	0.165	1232602	keystroke	e	n/a
616.421	0.1205	1232842	keystroke	r	n/a
616.6315	0.1945	1233263	keystroke	s	n/a
616.766	0.18	1233532	keystroke	e	n/a
617.0215	0.165	1234043	keystroke	Key.space	n/a
617.2915	0.105	1234583	keystroke	p	n/a
617.4565	0.12	1234913	keystroke	r	n/a
617.5915	0.105	1235183	keystroke	i	n/a
617.8315	0.15	1235663	keystroke	x	n/a
618.1305	0.06	1236261	keystroke	Key.enter	n/a
618.198	12.34	1236396	prompt	n/a	diseases beach bind satisfied\n
618.9265	0.12	1237853	keystroke	d	n/a
619.0315	0.105	1238063	keystroke	i	n/a
619.1965	0.135	1238393	keystroke	s	n/a
620.5465	0.105	1241093	keystroke	e	n/a
620.7265	0.12	1241453	keystroke	a	n/a
620.9815	0.12	1241963	keystroke	s	n/a
621.686	0.09	1243372	keystroke	e	n/a
622.0165	0.12	1244033	keystroke	s	n/a
622.2565	0.12	1244513	keystroke	Key.space	n/a
622.5265	0.105	1245053	keystroke	b	n/a
622.8865	0.105	1245773	keystroke	e	n/a
623.0965	0.09	1246193	keystroke	a	n/a
623.4115	0.195	1246823	keystroke	c	n/a
623.6365	0.105	1247273	keystroke	h	n/a
624.0715	0.12	1248143	keystroke	Key.space	n/a
624.4315	0.12	1248863	keystroke	b	n/a
624.6265	0.1645	1249253	keystroke	i	n/a
624.776	0.135	1249552	keystroke	n	n/a
625.031	0.12	1250062	keystroke	g	n/a
625.916	0.03	1251832	keystroke	Key.backspace	n/a
626.2465	0.03	1252493	keystroke	Key.backspace	n/a
626.2615	0.135	1252523	keystroke	d	n/a
626.831	0.045	1253662	keystroke	Key.backspace	n/a
627.162	0.105	1254324	keystroke	n	n/a
627.341	0.15	1254682	keystroke	d	n/a
627.626	0.1055	1255252	keystroke	Key.space	n/a
627.9565	0.105	1255913	keystroke	s	n/a
628.4215	0.105	1256843	keystroke	a	n/a
628.6615	0.12	1257323	keystroke	t	n/a
628.9165	0.105	1257833	keystroke	i	n/a
629.2915	0.12	1258583	keystroke	s	n/a
629.5315	0.135	1259063	keystroke	f	n/a
629.6965	0.105	1259393	keystroke	i	n/a
629.9965	0.105	1259993	keystroke	e	n/a
630.2215	0.12	1260443	keystroke	d	n/a
630.4765	0.06	1260953	keystroke	Key.enter	n/a
630.544	8.469	1261088	prompt	n/a	rapids muscles newman caring\n
631.3765	0.165	1262753	keystroke	r	n/a
631.5415	0.12	1263083	keystroke	a	n/a
631.721	0.075	1263442	keystroke	p	n/a
632.831	0.105	1265662	keystroke	i	n/a
633.026	0.15	1266052	keystroke	d	n/a
633.116	0.195	1266232	keystroke	s	n/a
633.326	0.135	1266652	keystroke	Key.space	n/a
633.731	0.09	1267462	keystroke	m	n/a
633.986	0.105	1267972	keystroke	u	n/a
634.226	0.12	1268452	keystroke	s	n/a
634.6765	0.105	1269353	keystroke	c	n/a
634.7965	0.075	1269593	keystroke	l	n/a
634.9765	0.1345	1269953	keystroke	e	n/a
635.141	0.18	1270282	keystroke	s	n/a
635.336	0.15	1270672	keystroke	Key.space	n/a
635.666	0.12	1271332	keystroke	n	n/a
635.891	0.195	1271782	keystroke	e	n/a
635.996	0.166	1271992	keystroke	w	n/a
636.326	0.075	1272652	keystroke	m	n/a
636.492	0.15	1272984	keystroke	a	n/a
636.657	0.075	1273314	keystroke	n	n/a
637.046	0.151	1274092	keystroke	c	n/a
637.467	0.09	1274934	keystroke	Key.backspace	n/a
637.601	0.1505	1275202	keystroke	Key.space	n/a
637.7665	0.105	1275533	keystroke	c	n/a
637.7965	0.135	1275593	keystroke	a	n/a
638.0065	0.12	1276013	keystroke	r	n/a
638.1865	0.18	1276373	keystroke	i	n/a
638.2615	0.165	1276523	keystroke	n	n/a
638.4115	0.15	1276823	keystroke	g	n/a
638.951	0.06	1277902	keystroke	Key.enter	n/a
639.016	13.107	1278032	prompt	n/a	rejected guinea seven integrity\n
639.821	0.165	1279642	keystroke	r	n/a
639.896	0.135	1279792	keystroke	e	n/a
640.136	0.151	1280272	keystroke	j	n/a
640.346	0.12	1280692	keystroke	e	n/a
640.616	0.121	1281232	keystroke	c	n/a
640.8715	0.09	1281743	keystroke	t	n/a
640.9915	0.135	1281983	keystroke	e	n/a
641.2015	0.1645	1282403	keystroke	d	n/a
641.351	0.135	1282702	keystroke	Key.space	n/a
642.8665	0.15	1285733	keystroke	g	n/a
643.1215	0.135	1286243	keystroke	u	n/a
643.901	0.12	1287802	keystroke	i	n/a
644.291	0.1055	1288582	keystroke	n	n/a
644.561	0.09	1289122	keystroke	e	n/a
644.666	0.18	1289332	keystroke	a	n/a
644.861	0.105	1289722	keystroke	Key.space	n/a
645.0715	0.135	1290143	keystroke	s	n/a
645.2365	0.135	1290473	keystroke	e	n/a
645.566	0.135	1291132	keystroke	v	n/a
645.671	0.12	1291342	keystroke	e	n/a
645.821	0.135	1291642	keystroke	n	n/a
645.986	0.135	1291972	keystroke	Key.space	n/a
646.286	0.165	1292572	keystroke	i	n/a
646.391	0.165	1292782	keystroke	n	n/a
646.7515	0.105	1293503	keystroke	t	n/a
646.9015	0.1655	1293803	keystroke	e	n/a
650.2035	0.001	1300407	keystroke	g	n/a
650.2465	0.15	1300493	keystroke	r	n/a
650.5165	0.105	1301033	keystroke	i	n/a
651.6715	0.15	1303343	keystroke	t	n/a
651.7915	0.0895	1303583	keystroke	y	n/a
652.091	0.03	1304182	keystroke	Key.enter	n/a
652.1265	10.5715	1304253	prompt	n/a	natural sailing upgrades unit\n
652.856	0.135	1305712	keystroke	n	n/a
653.021	0.15	1306042	keystroke	a	n/a
653.247	0.134	1306494	keystroke	t	n/a
653.411	0.075	1306822	keystroke	u	n/a
653.427	0.029	1306854	keystroke	y	n/a
654.1465	0.06	1308293	keystroke	Key.backspace	n/a
654.671	0.135	1309342	keystroke	r	n/a
654.941	0.15	1309882	keystroke	a	n/a
655.151	0.12	1310302	keystroke	l	n/a
655.421	0.15	1310842	keystroke	Key.space	n/a
655.931	0.135	1311862	keystroke	s	n/a
656.246	0.15	1312492	keystroke	a	n/a
656.502	0.075	1313004	keystroke	i	n/a
656.6965	0.105	1313393	keystroke	l	n/a
656.9365	0.195	1313873	keystroke	i	n/a
657.0265	0.165	1314053	keystroke	n	n/a
657.1465	0.1655	1314293	keystroke	g	n/a
657.2665	0.1645	1314533	keystroke	Key.space	n/a
657.792	0.104	1315584	keystroke	u	n/a
658.211	0.106	1316422	keystroke	p	n/a
658.541	0.121	1317082	keystroke	d	n/a
659.306	0.075	1318612	keystroke	Key.backspace	n/a
659.412	0.164	1318824	keystroke	g	n/a
659.892	0.1495	1319784	keystroke	a	n/a
660.3115	0.12	1320623	keystroke	Key.backspace	n/a
660.4915	0.12	1320983	keystroke	r	n/a
660.5965	0.135	1321193	keystroke	a	n/a
661.0615	0.105	1322123	keystroke	d	n/a
661.2715	0.075	1322543	keystroke	e	n/a
661.4515	0.135	1322903	keystroke	s	n/a
661.6165	0.12	1323233	keystroke	Key.space	n/a
661.9915	0.105	1323983	keystroke	u	n/a
662.1565	0.1495	1324313	keystroke	n	n/a
662.291	0.12	1324582	keystroke	i	n/a
662.426	0.106	1324852	keystroke	t	n/a
662.6065	0.0905	1325213	keystroke	Key.enter	n/a
662.701	7.182	1325402	prompt	n/a	puts success rand refugees\n
664.3165	0.18	1328633	keystroke	p	n/a
664.5265	0.09	1329053	keystroke	u	n/a
664.721	0.106	1329442	keystroke	t	n/a
664.976	0.18	1329952	keystroke	s	n/a
665.306	0.165	1330612	keystroke	Key.space	n/a
665.591	0.1355	1331182	keystroke	s	n/a
665.6965	0.105	1331393	keystroke	u	n/a
665.9965	0.075	1331993	keystroke	c	n/a
666.1765	0.075	1332353	keystroke	c	n/a
666.4315	0.09	1332863	keystroke	e	n/a
666.6415	0.1055	1333283	keystroke	s	n/a
666.852	0.089	1333704	keystroke	s	n/a
666.926	0.135	1333852	keystroke	Key.space	n/a
667.167	0.134	1334334	keystroke	r	n/a
667.286	0.15	1334572	keystroke	a	n/a
667.481	0.12	1334962	keystroke	n	n/a
667.571	0.18	1335142	keystroke	d	n/a
667.6915	0.135	1335383	keystroke	Key.space	n/a
668.157	0.1645	1336314	keystroke	r	n/a
668.3365	0.1505	1336673	keystroke	e	n/a
668.592	0.165	1337184	keystroke	f	n/a
668.742	0.12	1337484	keystroke	u	n/a
669.012	0.09	1338024	keystroke	g	n/a
669.252	0.075	1338504	keystroke	e	n/a
669.432	0.09	1338864	keystroke	e	n/a
669.6265	0.105	1339253	keystroke	s	n/a
669.7915	0.09	1339583	keystroke	Key.enter	n/a
669.886	6.477	1339772	prompt	n/a	plants calm coffee work\n
670.6315	0.075	1341263	keystroke	p	n/a
670.8565	0.1045	1341713	keystroke	l	n/a
671.111	0.15	1342222	keystroke	a	n/a
671.291	0.105	1342582	keystroke	n	n/a
671.456	0.12	1342912	keystroke	t	n/a
671.666	0.1805	1343332	keystroke	s	n/a
671.8315	0.1505	1343663	keystroke	Key.space	n/a
672.1465	0.0905	1344293	keystroke	c	n/a
673.0615	0.12	1346123	keystroke	a	n/a
673.3465	0.075	1346693	keystroke	l	n/a
673.6015	0.0895	1347203	keystroke	m	n/a
673.766	0.135	1347532	keystroke	Key.space	n/a
674.096	0.15	1348192	keystroke	c	n/a
674.261	0.06	1348522	keystroke	o	n/a
674.441	0.09	1348882	keystroke	f	n/a
674.636	0.0605	1349272	keystroke	f	n/a
674.8315	0.075	1349663	keystroke	e	n/a
674.9965	0.0755	1349993	keystroke	e	n/a
675.057	0.12	1350114	keystroke	Key.space	n/a
675.2215	0.1355	1350443	keystroke	w	n/a
675.4015	0.06	1350803	keystroke	o	n/a
675.477	0.135	1350954	keystroke	r	n/a
675.627	0.0895	1351254	keystroke	k	n/a
676.3015	0.06	1352603	keystroke	Key.enter	n/a
676.37	5.588	1352740	prompt	n/a	determination online five trains\n
677.067	0.09	1354134	keystroke	d	n/a
677.277	0.075	1354554	keystroke	e	n/a
677.487	0.105	1354974	keystroke	t	n/a
677.607	0.209	1355214	keystroke	e	n/a
677.712	0.1645	1355424	keystroke	r	n/a
677.9365	0.135	1355873	keystroke	m	n/a
678.1315	0.105	1356263	keystroke	i	n/a
678.4015	0.075	1356803	keystroke	n	n/a
678.717	0.015	1357434	keystroke	a	n/a
678.747	0.105	1357494	keystroke	t	n/a
678.897	0.225	1357794	keystroke	i	n/a
679.017	0.06	1358034	keystroke	o	n/a
679.032	0.15	1358064	keystroke	n	n/a
679.152	0.135	1358304	keystroke	Key.space	n/a
679.362	0.105	1358724	keystroke	o	n/a
679.452	0.09	1358904	keystroke	n	n/a
679.587	0.105	1359174	keystroke	l	n/a
679.767	0.165	1359534	keystroke	i	n/a
679.842	0.21	1359684	keystroke	n	n/a
679.917	0.165	1359834	keystroke	e	n/a
680.037	0.15	1360074	keystroke	Key.space	n/a
680.247	0.105	1360494	keystroke	f	n/a
680.292	0.12	1360584	keystroke	i	n/a
680.532	0.18	1361064	keystroke	v	n/a
680.667	0.135	1361334	keystroke	e	n/a
680.772	0.15	1361544	keystroke	Key.space	n/a
681.027	0.15	1362054	keystroke	t	n/a
681.222	0.165	1362444	keystroke	r	n/a
681.357	0.165	1362714	keystroke	a	n/a
681.507	0.135	1363014	keystroke	i	n/a
681.552	0.12	1363104	keystroke	n	n/a
681.702	0.09	1363404	keystroke	s	n/a
681.8965	0.06	1363793	keystroke	Key.enter	n/a
681.961	12.912	1363922	prompt	n/a	enormous optics cheats justice\n
683.2765	0.135	1366553	keystroke	e	n/a
683.5165	0.135	1367033	keystroke	n	n/a
684.177	0.195	1368354	keystroke	o	n/a
684.866	0.12	1369732	keystroke	r	n/a
685.736	0.105	1371472	keystroke	m	n/a
685.931	0.195	1371862	keystroke	o	n/a
685.991	0.195	1371982	keystroke	u	n/a
686.231	0.165	1372462	keystroke	s	n/a
687.357	0.135	1374714	keystroke	Key.space	n/a
687.957	0.135	1375914	keystroke	o	n/a
688.062	0.165	1376124	keystroke	p	n/a
688.722	0.12	1377444	keystroke	t	n/a
688.977	0.12	1377954	keystroke	i	n/a
689.187	0.135	1378374	keystroke	c	n/a
689.337	0.1495	1378674	keystroke	s	n/a
689.5015	0.135	1379003	keystroke	Key.space	n/a
689.9065	0.12	1379813	keystroke	c	n/a
690.0715	0.09	1380143	keystroke	h	n/a
690.2515	0.18	1380503	keystroke	e	n/a
690.4015	0.15	1380803	keystroke	a	n/a
690.5515	0.135	1381103	keystroke	r	n/a
690.8965	0.12	1381793	keystroke	Key.space	n/a
691.3915	0.12	1382783	keystroke	Key.backspace	n/a
691.5265	0.1505	1383053	keystroke	s	n/a
691.631	0.1205	1383262	keystroke	Key.space	n/a
691.9165	0.045	1383833	keystroke	Key.backspace	n/a
692.0365	0.09	1384073	keystroke	Key.backspace	n/a
692.442	0.074	1384884	keystroke	Key.backspace	n/a
692.607	0.105	1385214	keystroke	t	n/a
692.726	0.21	1385452	keystroke	s	n/a
693.147	0.134	1386294	keystroke	Key.space	n/a
693.431	0.12	1386862	keystroke	j	n/a
693.641	0.091	1387282	keystroke	u	n/a
693.762	0.105	1387524	keystroke	s	n/a
693.957	0.09	1387914	keystroke	t	n/a
694.062	0.105	1388124	keystroke	i	n/a
694.332	0.1195	1388664	keystroke	c	n/a
694.4365	0.18	1388873	keystroke	e	n/a
694.7965	0.075	1389593	keystroke	Key.enter	n/a
694.876	14.0825	1389752	prompt	n/a	commentary boxing anything arabic\n
