onset	duration	sample	value	key	prompt_text
18.8485	39.0565	37697	prompt	n/a	the quick brown fox jumps over a lazy dog\n
21.3505	0.013	42701	keystroke_t	t	n/a
21.5435	0.09	43087	keystroke_h	h	n/a
22.0985	0.105	44197	keystroke_e	e	n/a
22.5635	0.12	45127	keystroke_Key.space	Key.space	n/a
24.228	0.075	48456	keystroke_q	q	n/a
25.7425	0.106	51485	keystroke_u	u	n/a
25.9975	0.1205	51995	keystroke_i	i	n/a
26.658	0.075	53316	keystroke_c	c	n/a
26.973	0.09	53946	keystroke_k	k	n/a
27.348	0.105	54696	keystroke_Key.space	Key.space	n/a
28.218	0.06	56436	keystroke_b	b	n/a
28.548	0.06	57096	keystroke_r	r	n/a
29.208	0.015	58416	keystroke_o	o	n/a
29.688	0.09	59376	keystroke_w	w	n/a
30.018	0.075	60036	keystroke_n	n	n/a
30.5875	0.136	61175	keystroke_Key.space	Key.space	n/a
31.3985	0.0745	62797	keystroke_f	f	n/a
31.6685	0.0895	63337	keystroke_o	o	n/a
32.0585	0.104	64117	keystroke_x	x	n/a
32.4325	0.105	64865	keystroke_Key.space	Key.space	n/a
32.9125	0.045	65825	keystroke_j	j	n/a
33.1825	0.0905	66365	keystroke_u	u	n/a
33.468	0.105	66936	keystroke_m	m	n/a
33.873	0.135	67746	keystroke_p	p	n/a
34.3225	0.075	68645	keystroke_a	a	n/a
36.0325	0.075	72065	keystroke_Key.backspace	Key.backspace	n/a
37.2025	0.09	74405	keystroke_s	s	n/a
38.448	0.045	76896	keystroke_Key.space	Key.space	n/a
39.003	0.075	78006	keystroke_o	o	n/a
39.348	0.105	78696	keystroke_v	v	n/a
39.6475	0.135	79295	keystroke_e	e	n/a
39.9625	0.075	79925	keystroke_r	r	n/a
41.448	0.1045	82896	keystroke_Key.space	Key.space	n/a
41.883	0.105	83766	keystroke_a	a	n/a
45.2015	0.056	90403	keystroke_Key.space	Key.space	n/a
45.753	0.075	91506	keystroke_l	l	n/a
46.458	0.12	92916	keystroke_a	a	n/a
46.9825	0.12	93965	keystroke_z	z	n/a
47.3275	0.045	94655	keystroke_y	y	n/a
49.053	0.12	98106	keystroke_Key.space	Key.space	n/a
49.593	0.12	99186	keystroke_d	d	n/a
49.953	0.1045	99906	keystroke_i	i	n/a
51.5275	0.075	103055	keystroke_Key.backspace	Key.backspace	n/a
55.2355	0.042	110471	keystroke_o	o	n/a
56.042	0.075	112084	keystroke_g	g	n/a
57.768	0.134	115536	keystroke_Key.enter	Key.enter	n/a
57.909	37.1655	115818	prompt	n/a	advertisers gnome ieee hungarian\n
59.3125	0.12	118625	keystroke_a	a	n/a
59.6875	0.12	119375	keystroke_d	d	n/a
61.442	0.105	122884	keystroke_v	v	n/a
62.3725	0.105	124745	keystroke_e	e	n/a
62.6875	0.075	125375	keystroke_r	r	n/a
64.277	0.06	128554	keystroke_t	t	n/a
64.457	0.06	128914	keystroke_i	i	n/a
64.832	0.09	129664	keystroke_s	s	n/a
68.5255	0.042	137051	keystroke_e	e	n/a
68.8525	0.09	137705	keystroke_r	r	n/a
69.7225	0.105	139445	keystroke_s	s	n/a
70.2025	0.105	140405	keystroke_Key.space	Key.space	n/a
71.7175	0.09	143435	keystroke_g	g	n/a
72.047	0.1505	144094	keystroke_n	n	n/a
72.3475	0.105	144695	keystroke_o	o	n/a
73.6075	0.075	147215	keystroke_m	m	n/a
73.9825	0.105	147965	keystroke_e	e	n/a
75.228	0.1195	150456	keystroke_Key.space	Key.space	n/a
75.9625	0.075	151925	keystroke_l	l	n/a
77.5975	0.075	155195	keystroke_Key.backspace	Key.backspace	n/a
80.57	0.001	161140	keystroke_i	i	n/a
81.123	0.104	162246	keystroke_e	e	n/a
81.422	0.09	162844	keystroke_e	e	n/a
81.978	0.075	163956	keystroke_e	e	n/a
82.758	0.104	165516	keystroke_Key.space	Key.space	n/a
83.268	0.075	166536	keystroke_h	h	n/a
83.598	0.074	167196	keystroke_u	u	n/a
84.198	0.09	168396	keystroke_n	n	n/a
85.2025	0.09	170405	keystroke_g	g	n/a
85.952	0.135	171904	keystroke_a	a	n/a
86.372	0.076	172744	keystroke_r	r	n/a
89.8695	0.001	179739	keystroke_i	i	n/a
90.483	0.12	180966	keystroke_a	a	n/a
91.6075	0.09	183215	keystroke_n	n	n/a
95.0295	0.043	190059	keystroke_Key.enter	Key.enter	n/a
95.0775	27.3575	190155	prompt	n/a	strike oldest highs inspections\n
96.3775	0.135	192755	keystroke_s	s	n/a
96.7975	0.06	193595	keystroke_t	t	n/a
98.1775	0.09	196355	keystroke_r	r	n/a
98.4175	0.06	196835	keystroke_i	i	n/a
99.3775	0.075	198755	keystroke_k	k	n/a
99.6475	0.09	199295	keystroke_e	e	n/a
100.6375	0.105	201275	keystroke_Key.space	Key.space	n/a
101.6725	0.075	203345	keystroke_o	o	n/a
101.9875	0.105	203975	keystroke_l	l	n/a
102.3325	0.12	204665	keystroke_d	d	n/a
103.1125	0.105	206225	keystroke_e	e	n/a
103.8175	0.075	207635	keystroke_s	s	n/a
104.298	0.105	208596	keystroke_t	t	n/a
104.838	0.09	209676	keystroke_Key.space	Key.space	n/a
105.438	0.09	210876	keystroke_h	h	n/a
106.0075	0.075	212015	keystroke_i	i	n/a
106.8775	0.045	213755	keystroke_g	g	n/a
107.0125	0.06	214025	keystroke_h	h	n/a
107.298	0.075	214596	keystroke_t	t	n/a
109.7305	0.012	219461	keystroke_Key.backspace	Key.backspace	n/a
110.3425	0.09	220685	keystroke_s	s	n/a
111.4375	0.105	222875	keystroke_Key.space	Key.space	n/a
112.2775	0.09	224555	keystroke_i	i	n/a
112.6075	0.075	225215	keystroke_n	n	n/a
113.0275	0.105	226055	keystroke_s	s	n/a
114.8725	0.045	229745	keystroke_p	p	n/a
115.0825	0.09	230165	keystroke_e	e	n/a
116.2225	0.12	232445	keystroke_c	c	n/a
117.783	0.075	235566	keystroke_t	t	n/a
118.023	0.09	236046	keystroke_i	i	n/a
118.278	0.105	236556	keystroke_o	o	n/a
119.6275	0.1355	239255	keystroke_n	n	n/a
120.123	0.045	240246	keystroke_s	s	n/a
122.39	0.043	244780	keystroke_Key.enter	Key.enter	n/a
122.438	26.28	244876	prompt	n/a	technical presently helmet craig\n
123.753	0.075	247506	keystroke_t	t	n/a
124.068	0.09	248136	keystroke_e	e	n/a
124.563	0.09	249126	keystroke_c	c	n/a
125.148	0.045	250296	keystroke_h	h	n/a
125.748	0.135	251496	keystroke_n	n	n/a
126.0485	0.075	252097	keystroke_i	i	n/a
126.4075	0.09	252815	keystroke_c	c	n/a
127.188	0.1045	254376	keystroke_a	a	n/a
127.5475	0.12	255095	keystroke_l	l	n/a
128.0425	0.105	256085	keystroke_Key.space	Key.space	n/a
128.6425	0.105	257285	keystroke_p	p	n/a
128.9725	0.105	257945	keystroke_r	r	n/a
129.3025	0.09	258605	keystroke_e	e	n/a
129.6175	0.09	259235	keystroke_s	s	n/a
130.6075	0.075	261215	keystroke_e	e	n/a
131.3725	0.075	262745	keystroke_n	n	n/a
133.3235	0.06	266647	keystroke_t	t	n/a
133.6535	0.044	267307	keystroke_l	l	n/a
134.7175	0.075	269435	keystroke_y	y	n/a
135.6925	0.105	271385	keystroke_Key.space	Key.space	n/a
136.2025	0.06	272405	keystroke_h	h	n/a
136.4875	0.09	272975	keystroke_e	e	n/a
136.8335	0.074	273667	keystroke_l	l	n/a
138.3035	0.0745	276607	keystroke_m	m	n/a
138.618	0.09	277236	keystroke_e	e	n/a
139.458	0.045	278916	keystroke_t	t	n/a
140.088	0.135	280176	keystroke_Key.space	Key.space	n/a
140.703	0.06	281406	keystroke_c	c	n/a
141.438	0.06	282876	keystroke_r	r	n/a
142.8325	0.12	285665	keystroke_a	a	n/a
143.0735	0.075	286147	keystroke_i	i	n/a
143.4335	0.045	286867	keystroke_g	g	n/a
148.715	0.001	297430	keystroke_Key.enter	Key.enter	n/a
148.721	23.7245	297442	prompt	n/a	adults bible suggesting accounting\n
149.778	0.12	299556	keystroke_a	a	n/a
150.078	0.105	300156	keystroke_d	d	n/a
150.678	0.075	301356	keystroke_u	u	n/a
151.038	0.09	302076	keystroke_l	l	n/a
151.593	0.075	303186	keystroke_t	t	n/a
152.673	0.09	305346	keystroke_Key.space	Key.space	n/a
153.708	0.075	307416	keystroke_Key.backspace	Key.backspace	n/a
154.6975	0.075	309395	keystroke_s	s	n/a
155.2075	0.09	310415	keystroke_Key.space	Key.space	n/a
156.1375	0.075	312275	keystroke_b	b	n/a
156.4375	0.06	312875	keystroke_i	i	n/a
156.6025	0.075	313205	keystroke_b	b	n/a
157.7275	0.075	315455	keystroke_l	l	n/a
157.9375	0.075	315875	keystroke_e	e	n/a
158.538	0.09	317076	keystroke_Key.space	Key.space	n/a
158.8675	0.09	317735	keystroke_s	s	n/a
159.2425	0.075	318485	keystroke_u	u	n/a
159.5875	0.06	319175	keystroke_g	g	n/a
159.7525	0.09	319505	keystroke_g	g	n/a
160.0975	0.12	320195	keystroke_e	e	n/a
160.3835	0.1195	320767	keystroke_s	s	n/a
161.4335	0.0595	322867	keystroke_t	t	n/a
163.9255	0.001	327851	keystroke_i	i	n/a
164.208	0.0755	328416	keystroke_n	n	n/a
164.5525	0.076	329105	keystroke_g	g	n/a
165.723	0.1045	331446	keystroke_Key.space	Key.space	n/a
166.188	0.105	332376	keystroke_a	a	n/a
166.593	0.105	333186	keystroke_c	c	n/a
166.773	0.105	333546	keystroke_c	c	n/a
167.0135	0.09	334027	keystroke_o	o	n/a
167.298	0.06	334596	keystroke_u	u	n/a
167.673	0.075	335346	keystroke_n	n	n/a
168.033	0.06	336066	keystroke_t	t	n/a
169.6975	0.06	339395	keystroke_i	i	n/a
170.3435	0.075	340687	keystroke_n	n	n/a
170.973	0.0605	341946	keystroke_g	g	n/a
172.353	0.09	344706	keystroke_Key.enter	Key.enter	n/a
172.45	33.5205	344900	prompt	n/a	ireland government forbidden basis\n
173.6135	0.06	347227	keystroke_i	i	n/a
173.958	0.075	347916	keystroke_r	r	n/a
175.3985	0.075	350797	keystroke_l	l	n/a
176.718	0.015	353436	keystroke_Key.backspace	Key.backspace	n/a
177.438	0.075	354876	keystroke_e	e	n/a
178.6985	0.12	357397	keystroke_l	l	n/a
178.9085	0.105	357817	keystroke_a	a	n/a
179.4035	0.06	358807	keystroke_n	n	n/a
179.6885	0.0745	359377	keystroke_d	d	n/a
180.6475	0.091	361295	keystroke_Key.space	Key.space	n/a
181.2185	0.06	362437	keystroke_g	g	n/a
181.413	0.09	362826	keystroke_o	o	n/a
181.698	0.045	363396	keystroke_v	v	n/a
182.028	0.09	364056	keystroke_e	e	n/a
182.328	0.09	364656	keystroke_r	r	n/a
182.9585	0.075	365917	keystroke_n	n	n/a
183.993	0.06	367986	keystroke_m	m	n/a
184.2785	0.105	368557	keystroke_e	e	n/a
185.1335	0.06	370267	keystroke_n	n	n/a
185.8835	0.06	371767	keystroke_t	t	n/a
187.773	0.09	375546	keystroke_Key.space	Key.space	n/a
188.4485	0.09	376897	keystroke_f	f	n/a
188.7635	0.075	377527	keystroke_o	o	n/a
189.3035	0.09	378607	keystroke_r	r	n/a
190.3985	0.075	380797	keystroke_b	b	n/a
190.7285	0.075	381457	keystroke_i	i	n/a
191.028	0.075	382056	keystroke_d	d	n/a
191.208	0.09	382416	keystroke_d	d	n/a
192.858	0.09	385716	keystroke_e	e	n/a
193.3685	0.06	386737	keystroke_n	n	n/a
195.725	0.043	391450	keystroke_Key.space	Key.space	n/a
196.2185	0.075	392437	keystroke_b	b	n/a
197.7185	0.105	395437	keystroke_a	a	n/a
199.3985	0.1045	398797	keystroke_s	s	n/a
200.043	0.016	400086	keystroke_i	i	n/a
200.598	0.105	401196	keystroke_s	s	n/a
205.941	0.027	411882	keystroke_Key.enter	Key.enter	n/a
205.9845	33.484	411969	prompt	n/a	illegal vendors mats suppliers\n
207.364	0.074	414728	keystroke_i	i	n/a
208.0385	0.09	416077	keystroke_l	l	n/a
208.4135	0.075	416827	keystroke_l	l	n/a
209.3735	0.12	418747	keystroke_e	e	n/a
209.8535	0.045	419707	keystroke_g	g	n/a
210.2885	0.015	420577	keystroke_a	a	n/a
210.933	0.105	421866	keystroke_l	l	n/a
211.3985	0.09	422797	keystroke_Key.space	Key.space	n/a
211.8935	0.0755	423787	keystroke_v	v	n/a
212.254	0.12	424508	keystroke_e	e	n/a
214.0535	0.075	428107	keystroke_n	n	n/a
214.6385	0.09	429277	keystroke_d	d	n/a
215.4335	0.105	430867	keystroke_r	r	n/a
216.5135	0.075	433027	keystroke_o	o	n/a
219.2605	0.028	438521	keystroke_Key.backspace	Key.backspace	n/a
220.113	0.075	440226	keystroke_Key.backspace	Key.backspace	n/a
221.883	0.09	443766	keystroke_o	o	n/a
222.363	0.075	444726	keystroke_r	r	n/a
223.1585	0.09	446317	keystroke_s	s	n/a
223.699	0.15	447398	keystroke_Key.space	Key.space	n/a
224.3135	0.0755	448627	keystroke_m	m	n/a
224.5385	0.135	449077	keystroke_a	a	n/a
224.9435	0.09	449887	keystroke_t	t	n/a
226.878	0.106	453756	keystroke_s	s	n/a
227.719	0.105	455438	keystroke_Key.space	Key.space	n/a
228.259	0.09	456518	keystroke_s	s	n/a
228.784	0.105	457568	keystroke_u	u	n/a
229.2635	0.12	458527	keystroke_p	p	n/a
229.864	0.135	459728	keystroke_p	p	n/a
230.584	0.09	461168	keystroke_l	l	n/a
232.024	0.06	464048	keystroke_i	i	n/a
232.789	0.12	465578	keystroke_e	e	n/a
233.149	0.075	466298	keystroke_r	r	n/a
233.509	0.105	467018	keystroke_s	s	n/a
239.466	0.001	478932	keystroke_Key.enter	Key.enter	n/a
239.471	25.6745	478942	prompt	n/a	portions school rose charitable\n
240.7985	0.09	481597	keystroke_p	p	n/a
241.2935	0.09	482587	keystroke_o	o	n/a
242.3585	0.1055	484717	keystroke_r	r	n/a
242.7185	0.0605	485437	keystroke_t	t	n/a
242.929	0.105	485858	keystroke_i	i	n/a
243.154	0.105	486308	keystroke_o	o	n/a
243.904	0.09	487808	keystroke_n	n	n/a
245.148	0.06	490296	keystroke_s	s	n/a
245.584	0.104	491168	keystroke_Key.space	Key.space	n/a
246.1535	0.105	492307	keystroke_s	s	n/a
246.5135	0.09	493027	keystroke_c	c	n/a
246.7535	0.09	493507	keystroke_h	h	n/a
247.1135	0.075	494227	keystroke_o	o	n/a
247.2785	0.0895	494557	keystroke_o	o	n/a
247.789	0.075	495578	keystroke_l	l	n/a
248.5385	0.12	497077	keystroke_Key.space	Key.space	n/a
248.8985	0.075	497797	keystroke_r	r	n/a
249.0635	0.09	498127	keystroke_o	o	n/a
249.3935	0.075	498787	keystroke_s	s	n/a
249.6785	0.06	499357	keystroke_e	e	n/a
250.2935	0.1055	500587	keystroke_Key.space	Key.space	n/a
250.833	0.09	501666	keystroke_c	c	n/a
251.058	0.076	502116	keystroke_h	h	n/a
251.359	0.135	502718	keystroke_a	a	n/a
251.779	0.06	503558	keystroke_r	r	n/a
252.094	0.075	504188	keystroke_t	t	n/a
254.526	0.013	509052	keystroke_Key.backspace	Key.backspace	n/a
256.1285	0.06	512257	keystroke_i	i	n/a
258.546	0.013	517092	keystroke_t	t	n/a
258.919	0.12	517838	keystroke_a	a	n/a
260.2685	0.075	520537	keystroke_b	b	n/a
261.3035	0.075	522607	keystroke_l	l	n/a
261.6035	0.105	523207	keystroke_e	e	n/a
265.1165	0.027	530233	keystroke_Key.enter	Key.enter	n/a
265.1485	31.0925	530297	prompt	n/a	dispute ottawa category pathology\n
266.4185	0.09	532837	keystroke_d	d	n/a
266.7185	0.075	533437	keystroke_i	i	n/a
266.9735	0.075	533947	keystroke_s	s	n/a
267.904	0.105	535808	keystroke_p	p	n/a
268.219	0.075	536438	keystroke_u	u	n/a
268.5185	0.076	537037	keystroke_t	t	n/a
268.9385	0.091	537877	keystroke_e	e	n/a
270.334	0.09	540668	keystroke_Key.space	Key.space	n/a
271.639	0.075	543278	keystroke_o	o	n/a
272.044	0.06	544088	keystroke_t	t	n/a
272.224	0.075	544448	keystroke_t	t	n/a
273.6785	0.1355	547357	keystroke_a	a	n/a
274.684	0.09	549368	keystroke_w	w	n/a
275.029	0.105	550058	keystroke_a	a	n/a
275.914	0.105	551828	keystroke_Key.space	Key.space	n/a
276.559	0.105	553118	keystroke_c	c	n/a
276.844	0.135	553688	keystroke_a	a	n/a
277.339	0.0755	554678	keystroke_t	t	n/a
280.146	0.028	560292	keystroke_e	e	n/a
281.959	0.075	563918	keystroke_g	g	n/a
282.2595	0.105	564519	keystroke_o	o	n/a
282.574	0.075	565148	keystroke_r	r	n/a
282.8135	0.061	565627	keystroke_y	y	n/a
287.377	0.042	574754	keystroke_Key.space	Key.space	n/a
288.079	0.09	576158	keystroke_p	p	n/a
288.469	0.12	576938	keystroke_a	a	n/a
289.099	0.06	578198	keystroke_t	t	n/a
289.3545	0.075	578709	keystroke_h	h	n/a
291.9815	0.028	583963	keystroke_o	o	n/a
292.2195	0.09	584439	keystroke_l	l	n/a
292.4445	0.075	584889	keystroke_o	o	n/a
293.734	0.076	587468	keystroke_g	g	n/a
294.049	0.06	588098	keystroke_y	y	n/a
296.1965	0.043	592393	keystroke_Key.enter	Key.enter	n/a
296.244	40.1675	592488	prompt	n/a	scottish porsche sectors practitioner\n
297.3645	0.105	594729	keystroke_s	s	n/a
297.7545	0.075	595509	keystroke_c	c	n/a
298.2195	0.075	596439	keystroke_o	o	n/a
299.5845	0.045	599169	keystroke_t	t	n/a
299.9595	0.075	599919	keystroke_t	t	n/a
300.3495	0.06	600699	keystroke_i	i	n/a
300.6045	0.09	601209	keystroke_s	s	n/a
301.175	0.09	602350	keystroke_h	h	n/a
301.489	0.135	602978	keystroke_Key.space	Key.space	n/a
302.299	0.091	604598	keystroke_p	p	n/a
302.719	0.121	605438	keystroke_o	o	n/a
304.429	0.06	608858	keystroke_r	r	n/a
304.774	0.075	609548	keystroke_s	s	n/a
308.662	0.013	617324	keystroke_c	c	n/a
308.9	0.075	617800	keystroke_h	h	n/a
309.155	0.09	618310	keystroke_e	e	n/a
312.0815	0.043	624163	keystroke_Key.space	Key.space	n/a
312.395	0.119	624790	keystroke_s	s	n/a
312.754	0.091	625508	keystroke_e	e	n/a
313.085	0.105	626170	keystroke_c	c	n/a
313.505	0.075	627010	keystroke_t	t	n/a
314.09	0.1045	628180	keystroke_o	o	n/a
314.7645	0.09	629529	keystroke_r	r	n/a
315.1695	0.075	630339	keystroke_s	s	n/a
315.829	0.105	631658	keystroke_Key.space	Key.space	n/a
316.159	0.135	632318	keystroke_p	p	n/a
316.4295	0.135	632859	keystroke_a	a	n/a
316.895	0.105	633790	keystroke_r	r	n/a
318.29	0.06	636580	keystroke_Key.backspace	Key.backspace	n/a
318.8	0.06	637600	keystroke_Key.backspace	Key.backspace	n/a
320.089	0.09	640178	keystroke_r	r	n/a
320.449	0.12	640898	keystroke_a	a	n/a
321.9945	0.0905	643989	keystroke_c	c	n/a
322.94	0.075	645880	keystroke_t	t	n/a
326.527	0.001	653054	keystroke_i	i	n/a
326.81	0.045	653620	keystroke_t	t	n/a
332.092	0	664184	keystroke_i	i	n/a
332.5245	0.105	665049	keystroke_o	o	n/a
333.59	0.075	667180	keystroke_n	n	n/a
333.875	0.105	667750	keystroke_e	e	n/a
334.22	0.075	668440	keystroke_r	r	n/a
336.3735	0.036	672747	keystroke_Key.enter	Key.enter	n/a
336.416	19.795	672832	prompt	n/a	enterprises goto gone vast\n
337.61	0.06	675220	keystroke_e	e	n/a
337.925	0.06	675850	keystroke_n	n	n/a
339.05	0.09	678100	keystroke_t	t	n/a
339.17	0.135	678340	keystroke_e	e	n/a
339.41	0.075	678820	keystroke_r	r	n/a
339.9345	0.06	679869	keystroke_p	p	n/a
343.3275	0.027	686655	keystroke_r	r	n/a
344.2995	0.06	688599	keystroke_i	i	n/a
344.9145	0.121	689829	keystroke_s	s	n/a
345.2005	0.09	690401	keystroke_e	e	n/a
345.5595	0.105	691119	keystroke_s	s	n/a
346.61	0.105	693220	keystroke_Key.space	Key.space	n/a
347.285	0.09	694570	keystroke_g	g	n/a
347.555	0.105	695110	keystroke_o	o	n/a
348.155	0.06	696310	keystroke_t	t	n/a
348.695	0.075	697390	keystroke_o	o	n/a
349.4145	0.09	698829	keystroke_Key.space	Key.space	n/a
349.8045	0.09	699609	keystroke_g	g	n/a
350.06	0.105	700120	keystroke_o	o	n/a
350.345	0.0745	700690	keystroke_n	n	n/a
350.63	0.075	701260	keystroke_e	e	n/a
352.025	0.12	704050	keystroke_Key.space	Key.space	n/a
353.15	0.075	706300	keystroke_v	v	n/a
353.63	0.105	707260	keystroke_a	a	n/a
353.855	0.15	707710	keystroke_s	s	n/a
354.275	0.09	708550	keystroke_t	t	n/a
356.1195	0.09	712239	keystroke_Key.enter	Key.enter	n/a
356.2145	23.772	712429	prompt	n/a	attitudes compile substance himself\n
357.215	0.12	714430	keystroke_a	a	n/a
357.71	0.105	715420	keystroke_t	t	n/a
358.055	0.075	716110	keystroke_t	t	n/a
359.4805	0.059	718961	keystroke_i	i	n/a
360.1095	0.045	720219	keystroke_t	t	n/a
361.0245	0.075	722049	keystroke_u	u	n/a
361.3095	0.09	722619	keystroke_d	d	n/a
361.5795	0.06	723159	keystroke_e	e	n/a
362.3745	0.075	724749	keystroke_s	s	n/a
362.6295	0.09	725259	keystroke_Key.space	Key.space	n/a
363.4395	0.06	726879	keystroke_c	c	n/a
363.6345	0.1055	727269	keystroke_o	o	n/a
363.875	0.105	727750	keystroke_m	m	n/a
366.562	0.001	733124	keystroke_p	p	n/a
366.875	0.09	733750	keystroke_i	i	n/a
367.415	0.09	734830	keystroke_l	l	n/a
368.54	0.075	737080	keystroke_e	e	n/a
368.825	0.105	737650	keystroke_Key.space	Key.space	n/a
369.305	0.09	738610	keystroke_s	s	n/a
369.665	0.06	739330	keystroke_u	u	n/a
370.055	0.075	740110	keystroke_b	b	n/a
371.1795	0.075	742359	keystroke_s	s	n/a
371.5695	0.105	743139	keystroke_t	t	n/a
371.8845	0.12	743769	keystroke_a	a	n/a
372.1545	0.09	744309	keystroke_n	n	n/a
372.8445	0.105	745689	keystroke_c	c	n/a
373.43	0.12	746860	keystroke_e	e	n/a
373.76	0.09	747520	keystroke_Key.space	Key.space	n/a
374.6145	0.105	749229	keystroke_h	h	n/a
374.8545	0.105	749709	keystroke_i	i	n/a
375.1545	0.09	750309	keystroke_m	m	n/a
375.3945	0.1055	750789	keystroke_s	s	n/a
375.695	0.06	751390	keystroke_e	e	n/a
375.89	0.09	751780	keystroke_l	l	n/a
376.07	0.075	752140	keystroke_f	f	n/a
379.957	0.028	759914	keystroke_Key.enter	Key.enter	n/a
379.9895	20.517	759979	prompt	n/a	mobile propose charitable blackjack\n
381.2895	0.09	762579	keystroke_m	m	n/a
381.5745	0.075	763149	keystroke_o	o	n/a
381.9345	0.075	763869	keystroke_b	b	n/a
382.8955	0.059	765791	keystroke_i	i	n/a
383.1495	0.106	766299	keystroke_l	l	n/a
383.4345	0.075	766869	keystroke_e	e	n/a
384.65	0.12	769300	keystroke_Key.space	Key.space	n/a
385.1455	0.105	770291	keystroke_p	p	n/a
385.474	0.076	770948	keystroke_r	r	n/a
385.76	0.089	771520	keystroke_o	o	n/a
386.945	0.135	773890	keystroke_p	p	n/a
387.575	0.0745	775150	keystroke_o	o	n/a
387.9345	0.105	775869	keystroke_s	s	n/a
388.2345	0.075	776469	keystroke_e	e	n/a
388.58	0.074	777160	keystroke_Key.space	Key.space	n/a
389.45	0.09	778900	keystroke_c	c	n/a
389.585	0.089	779170	keystroke_h	h	n/a
389.839	0.136	779678	keystroke_a	a	n/a
390.184	0.0755	780368	keystroke_r	r	n/a
391.55	0.075	783100	keystroke_i	i	n/a
392.3745	0.0605	784749	keystroke_t	t	n/a
392.675	0.12	785350	keystroke_a	a	n/a
393.485	0.075	786970	keystroke_b	b	n/a
393.68	0.075	787360	keystroke_l	l	n/a
394.6695	0.06	789339	keystroke_e	e	n/a
395.1645	0.105	790329	keystroke_Key.space	Key.space	n/a
395.8695	0.06	791739	keystroke_b	b	n/a
396.0205	0.09	792041	keystroke_l	l	n/a
396.2905	0.1195	792581	keystroke_a	a	n/a
396.68	0.09	793360	keystroke_c	c	n/a
396.89	0.075	793780	keystroke_k	k	n/a
397.58	0.06	795160	keystroke_j	j	n/a
397.895	0.12	795790	keystroke_a	a	n/a
398.345	0.0745	796690	keystroke_c	c	n/a
398.5245	0.075	797049	keystroke_k	k	n/a
400.43	0.075	800860	keystroke_Key.enter	Key.enter	n/a
400.51	27.3265	801020	prompt	n/a	educators cite santa reporting\n
401.4795	0.105	802959	keystroke_e	e	n/a
401.8845	0.075	803769	keystroke_d	d	n/a
402.2745	0.045	804549	keystroke_u	u	n/a
403.1445	0.075	806289	keystroke_c	c	n/a
403.8195	0.12	807639	keystroke_a	a	n/a
404.3145	0.045	808629	keystroke_t	t	n/a
405.065	0.015	810130	keystroke_o	o	n/a
405.545	0.09	811090	keystroke_r	r	n/a
405.965	0.075	811930	keystroke_s	s	n/a
406.8495	0.0755	813699	keystroke_Key.space	Key.space	n/a
408.4545	0.075	816909	keystroke_c	c	n/a
409.0845	0.135	818169	keystroke_i	i	n/a
409.3995	0.075	818799	keystroke_t	t	n/a
409.7295	0.075	819459	keystroke_e	e	n/a
410.7645	0.105	821529	keystroke_Key.space	Key.space	n/a
411.125	0.105	822250	keystroke_s	s	n/a
412.01	0.06	824020	keystroke_n	n	n/a
413.4795	0.06	826959	keystroke_Key.backspace	Key.backspace	n/a
414.14	0.105	828280	keystroke_a	a	n/a
414.6345	0.075	829269	keystroke_n	n	n/a
416.1045	0.075	832209	keystroke_t	t	n/a
416.5395	0.105	833079	keystroke_a	a	n/a
417.335	0.089	834670	keystroke_Key.space	Key.space	n/a
417.784	0.105	835568	keystroke_r	r	n/a
418.054	0.105	836108	keystroke_e	e	n/a
420.8175	0.042	841635	keystroke_p	p	n/a
421.7295	0.12	843459	keystroke_o	o	n/a
422.7345	0.075	845469	keystroke_r	r	n/a
423.0645	0.045	846129	keystroke_t	t	n/a
423.6945	0.18	847389	keystroke_i	i	n/a
424.505	0.165	849010	keystroke_n	n	n/a
424.745	0.045	849490	keystroke_g	g	n/a
427.807	0.028	855614	keystroke_Key.enter	Key.enter	n/a
427.8395	18.192	855679	prompt	n/a	futures yarn there liable\n
430.5075	0.001	861015	keystroke_f	f	n/a
430.6845	0.075	861369	keystroke_u	u	n/a
431.0145	0.06	862029	keystroke_t	t	n/a
431.5395	0.075	863079	keystroke_u	u	n/a
432.3345	0.0905	864669	keystroke_r	r	n/a
432.59	0.12	865180	keystroke_e	e	n/a
432.965	0.09	865930	keystroke_s	s	n/a
433.46	0.105	866920	keystroke_Key.space	Key.space	n/a
434.1345	0.015	868269	keystroke_y	y	n/a
434.435	0.045	868870	keystroke_e	e	n/a
435.845	0.075	871690	keystroke_Key.backspace	Key.backspace	n/a
436.595	0.105	873190	keystroke_a	a	n/a
437.9445	0.0905	875889	keystroke_r	r	n/a
438.29	0.06	876580	keystroke_n	n	n/a
438.98	0.105	877960	keystroke_Key.space	Key.space	n/a
439.76	0.06	879520	keystroke_t	t	n/a
439.88	0.075	879760	keystroke_h	h	n/a
440.15	0.105	880300	keystroke_e	e	n/a
440.36	0.0745	880720	keystroke_r	r	n/a
440.5695	0.09	881139	keystroke_e	e	n/a
440.9595	0.105	881919	keystroke_Key.space	Key.space	n/a
441.59	0.1045	883180	keystroke_l	l	n/a
441.8745	0.075	883749	keystroke_i	i	n/a
442.2045	0.105	884409	keystroke_a	a	n/a
443.435	0.0895	886870	keystroke_b	b	n/a
443.8995	0.09	887799	keystroke_l	l	n/a
444.1545	0.075	888309	keystroke_e	e	n/a
445.94	0.09	891880	keystroke_Key.enter	Key.enter	n/a
446.035	20.396	892070	prompt	n/a	motorola champions souls who's\n
447.2445	0.105	894489	keystroke_m	m	n/a
447.5445	0.09	895089	keystroke_o	o	n/a
447.9045	0.06	895809	keystroke_t	t	n/a
448.5045	0.075	897009	keystroke_o	o	n/a
449.27	0.075	898540	keystroke_r	r	n/a
449.84	0.09	899680	keystroke_o	o	n/a
450.5	0.105	901000	keystroke_l	l	n/a
450.815	0.09	901630	keystroke_a	a	n/a
451.37	0.09	902740	keystroke_Key.space	Key.space	n/a
451.85	0.09	903700	keystroke_c	c	n/a
452.075	0.075	904150	keystroke_h	h	n/a
452.345	0.0895	904690	keystroke_a	a	n/a
452.6595	0.09	905319	keystroke_m	m	n/a
454.2345	0.12	908469	keystroke_p	p	n/a
455.96	0.105	911920	keystroke_i	i	n/a
456.2	0.09	912400	keystroke_o	o	n/a
456.875	0.075	913750	keystroke_n	n	n/a
457.4295	0.105	914859	keystroke_s	s	n/a
458.1795	0.075	916359	keystroke_Key.space	Key.space	n/a
458.719	0.016	917438	keystroke_s	s	n/a
458.854	0.091	917708	keystroke_o	o	n/a
459.335	0.089	918670	keystroke_u	u	n/a
459.6945	0.0905	919389	keystroke_l	l	n/a
460.52	0.09	921040	keystroke_s	s	n/a
461.375	0.045	922750	keystroke_Key.space	Key.space	n/a
461.8845	0.015	923769	keystroke_w	w	n/a
462.0345	0.06	924069	keystroke_h	h	n/a
462.6195	0.075	925239	keystroke_o	o	n/a
463.6695	0.105	927339	keystroke_'	'	n/a
464.69	0.09	929380	keystroke_s	s	n/a
466.3545	0.0755	932709	keystroke_Key.enter	Key.enter	n/a
466.4365	59.209	932873	prompt	n/a	false supreme mortality tropical\n
467.5695	0.075	935139	keystroke_f	f	n/a
467.9145	0.105	935829	keystroke_a	a	n/a
469.309	0.06	938618	keystroke_l	l	n/a
469.8195	0.09	939639	keystroke_s	s	n/a
470.4195	0.075	940839	keystroke_e	e	n/a
470.7645	0.12	941529	keystroke_Key.space	Key.space	n/a
471.1395	0.09	942279	keystroke_s	s	n/a
471.5295	0.075	943059	keystroke_u	u	n/a
471.905	0.135	943810	keystroke_p	p	n/a
473.0895	0.105	946179	keystroke_r	r	n/a
473.4045	0.09	946809	keystroke_e	e	n/a
473.5995	0.075	947199	keystroke_m	m	n/a
473.7795	0.105	947559	keystroke_e	e	n/a
474.8595	0.09	949719	keystroke_Key.space	Key.space	n/a
475.235	0.105	950470	keystroke_m	m	n/a
475.475	0.09	950950	keystroke_o	o	n/a
475.985	0.06	951970	keystroke_r	r	n/a
476.915	0.075	953830	keystroke_t	t	n/a
477.8445	0.075	955689	keystroke_a	a	n/a
478.7895	0.075	957579	keystroke_i	i	n/a
479.9895	0.015	959979	keystroke_l	l	n/a
481.07	0.06	962140	keystroke_i	i	n/a
481.64	0.075	963280	keystroke_t	t	n/a
481.835	0.075	963670	keystroke_y	y	n/a
493.2225	0.042	986445	keystroke_Key.backspace	Key.backspace	n/a
494.18	0.09	988360	keystroke_Key.backspace	Key.backspace	n/a
496.747	0.013	993494	keystroke_Key.backspace	Key.backspace	n/a
499.4925	0.0725	998985	keystroke_Key.backspace	Key.backspace	n/a
508.6275	0.013	1017255	keystroke_Key.backspace	Key.backspace	n/a
509.6605	0.03	1019321	keystroke_l	l	n/a
510.5155	0.075	1021031	keystroke_i	i	n/a
513.473	0.013	1026946	keystroke_t	t	n/a
513.98	0.0755	1027960	keystroke_y	y	n/a
514.715	0.09	1029430	keystroke_Key.space	Key.space	n/a
515.9005	0.075	1031801	keystroke_t	t	n/a
516.1855	0.06	1032371	keystroke_r	r	n/a
517.4905	0.165	1034981	keystroke_o	o	n/a
518.6605	0.135	1037321	keystroke_p	p	n/a
520.4605	0.06	1040921	keystroke_i	i	n/a
520.8055	0.09	1041611	keystroke_c	c	n/a
521.135	0.12	1042270	keystroke_a	a	n/a
522.17	0.0755	1044340	keystroke_k	k	n/a
523.64	0.075	1047280	keystroke_Key.backspace	Key.backspace	n/a
524.2555	0.09	1048511	keystroke_l	l	n/a
525.5605	0.075	1051121	keystroke_Key.enter	Key.enter	n/a
525.652	25.425	1051304	prompt	n/a	costume sudden pensions specifics\n
526.88	0.075	1053760	keystroke_c	c	n/a
527.165	0.075	1054330	keystroke_o	o	n/a
527.48	0.09	1054960	keystroke_s	s	n/a
528.9655	0.06	1057931	keystroke_t	t	n/a
529.1905	0.045	1058381	keystroke_u	u	n/a
529.4905	0.0745	1058981	keystroke_m	m	n/a
529.73	0.075	1059460	keystroke_e	e	n/a
530.615	0.105	1061230	keystroke_Key.space	Key.space	n/a
531.41	0.09	1062820	keystroke_s	s	n/a
531.725	0.06	1063450	keystroke_u	u	n/a
531.965	0.06	1063930	keystroke_d	d	n/a
532.205	0.03	1064410	keystroke_d	d	n/a
532.4905	0.075	1064981	keystroke_e	e	n/a
532.9855	0.075	1065971	keystroke_n	n	n/a
533.5555	0.12	1067111	keystroke_Key.space	Key.space	n/a
534.305	0.09	1068610	keystroke_p	p	n/a
534.53	0.075	1069060	keystroke_e	e	n/a
535.3555	0.09	1070711	keystroke_n	n	n/a
535.7605	0.09	1071521	keystroke_s	s	n/a
536.09	0.105	1072180	keystroke_i	i	n/a
536.36	0.105	1072720	keystroke_o	o	n/a
537.0955	0.075	1074191	keystroke_n	n	n/a
537.5455	0.09	1075091	keystroke_s	s	n/a
538.1305	0.09	1076261	keystroke_Key.space	Key.space	n/a
538.4155	0.09	1076831	keystroke_s	s	n/a
538.6105	0.105	1077221	keystroke_p	p	n/a
538.91	0.09	1077820	keystroke_e	e	n/a
539.435	0.135	1078870	keystroke_c	c	n/a
540.53	0.045	1081060	keystroke_i	i	n/a
540.8605	0.06	1081721	keystroke_f	f	n/a
541.7005	0.06	1083401	keystroke_i	i	n/a
542.69	0.09	1085380	keystroke_s	s	n/a
544.04	0.061	1088080	keystroke_Key.backspace	Key.backspace	n/a
544.55	0.09	1089100	keystroke_c	c	n/a
544.94	0.09	1089880	keystroke_s	s	n/a
551.033	0.042	1102066	keystroke_Key.enter	Key.enter	n/a
551.08	21.4625	1102160	prompt	n/a	draws copy gilbert elected\n
552.6355	0.0745	1105271	keystroke_d	d	n/a
552.95	0.105	1105900	keystroke_r	r	n/a
553.505	0.12	1107010	keystroke_a	a	n/a
553.85	0.075	1107700	keystroke_w	w	n/a
554.2855	0.06	1108571	keystroke_s	s	n/a
555.2605	0.105	1110521	keystroke_Key.space	Key.space	n/a
556.8955	0.09	1113791	keystroke_c	c	n/a
557.1955	0.075	1114391	keystroke_o	o	n/a
557.5255	0.105	1115051	keystroke_p	p	n/a
558.2005	0.09	1116401	keystroke_y	y	n/a
558.816	0.075	1117632	keystroke_Key.space	Key.space	n/a
559.671	0.075	1119342	keystroke_g	g	n/a
559.911	0.075	1119822	keystroke_i	i	n/a
560.211	0.105	1120422	keystroke_l	l	n/a
563.033	0.027	1126066	keystroke_b	b	n/a
563.255	0.12	1126510	keystroke_e	e	n/a
563.48	0.09	1126960	keystroke_r	r	n/a
563.7655	0.06	1127531	keystroke_t	t	n/a
564.726	0.09	1129452	keystroke_Key.space	Key.space	n/a
565.191	0.044	1130382	keystroke_e	e	n/a
565.356	0.09	1130712	keystroke_l	l	n/a
565.551	0.09	1131102	keystroke_e	e	n/a
565.971	0.09	1131942	keystroke_c	c	n/a
566.376	0.075	1132752	keystroke_t	t	n/a
566.6305	0.09	1133261	keystroke_e	e	n/a
566.8705	0.09	1133741	keystroke_d	d	n/a
569.2575	0.043	1138515	keystroke_Key.space	Key.space	n/a
571.295	0.0755	1142590	keystroke_Key.backspace	Key.backspace	n/a
572.4355	0.105	1144871	keystroke_Key.enter	Key.enter	n/a
572.5455	19.557	1145091	prompt	n/a	fountain exit clause please\n
573.696	0.075	1147392	keystroke_f	f	n/a
573.921	0.105	1147842	keystroke_o	o	n/a
574.5355	0.09	1149071	keystroke_u	u	n/a
574.8805	0.075	1149761	keystroke_n	n	n/a
575.4205	0.09	1150841	keystroke_t	t	n/a
576.1405	0.09	1152281	keystroke_a	a	n/a
576.3055	0.06	1152611	keystroke_i	i	n/a
576.5305	0.105	1153061	keystroke_n	n	n/a
577.0855	0.105	1154171	keystroke_Key.space	Key.space	n/a
577.626	0.075	1155252	keystroke_e	e	n/a
578.136	0.09	1156272	keystroke_x	x	n/a
578.6465	0.044	1157293	keystroke_i	i	n/a
578.9155	0.046	1157831	keystroke_t	t	n/a
580.026	0.015	1160052	keystroke_Key.space	Key.space	n/a
580.881	0.075	1161762	keystroke_c	c	n/a
581.106	0.0745	1162212	keystroke_l	l	n/a
583.146	0.12	1166292	keystroke_a	a	n/a
584.8555	0.045	1169711	keystroke_u	u	n/a
587.2275	0.013	1174455	keystroke_s	s	n/a
587.4655	0.105	1174931	keystroke_e	e	n/a
588.051	0.1045	1176102	keystroke_Key.space	Key.space	n/a
588.6205	0.09	1177241	keystroke_p	p	n/a
588.8755	0.135	1177751	keystroke_l	l	n/a
589.1905	0.06	1178381	keystroke_e	e	n/a
589.4455	0.105	1178891	keystroke_a	a	n/a
589.7005	0.105	1179401	keystroke_s	s	n/a
589.9855	0.06	1179971	keystroke_e	e	n/a
592.0105	0.09	1184021	keystroke_Key.enter	Key.enter	n/a
592.1055	52.9275	1184211	prompt	n/a	olympus scratch phentermine relationship\n
593.4655	0.12	1186931	keystroke_o	o	n/a
594.7105	0.105	1189421	keystroke_;	;	n/a
596.0755	0.09	1192151	keystroke_Key.backspace	Key.backspace	n/a
597.6955	0.075	1195391	keystroke_l	l	n/a
599.091	0.06	1198182	keystroke_y	y	n/a
600.516	0.045	1201032	keystroke_m	m	n/a
601.8805	0.15	1203761	keystroke_p	p	n/a
602.931	0.06	1205862	keystroke_u	u	n/a
603.336	0.105	1206672	keystroke_s	s	n/a
610.7785	0.028	1221557	keystroke_Key.space	Key.space	n/a
611.451	0.075	1222902	keystroke_s	s	n/a
611.796	0.09	1223592	keystroke_c	c	n/a
612.336	0.0745	1224672	keystroke_r	r	n/a
613.806	0.12	1227612	keystroke_a	a	n/a
614.6605	0.075	1229321	keystroke_t	t	n/a
616.3855	0.0905	1232771	keystroke_c	c	n/a
616.506	0.09	1233012	keystroke_h	h	n/a
617.1065	0.09	1234213	keystroke_Key.space	Key.space	n/a
617.736	0.12	1235472	keystroke_p	p	n/a
618.066	0.0755	1236132	keystroke_h	h	n/a
618.5455	0.076	1237091	keystroke_e	e	n/a
619.1465	0.075	1238293	keystroke_m	m	n/a
620.901	0.06	1241802	keystroke_Key.backspace	Key.backspace	n/a
621.516	0.075	1243032	keystroke_n	n	n/a
624.233	0.001	1248466	keystroke_t	t	n/a
625.176	0.075	1250352	keystroke_e	e	n/a
628.2835	0.028	1256567	keystroke_r	r	n/a
628.956	0.06	1257912	keystroke_m	m	n/a
630.201	0.09	1260402	keystroke_i	i	n/a
630.471	0.075	1260942	keystroke_n	n	n/a
630.906	0.075	1261812	keystroke_e	e	n/a
631.8805	0.075	1263761	keystroke_Key.space	Key.space	n/a
632.7355	0.075	1265471	keystroke_r	r	n/a
633.0205	0.075	1266041	keystroke_e	e	n/a
633.696	0.075	1267392	keystroke_l	l	n/a
634.3565	0.09	1268713	keystroke_a	a	n/a
635.9155	0.09	1271831	keystroke_t	t	n/a
636.2605	0.075	1272521	keystroke_i	i	n/a
636.726	0.045	1273452	keystroke_o	o	n/a
637.3255	0.06	1274651	keystroke_n	n	n/a
640.133	0.001	1280266	keystroke_s	s	n/a
640.311	0.075	1280622	keystroke_h	h	n/a
640.776	0.12	1281552	keystroke_i	i	n/a
641.9905	0.105	1283981	keystroke_p	p	n/a
644.9635	0.057	1289927	keystroke_Key.enter	Key.enter	n/a
645.0405	16.002	1290081	prompt	n/a	regional minerals standards leave\n
646.2955	0.09	1292591	keystroke_r	r	n/a
646.5355	0.09	1293071	keystroke_e	e	n/a
646.8805	0.075	1293761	keystroke_g	g	n/a
647.871	0.075	1295742	keystroke_i	i	n/a
648.141	0.135	1296282	keystroke_o	o	n/a
648.546	0.09	1297092	keystroke_n	n	n/a
648.951	0.075	1297902	keystroke_a	a	n/a
649.161	0.06	1298322	keystroke_l	l	n/a
649.431	0.09	1298862	keystroke_Key.space	Key.space	n/a
649.791	0.1195	1299582	keystroke_m	m	n/a
650.0905	0.12	1300181	keystroke_i	i	n/a
650.3755	0.09	1300751	keystroke_n	n	n/a
650.6455	0.09	1301291	keystroke_e	e	n/a
650.871	0.075	1301742	keystroke_r	r	n/a
651.216	0.09	1302432	keystroke_a	a	n/a
651.966	0.075	1303932	keystroke_l	l	n/a
652.746	0.105	1305492	keystroke_s	s	n/a
653.3005	0.09	1306601	keystroke_Key.space	Key.space	n/a
653.676	0.105	1307352	keystroke_s	s	n/a
654.021	0.075	1308042	keystroke_t	t	n/a
654.411	0.105	1308822	keystroke_a	a	n/a
655.206	0.075	1310412	keystroke_n	n	n/a
655.491	0.105	1310982	keystroke_d	d	n/a
655.911	0.1055	1311822	keystroke_a	a	n/a
656.3015	0.12	1312603	keystroke_r	r	n/a
657.1405	0.09	1314281	keystroke_d	d	n/a
657.4405	0.091	1314881	keystroke_s	s	n/a
657.8305	0.12	1315661	keystroke_Key.space	Key.space	n/a
658.1755	0.105	1316351	keystroke_l	l	n/a
658.4005	0.075	1316801	keystroke_e	e	n/a
658.7305	0.105	1317461	keystroke_a	a	n/a
659.3315	0.074	1318663	keystroke_v	v	n/a
659.571	0.09	1319142	keystroke_e	e	n/a
660.951	0.0895	1321902	keystroke_Key.enter	Key.enter	n/a
661.0455	12.972	1322091	prompt	n/a	commerce kissing mere washer\n
662.0765	0.089	1324153	keystroke_c	c	n/a
662.2705	0.076	1324541	keystroke_o	o	n/a
662.571	0.09	1325142	keystroke_m	m	n/a
662.721	0.0905	1325442	keystroke_m	m	n/a
663.9955	0.12	1327991	keystroke_e	e	n/a
664.3255	0.09	1328651	keystroke_r	r	n/a
664.896	0.1045	1329792	keystroke_c	c	n/a
665.1655	0.06	1330331	keystroke_e	e	n/a
666.2305	0.105	1332461	keystroke_Key.space	Key.space	n/a
666.7105	0.105	1333421	keystroke_k	k	n/a
666.9805	0.075	1333961	keystroke_i	i	n/a
667.2805	0.09	1334561	keystroke_s	s	n/a
667.4755	0.09	1334951	keystroke_s	s	n/a
668.2255	0.0755	1336451	keystroke_i	i	n/a
668.451	0.075	1336902	keystroke_n	n	n/a
668.661	0.075	1337322	keystroke_g	g	n/a
668.871	0.09	1337742	keystroke_Key.space	Key.space	n/a
669.441	0.09	1338882	keystroke_m	m	n/a
669.651	0.105	1339302	keystroke_e	e	n/a
669.876	0.0905	1339752	keystroke_r	r	n/a
670.1015	0.09	1340203	keystroke_e	e	n/a
670.3715	0.104	1340743	keystroke_Key.space	Key.space	n/a
671.1055	0.105	1342211	keystroke_w	w	n/a
671.4355	0.06	1342871	keystroke_a	a	n/a
671.6765	0.105	1343353	keystroke_s	s	n/a
671.8855	0.075	1343771	keystroke_h	h	n/a
672.501	0.12	1345002	keystroke_e	e	n/a
672.786	0.12	1345572	keystroke_r	r	n/a
673.9255	0.09	1347851	keystroke_Key.enter	Key.enter	n/a
674.0205	23.487	1348041	prompt	n/a	somerset coach forces emirates\n
675.0655	0.075	1350131	keystroke_s	s	n/a
675.2155	0.09	1350431	keystroke_o	o	n/a
675.456	0.09	1350912	keystroke_m	m	n/a
675.681	0.09	1351362	keystroke_e	e	n/a
677.406	0.105	1354812	keystroke_r	r	n/a
677.946	0.12	1355892	keystroke_s	s	n/a
678.2905	0.106	1356581	keystroke_e	e	n/a
678.666	0.09	1357332	keystroke_t	t	n/a
679.251	0.105	1358502	keystroke_Key.space	Key.space	n/a
679.986	0.09	1359972	keystroke_c	c	n/a
680.331	0.075	1360662	keystroke_o	o	n/a
680.751	0.105	1361502	keystroke_a	a	n/a
681.141	0.075	1362282	keystroke_c	c	n/a
681.306	0.06	1362612	keystroke_h	h	n/a
686.1385	0.027	1372277	keystroke_Key.space	Key.space	n/a
686.601	0.075	1373202	keystroke_f	f	n/a
686.931	0.09	1373862	keystroke_o	o	n/a
687.171	0.075	1374342	keystroke_r	r	n/a
687.516	0.06	1375032	keystroke_c	c	n/a
687.756	0.09	1375512	keystroke_e	e	n/a
688.266	0.075	1376532	keystroke_s	s	n/a
689.511	0.09	1379022	keystroke_Key.space	Key.space	n/a
690.7405	0.075	1381481	keystroke_e	e	n/a
690.9655	0.09	1381931	keystroke_m	m	n/a
691.596	0.075	1383192	keystroke_i	i	n/a
692.976	0.09	1385952	keystroke_r	r	n/a
693.771	0.09	1387542	keystroke_a	a	n/a
694.686	0.075	1389372	keystroke_t	t	n/a
694.971	0.09	1389942	keystroke_e	e	n/a
695.391	0.105	1390782	keystroke_s	s	n/a
697.446	0.06	1394892	keystroke_Key.enter	Key.enter	n/a
697.5105	19.647	1395021	prompt	n/a	adults semi exclusively keyword\n
698.346	0.135	1396692	keystroke_a	a	n/a
698.886	0.09	1397772	keystroke_d	d	n/a
699.171	0.075	1398342	keystroke_u	u	n/a
699.381	0.105	1398762	keystroke_l	l	n/a
699.651	0.06	1399302	keystroke_t	t	n/a
700.281	0.06	1400562	keystroke_s	s	n/a
700.431	0.075	1400862	keystroke_Key.space	Key.space	n/a
700.686	0.12	1401372	keystroke_s	s	n/a
700.971	0.06	1401942	keystroke_e	e	n/a
701.106	0.105	1402212	keystroke_m	m	n/a
701.586	0.09	1403172	keystroke_i	i	n/a
701.901	0.105	1403802	keystroke_Key.space	Key.space	n/a
702.351	0.075	1404702	keystroke_e	e	n/a
702.801	0.09	1405602	keystroke_x	x	n/a
705.1285	0	1410257	keystroke_c	c	n/a
705.2455	0.075	1410491	keystroke_l	l	n/a
705.7855	0.06	1411571	keystroke_u	u	n/a
706.731	0.075	1413462	keystroke_s	s	n/a
707.241	0.075	1414482	keystroke_i	i	n/a
707.991	0.06	1415982	keystroke_v	v	n/a
708.321	0.075	1416642	keystroke_e	e	n/a
708.546	0.09	1417092	keystroke_l	l	n/a
711.173	0.001	1422346	keystroke_y	y	n/a
711.846	0.075	1423692	keystroke_Key.space	Key.space	n/a
712.611	0.06	1425222	keystroke_k	k	n/a
713.031	0.06	1426062	keystroke_e	e	n/a
713.196	0.06	1426392	keystroke_y	y	n/a
713.496	0.075	1426992	keystroke_w	w	n/a
713.691	0.075	1427382	keystroke_o	o	n/a
714.201	0.09	1428402	keystroke_r	r	n/a
714.546	0.09	1429092	keystroke_d	d	n/a
717.143	0.013	1434286	keystroke_Key.enter	Key.enter	n/a
717.1605	27.0905	1434321	prompt	n/a	edwards wider pursuant cottages\n
718.3255	0.09	1436651	keystroke_e	e	n/a
718.7015	0.089	1437403	keystroke_d	d	n/a
719.2105	0.075	1438421	keystroke_w	w	n/a
719.7505	0.015	1439501	keystroke_a	a	n/a
720.0655	0.075	1440131	keystroke_r	r	n/a
720.8615	0.09	1441723	keystroke_s	s	n/a
722.346	0.0445	1444692	keystroke_Key.backspace	Key.backspace	n/a
722.8405	0.09	1445681	keystroke_d	d	n/a
723.156	0.075	1446312	keystroke_s	s	n/a
723.966	0.105	1447932	keystroke_Key.space	Key.space	n/a
724.326	0.0895	1448652	keystroke_w	w	n/a
724.5805	0.03	1449161	keystroke_i	i	n/a
724.7455	0.09	1449491	keystroke_d	d	n/a
724.9705	0.09	1449941	keystroke_e	e	n/a
725.1955	0.075	1450391	keystroke_r	r	n/a
730.043	0.013	1460086	keystroke_Key.space	Key.space	n/a
731.046	0.09	1462092	keystroke_p	p	n/a
731.6305	0.075	1463261	keystroke_u	u	n/a
731.9905	0.09	1463981	keystroke_r	r	n/a
733.4905	0.1055	1466981	keystroke_s	s	n/a
734.9455	0.06	1469891	keystroke_u	u	n/a
735.2005	0.09	1470401	keystroke_a	a	n/a
735.981	0.045	1471962	keystroke_n	n	n/a
736.206	0.075	1472412	keystroke_t	t	n/a
736.506	0.12	1473012	keystroke_Key.space	Key.space	n/a
737.316	0.075	1474632	keystroke_c	c	n/a
737.661	0.09	1475322	keystroke_o	o	n/a
737.961	0.075	1475922	keystroke_t	t	n/a
738.1415	0.0745	1476283	keystroke_t	t	n/a
738.8765	0.075	1477753	keystroke_a	a	n/a
739.4315	0.0595	1478863	keystroke_g	g	n/a
739.821	0.015	1479642	keystroke_e	e	n/a
740.226	0.03	1480452	keystroke_s	s	n/a
744.234	0.012	1488468	keystroke_Key.enter	Key.enter	n/a
744.256	20.5415	1488512	prompt	n/a	strips database ridge modular\n
745.311	0.075	1490622	keystroke_s	s	n/a
745.671	0.09	1491342	keystroke_t	t	n/a
745.9865	0.0595	1491973	keystroke_r	r	n/a
747.3365	0.09	1494673	keystroke_i	i	n/a
748.206	0.105	1496412	keystroke_p	p	n/a
748.641	0.105	1497282	keystroke_s	s	n/a
749.1065	0.105	1498213	keystroke_Key.space	Key.space	n/a
750.1415	0.09	1500283	keystroke_d	d	n/a
750.3965	0.135	1500793	keystroke_a	a	n/a
751.1315	0.135	1502263	keystroke_t	t	n/a
751.6115	0.1495	1503223	keystroke_a	a	n/a
752.9465	0.075	1505893	keystroke_b	b	n/a
753.336	0.12	1506672	keystroke_a	a	n/a
753.696	0.105	1507392	keystroke_s	s	n/a
753.996	0.075	1507992	keystroke_e	e	n/a
755.391	0.015	1510782	keystroke_Key.space	Key.space	n/a
756.096	0.075	1512192	keystroke_r	r	n/a
756.501	0.06	1513002	keystroke_i	i	n/a
756.906	0.075	1513812	keystroke_d	d	n/a
757.236	0.075	1514472	keystroke_g	g	n/a
757.581	0.09	1515162	keystroke_e	e	n/a
758.511	0.1045	1517022	keystroke_Key.space	Key.space	n/a
758.946	0.12	1517892	keystroke_m	m	n/a
759.246	0.09	1518492	keystroke_o	o	n/a
759.576	0.06	1519152	keystroke_d	d	n/a
760.221	0.0755	1520442	keystroke_u	u	n/a
760.9115	0.075	1521823	keystroke_l	l	n/a
761.436	0.105	1522872	keystroke_a	a	n/a
761.916	0.12	1523832	keystroke_r	r	n/a
764.783	0.013	1529566	keystroke_Key.enter	Key.enter	n/a
764.8005	16.827	1529601	prompt	n/a	whale rolling called bracelets\n
765.8615	0.075	1531723	keystroke_w	w	n/a
765.9965	0.075	1531993	keystroke_h	h	n/a
766.2215	0.105	1532443	keystroke_a	a	n/a
766.986	0.075	1533972	keystroke_l	l	n/a
767.286	0.075	1534572	keystroke_e	e	n/a
768.1415	0.09	1536283	keystroke_Key.space	Key.space	n/a
768.666	0.075	1537332	keystroke_r	r	n/a
768.921	0.0605	1537842	keystroke_o	o	n/a
769.2065	0.045	1538413	keystroke_l	l	n/a
769.3415	0.075	1538683	keystroke_l	l	n/a
769.6865	0.09	1539373	keystroke_i	i	n/a
769.9565	0.089	1539913	keystroke_n	n	n/a
770.2115	0.06	1540423	keystroke_g	g	n/a
770.871	0.105	1541742	keystroke_Key.space	Key.space	n/a
771.7865	0.09	1543573	keystroke_c	c	n/a
772.1015	0.1045	1544203	keystroke_a	a	n/a
772.371	0.075	1544742	keystroke_l	l	n/a
772.506	0.105	1545012	keystroke_l	l	n/a
772.701	0.075	1545402	keystroke_e	e	n/a
772.926	0.06	1545852	keystroke_d	d	n/a
773.091	0.075	1546182	keystroke_Key.space	Key.space	n/a
774.201	0.09	1548402	keystroke_b	b	n/a
774.636	0.045	1549272	keystroke_r	r	n/a
775.176	0.105	1550352	keystroke_a	a	n/a
776.4365	0.075	1552873	keystroke_c	c	n/a
776.8565	0.105	1553713	keystroke_e	e	n/a
777.2315	0.09	1554463	keystroke_l	l	n/a
778.476	0.09	1556952	keystroke_e	e	n/a
779.121	0.075	1558242	keystroke_t	t	n/a
780.2615	0.089	1560523	keystroke_s	s	n/a
781.566	0.06	1563132	keystroke_Key.enter	Key.enter	n/a
781.6305	13.497	1563261	prompt	n/a	wireless condition sold no\n
782.7665	0.075	1565533	keystroke_w	w	n/a
783.1565	0.045	1566313	keystroke_i	i	n/a
783.4115	0.09	1566823	keystroke_r	r	n/a
783.7565	0.0895	1567513	keystroke_e	e	n/a
784.6105	0.061	1569221	keystroke_l	l	n/a
784.8965	0.075	1569793	keystroke_e	e	n/a
785.1805	0.045	1570361	keystroke_s	s	n/a
785.3315	0.074	1570663	keystroke_s	s	n/a
785.6455	0.091	1571291	keystroke_Key.space	Key.space	n/a
786.276	0.0605	1572552	keystroke_c	c	n/a
786.4265	0.074	1572853	keystroke_o	o	n/a
786.7265	0.06	1573453	keystroke_n	n	n/a
787.1305	0.0605	1574261	keystroke_d	d	n/a
788.481	0.0755	1576962	keystroke_i	i	n/a
789.2015	0.09	1578403	keystroke_t	t	n/a
789.5465	0.12	1579093	keystroke_i	i	n/a
789.8015	0.149	1579603	keystroke_o	o	n/a
790.5055	0.075	1581011	keystroke_n	n	n/a
790.911	0.06	1581822	keystroke_Key.space	Key.space	n/a
791.1355	0.076	1582271	keystroke_s	s	n/a
791.2715	0.09	1582543	keystroke_o	o	n/a
791.6465	0.0745	1583293	keystroke_l	l	n/a
791.871	0.09	1583742	keystroke_d	d	n/a
792.4715	0.06	1584943	keystroke_Key.space	Key.space	n/a
792.9215	0.09	1585843	keystroke_n	n	n/a
793.1915	0.105	1586383	keystroke_o	o	n/a
795.111	0.015	1590222	keystroke_Key.enter	Key.enter	n/a
795.131	24.747	1590262	prompt	n/a	mysql highway jackie managers\n
796.1765	0.06	1592353	keystroke_m	m	n/a
796.6415	0.075	1593283	keystroke_y	y	n/a
797.556	0.09	1595112	keystroke_s	s	n/a
798.2465	0.12	1596493	keystroke_q	q	n/a
799.221	0.09	1598442	keystroke_l	l	n/a
799.821	0.045	1599642	keystroke_Key.space	Key.space	n/a
802.674	0.012	1605348	keystroke_h	h	n/a
802.9265	0.045	1605853	keystroke_i	i	n/a
803.2865	0.075	1606573	keystroke_g	g	n/a
803.4665	0.0595	1606933	keystroke_h	h	n/a
804.6065	0.105	1609213	keystroke_w	w	n/a
804.906	0.015	1609812	keystroke_w	w	n/a
806.046	0.075	1612092	keystroke_Key.backspace	Key.backspace	n/a
806.481	0.09	1612962	keystroke_a	a	n/a
806.691	0.06	1613382	keystroke_y	y	n/a
807.606	0.0905	1615212	keystroke_Key.space	Key.space	n/a
808.1915	0.06	1616383	keystroke_j	j	n/a
808.4315	0.105	1616863	keystroke_a	a	n/a
808.7915	0.09	1617583	keystroke_c	c	n/a
809.0305	0.075	1618061	keystroke_k	k	n/a
809.5415	0.074	1619083	keystroke_i	i	n/a
810.351	0.061	1620702	keystroke_e	e	n/a
810.771	0.09	1621542	keystroke_Key.space	Key.space	n/a
814.1785	0.013	1628357	keystroke_m	m	n/a
814.3865	0.09	1628773	keystroke_a	a	n/a
815.0015	0.06	1630003	keystroke_n	n	n/a
815.2715	0.105	1630543	keystroke_a	a	n/a
816.9965	0.0745	1633993	keystroke_g	g	n/a
817.3105	0.105	1634621	keystroke_e	e	n/a
817.5805	0.0905	1635161	keystroke_r	r	n/a
818.2105	0.09	1636421	keystroke_s	s	n/a
819.7855	0.09	1639571	keystroke_Key.enter	Key.enter	n/a
819.881	37.362	1639762	prompt	n/a	institutions croatia corrections rule\n
821.121	0.075	1642242	keystroke_i	i	n/a
821.391	0.075	1642782	keystroke_n	n	n/a
822.081	0.09	1644162	keystroke_s	s	n/a
823.026	0.06	1646052	keystroke_t	t	n/a
823.9865	0.06	1647973	keystroke_i	i	n/a
824.676	0.075	1649352	keystroke_t	t	n/a
828.1885	0.0125	1656377	keystroke_u	u	n/a
830.408	0.028	1660816	keystroke_t	t	n/a
831.1865	0.075	1662373	keystroke_i	i	n/a
831.3665	0.09	1662733	keystroke_o	o	n/a
832.071	0.075	1664142	keystroke_n	n	n/a
832.4165	0.09	1664833	keystroke_s	s	n/a
832.7015	0.105	1665403	keystroke_Key.space	Key.space	n/a
833.616	0.075	1667232	keystroke_c	c	n/a
833.961	0.0905	1667922	keystroke_r	r	n/a
834.2615	0.09	1668523	keystroke_o	o	n/a
835.7755	0.136	1671551	keystroke_a	a	n/a
836.871	0.075	1673742	keystroke_t	t	n/a
837.321	0.06	1674642	keystroke_i	i	n/a
837.636	0.09	1675272	keystroke_a	a	n/a
839.076	0.09	1678152	keystroke_Key.space	Key.space	n/a
844.359	0.0275	1688718	keystroke_c	c	n/a
844.4765	0.09	1688953	keystroke_o	o	n/a
844.776	0.06	1689552	keystroke_r	r	n/a
844.926	0.09	1689852	keystroke_r	r	n/a
846.0215	0.075	1692043	keystroke_e	e	n/a
846.4265	0.12	1692853	keystroke_c	c	n/a
846.9515	0.075	1693903	keystroke_t	t	n/a
847.3265	0.12	1694653	keystroke_i	i	n/a
847.5215	0.135	1695043	keystroke_o	o	n/a
847.7765	0.09	1695553	keystroke_n	n	n/a
848.0615	0.09	1696123	keystroke_s	s	n/a
849.2765	0.105	1698553	keystroke_Key.space	Key.space	n/a
850.0415	0.075	1700083	keystroke_r	r	n/a
850.2515	0.09	1700503	keystroke_u	u	n/a
850.491	0.105	1700982	keystroke_l	l	n/a
850.746	0.06	1701492	keystroke_e	e	n/a
857.2285	0.013	1714457	keystroke_Key.enter	Key.enter	n/a
857.246	36.613	1714492	prompt	n/a	prompt portraits observation connected\n
858.5015	0.12	1717003	keystroke_p	p	n/a
858.8015	0.09	1717603	keystroke_r	r	n/a
859.0565	0.06	1718113	keystroke_o	o	n/a
859.3865	0.075	1718773	keystroke_m	m	n/a
860.1215	0.09	1720243	keystroke_p	p	n/a
860.4215	0.06	1720843	keystroke_t	t	n/a
860.9015	0.09	1721803	keystroke_Key.space	Key.space	n/a
861.5165	0.09	1723033	keystroke_p	p	n/a
861.8165	0.09	1723633	keystroke_o	o	n/a
862.206	0.09	1724412	keystroke_r	r	n/a
862.492	0.075	1724984	keystroke_t	t	n/a
865.659	0.028	1731318	keystroke_r	r	n/a
865.866	0.12	1731732	keystroke_a	a	n/a
867.306	0.045	1734612	keystroke_i	i	n/a
867.502	0.074	1735004	keystroke_t	t	n/a
867.922	0.09	1735844	keystroke_s	s	n/a
868.341	0.1055	1736682	keystroke_Key.space	Key.space	n/a
868.7315	0.09	1737463	keystroke_a	a	n/a
869.632	0.0595	1739264	keystroke_Key.backspace	Key.backspace	n/a
870.1865	0.06	1740373	keystroke_o	o	n/a
870.6365	0.045	1741273	keystroke_b	b	n/a
871.9565	0.135	1743913	keystroke_e	e	n/a
873.711	0.0905	1747422	keystroke_Key.backspace	Key.backspace	n/a
874.086	0.09	1748172	keystroke_s	s	n/a
874.356	0.1055	1748712	keystroke_e	e	n/a
874.6565	0.09	1749313	keystroke_r	r	n/a
875.0915	0.09	1750183	keystroke_v	v	n/a
875.767	0.105	1751534	keystroke_a	a	n/a
876.142	0.075	1752284	keystroke_t	t	n/a
876.322	0.0895	1752644	keystroke_i	i	n/a
876.5315	0.075	1753063	keystroke_o	o	n/a
877.2215	0.075	1754443	keystroke_n	n	n/a
878.0615	0.09	1756123	keystroke_Key.space	Key.space	n/a
878.7815	0.0905	1757563	keystroke_c	c	n/a
878.9915	0.075	1757983	keystroke_o	o	n/a
879.307	0.0595	1758614	keystroke_n	n	n/a
879.4565	0.075	1758913	keystroke_n	n	n/a
879.7565	0.075	1759513	keystroke_e	e	n/a
880.0265	0.09	1760053	keystroke_c	c	n/a
880.4315	0.06	1760863	keystroke_t	t	n/a
880.5665	0.09	1761133	keystroke_i	i	n/a
880.7615	0.075	1761523	keystroke_o	o	n/a
881.632	0.075	1763264	keystroke_n	n	n/a
885.429	0.001	1770858	keystroke_Key.backspace	Key.backspace	n/a
886.4315	0.09	1772863	keystroke_Key.backspace	Key.backspace	n/a
888.4415	0.075	1776883	keystroke_Key.backspace	Key.backspace	n/a
889.882	0.06	1779764	keystroke_e	e	n/a
890.137	0.09	1780274	keystroke_d	d	n/a
893.829	0.028	1787658	keystroke_Key.enter	Key.enter	n/a
893.862	40.1215	1787724	prompt	n/a	feelings cadillac trace central\n
894.937	0.0895	1789874	keystroke_f	f	n/a
895.2515	0.09	1790503	keystroke_e	e	n/a
895.4165	0.105	1790833	keystroke_e	e	n/a
895.6865	0.09	1791373	keystroke_l	l	n/a
895.957	0.075	1791914	keystroke_i	i	n/a
896.2125	0.075	1792425	keystroke_n	n	n/a
896.4365	0.076	1792873	keystroke_g	g	n/a
897.1425	0.089	1794285	keystroke_s	s	n/a
897.3515	0.075	1794703	keystroke_Key.space	Key.space	n/a
898.0715	0.075	1796143	keystroke_c	c	n/a
898.3715	0.12	1796743	keystroke_a	a	n/a
898.7915	0.06	1797583	keystroke_d	d	n/a
902.0945	0.042	1804189	keystroke_i	i	n/a
903.2315	0.09	1806463	keystroke_l	l	n/a
912.564	0.043	1825128	keystroke_a	a	n/a
914.7395	0.013	1829479	keystroke_Key.backspace	Key.backspace	n/a
916.1615	0.075	1832323	keystroke_l	l	n/a
917.153	0.09	1834306	keystroke_a	a	n/a
917.9165	0.09	1835833	keystroke_c	c	n/a
918.9375	0.12	1837875	keystroke_Key.space	Key.space	n/a
920.0475	0.105	1840095	keystroke_t	t	n/a
920.2875	0.075	1840575	keystroke_r	r	n/a
920.5725	0.119	1841145	keystroke_a	a	n/a
920.8865	0.105	1841773	keystroke_c	c	n/a
921.172	0.075	1842344	keystroke_e	e	n/a
927.985	0.027	1855970	keystroke_Key.space	Key.space	n/a
928.627	0.045	1857254	keystroke_c	c	n/a
928.852	0.09	1857704	keystroke_e	e	n/a
929.497	0.075	1858994	keystroke_n	n	n/a
930.862	0.09	1861724	keystroke_t	t	n/a
931.387	0.09	1862774	keystroke_r	r	n/a
932.5875	0.105	1865175	keystroke_a	a	n/a
932.7975	0.09	1865595	keystroke_l	l	n/a
933.9075	0.075	1867815	keystroke_Key.enter	Key.enter	n/a
933.9865	23.3075	1867973	prompt	n/a	finland chaos foundations nudist\n
935.3475	0.045	1870695	keystroke_f	f	n/a
935.4825	0.075	1870965	keystroke_i	i	n/a
935.723	0.0745	1871446	keystroke_n	n	n/a
936.0075	0.075	1872015	keystroke_l	l	n/a
936.2475	0.105	1872495	keystroke_a	a	n/a
936.4875	0.075	1872975	keystroke_n	n	n/a
936.7425	0.075	1873485	keystroke_d	d	n/a
937.8375	0.09	1875675	keystroke_Key.space	Key.space	n/a
938.3025	0.09	1876605	keystroke_c	c	n/a
938.4825	0.075	1876965	keystroke_h	h	n/a
942.73	0.001	1885460	keystroke_a	a	n/a
943.102	0.09	1886204	keystroke_o	o	n/a
943.837	0.0905	1887674	keystroke_s	s	n/a
944.4075	0.075	1888815	keystroke_Key.space	Key.space	n/a
945.1425	0.015	1890285	keystroke_f	f	n/a
945.2175	0.105	1890435	keystroke_o	o	n/a
945.5325	0.06	1891065	keystroke_u	u	n/a
946.1175	0.06	1892235	keystroke_n	n	n/a
947.453	0.105	1894906	keystroke_d	d	n/a
947.828	0.12	1895656	keystroke_a	a	n/a
950.77	0.001	1901540	keystroke_t	t	n/a
950.872	0.091	1901744	keystroke_i	i	n/a
951.053	0.105	1902106	keystroke_o	o	n/a
951.968	0.06	1903936	keystroke_n	n	n/a
952.268	0.075	1904536	keystroke_s	s	n/a
952.463	0.105	1904926	keystroke_Key.space	Key.space	n/a
953.258	0.06	1906516	keystroke_n	n	n/a
953.723	0.075	1907446	keystroke_u	u	n/a
954.068	0.06	1908136	keystroke_d	d	n/a
954.982	0.045	1909964	keystroke_i	i	n/a
955.6875	0.09	1911375	keystroke_s	s	n/a
956.107	0.075	1912214	keystroke_t	t	n/a
957.218	0.075	1914436	keystroke_Key.enter	Key.enter	n/a
957.298	24.524	1914596	prompt	n/a	span singles holy demands\n
958.2375	0.105	1916475	keystroke_s	s	n/a
958.4475	0.09	1916895	keystroke_p	p	n/a
958.7175	0.105	1917435	keystroke_a	a	n/a
958.9575	0.075	1917915	keystroke_n	n	n/a
959.6025	0.09	1919205	keystroke_Key.space	Key.space	n/a
959.9325	0.105	1919865	keystroke_s	s	n/a
960.1575	0.075	1920315	keystroke_i	i	n/a
960.3975	0.075	1920795	keystroke_n	n	n/a
960.698	0.075	1921396	keystroke_g	g	n/a
962.9505	0.012	1925901	keystroke_l	l	n/a
963.0825	0.09	1926165	keystroke_e	e	n/a
963.4125	0.075	1926825	keystroke_s	s	n/a
963.6375	0.06	1927275	keystroke_Key.space	Key.space	n/a
964.1925	0.075	1928385	keystroke_h	h	n/a
964.4475	0.105	1928895	keystroke_o	o	n/a
964.7775	0.06	1929555	keystroke_y	y	n/a
965.0625	0.09	1930125	keystroke_Key.space	Key.space	n/a
966.8625	0.075	1933725	keystroke_Key.backspace	Key.backspace	n/a
967.5525	0.06	1935105	keystroke_Key.backspace	Key.backspace	n/a
968.5875	0.075	1937175	keystroke_l	l	n/a
968.9775	0.075	1937955	keystroke_y	y	n/a
969.8175	0.0895	1939635	keystroke_Key.space	Key.space	n/a
970.372	0.075	1940744	keystroke_d	d	n/a
970.612	0.075	1941224	keystroke_e	e	n/a
972.1875	0.09	1944375	keystroke_m	m	n/a
972.592	0.076	1945184	keystroke_a	a	n/a
972.848	0.074	1945696	keystroke_n	n	n/a
973.942	0.075	1947884	keystroke_d	d	n/a
974.647	0.09	1949294	keystroke_s	s	n/a
981.8055	0.012	1963611	keystroke_Key.enter	Key.enter	n/a
981.822	28.546	1963644	prompt	n/a	flour further unauthorized thesaurus\n
983.1375	0.06	1966275	keystroke_f	f	n/a
983.2575	0.105	1966515	keystroke_l	l	n/a
983.528	0.075	1967056	keystroke_o	o	n/a
984.113	0.105	1968226	keystroke_u	u	n/a
984.9085	0.075	1969817	keystroke_r	r	n/a
985.3125	0.105	1970625	keystroke_Key.space	Key.space	n/a
985.6125	0.06	1971225	keystroke_f	f	n/a
986.2725	0.06	1972545	keystroke_u	u	n/a
987.6825	0.12	1975365	keystroke_r	r	n/a
987.9225	0.06	1975845	keystroke_t	t	n/a
988.0425	0.075	1976085	keystroke_h	h	n/a
988.2825	0.09	1976565	keystroke_e	e	n/a
988.523	0.075	1977046	keystroke_r	r	n/a
989.393	0.09	1978786	keystroke_Key.space	Key.space	n/a
989.888	0.075	1979776	keystroke_u	u	n/a
990.188	0.06	1980376	keystroke_n	n	n/a
991.598	0.075	1983196	keystroke_a	a	n/a
992.228	0.06	1984456	keystroke_u	u	n/a
992.963	0.075	1985926	keystroke_t	t	n/a
993.068	0.075	1986136	keystroke_h	h	n/a
993.7425	0.045	1987485	keystroke_o	o	n/a
994.583	0.075	1989166	keystroke_r	r	n/a
996.128	0.06	1992256	keystroke_i	i	n/a
996.938	0.105	1993876	keystroke_z	z	n/a
997.253	0.09	1994506	keystroke_e	e	n/a
997.508	0.09	1995016	keystroke_d	d	n/a
998.2725	0.075	1996545	keystroke_Key.space	Key.space	n/a
999.2925	0.015	1998585	keystroke_t	t	n/a
999.3825	0.075	1998765	keystroke_h	h	n/a
999.923	0.09	1999846	keystroke_e	e	n/a
1000.913	0.105	2001826	keystroke_s	s	n/a
1001.273	0.105	2002546	keystroke_a	a	n/a
1003.2825	0.075	2006565	keystroke_u	u	n/a
1003.5525	0.09	2007105	keystroke_r	r	n/a
1006.555	0.013	2013110	keystroke_u	u	n/a
1006.868	0.075	2013736	keystroke_s	s	n/a
1010.365	0.001	2020730	keystroke_Key.enter	Key.enter	n/a
1010.375	28.265	2020750	prompt	n/a	vacancies bathrooms firefox reload\n
1011.7135	0.074	2023427	keystroke_v	v	n/a
1012.0735	0.045	2024147	keystroke_a	a	n/a
1013.2575	0.09	2026515	keystroke_c	c	n/a
1014.2925	0.076	2028585	keystroke_a	a	n/a
1015.043	0.09	2030086	keystroke_n	n	n/a
1016.513	0.075	2033026	keystroke_c	c	n/a
1017.653	0.06	2035306	keystroke_i	i	n/a
1017.953	0.09	2035906	keystroke_e	e	n/a
1018.268	0.06	2036536	keystroke_s	s	n/a
1019.048	0.075	2038096	keystroke_Key.space	Key.space	n/a
1019.753	0.06	2039506	keystroke_b	b	n/a
1020.023	0.12	2040046	keystroke_a	a	n/a
1020.368	0.0595	2040736	keystroke_t	t	n/a
1020.5325	0.06	2041065	keystroke_h	h	n/a
1020.8035	0.0745	2041607	keystroke_r	r	n/a
1021.0135	0.0895	2042027	keystroke_o	o	n/a
1022.138	0.06	2044276	keystroke_o	o	n/a
1022.768	0.075	2045536	keystroke_n	n	n/a
1025.035	0	2050070	keystroke_Key.backspace	Key.backspace	n/a
1025.408	0.09	2050816	keystroke_m	m	n/a
1026.938	0.09	2053876	keystroke_s	s	n/a
1027.2085	0.075	2054417	keystroke_Key.space	Key.space	n/a
1028.2885	0.075	2056577	keystroke_f	f	n/a
1028.5135	0.06	2057027	keystroke_i	i	n/a
1028.8135	0.075	2057627	keystroke_r	r	n/a
1029.1285	0.09	2058257	keystroke_e	e	n/a
1030.5535	0.06	2061107	keystroke_f	f	n/a
1030.7635	0.06	2061527	keystroke_o	o	n/a
1031.1085	0.12	2062217	keystroke_x	x	n/a
1031.9935	0.105	2063987	keystroke_Key.space	Key.space	n/a
1032.5485	0.075	2065097	keystroke_r	r	n/a
1032.7885	0.075	2065577	keystroke_e	e	n/a
1032.9985	0.09	2065997	keystroke_l	l	n/a
1033.2235	0.06	2066447	keystroke_o	o	n/a
1033.6735	0.105	2067347	keystroke_a	a	n/a
1033.9435	0.09	2067887	keystroke_d	d	n/a
1038.611	0.027	2077222	keystroke_Key.enter	Key.enter	n/a
1038.6435	21.476	2077287	prompt	n/a	vegas visible grove this's\n
1039.883	0.09	2079766	keystroke_v	v	n/a
1040.168	0.12	2080336	keystroke_e	e	n/a
1040.588	0.075	2081176	keystroke_g	g	n/a
1040.978	0.12	2081956	keystroke_a	a	n/a
1041.293	0.06	2082586	keystroke_s	s	n/a
1041.863	0.075	2083726	keystroke_Key.space	Key.space	n/a
1042.568	0.015	2085136	keystroke_v	v	n/a
1042.7485	0.0595	2085497	keystroke_i	i	n/a
1043.093	0.075	2086186	keystroke_s	s	n/a
1043.5285	0.06	2087057	keystroke_i	i	n/a
1046.575	0.001	2093150	keystroke_b	b	n/a
1046.663	0.06	2093326	keystroke_l	l	n/a
1046.888	0.06	2093776	keystroke_e	e	n/a
1047.833	0.105	2095666	keystroke_Key.space	Key.space	n/a
1048.583	0.091	2097166	keystroke_g	g	n/a
1048.808	0.075	2097616	keystroke_r	r	n/a
1049.004	0.074	2098008	keystroke_o	o	n/a
1049.244	0.12	2098488	keystroke_w	w	n/a
1049.768	0.076	2099536	keystroke_v	v	n/a
1051.9305	0.013	2103861	keystroke_Key.backspace	Key.backspace	n/a
1052.1985	0.06	2104397	keystroke_Key.backspace	Key.backspace	n/a
1053.8785	0.045	2107757	keystroke_v	v	n/a
1054.133	0.075	2108266	keystroke_e	e	n/a
1055.438	0.09	2110876	keystroke_Key.space	Key.space	n/a
1055.8735	0.075	2111747	keystroke_t	t	n/a
1055.9635	0.1045	2111927	keystroke_h	h	n/a
1057.0585	0.105	2114117	keystroke_i	i	n/a
1057.9885	0.075	2115977	keystroke_s	s	n/a
1058.4985	0.09	2116997	keystroke_'	'	n/a
1058.8885	0.09	2117777	keystroke_s	s	n/a
1060.043	0.075	2120086	keystroke_Key.enter	Key.enter	n/a
1060.123	20.997	2120246	prompt	n/a	idaho study break renaissance\n
1061.288	0.06	2122576	keystroke_i	i	n/a
1061.873	0.075	2123746	keystroke_d	d	n/a
1062.7285	0.09	2125457	keystroke_a	a	n/a
1063.0735	0.09	2126147	keystroke_h	h	n/a
1063.3885	0.075	2126777	keystroke_o	o	n/a
1064.018	0.075	2128036	keystroke_Key.space	Key.space	n/a
1064.4085	0.074	2128817	keystroke_s	s	n/a
1064.9185	0.075	2129837	keystroke_t	t	n/a
1065.2785	0.074	2130557	keystroke_u	u	n/a
1065.5335	0.074	2131067	keystroke_d	d	n/a
1065.6525	0.076	2131305	keystroke_y	y	n/a
1068.266	0.027	2136532	keystroke_Key.space	Key.space	n/a
1069.223	0.075	2138446	keystroke_b	b	n/a
1069.538	0.075	2139076	keystroke_r	r	n/a
1069.748	0.09	2139496	keystroke_e	e	n/a
1069.988	0.075	2139976	keystroke_a	a	n/a
1070.153	0.075	2140306	keystroke_k	k	n/a
1070.423	0.09	2140846	keystroke_Key.space	Key.space	n/a
1071.7135	0.0745	2143427	keystroke_r	r	n/a
1071.923	0.075	2143846	keystroke_e	e	n/a
1072.3435	0.075	2144687	keystroke_n	n	n/a
1073.8435	0.09	2147687	keystroke_a	a	n/a
1074.6235	0.0595	2149247	keystroke_i	i	n/a
1075.4185	0.09	2150837	keystroke_s	s	n/a
1075.6285	0.09	2151257	keystroke_s	s	n/a
1076.0635	0.09	2152127	keystroke_a	a	n/a
1076.393	0.03	2152786	keystroke_n	n	n/a
1076.8435	0.09	2153687	keystroke_c	c	n/a
1077.173	0.09	2154346	keystroke_e	e	n/a
1081.091	0.027	2162182	keystroke_Key.enter	Key.enter	n/a
1081.1225	27.1325	2162245	prompt	n/a	pubmed sciences expense architects\n
1082.243	0.12	2164486	keystroke_p	p	n/a
1082.558	0.06	2165116	keystroke_u	u	n/a
1083.803	0.075	2167606	keystroke_b	b	n/a
1084.238	0.09	2168476	keystroke_m	m	n/a
1084.988	0.09	2169976	keystroke_e	e	n/a
1085.648	0.0755	2171296	keystroke_d	d	n/a
1086.3835	0.075	2172767	keystroke_Key.space	Key.space	n/a
1086.8185	0.075	2173637	keystroke_s	s	n/a
1087.1485	0.09	2174297	keystroke_c	c	n/a
1087.4185	0.06	2174837	keystroke_i	i	n/a
1089.098	0.075	2178196	keystroke_e	e	n/a
1089.563	0.075	2179126	keystroke_n	n	n/a
1090.358	0.075	2180716	keystroke_c	c	n/a
1090.688	0.06	2181376	keystroke_e	e	n/a
1091.003	0.09	2182006	keystroke_s	s	n/a
1091.273	0.09	2182546	keystroke_Key.space	Key.space	n/a
1092.1885	0.075	2184377	keystroke_e	e	n/a
1092.5485	0.09	2185097	keystroke_x	x	n/a
1092.7435	0.09	2185487	keystroke_p	p	n/a
1093.0885	0.09	2186177	keystroke_e	e	n/a
1094.0935	0.06	2188187	keystroke_n	n	n/a
1094.5585	0.105	2189117	keystroke_s	s	n/a
1094.8135	0.105	2189627	keystroke_e	e	n/a
1095.7285	0.03	2191457	keystroke_Key.space	Key.space	n/a
1096.658	0.09	2193316	keystroke_a	a	n/a
1097.603	0.09	2195206	keystroke_r	r	n/a
1098.309	0.089	2196618	keystroke_c	c	n/a
1099.583	0.075	2199166	keystroke_h	h	n/a
1101.623	0.03	2203246	keystroke_i	i	n/a
1101.953	0.06	2203906	keystroke_t	t	n/a
1104.5355	0.028	2209071	keystroke_e	e	n/a
1106.1385	0.075	2212277	keystroke_c	c	n/a
1106.528	0.075	2213056	keystroke_t	t	n/a
1106.873	0.09	2213746	keystroke_s	s	n/a
1108.163	0.09	2216326	keystroke_Key.enter	Key.enter	n/a
1108.258	35.082	2216516	prompt	n/a	incidents therapist theater experiments\n
1109.2135	0.075	2218427	keystroke_i	i	n/a
1109.4835	0.075	2218967	keystroke_n	n	n/a
1109.9035	0.075	2219807	keystroke_c	c	n/a
1110.1435	0.045	2220287	keystroke_i	i	n/a
1110.3985	0.075	2220797	keystroke_d	d	n/a
1110.6235	0.06	2221247	keystroke_e	e	n/a
1110.788	0.06	2221576	keystroke_n	n	n/a
1111.058	0.09	2222116	keystroke_t	t	n/a
1112.273	0.0455	2224546	keystroke_s	s	n/a
1112.8885	0.12	2225777	keystroke_Key.space	Key.space	n/a
1113.5485	0.075	2227097	keystroke_t	t	n/a
1113.6835	0.075	2227367	keystroke_h	h	n/a
1113.9535	0.105	2227907	keystroke_e	e	n/a
1114.2085	0.06	2228417	keystroke_r	r	n/a
1115.5585	0.075	2231117	keystroke_a	a	n/a
1115.7985	0.18	2231597	keystroke_p	p	n/a
1117.0735	0.06	2234147	keystroke_i	i	n/a
1117.2835	0.12	2234567	keystroke_s	s	n/a
1117.6285	0.09	2235257	keystroke_t	t	n/a
1118.5285	0.075	2237057	keystroke_Key.space	Key.space	n/a
1119.2635	0.06	2238527	keystroke_t	t	n/a
1119.4135	0.06	2238827	keystroke_h	h	n/a
1120.808	0.06	2241616	keystroke_e	e	n/a
1121.078	0.12	2242156	keystroke_a	a	n/a
1121.873	0.075	2243746	keystroke_t	t	n/a
1122.143	0.12	2244286	keystroke_e	e	n/a
1122.4735	0.075	2244947	keystroke_r	r	n/a
1122.8785	0.105	2245757	keystroke_Key.space	Key.space	n/a
1123.3285	0.075	2246657	keystroke_e	e	n/a
1123.8085	0.09	2247617	keystroke_x	x	n/a
1124.0185	0.09	2248037	keystroke_p	p	n/a
1125.218	0.09	2250436	keystroke_e	e	n/a
1125.473	0.075	2250946	keystroke_r	r	n/a
1125.893	0.075	2251786	keystroke_i	i	n/a
1127.2885	0.06	2254577	keystroke_m	m	n/a
1128.0085	0.06	2256017	keystroke_n	n	n/a
1128.2635	0.075	2256527	keystroke_e	e	n/a
1128.5635	0.075	2257127	keystroke_t	t	n/a
1128.9385	0.075	2257877	keystroke_s	s	n/a
1132.93	0.013	2265860	keystroke_Key.backspace	Key.backspace	n/a
1136.396	0.001	2272792	keystroke_Key.backspace	Key.backspace	n/a
1138.313	0.045	2276626	keystroke_Key.backspace	Key.backspace	n/a
1140.098	0.06	2280196	keystroke_Key.backspace	Key.backspace	n/a
1141.2835	0.075	2282567	keystroke_e	e	n/a
1141.4785	0.06	2282957	keystroke_n	n	n/a
1141.6885	0.075	2283377	keystroke_t	t	n/a
1142.0185	0.09	2284037	keystroke_s	s	n/a
1143.2485	0.09	2286497	keystroke_Key.enter	Key.enter	n/a
1143.343	18.192	2286686	prompt	n/a	formerly cornell sink checks\n
1144.6135	0.09	2289227	keystroke_f	f	n/a
1144.8685	0.075	2289737	keystroke_o	o	n/a
1145.243	0.06	2290486	keystroke_r	r	n/a
1145.783	0.075	2291566	keystroke_m	m	n/a
1146.263	0.075	2292526	keystroke_e	e	n/a
1147.088	0.075	2294176	keystroke_r	r	n/a
1147.268	0.09	2294536	keystroke_l	l	n/a
1147.718	0.075	2295436	keystroke_y	y	n/a
1148.108	0.09	2296216	keystroke_Key.space	Key.space	n/a
1149.0535	0.075	2298107	keystroke_c	c	n/a
1149.2935	0.075	2298587	keystroke_o	o	n/a
1149.683	0.06	2299366	keystroke_r	r	n/a
1149.9385	0.045	2299877	keystroke_n	n	n/a
1151.3325	0.075	2302665	keystroke_e	e	n/a
1151.933	0.075	2303866	keystroke_l	l	n/a
1152.113	0.0755	2304226	keystroke_l	l	n/a
1152.6385	0.105	2305277	keystroke_Key.space	Key.space	n/a
1153.3285	0.075	2306657	keystroke_s	s	n/a
1153.5085	0.075	2307017	keystroke_i	i	n/a
1153.9425	0.03	2307885	keystroke_n	n	n/a
1157.876	0.001	2315752	keystroke_k	k	n/a
1158.2175	0.09	2316435	keystroke_Key.space	Key.space	n/a
1159.088	0.06	2318176	keystroke_c	c	n/a
1159.268	0.0605	2318536	keystroke_h	h	n/a
1159.4785	0.075	2318957	keystroke_e	e	n/a
1159.8085	0.075	2319617	keystroke_c	c	n/a
1159.9735	0.075	2319947	keystroke_k	k	n/a
1160.798	0.09	2321596	keystroke_s	s	n/a
1161.443	0.09	2322886	keystroke_Key.enter	Key.enter	n/a
1161.5395	27.4155	2323079	prompt	n/a	garden macintosh castle adolescent\n
1162.823	0.06	2325646	keystroke_g	g	n/a
1163.123	0.105	2326246	keystroke_a	a	n/a
1163.408	0.09	2326816	keystroke_r	r	n/a
1163.663	0.12	2327326	keystroke_d	d	n/a
1163.903	0.12	2327806	keystroke_e	e	n/a
1164.443	0.045	2328886	keystroke_n	n	n/a
1164.7875	0.09	2329575	keystroke_Key.space	Key.space	n/a
1165.3275	0.045	2330655	keystroke_m	m	n/a
1165.5235	0.09	2331047	keystroke_a	a	n/a
1165.8975	0.075	2331795	keystroke_c	c	n/a
1166.0325	0.091	2332065	keystroke_h	h	n/a
1168.705	0.013	2337410	keystroke_Key.backspace	Key.backspace	n/a
1171.256	0.001	2342512	keystroke_i	i	n/a
1172.228	0.03	2344456	keystroke_n	n	n/a
1173.068	0.06	2346136	keystroke_t	t	n/a
1173.323	0.09	2346646	keystroke_o	o	n/a
1173.698	0.045	2347396	keystroke_s	s	n/a
1173.863	0.045	2347726	keystroke_h	h	n/a
1174.808	0.075	2349616	keystroke_Key.space	Key.space	n/a
1179.461	0.042	2358922	keystroke_c	c	n/a
1179.773	0.105	2359546	keystroke_a	a	n/a
1179.998	0.105	2359996	keystroke_s	s	n/a
1181.303	0.06	2362606	keystroke_t	t	n/a
1181.528	0.075	2363056	keystroke_l	l	n/a
1181.768	0.105	2363536	keystroke_e	e	n/a
1182.503	0.09	2365006	keystroke_Key.space	Key.space	n/a
1182.848	0.135	2365696	keystroke_a	a	n/a
1183.223	0.075	2366446	keystroke_d	d	n/a
1183.793	0.0455	2367586	keystroke_o	o	n/a
1184.7385	0.075	2369477	keystroke_l	l	n/a
1185.4735	0.075	2370947	keystroke_e	e	n/a
1185.8485	0.09	2371697	keystroke_s	s	n/a
1186.5385	0.0745	2373077	keystroke_c	c	n/a
1186.793	0.075	2373586	keystroke_e	e	n/a
1187.003	0.06	2374006	keystroke_n	n	n/a
1187.243	0.075	2374486	keystroke_t	t	n/a
1188.863	0.09	2377726	keystroke_Key.enter	Key.enter	n/a
1188.9585	40.062	2377917	prompt	n/a	breathing communicate unauthorized legislation\n
1190.318	0.06	2380636	keystroke_b	b	n/a
1190.783	0.03	2381566	keystroke_r	r	n/a
1190.933	0.075	2381866	keystroke_e	e	n/a
1191.398	0.12	2382796	keystroke_a	a	n/a
1191.773	0.075	2383546	keystroke_t	t	n/a
1191.908	0.09	2383816	keystroke_h	h	n/a
1192.1185	0.06	2384237	keystroke_i	i	n/a
1192.3135	0.0745	2384627	keystroke_n	n	n/a
1192.4635	0.074	2384927	keystroke_g	g	n/a
1192.6585	0.075	2385317	keystroke_Key.space	Key.space	n/a
1193.6035	0.06	2387207	keystroke_c	c	n/a
1193.7535	0.09	2387507	keystroke_o	o	n/a
1194.0535	0.06	2388107	keystroke_m	m	n/a
1194.2035	0.06	2388407	keystroke_m	m	n/a
1195.4785	0.075	2390957	keystroke_u	u	n/a
1195.764	0.09	2391528	keystroke_n	n	n/a
1196.543	0.015	2393086	keystroke_i	i	n/a
1196.7385	0.09	2393477	keystroke_c	c	n/a
1197.0685	0.105	2394137	keystroke_a	a	n/a
1197.4585	0.105	2394917	keystroke_t	t	n/a
1197.7735	0.075	2395547	keystroke_e	e	n/a
1199.0635	0.075	2398127	keystroke_Key.space	Key.space	n/a
1200.0385	0.075	2400077	keystroke_u	u	n/a
1200.2935	0.09	2400587	keystroke_n	n	n/a
1201.613	0.105	2403226	keystroke_a	a	n/a
1202.333	0.06	2404666	keystroke_u	u	n/a
1202.648	0.045	2405296	keystroke_t	t	n/a
1202.753	0.09	2405506	keystroke_h	h	n/a
1204.388	0.06	2408776	keystroke_o	o	n/a
1208.2155	0.001	2416431	keystroke_r	r	n/a
1208.3335	0.06	2416667	keystroke_i	i	n/a
1209.8035	0.105	2419607	keystroke_z	z	n/a
1210.1485	0.105	2420297	keystroke_e	e	n/a
1210.449	0.075	2420898	keystroke_d	d	n/a
1211.094	0.12	2422188	keystroke_Key.space	Key.space	n/a
1211.514	0.09	2423028	keystroke_l	l	n/a
1211.724	0.12	2423448	keystroke_e	e	n/a
1212.129	0.059	2424258	keystroke_g	g	n/a
1213.448	0.015	2426896	keystroke_i	i	n/a
1213.943	0.09	2427886	keystroke_s	s	n/a
1214.228	0.075	2428456	keystroke_l	l	n/a
1214.453	0.105	2428906	keystroke_a	a	n/a
1214.828	0.045	2429656	keystroke_t	t	n/a
1214.948	0.075	2429896	keystroke_i	i	n/a
1215.158	0.09	2430316	keystroke_o	o	n/a
1216.178	0.09	2432356	keystroke_n	n	n/a
1225.6305	0.001	2451261	keystroke_Key.backspace	Key.backspace	n/a
1227.3535	0.045	2454707	keystroke_n	n	n/a
1228.944	0.075	2457888	keystroke_Key.enter	Key.enter	n/a
1229.023	31.6025	2458046	prompt	n/a	symbol http coordinate afraid\n
1230.339	0.09	2460678	keystroke_s	s	n/a
1230.549	0.06	2461098	keystroke_y	y	n/a
1231.6285	0.06	2463257	keystroke_m	m	n/a
1232.1835	0.0455	2464367	keystroke_b	b	n/a
1233.7735	0.09	2467547	keystroke_o	o	n/a
1234.0435	0.09	2468087	keystroke_l	l	n/a
1235.3935	0.105	2470787	keystroke_Key.space	Key.space	n/a
1235.799	0.075	2471598	keystroke_h	h	n/a
1236.233	0.061	2472466	keystroke_t	t	n/a
1236.398	0.075	2472796	keystroke_t	t	n/a
1237.3735	0.105	2474747	keystroke_p	p	n/a
1237.6285	0.105	2475257	keystroke_Key.space	Key.space	n/a
1238.8585	0.09	2477717	keystroke_c	c	n/a
1239.0685	0.075	2478137	keystroke_o	o	n/a
1241.0185	0.075	2482037	keystroke_o	o	n/a
1241.2885	0.06	2482577	keystroke_r	r	n/a
1242.3685	0.0905	2484737	keystroke_d	d	n/a
1246.7955	0	2493591	keystroke_i	i	n/a
1248.0685	0.06	2496137	keystroke_n	n	n/a
1248.3835	0.135	2496767	keystroke_a	a	n/a
1248.8035	0.045	2497607	keystroke_t	t	n/a
1249.1785	0.075	2498357	keystroke_e	e	n/a
1250.1235	0.105	2500247	keystroke_Key.space	Key.space	n/a
1250.904	0.1205	2501808	keystroke_a	a	n/a
1251.2495	0.0745	2502499	keystroke_f	f	n/a
1251.504	0.075	2503008	keystroke_r	r	n/a
1254.851	0.013	2509702	keystroke_a	a	n/a
1254.939	0.06	2509878	keystroke_i	i	n/a
1255.164	0.075	2510328	keystroke_d	d	n/a
1260.5815	0.043	2521163	keystroke_Key.enter	Key.enter	n/a
1260.6285	18.732	2521257	prompt	n/a	promo dept arrangements them\n
1262.019	0.09	2524038	keystroke_p	p	n/a
1262.289	0.075	2524578	keystroke_r	r	n/a
1262.514	0.075	2525028	keystroke_o	o	n/a
1262.769	0.09	2525538	keystroke_m	m	n/a
1263.009	0.09	2526018	keystroke_o	o	n/a
1264.419	0.09	2528838	keystroke_Key.space	Key.space	n/a
1264.8545	0.09	2529709	keystroke_d	d	n/a
1265.1245	0.09	2530249	keystroke_e	e	n/a
1265.9195	0.075	2531839	keystroke_p	p	n/a
1266.1445	0.075	2532289	keystroke_t	t	n/a
1266.8045	0.09	2533609	keystroke_Key.space	Key.space	n/a
1267.2695	0.12	2534539	keystroke_a	a	n/a
1267.569	0.09	2535138	keystroke_r	r	n/a
1267.764	0.09	2535528	keystroke_r	r	n/a
1270.181	0.001	2540362	keystroke_a	a	n/a
1271.559	0.06	2543118	keystroke_n	n	n/a
1271.874	0.075	2543748	keystroke_g	g	n/a
1273.269	0.09	2546538	keystroke_e	e	n/a
1273.899	0.06	2547798	keystroke_m	m	n/a
1274.4685	0.09	2548937	keystroke_e	e	n/a
1274.6945	0.074	2549389	keystroke_n	n	n/a
1274.9345	0.089	2549869	keystroke_t	t	n/a
1275.309	0.06	2550618	keystroke_s	s	n/a
1275.849	0.045	2551698	keystroke_Key.space	Key.space	n/a
1276.779	0.075	2553558	keystroke_t	t	n/a
1276.8995	0.045	2553799	keystroke_h	h	n/a
1277.109	0.06	2554218	keystroke_e	e	n/a
1277.319	0.075	2554638	keystroke_m	m	n/a
1279.2845	0.075	2558569	keystroke_Key.enter	Key.enter	n/a
1279.3655	12.6405	2558731	prompt	n/a	seconds tide actions yukon\n
1280.3345	0.105	2560669	keystroke_s	s	n/a
1280.6045	0.075	2561209	keystroke_e	e	n/a
1280.9195	0.09	2561839	keystroke_c	c	n/a
1281.0995	0.09	2562199	keystroke_o	o	n/a
1281.3995	0.075	2562799	keystroke_n	n	n/a
1281.6395	0.075	2563279	keystroke_d	d	n/a
1282.5695	0.105	2565139	keystroke_s	s	n/a
1283.0495	0.075	2566099	keystroke_Key.space	Key.space	n/a
1283.7095	0.06	2567419	keystroke_t	t	n/a
1283.8445	0.06	2567689	keystroke_i	i	n/a
1284.0845	0.09	2568169	keystroke_d	d	n/a
1284.3245	0.0595	2568649	keystroke_e	e	n/a
1284.894	0.075	2569788	keystroke_Key.space	Key.space	n/a
1285.329	0.075	2570658	keystroke_a	a	n/a
1285.614	0.105	2571228	keystroke_c	c	n/a
1285.974	0.06	2571948	keystroke_t	t	n/a
1286.079	0.09	2572158	keystroke_i	i	n/a
1286.244	0.09	2572488	keystroke_o	o	n/a
1286.964	0.06	2573928	keystroke_n	n	n/a
1287.804	0.09	2575608	keystroke_s	s	n/a
1288.119	0.09	2576238	keystroke_Key.space	Key.space	n/a
1288.9735	0.076	2577947	keystroke_y	y	n/a
1289.2435	0.09	2578487	keystroke_u	u	n/a
1289.7995	0.089	2579599	keystroke_k	k	n/a
1290.6685	0.091	2581337	keystroke_o	o	n/a
1290.9245	0.075	2581849	keystroke_n	n	n/a
1291.9145	0.09	2583829	keystroke_Key.enter	Key.enter	n/a
1292.009	16.4215	2584018	prompt	n/a	raise carroll we'd leslie\n
1293.099	0.075	2586198	keystroke_r	r	n/a
1293.399	0.075	2586798	keystroke_a	a	n/a
1294.044	0.075	2588088	keystroke_i	i	n/a
1294.329	0.09	2588658	keystroke_s	s	n/a
1294.644	0.0745	2589288	keystroke_e	e	n/a
1295.1985	0.105	2590397	keystroke_Key.space	Key.space	n/a
1295.8285	0.09	2591657	keystroke_c	c	n/a
1296.1285	0.105	2592257	keystroke_a	a	n/a
1296.639	0.075	2593278	keystroke_r	r	n/a
1296.789	0.09	2593578	keystroke_r	r	n/a
1297.6885	0.075	2595377	keystroke_o	o	n/a
1298.0335	0.09	2596067	keystroke_l	l	n/a
1298.2135	0.06	2596427	keystroke_l	l	n/a
1301.2465	0.042	2602493	keystroke_Key.space	Key.space	n/a
1301.6185	0.12	2603237	keystroke_w	w	n/a
1301.8735	0.09	2603747	keystroke_e	e	n/a
1302.5335	0.135	2605067	keystroke_'	'	n/a
1302.8035	0.09	2605607	keystroke_d	d	n/a
1303.7185	0.09	2607437	keystroke_Key.space	Key.space	n/a
1304.1385	0.09	2608277	keystroke_l	l	n/a
1304.4235	0.105	2608847	keystroke_e	e	n/a
1304.7685	0.075	2609537	keystroke_s	s	n/a
1306.419	0.09	2612838	keystroke_l	l	n/a
1306.674	0.06	2613348	keystroke_i	i	n/a
1307.124	0.09	2614248	keystroke_e	e	n/a
1308.339	0.09	2616678	keystroke_Key.enter	Key.enter	n/a
1308.434	20.2465	2616868	prompt	n/a	grows sellers introducing miss\n
1309.8835	0.075	2619767	keystroke_g	g	n/a
1310.1235	0.075	2620247	keystroke_r	r	n/a
1310.3635	0.06	2620727	keystroke_o	o	n/a
1310.5735	0.12	2621147	keystroke_w	w	n/a
1310.8735	0.09	2621747	keystroke_s	s	n/a
1311.5485	0.075	2623097	keystroke_Key.space	Key.space	n/a
1311.8185	0.075	2623637	keystroke_s	s	n/a
1312.0585	0.09	2624117	keystroke_e	e	n/a
1312.3585	0.06	2624717	keystroke_l	l	n/a
1312.4935	0.09	2624987	keystroke_l	l	n/a
1312.7335	0.105	2625467	keystroke_e	e	n/a
1313.0485	0.075	2626097	keystroke_r	r	n/a
1313.964	0.09	2627928	keystroke_s	s	n/a
1314.234	0.09	2628468	keystroke_Key.space	Key.space	n/a
1314.744	0.06	2629488	keystroke_i	i	n/a
1315.029	0.075	2630058	keystroke_n	n	n/a
1315.629	0.06	2631258	keystroke_t	t	n/a
1316.7085	0.015	2633417	keystroke_r	r	n/a
1316.9935	0.075	2633987	keystroke_o	o	n/a
1317.2335	0.09	2634467	keystroke_d	d	n/a
1318.389	0.045	2636778	keystroke_u	u	n/a
1319.3185	0.075	2638637	keystroke_c	c	n/a
1320.5635	0.06	2641127	keystroke_i	i	n/a
1320.789	0.06	2641578	keystroke_n	n	n/a
1321.029	0.06	2642058	keystroke_g	g	n/a
1322.244	0.075	2644488	keystroke_Key.space	Key.space	n/a
1322.7535	0.045	2645507	keystroke_m	m	n/a
1323.414	0.075	2646828	keystroke_i	i	n/a
1323.669	0.075	2647338	keystroke_s	s	n/a
1323.864	0.09	2647728	keystroke_s	s	n/a
1328.6365	0.042	2657273	keystroke_Key.enter	Key.enter	n/a
1328.683	13.4525	2657366	prompt	n/a	direction hood into terry\n
1330.0285	0.075	2660057	keystroke_d	d	n/a
1330.2685	0.061	2660537	keystroke_i	i	n/a
1330.6595	0.075	2661319	keystroke_r	r	n/a
1331.3795	0.075	2662759	keystroke_e	e	n/a
1332.1445	0.075	2664289	keystroke_c	c	n/a
1332.5795	0.06	2665159	keystroke_t	t	n/a
1332.7295	0.075	2665459	keystroke_i	i	n/a
1332.9095	0.09	2665819	keystroke_o	o	n/a
1333.569	0.045	2667138	keystroke_n	n	n/a
1334.109	0.12	2668218	keystroke_Key.space	Key.space	n/a
1334.664	0.075	2669328	keystroke_h	h	n/a
1334.919	0.09	2669838	keystroke_o	o	n/a
1335.084	0.1045	2670168	keystroke_o	o	n/a
1335.354	0.075	2670708	keystroke_d	d	n/a
1336.014	0.075	2672028	keystroke_Key.space	Key.space	n/a
1336.569	0.045	2673138	keystroke_i	i	n/a
1336.734	0.09	2673468	keystroke_n	n	n/a
1337.094	0.06	2674188	keystroke_t	t	n/a
1337.199	0.09	2674398	keystroke_o	o	n/a
1337.694	0.12	2675388	keystroke_Key.space	Key.space	n/a
1338.459	0.09	2676918	keystroke_t	t	n/a
1338.774	0.12	2677548	keystroke_e	e	n/a
1339.149	0.03	2678298	keystroke_r	r	n/a
1339.254	0.105	2678508	keystroke_r	r	n/a
1339.464	0.075	2678928	keystroke_y	y	n/a
1342.1215	0.013	2684243	keystroke_Key.enter	Key.enter	n/a
1342.138	24.2375	2684276	prompt	n/a	citysearch polls channels santa\n
1343.3945	0.06	2686789	keystroke_c	c	n/a
1343.5895	0.045	2687179	keystroke_i	i	n/a
1343.9195	0.06	2687839	keystroke_t	t	n/a
1344.0845	0.06	2688169	keystroke_y	y	n/a
1345.254	0.1045	2690508	keystroke_s	s	n/a
1345.5385	0.09	2691077	keystroke_e	e	n/a
1345.8385	0.1205	2691677	keystroke_a	a	n/a
1346.184	0.075	2692368	keystroke_r	r	n/a
1346.484	0.105	2692968	keystroke_c	c	n/a
1346.634	0.105	2693268	keystroke_h	h	n/a
1347.444	0.09	2694888	keystroke_Key.space	Key.space	n/a
1347.924	0.12	2695848	keystroke_p	p	n/a
1348.359	0.105	2696718	keystroke_o	o	n/a
1348.644	0.075	2697288	keystroke_l	l	n/a
1348.794	0.075	2697588	keystroke_l	l	n/a
1352.2165	0.0275	2704433	keystroke_s	s	n/a
1352.7845	0.09	2705569	keystroke_Key.space	Key.space	n/a
1353.5645	0.06	2707129	keystroke_c	c	n/a
1353.6695	0.075	2707339	keystroke_h	h	n/a
1353.9395	0.075	2707879	keystroke_a	a	n/a
1354.1045	0.045	2708209	keystroke_n	n	n/a
1354.224	0.09	2708448	keystroke_n	n	n/a
1354.494	0.075	2708988	keystroke_e	e	n/a
1354.674	0.075	2709348	keystroke_l	l	n/a
1355.919	0.045	2711838	keystroke_s	s	n/a
1356.489	0.075	2712978	keystroke_Key.space	Key.space	n/a
1356.969	0.105	2713938	keystroke_s	s	n/a
1357.299	0.075	2714598	keystroke_n	n	n/a
1359.189	0.09	2718378	keystroke_Key.backspace	Key.backspace	n/a
1359.774	0.09	2719548	keystroke_a	a	n/a
1360.929	0.045	2721858	keystroke_n	n	n/a
1361.214	0.075	2722428	keystroke_t	t	n/a
1361.589	0.105	2723178	keystroke_a	a	n/a
1366.3465	0.028	2732693	keystroke_Key.enter	Key.enter	n/a
1366.3785	39.8525	2732757	prompt	n/a	earrings integrating server warming\n
1367.484	0.09	2734968	keystroke_e	e	n/a
1367.739	0.1205	2735478	keystroke_a	a	n/a
1368.069	0.075	2736138	keystroke_r	r	n/a
1368.279	0.075	2736558	keystroke_i	i	n/a
1368.474	0.075	2736948	keystroke_n	n	n/a
1368.609	0.075	2737218	keystroke_g	g	n/a
1370.079	0.075	2740158	keystroke_s	s	n/a
1370.319	0.09	2740638	keystroke_Key.space	Key.space	n/a
1371.024	0.06	2742048	keystroke_i	i	n/a
1376.8165	0.013	2753633	keystroke_Key.backspace	Key.backspace	n/a
1377.234	0.075	2754468	keystroke_Key.backspace	Key.backspace	n/a
1377.624	0.075	2755248	keystroke_Key.backspace	Key.backspace	n/a
1382.307	0.042	2764614	keystroke_Key.backspace	Key.backspace	n/a
1382.649	0.12	2765298	keystroke_Key.backspace	Key.backspace	n/a
1383.039	0.075	2766078	keystroke_Key.backspace	Key.backspace	n/a
1386.867	0.012	2773734	keystroke_r	r	n/a
1387.014	0.06	2774028	keystroke_i	i	n/a
1387.269	0.075	2774538	keystroke_n	n	n/a
1387.509	0.075	2775018	keystroke_g	g	n/a
1388.454	0.075	2776908	keystroke_s	s	n/a
1388.709	0.09	2777418	keystroke_Key.space	Key.space	n/a
1389.324	0.06	2778648	keystroke_i	i	n/a
1389.579	0.0755	2779158	keystroke_n	n	n/a
1390.03	0.074	2780060	keystroke_t	t	n/a
1390.869	0.09	2781738	keystroke_e	e	n/a
1392.234	0.075	2784468	keystroke_g	g	n/a
1394.562	0.028	2789124	keystroke_r	r	n/a
1394.905	0.12	2789810	keystroke_a	a	n/a
1395.6845	0.045	2791369	keystroke_t	t	n/a
1395.8645	0.06	2791729	keystroke_i	i	n/a
1396.4495	0.06	2792899	keystroke_n	n	n/a
1396.7045	0.045	2793409	keystroke_g	g	n/a
1397.4395	0.09	2794879	keystroke_Key.space	Key.space	n/a
1397.9795	0.15	2795959	keystroke_s	s	n/a
1398.2945	0.105	2796589	keystroke_e	e	n/a
1398.5795	0.09	2797159	keystroke_r	r	n/a
1398.8945	0.075	2797789	keystroke_v	v	n/a
1399.1045	0.135	2798209	keystroke_e	e	n/a
1399.3895	0.075	2798779	keystroke_r	r	n/a
1400.6195	0.075	2801239	keystroke_Key.space	Key.space	n/a
1401.6545	0.06	2803309	keystroke_w	w	n/a
1401.9395	0.09	2803879	keystroke_a	a	n/a
1402.2545	0.06	2804509	keystroke_r	r	n/a
1402.4945	0.06	2804989	keystroke_m	m	n/a
1402.7195	0.06	2805439	keystroke_i	i	n/a
1402.9445	0.075	2805889	keystroke_n	n	n/a
1403.2295	0.075	2806459	keystroke_g	g	n/a
1406.187	0.042	2812374	keystroke_Key.enter	Key.enter	n/a
1406.234	32.982	2812468	prompt	n/a	beijing interpreted variable textiles\n
1407.625	0.06	2815250	keystroke_b	b	n/a
1407.925	0.09	2815850	keystroke_e	e	n/a
1409.71	0.075	2819420	keystroke_i	i	n/a
1410.085	0.075	2820170	keystroke_j	j	n/a
1413.4465	0.013	2826893	keystroke_i	i	n/a
1413.6845	0.045	2827369	keystroke_n	n	n/a
1414.059	0.06	2828118	keystroke_g	g	n/a
1414.719	0.09	2829438	keystroke_Key.space	Key.space	n/a
1415.259	0.06	2830518	keystroke_i	i	n/a
1415.484	0.075	2830968	keystroke_n	n	n/a
1415.979	0.06	2831958	keystroke_t	t	n/a
1416.579	0.105	2833158	keystroke_e	e	n/a
1416.864	0.075	2833728	keystroke_r	r	n/a
1417.4645	0.09	2834929	keystroke_p	p	n/a
1418.2895	0.1055	2836579	keystroke_r	r	n/a
1418.635	0.09	2837270	keystroke_e	e	n/a
1420.21	0.075	2840420	keystroke_t	t	n/a
1420.75	0.075	2841500	keystroke_e	e	n/a
1421.1245	0.075	2842249	keystroke_d	d	n/a
1421.9195	0.09	2843839	keystroke_Key.space	Key.space	n/a
1422.6545	0.045	2845309	keystroke_v	v	n/a
1422.9245	0.12	2845849	keystroke_a	a	n/a
1423.2395	0.06	2846479	keystroke_r	r	n/a
1424.874	0.06	2849748	keystroke_i	i	n/a
1425.264	0.0905	2850528	keystroke_a	a	n/a
1427.1095	0.045	2854219	keystroke_b	b	n/a
1427.2745	0.06	2854549	keystroke_l	l	n/a
1427.5145	0.06	2855029	keystroke_e	e	n/a
1428.3245	0.09	2856649	keystroke_Key.space	Key.space	n/a
1428.8495	0.075	2857699	keystroke_t	t	n/a
1429.1195	0.09	2858239	keystroke_e	e	n/a
1429.5695	0.09	2859139	keystroke_x	x	n/a
1430.0045	0.06	2860009	keystroke_t	t	n/a
1435.1365	0.001	2870273	keystroke_i	i	n/a
1435.6595	0.075	2871319	keystroke_l	l	n/a
1435.9445	0.09	2871889	keystroke_e	e	n/a
1436.3195	0.105	2872639	keystroke_s	s	n/a
1439.202	0.013	2878404	keystroke_Key.enter	Key.enter	n/a
1439.219	21.432	2878438	prompt	n/a	cleaning pregnant bandwidth boxed\n
1440.535	0.059	2881070	keystroke_c	c	n/a
1440.685	0.074	2881370	keystroke_l	l	n/a
1440.879	0.076	2881758	keystroke_e	e	n/a
1441.179	0.076	2882358	keystroke_a	a	n/a
1441.359	0.061	2882718	keystroke_i	i	n/a
1441.6	0.059	2883200	keystroke_n	n	n/a
1441.809	0.075	2883618	keystroke_g	g	n/a
1442.679	0.075	2885358	keystroke_Key.space	Key.space	n/a
1443.175	0.089	2886350	keystroke_p	p	n/a
1443.5195	0.09	2887039	keystroke_r	r	n/a
1443.7145	0.105	2887429	keystroke_e	e	n/a
1444.135	0.0595	2888270	keystroke_g	g	n/a
1446.657	0.001	2893314	keystroke_n	n	n/a
1447.2845	0.1055	2894569	keystroke_a	a	n/a
1448.1395	0.045	2896279	keystroke_n	n	n/a
1448.3195	0.12	2896639	keystroke_t	t	n/a
1449.1895	0.105	2898379	keystroke_Key.space	Key.space	n/a
1449.955	0.06	2899910	keystroke_b	b	n/a
1450.255	0.09	2900510	keystroke_a	a	n/a
1450.48	0.045	2900960	keystroke_n	n	n/a
1450.93	0.075	2901860	keystroke_d	d	n/a
1452.0845	0.105	2904169	keystroke_w	w	n/a
1452.5795	0.045	2905159	keystroke_i	i	n/a
1454.065	0.105	2908130	keystroke_d	d	n/a
1455.7595	0.06	2911519	keystroke_t	t	n/a
1455.8795	0.075	2911759	keystroke_h	h	n/a
1456.7645	0.09	2913529	keystroke_Key.space	Key.space	n/a
1457.2595	0.045	2914519	keystroke_b	b	n/a
1457.4245	0.09	2914849	keystroke_o	o	n/a
1458.0395	0.075	2916079	keystroke_x	x	n/a
1458.2945	0.06	2916589	keystroke_e	e	n/a
1458.5645	0.075	2917129	keystroke_d	d	n/a
1460.5895	0.06	2921179	keystroke_Key.enter	Key.enter	n/a
1460.654	20.9375	2921308	prompt	n/a	wars stock communist employment\n
1461.7895	0.105	2923579	keystroke_w	w	n/a
1462.0895	0.09	2924179	keystroke_a	a	n/a
1462.4045	0.075	2924809	keystroke_r	r	n/a
1462.8855	0.104	2925771	keystroke_s	s	n/a
1463.5145	0.0905	2927029	keystroke_Key.space	Key.space	n/a
1463.71	0.09	2927420	keystroke_s	s	n/a
1464.1	0.075	2928200	keystroke_t	t	n/a
1464.37	0.0745	2928740	keystroke_o	o	n/a
1465.06	0.074	2930120	keystroke_c	c	n/a
1465.21	0.09	2930420	keystroke_k	k	n/a
1465.779	0.135	2931558	keystroke_Key.space	Key.space	n/a
1466.859	0.091	2933718	keystroke_c	c	n/a
1467.07	0.074	2934140	keystroke_o	o	n/a
1467.655	0.074	2935310	keystroke_m	m	n/a
1467.804	0.105	2935608	keystroke_m	m	n/a
1469.005	0.09	2938010	keystroke_u	u	n/a
1469.26	0.075	2938520	keystroke_n	n	n/a
1469.515	0.075	2939030	keystroke_i	i	n/a
1469.725	0.12	2939450	keystroke_s	s	n/a
1470.085	0.09	2940170	keystroke_t	t	n/a
1470.985	0.09	2941970	keystroke_Key.space	Key.space	n/a
1471.585	0.075	2943170	keystroke_e	e	n/a
1471.81	0.075	2943620	keystroke_m	m	n/a
1472.965	0.075	2945930	keystroke_p	p	n/a
1473.625	0.075	2947250	keystroke_l	l	n/a
1474.645	0.09	2949290	keystroke_o	o	n/a
1476.535	0.075	2953070	keystroke_y	y	n/a
1476.91	0.075	2953820	keystroke_m	m	n/a
1478.3045	0.06	2956609	keystroke_e	e	n/a
1478.4695	0.06	2956939	keystroke_n	n	n/a
1478.7995	0.09	2957599	keystroke_t	t	n/a
1481.5625	0.027	2963125	keystroke_Key.enter	Key.enter	n/a
1481.594	17.6075	2963188	prompt	n/a	pour selective nationally understand\n
1482.5945	0.09	2965189	keystroke_p	p	n/a
1483.5395	0.075	2967079	keystroke_o	o	n/a
1483.7795	0.075	2967559	keystroke_u	u	n/a
1484.1695	0.075	2968339	keystroke_r	r	n/a
1484.83	0.135	2969660	keystroke_Key.space	Key.space	n/a
1485.2945	0.075	2970589	keystroke_s	s	n/a
1485.7445	0.12	2971489	keystroke_e	e	n/a
1486.06	0.075	2972120	keystroke_l	l	n/a
1486.255	0.09	2972510	keystroke_e	e	n/a
1486.87	0.12	2973740	keystroke_c	c	n/a
1487.305	0.06	2974610	keystroke_t	t	n/a
1487.47	0.06	2974940	keystroke_i	i	n/a
1487.755	0.09	2975510	keystroke_v	v	n/a
1488.115	0.12	2976230	keystroke_e	e	n/a
1488.745	0.09	2977490	keystroke_Key.space	Key.space	n/a
1489.195	0.06	2978390	keystroke_n	n	n/a
1489.42	0.105	2978840	keystroke_a	a	n/a
1489.825	0.075	2979650	keystroke_t	t	n/a
1490.02	0.075	2980040	keystroke_i	i	n/a
1490.2	0.09	2980400	keystroke_o	o	n/a
1490.485	0.06	2980970	keystroke_n	n	n/a
1491.6245	0.09	2983249	keystroke_a	a	n/a
1492.1795	0.0755	2984359	keystroke_l	l	n/a
1492.2845	0.09	2984569	keystroke_l	l	n/a
1492.8995	0.105	2985799	keystroke_y	y	n/a
1493.0945	0.12	2986189	keystroke_Key.space	Key.space	n/a
1494.2805	0.074	2988561	keystroke_u	u	n/a
1494.5345	0.075	2989069	keystroke_n	n	n/a
1494.79	0.075	2989580	keystroke_d	d	n/a
1495.0145	0.075	2990029	keystroke_e	e	n/a
1495.285	0.09	2990570	keystroke_r	r	n/a
1496.035	0.06	2992070	keystroke_s	s	n/a
1496.41	0.075	2992820	keystroke_t	t	n/a
1496.695	0.09	2993390	keystroke_a	a	n/a
1496.905	0.045	2993810	keystroke_n	n	n/a
1497.07	0.09	2994140	keystroke_d	d	n/a
1499.095	0.105	2998190	keystroke_Key.enter	Key.enter	n/a
1499.2065	22.9595	2998413	prompt	n/a	cigarette carefully encouraged kate\n
1500.5195	0.09	3001039	keystroke_c	c	n/a
1500.8945	0.06	3001789	keystroke_i	i	n/a
1501.525	0.075	3003050	keystroke_g	g	n/a
1502.77	0.1045	3005540	keystroke_a	a	n/a
1503.1595	0.09	3006319	keystroke_r	r	n/a
1503.3845	0.09	3006769	keystroke_e	e	n/a
1504.4795	0.09	3008959	keystroke_t	t	n/a
1504.6745	0.0905	3009349	keystroke_t	t	n/a
1505.095	0.12	3010190	keystroke_e	e	n/a
1505.665	0.105	3011330	keystroke_Key.space	Key.space	n/a
1505.935	0.135	3011870	keystroke_c	c	n/a
1506.325	0.12	3012650	keystroke_a	a	n/a
1506.7	0.12	3013400	keystroke_r	r	n/a
1507.12	0.09	3014240	keystroke_e	e	n/a
1507.885	0.075	3015770	keystroke_f	f	n/a
1508.14	0.075	3016280	keystroke_u	u	n/a
1508.41	0.075	3016820	keystroke_l	l	n/a
1508.56	0.09	3017120	keystroke_l	l	n/a
1509.789	0.075	3019578	keystroke_y	y	n/a
1509.969	0.12	3019938	keystroke_Key.space	Key.space	n/a
1510.389	0.075	3020778	keystroke_e	e	n/a
1510.689	0.075	3021378	keystroke_n	n	n/a
1512.987	0.043	3025974	keystroke_c	c	n/a
1513.165	0.075	3026330	keystroke_o	o	n/a
1513.495	0.06	3026990	keystroke_u	u	n/a
1514.32	0.06	3028640	keystroke_r	r	n/a
1515.295	0.09	3030590	keystroke_a	a	n/a
1515.565	0.06	3031130	keystroke_g	g	n/a
1515.745	0.09	3031490	keystroke_e	e	n/a
1516	0.075	3032000	keystroke_d	d	n/a
1516.644	0.105	3033288	keystroke_Key.space	Key.space	n/a
1517.499	0.061	3034998	keystroke_k	k	n/a
1517.739	0.105	3035478	keystroke_a	a	n/a
1518.114	0.076	3036228	keystroke_t	t	n/a
1518.414	0.09	3036828	keystroke_e	e	n/a
1522.1525	0.012	3044305	keystroke_Key.enter	Key.enter	n/a
1522.169	18.087	3044338	prompt	n/a	news notified thunder proceedings\n
1523.3795	0.06	3046759	keystroke_n	n	n/a
1523.6195	0.075	3047239	keystroke_e	e	n/a
1523.8745	0.075	3047749	keystroke_w	w	n/a
1524.1295	0.075	3048259	keystroke_s	s	n/a
1524.2795	0.09	3048559	keystroke_Key.space	Key.space	n/a
1525.1495	0.09	3050299	keystroke_n	n	n/a
1525.4345	0.075	3050869	keystroke_o	o	n/a
1525.8545	0.045	3051709	keystroke_t	t	n/a
1526.0345	0.06	3052069	keystroke_i	i	n/a
1526.5895	0.09	3053179	keystroke_f	f	n/a
1526.7395	0.06	3053479	keystroke_i	i	n/a
1527.6545	0.075	3055309	keystroke_e	e	n/a
1527.9245	0.075	3055849	keystroke_d	d	n/a
1529.1545	0.06	3058309	keystroke_Key.space	Key.space	n/a
1529.8145	0.075	3059629	keystroke_t	t	n/a
1529.9495	0.075	3059899	keystroke_h	h	n/a
1530.3245	0.09	3060649	keystroke_u	u	n/a
1530.6695	0.06	3061339	keystroke_n	n	n/a
1530.8795	0.075	3061759	keystroke_d	d	n/a
1531.1045	0.09	3062209	keystroke_e	e	n/a
1531.3445	0.06	3062689	keystroke_r	r	n/a
1532.1395	0.09	3064279	keystroke_Key.space	Key.space	n/a
1532.7245	0.105	3065449	keystroke_p	p	n/a
1532.9645	0.075	3065929	keystroke_r	r	n/a
1533.3845	0.09	3066769	keystroke_o	o	n/a
1533.9245	0.075	3067849	keystroke_c	c	n/a
1535.3045	0.105	3070609	keystroke_e	e	n/a
1536.0695	0.06	3072139	keystroke_e	e	n/a
1536.25	0.09	3072500	keystroke_d	d	n/a
1536.7	0.015	3073400	keystroke_i	i	n/a
1537.96	0.045	3075920	keystroke_n	n	n/a
1538.4095	0.045	3076819	keystroke_g	g	n/a
1538.6495	0.09	3077299	keystroke_s	s	n/a
1540.165	0.09	3080330	keystroke_Key.enter	Key.enter	n/a
1540.259	20.757	3080518	prompt	n/a	offering endorsed minimum brian\n
1541.185	0.075	3082370	keystroke_o	o	n/a
1541.44	0.06	3082880	keystroke_f	f	n/a
1541.59	0.105	3083180	keystroke_f	f	n/a
1541.98	0.105	3083960	keystroke_e	e	n/a
1542.205	0.09	3084410	keystroke_r	r	n/a
1542.58	0.09	3085160	keystroke_e	e	n/a
1544.095	0.06	3088190	keystroke_Key.backspace	Key.backspace	n/a
1544.755	0.075	3089510	keystroke_i	i	n/a
1544.965	0.06	3089930	keystroke_n	n	n/a
1545.19	0.075	3090380	keystroke_g	g	n/a
1545.9995	0.09	3091999	keystroke_Key.space	Key.space	n/a
1546.4045	0.075	3092809	keystroke_e	e	n/a
1546.6295	0.06	3093259	keystroke_n	n	n/a
1546.8845	0.06	3093769	keystroke_d	d	n/a
1548.0995	0.105	3096199	keystroke_o	o	n/a
1548.4445	0.105	3096889	keystroke_r	r	n/a
1548.76	0.105	3097520	keystroke_s	s	n/a
1549.075	0.075	3098150	keystroke_e	e	n/a
1549.87	0.09	3099740	keystroke_d	d	n/a
1550.5	0.075	3101000	keystroke_Key.space	Key.space	n/a
1550.92	0.12	3101840	keystroke_m	m	n/a
1551.25	0.105	3102500	keystroke_i	i	n/a
1551.535	0.0895	3103070	keystroke_n	n	n/a
1552.1345	0.06	3104269	keystroke_i	i	n/a
1553.6045	0.06	3107209	keystroke_m	m	n/a
1554.2345	0.075	3108469	keystroke_u	u	n/a
1555.5245	0.075	3111049	keystroke_m	m	n/a
1556.3195	0.09	3112639	keystroke_Key.space	Key.space	n/a
1556.9645	0.06	3113929	keystroke_b	b	n/a
1557.235	0.075	3114470	keystroke_r	r	n/a
1558.96	0.06	3117920	keystroke_i	i	n/a
1559.305	0.075	3118610	keystroke_a	a	n/a
1559.98	0.06	3119960	keystroke_n	n	n/a
1560.9395	0.075	3121879	keystroke_Key.enter	Key.enter	n/a
1561.0195	28.392	3122039	prompt	n/a	reasonable principle mounting practitioners\n
1562.125	0.105	3124250	keystroke_r	r	n/a
1562.365	0.0895	3124730	keystroke_e	e	n/a
1562.7095	0.1055	3125419	keystroke_a	a	n/a
1563.3245	0.09	3126649	keystroke_s	s	n/a
1563.5645	0.06	3127129	keystroke_o	o	n/a
1564.3445	0.075	3128689	keystroke_n	n	n/a
1564.7495	0.09	3129499	keystroke_a	a	n/a
1565.5745	0.075	3131149	keystroke_b	b	n/a
1565.6945	0.09	3131389	keystroke_l	l	n/a
1565.9195	0.09	3131839	keystroke_e	e	n/a
1567.0145	0.075	3134029	keystroke_Key.space	Key.space	n/a
1567.6595	0.09	3135319	keystroke_p	p	n/a
1567.9445	0.06	3135889	keystroke_r	r	n/a
1568.7095	0.06	3137419	keystroke_i	i	n/a
1569.6545	0.06	3139309	keystroke_n	n	n/a
1570.9445	0.105	3141889	keystroke_c	c	n/a
1571.3195	0.09	3142639	keystroke_i	i	n/a
1572.2045	0.09	3144409	keystroke_p	p	n/a
1572.4595	0.12	3144919	keystroke_l	l	n/a
1572.7895	0.075	3145579	keystroke_e	e	n/a
1573.6295	0.09	3147259	keystroke_Key.space	Key.space	n/a
1574.1995	0.09	3148399	keystroke_m	m	n/a
1574.3945	0.09	3148789	keystroke_o	o	n/a
1574.7095	0.075	3149419	keystroke_u	u	n/a
1574.9795	0.045	3149959	keystroke_n	n	n/a
1575.2495	0.03	3150499	keystroke_t	t	n/a
1576.3295	0.09	3152659	keystroke_i	i	n/a
1576.5845	0.075	3153169	keystroke_n	n	n/a
1576.8245	0.075	3153649	keystroke_g	g	n/a
1577.1245	0.105	3154249	keystroke_Key.space	Key.space	n/a
1578.324	0.0905	3156648	keystroke_p	p	n/a
1578.5645	0.06	3157129	keystroke_r	r	n/a
1579.1195	0.105	3158239	keystroke_a	a	n/a
1579.945	0.105	3159890	keystroke_c	c	n/a
1580.905	0.09	3161810	keystroke_t	t	n/a
1581.43	0.075	3162860	keystroke_i	i	n/a
1584.177	0	3168354	keystroke_t	t	n/a
1585.24	0.075	3170480	keystroke_i	i	n/a
1585.45	0.105	3170900	keystroke_o	o	n/a
1585.855	0.075	3171710	keystroke_n	n	n/a
1587.1	0.105	3174200	keystroke_e	e	n/a
1587.445	0.09	3174890	keystroke_r	r	n/a
1587.7895	0.09	3175579	keystroke_s	s	n/a
1589.3345	0.075	3178669	keystroke_Key.enter	Key.enter	n/a
1589.4145	40.962	3178829	prompt	n/a	switzerland puerto australian delta\n
1591.044	0.0905	3182088	keystroke_s	s	n/a
1591.345	0.0895	3182690	keystroke_w	w	n/a
1592.1395	0.0445	3184279	keystroke_i	i	n/a
1593.79	0.06	3187580	keystroke_t	t	n/a
1595.4845	0.165	3190969	keystroke_z	z	n/a
1596.2645	0.18	3192529	keystroke_e	e	n/a
1597.105	0.09	3194210	keystroke_r	r	n/a
1597.57	0.09	3195140	keystroke_l	l	n/a
1598.35	0.075	3196700	keystroke_a	a	n/a
1598.59	0.045	3197180	keystroke_n	n	n/a
1598.845	0.075	3197690	keystroke_d	d	n/a
1599.55	0.1045	3199100	keystroke_Key.space	Key.space	n/a
1599.9245	0.15	3199849	keystroke_p	p	n/a
1600.855	0.105	3201710	keystroke_u	u	n/a
1601.89	0.0895	3203780	keystroke_e	e	n/a
1602.1745	0.09	3204349	keystroke_r	r	n/a
1602.4445	0.075	3204889	keystroke_t	t	n/a
1602.6995	0.09	3205399	keystroke_o	o	n/a
1606.7515	0.001	3213503	keystroke_Key.space	Key.space	n/a
1607.2445	0.105	3214489	keystroke_a	a	n/a
1607.6645	0.09	3215329	keystroke_u	u	n/a
1607.9945	0.12	3215989	keystroke_s	s	n/a
1610.05	0.059	3220100	keystroke_t	t	n/a
1611.8345	0.09	3223669	keystroke_r	r	n/a
1612.24	0.09	3224480	keystroke_a	a	n/a
1614.6265	0.043	3229253	keystroke_l	l	n/a
1615.2995	0.075	3230599	keystroke_i	i	n/a
1619.322	0.043	3238644	keystroke_a	a	n/a
1620.1895	0.06	3240379	keystroke_n	n	n/a
1626.6125	0.027	3253225	keystroke_Key.space	Key.space	n/a
1627.6595	0.09	3255319	keystroke_d	d	n/a
1627.9445	0.075	3255889	keystroke_e	e	n/a
1628.2895	0.075	3256579	keystroke_l	l	n/a
1628.6495	0.075	3257299	keystroke_t	t	n/a
1628.9795	0.09	3257959	keystroke_a	a	n/a
1630.285	0.09	3260570	keystroke_Key.enter	Key.enter	n/a
1630.38	18.5065	3260760	prompt	n/a	diabetes optical mission sailing\n
1632.145	0.045	3264290	keystroke_d	d	n/a
1632.55	0.06	3265100	keystroke_i	i	n/a
1632.805	0.09	3265610	keystroke_a	a	n/a
1634.29	0.06	3268580	keystroke_b	b	n/a
1634.59	0.09	3269180	keystroke_e	e	n/a
1634.875	0.09	3269750	keystroke_t	t	n/a
1635.145	0.09	3270290	keystroke_e	e	n/a
1635.865	0.09	3271730	keystroke_s	s	n/a
1636.24	0.12	3272480	keystroke_Key.space	Key.space	n/a
1636.66	0.09	3273320	keystroke_o	o	n/a
1637.125	0.09	3274250	keystroke_p	p	n/a
1639.377	0.013	3278754	keystroke_t	t	n/a
1640.215	0.06	3280430	keystroke_i	i	n/a
1640.41	0.0905	3280820	keystroke_c	c	n/a
1640.7105	0.09	3281421	keystroke_a	a	n/a
1641.3705	0.09	3282741	keystroke_l	l	n/a
1641.6705	0.105	3283341	keystroke_Key.space	Key.space	n/a
1642.0005	0.12	3284001	keystroke_m	m	n/a
1642.3155	0.074	3284631	keystroke_i	i	n/a
1642.5695	0.091	3285139	keystroke_s	s	n/a
1642.7495	0.105	3285499	keystroke_s	s	n/a
1642.9745	0.09	3285949	keystroke_i	i	n/a
1643.1695	0.105	3286339	keystroke_o	o	n/a
1643.4255	0.075	3286851	keystroke_n	n	n/a
1645.48	0.105	3290960	keystroke_Key.space	Key.space	n/a
1645.9	0.09	3291800	keystroke_s	s	n/a
1646.185	0.09	3292370	keystroke_a	a	n/a
1646.38	0.06	3292760	keystroke_i	i	n/a
1646.575	0.105	3293150	keystroke_l	l	n/a
1646.785	0.09	3293570	keystroke_i	i	n/a
1647.025	0.075	3294050	keystroke_n	n	n/a
1647.2505	0.075	3294501	keystroke_g	g	n/a
1648.7805	0.105	3297561	keystroke_Key.enter	Key.enter	n/a
1648.8905	35.891	3297781	prompt	n/a	assumptions gadgets gateway luggage\n
1650.2205	0.074	3300441	keystroke_a	a	n/a
1650.5205	0.09	3301041	keystroke_s	s	n/a
1650.7145	0.091	3301429	keystroke_s	s	n/a
1651.0755	0.075	3302151	keystroke_u	u	n/a
1651.6595	0.09	3303319	keystroke_m	m	n/a
1651.9745	0.06	3303949	keystroke_p	p	n/a
1653.3855	0.06	3306771	keystroke_t	t	n/a
1653.5205	0.09	3307041	keystroke_i	i	n/a
1653.6705	0.105	3307341	keystroke_o	o	n/a
1653.9555	0.075	3307911	keystroke_n	n	n/a
1654.9755	0.09	3309951	keystroke_s	s	n/a
1655.1705	0.105	3310341	keystroke_Key.space	Key.space	n/a
1656.4605	0.0745	3312921	keystroke_g	g	n/a
1656.76	0.105	3313520	keystroke_a	a	n/a
1658.335	0.09	3316670	keystroke_d	d	n/a
1659.805	0.09	3319610	keystroke_g	g	n/a
1660.1195	0.12	3320239	keystroke_e	e	n/a
1660.4645	0.075	3320929	keystroke_t	t	n/a
1660.8545	0.0905	3321709	keystroke_s	s	n/a
1662.2655	0.0895	3324531	keystroke_Key.space	Key.space	n/a
1663.09	0.075	3326180	keystroke_g	g	n/a
1663.39	0.06	3326780	keystroke_a	a	n/a
1663.75	0.06	3327500	keystroke_t	t	n/a
1664.005	0.06	3328010	keystroke_e	e	n/a
1664.515	0.12	3329030	keystroke_w	w	n/a
1664.905	0.09	3329810	keystroke_a	a	n/a
1665.2645	0.075	3330529	keystroke_y	y	n/a
1665.565	0.075	3331130	keystroke_s	s	n/a
1667.02	0.075	3334040	keystroke_Key.backspace	Key.backspace	n/a
1667.665	0.075	3335330	keystroke_l	l	n/a
1668.25	0.06	3336500	keystroke_u	u	n/a
1670.1555	0.075	3340311	keystroke_Key.backspace	Key.backspace	n/a
1670.7545	0.09	3341509	keystroke_Key.backspace	Key.backspace	n/a
1671.9705	0.104	3343941	keystroke_Key.space	Key.space	n/a
1673.1705	0.104	3346341	keystroke_l	l	n/a
1673.4845	0.105	3346969	keystroke_a	a	n/a
1675.782	0.013	3351564	keystroke_Key.backspace	Key.backspace	n/a
1676.4105	0.015	3352821	keystroke_u	u	n/a
1676.7855	0.09	3353571	keystroke_g	g	n/a
1677.1005	0.06	3354201	keystroke_g	g	n/a
1677.9545	0.046	3355909	keystroke_a	a	n/a
1679.3195	0.106	3358639	keystroke_f	f	n/a
1679.5745	0.075	3359149	keystroke_e	e	n/a
1680.835	0.06	3361670	keystroke_Key.backspace	Key.backspace	n/a
1681.18	0.075	3362360	keystroke_Key.backspace	Key.backspace	n/a
1682.17	0.06	3364340	keystroke_g	g	n/a
1682.4255	0.09	3364851	keystroke_e	e	n/a
1684.7525	0.028	3369505	keystroke_Key.enter	Key.enter	n/a
1684.7845	22.377	3369569	prompt	n/a	delayed licence carroll currently\n
1685.905	0.105	3371810	keystroke_d	d	n/a
1686.205	0.06	3372410	keystroke_e	e	n/a
1686.91	0.09	3373820	keystroke_l	l	n/a
1689.267	0.028	3378534	keystroke_a	a	n/a
1689.4155	0.075	3378831	keystroke_y	y	n/a
1690.1495	0.076	3380299	keystroke_e	e	n/a
1690.4355	0.075	3380871	keystroke_d	d	n/a
1691.0945	0.105	3382189	keystroke_Key.space	Key.space	n/a
1691.4545	0.12	3382909	keystroke_l	l	n/a
1691.7255	0.089	3383451	keystroke_i	i	n/a
1692.0845	0.075	3384169	keystroke_c	c	n/a
1693.4195	0.075	3386839	keystroke_e	e	n/a
1694.3195	0.06	3388639	keystroke_n	n	n/a
1694.5745	0.09	3389149	keystroke_c	c	n/a
1694.8445	0.075	3389689	keystroke_e	e	n/a
1695.3695	0.12	3390739	keystroke_Key.space	Key.space	n/a
1695.835	0.0895	3391670	keystroke_c	c	n/a
1696.1645	0.121	3392329	keystroke_a	a	n/a
1696.5405	0.075	3393081	keystroke_r	r	n/a
1696.7655	0.045	3393531	keystroke_r	r	n/a
1697.8755	0.09	3395751	keystroke_o	o	n/a
1698.5505	0.09	3397101	keystroke_l	l	n/a
1699.0005	0.09	3398001	keystroke_l	l	n/a
1700.2895	0.105	3400579	keystroke_Key.space	Key.space	n/a
1701.5345	0.016	3403069	keystroke_c	c	n/a
1701.5655	0.059	3403131	keystroke_u	u	n/a
1701.8795	0.076	3403759	keystroke_r	r	n/a
1703.1695	0.06	3406339	keystroke_r	r	n/a
1703.7545	0.09	3407509	keystroke_e	e	n/a
1704.4145	0.09	3408829	keystroke_n	n	n/a
1704.7745	0.06	3409549	keystroke_t	t	n/a
1705.1345	0.075	3410269	keystroke_l	l	n/a
1705.4945	0.06	3410989	keystroke_y	y	n/a
1707.0545	0.105	3414109	keystroke_Key.enter	Key.enter	n/a
1707.1645	21.327	3414329	prompt	n/a	xerox texas skins backed\n
1708.7345	0.105	3417469	keystroke_x	x	n/a
1709.9045	0.045	3419809	keystroke_e	e	n/a
1710.0845	0.105	3420169	keystroke_r	r	n/a
1710.4145	0.09	3420829	keystroke_o	o	n/a
1711.0895	0.105	3422179	keystroke_x	x	n/a
