onset	duration	sample	value	key	prompt_text
2.4455	12.0045	4891	prompt	n/a	the quick brown fox jumps over a lazy dog\n
6.4375	0.0285	12875	keystroke_t	t	n/a
6.4815	0.075	12963	keystroke_h	h	n/a
6.6315	0.135	13263	keystroke_e	e	n/a
6.7965	0.106	13593	keystroke_Key.space	Key.space	n/a
6.9775	0.1195	13955	keystroke_q	q	n/a
7.0825	0.0595	14165	keystroke_u	u	n/a
7.2625	0.0595	14525	keystroke_k	k	n/a
7.3665	0.136	14733	keystroke_c	c	n/a
7.9225	0.059	15845	keystroke_Key.backspace	Key.backspace	n/a
8.0415	0.075	16083	keystroke_Key.backspace	Key.backspace	n/a
8.5825	0.105	17165	keystroke_i	i	n/a
8.732	0.1805	17464	keystroke_c	c	n/a
8.8365	0.09	17673	keystroke_k	k	n/a
8.9565	0.1355	17913	keystroke_Key.space	Key.space	n/a
9.392	0.0755	18784	keystroke_b	b	n/a
9.482	0.0895	18964	keystroke_r	r	n/a
9.5865	0.076	19173	keystroke_o	o	n/a
9.992	0.1045	19984	keystroke_w	w	n/a
10.0825	0.105	20165	keystroke_n	n	n/a
10.1875	0.134	20375	keystroke_Key.space	Key.space	n/a
10.3375	0.0895	20675	keystroke_f	f	n/a
10.4575	0.0745	20915	keystroke_o	o	n/a
10.5775	0.1345	21155	keystroke_x	x	n/a
10.6975	0.119	21395	keystroke_Key.space	Key.space	n/a
10.8325	0.105	21665	keystroke_j	j	n/a
10.9825	0.075	21965	keystroke_u	u	n/a
11.177	0.1205	22354	keystroke_m	m	n/a
11.2675	0.105	22535	keystroke_p	p	n/a
11.4325	0.1345	22865	keystroke_s	s	n/a
11.537	0.135	23074	keystroke_Key.space	Key.space	n/a
11.702	0.0895	23404	keystroke_o	o	n/a
11.8525	0.06	23705	keystroke_v	v	n/a
12.032	0.045	24064	keystroke_e	e	n/a
12.1665	0.136	24333	keystroke_r	r	n/a
12.2565	0.15	24513	keystroke_Key.space	Key.space	n/a
12.3915	0.121	24783	keystroke_a	a	n/a
12.782	0.075	25564	keystroke_Key.space	Key.space	n/a
12.932	0.0895	25864	keystroke_l	l	n/a
13.0665	0.075	26133	keystroke_a	a	n/a
13.2775	0.105	26555	keystroke_z	z	n/a
13.607	0.09	27214	keystroke_y	y	n/a
13.7725	0.12	27545	keystroke_Key.space	Key.space	n/a
13.9075	0.105	27815	keystroke_d	d	n/a
14.0265	0.075	28053	keystroke_o	o	n/a
14.1325	0.075	28265	keystroke_g	g	n/a
14.4015	0.045	28803	keystroke_Key.enter	Key.enter	n/a
14.455	4.975	28910	prompt	n/a	enhancement now manuals range\n
15.1525	0.105	30305	keystroke_e	e	n/a
15.2425	0.1345	30485	keystroke_n	n	n/a
15.5875	0.075	31175	keystroke_h	h	n/a
15.6775	0.135	31355	keystroke_a	a	n/a
15.7825	0.105	31565	keystroke_n	n	n/a
15.9025	0.0895	31805	keystroke_c	c	n/a
16.097	0.09	32194	keystroke_e	e	n/a
16.172	0.105	32344	keystroke_m	m	n/a
16.262	0.1055	32524	keystroke_e	e	n/a
16.382	0.09	32764	keystroke_n	n	n/a
16.487	0.09	32974	keystroke_t	t	n/a
16.562	0.075	33124	keystroke_Key.space	Key.space	n/a
16.6675	0.0895	33335	keystroke_n	n	n/a
16.742	0.12	33484	keystroke_o	o	n/a
16.847	0.15	33694	keystroke_w	w	n/a
16.952	0.1055	33904	keystroke_Key.space	Key.space	n/a
17.102	0.0605	34204	keystroke_m	m	n/a
17.1925	0.09	34385	keystroke_a	a	n/a
17.2975	0.075	34595	keystroke_n	n	n/a
17.478	0.0595	34956	keystroke_u	u	n/a
17.5825	0.135	35165	keystroke_a	a	n/a
17.7025	0.074	35405	keystroke_l	l	n/a
17.7915	0.135	35583	keystroke_s	s	n/a
17.9125	0.089	35825	keystroke_Key.space	Key.space	n/a
17.9575	0.105	35915	keystroke_r	r	n/a
18.182	0.0305	36364	keystroke_a	a	n/a
18.2565	0.06	36513	keystroke_n	n	n/a
18.797	0.0745	37594	keystroke_g	g	n/a
19.0365	0.121	38073	keystroke_e	e	n/a
19.3365	0.091	38673	keystroke_Key.enter	Key.enter	n/a
19.435	6.0085	38870	prompt	n/a	firewall coated prizes sans\n
21.197	0.105	42394	keystroke_f	f	n/a
21.332	0.075	42664	keystroke_i	i	n/a
21.422	0.06	42844	keystroke_r	r	n/a
21.6325	0.1195	43265	keystroke_e	e	n/a
22.1575	0.09	44315	keystroke_w	w	n/a
22.2625	0.135	44525	keystroke_a	a	n/a
22.3825	0.09	44765	keystroke_l	l	n/a
22.5175	0.134	45035	keystroke_l	l	n/a
22.6525	0.119	45305	keystroke_Key.space	Key.space	n/a
22.8175	0.15	45635	keystroke_c	c	n/a
22.982	0.06	45964	keystroke_o	o	n/a
23.072	0.12	46144	keystroke_a	a	n/a
23.207	0.075	46414	keystroke_t	t	n/a
23.402	0.06	46804	keystroke_e	e	n/a
23.567	0.105	47134	keystroke_d	d	n/a
23.642	0.105	47284	keystroke_Key.space	Key.space	n/a
23.7625	0.12	47525	keystroke_p	p	n/a
23.897	0.075	47794	keystroke_r	r	n/a
24.002	0.09	48004	keystroke_i	i	n/a
24.107	0.165	48214	keystroke_z	z	n/a
24.257	0.1205	48514	keystroke_e	e	n/a
24.437	0.135	48874	keystroke_s	s	n/a
24.542	0.15	49084	keystroke_Key.space	Key.space	n/a
24.737	0.1055	49474	keystroke_s	s	n/a
24.8275	0.1045	49655	keystroke_a	a	n/a
24.962	0.105	49924	keystroke_n	n	n/a
25.082	0.09	50164	keystroke_s	s	n/a
25.352	0.0905	50704	keystroke_Key.enter	Key.enter	n/a
25.4475	8.5915	50895	prompt	n/a	suppose responsibilities alcohol battle\n
26.2375	0.09	52475	keystroke_s	s	n/a
26.2965	0.091	52593	keystroke_u	u	n/a
26.5225	0.075	53045	keystroke_p	p	n/a
26.6575	0.075	53315	keystroke_p	p	n/a
26.7025	0.12	53405	keystroke_o	o	n/a
26.8375	0.135	53675	keystroke_s	s	n/a
26.9125	0.165	53825	keystroke_e	e	n/a
27.0615	0.09	54123	keystroke_Key.space	Key.space	n/a
27.497	0.06	54994	keystroke_r	r	n/a
27.662	0.06	55324	keystroke_e	e	n/a
27.797	0.09	55594	keystroke_s	s	n/a
27.9775	0.105	55955	keystroke_p	p	n/a
28.0525	0.12	56105	keystroke_o	o	n/a
28.2025	0.105	56405	keystroke_n	n	n/a
28.3675	0.09	56735	keystroke_s	s	n/a
28.4725	0.075	56945	keystroke_i	i	n/a
28.6975	0.0895	57395	keystroke_b	b	n/a
28.937	0.0755	57874	keystroke_i	i	n/a
29.2075	0.12	58415	keystroke_l	l	n/a
29.3725	0.09	58745	keystroke_i	i	n/a
29.5375	0.12	59075	keystroke_t	t	n/a
29.6425	0.0745	59285	keystroke_i	i	n/a
29.8075	0.09	59615	keystroke_e	e	n/a
29.9725	0.135	59945	keystroke_s	s	n/a
30.1075	0.1045	60215	keystroke_Key.space	Key.space	n/a
30.5575	0.1205	61115	keystroke_a	a	n/a
30.797	0.1055	61594	keystroke_l	l	n/a
31.0515	0.1055	62103	keystroke_c	c	n/a
31.5775	0.12	63155	keystroke_o	o	n/a
31.862	0.075	63724	keystroke_h	h	n/a
31.9975	0.09	63995	keystroke_o	o	n/a
32.1925	0.09	64385	keystroke_l	l	n/a
32.3125	0.1495	64625	keystroke_Key.space	Key.space	n/a
32.4925	0.0595	64985	keystroke_b	b	n/a
32.613	0.089	65226	keystroke_a	a	n/a
32.7625	0.0895	65525	keystroke_t	t	n/a
32.8975	0.0895	65795	keystroke_t	t	n/a
33.572	0.075	67144	keystroke_l	l	n/a
33.678	0.0745	67356	keystroke_e	e	n/a
33.992	0.045	67984	keystroke_Key.enter	Key.enter	n/a
34.0425	9.673	68085	prompt	n/a	activated determination trek pursuit\n
34.9075	0.12	69815	keystroke_a	a	n/a
35.582	0.135	71164	keystroke_c	c	n/a
35.912	0.09	71824	keystroke_t	t	n/a
36.047	0.1055	72094	keystroke_i	i	n/a
36.167	0.105	72334	keystroke_v	v	n/a
36.3775	0.1195	72755	keystroke_a	a	n/a
36.5275	0.105	73055	keystroke_t	t	n/a
36.752	0.075	73504	keystroke_e	e	n/a
36.962	0.0905	73924	keystroke_d	d	n/a
37.007	0.1355	74014	keystroke_Key.space	Key.space	n/a
37.3825	0.06	74765	keystroke_d	d	n/a
37.5175	0.0745	75035	keystroke_e	e	n/a
37.757	0.075	75514	keystroke_t	t	n/a
38.088	0.0895	76176	keystroke_e	e	n/a
38.2375	0.06	76475	keystroke_r	r	n/a
38.5075	0.09	77015	keystroke_m	m	n/a
38.7625	0.015	77525	keystroke_i	i	n/a
38.8825	0.075	77765	keystroke_n	n	n/a
38.973	0.105	77946	keystroke_a	a	n/a
39.1225	0.1195	78245	keystroke_t	t	n/a
39.197	0.075	78394	keystroke_i	i	n/a
39.347	0.12	78694	keystroke_o	o	n/a
39.407	0.1355	78814	keystroke_n	n	n/a
39.482	0.1055	78964	keystroke_Key.space	Key.space	n/a
40.0225	0.1055	80045	keystroke_t	t	n/a
40.2325	0.06	80465	keystroke_r	r	n/a
40.3975	0.075	80795	keystroke_e	e	n/a
40.607	0.121	81214	keystroke_c	c	n/a
40.7125	0.075	81425	keystroke_k	k	n/a
40.8325	0.119	81665	keystroke_Key.space	Key.space	n/a
41.0125	0.089	82025	keystroke_p	p	n/a
41.2225	0.09	82445	keystroke_u	u	n/a
41.328	0.1045	82656	keystroke_r	r	n/a
41.6415	0.075	83283	keystroke_Key.backspace	Key.backspace	n/a
42.603	0.089	85206	keystroke_r	r	n/a
42.8875	0.105	85775	keystroke_s	s	n/a
42.9925	0.045	85985	keystroke_u	u	n/a
43.202	0.076	86404	keystroke_i	i	n/a
43.353	0.104	86706	keystroke_t	t	n/a
43.622	0.09	87244	keystroke_Key.enter	Key.enter	n/a
43.721	8.9195	87442	prompt	n/a	honolulu pioneer upload confused\n
44.492	0.105	88984	keystroke_h	h	n/a
44.702	0.0905	89404	keystroke_o	o	n/a
44.8975	0.0895	89795	keystroke_n	n	n/a
45.077	0.0905	90154	keystroke_o	o	n/a
45.3025	0.0745	90605	keystroke_l	l	n/a
45.528	0.075	91056	keystroke_u	u	n/a
45.7375	0.105	91475	keystroke_l	l	n/a
45.9325	0.075	91865	keystroke_u	u	n/a
46.0525	0.1195	92105	keystroke_Key.space	Key.space	n/a
46.1575	0.12	92315	keystroke_p	p	n/a
46.353	0.0445	92706	keystroke_i	i	n/a
47.252	0.09	94504	keystroke_o	o	n/a
47.703	0.059	95406	keystroke_n	n	n/a
48.1225	0.09	96245	keystroke_e	e	n/a
48.3025	0.045	96605	keystroke_r	r	n/a
49.022	0.075	98044	keystroke_Key.backspace	Key.backspace	n/a
49.127	0.0755	98254	keystroke_e	e	n/a
49.5175	0.09	99035	keystroke_r	r	n/a
49.8325	0.105	99665	keystroke_Key.space	Key.space	n/a
50.2225	0.0905	100445	keystroke_u	u	n/a
50.4175	0.0745	100835	keystroke_p	p	n/a
50.612	0.0905	101224	keystroke_l	l	n/a
50.7775	0.105	101555	keystroke_o	o	n/a
50.8975	0.15	101795	keystroke_a	a	n/a
50.9875	0.135	101975	keystroke_d	d	n/a
51.1075	0.105	102215	keystroke_Key.space	Key.space	n/a
51.647	0.1205	103294	keystroke_c	c	n/a
51.738	0.119	103476	keystroke_o	o	n/a
51.813	0.134	103626	keystroke_n	n	n/a
51.932	0.135	103864	keystroke_f	f	n/a
52.068	0.0895	104136	keystroke_u	u	n/a
52.1725	0.105	104345	keystroke_s	s	n/a
52.2325	0.06	104465	keystroke_e	e	n/a
52.3975	0.09	104795	keystroke_d	d	n/a
52.5325	0.105	105065	keystroke_Key.enter	Key.enter	n/a
52.6455	6.534	105291	prompt	n/a	position yahoo names facility\n
53.402	0.076	106804	keystroke_p	p	n/a
53.567	0.105	107134	keystroke_o	o	n/a
53.642	0.136	107284	keystroke_s	s	n/a
53.793	0.09	107586	keystroke_i	i	n/a
53.898	0.104	107796	keystroke_t	t	n/a
53.987	0.06	107974	keystroke_i	i	n/a
54.152	0.12	108304	keystroke_o	o	n/a
54.2275	0.1195	108455	keystroke_n	n	n/a
54.317	0.09	108634	keystroke_Key.space	Key.space	n/a
54.5275	0.1055	109055	keystroke_y	y	n/a
54.7225	0.105	109445	keystroke_a	a	n/a
54.933	0.059	109866	keystroke_h	h	n/a
55.112	0.046	110224	keystroke_o	o	n/a
55.233	0.075	110466	keystroke_o	o	n/a
55.352	0.12	110704	keystroke_Key.space	Key.space	n/a
55.487	0.0905	110974	keystroke_n	n	n/a
55.6365	0.135	111273	keystroke_a	a	n/a
55.7415	0.091	111483	keystroke_m	m	n/a
55.8465	0.091	111693	keystroke_e	e	n/a
55.9825	0.1495	111965	keystroke_s	s	n/a
56.087	0.12	112174	keystroke_Key.space	Key.space	n/a
56.6425	0.0895	113285	keystroke_f	f	n/a
57.1675	0.1495	114335	keystroke_a	a	n/a
57.542	0.1055	115084	keystroke_c	c	n/a
57.782	0.0905	115564	keystroke_i	i	n/a
57.9925	0.15	115985	keystroke_l	l	n/a
58.1275	0.09	116255	keystroke_i	i	n/a
58.2475	0.135	116495	keystroke_t	t	n/a
58.862	0.09	117724	keystroke_y	y	n/a
59.102	0.0755	118204	keystroke_Key.enter	Key.enter	n/a
59.1875	11.062	118375	prompt	n/a	praise justify mysimon erik\n
60.2275	0.1345	120455	keystroke_p	p	n/a
60.333	0.089	120666	keystroke_r	r	n/a
60.512	0.121	121024	keystroke_a	a	n/a
60.602	0.0755	121204	keystroke_i	i	n/a
60.737	0.136	121474	keystroke_s	s	n/a
60.798	0.1795	121596	keystroke_e	e	n/a
60.932	0.12	121864	keystroke_Key.space	Key.space	n/a
61.067	0.1045	122134	keystroke_j	j	n/a
61.2615	0.076	122523	keystroke_u	u	n/a
61.3525	0.1195	122705	keystroke_s	s	n/a
61.712	0.0905	123424	keystroke_t	t	n/a
61.833	0.075	123666	keystroke_i	i	n/a
61.968	0.1045	123936	keystroke_f	f	n/a
62.3275	0.105	124655	keystroke_y	y	n/a
63.0325	0.105	126065	keystroke_Key.space	Key.space	n/a
63.4375	0.105	126875	keystroke_m	m	n/a
63.5875	0.104	127175	keystroke_y	y	n/a
64.0675	0.0895	128135	keystroke_s	s	n/a
64.2775	0.1045	128555	keystroke_i	i	n/a
65.987	0.1055	131974	keystroke_m	m	n/a
66.137	0.121	132274	keystroke_o	o	n/a
66.242	0.105	132484	keystroke_n	n	n/a
66.377	0.0905	132754	keystroke_Key.space	Key.space	n/a
69.32	0.028	138640	keystroke_e	e	n/a
69.4375	0.1205	138875	keystroke_r	r	n/a
69.573	0.074	139146	keystroke_i	i	n/a
69.782	0.076	139564	keystroke_k	k	n/a
70.142	0.1055	140284	keystroke_Key.enter	Key.enter	n/a
70.254	5.485	140508	prompt	n/a	clear clara bugs contract\n
70.8775	0.09	141755	keystroke_c	c	n/a
70.982	0.135	141964	keystroke_l	l	n/a
71.087	0.135	142174	keystroke_e	e	n/a
71.207	0.1655	142414	keystroke_a	a	n/a
71.2975	0.135	142595	keystroke_r	r	n/a
71.4025	0.12	142805	keystroke_Key.space	Key.space	n/a
71.9275	0.075	143855	keystroke_c	c	n/a
72.0475	0.105	144095	keystroke_l	l	n/a
72.1975	0.12	144395	keystroke_a	a	n/a
72.4825	0.105	144965	keystroke_r	r	n/a
72.617	0.135	145234	keystroke_a	a	n/a
72.767	0.1055	145534	keystroke_Key.space	Key.space	n/a
73.143	0.089	146286	keystroke_b	b	n/a
73.337	0.0605	146674	keystroke_u	u	n/a
73.412	0.0905	146824	keystroke_g	g	n/a
73.607	0.135	147214	keystroke_s	s	n/a
73.7275	0.12	147455	keystroke_Key.space	Key.space	n/a
74.2375	0.1045	148475	keystroke_c	c	n/a
74.327	0.06	148654	keystroke_o	o	n/a
74.4625	0.09	148925	keystroke_n	n	n/a
74.8675	0.06	149735	keystroke_t	t	n/a
75.0325	0.09	150065	keystroke_r	r	n/a
75.108	0.1495	150216	keystroke_a	a	n/a
75.2875	0.1045	150575	keystroke_c	c	n/a
75.542	0.0455	151084	keystroke_t	t	n/a
75.6475	0.0895	151295	keystroke_Key.enter	Key.enter	n/a
75.7435	4.5255	151487	prompt	n/a	locks kick highland stage\n
76.458	0.0895	152916	keystroke_l	l	n/a
76.607	0.106	153214	keystroke_o	o	n/a
76.7275	0.1195	153455	keystroke_c	c	n/a
76.862	0.09	153724	keystroke_k	k	n/a
76.968	0.1345	153936	keystroke_s	s	n/a
77.087	0.135	154174	keystroke_Key.space	Key.space	n/a
77.282	0.075	154564	keystroke_k	k	n/a
77.447	0.075	154894	keystroke_i	i	n/a
77.5375	0.1505	155075	keystroke_c	c	n/a
77.657	0.105	155314	keystroke_k	k	n/a
77.7475	0.1195	155495	keystroke_Key.space	Key.space	n/a
77.957	0.075	155914	keystroke_h	h	n/a
78.092	0.1055	156184	keystroke_i	i	n/a
78.198	0.0745	156396	keystroke_g	g	n/a
78.3025	0.075	156605	keystroke_h	h	n/a
78.872	0.015	157744	keystroke_l	l	n/a
78.933	0.1345	157866	keystroke_a	a	n/a
79.0525	0.075	158105	keystroke_n	n	n/a
79.1875	0.105	158375	keystroke_d	d	n/a
79.2625	0.15	158525	keystroke_Key.space	Key.space	n/a
79.4275	0.15	158855	keystroke_s	s	n/a
79.5925	0.105	159185	keystroke_t	t	n/a
79.7275	0.15	159455	keystroke_a	a	n/a
79.8625	0.06	159725	keystroke_g	g	n/a
80.0275	0.09	160055	keystroke_e	e	n/a
80.1625	0.105	160325	keystroke_Key.enter	Key.enter	n/a
80.2725	4.4365	160545	prompt	n/a	repairs luther abuse proven\n
81.0625	0.075	162125	keystroke_r	r	n/a
81.2275	0.075	162455	keystroke_e	e	n/a
81.3175	0.0905	162635	keystroke_p	p	n/a
81.422	0.12	162844	keystroke_a	a	n/a
81.512	0.106	163024	keystroke_r	r	n/a
81.618	0.074	163236	keystroke_i	i	n/a
81.752	0.121	163504	keystroke_s	s	n/a
81.842	0.12	163684	keystroke_Key.space	Key.space	n/a
82.067	0.06	164134	keystroke_l	l	n/a
82.247	0.09	164494	keystroke_u	u	n/a
82.307	0.105	164614	keystroke_t	t	n/a
82.4275	0.1045	164855	keystroke_h	h	n/a
82.547	0.06	165094	keystroke_e	e	n/a
82.683	0.1045	165366	keystroke_r	r	n/a
82.7725	0.09	165545	keystroke_Key.space	Key.space	n/a
82.9075	0.12	165815	keystroke_a	a	n/a
83.0425	0.09	166085	keystroke_b	b	n/a
83.252	0.0605	166504	keystroke_u	u	n/a
83.3425	0.1505	166685	keystroke_s	s	n/a
83.4325	0.165	166865	keystroke_e	e	n/a
83.5525	0.12	167105	keystroke_Key.space	Key.space	n/a
83.6875	0.075	167375	keystroke_p	p	n/a
83.7775	0.0755	167555	keystroke_r	r	n/a
83.867	0.106	167734	keystroke_o	o	n/a
84.018	0.105	168036	keystroke_v	v	n/a
84.2575	0.0895	168515	keystroke_e	e	n/a
84.333	0.0745	168666	keystroke_n	n	n/a
84.6475	0.06	169295	keystroke_Key.enter	Key.enter	n/a
84.7135	7.6005	169427	prompt	n/a	blade netscape satisfy through\n
85.593	0.0745	171186	keystroke_b	b	n/a
85.7725	0.075	171545	keystroke_l	l	n/a
85.8625	0.12	171725	keystroke_a	a	n/a
85.9675	0.105	171935	keystroke_d	d	n/a
86.2525	0.03	172505	keystroke_e	e	n/a
86.268	0.0895	172536	keystroke_Key.space	Key.space	n/a
86.5075	0.075	173015	keystroke_n	n	n/a
86.5975	0.0905	173195	keystroke_e	e	n/a
86.8225	0.075	173645	keystroke_t	t	n/a
87.1075	0.12	174215	keystroke_s	s	n/a
87.602	0.0905	175204	keystroke_c	c	n/a
87.722	0.105	175444	keystroke_a	a	n/a
87.842	0.0755	175684	keystroke_p	p	n/a
87.962	0.091	175924	keystroke_e	e	n/a
88.112	0.1345	176224	keystroke_Key.space	Key.space	n/a
88.4425	0.105	176885	keystroke_s	s	n/a
89.2975	0.135	178595	keystroke_a	a	n/a
89.643	0.0745	179286	keystroke_t	t	n/a
89.7925	0.075	179585	keystroke_i	i	n/a
90.0475	0.09	180095	keystroke_s	s	n/a
90.1975	0.105	180395	keystroke_f	f	n/a
90.527	0.0905	181054	keystroke_y	y	n/a
90.6925	0.12	181385	keystroke_Key.space	Key.space	n/a
90.8425	0.0895	181685	keystroke_t	t	n/a
90.962	0.0605	181924	keystroke_h	h	n/a
91.082	0.091	182164	keystroke_r	r	n/a
91.157	0.091	182314	keystroke_o	o	n/a
91.307	0.0605	182614	keystroke_g	g	n/a
91.412	0.0755	182824	keystroke_u	u	n/a
91.877	0.076	183754	keystroke_h	h	n/a
92.222	0.09	184444	keystroke_Key.enter	Key.enter	n/a
92.3185	7.0755	184637	prompt	n/a	sounds frank plaintiff essex\n
92.973	0.119	185946	keystroke_s	s	n/a
93.0625	0.0455	186125	keystroke_o	o	n/a
93.212	0.075	186424	keystroke_u	u	n/a
93.392	0.12	186784	keystroke_n	n	n/a
93.452	0.1655	186904	keystroke_d	d	n/a
93.602	0.1055	187204	keystroke_s	s	n/a
93.6325	0.12	187265	keystroke_Key.space	Key.space	n/a
93.798	0.059	187596	keystroke_f	f	n/a
93.962	0.075	187924	keystroke_r	r	n/a
94.127	0.105	188254	keystroke_a	a	n/a
94.2175	0.1195	188435	keystroke_n	n	n/a
94.3225	0.1345	188645	keystroke_k	k	n/a
94.442	0.1205	188884	keystroke_Key.space	Key.space	n/a
94.607	0.061	189214	keystroke_p	p	n/a
94.787	0.09	189574	keystroke_l	l	n/a
94.998	0.0895	189996	keystroke_a	a	n/a
95.448	0.0745	190896	keystroke_i	i	n/a
95.688	0.089	191376	keystroke_n	n	n/a
96.2575	0.105	192515	keystroke_t	t	n/a
96.4525	0.075	192905	keystroke_i	i	n/a
96.5725	0.09	193145	keystroke_f	f	n/a
96.7225	0.105	193445	keystroke_f	f	n/a
96.8425	0.12	193685	keystroke_Key.space	Key.space	n/a
96.992	0.0905	193984	keystroke_e	e	n/a
97.2325	0.03	194465	keystroke_x	x	n/a
97.8175	0.09	195635	keystroke_x	x	n/a
98.1625	0.03	196325	keystroke_Key.backspace	Key.backspace	n/a
98.2675	0.09	196535	keystroke_Key.backspace	Key.backspace	n/a
98.3125	0.075	196625	keystroke_s	s	n/a
98.5675	0.03	197135	keystroke_s	s	n/a
98.5825	0.0905	197165	keystroke_e	e	n/a
98.7625	0.105	197525	keystroke_x	x	n/a
99.317	0.0755	198634	keystroke_Key.enter	Key.enter	n/a
99.3985	9.2505	198797	prompt	n/a	retrieval horn reproduced bishop\n
100.2175	0.06	200435	keystroke_r	r	n/a
100.3825	0.075	200765	keystroke_e	e	n/a
100.5925	0.075	201185	keystroke_t	t	n/a
100.8025	0.105	201605	keystroke_r	r	n/a
101.4325	0.0905	202865	keystroke_i	i	n/a
101.8375	0.09	203675	keystroke_e	e	n/a
102.1975	0.105	204395	keystroke_v	v	n/a
102.573	0.1345	205146	keystroke_a	a	n/a
102.6775	0.105	205355	keystroke_l	l	n/a
102.8125	0.105	205625	keystroke_Key.space	Key.space	n/a
102.9625	0.075	205925	keystroke_b	b	n/a
103.3825	0.0455	206765	keystroke_Key.backspace	Key.backspace	n/a
103.578	0.104	207156	keystroke_h	h	n/a
103.653	0.0895	207306	keystroke_o	o	n/a
103.743	0.1495	207486	keystroke_r	r	n/a
103.8475	0.1045	207695	keystroke_n	n	n/a
103.9675	0.12	207935	keystroke_Key.space	Key.space	n/a
104.6725	0.075	209345	keystroke_r	r	n/a
104.7775	0.0905	209555	keystroke_e	e	n/a
105.1825	0.0895	210365	keystroke_p	p	n/a
105.5875	0.12	211175	keystroke_r	r	n/a
105.7225	0.09	211445	keystroke_o	o	n/a
106.1275	0.104	212255	keystroke_d	d	n/a
106.233	0.104	212466	keystroke_u	u	n/a
106.3525	0.1055	212705	keystroke_c	c	n/a
106.563	0.0745	213126	keystroke_e	e	n/a
106.7425	0.12	213485	keystroke_d	d	n/a
106.8175	0.1345	213635	keystroke_Key.space	Key.space	n/a
107.2975	0.09	214595	keystroke_b	b	n/a
107.4775	0.1055	214955	keystroke_i	i	n/a
107.5975	0.1205	215195	keystroke_s	s	n/a
107.7775	0.15	215555	keystroke_h	h	n/a
107.8525	0.1195	215705	keystroke_o	o	n/a
108.3025	0.06	216605	keystroke_p	p	n/a
108.5725	0.075	217145	keystroke_Key.enter	Key.enter	n/a
108.6535	7.2105	217307	prompt	n/a	testing prize beat webcam\n
109.3375	0.09	218675	keystroke_t	t	n/a
109.5325	0.09	219065	keystroke_e	e	n/a
109.6375	0.135	219275	keystroke_s	s	n/a
109.7575	0.09	219515	keystroke_t	t	n/a
109.8325	0.105	219665	keystroke_i	i	n/a
109.9075	0.15	219815	keystroke_n	n	n/a
110.0125	0.075	220025	keystroke_g	g	n/a
110.0725	0.12	220145	keystroke_Key.space	Key.space	n/a
110.1775	0.09	220355	keystroke_p	p	n/a
110.2975	0.105	220595	keystroke_r	r	n/a
110.3875	0.075	220775	keystroke_i	i	n/a
110.5525	0.165	221105	keystroke_z	z	n/a
110.7025	0.135	221405	keystroke_e	e	n/a
110.822	0.1205	221644	keystroke_Key.space	Key.space	n/a
111.0315	0.075	222063	keystroke_b	b	n/a
111.1525	0.12	222305	keystroke_e	e	n/a
111.527	0.135	223054	keystroke_a	a	n/a
111.8125	0.105	223625	keystroke_t	t	n/a
111.962	0.1055	223924	keystroke_Key.space	Key.space	n/a
112.3675	0.12	224735	keystroke_w	w	n/a
112.488	0.0745	224976	keystroke_e	e	n/a
112.727	0.075	225454	keystroke_v	v	n/a
113.327	0.06	226654	keystroke_Key.backspace	Key.backspace	n/a
113.3415	0.09	226683	keystroke_c	c	n/a
113.792	0.06	227584	keystroke_Key.backspace	Key.backspace	n/a
114.437	0.09	228874	keystroke_b	b	n/a
114.587	0.09	229174	keystroke_c	c	n/a
114.722	0.1355	229444	keystroke_a	a	n/a
114.8425	0.0895	229685	keystroke_m	m	n/a
115.7425	0.119	231485	keystroke_Key.enter	Key.enter	n/a
115.868	8.756	231736	prompt	n/a	sentence telescope display mainstream\n
116.6565	0.15	233313	keystroke_s	s	n/a
116.7775	0.075	233555	keystroke_e	e	n/a
116.9275	0.1195	233855	keystroke_n	n	n/a
117.3325	0.0745	234665	keystroke_t	t	n/a
117.527	0.0605	235054	keystroke_e	e	n/a
117.6175	0.105	235235	keystroke_n	n	n/a
117.737	0.12	235474	keystroke_c	c	n/a
117.9925	0.1345	235985	keystroke_e	e	n/a
118.1125	0.12	236225	keystroke_Key.space	Key.space	n/a
118.4725	0.06	236945	keystroke_t	t	n/a
118.622	0.105	237244	keystroke_e	e	n/a
118.7425	0.1345	237485	keystroke_l	l	n/a
118.8625	0.0745	237725	keystroke_e	e	n/a
119.117	0.1055	238234	keystroke_s	s	n/a
119.3575	0.1345	238715	keystroke_c	c	n/a
119.613	0.119	239226	keystroke_o	o	n/a
119.687	0.1505	239374	keystroke_p	p	n/a
119.852	0.1355	239704	keystroke_e	e	n/a
119.972	0.105	239944	keystroke_Key.space	Key.space	n/a
120.107	0.0755	240214	keystroke_e	e	n/a
120.3925	0.045	240785	keystroke_Key.backspace	Key.backspace	n/a
120.4675	0.1345	240935	keystroke_d	d	n/a
120.5875	0.09	241175	keystroke_i	i	n/a
120.7225	0.12	241445	keystroke_s	s	n/a
120.843	0.0895	241686	keystroke_p	p	n/a
121.128	0.1345	242256	keystroke_a	a	n/a
121.5625	0.0295	243125	keystroke_Key.backspace	Key.backspace	n/a
121.727	0.0755	243454	keystroke_l	l	n/a
121.7575	0.0905	243515	keystroke_a	a	n/a
121.952	0.0905	243904	keystroke_y	y	n/a
122.1015	0.1055	244203	keystroke_Key.space	Key.space	n/a
122.4625	0.1045	244925	keystroke_m	m	n/a
122.5815	0.1055	245163	keystroke_a	a	n/a
122.807	0.0905	245614	keystroke_i	i	n/a
122.9575	0.12	245915	keystroke_n	n	n/a
123.1665	0.09	246333	keystroke_t	t	n/a
123.542	0.06	247084	keystroke_Key.backspace	Key.backspace	n/a
123.587	0.0605	247174	keystroke_s	s	n/a
123.692	0.075	247384	keystroke_t	t	n/a
123.9025	0.0745	247805	keystroke_r	r	n/a
124.082	0.0905	248164	keystroke_e	e	n/a
124.233	0.104	248466	keystroke_a	a	n/a
124.3075	0.09	248615	keystroke_m	m	n/a
124.532	0.0905	249064	keystroke_Key.enter	Key.enter	n/a
124.628	10.796	249256	prompt	n/a	finite crazy pirates athletes\n
125.612	0.105	251224	keystroke_f	f	n/a
125.762	0.105	251524	keystroke_i	i	n/a
126.032	0.135	252064	keystroke_n	n	n/a
126.122	0.1205	252244	keystroke_i	i	n/a
126.227	0.075	252454	keystroke_t	t	n/a
126.437	0.135	252874	keystroke_e	e	n/a
126.557	0.15	253114	keystroke_Key.space	Key.space	n/a
127.652	0.075	255304	keystroke_c	c	n/a
128.102	0.09	256204	keystroke_r	r	n/a
128.3125	0.0905	256625	keystroke_a	a	n/a
128.5675	0.075	257135	keystroke_z	z	n/a
129.258	0.044	258516	keystroke_y	y	n/a
129.797	0.1055	259594	keystroke_Key.space	Key.space	n/a
130.1275	0.0905	260255	keystroke_p	p	n/a
130.337	0.0905	260674	keystroke_i	i	n/a
130.4725	0.15	260945	keystroke_r	r	n/a
130.6665	0.106	261333	keystroke_a	a	n/a
130.7725	0.075	261545	keystroke_t	t	n/a
130.968	0.074	261936	keystroke_e	e	n/a
131.1325	0.135	262265	keystroke_s	s	n/a
131.2375	0.105	262475	keystroke_Key.space	Key.space	n/a
131.4325	0.1055	262865	keystroke_a	a	n/a
132.062	0.1055	264124	keystroke_t	t	n/a
133.4125	0.0895	266825	keystroke_h	h	n/a
134.537	0.0755	269074	keystroke_l	l	n/a
134.628	0.089	269256	keystroke_e	e	n/a
134.852	0.0905	269704	keystroke_t	t	n/a
135.0625	0.06	270125	keystroke_e	e	n/a
135.1525	0.12	270305	keystroke_s	s	n/a
135.3325	0.0895	270665	keystroke_Key.enter	Key.enter	n/a
135.4275	8.0965	270855	prompt	n/a	suits susan eating fighting\n
136.0675	0.105	272135	keystroke_s	s	n/a
136.2325	0.0895	272465	keystroke_u	u	n/a
136.4425	0.09	272885	keystroke_i	i	n/a
136.5625	0.1045	273125	keystroke_t	t	n/a
136.742	0.1505	273484	keystroke_s	s	n/a
136.862	0.1205	273724	keystroke_Key.space	Key.space	n/a
137.0125	0.12	274025	keystroke_s	s	n/a
137.1625	0.075	274325	keystroke_u	u	n/a
137.2815	0.12	274563	keystroke_s	s	n/a
137.4625	0.12	274925	keystroke_a	a	n/a
137.5675	0.09	275135	keystroke_n	n	n/a
137.7025	0.09	275405	keystroke_Key.space	Key.space	n/a
137.8525	0.06	275705	keystroke_d	d	n/a
138.1225	0.06	276245	keystroke_Key.backspace	Key.backspace	n/a
138.1675	0.12	276335	keystroke_e	e	n/a
138.7225	0.059	277445	keystroke_a	a	n/a
138.8425	0.06	277685	keystroke_t	t	n/a
138.9175	0.12	277835	keystroke_i	i	n/a
138.9775	0.15	277955	keystroke_n	n	n/a
139.1725	0.1045	278345	keystroke_g	g	n/a
139.2925	0.09	278585	keystroke_Key.space	Key.space	n/a
139.832	0.106	279664	keystroke_f	f	n/a
139.968	0.104	279936	keystroke_i	i	n/a
140.088	0.104	280176	keystroke_g	g	n/a
141.9615	0.0905	283923	keystroke_h	h	n/a
142.127	0.105	284254	keystroke_t	t	n/a
142.2475	0.15	284495	keystroke_i	i	n/a
142.3825	0.105	284765	keystroke_n	n	n/a
142.5025	0.09	285005	keystroke_g	g	n/a
143.432	0.0905	286864	keystroke_Key.enter	Key.enter	n/a
143.53	8.724	287060	prompt	n/a	sizes fever handbook accommodate\n
144.242	0.0905	288484	keystroke_s	s	n/a
144.378	0.074	288756	keystroke_i	i	n/a
144.7825	0.1195	289565	keystroke_z	z	n/a
144.917	0.1205	289834	keystroke_e	e	n/a
145.067	0.151	290134	keystroke_s	s	n/a
145.187	0.105	290374	keystroke_Key.space	Key.space	n/a
145.338	0.0895	290676	keystroke_f	f	n/a
145.5325	0.045	291065	keystroke_e	e	n/a
145.7425	0.0595	291485	keystroke_v	v	n/a
145.9675	0.045	291935	keystroke_e	e	n/a
146.1175	0.075	292235	keystroke_r	r	n/a
146.177	0.09	292354	keystroke_Key.space	Key.space	n/a
146.327	0.075	292654	keystroke_h	h	n/a
146.417	0.1205	292834	keystroke_a	a	n/a
146.5075	0.1195	293015	keystroke_n	n	n/a
146.597	0.105	293194	keystroke_d	d	n/a
146.822	0.075	293644	keystroke_b	b	n/a
147.018	0.029	294036	keystroke_o	o	n/a
147.1225	0.06	294245	keystroke_o	o	n/a
147.2725	0.0745	294545	keystroke_k	k	n/a
147.407	0.09	294814	keystroke_Key.space	Key.space	n/a
147.978	0.1045	295956	keystroke_a	a	n/a
148.2175	0.18	296435	keystroke_c	c	n/a
148.8475	0.075	297695	keystroke_o	o	n/a
149.0125	0.075	298025	keystroke_o	o	n/a
149.702	0.075	299404	keystroke_Key.backspace	Key.backspace	n/a
149.7925	0.0595	299585	keystroke_Key.backspace	Key.backspace	n/a
149.822	0.1205	299644	keystroke_c	c	n/a
150.0325	0.0745	300065	keystroke_o	o	n/a
150.977	0.105	301954	keystroke_m	m	n/a
151.217	0.105	302434	keystroke_m	m	n/a
151.427	0.075	302854	keystroke_o	o	n/a
151.6075	0.135	303215	keystroke_d	d	n/a
151.727	0.1355	303454	keystroke_a	a	n/a
151.877	0.06	303754	keystroke_t	t	n/a
152.0425	0.075	304085	keystroke_e	e	n/a
152.147	0.1055	304294	keystroke_Key.enter	Key.enter	n/a
152.2575	7.7665	304515	prompt	n/a	match oracle screenshots producing\n
153.047	0.1205	306094	keystroke_m	m	n/a
153.152	0.121	306304	keystroke_a	a	n/a
153.317	0.06	306634	keystroke_t	t	n/a
153.5425	0.12	307085	keystroke_c	c	n/a
153.663	0.0745	307326	keystroke_h	h	n/a
153.752	0.1055	307504	keystroke_Key.space	Key.space	n/a
153.872	0.105	307744	keystroke_o	o	n/a
153.9625	0.0745	307925	keystroke_r	r	n/a
154.2325	0.06	308465	keystroke_c	c	n/a
154.862	0.06	309724	keystroke_Key.backspace	Key.backspace	n/a
154.9525	0.15	309905	keystroke_a	a	n/a
155.1915	0.1355	310383	keystroke_c	c	n/a
155.387	0.1055	310774	keystroke_l	l	n/a
155.507	0.1055	311014	keystroke_e	e	n/a
155.5825	0.135	311165	keystroke_Key.space	Key.space	n/a
155.762	0.12	311524	keystroke_s	s	n/a
155.987	0.135	311974	keystroke_c	c	n/a
156.272	0.06	312544	keystroke_r	r	n/a
156.4375	0.0595	312875	keystroke_e	e	n/a
156.602	0.03	313204	keystroke_e	e	n/a
156.7975	0.075	313595	keystroke_n	n	n/a
156.9025	0.105	313805	keystroke_s	s	n/a
157.0375	0.1045	314075	keystroke_h	h	n/a
157.1125	0.105	314225	keystroke_o	o	n/a
157.173	0.1195	314346	keystroke_p	p	n/a
157.997	0.0605	315994	keystroke_Key.backspace	Key.backspace	n/a
158.402	0.1055	316804	keystroke_t	t	n/a
158.5675	0.12	317135	keystroke_s	s	n/a
158.6425	0.1045	317285	keystroke_Key.space	Key.space	n/a
158.8825	0.0895	317765	keystroke_p	p	n/a
158.9875	0.0745	317975	keystroke_r	r	n/a
159.077	0.105	318154	keystroke_o	o	n/a
159.197	0.0905	318394	keystroke_d	d	n/a
159.332	0.09	318664	keystroke_u	u	n/a
159.4375	0.0895	318875	keystroke_c	c	n/a
159.6025	0.105	319205	keystroke_i	i	n/a
159.647	0.135	319294	keystroke_n	n	n/a
159.752	0.0905	319504	keystroke_g	g	n/a
159.9025	0.1195	319805	keystroke_Key.enter	Key.enter	n/a
160.0285	6.355	320057	prompt	n/a	cables tourism extension programme\n
160.8775	0.12	321755	keystroke_c	c	n/a
161.0425	0.105	322085	keystroke_a	a	n/a
161.2225	0.135	322445	keystroke_b	b	n/a
161.3265	0.121	322653	keystroke_l	l	n/a
161.4175	0.119	322835	keystroke_e	e	n/a
161.5815	0.12	323163	keystroke_s	s	n/a
161.6715	0.075	323343	keystroke_Key.space	Key.space	n/a
162.212	0.0895	324424	keystroke_t	t	n/a
162.3325	0.06	324665	keystroke_o	o	n/a
162.512	0.1055	325024	keystroke_u	u	n/a
162.602	0.1045	325204	keystroke_r	r	n/a
162.7225	0.09	325445	keystroke_i	i	n/a
162.8725	0.104	325745	keystroke_s	s	n/a
163.0225	0.075	326045	keystroke_m	m	n/a
163.1265	0.106	326253	keystroke_Key.space	Key.space	n/a
163.3675	0.09	326735	keystroke_e	e	n/a
163.5625	0.09	327125	keystroke_x	x	n/a
163.7575	0.045	327515	keystroke_t	t	n/a
163.9375	0.075	327875	keystroke_e	e	n/a
164.0425	0.09	328085	keystroke_n	n	n/a
164.1475	0.075	328295	keystroke_s	s	n/a
164.2375	0.06	328475	keystroke_i	i	n/a
164.4175	0.09	328835	keystroke_o	o	n/a
164.4625	0.105	328925	keystroke_n	n	n/a
164.5375	0.075	329075	keystroke_Key.space	Key.space	n/a
164.672	0.09	329344	keystroke_p	p	n/a
164.777	0.0605	329554	keystroke_r	r	n/a
165.152	0.06	330304	keystroke_o	o	n/a
165.497	0.06	330994	keystroke_g	g	n/a
165.677	0.045	331354	keystroke_r	r	n/a
165.7825	0.12	331565	keystroke_a	a	n/a
165.9315	0.045	331863	keystroke_m	m	n/a
166.0525	0.075	332105	keystroke_m	m	n/a
166.1425	0.09	332285	keystroke_e	e	n/a
166.2775	0.104	332555	keystroke_Key.enter	Key.enter	n/a
166.3875	5.682	332775	prompt	n/a	happen wound workshop candles\n
167.1475	0.075	334295	keystroke_h	h	n/a
167.2675	0.1045	334535	keystroke_a	a	n/a
167.3425	0.06	334685	keystroke_p	p	n/a
167.4625	0.075	334925	keystroke_p	p	n/a
167.522	0.135	335044	keystroke_e	e	n/a
167.6425	0.0895	335285	keystroke_n	n	n/a
167.732	0.09	335464	keystroke_Key.space	Key.space	n/a
167.9125	0.105	335825	keystroke_w	w	n/a
168.0025	0.06	336005	keystroke_o	o	n/a
168.6775	0.09	337355	keystroke_u	u	n/a
168.8575	0.0895	337715	keystroke_n	n	n/a
168.962	0.105	337924	keystroke_d	d	n/a
169.007	0.1355	338014	keystroke_Key.space	Key.space	n/a
169.157	0.1355	338314	keystroke_w	w	n/a
169.277	0.075	338554	keystroke_o	o	n/a
169.3675	0.06	338735	keystroke_r	r	n/a
169.4875	0.0595	338975	keystroke_k	k	n/a
169.742	0.09	339484	keystroke_s	s	n/a
169.8025	0.0895	339605	keystroke_h	h	n/a
169.877	0.12	339754	keystroke_o	o	n/a
170.432	0.015	340864	keystroke_p	p	n/a
170.5675	0.0745	341135	keystroke_Key.space	Key.space	n/a
170.777	0.0755	341554	keystroke_c	c	n/a
170.957	0.091	341914	keystroke_a	a	n/a
171.092	0.06	342184	keystroke_n	n	n/a
171.1825	0.075	342365	keystroke_d	d	n/a
171.3925	0.0595	342785	keystroke_l	l	n/a
171.648	0.0735	343296	keystroke_e	e	n/a
171.8125	0.0745	343625	keystroke_s	s	n/a
172.0065	0.0605	344013	keystroke_Key.enter	Key.enter	n/a
172.073	7.466	344146	prompt	n/a	motor bear varies racial\n
172.9375	0.1345	345875	keystroke_m	m	n/a
173.0575	0.0895	346115	keystroke_o	o	n/a
173.1625	0.1345	346325	keystroke_t	t	n/a
173.3125	0.075	346625	keystroke_o	o	n/a
173.9875	0.045	347975	keystroke_t	t	n/a
174.4825	0.06	348965	keystroke_Key.backspace	Key.backspace	n/a
174.527	0.1355	349054	keystroke_r	r	n/a
174.647	0.1205	349294	keystroke_Key.space	Key.space	n/a
174.8875	0.075	349775	keystroke_b	b	n/a
175.2625	0.09	350525	keystroke_e	e	n/a
175.397	0.105	350794	keystroke_a	a	n/a
175.5775	0.1195	351155	keystroke_v	v	n/a
176.057	0.0605	352114	keystroke_Key.backspace	Key.backspace	n/a
176.072	0.1205	352144	keystroke_r	r	n/a
176.2075	0.1045	352415	keystroke_Key.space	Key.space	n/a
176.733	0.1045	353466	keystroke_v	v	n/a
176.927	0.105	353854	keystroke_a	a	n/a
177.0175	0.0895	354035	keystroke_r	r	n/a
177.137	0.09	354274	keystroke_i	i	n/a
177.257	0.1055	354514	keystroke_e	e	n/a
177.377	0.1655	354754	keystroke_s	s	n/a
177.5275	0.09	355055	keystroke_Key.space	Key.space	n/a
178.3075	0.075	356615	keystroke_r	r	n/a
178.5025	0.12	357005	keystroke_a	a	n/a
178.8775	0.105	357755	keystroke_c	c	n/a
178.9975	0.075	357995	keystroke_i	i	n/a
179.1025	0.135	358205	keystroke_a	a	n/a
179.2225	0.075	358445	keystroke_l	l	n/a
179.4615	0.076	358923	keystroke_Key.enter	Key.enter	n/a
179.5425	9.5365	359085	prompt	n/a	advertisements color employ integral\n
180.2875	0.12	360575	keystroke_a	a	n/a
180.4215	0.121	360843	keystroke_d	d	n/a
180.7075	0.074	361415	keystroke_v	v	n/a
180.9015	0.0905	361803	keystroke_e	e	n/a
181.0815	0.076	362163	keystroke_r	r	n/a
181.2915	0.0755	362583	keystroke_t	t	n/a
181.5175	0.0745	363035	keystroke_i	i	n/a
182.0425	0.165	364085	keystroke_s	s	n/a
182.1315	0.12	364263	keystroke_e	e	n/a
182.2825	0.1045	364565	keystroke_m	m	n/a
182.3575	0.105	364715	keystroke_e	e	n/a
182.492	0.1055	364984	keystroke_n	n	n/a
182.5815	0.105	365163	keystroke_t	t	n/a
182.8975	0.15	365795	keystroke_s	s	n/a
183.0015	0.136	366003	keystroke_Key.space	Key.space	n/a
183.2265	0.106	366453	keystroke_c	c	n/a
183.3475	0.06	366695	keystroke_o	o	n/a
183.497	0.105	366994	keystroke_l	l	n/a
183.5875	0.1045	367175	keystroke_o	o	n/a
183.677	0.1505	367354	keystroke_r	r	n/a
183.797	0.105	367594	keystroke_Key.space	Key.space	n/a
183.992	0.0905	367984	keystroke_e	e	n/a
184.112	0.135	368224	keystroke_m	m	n/a
184.2325	0.0895	368465	keystroke_p	p	n/a
184.427	0.105	368854	keystroke_l	l	n/a
184.517	0.15	369034	keystroke_o	o	n/a
184.667	0.09	369334	keystroke_y	y	n/a
184.997	0.0895	369994	keystroke_Key.space	Key.space	n/a
185.7925	0.0745	371585	keystroke_i	i	n/a
185.9565	0.12	371913	keystroke_n	n	n/a
186.0325	0.074	372065	keystroke_t	t	n/a
186.227	0.0445	372454	keystroke_e	e	n/a
186.3615	0.06	372723	keystroke_r	r	n/a
187.667	0.0895	375334	keystroke_Key.backspace	Key.backspace	n/a
188.2515	0.061	376503	keystroke_g	g	n/a
188.4325	0.0595	376865	keystroke_r	r	n/a
188.5375	0.134	377075	keystroke_a	a	n/a
188.642	0.0905	377284	keystroke_l	l	n/a
188.9715	0.105	377943	keystroke_Key.enter	Key.enter	n/a
189.0835	12.0855	378167	prompt	n/a	barnes semiconductor when over\n
189.947	0.105	379894	keystroke_b	b	n/a
190.082	0.12	380164	keystroke_a	a	n/a
190.172	0.09	380344	keystroke_r	r	n/a
190.307	0.09	380614	keystroke_n	n	n/a
190.472	0.12	380944	keystroke_e	e	n/a
190.6075	0.1795	381215	keystroke_s	s	n/a
190.757	0.105	381514	keystroke_Key.space	Key.space	n/a
190.982	0.1505	381964	keystroke_s	s	n/a
191.117	0.135	382234	keystroke_e	e	n/a
192.932	0.0895	385864	keystroke_m	m	n/a
193.1575	0.074	386315	keystroke_i	i	n/a
194.177	0.0455	388354	keystroke_o	o	n/a
194.537	0.045	389074	keystroke_Key.backspace	Key.backspace	n/a
194.597	0.12	389194	keystroke_c	c	n/a
194.702	0.1055	389404	keystroke_o	o	n/a
194.7915	0.106	389583	keystroke_n	n	n/a
194.9125	0.1195	389825	keystroke_d	d	n/a
195.0775	0.09	390155	keystroke_u	u	n/a
195.3025	0.12	390605	keystroke_c	c	n/a
198.0945	0.0275	396189	keystroke_t	t	n/a
198.152	0.1055	396304	keystroke_o	o	n/a
198.242	0.105	396484	keystroke_r	r	n/a
198.482	0.12	396964	keystroke_Key.space	Key.space	n/a
198.9775	0.1195	397955	keystroke_w	w	n/a
199.112	0.0755	398224	keystroke_h	h	n/a
199.142	0.15	398284	keystroke_e	e	n/a
199.277	0.1055	398554	keystroke_n	n	n/a
199.367	0.0755	398734	keystroke_Key.space	Key.space	n/a
199.502	0.1055	399004	keystroke_o	o	n/a
199.9825	0.0595	399965	keystroke_e	e	n/a
200.192	0.0455	400384	keystroke_v	v	n/a
200.462	0.0455	400924	keystroke_Key.backspace	Key.backspace	n/a
200.567	0.075	401134	keystroke_Key.backspace	Key.backspace	n/a
200.6125	0.075	401225	keystroke_v	v	n/a
200.822	0.0605	401644	keystroke_e	e	n/a
200.942	0.09	401884	keystroke_r	r	n/a
201.077	0.09	402154	keystroke_Key.enter	Key.enter	n/a
201.1735	8.891	402347	prompt	n/a	developer mailto applying breeding\n
201.8575	0.0595	403715	keystroke_d	d	n/a
201.9915	0.091	403983	keystroke_e	e	n/a
202.2475	0.074	404495	keystroke_v	v	n/a
202.4715	0.1055	404943	keystroke_e	e	n/a
202.6375	0.1045	405275	keystroke_l	l	n/a
202.8325	0.1195	405665	keystroke_o	o	n/a
202.922	0.12	405844	keystroke_p	p	n/a
203.0575	0.1045	406115	keystroke_e	e	n/a
203.372	0.15	406744	keystroke_r	r	n/a
203.5075	0.1195	407015	keystroke_Key.space	Key.space	n/a
203.777	0.135	407554	keystroke_m	m	n/a
203.897	0.12	407794	keystroke_a	a	n/a
204.812	0.0755	409624	keystroke_i	i	n/a
205.037	0.09	410074	keystroke_l	l	n/a
205.2775	0.1045	410555	keystroke_t	t	n/a
205.397	0.075	410794	keystroke_o	o	n/a
205.532	0.15	411064	keystroke_Key.space	Key.space	n/a
205.697	0.12	411394	keystroke_a	a	n/a
205.818	0.059	411636	keystroke_p	p	n/a
205.9375	0.0895	411875	keystroke_p	p	n/a
206.072	0.12	412144	keystroke_y	y	n/a
206.447	0.1055	412894	keystroke_i	i	n/a
206.507	0.1505	413014	keystroke_n	n	n/a
206.642	0.075	413284	keystroke_g	g	n/a
206.7025	0.1195	413405	keystroke_Key.space	Key.space	n/a
207.3925	0.0745	414785	keystroke_b	b	n/a
207.4515	0.0605	414903	keystroke_r	r	n/a
207.617	0.0605	415234	keystroke_e	e	n/a
207.857	0.06	415714	keystroke_d	d	n/a
208.367	0.105	416734	keystroke_d	d	n/a
208.6825	0.0595	417365	keystroke_Key.backspace	Key.backspace	n/a
208.8015	0.09	417603	keystroke_Key.backspace	Key.backspace	n/a
209.0125	0.104	418025	keystroke_e	e	n/a
209.252	0.0905	418504	keystroke_d	d	n/a
209.3425	0.104	418685	keystroke_i	i	n/a
209.4765	0.106	418953	keystroke_n	n	n/a
209.6125	0.089	419225	keystroke_g	g	n/a
210.017	0.0445	420034	keystroke_Key.enter	Key.enter	n/a
210.0685	7.6755	420137	prompt	n/a	russell britney former seating\n
211.2315	0.12	422463	keystroke_r	r	n/a
211.412	0.09	422824	keystroke_u	u	n/a
211.547	0.075	423094	keystroke_s	s	n/a
211.712	0.1505	423424	keystroke_s	s	n/a
211.832	0.15	423664	keystroke_e	e	n/a
211.967	0.105	423934	keystroke_l	l	n/a
212.087	0.09	424174	keystroke_Key.space	Key.space	n/a
212.2515	0.091	424503	keystroke_b	b	n/a
212.3725	0.105	424745	keystroke_r	r	n/a
212.4925	0.075	424985	keystroke_i	i	n/a
213.5275	0.075	427055	keystroke_t	t	n/a
214.0525	0.075	428105	keystroke_n	n	n/a
214.1275	0.075	428255	keystroke_e	e	n/a
214.3675	0.075	428735	keystroke_y	y	n/a
214.7125	0.15	429425	keystroke_Key.space	Key.space	n/a
214.8775	0.075	429755	keystroke_f	f	n/a
214.9675	0.075	429935	keystroke_o	o	n/a
215.0725	0.075	430145	keystroke_r	r	n/a
215.2375	0.0595	430475	keystroke_n	n	n/a
215.567	0.0455	431134	keystroke_Key.backspace	Key.backspace	n/a
215.747	0.06	431494	keystroke_m	m	n/a
215.792	0.105	431584	keystroke_e	e	n/a
215.9875	0.0895	431975	keystroke_r	r	n/a
216.047	0.1055	432094	keystroke_Key.space	Key.space	n/a
216.7975	0.135	433595	keystroke_s	s	n/a
216.8725	0.135	433745	keystroke_e	e	n/a
216.9925	0.1045	433985	keystroke_a	a	n/a
217.1425	0.09	434285	keystroke_t	t	n/a
217.2475	0.09	434495	keystroke_i	i	n/a
217.2925	0.135	434585	keystroke_n	n	n/a
217.3815	0.076	434763	keystroke_g	g	n/a
217.6525	0.09	435305	keystroke_Key.enter	Key.enter	n/a
217.748	7.7505	435496	prompt	n/a	phys utilize manner distribute\n
218.732	0.1055	437464	keystroke_p	p	n/a
218.852	0.09	437704	keystroke_h	h	n/a
219.122	0.1055	438244	keystroke_y	y	n/a
219.362	0.1505	438724	keystroke_s	s	n/a
219.4675	0.12	438935	keystroke_Key.space	Key.space	n/a
219.6625	0.105	439325	keystroke_u	u	n/a
220.0075	0.12	440015	keystroke_t	t	n/a
220.1115	0.09	440223	keystroke_i	i	n/a
220.6825	0.1045	441365	keystroke_l	l	n/a
220.8325	0.105	441665	keystroke_i	i	n/a
220.9525	0.135	441905	keystroke_z	z	n/a
221.072	0.165	442144	keystroke_e	e	n/a
221.222	0.105	442444	keystroke_Key.space	Key.space	n/a
221.5675	0.104	443135	keystroke_m	m	n/a
221.7325	0.089	443465	keystroke_a	a	n/a
221.852	0.0605	443704	keystroke_n	n	n/a
222.002	0.0895	444004	keystroke_n	n	n/a
222.3925	0.105	444785	keystroke_e	e	n/a
222.5575	0.12	445115	keystroke_r	r	n/a
222.6475	0.09	445295	keystroke_Key.space	Key.space	n/a
222.8275	0.105	445655	keystroke_d	d	n/a
222.9925	0.075	445985	keystroke_i	i	n/a
223.1125	0.075	446225	keystroke_s	s	n/a
223.757	0.03	447514	keystroke_t	t	n/a
223.892	0.075	447784	keystroke_r	r	n/a
224.6565	0.0755	449313	keystroke_i	i	n/a
224.837	0.0755	449674	keystroke_b	b	n/a
225.032	0.06	450064	keystroke_u	u	n/a
225.0775	0.0895	450155	keystroke_t	t	n/a
225.287	0.105	450574	keystroke_e	e	n/a
225.407	0.09	450814	keystroke_Key.enter	Key.enter	n/a
225.5025	8.0665	451005	prompt	n/a	belfast derek displays webcams\n
226.322	0.0905	452644	keystroke_b	b	n/a
226.547	0.105	453094	keystroke_e	e	n/a
226.7275	0.089	453455	keystroke_l	l	n/a
227.5225	0.12	455045	keystroke_f	f	n/a
227.6575	0.1345	455315	keystroke_a	a	n/a
227.7475	0.1345	455495	keystroke_s	s	n/a
228.092	0.105	456184	keystroke_t	t	n/a
228.227	0.135	456454	keystroke_Key.space	Key.space	n/a
228.7075	0.0895	457415	keystroke_d	d	n/a
228.872	0.0905	457744	keystroke_e	e	n/a
229.052	0.0605	458104	keystroke_r	r	n/a
229.217	0.0755	458434	keystroke_e	e	n/a
229.3675	0.105	458735	keystroke_k	k	n/a
229.5325	0.09	459065	keystroke_Key.space	Key.space	n/a
229.6975	0.09	459395	keystroke_d	d	n/a
229.9525	0.09	459905	keystroke_i	i	n/a
230.087	0.105	460174	keystroke_s	s	n/a
230.2375	0.0745	460475	keystroke_p	p	n/a
230.4625	0.1045	460925	keystroke_l	l	n/a
230.552	0.105	461104	keystroke_a	a	n/a
230.8075	0.0895	461615	keystroke_y	y	n/a
231.062	0.135	462124	keystroke_s	s	n/a
231.137	0.12	462274	keystroke_Key.space	Key.space	n/a
231.5125	0.105	463025	keystroke_w	w	n/a
231.9025	0.075	463805	keystroke_e	e	n/a
232.1115	0.075	464223	keystroke_b	b	n/a
232.2475	0.074	464495	keystroke_s	s	n/a
232.637	0.0595	465274	keystroke_Key.backspace	Key.backspace	n/a
232.6825	0.089	465365	keystroke_c	c	n/a
232.8025	0.119	465605	keystroke_a	a	n/a
232.8775	0.09	465755	keystroke_m	m	n/a
232.9825	0.0295	465965	keystroke_e	e	n/a
233.2965	0.045	466593	keystroke_Key.backspace	Key.backspace	n/a
233.3265	0.106	466653	keystroke_s	s	n/a
233.4775	0.089	466955	keystroke_Key.enter	Key.enter	n/a
233.5765	12.9675	467153	prompt	n/a	lead floppy comprehensive cholesterol\n
234.7215	0.091	469443	keystroke_l	l	n/a
234.7965	0.031	469593	keystroke_e	e	n/a
234.8425	0.104	469685	keystroke_a	a	n/a
234.9325	0.1195	469865	keystroke_d	d	n/a
235.037	0.0895	470074	keystroke_Key.space	Key.space	n/a
235.187	0.0905	470374	keystroke_f	f	n/a
235.2925	0.09	470585	keystroke_l	l	n/a
235.4725	0.074	470945	keystroke_o	o	n/a
235.7425	0.014	471485	keystroke_[	[	n/a
235.862	0.1055	471724	keystroke_p	p	n/a
236.3715	0.031	472743	keystroke_Key.backspace	Key.backspace	n/a
236.4765	0.075	472953	keystroke_Key.backspace	Key.backspace	n/a
236.7175	0.0295	473435	keystroke_o	o	n/a
236.822	0.0595	473644	keystroke_p	p	n/a
237.1825	0.03	474365	keystroke_Key.backspace	Key.backspace	n/a
237.2725	0.075	474545	keystroke_Key.backspace	Key.backspace	n/a
237.4825	0.0745	474965	keystroke_p	p	n/a
237.6165	0.0455	475233	keystroke_p	p	n/a
238.3675	0.09	476735	keystroke_y	y	n/a
238.6675	0.12	477335	keystroke_Key.space	Key.space	n/a
239.0425	0.12	478085	keystroke_c	c	n/a
239.1925	0.105	478385	keystroke_o	o	n/a
239.3425	0.1355	478685	keystroke_m	m	n/a
239.5375	0.0895	479075	keystroke_p	p	n/a
239.6575	0.075	479315	keystroke_r	r	n/a
239.8225	0.0895	479645	keystroke_e	e	n/a
240.7075	0.075	481415	keystroke_h	h	n/a
240.7825	0.135	481565	keystroke_e	e	n/a
240.9015	0.105	481803	keystroke_n	n	n/a
241.847	0.1055	483694	keystroke_s	s	n/a
241.967	0.105	483934	keystroke_i	i	n/a
242.117	0.105	484234	keystroke_v	v	n/a
242.372	0.12	484744	keystroke_e	e	n/a
242.477	0.12	484954	keystroke_Key.space	Key.space	n/a
242.927	0.135	485854	keystroke_c	c	n/a
243.182	0.09	486364	keystroke_h	h	n/a
243.347	0.0755	486694	keystroke_o	o	n/a
243.558	0.104	487116	keystroke_l	l	n/a
243.7975	0.105	487595	keystroke_e	e	n/a
243.9625	0.135	487925	keystroke_s	s	n/a
244.1875	0.12	488375	keystroke_t	t	n/a
244.7125	0.12	489425	keystroke_e	e	n/a
246.002	0.105	492004	keystroke_r	r	n/a
246.092	0.06	492184	keystroke_o	o	n/a
246.242	0.075	492484	keystroke_l	l	n/a
246.4525	0.0895	492905	keystroke_Key.enter	Key.enter	n/a
246.548	8.0665	493096	prompt	n/a	eternal qatar clearly ross\n
247.4725	0.12	494945	keystroke_e	e	n/a
247.7725	0.045	495545	keystroke_t	t	n/a
248.8075	0.1045	497615	keystroke_e	e	n/a
249.2275	0.105	498455	keystroke_r	r	n/a
249.437	0.1205	498874	keystroke_n	n	n/a
249.5725	0.135	499145	keystroke_a	a	n/a
249.6775	0.1345	499355	keystroke_l	l	n/a
249.8575	0.0895	499715	keystroke_Key.space	Key.space	n/a
250.1125	0.1195	500225	keystroke_g	g	n/a
250.682	0.045	501364	keystroke_Key.backspace	Key.backspace	n/a
250.772	0.1505	501544	keystroke_q	q	n/a
251.102	0.1055	502204	keystroke_a	a	n/a
251.327	0.075	502654	keystroke_t	t	n/a
251.687	0.15	503374	keystroke_a	a	n/a
251.8525	0.105	503705	keystroke_r	r	n/a
252.0475	0.1045	504095	keystroke_Key.space	Key.space	n/a
252.362	0.09	504724	keystroke_c	c	n/a
252.527	0.12	505054	keystroke_l	l	n/a
252.617	0.135	505234	keystroke_e	e	n/a
252.737	0.165	505474	keystroke_a	a	n/a
252.872	0.12	505744	keystroke_r	r	n/a
253.1275	0.12	506255	keystroke_l	l	n/a
253.2325	0.105	506465	keystroke_y	y	n/a
253.4125	0.105	506825	keystroke_Key.space	Key.space	n/a
253.697	0.045	507394	keystroke_o	o	n/a
253.982	0.03	507964	keystroke_Key.backspace	Key.backspace	n/a
253.997	0.1055	507994	keystroke_r	r	n/a
254.117	0.0905	508234	keystroke_o	o	n/a
254.237	0.0455	508474	keystroke_s	s	n/a
254.4025	0.075	508805	keystroke_s	s	n/a
254.5225	0.0895	509045	keystroke_Key.enter	Key.enter	n/a
254.6185	4.9755	509237	prompt	n/a	blogs love warned applicable\n
255.347	0.075	510694	keystroke_b	b	n/a
255.4825	0.1345	510965	keystroke_l	l	n/a
255.602	0.105	511204	keystroke_o	o	n/a
255.692	0.09	511384	keystroke_g	g	n/a
255.8575	0.1195	511715	keystroke_s	s	n/a
255.9325	0.1045	511865	keystroke_Key.space	Key.space	n/a
256.0225	0.09	512045	keystroke_l	l	n/a
256.0975	0.1205	512195	keystroke_o	o	n/a
256.1575	0.105	512315	keystroke_v	v	n/a
256.3825	0.12	512765	keystroke_e	e	n/a
256.4575	0.15	512915	keystroke_Key.space	Key.space	n/a
256.7425	0.075	513485	keystroke_w	w	n/a
256.8625	0.12	513725	keystroke_a	a	n/a
256.9675	0.105	513935	keystroke_r	r	n/a
257.0875	0.105	514175	keystroke_n	n	n/a
257.2225	0.075	514445	keystroke_e	e	n/a
257.4475	0.1195	514895	keystroke_d	d	n/a
257.5075	0.1345	515015	keystroke_Key.space	Key.space	n/a
257.762	0.121	515524	keystroke_a	a	n/a
257.912	0.075	515824	keystroke_p	p	n/a
258.062	0.075	516124	keystroke_p	p	n/a
258.257	0.18	516514	keystroke_l	l	n/a
258.392	0.12	516784	keystroke_i	i	n/a
258.497	0.12	516994	keystroke_c	c	n/a
258.632	0.105	517264	keystroke_a	a	n/a
258.8575	0.0455	517715	keystroke_b	b	n/a
258.917	0.045	517834	keystroke_l	l	n/a
259.367	0.0745	518734	keystroke_e	e	n/a
259.502	0.0895	519004	keystroke_Key.enter	Key.enter	n/a
259.5985	13.4805	519197	prompt	n/a	infrastructure married they're deluxe\n
260.4025	0.075	520805	keystroke_i	i	n/a
260.5375	0.105	521075	keystroke_n	n	n/a
260.6575	0.12	521315	keystroke_s	s	n/a
261.0325	0.045	522065	keystroke_Key.backspace	Key.backspace	n/a
261.1225	0.06	522245	keystroke_f	f	n/a
261.2575	0.0905	522515	keystroke_r	r	n/a
261.4225	0.134	522845	keystroke_a	a	n/a
262.3525	0.135	524705	keystroke_s	s	n/a
262.5475	0.089	525095	keystroke_t	t	n/a
262.7265	0.091	525453	keystroke_r	r	n/a
262.8015	0.0755	525603	keystroke_u	u	n/a
262.9365	0.0905	525873	keystroke_c	c	n/a
263.1465	0.091	526293	keystroke_t	t	n/a
263.2825	0.0445	526565	keystroke_u	u	n/a
263.9725	0.1045	527945	keystroke_r	r	n/a
264.092	0.03	528184	keystroke_e	e	n/a
264.1075	0.12	528215	keystroke_Key.space	Key.space	n/a
264.737	0.0905	529474	keystroke_m	m	n/a
264.7825	0.12	529565	keystroke_a	a	n/a
264.917	0.075	529834	keystroke_r	r	n/a
265.052	0.0905	530104	keystroke_r	r	n/a
265.1575	0.0895	530315	keystroke_i	i	n/a
265.232	0.0605	530464	keystroke_e	e	n/a
265.412	0.135	530824	keystroke_d	d	n/a
265.562	0.12	531124	keystroke_Key.space	Key.space	n/a
265.817	0.0905	531634	keystroke_y	y	n/a
265.937	0.105	531874	keystroke_h	h	n/a
266.0575	0.1045	532115	keystroke_e	e	n/a
266.327	0.06	532654	keystroke_y	y	n/a
266.4325	0.06	532865	keystroke_'	'	n/a
267.2415	0.06	534483	keystroke_Key.backspace	Key.backspace	n/a
267.3615	0.046	534723	keystroke_Key.backspace	Key.backspace	n/a
267.4665	0.0605	534933	keystroke_Key.backspace	Key.backspace	n/a
267.6015	0.075	535203	keystroke_Key.backspace	Key.backspace	n/a
267.9475	0.03	535895	keystroke_h	h	n/a
268.1725	0.03	536345	keystroke_Key.backspace	Key.backspace	n/a
268.3065	0.045	536613	keystroke_Key.backspace	Key.backspace	n/a
268.547	0.06	537094	keystroke_h	h	n/a
268.6665	0.091	537333	keystroke_t	t	n/a
268.8915	0.091	537783	keystroke_e	e	n/a
269.312	0.045	538624	keystroke_Key.backspace	Key.backspace	n/a
269.432	0.0455	538864	keystroke_Key.backspace	Key.backspace	n/a
269.5525	0.0595	539105	keystroke_Key.backspace	Key.backspace	n/a
270.212	0.075	540424	keystroke_t	t	n/a
270.3025	0.1195	540605	keystroke_h	h	n/a
270.437	0.105	540874	keystroke_e	e	n/a
270.737	0.105	541474	keystroke_y	y	n/a
270.9025	0.1195	541805	keystroke_'	'	n/a
271.2775	0.0445	542555	keystroke_r	r	n/a
271.4425	0.075	542885	keystroke_e	e	n/a
271.4875	0.104	542975	keystroke_Key.space	Key.space	n/a
272.1025	0.029	544205	keystroke_d	d	n/a
272.2375	0.0745	544475	keystroke_e	e	n/a
272.2975	0.135	544595	keystroke_l	l	n/a
272.4475	0.135	544895	keystroke_u	u	n/a
272.642	0.12	545284	keystroke_x	x	n/a
272.8225	0.1045	545645	keystroke_e	e	n/a
272.972	0.1055	545944	keystroke_Key.enter	Key.enter	n/a
273.0835	8.44	546167	prompt	n/a	helicopter south fascinating backing\n
275.6745	0.043	551349	keystroke_h	h	n/a
275.7475	0.105	551495	keystroke_e	e	n/a
276.0175	0.12	552035	keystroke_l	l	n/a
276.1825	0.12	552365	keystroke_i	i	n/a
276.4675	0.104	552935	keystroke_o	o	n/a
276.5875	0.105	553175	keystroke_p	p	n/a
277.1875	0.045	554375	keystroke_Key.backspace	Key.backspace	n/a
277.292	0.075	554584	keystroke_Key.backspace	Key.backspace	n/a
277.4575	0.12	554915	keystroke_c	c	n/a
277.562	0.075	555124	keystroke_o	o	n/a
277.712	0.105	555424	keystroke_p	p	n/a
277.802	0.1045	555604	keystroke_t	t	n/a
278.0275	0.075	556055	keystroke_e	e	n/a
278.177	0.105	556354	keystroke_r	r	n/a
278.2525	0.0895	556505	keystroke_Key.space	Key.space	n/a
278.357	0.1355	556714	keystroke_s	s	n/a
278.417	0.0605	556834	keystroke_o	o	n/a
278.5525	0.105	557105	keystroke_u	u	n/a
278.627	0.1055	557254	keystroke_t	t	n/a
278.747	0.12	557494	keystroke_h	h	n/a
278.8525	0.105	557705	keystroke_Key.space	Key.space	n/a
279.122	0.12	558244	keystroke_f	f	n/a
279.3025	0.165	558605	keystroke_a	a	n/a
279.452	0.091	558904	keystroke_s	s	n/a
279.722	0.09	559444	keystroke_c	c	n/a
279.902	0.06	559804	keystroke_i	i	n/a
280.037	0.1205	560074	keystroke_n	n	n/a
280.097	0.1355	560194	keystroke_a	a	n/a
280.217	0.12	560434	keystroke_t	t	n/a
280.3075	0.0895	560615	keystroke_i	i	n/a
280.4575	0.15	560915	keystroke_n	n	n/a
280.562	0.105	561124	keystroke_g	g	n/a
280.6525	0.1195	561305	keystroke_Key.space	Key.space	n/a
280.787	0.105	561574	keystroke_b	b	n/a
280.907	0.12	561814	keystroke_a	a	n/a
281.028	0.089	562056	keystroke_c	c	n/a
281.072	0.06	562144	keystroke_k	k	n/a
281.2225	0.1045	562445	keystroke_i	i	n/a
281.2825	0.1045	562565	keystroke_n	n	n/a
281.312	0.09	562624	keystroke_g	g	n/a
281.417	0.105	562834	keystroke_Key.enter	Key.enter	n/a
281.5275	15.7025	563055	prompt	n/a	findings naughty texture bite\n
291.8895	0.058	583779	keystroke_f	f	n/a
291.9775	0.1505	583955	keystroke_i	i	n/a
292.0975	0.15	584195	keystroke_n	n	n/a
292.2325	0.1205	584465	keystroke_d	d	n/a
292.3075	0.1205	584615	keystroke_i	i	n/a
292.3675	0.15	584735	keystroke_n	n	n/a
292.4875	0.075	584975	keystroke_g	g	n/a
292.6525	0.1205	585305	keystroke_s	s	n/a
292.7425	0.1355	585485	keystroke_Key.space	Key.space	n/a
293.2675	0.105	586535	keystroke_n	n	n/a
293.4175	0.105	586835	keystroke_a	a	n/a
293.4925	0.12	586985	keystroke_u	u	n/a
293.5825	0.1205	587165	keystroke_g	g	n/a
294.3025	0.12	588605	keystroke_h	h	n/a
294.4075	0.0905	588815	keystroke_t	t	n/a
294.633	0.104	589266	keystroke_y	y	n/a
294.7975	0.1195	589595	keystroke_Key.space	Key.space	n/a
295.083	0.089	590166	keystroke_t	t	n/a
295.292	0.09	590584	keystroke_e	e	n/a
295.728	0.104	591456	keystroke_x	x	n/a
295.923	0.059	591846	keystroke_t	t	n/a
295.9975	0.1055	591995	keystroke_u	u	n/a
296.1475	0.0595	592295	keystroke_r	r	n/a
296.297	0.12	592594	keystroke_e	e	n/a
296.372	0.135	592744	keystroke_Key.space	Key.space	n/a
296.567	0.1055	593134	keystroke_b	b	n/a
296.747	0.12	593494	keystroke_i	i	n/a
296.822	0.061	593644	keystroke_t	t	n/a
296.987	0.09	593974	keystroke_e	e	n/a
297.092	0.1355	594184	keystroke_Key.enter	Key.enter	n/a
297.234	8.7255	594468	prompt	n/a	touched office algebra return\n
298.0225	0.09	596045	keystroke_t	t	n/a
298.0975	0.0455	596195	keystroke_o	o	n/a
298.248	0.0595	596496	keystroke_u	u	n/a
298.4425	0.12	596885	keystroke_c	c	n/a
298.563	0.075	597126	keystroke_h	h	n/a
298.668	0.105	597336	keystroke_e	e	n/a
298.878	0.1345	597756	keystroke_d	d	n/a
298.953	0.1195	597906	keystroke_Key.space	Key.space	n/a
299.1925	0.1055	598385	keystroke_o	o	n/a
299.2825	0.075	598565	keystroke_f	f	n/a
299.417	0.091	598834	keystroke_f	f	n/a
299.523	0.104	599046	keystroke_i	i	n/a
299.643	0.044	599286	keystroke_c	c	n/a
299.9125	0.1045	599825	keystroke_Key.space	Key.space	n/a
300.242	0.09	600484	keystroke_Key.backspace	Key.backspace	n/a
300.378	0.074	600756	keystroke_e	e	n/a
300.437	0.09	600874	keystroke_Key.space	Key.space	n/a
300.783	0.12	601566	keystroke_a	a	n/a
300.917	0.12	601834	keystroke_l	l	n/a
301.038	0.09	602076	keystroke_e	e	n/a
301.443	0.105	602886	keystroke_g	g	n/a
303.287	0.075	606574	keystroke_Key.backspace	Key.backspace	n/a
303.9625	0.09	607925	keystroke_Key.backspace	Key.backspace	n/a
304.0675	0.015	608135	keystroke_g	g	n/a
304.1725	0.09	608345	keystroke_e	e	n/a
304.3075	0.09	608615	keystroke_b	b	n/a
304.4575	0.09	608915	keystroke_r	r	n/a
304.578	0.1495	609156	keystroke_a	a	n/a
304.698	0.134	609396	keystroke_Key.space	Key.space	n/a
305.057	0.075	610114	keystroke_r	r	n/a
305.223	0.0595	610446	keystroke_e	e	n/a
305.387	0.075	610774	keystroke_t	t	n/a
305.477	0.0905	610954	keystroke_u	u	n/a
305.568	0.09	611136	keystroke_r	r	n/a
305.673	0.074	611346	keystroke_n	n	n/a
305.837	0.12	611674	keystroke_Key.enter	Key.enter	n/a
305.9635	8.021	611927	prompt	n/a	metro pierre shock watt\n
306.558	0.134	613116	keystroke_m	m	n/a
306.603	0.074	613206	keystroke_e	e	n/a
306.783	0.074	613566	keystroke_t	t	n/a
306.932	0.1655	613864	keystroke_r	r	n/a
307.038	0.09	614076	keystroke_o	o	n/a
307.142	0.1205	614284	keystroke_Key.space	Key.space	n/a
307.278	0.1045	614556	keystroke_p	p	n/a
307.443	0.0895	614886	keystroke_i	i	n/a
307.788	0.09	615576	keystroke_e	e	n/a
307.9375	0.09	615875	keystroke_e	e	n/a
308.3275	0.09	616655	keystroke_Key.backspace	Key.backspace	n/a
308.403	0.059	616806	keystroke_r	r	n/a
308.538	0.074	617076	keystroke_r	r	n/a
308.717	0.1205	617434	keystroke_e	e	n/a
308.792	0.1055	617584	keystroke_Key.space	Key.space	n/a
308.9125	0.105	617825	keystroke_s	s	n/a
308.9875	0.15	617975	keystroke_h	h	n/a
309.078	0.1045	618156	keystroke_o	o	n/a
309.3175	0.15	618635	keystroke_k	k	n/a
309.4825	0.075	618965	keystroke_Key.space	Key.space	n/a
310.1275	0.045	620255	keystroke_Key.backspace	Key.backspace	n/a
310.3225	0.045	620645	keystroke_Key.backspace	Key.backspace	n/a
310.3825	0.1345	620765	keystroke_x	x	n/a
310.518	0.1045	621036	keystroke_k	k	n/a
310.6375	0.12	621275	keystroke_Key.space	Key.space	n/a
310.7425	0.105	621485	keystroke_w	w	n/a
310.8625	0.105	621725	keystroke_a	a	n/a
311.072	0.061	622144	keystroke_t	t	n/a
311.222	0.09	622444	keystroke_t	t	n/a
311.433	0.045	622866	keystroke_Key.backspace	Key.backspace	n/a
311.538	0.045	623076	keystroke_Key.backspace	Key.backspace	n/a
311.643	0.0595	623286	keystroke_Key.backspace	Key.backspace	n/a
311.7475	0.0595	623495	keystroke_Key.backspace	Key.backspace	n/a
311.867	0.0605	623734	keystroke_Key.backspace	Key.backspace	n/a
311.972	0.075	623944	keystroke_Key.backspace	Key.backspace	n/a
312.107	0.0905	624214	keystroke_Key.backspace	Key.backspace	n/a
312.228	0.134	624456	keystroke_c	c	n/a
312.392	0.075	624784	keystroke_Key.space	Key.space	n/a
312.408	0.075	624816	keystroke_k	k	n/a
312.7525	0.0445	625505	keystroke_Key.backspace	Key.backspace	n/a
312.842	0.105	625684	keystroke_Key.backspace	Key.backspace	n/a
313.112	0.0605	626224	keystroke_k	k	n/a
313.2025	0.105	626405	keystroke_Key.space	Key.space	n/a
313.3085	0.074	626617	keystroke_w	w	n/a
313.4275	0.135	626855	keystroke_a	a	n/a
313.6075	0.06	627215	keystroke_t	t	n/a
313.7575	0.09	627515	keystroke_t	t	n/a
313.8325	0.15	627665	keystroke_Key.enter	Key.enter	n/a
313.9885	7.7505	627977	prompt	n/a	blacks veterans aids ware\n
314.643	0.0595	629286	keystroke_b	b	n/a
314.7775	0.12	629555	keystroke_l	l	n/a
314.853	0.164	629706	keystroke_a	a	n/a
315.032	0.09	630064	keystroke_k	k	n/a
315.0475	0.0755	630095	keystroke_c	c	n/a
315.708	0.045	631416	keystroke_Key.backspace	Key.backspace	n/a
315.797	0.061	631594	keystroke_Key.backspace	Key.backspace	n/a
316.323	0.119	632646	keystroke_c	c	n/a
316.4275	0.0595	632855	keystroke_k	k	n/a
316.5475	0.105	633095	keystroke_s	s	n/a
316.757	0.1205	633514	keystroke_Key.space	Key.space	n/a
317.882	0.09	635764	keystroke_v	v	n/a
318.212	0.091	636424	keystroke_e	e	n/a
318.483	0.105	636966	keystroke_t	t	n/a
318.723	0.089	637446	keystroke_e	e	n/a
318.9025	0.0305	637805	keystroke_r	r	n/a
318.9775	0.12	637955	keystroke_a	a	n/a
319.083	0.09	638166	keystroke_n	n	n/a
319.233	0.134	638466	keystroke_s	s	n/a
319.3525	0.1055	638705	keystroke_Key.space	Key.space	n/a
319.6675	0.1505	639335	keystroke_a	a	n/a
320.0575	0.105	640115	keystroke_i	i	n/a
320.2975	0.1055	640595	keystroke_d	d	n/a
320.4625	0.135	640925	keystroke_s	s	n/a
320.5825	0.0895	641165	keystroke_Key.space	Key.space	n/a
320.702	0.121	641404	keystroke_w	w	n/a
320.868	0.12	641736	keystroke_e	e	n/a
321.167	0.091	642334	keystroke_Key.backspace	Key.backspace	n/a
321.213	0.165	642426	keystroke_a	a	n/a
321.303	0.06	642606	keystroke_r	r	n/a
321.467	0.091	642934	keystroke_e	e	n/a
321.618	0.12	643236	keystroke_Key.enter	Key.enter	n/a
321.7435	8.336	643487	prompt	n/a	collins african diagnostic chad\n
322.7275	0.045	645455	keystroke_c	c	n/a
322.7875	0.06	645575	keystroke_o	o	n/a
322.9375	0.09	645875	keystroke_l	l	n/a
323.0575	0.1055	646115	keystroke_l	l	n/a
323.2675	0.1055	646535	keystroke_i	i	n/a
323.3275	0.18	646655	keystroke_n	n	n/a
323.493	0.15	646986	keystroke_s	s	n/a
323.5825	0.135	647165	keystroke_Key.space	Key.space	n/a
323.7925	0.15	647585	keystroke_a	a	n/a
324.5275	0.06	649055	keystroke_f	f	n/a
325.0225	0.135	650045	keystroke_r	r	n/a
325.173	0.1345	650346	keystroke_i	i	n/a
326.162	0.016	652324	keystroke_c	c	n/a
326.193	0.15	652386	keystroke_a	a	n/a
326.313	0.105	652626	keystroke_n	n	n/a
326.493	0.09	652986	keystroke_Key.space	Key.space	n/a
326.718	0.09	653436	keystroke_d	d	n/a
326.838	0.105	653676	keystroke_i	i	n/a
327.183	0.12	654366	keystroke_a	a	n/a
327.378	0.105	654756	keystroke_g	g	n/a
328.008	0.12	656016	keystroke_n	n	n/a
328.188	0.135	656376	keystroke_o	o	n/a
328.2475	0.105	656495	keystroke_s	s	n/a
328.3975	0.12	656795	keystroke_t	t	n/a
328.4875	0.12	656975	keystroke_i	i	n/a
328.6525	0.135	657305	keystroke_c	c	n/a
328.8625	0.105	657725	keystroke_Key.space	Key.space	n/a
329.2375	0.105	658475	keystroke_c	c	n/a
329.3125	0.12	658625	keystroke_h	h	n/a
329.4475	0.12	658895	keystroke_a	a	n/a
329.5825	0.1205	659165	keystroke_d	d	n/a
329.958	0.119	659916	keystroke_Key.enter	Key.enter	n/a
330.085	25.3295	660170	prompt	n/a	characterized glass amenities transportation\n
330.858	0.105	661716	keystroke_c	c	n/a
330.978	0.105	661956	keystroke_h	h	n/a
331.098	0.105	662196	keystroke_a	a	n/a
331.5325	0.105	663065	keystroke_r	r	n/a
331.6525	0.135	663305	keystroke_a	a	n/a
332.508	0.075	665016	keystroke_t	t	n/a
332.703	0.075	665406	keystroke_e	e	n/a
332.868	0.105	665736	keystroke_r	r	n/a
333.243	0.105	666486	keystroke_i	i	n/a
333.333	0.135	666666	keystroke_z	z	n/a
333.483	0.06	666966	keystroke_e	e	n/a
333.663	0.09	667326	keystroke_d	d	n/a
333.723	0.105	667446	keystroke_Key.space	Key.space	n/a
334.877	0.091	669754	keystroke_Key.backspace	Key.backspace	n/a
335.027	0.09	670054	keystroke_Key.backspace	Key.backspace	n/a
335.2075	0.06	670415	keystroke_Key.backspace	Key.backspace	n/a
335.372	0.0605	670744	keystroke_Key.backspace	Key.backspace	n/a
335.5075	0.075	671015	keystroke_Key.backspace	Key.backspace	n/a
335.6425	0.075	671285	keystroke_Key.backspace	Key.backspace	n/a
336.363	0.09	672726	keystroke_r	r	n/a
338.462	0.15	676924	keystroke_i	i	n/a
339.108	0.1345	678216	keystroke_z	z	n/a
339.2125	0.075	678425	keystroke_e	e	n/a
339.3625	0.12	678725	keystroke_d	d	n/a
339.4525	0.09	678905	keystroke_Key.space	Key.space	n/a
341.4475	0.1195	682895	keystroke_Key.backspace	Key.backspace	n/a
341.657	0.09	683314	keystroke_Key.backspace	Key.backspace	n/a
341.8225	0.075	683645	keystroke_Key.backspace	Key.backspace	n/a
341.9575	0.06	683915	keystroke_Key.backspace	Key.backspace	n/a
342.0775	0.06	684155	keystroke_Key.backspace	Key.backspace	n/a
342.2125	0.045	684425	keystroke_Key.backspace	Key.backspace	n/a
342.3775	0.075	684755	keystroke_Key.backspace	Key.backspace	n/a
342.5275	0.09	685055	keystroke_Key.backspace	Key.backspace	n/a
342.7075	0.075	685415	keystroke_c	c	n/a
342.9625	0.09	685925	keystroke_t	t	n/a
343.3675	0.1055	686735	keystroke_e	e	n/a
343.548	0.1195	687096	keystroke_r	r	n/a
344.3125	0.075	688625	keystroke_i	i	n/a
345.4075	0.12	690815	keystroke_z	z	n/a
345.5725	0.075	691145	keystroke_e	e	n/a
345.7825	0.165	691565	keystroke_d	d	n/a
345.8575	0.135	691715	keystroke_Key.space	Key.space	n/a
346.1725	0.09	692345	keystroke_g	g	n/a
346.2775	0.135	692555	keystroke_l	l	n/a
346.3975	0.15	692795	keystroke_a	a	n/a
346.5025	0.075	693005	keystroke_s	s	n/a
346.6675	0.135	693335	keystroke_s	s	n/a
346.7575	0.105	693515	keystroke_Key.space	Key.space	n/a
346.9225	0.135	693845	keystroke_a	a	n/a
347.073	0.1645	694146	keystroke_m	m	n/a
347.9725	0.12	695945	keystroke_e	e	n/a
348.1375	0.12	696275	keystroke_n	n	n/a
348.4825	0.135	696965	keystroke_t	t	n/a
350.0575	0.105	700115	keystroke_Key.backspace	Key.backspace	n/a
350.3425	0.12	700685	keystroke_i	i	n/a
350.7325	0.09	701465	keystroke_t	t	n/a
350.8675	0.12	701735	keystroke_i	i	n/a
351.1975	0.1195	702395	keystroke_e	e	n/a
351.392	0.15	702784	keystroke_s	s	n/a
351.527	0.105	703054	keystroke_Key.space	Key.space	n/a
351.723	0.06	703446	keystroke_t	t	n/a
351.902	0.09	703804	keystroke_r	r	n/a
352.008	0.149	704016	keystroke_a	a	n/a
352.127	0.136	704254	keystroke_n	n	n/a
352.247	0.105	704494	keystroke_s	s	n/a
352.367	0.12	704734	keystroke_p	p	n/a
352.517	0.1355	705034	keystroke_o	o	n/a
352.682	0.1355	705364	keystroke_r	r	n/a
353.597	0.09	707194	keystroke_t	t	n/a
353.747	0.135	707494	keystroke_a	a	n/a
353.853	0.12	707706	keystroke_t	t	n/a
353.9275	0.0755	707855	keystroke_i	i	n/a
354.0925	0.1345	708185	keystroke_o	o	n/a
354.182	0.135	708364	keystroke_n	n	n/a
355.277	0.135	710554	keystroke_Key.enter	Key.enter	n/a
355.419	7.2395	710838	prompt	n/a	mapping shame ping televisions\n
356.2675	0.1205	712535	keystroke_m	m	n/a
356.342	0.151	712684	keystroke_a	a	n/a
356.4775	0.029	712955	keystroke_p	p	n/a
356.567	0.0905	713134	keystroke_p	p	n/a
356.7025	0.1205	713405	keystroke_i	i	n/a
356.7775	0.15	713555	keystroke_n	n	n/a
356.8675	0.105	713735	keystroke_g	g	n/a
356.9575	0.105	713915	keystroke_Key.space	Key.space	n/a
357.0475	0.18	714095	keystroke_s	s	n/a
357.2125	0.075	714425	keystroke_h	h	n/a
357.3475	0.1045	714695	keystroke_a	a	n/a
357.4375	0.149	714875	keystroke_m	m	n/a
357.4975	0.135	714995	keystroke_p	p	n/a
357.6025	0.135	715205	keystroke_e	e	n/a
357.723	0.1045	715446	keystroke_Key.space	Key.space	n/a
357.8725	0.0905	715745	keystroke_p	p	n/a
358.592	0.195	717184	keystroke_Key.backspace	Key.backspace	n/a
358.862	0.09	717724	keystroke_Key.backspace	Key.backspace	n/a
359.0425	0.075	718085	keystroke_Key.backspace	Key.backspace	n/a
359.4025	0.015	718805	keystroke_e	e	n/a
359.4925	0.09	718985	keystroke_Key.backspace	Key.backspace	n/a
359.7175	0.1055	719435	keystroke_Key.backspace	Key.backspace	n/a
359.8075	0.135	719615	keystroke_e	e	n/a
359.9125	0.135	719825	keystroke_Key.space	Key.space	n/a
360.0325	0.105	720065	keystroke_p	p	n/a
360.1975	0.075	720395	keystroke_i	i	n/a
360.3625	0.12	720725	keystroke_n	n	n/a
360.4375	0.105	720875	keystroke_g	g	n/a
360.5125	0.105	721025	keystroke_Key.space	Key.space	n/a
360.6625	0.06	721325	keystroke_t	t	n/a
360.8275	0.075	721655	keystroke_e	e	n/a
360.9175	0.105	721835	keystroke_l	l	n/a
361.0375	0.045	722075	keystroke_e	e	n/a
361.233	0.09	722466	keystroke_v	v	n/a
361.6825	0.09	723365	keystroke_i	i	n/a
361.8925	0.09	723785	keystroke_s	s	n/a
362.027	0.0605	724054	keystroke_i	i	n/a
362.207	0.1055	724414	keystroke_o	o	n/a
362.252	0.135	724504	keystroke_n	n	n/a
362.373	0.105	724746	keystroke_s	s	n/a
362.522	0.135	725044	keystroke_Key.enter	Key.enter	n/a
362.662	11.682	725324	prompt	n/a	simultaneously chief bandwidth optimize\n
363.5125	0.1345	727025	keystroke_s	s	n/a
363.632	0.105	727264	keystroke_i	i	n/a
363.932	0.0905	727864	keystroke_m	m	n/a
364.172	0.09	728344	keystroke_u	u	n/a
364.427	0.09	728854	keystroke_l	l	n/a
364.6975	0.0895	729395	keystroke_t	t	n/a
364.862	0.1505	729724	keystroke_a	a	n/a
365.028	0.1045	730056	keystroke_n	n	n/a
365.177	0.1355	730354	keystroke_e	e	n/a
365.898	0.0745	731796	keystroke_o	o	n/a
366.0625	0.09	732125	keystroke_u	u	n/a
366.1075	0.12	732215	keystroke_s	s	n/a
366.2725	0.105	732545	keystroke_l	l	n/a
366.4075	0.09	732815	keystroke_y	y	n/a
366.558	0.1045	733116	keystroke_Key.space	Key.space	n/a
366.7225	0.105	733445	keystroke_c	c	n/a
366.8425	0.12	733685	keystroke_h	h	n/a
366.9475	0.105	733895	keystroke_e	e	n/a
367.0675	0.0905	734135	keystroke_i	i	n/a
367.1725	0.105	734345	keystroke_f	f	n/a
367.2925	0.12	734585	keystroke_Key.space	Key.space	n/a
367.787	0.06	735574	keystroke_Key.backspace	Key.backspace	n/a
367.907	0.045	735814	keystroke_Key.backspace	Key.backspace	n/a
368.042	0.03	736084	keystroke_Key.backspace	Key.backspace	n/a
368.148	0.104	736296	keystroke_Key.backspace	Key.backspace	n/a
368.568	0.0745	737136	keystroke_i	i	n/a
368.7175	0.105	737435	keystroke_e	e	n/a
368.9425	0.12	737885	keystroke_f	f	n/a
369.0925	0.12	738185	keystroke_Key.space	Key.space	n/a
369.3625	0.09	738725	keystroke_b	b	n/a
369.4825	0.15	738965	keystroke_a	a	n/a
369.6025	0.105	739205	keystroke_n	n	n/a
369.7225	0.105	739445	keystroke_d	d	n/a
370.1725	0.09	740345	keystroke_w	w	n/a
370.2775	0.1355	740555	keystroke_i	i	n/a
370.3975	0.09	740795	keystroke_t	t	n/a
370.5175	0.105	741035	keystroke_h	h	n/a
371.0575	0.06	742115	keystroke_Key.backspace	Key.backspace	n/a
371.1925	0.06	742385	keystroke_Key.backspace	Key.backspace	n/a
371.2975	0.105	742595	keystroke_d	d	n/a
371.7325	0.075	743465	keystroke_t	t	n/a
371.7925	0.105	743585	keystroke_h	h	n/a
372.0175	0.12	744035	keystroke_Key.space	Key.space	n/a
372.633	0.0745	745266	keystroke_o	o	n/a
372.7975	0.105	745595	keystroke_p	p	n/a
373.1125	0.12	746225	keystroke_t	t	n/a
373.2475	0.075	746495	keystroke_i	i	n/a
373.4425	0.089	746885	keystroke_m	m	n/a
373.5925	0.105	747185	keystroke_i	i	n/a
373.6825	0.12	747365	keystroke_z	z	n/a
373.7875	0.12	747575	keystroke_e	e	n/a
374.1475	0.195	748295	keystroke_Key.enter	Key.enter	n/a
374.348	10.406	748696	prompt	n/a	doctor entertaining statutory thereafter\n
375.033	0.0895	750066	keystroke_d	d	n/a
375.137	0.105	750274	keystroke_o	o	n/a
375.227	0.091	750454	keystroke_c	c	n/a
375.467	0.091	750934	keystroke_t	t	n/a
375.5875	0.1205	751175	keystroke_o	o	n/a
376.082	0.0905	752164	keystroke_r	r	n/a
376.157	0.09	752314	keystroke_Key.space	Key.space	n/a
376.412	0.121	752824	keystroke_e	e	n/a
376.547	0.136	753094	keystroke_n	n	n/a
376.6675	0.075	753335	keystroke_t	t	n/a
376.8475	0.0895	753695	keystroke_e	e	n/a
377.0125	0.0895	754025	keystroke_r	r	n/a
377.7175	0.09	755435	keystroke_t	t	n/a
377.9125	0.105	755825	keystroke_a	a	n/a
378.347	0.0605	756694	keystroke_i	i	n/a
378.5425	0.12	757085	keystroke_n	n	n/a
378.7225	0.105	757445	keystroke_i	i	n/a
378.7975	0.15	757595	keystroke_n	n	n/a
378.9925	0.09	757985	keystroke_g	g	n/a
379.1125	0.12	758225	keystroke_Key.space	Key.space	n/a
379.5775	0.135	759155	keystroke_s	s	n/a
380.2075	0.12	760415	keystroke_t	t	n/a
380.3725	0.1355	760745	keystroke_a	a	n/a
380.6575	0.12	761315	keystroke_t	t	n/a
380.8075	0.1195	761615	keystroke_u	u	n/a
381.453	0.0745	762906	keystroke_t	t	n/a
381.5575	0.09	763115	keystroke_o	o	n/a
381.6325	0.075	763265	keystroke_r	r	n/a
381.8425	0.105	763685	keystroke_y	y	n/a
382.0225	0.105	764045	keystroke_Key.space	Key.space	n/a
382.8925	0.09	765785	keystroke_t	t	n/a
383.0125	0.1205	766025	keystroke_h	h	n/a
383.133	0.1195	766266	keystroke_e	e	n/a
383.432	0.0605	766864	keystroke_r	r	n/a
383.5975	0.1055	767195	keystroke_e	e	n/a
383.898	0.09	767796	keystroke_a	a	n/a
384.033	0.1045	768066	keystroke_f	f	n/a
384.1965	0.076	768393	keystroke_t	t	n/a
384.3775	0.045	768755	keystroke_e	e	n/a
384.4975	0.09	768995	keystroke_r	r	n/a
384.6025	0.15	769205	keystroke_Key.enter	Key.enter	n/a
384.758	10.362	769516	prompt	n/a	pill tension usual york\n
385.547	0.0755	771094	keystroke_p	p	n/a
385.6975	0.1195	771395	keystroke_i	i	n/a
386.0425	0.045	772085	keystroke_l	l	n/a
386.2675	0.0145	772535	keystroke_l	l	n/a
386.4625	0.1195	772925	keystroke_Key.space	Key.space	n/a
386.597	0.0755	773194	keystroke_t	t	n/a
386.7925	0.0905	773585	keystroke_e	e	n/a
386.9125	0.1505	773825	keystroke_n	n	n/a
387.078	0.0895	774156	keystroke_s	s	n/a
387.2275	0.105	774455	keystroke_i	i	n/a
387.4375	0.09	774875	keystroke_o	o	n/a
387.633	0.1345	775266	keystroke_n	n	n/a
387.7975	0.105	775595	keystroke_Key.space	Key.space	n/a
387.9475	0.105	775895	keystroke_u	u	n/a
388.0675	0.135	776135	keystroke_s	s	n/a
388.1875	0.075	776375	keystroke_u	u	n/a
393.6205	0.072	787241	keystroke_a	a	n/a
393.663	0.075	787326	keystroke_l	l	n/a
393.7675	0.09	787535	keystroke_Key.space	Key.space	n/a
394.412	0.09	788824	keystroke_y	y	n/a
394.5475	0.075	789095	keystroke_o	o	n/a
394.6375	0.1205	789275	keystroke_r	r	n/a
394.7275	0.09	789455	keystroke_k	k	n/a
394.9825	0.135	789965	keystroke_Key.enter	Key.enter	n/a
395.1245	7.1505	790249	prompt	n/a	maryland data realty he\n
395.913	0.1195	791826	keystroke_m	m	n/a
395.9875	0.15	791975	keystroke_a	a	n/a
396.0925	0.09	792185	keystroke_r	r	n/a
396.873	0.0895	793746	keystroke_y	y	n/a
397.053	0.135	794106	keystroke_l	l	n/a
397.157	0.1655	794314	keystroke_a	a	n/a
397.3075	0.12	794615	keystroke_n	n	n/a
397.4875	0.0895	794975	keystroke_d	d	n/a
397.5625	0.0895	795125	keystroke_Key.space	Key.space	n/a
397.698	0.104	795396	keystroke_d	d	n/a
397.772	0.151	795544	keystroke_a	a	n/a
397.9675	0.075	795935	keystroke_t	t	n/a
399.678	0.12	799356	keystroke_a	a	n/a
399.812	0.1205	799624	keystroke_Key.space	Key.space	n/a
400.0075	0.09	800015	keystroke_r	r	n/a
400.2025	0.1055	800405	keystroke_e	e	n/a
400.308	0.1195	800616	keystroke_a	a	n/a
400.4575	0.09	800915	keystroke_l	l	n/a
400.937	0.0755	801874	keystroke_t	t	n/a
401.2675	0.0755	802535	keystroke_y	y	n/a
401.6125	0.1345	803225	keystroke_Key.space	Key.space	n/a
401.8375	0.12	803675	keystroke_h	h	n/a
401.958	0.1045	803916	keystroke_e	e	n/a
402.137	0.135	804274	keystroke_Key.enter	Key.enter	n/a
402.2785	9.086	804557	prompt	n/a	sparc anaheim maritime vaccine\n
403.923	0.15	807846	keystroke_s	s	n/a
404.207	0.105	808414	keystroke_p	p	n/a
404.8525	0.135	809705	keystroke_a	a	n/a
404.9725	0.09	809945	keystroke_r	r	n/a
405.2125	0.12	810425	keystroke_c	c	n/a
405.363	0.1195	810726	keystroke_Key.space	Key.space	n/a
405.678	0.1345	811356	keystroke_a	a	n/a
405.7975	0.1195	811595	keystroke_n	n	n/a
405.947	0.135	811894	keystroke_a	a	n/a
406.563	0.105	813126	keystroke_h	h	n/a
406.623	0.09	813246	keystroke_e	e	n/a
406.728	0.09	813456	keystroke_i	i	n/a
406.923	0.105	813846	keystroke_m	m	n/a
406.998	0.105	813996	keystroke_Key.space	Key.space	n/a
407.163	0.135	814326	keystroke_m	m	n/a
407.313	0.135	814626	keystroke_a	a	n/a
407.598	0.12	815196	keystroke_r	r	n/a
407.883	0.12	815766	keystroke_i	i	n/a
408.078	0.09	816156	keystroke_t	t	n/a
408.407	0.061	816814	keystroke_i	i	n/a
408.573	0.105	817146	keystroke_m	m	n/a
409.218	0.06	818436	keystroke_e	e	n/a
409.263	0.104	818526	keystroke_Key.space	Key.space	n/a
409.9375	0.105	819875	keystroke_v	v	n/a
410.1175	0.165	820235	keystroke_a	a	n/a
410.2675	0.06	820535	keystroke_c	c	n/a
410.4025	0.075	820805	keystroke_c	c	n/a
410.5225	0.0455	821045	keystroke_i	i	n/a
410.5525	0.12	821105	keystroke_n	n	n/a
410.9875	0.0755	821975	keystroke_e	e	n/a
411.1975	0.165	822395	keystroke_Key.enter	Key.enter	n/a
411.3695	13.8545	822739	prompt	n/a	aluminium visitors tyler somebody's\n
412.052	0.15	824104	keystroke_a	a	n/a
412.218	0.104	824436	keystroke_l	l	n/a
412.4425	0.12	824885	keystroke_u	u	n/a
413.2525	0.075	826505	keystroke_m	m	n/a
413.5225	0.015	827045	keystroke_i	i	n/a
413.6425	0.105	827285	keystroke_n	n	n/a
413.8225	0.12	827645	keystroke_u	u	n/a
414.0475	0.09	828095	keystroke_m	m	n/a
414.183	0.0895	828366	keystroke_Key.space	Key.space	n/a
414.6925	0.0905	829385	keystroke_v	v	n/a
414.843	0.1345	829686	keystroke_i	i	n/a
414.9625	0.075	829925	keystroke_s	s	n/a
415.1425	0.0755	830285	keystroke_i	i	n/a
415.3975	0.105	830795	keystroke_t	t	n/a
415.5175	0.075	831035	keystroke_o	o	n/a
415.6075	0.09	831215	keystroke_r	r	n/a
415.7575	0.135	831515	keystroke_s	s	n/a
415.8475	0.12	831695	keystroke_Key.space	Key.space	n/a
416.1025	0.12	832205	keystroke_t	t	n/a
416.3725	0.105	832745	keystroke_y	y	n/a
417.002	0.12	834004	keystroke_l	l	n/a
417.108	0.089	834216	keystroke_e	e	n/a
417.272	0.12	834544	keystroke_r	r	n/a
417.377	0.09	834754	keystroke_Key.space	Key.space	n/a
417.602	0.0905	835204	keystroke_s	s	n/a
420.3795	0.013	840759	keystroke_o	o	n/a
420.4975	0.0905	840995	keystroke_m	m	n/a
420.738	0.0895	841476	keystroke_b	b	n/a
420.9775	0.0905	841955	keystroke_o	o	n/a
421.113	0.074	842226	keystroke_d	d	n/a
421.878	0.12	843756	keystroke_Key.backspace	Key.backspace	n/a
422.058	0.045	844116	keystroke_Key.backspace	Key.backspace	n/a
422.193	0.09	844386	keystroke_Key.backspace	Key.backspace	n/a
422.433	0.075	844866	keystroke_e	e	n/a
422.748	0.12	845496	keystroke_m	m	n/a
423.468	0.1195	846936	keystroke_Key.backspace	Key.backspace	n/a
423.783	0.0305	847566	keystroke_b	b	n/a
423.963	0.0895	847926	keystroke_o	o	n/a
424.1575	0.09	848315	keystroke_d	d	n/a
424.4725	0.1045	848945	keystroke_y	y	n/a
424.5925	0.1055	849185	keystroke_'	'	n/a
424.7425	0.12	849485	keystroke_s	s	n/a
424.8475	0.12	849695	keystroke_Key.space	Key.space	n/a
425.1475	0.075	850295	keystroke_Key.enter	Key.enter	n/a
425.228	12.146	850456	prompt	n/a	accessed jamie strain aviation\n
425.8675	0.15	851735	keystroke_a	a	n/a
426.033	0.12	852066	keystroke_c	c	n/a
427.037	0.076	854074	keystroke_c	c	n/a
427.2625	0.105	854525	keystroke_e	e	n/a
427.488	0.0745	854976	keystroke_s	s	n/a
427.6675	0.135	855335	keystroke_s	s	n/a
427.7725	0.0905	855545	keystroke_e	e	n/a
427.9675	0.135	855935	keystroke_d	d	n/a
428.0875	0.12	856175	keystroke_Key.space	Key.space	n/a
428.2675	0.15	856535	keystroke_j	j	n/a
428.3725	0.12	856745	keystroke_a	a	n/a
428.5525	0.105	857105	keystroke_i	i	n/a
429.933	0.0595	859866	keystroke_Key.backspace	Key.backspace	n/a
430.248	0.075	860496	keystroke_m	m	n/a
430.4125	0.1055	860825	keystroke_i	i	n/a
430.532	0.1055	861064	keystroke_e	e	n/a
430.622	0.1055	861244	keystroke_Key.space	Key.space	n/a
430.7425	0.12	861485	keystroke_s	s	n/a
430.9675	0.0895	861935	keystroke_t	t	n/a
431.1485	0.089	862297	keystroke_r	r	n/a
431.2075	0.1645	862415	keystroke_a	a	n/a
431.2825	0.1345	862565	keystroke_i	i	n/a
431.388	0.1495	862776	keystroke_n	n	n/a
431.5675	0.135	863135	keystroke_Key.space	Key.space	n/a
432.0625	0.15	864125	keystroke_a	a	n/a
432.5875	0.06	865175	keystroke_v	v	n/a
433.172	0.1055	866344	keystroke_Key.backspace	Key.backspace	n/a
433.233	0.1195	866466	keystroke_c	c	n/a
433.8325	0.03	867665	keystroke_=	=	n/a
433.8925	0.0905	867785	keystroke_v	v	n/a
434.1175	0.03	868235	keystroke_Key.backspace	Key.backspace	n/a
434.2525	0.045	868505	keystroke_Key.backspace	Key.backspace	n/a
434.6875	0.075	869375	keystroke_Key.backspace	Key.backspace	n/a
434.8075	0.09	869615	keystroke_v	v	n/a
434.9275	0.105	869855	keystroke_i	i	n/a
436.4875	0.1655	872975	keystroke_a	a	n/a
436.638	0.1345	873276	keystroke_t	t	n/a
436.7275	0.0755	873455	keystroke_i	i	n/a
436.9225	0.12	873845	keystroke_o	o	n/a
436.983	0.1495	873966	keystroke_n	n	n/a
437.193	0.1795	874386	keystroke_Key.enter	Key.enter	n/a
437.3785	11.8305	874757	prompt	n/a	information europe arctic concert\n
438.1075	0.105	876215	keystroke_i	i	n/a
438.3775	0.121	876755	keystroke_n	n	n/a
438.6025	0.12	877205	keystroke_f	f	n/a
438.7235	0.1345	877447	keystroke_o	o	n/a
438.9175	0.0905	877835	keystroke_r	r	n/a
439.113	0.12	878226	keystroke_m	m	n/a
439.2625	0.165	878525	keystroke_a	a	n/a
439.3525	0.135	878705	keystroke_t	t	n/a
439.4575	0.0755	878915	keystroke_i	i	n/a
439.6225	0.12	879245	keystroke_o	o	n/a
439.6825	0.1505	879365	keystroke_n	n	n/a
439.8025	0.12	879605	keystroke_Key.space	Key.space	n/a
440.103	0.105	880206	keystroke_e	e	n/a
440.327	0.121	880654	keystroke_r	r	n/a
440.747	0.136	881494	keystroke_Key.backspace	Key.backspace	n/a
441.018	0.105	882036	keystroke_u	u	n/a
441.153	0.105	882306	keystroke_r	r	n/a
441.273	0.09	882546	keystroke_i	i	n/a
441.423	0.1195	882846	keystroke_p	p	n/a
442.1125	0.045	884225	keystroke_Key.backspace	Key.backspace	n/a
442.233	0.0445	884466	keystroke_Key.backspace	Key.backspace	n/a
442.458	0.0595	884916	keystroke_o	o	n/a
442.5775	0.105	885155	keystroke_p	p	n/a
442.6975	0.09	885395	keystroke_e	e	n/a
442.7575	0.15	885515	keystroke_Key.space	Key.space	n/a
445.955	0.072	891910	keystroke_a	a	n/a
446.252	0.091	892504	keystroke_r	r	n/a
446.448	0.105	892896	keystroke_t	t	n/a
446.777	0.12	893554	keystroke_Key.backspace	Key.backspace	n/a
446.852	0.0905	893704	keystroke_c	c	n/a
447.2125	0.105	894425	keystroke_t	t	n/a
447.3475	0.12	894695	keystroke_i	i	n/a
447.617	0.1355	895234	keystroke_c	c	n/a
447.7675	0.09	895535	keystroke_Key.space	Key.space	n/a
448.1275	0.105	896255	keystroke_c	c	n/a
448.1875	0.09	896375	keystroke_o	o	n/a
448.352	0.1655	896704	keystroke_n	n	n/a
448.457	0.045	896914	keystroke_c	c	n/a
448.623	0.075	897246	keystroke_e	e	n/a
448.788	0.075	897576	keystroke_r	r	n/a
448.938	0.0895	897876	keystroke_t	t	n/a
449.073	0.134	898146	keystroke_Key.enter	Key.enter	n/a
449.2135	6.821	898427	prompt	n/a	mitchell skype heritage diversity\n
449.9275	0.0755	899855	keystroke_m	m	n/a
450.078	0.1195	900156	keystroke_i	i	n/a
450.1525	0.09	900305	keystroke_t	t	n/a
450.3775	0.09	900755	keystroke_c	c	n/a
450.483	0.0895	900966	keystroke_h	h	n/a
450.6175	0.12	901235	keystroke_e	e	n/a
450.8875	0.03	901775	keystroke_l	l	n/a
451.008	0.15	902016	keystroke_l	l	n/a
451.113	0.12	902226	keystroke_Key.space	Key.space	n/a
451.278	0.0895	902556	keystroke_s	s	n/a
451.3375	0.12	902675	keystroke_k	k	n/a
451.5475	0.1055	903095	keystroke_y	y	n/a
451.6825	0.09	903365	keystroke_p	p	n/a
452.2375	0.075	904475	keystroke_e	e	n/a
452.2825	0.135	904565	keystroke_Key.space	Key.space	n/a
452.763	0.0745	905526	keystroke_h	h	n/a
452.8225	0.075	905645	keystroke_e	e	n/a
453.003	0.0895	906006	keystroke_r	r	n/a
453.438	0.06	906876	keystroke_i	i	n/a
453.633	0.0905	907266	keystroke_t	t	n/a
453.7675	0.0905	907535	keystroke_a	a	n/a
453.9325	0.09	907865	keystroke_g	g	n/a
454.1425	0.075	908285	keystroke_e	e	n/a
454.188	0.1045	908376	keystroke_Key.space	Key.space	n/a
454.3675	0.105	908735	keystroke_d	d	n/a
454.4575	0.105	908915	keystroke_i	i	n/a
454.6525	0.075	909305	keystroke_v	v	n/a
454.8475	0.075	909695	keystroke_e	e	n/a
455.013	0.089	910026	keystroke_r	r	n/a
455.148	0.119	910296	keystroke_s	s	n/a
455.252	0.091	910504	keystroke_i	i	n/a
455.358	0.089	910716	keystroke_t	t	n/a
455.5825	0.1055	911165	keystroke_y	y	n/a
455.868	0.165	911736	keystroke_Key.enter	Key.enter	n/a
456.0415	10.313	912083	prompt	n/a	thai liechtenstein washington radical\n
456.783	0.09	913566	keystroke_t	t	n/a
456.887	0.106	913774	keystroke_h	h	n/a
456.978	0.12	913956	keystroke_a	a	n/a
457.082	0.12	914164	keystroke_i	i	n/a
457.2175	0.12	914435	keystroke_Key.space	Key.space	n/a
458.5825	0.12	917165	keystroke_l	l	n/a
458.8375	0.09	917675	keystroke_i	i	n/a
459.063	0.0895	918126	keystroke_e	e	n/a
459.3775	0.12	918755	keystroke_c	c	n/a
460.008	0.1345	920016	keystroke_h	h	n/a
460.353	0.09	920706	keystroke_t	t	n/a
460.593	0.09	921186	keystroke_e	e	n/a
460.758	0.15	921516	keystroke_n	n	n/a
461.1625	0.1055	922325	keystroke_s	s	n/a
461.343	0.074	922686	keystroke_t	t	n/a
461.538	0.075	923076	keystroke_e	e	n/a
461.597	0.076	923194	keystroke_i	i	n/a
461.778	0.135	923556	keystroke_n	n	n/a
461.882	0.105	923764	keystroke_Key.space	Key.space	n/a
462.018	0.075	924036	keystroke_w	w	n/a
462.153	0.15	924306	keystroke_a	a	n/a
462.243	0.105	924486	keystroke_s	s	n/a
462.333	0.12	924666	keystroke_h	h	n/a
462.438	0.134	924876	keystroke_i	i	n/a
462.587	0.1205	925174	keystroke_n	n	n/a
462.647	0.09	925294	keystroke_g	g	n/a
462.843	0.104	925686	keystroke_t	t	n/a
462.933	0.074	925866	keystroke_o	o	n/a
463.082	0.121	926164	keystroke_n	n	n/a
463.217	0.09	926434	keystroke_Key.space	Key.space	n/a
463.383	0.089	926766	keystroke_r	r	n/a
463.533	0.089	927066	keystroke_a	a	n/a
463.757	0.046	927514	keystroke_c	c	n/a
464.358	0.089	928716	keystroke_Key.backspace	Key.backspace	n/a
465.5725	0.1055	931145	keystroke_d	d	n/a
465.6925	0.1205	931385	keystroke_i	i	n/a
465.7975	0.12	931595	keystroke_c	c	n/a
465.933	0.1195	931866	keystroke_a	a	n/a
465.9925	0.0905	931985	keystroke_l	l	n/a
466.2175	0.1355	932435	keystroke_Key.enter	Key.enter	n/a
466.359	9.715	932718	prompt	n/a	swiss german poor noted\n
466.9675	0.09	933935	keystroke_s	s	n/a
467.3425	0.105	934685	keystroke_w	w	n/a
467.4625	0.075	934925	keystroke_i	i	n/a
467.6725	0.0155	935345	keystroke_n	n	n/a
468.0475	0.0905	936095	keystroke_Key.backspace	Key.backspace	n/a
468.2125	0.0755	936425	keystroke_s	s	n/a
468.363	0.1345	936726	keystroke_s	s	n/a
468.4525	0.135	936905	keystroke_Key.space	Key.space	n/a
469.2325	0.0455	938465	keystroke_g	g	n/a
469.2925	0.0155	938585	keystroke_e	e	n/a
469.383	0.0745	938766	keystroke_r	r	n/a
469.878	0.1495	939756	keystroke_a	a	n/a
469.9675	0.105	939935	keystroke_n	n	n/a
470.2675	0.135	940535	keystroke_Key.space	Key.space	n/a
470.6425	0.06	941285	keystroke_Key.backspace	Key.backspace	n/a
470.763	0.059	941526	keystroke_Key.backspace	Key.backspace	n/a
470.868	0.074	941736	keystroke_Key.backspace	Key.backspace	n/a
471.107	0.09	942214	keystroke_m	m	n/a
471.213	0.135	942426	keystroke_a	a	n/a
471.318	0.09	942636	keystroke_n	n	n/a
471.467	0.09	942934	keystroke_Key.space	Key.space	n/a
471.618	0.09	943236	keystroke_p	p	n/a
471.813	0.044	943626	keystroke_o	o	n/a
471.9175	0.12	943835	keystroke_o	o	n/a
471.993	0.12	943986	keystroke_r	r	n/a
472.263	0.1195	944526	keystroke_Key.space	Key.space	n/a
473.268	0.104	946536	keystroke_n	n	n/a
473.313	0.1195	946626	keystroke_o	o	n/a
473.4175	0.06	946835	keystroke_t	t	n/a
473.583	0.0595	947166	keystroke_e	e	n/a
473.733	0.105	947466	keystroke_d	d	n/a
473.7925	0.105	947585	keystroke_Key.space	Key.space	n/a
475.938	0.1345	951876	keystroke_Key.enter	Key.enter	n/a
476.078	7.0165	952156	prompt	n/a	showed reaction accept identify\n
476.8085	0.0885	953617	keystroke_s	s	n/a
476.883	0.119	953766	keystroke_h	h	n/a
476.943	0.104	953886	keystroke_o	o	n/a
477.0035	0.1345	954007	keystroke_w	w	n/a
477.123	0.104	954246	keystroke_e	e	n/a
477.3325	0.1055	954665	keystroke_d	d	n/a
477.392	0.136	954784	keystroke_Key.space	Key.space	n/a
477.708	0.06	955416	keystroke_r	r	n/a
477.872	0.061	955744	keystroke_e	e	n/a
478.053	0.105	956106	keystroke_a	a	n/a
478.878	0.149	957756	keystroke_c	c	n/a
479.238	0.0895	958476	keystroke_t	t	n/a
479.3425	0.105	958685	keystroke_i	i	n/a
479.5225	0.1355	959045	keystroke_o	o	n/a
479.6435	0.134	959287	keystroke_n	n	n/a
479.7475	0.1505	959495	keystroke_Key.space	Key.space	n/a
479.913	0.1055	959826	keystroke_a	a	n/a
480.137	0.106	960274	keystroke_c	c	n/a
480.408	0.0145	960816	keystroke_c	c	n/a
480.572	0.091	961144	keystroke_e	e	n/a
480.708	0.105	961416	keystroke_p	p	n/a
480.8275	0.1195	961655	keystroke_t	t	n/a
480.933	0.135	961866	keystroke_Key.space	Key.space	n/a
481.083	0.09	962166	keystroke_i	i	n/a
481.218	0.105	962436	keystroke_d	d	n/a
481.488	0.0895	962976	keystroke_e	e	n/a
481.638	0.1345	963276	keystroke_n	n	n/a
482.178	0.0895	964356	keystroke_t	t	n/a
482.2685	0.089	964537	keystroke_i	i	n/a
482.3875	0.0755	964775	keystroke_f	f	n/a
482.6275	0.09	965255	keystroke_y	y	n/a
482.9275	0.165	965855	keystroke_Key.enter	Key.enter	n/a
483.099	6.8355	966198	prompt	n/a	tell owner bearing prisoners\n
483.7675	0.075	967535	keystroke_t	t	n/a
483.9625	0.0905	967925	keystroke_e	e	n/a
484.038	0.045	968076	keystroke_l	l	n/a
484.158	0.105	968316	keystroke_l	l	n/a
484.2325	0.12	968465	keystroke_Key.space	Key.space	n/a
484.3675	0.09	968735	keystroke_o	o	n/a
484.4425	0.1205	968885	keystroke_w	w	n/a
484.578	0.1045	969156	keystroke_n	n	n/a
484.788	0.0595	969576	keystroke_d	d	n/a
484.9675	0.075	969935	keystroke_e	e	n/a
485.1175	0.105	970235	keystroke_r	r	n/a
485.178	0.1495	970356	keystroke_Key.space	Key.space	n/a
485.6875	0.045	971375	keystroke_Key.backspace	Key.backspace	n/a
485.7925	0.0455	971585	keystroke_Key.backspace	Key.backspace	n/a
485.897	0.061	971794	keystroke_Key.backspace	Key.backspace	n/a
486.002	0.076	972004	keystroke_Key.backspace	Key.backspace	n/a
486.048	0.074	972096	keystroke_e	e	n/a
486.213	0.075	972426	keystroke_r	r	n/a
486.243	0.12	972486	keystroke_Key.space	Key.space	n/a
486.572	0.1055	973144	keystroke_b	b	n/a
486.678	0.135	973356	keystroke_e	e	n/a
486.7975	0.1495	973595	keystroke_a	a	n/a
486.9025	0.1055	973805	keystroke_r	r	n/a
486.9775	0.1055	973955	keystroke_i	i	n/a
487.038	0.12	974076	keystroke_n	n	n/a
487.128	0.105	974256	keystroke_g	g	n/a
487.1875	0.1355	974375	keystroke_Key.space	Key.space	n/a
488.313	0.135	976626	keystroke_p	p	n/a
488.478	0.12	976956	keystroke_r	r	n/a
488.583	0.135	977166	keystroke_i	i	n/a
488.868	0.09	977736	keystroke_s	s	n/a
489.018	0.12	978036	keystroke_o	o	n/a
489.2285	0.1185	978457	keystroke_n	n	n/a
489.303	0.09	978606	keystroke_e	e	n/a
489.468	0.09	978936	keystroke_r	r	n/a
489.588	0.12	979176	keystroke_s	s	n/a
489.753	0.18	979506	keystroke_Key.enter	Key.enter	n/a
489.9385	8.126	979877	prompt	n/a	weblogs heading see invited\n
490.683	0.12	981366	keystroke_w	w	n/a
490.818	0.09	981636	keystroke_e	e	n/a
490.938	0.09	981876	keystroke_b	b	n/a
493.4295	0.001	986859	keystroke_l	l	n/a
493.7725	0.12	987545	keystroke_Key.backspace	Key.backspace	n/a
494.1475	0.075	988295	keystroke_l	l	n/a
494.2675	0.12	988535	keystroke_o	o	n/a
494.373	0.0595	988746	keystroke_g	g	n/a
494.538	0.1345	989076	keystroke_s	s	n/a
494.6425	0.105	989285	keystroke_Key.space	Key.space	n/a
494.8375	0.0905	989675	keystroke_h	h	n/a
494.9125	0.105	989825	keystroke_e	e	n/a
495.047	0.165	990094	keystroke_a	a	n/a
495.1525	0.1495	990305	keystroke_d	d	n/a
495.2875	0.1045	990575	keystroke_i	i	n/a
495.333	0.135	990666	keystroke_n	n	n/a
495.422	0.135	990844	keystroke_g	g	n/a
495.528	0.149	991056	keystroke_Key.space	Key.space	n/a
496.338	0.15	992676	keystroke_s	s	n/a
496.4125	0.0905	992825	keystroke_e	e	n/a
496.578	0.119	993156	keystroke_e	e	n/a
496.6835	0.1185	993367	keystroke_Key.space	Key.space	n/a
496.878	0.09	993756	keystroke_i	i	n/a
497.073	0.135	994146	keystroke_n	n	n/a
497.193	0.1195	994386	keystroke_v	v	n/a
497.3275	0.105	994655	keystroke_i	i	n/a
497.4625	0.0905	994925	keystroke_t	t	n/a
497.6425	0.06	995285	keystroke_e	e	n/a
497.7775	0.12	995555	keystroke_d	d	n/a
497.9275	0.1355	995855	keystroke_Key.enter	Key.enter	n/a
498.0695	5.02	996139	prompt	n/a	performing overnight linking unit\n
498.6925	0.105	997385	keystroke_p	p	n/a
498.753	0.0745	997506	keystroke_e	e	n/a
498.9175	0.075	997835	keystroke_r	r	n/a
499.383	0.09	998766	keystroke_f	f	n/a
499.4735	0.074	998947	keystroke_o	o	n/a
499.5625	0.09	999125	keystroke_r	r	n/a
499.683	0.1495	999366	keystroke_m	m	n/a
499.953	0.12	999906	keystroke_i	i	n/a
500.043	0.135	1000086	keystroke_n	n	n/a
500.148	0.12	1000296	keystroke_g	g	n/a
500.253	0.12	1000506	keystroke_Key.space	Key.space	n/a
500.448	0.074	1000896	keystroke_o	o	n/a
500.568	0.045	1001136	keystroke_v	v	n/a
500.718	0.075	1001436	keystroke_e	e	n/a
500.868	0.0905	1001736	keystroke_r	r	n/a
500.988	0.09	1001976	keystroke_n	n	n/a
501.063	0.12	1002126	keystroke_i	i	n/a
501.153	0.09	1002306	keystroke_g	g	n/a
501.258	0.105	1002516	keystroke_h	h	n/a
501.378	0.105	1002756	keystroke_t	t	n/a
501.498	0.135	1002996	keystroke_Key.space	Key.space	n/a
501.633	0.09	1003266	keystroke_l	l	n/a
501.753	0.105	1003506	keystroke_i	i	n/a
501.933	0.12	1003866	keystroke_n	n	n/a
502.068	0.09	1004136	keystroke_k	k	n/a
502.218	0.105	1004436	keystroke_i	i	n/a
502.278	0.135	1004556	keystroke_n	n	n/a
502.353	0.135	1004706	keystroke_g	g	n/a
502.458	0.135	1004916	keystroke_Key.space	Key.space	n/a
502.563	0.09	1005126	keystroke_u	u	n/a
502.7125	0.121	1005425	keystroke_n	n	n/a
502.7725	0.1055	1005545	keystroke_i	i	n/a
502.8475	0.075	1005695	keystroke_t	t	n/a
502.9525	0.135	1005905	keystroke_Key.enter	Key.enter	n/a
503.094	8.516	1006188	prompt	n/a	kent velvet switches roberts\n
503.928	0.1195	1007856	keystroke_k	k	n/a
504.0175	0.091	1008035	keystroke_e	e	n/a
504.1375	0.105	1008275	keystroke_n	n	n/a
504.228	0.1195	1008456	keystroke_t	t	n/a
504.3625	0.12	1008725	keystroke_Key.space	Key.space	n/a
504.5425	0.075	1009085	keystroke_v	v	n/a
504.7675	0.075	1009535	keystroke_e	e	n/a
504.8875	0.105	1009775	keystroke_l	l	n/a
505.907	0.061	1011814	keystroke_v	v	n/a
506.088	0.075	1012176	keystroke_e	e	n/a
506.327	0.12	1012654	keystroke_Key.space	Key.space	n/a
507.033	0.089	1014066	keystroke_Key.backspace	Key.backspace	n/a
507.063	0.12	1014126	keystroke_t	t	n/a
507.167	0.1205	1014334	keystroke_Key.space	Key.space	n/a
507.708	0.045	1015416	keystroke_s	s	n/a
507.858	0.0755	1015716	keystroke_w	w	n/a
508.6075	0.105	1017215	keystroke_i	i	n/a
508.6675	0.105	1017335	keystroke_t	t	n/a
508.8925	0.12	1017785	keystroke_c	c	n/a
509.0135	0.089	1018027	keystroke_h	h	n/a
509.1325	0.15	1018265	keystroke_e	e	n/a
509.283	0.1345	1018566	keystroke_s	s	n/a
509.373	0.135	1018746	keystroke_Key.space	Key.space	n/a
510.0325	0.2255	1020065	keystroke_r	r	n/a
510.2425	0.0305	1020485	keystroke_o	o	n/a
510.348	0.1195	1020696	keystroke_b	b	n/a
510.4825	0.0755	1020965	keystroke_e	e	n/a
510.633	0.1045	1021266	keystroke_r	r	n/a
510.7975	0.1055	1021595	keystroke_t	t	n/a
510.947	0.136	1021894	keystroke_s	s	n/a
511.4425	0.165	1022885	keystroke_Key.enter	Key.enter	n/a
511.6145	8.515	1023229	prompt	n/a	loops litigation basement springfield\n
512.358	0.09	1024716	keystroke_l	l	n/a
512.523	0.03	1025046	keystroke_o	o	n/a
512.628	0.075	1025256	keystroke_o	o	n/a
512.748	0.105	1025496	keystroke_p	p	n/a
512.868	0.135	1025736	keystroke_s	s	n/a
512.958	0.12	1025916	keystroke_Key.space	Key.space	n/a
513.933	0.1045	1027866	keystroke_l	l	n/a
514.1425	0.075	1028285	keystroke_i	i	n/a
514.308	0.1045	1028616	keystroke_t	t	n/a
514.428	0.0745	1028856	keystroke_i	i	n/a
514.5475	0.1205	1029095	keystroke_g	g	n/a
514.9825	0.12	1029965	keystroke_a	a	n/a
515.0875	0.105	1030175	keystroke_t	t	n/a
515.1775	0.09	1030355	keystroke_i	i	n/a
515.3575	0.09	1030715	keystroke_o	o	n/a
515.5085	0.134	1031017	keystroke_n	n	n/a
515.658	0.12	1031316	keystroke_Key.space	Key.space	n/a
516.1375	0.09	1032275	keystroke_b	b	n/a
516.258	0.149	1032516	keystroke_a	a	n/a
516.378	0.15	1032756	keystroke_s	s	n/a
516.453	0.135	1032906	keystroke_e	e	n/a
516.738	0.09	1033476	keystroke_m	m	n/a
516.813	0.09	1033626	keystroke_e	e	n/a
516.948	0.15	1033896	keystroke_n	n	n/a
517.083	0.12	1034166	keystroke_t	t	n/a
517.1875	0.1505	1034375	keystroke_Key.space	Key.space	n/a
517.892	0.15	1035784	keystroke_s	s	n/a
518.253	0.105	1036506	keystroke_p	p	n/a
518.372	0.121	1036744	keystroke_r	r	n/a
518.477	0.076	1036954	keystroke_i	i	n/a
518.658	0.104	1037316	keystroke_n	n	n/a
518.747	0.12	1037494	keystroke_g	g	n/a
519.033	0.1045	1038066	keystroke_f	f	n/a
519.168	0.1195	1038336	keystroke_i	i	n/a
519.348	0.0895	1038696	keystroke_e	e	n/a
519.453	0.1045	1038906	keystroke_l	l	n/a
519.5725	0.09	1039145	keystroke_d	d	n/a
519.9925	0.1355	1039985	keystroke_Key.enter	Key.enter	n/a
520.133	4.841	1040266	prompt	n/a	boys entire logical graphs\n
520.7285	0.074	1041457	keystroke_b	b	n/a
520.8475	0.09	1041695	keystroke_o	o	n/a
520.923	0.0745	1041846	keystroke_y	y	n/a
521.118	0.135	1042236	keystroke_s	s	n/a
521.192	0.12	1042384	keystroke_Key.space	Key.space	n/a
521.342	0.105	1042684	keystroke_e	e	n/a
521.433	0.134	1042866	keystroke_n	n	n/a
521.5375	0.1195	1043075	keystroke_t	t	n/a
521.6725	0.0745	1043345	keystroke_i	i	n/a
521.7625	0.0455	1043525	keystroke_r	r	n/a
521.9125	0.1045	1043825	keystroke_e	e	n/a
521.972	0.136	1043944	keystroke_Key.space	Key.space	n/a
522.167	0.091	1044334	keystroke_l	l	n/a
522.347	0.0905	1044694	keystroke_o	o	n/a
522.408	0.0745	1044816	keystroke_g	g	n/a
522.842	0.09	1045684	keystroke_i	i	n/a
522.978	0.119	1045956	keystroke_c	c	n/a
523.128	0.105	1046256	keystroke_a	a	n/a
523.2175	0.09	1046435	keystroke_l	l	n/a
523.3525	0.1055	1046705	keystroke_Key.space	Key.space	n/a
523.758	0.06	1047516	keystroke_g	g	n/a
523.922	0.061	1047844	keystroke_r	r	n/a
524.267	0.075	1048534	keystroke_a	a	n/a
524.447	0.076	1048894	keystroke_p	p	n/a
524.628	0.075	1049256	keystroke_h	h	n/a
524.718	0.075	1049436	keystroke_s	s	n/a
524.853	0.12	1049706	keystroke_Key.enter	Key.enter	n/a
524.979	6.745	1049958	prompt	n/a	summer tire hearing bone\n
525.6785	0.119	1051357	keystroke_s	s	n/a
525.753	0.105	1051506	keystroke_u	u	n/a
525.9625	0.0605	1051925	keystroke_m	m	n/a
526.0375	0.135	1052075	keystroke_m	m	n/a
526.308	0.075	1052616	keystroke_m	m	n/a
526.4125	0.105	1052825	keystroke_e	e	n/a
526.9375	0.045	1053875	keystroke_Key.backspace	Key.backspace	n/a
527.0425	0.0905	1054085	keystroke_Key.backspace	Key.backspace	n/a
527.8675	0.09	1055735	keystroke_e	e	n/a
528.0475	0.12	1056095	keystroke_r	r	n/a
528.1375	0.165	1056275	keystroke_Key.space	Key.space	n/a
528.3035	0.104	1056607	keystroke_t	t	n/a
528.4225	0.0755	1056845	keystroke_i	i	n/a
528.498	0.0895	1056996	keystroke_r	r	n/a
528.6625	0.1205	1057325	keystroke_e	e	n/a
528.7375	0.1205	1057475	keystroke_Key.space	Key.space	n/a
528.9175	0.1055	1057835	keystroke_h	h	n/a
529.0675	0.105	1058135	keystroke_e	e	n/a
529.203	0.15	1058406	keystroke_a	a	n/a
529.308	0.1345	1058616	keystroke_r	r	n/a
529.398	0.135	1058796	keystroke_i	i	n/a
529.458	0.165	1058916	keystroke_n	n	n/a
529.548	0.1195	1059096	keystroke_g	g	n/a
529.6375	0.1355	1059275	keystroke_Key.space	Key.space	n/a
529.9375	0.105	1059875	keystroke_o	o	n/a
530.088	0.12	1060176	keystroke_n	n	n/a
530.2375	0.1205	1060475	keystroke_e	e	n/a
530.6275	0.0305	1061255	keystroke_Key.backspace	Key.backspace	n/a
530.7175	0.06	1061435	keystroke_Key.backspace	Key.backspace	n/a
530.8225	0.0605	1061645	keystroke_Key.backspace	Key.backspace	n/a
531.0625	0.06	1062125	keystroke_b	b	n/a
531.2125	0.0605	1062425	keystroke_o	o	n/a
531.3625	0.075	1062725	keystroke_n	n	n/a
531.4525	0.1055	1062905	keystroke_e	e	n/a
531.572	0.151	1063144	keystroke_Key.enter	Key.enter	n/a
531.728	7.4215	1063456	prompt	n/a	salem cents ryan agreed\n
532.487	0.136	1064974	keystroke_s	s	n/a
532.833	0.134	1065666	keystroke_a	a	n/a
533.013	0.075	1066026	keystroke_l	l	n/a
533.073	0.105	1066146	keystroke_e	e	n/a
533.223	0.12	1066446	keystroke_m	m	n/a
533.373	0.105	1066746	keystroke_Key.space	Key.space	n/a
533.567	0.061	1067134	keystroke_c	c	n/a
533.733	0.06	1067466	keystroke_e	e	n/a
533.8975	0.1055	1067795	keystroke_n	n	n/a
534.0475	0.0755	1068095	keystroke_t	t	n/a
534.228	0.105	1068456	keystroke_s	s	n/a
534.303	0.135	1068606	keystroke_Key.space	Key.space	n/a
536.3275	0.016	1072655	keystroke_r	r	n/a
536.5975	0.015	1073195	keystroke_y	y	n/a
537.048	0.119	1074096	keystroke_a	a	n/a
537.122	0.106	1074244	keystroke_n	n	n/a
537.272	0.15	1074544	keystroke_Key.space	Key.space	n/a
537.438	0.12	1074876	keystroke_g	g	n/a
537.813	0.12	1075626	keystroke_Key.backspace	Key.backspace	n/a
537.873	0.09	1075746	keystroke_a	a	n/a
538.023	0.09	1076046	keystroke_g	g	n/a
538.218	0.06	1076436	keystroke_r	r	n/a
538.4125	0.09	1076825	keystroke_e	e	n/a
538.5625	0.075	1077125	keystroke_e	e	n/a
538.7425	0.1055	1077485	keystroke_d	d	n/a
538.983	0.165	1077966	keystroke_Key.enter	Key.enter	n/a
539.1535	10.571	1078307	prompt	n/a	exercise bristol careful frequently\n
539.942	0.0905	1079884	keystroke_e	e	n/a
540.153	0.135	1080306	keystroke_x	x	n/a
540.453	0.105	1080906	keystroke_e	e	n/a
540.647	0.106	1081294	keystroke_r	r	n/a
541.4725	0.1355	1082945	keystroke_c	c	n/a
541.698	0.105	1083396	keystroke_i	i	n/a
541.8175	0.105	1083635	keystroke_s	s	n/a
542.1175	0.1355	1084235	keystroke_e	e	n/a
542.2675	0.15	1084535	keystroke_Key.space	Key.space	n/a
542.6875	0.1355	1085375	keystroke_b	b	n/a
542.8375	0.105	1085675	keystroke_r	r	n/a
543.033	0.1195	1086066	keystroke_i	i	n/a
544.367	0.1655	1088734	keystroke_s	s	n/a
544.5175	0.0905	1089035	keystroke_t	t	n/a
544.623	0.089	1089246	keystroke_o	o	n/a
544.818	0.1045	1089636	keystroke_l	l	n/a
544.9375	0.1205	1089875	keystroke_Key.space	Key.space	n/a
545.103	0.1495	1090206	keystroke_c	c	n/a
545.3425	0.15	1090685	keystroke_a	a	n/a
545.433	0.0595	1090866	keystroke_r	r	n/a
545.5675	0.0605	1091135	keystroke_e	e	n/a
545.748	0.105	1091496	keystroke_f	f	n/a
545.8375	0.0905	1091675	keystroke_u	u	n/a
546.0475	0.091	1092095	keystroke_l	l	n/a
546.1385	0.1195	1092277	keystroke_Key.space	Key.space	n/a
546.3625	0.0605	1092725	keystroke_f	f	n/a
546.558	0.06	1093116	keystroke_r	r	n/a
546.573	0.03	1093146	keystroke_f	f	n/a
547.067	0.061	1094134	keystroke_Key.backspace	Key.backspace	n/a
547.3075	0.135	1094615	keystroke_e	e	n/a
547.5325	0.135	1095065	keystroke_q	q	n/a
547.6685	0.119	1095337	keystroke_u	u	n/a
547.818	0.12	1095636	keystroke_e	e	n/a
547.953	0.135	1095906	keystroke_n	n	n/a
548.073	0.135	1096146	keystroke_t	t	n/a
548.2225	0.1195	1096445	keystroke_l	l	n/a
548.388	0.105	1096776	keystroke_y	y	n/a
549.5725	0.1505	1099145	keystroke_Key.enter	Key.enter	n/a
549.7315	4.4925	1099463	prompt	n/a	rights move conf sleeps\n
550.3385	0.1195	1100677	keystroke_r	r	n/a
550.473	0.0595	1100946	keystroke_i	i	n/a
550.9375	0.075	1101875	keystroke_g	g	n/a
550.9975	0.105	1101995	keystroke_h	h	n/a
551.118	0.0895	1102236	keystroke_t	t	n/a
551.298	0.1505	1102596	keystroke_s	s	n/a
551.403	0.1495	1102806	keystroke_Key.space	Key.space	n/a
551.5975	0.135	1103195	keystroke_m	m	n/a
551.673	0.1195	1103346	keystroke_o	o	n/a
551.748	0.0745	1103496	keystroke_v	v	n/a
551.943	0.1195	1103886	keystroke_e	e	n/a
552.048	0.135	1104096	keystroke_Key.space	Key.space	n/a
552.3175	0.135	1104635	keystroke_c	c	n/a
552.4375	0.075	1104875	keystroke_o	o	n/a
552.5575	0.135	1105115	keystroke_n	n	n/a
552.6625	0.151	1105325	keystroke_f	f	n/a
552.798	0.1195	1105596	keystroke_Key.space	Key.space	n/a
553.143	0.135	1106286	keystroke_s	s	n/a
553.263	0.12	1106526	keystroke_l	l	n/a
553.428	0.09	1106856	keystroke_e	e	n/a
553.593	0.09	1107186	keystroke_e	e	n/a
553.668	0.105	1107336	keystroke_p	p	n/a
553.788	0.075	1107576	keystroke_s	s	n/a
554.088	0.135	1108176	keystroke_Key.enter	Key.enter	n/a
554.228	14.562	1108456	prompt	n/a	bowl base distinction excitement\n
554.943	0.09	1109886	keystroke_b	b	n/a
555.123	0.105	1110246	keystroke_o	o	n/a
555.213	0.12	1110426	keystroke_w	w	n/a
555.363	0.09	1110726	keystroke_l	l	n/a
555.498	0.09	1110996	keystroke_Key.space	Key.space	n/a
555.603	0.075	1111206	keystroke_b	b	n/a
555.738	0.1345	1111476	keystroke_a	a	n/a
555.798	0.165	1111596	keystroke_s	s	n/a
555.903	0.09	1111806	keystroke_e	e	n/a
556.142	0.075	1112284	keystroke_Key.space	Key.space	n/a
556.517	0.1055	1113034	keystroke_d	d	n/a
556.668	0.074	1113336	keystroke_i	i	n/a
556.773	0.09	1113546	keystroke_s	s	n/a
557.433	0.104	1114866	keystroke_t	t	n/a
557.5525	0.0895	1115105	keystroke_i	i	n/a
