onset	duration	sample	value	key	prompt_text
6.71	14.8495	13420	prompt	n/a	the quick brown fox jumps over a lazy dog\n
9.6335	0.013	19267	keystroke_t	t	n/a
9.6605	0.075	19321	keystroke_h	h	n/a
9.7505	0.06	19501	keystroke_e	e	n/a
9.8555	0.12	19711	keystroke_Key.space	Key.space	n/a
10.6055	0.091	21211	keystroke_q	q	n/a
10.7105	0.12	21421	keystroke_u	u	n/a
10.8005	0.075	21601	keystroke_i	i	n/a
10.9355	0.06	21871	keystroke_c	c	n/a
11.0255	0.075	22051	keystroke_k	k	n/a
11.1905	0.105	22381	keystroke_Key.space	Key.space	n/a
11.5355	0.09	23071	keystroke_b	b	n/a
11.6415	0.059	23283	keystroke_r	r	n/a
11.7455	0.075	23491	keystroke_o	o	n/a
11.8665	0.075	23733	keystroke_w	w	n/a
12.0015	0.03	24003	keystroke_n	n	n/a
12.3465	0.105	24693	keystroke_Key.space	Key.space	n/a
12.9615	0.075	25923	keystroke_f	f	n/a
13.0815	0.061	26163	keystroke_o	o	n/a
13.2015	0.06	26403	keystroke_x	x	n/a
13.3965	0.105	26793	keystroke_Key.space	Key.space	n/a
13.5465	0.09	27093	keystroke_j	j	n/a
13.7115	0.06	27423	keystroke_u	u	n/a
13.9065	0.075	27813	keystroke_m	m	n/a
13.9825	0.104	27965	keystroke_p	p	n/a
14.1465	0.075	28293	keystroke_s	s	n/a
14.2365	0.12	28473	keystroke_Key.space	Key.space	n/a
14.4015	0.075	28803	keystroke_o	o	n/a
14.5215	0.06	29043	keystroke_v	v	n/a
14.6865	0.09	29373	keystroke_e	e	n/a
14.7915	0.105	29583	keystroke_Key.space	Key.space	n/a
14.8065	0.061	29613	keystroke_r	r	n/a
14.9725	0.075	29945	keystroke_t	t	n/a
14.9725	0.089	29945	keystroke_h	h	n/a
15.1365	0.105	30273	keystroke_Key.space	Key.space	n/a
15.1515	0.016	30303	keystroke_e	e	n/a
15.3015	0.091	30603	keystroke_l	l	n/a
15.4215	0.09	30843	keystroke_a	a	n/a
15.7365	0.075	31473	keystroke_z	z	n/a
16.0665	0.03	32133	keystroke_Key.backspace	Key.backspace	n/a
16.2015	0.06	32403	keystroke_Key.backspace	Key.backspace	n/a
16.3665	0.06	32733	keystroke_Key.backspace	Key.backspace	n/a
16.5315	0.045	33063	keystroke_Key.backspace	Key.backspace	n/a
16.6965	0.046	33393	keystroke_Key.backspace	Key.backspace	n/a
16.9215	0.06	33843	keystroke_Key.backspace	Key.backspace	n/a
17.4925	0.075	34985	keystroke_Key.backspace	Key.backspace	n/a
17.6715	0.06	35343	keystroke_Key.backspace	Key.backspace	n/a
17.9565	0.06	35913	keystroke_Key.backspace	Key.backspace	n/a
18.2575	0.044	36515	keystroke_r	r	n/a
18.7815	0.12	37563	keystroke_Key.space	Key.space	n/a
18.9315	0.061	37863	keystroke_t	t	n/a
18.9925	0.075	37985	keystroke_h	h	n/a
19.1125	0.03	38225	keystroke_e	e	n/a
19.3815	0.12	38763	keystroke_Key.space	Key.space	n/a
19.7875	0.059	39575	keystroke_l	l	n/a
19.8625	0.089	39725	keystroke_a	a	n/a
20.1465	0.135	40293	keystroke_z	z	n/a
20.2675	0.045	40535	keystroke_y	y	n/a
20.4615	0.106	40923	keystroke_Key.space	Key.space	n/a
20.6715	0.061	41343	keystroke_d	d	n/a
20.7615	0.06	41523	keystroke_o	o	n/a
20.8815	0.031	41763	keystroke_g	g	n/a
21.5115	0.045	43023	keystroke_Key.enter	Key.enter	n/a
21.564	6.55	43128	prompt	n/a	exclude terrible keeping arctic\n
22.5015	0.061	45003	keystroke_e	e	n/a
22.8175	0.089	45635	keystroke_x	x	n/a
22.9975	0.074	45995	keystroke_c	c	n/a
23.0875	0.09	46175	keystroke_l	l	n/a
23.3125	0.045	46625	keystroke_u	u	n/a
23.3875	0.06	46775	keystroke_d	d	n/a
23.5825	0.03	47165	keystroke_e	e	n/a
23.6575	0.12	47315	keystroke_Key.space	Key.space	n/a
23.8225	0.075	47645	keystroke_t	t	n/a
23.9875	0.06	47975	keystroke_e	e	n/a
24.1515	0.061	48303	keystroke_r	r	n/a
24.3025	0.06	48605	keystroke_r	r	n/a
24.3925	0.075	48785	keystroke_i	i	n/a
24.5575	0.045	49115	keystroke_b	b	n/a
24.7225	0.059	49445	keystroke_l	l	n/a
24.7975	0.06	49595	keystroke_e	e	n/a
24.8715	0.106	49743	keystroke_Key.space	Key.space	n/a
24.9925	0.105	49985	keystroke_k	k	n/a
25.1125	0.045	50225	keystroke_e	e	n/a
25.2775	0.045	50555	keystroke_e	e	n/a
25.7725	0.075	51545	keystroke_p	p	n/a
25.9525	0.06	51905	keystroke_i	i	n/a
26.1175	0.06	52235	keystroke_n	n	n/a
26.1625	0.075	52325	keystroke_g	g	n/a
26.2375	0.105	52475	keystroke_Key.space	Key.space	n/a
26.4175	0.135	52835	keystroke_a	a	n/a
26.5825	0.075	53165	keystroke_r	r	n/a
26.8525	0.06	53705	keystroke_c	c	n/a
27.2575	0.075	54515	keystroke_t	t	n/a
27.3475	0.075	54695	keystroke_i	i	n/a
27.5125	0.06	55025	keystroke_c	c	n/a
28.0525	0.06	56105	keystroke_Key.enter	Key.enter	n/a
28.117	6.762	56234	prompt	n/a	nightlife temp documented katrina\n
29.2075	0.09	58415	keystroke_n	n	n/a
29.3575	0.075	58715	keystroke_i	i	n/a
29.4025	0.06	58805	keystroke_g	g	n/a
29.5075	0.075	59015	keystroke_h	h	n/a
29.5975	0.045	59195	keystroke_t	t	n/a
29.7925	0.09	59585	keystroke_l	l	n/a
29.9425	0.06	59885	keystroke_i	i	n/a
30.0175	0.045	60035	keystroke_f	f	n/a
30.1525	0.045	60305	keystroke_e	e	n/a
30.8275	0.12	61655	keystroke_Key.space	Key.space	n/a
31.0525	0.06	62105	keystroke_t	t	n/a
31.2175	0.06	62435	keystroke_e	e	n/a
31.2925	0.105	62585	keystroke_m	m	n/a
31.4425	0.06	62885	keystroke_p	p	n/a
31.8175	0.075	63635	keystroke_Key.space	Key.space	n/a
31.9975	0.075	63995	keystroke_d	d	n/a
32.1175	0.06	64235	keystroke_o	o	n/a
32.1925	0.06	64385	keystroke_c	c	n/a
32.3125	0.045	64625	keystroke_u	u	n/a
32.5225	0.06	65045	keystroke_m	m	n/a
32.6125	0.045	65225	keystroke_e	e	n/a
32.7325	0.015	65465	keystroke_n	n	n/a
32.8225	0.06	65645	keystroke_t	t	n/a
33.0175	0.045	66035	keystroke_e	e	n/a
33.1825	0.06	66365	keystroke_d	d	n/a
33.3925	0.105	66785	keystroke_Key.space	Key.space	n/a
33.5425	0.06	67085	keystroke_k	k	n/a
33.6475	0.135	67295	keystroke_a	a	n/a
33.7975	0.06	67595	keystroke_t	t	n/a
34.1275	0.06	68255	keystroke_r	r	n/a
34.2475	0.06	68495	keystroke_i	i	n/a
34.4125	0.045	68825	keystroke_n	n	n/a
34.4725	0.105	68945	keystroke_a	a	n/a
34.8475	0.03	69695	keystroke_Key.enter	Key.enter	n/a
34.882	15.1315	69764	prompt	n/a	indicates considerations structures jefferson\n
35.5225	0.105	71045	keystroke_l	l	n/a
35.7025	0.075	71405	keystroke_i	i	n/a
35.8825	0.06	71765	keystroke_n	n	n/a
35.9725	0.075	71945	keystroke_d	d	n/a
36.1075	0.06	72215	keystroke_i	i	n/a
36.2125	0.12	72425	keystroke_c	c	n/a
36.4375	0.105	72875	keystroke_a	a	n/a
36.5725	0.075	73145	keystroke_t	t	n/a
37.4725	0.09	74945	keystroke_Key.backspace	Key.backspace	n/a
37.6375	0.075	75275	keystroke_Key.backspace	Key.backspace	n/a
37.8175	0.06	75635	keystroke_Key.backspace	Key.backspace	n/a
37.9825	0.045	75965	keystroke_Key.backspace	Key.backspace	n/a
38.1325	0.06	76265	keystroke_Key.backspace	Key.backspace	n/a
38.2975	0.09	76595	keystroke_Key.backspace	Key.backspace	n/a
38.4625	0.075	76925	keystroke_Key.backspace	Key.backspace	n/a
38.6425	0.06	77285	keystroke_Key.backspace	Key.backspace	n/a
39.0325	0.09	78065	keystroke_i	i	n/a
39.2425	0.06	78485	keystroke_n	n	n/a
39.6925	0.075	79385	keystroke_d	d	n/a
39.8125	0.06	79625	keystroke_i	i	n/a
39.9175	0.105	79835	keystroke_c	c	n/a
40.1275	0.105	80255	keystroke_a	a	n/a
40.2625	0.075	80525	keystroke_t	t	n/a
40.4425	0.045	80885	keystroke_e	e	n/a
40.6225	0.045	81245	keystroke_s	s	n/a
40.8775	0.12	81755	keystroke_Key.space	Key.space	n/a
41.0575	0.045	82115	keystroke_o	o	n/a
41.4025	0.06	82805	keystroke_Key.backspace	Key.backspace	n/a
41.4925	0.075	82985	keystroke_c	c	n/a
41.6125	0.06	83225	keystroke_o	o	n/a
41.7915	0.06	83583	keystroke_n	n	n/a
41.8665	0.075	83733	keystroke_s	s	n/a
41.9715	0.045	83943	keystroke_i	i	n/a
42.0765	0.06	84153	keystroke_d	d	n/a
42.2715	0.105	84543	keystroke_e	e	n/a
42.3615	0.075	84723	keystroke_r	r	n/a
42.5415	0.135	85083	keystroke_a	a	n/a
42.6465	0.09	85293	keystroke_t	t	n/a
42.7665	0.09	85533	keystroke_i	i	n/a
42.8415	0.075	85683	keystroke_o	o	n/a
42.9765	0.075	85953	keystroke_n	n	n/a
43.0965	0.075	86193	keystroke_s	s	n/a
43.1865	0.12	86373	keystroke_Key.space	Key.space	n/a
43.6965	0.075	87393	keystroke_s	s	n/a
43.8615	0.06	87723	keystroke_t	t	n/a
43.9815	0.075	87963	keystroke_r	r	n/a
44.1165	0.06	88233	keystroke_u	u	n/a
44.2215	0.06	88443	keystroke_c	c	n/a
44.4765	0.06	88953	keystroke_t	t	n/a
44.5065	0.075	89013	keystroke_i	i	n/a
45.0765	0.075	90153	keystroke_Key.backspace	Key.backspace	n/a
45.3315	0.075	90663	keystroke_u	u	n/a
45.8865	0.06	91773	keystroke_r	r	n/a
46.0365	0.06	92073	keystroke_e	e	n/a
46.2315	0.06	92463	keystroke_s	s	n/a
46.5315	0.09	93063	keystroke_Key.space	Key.space	n/a
47.0565	0.06	94113	keystroke_j	j	n/a
47.1765	0.045	94353	keystroke_e	e	n/a
47.3265	0.045	94653	keystroke_e	e	n/a
47.6715	0.09	95343	keystroke_Key.backspace	Key.backspace	n/a
47.8065	0.09	95613	keystroke_f	f	n/a
47.9715	0.075	95943	keystroke_f	f	n/a
48.1665	0.105	96333	keystroke_e	e	n/a
48.2715	0.075	96543	keystroke_r	r	n/a
49.3815	0.06	98763	keystroke_s	s	n/a
49.4865	0.06	98973	keystroke_o	o	n/a
49.6365	0.06	99273	keystroke_n	n	n/a
49.9515	0.06	99903	keystroke_Key.enter	Key.enter	n/a
50.017	12.2675	100034	prompt	n/a	filme mardi wordpress fascinating\n
50.8815	0.075	101763	keystroke_f	f	n/a
51.8265	0.09	103653	keystroke_i	i	n/a
52.0065	0.09	104013	keystroke_l	l	n/a
52.2165	0.06	104433	keystroke_m	m	n/a
52.3365	0.045	104673	keystroke_e	e	n/a
52.7265	0.12	105453	keystroke_Key.space	Key.space	n/a
52.8915	0.075	105783	keystroke_m	m	n/a
53.0265	0.06	106053	keystroke_a	a	n/a
53.4765	0.06	106953	keystroke_r	r	n/a
53.9565	0.09	107913	keystroke_d	d	n/a
54.0915	0.06	108183	keystroke_i	i	n/a
54.8265	0.12	109653	keystroke_Key.space	Key.space	n/a
55.4565	0.06	110913	keystroke_q	q	n/a
55.9215	0.075	111843	keystroke_o	o	n/a
55.9665	0.06	111933	keystroke_r	r	n/a
56.6715	0.06	113343	keystroke_Key.backspace	Key.backspace	n/a
56.8365	0.06	113673	keystroke_Key.backspace	Key.backspace	n/a
56.9865	0.06	113973	keystroke_Key.backspace	Key.backspace	n/a
57.7215	0.075	115443	keystroke_w	w	n/a
57.8565	0.06	115713	keystroke_o	o	n/a
57.9765	0.045	115953	keystroke_r	r	n/a
58.4415	0.045	116883	keystroke_d	d	n/a
58.6815	0.075	117363	keystroke_p	p	n/a
58.8915	0.075	117783	keystroke_r	r	n/a
59.0115	0.09	118023	keystroke_e	e	n/a
59.2065	0.06	118413	keystroke_s	s	n/a
59.3415	0.075	118683	keystroke_s	s	n/a
59.5815	0.135	119163	keystroke_Key.space	Key.space	n/a
59.8215	0.09	119643	keystroke_f	f	n/a
59.9415	0.09	119883	keystroke_a	a	n/a
60.1065	0.09	120213	keystroke_s	s	n/a
60.7065	0.09	121413	keystroke_c	c	n/a
60.8565	0.06	121713	keystroke_i	i	n/a
61.0215	0.06	122043	keystroke_n	n	n/a
61.1265	0.09	122253	keystroke_a	a	n/a
61.2765	0.09	122553	keystroke_t	t	n/a
61.3815	0.09	122763	keystroke_i	i	n/a
61.5315	0.075	123063	keystroke_n	n	n/a
61.6365	0.06	123273	keystroke_g	g	n/a
62.2065	0.075	124413	keystroke_Key.enter	Key.enter	n/a
62.288	14.7105	124576	prompt	n/a	commissioners dogs fancy procedure\n
63.0765	0.045	126153	keystroke_c	c	n/a
63.1665	0.06	126333	keystroke_o	o	n/a
63.3315	0.045	126663	keystroke_m	m	n/a
63.4665	0.105	126933	keystroke_m	m	n/a
63.6915	0.06	127383	keystroke_i	i	n/a
64.1265	0.06	128253	keystroke_s	s	n/a
65.5375	0.059	131075	keystroke_s	s	n/a
65.6415	0.15	131283	keystroke_i	i	n/a
65.7165	0.121	131433	keystroke_o	o	n/a
65.9115	0.06	131823	keystroke_n	n	n/a
66.032	0.15	132064	keystroke_e	e	n/a
66.167	0.075	132334	keystroke_r	r	n/a
66.392	0.045	132784	keystroke_s	s	n/a
66.587	0.12	133174	keystroke_Key.space	Key.space	n/a
66.767	0.09	133534	keystroke_d	d	n/a
66.872	0.06	133744	keystroke_o	o	n/a
66.947	0.075	133894	keystroke_g	g	n/a
67.127	0.06	134254	keystroke_s	s	n/a
68.957	0.12	137914	keystroke_Key.space	Key.space	n/a
69.062	0.09	138124	keystroke_f	f	n/a
69.167	0.105	138334	keystroke_a	a	n/a
69.302	0.045	138604	keystroke_n	n	n/a
69.887	0.075	139774	keystroke_c	c	n/a
69.977	0.09	139954	keystroke_y	y	n/a
70.397	0.12	140794	keystroke_Key.space	Key.space	n/a
70.562	0.075	141124	keystroke_p	p	n/a
70.667	0.075	141334	keystroke_r	r	n/a
70.787	0.045	141574	keystroke_o	o	n/a
71.462	0.06	142924	keystroke_c	c	n/a
71.732	0.06	143464	keystroke_d	d	n/a
71.942	0.045	143884	keystroke_e	e	n/a
73.862	0.09	147724	keystroke_Key.backspace	Key.backspace	n/a
74.042	0.06	148084	keystroke_Key.backspace	Key.backspace	n/a
74.372	0.06	148744	keystroke_Key.backspace	Key.backspace	n/a
75.047	0.075	150094	keystroke_c	c	n/a
75.347	0.06	150694	keystroke_e	e	n/a
75.557	0.045	151114	keystroke_d	d	n/a
75.737	0.045	151474	keystroke_u	u	n/a
75.872	0.06	151744	keystroke_r	r	n/a
75.992	0.045	151984	keystroke_e	e	n/a
76.952	0.045	153904	keystroke_Key.enter	Key.enter	n/a
77.005	12.3385	154010	prompt	n/a	volume jewish wright compression\n
77.987	0.06	155974	keystroke_v	v	n/a
78.152	0.075	156304	keystroke_o	o	n/a
78.392	0.045	156784	keystroke_l	l	n/a
78.542	0.075	157084	keystroke_u	u	n/a
78.752	0.06	157504	keystroke_m	m	n/a
78.857	0.045	157714	keystroke_e	e	n/a
79.457	0.105	158914	keystroke_Key.space	Key.space	n/a
79.607	0.075	159214	keystroke_j	j	n/a
79.727	0.06	159454	keystroke_e	e	n/a
79.937	0.06	159874	keystroke_w	w	n/a
80.042	0.075	160084	keystroke_i	i	n/a
80.162	0.075	160324	keystroke_s	s	n/a
80.282	0.045	160564	keystroke_h	h	n/a
80.462	0.12	160924	keystroke_Key.space	Key.space	n/a
80.702	0.075	161404	keystroke_w	w	n/a
80.897	0.045	161794	keystroke_r	r	n/a
81.632	0.045	163264	keystroke_i	i	n/a
81.797	0.06	163594	keystroke_t	t	n/a
82.172	0.075	164344	keystroke_g	g	n/a
82.277	0.075	164554	keystroke_h	h	n/a
82.382	0.06	164764	keystroke_t	t	n/a
82.517	0.105	165034	keystroke_Key.space	Key.space	n/a
82.682	0.06	165364	keystroke_c	c	n/a
82.727	0.09	165454	keystroke_o	o	n/a
82.877	0.15	165754	keystroke_m	m	n/a
82.967	0.105	165934	keystroke_p	p	n/a
83.177	0.06	166354	keystroke_r	r	n/a
83.642	0.075	167284	keystroke_Key.backspace	Key.backspace	n/a
83.807	0.06	167614	keystroke_Key.backspace	Key.backspace	n/a
83.972	0.06	167944	keystroke_Key.backspace	Key.backspace	n/a
84.137	0.06	168274	keystroke_Key.backspace	Key.backspace	n/a
84.317	0.06	168634	keystroke_Key.backspace	Key.backspace	n/a
84.497	0.06	168994	keystroke_Key.backspace	Key.backspace	n/a
84.677	0.045	169354	keystroke_Key.backspace	Key.backspace	n/a
84.872	0.06	169744	keystroke_Key.backspace	Key.backspace	n/a
85.037	0.06	170074	keystroke_Key.backspace	Key.backspace	n/a
85.232	0.045	170464	keystroke_Key.backspace	Key.backspace	n/a
86.462	0.06	172924	keystroke_g	g	n/a
86.552	0.075	173104	keystroke_h	h	n/a
86.687	0.03	173374	keystroke_t	t	n/a
87.077	0.12	174154	keystroke_Key.space	Key.space	n/a
87.377	0.075	174754	keystroke_c	c	n/a
87.437	0.045	174874	keystroke_o	o	n/a
87.557	0.105	175114	keystroke_m	m	n/a
87.647	0.09	175294	keystroke_p	p	n/a
87.752	0.06	175504	keystroke_r	r	n/a
87.887	0.075	175774	keystroke_e	e	n/a
88.112	0.045	176224	keystroke_s	s	n/a
88.247	0.075	176494	keystroke_s	s	n/a
88.382	0.12	176764	keystroke_i	i	n/a
88.442	0.12	176884	keystroke_o	o	n/a
88.652	0.075	177304	keystroke_n	n	n/a
89.297	0.045	178594	keystroke_Key.enter	Key.enter	n/a
89.3465	8.8625	178693	prompt	n/a	blessed outcomes restaurant titled\n
90.3015	0.06	180603	keystroke_b	b	n/a
90.4515	0.0905	180903	keystroke_l	l	n/a
90.5565	0.075	181113	keystroke_e	e	n/a
90.872	0.0595	181744	keystroke_s	s	n/a
91.0215	0.0905	182043	keystroke_s	s	n/a
91.2165	0.06	182433	keystroke_e	e	n/a
91.3965	0.06	182793	keystroke_d	d	n/a
91.5015	0.12	183003	keystroke_Key.space	Key.space	n/a
91.6965	0.09	183393	keystroke_o	o	n/a
91.877	0.075	183754	keystroke_u	u	n/a
91.9365	0.06	183873	keystroke_t	t	n/a
92.2215	0.075	184443	keystroke_c	c	n/a
92.2815	0.075	184563	keystroke_o	o	n/a
92.4165	0.09	184833	keystroke_m	m	n/a
92.552	0.075	185104	keystroke_e	e	n/a
92.747	0.075	185494	keystroke_s	s	n/a
93.002	0.12	186004	keystroke_Key.space	Key.space	n/a
93.2265	0.06	186453	keystroke_r	r	n/a
93.3765	0.03	186753	keystroke_e	e	n/a
94.3965	0.12	188793	keystroke_s	s	n/a
94.6515	0.06	189303	keystroke_t	t	n/a
95.6265	0.06	191253	keystroke_a	a	n/a
95.8365	0.06	191673	keystroke_u	u	n/a
95.9865	0.06	191973	keystroke_r	r	n/a
96.1665	0.09	192333	keystroke_a	a	n/a
96.3165	0.06	192633	keystroke_n	n	n/a
96.4825	0.059	192965	keystroke_t	t	n/a
96.7065	0.12	193413	keystroke_Key.space	Key.space	n/a
96.9915	0.06	193983	keystroke_t	t	n/a
97.0665	0.045	194133	keystroke_i	i	n/a
97.1715	0.045	194343	keystroke_t	t	n/a
97.3815	0.06	194763	keystroke_l	l	n/a
97.4865	0.045	194973	keystroke_e	e	n/a
97.6665	0.06	195333	keystroke_d	d	n/a
98.1465	0.06	196293	keystroke_Key.enter	Key.enter	n/a
98.2115	8.412	196423	prompt	n/a	guarantee pages share prefer\n
99.0615	0.06	198123	keystroke_g	g	n/a
99.3165	0.06	198633	keystroke_u	u	n/a
99.4365	0.06	198873	keystroke_r	r	n/a
99.5715	0.105	199143	keystroke_a	a	n/a
100.7565	0.09	201513	keystroke_Key.backspace	Key.backspace	n/a
100.9065	0.075	201813	keystroke_Key.backspace	Key.backspace	n/a
101.0715	0.061	202143	keystroke_a	a	n/a
101.4315	0.06	202863	keystroke_r	r	n/a
101.7015	0.09	203403	keystroke_a	a	n/a
101.8075	0.075	203615	keystroke_n	n	n/a
102.0015	0.075	204003	keystroke_t	t	n/a
102.2265	0.045	204453	keystroke_e	e	n/a
102.3615	0.06	204723	keystroke_e	e	n/a
102.5865	0.09	205173	keystroke_Key.space	Key.space	n/a
102.7365	0.075	205473	keystroke_p	p	n/a
102.8265	0.12	205653	keystroke_a	a	n/a
102.9765	0.06	205953	keystroke_g	g	n/a
103.1115	0.06	206223	keystroke_e	e	n/a
103.2915	0.045	206583	keystroke_s	s	n/a
103.5015	0.075	207003	keystroke_Key.space	Key.space	n/a
103.6825	0.089	207365	keystroke_s	s	n/a
103.7865	0.046	207573	keystroke_h	h	n/a
103.9825	0.029	207965	keystroke_r	r	n/a
104.3865	0.075	208773	keystroke_Key.backspace	Key.backspace	n/a
104.4465	0.12	208893	keystroke_a	a	n/a
104.5515	0.075	209103	keystroke_r	r	n/a
104.6575	0.059	209315	keystroke_e	e	n/a
105.0615	0.09	210123	keystroke_Key.space	Key.space	n/a
105.1965	0.061	210393	keystroke_p	p	n/a
105.3465	0.06	210693	keystroke_r	r	n/a
105.4665	0.091	210933	keystroke_e	e	n/a
105.6615	0.075	211323	keystroke_f	f	n/a
105.8265	0.12	211653	keystroke_e	e	n/a
105.9165	0.091	211833	keystroke_r	r	n/a
106.5765	0.045	213153	keystroke_Key.enter	Key.enter	n/a
106.6265	8.367	213253	prompt	n/a	desperate willing prescribed headphones\n
107.3575	0.075	214715	keystroke_d	d	n/a
107.5215	0.061	215043	keystroke_e	e	n/a
107.6715	0.075	215343	keystroke_s	s	n/a
107.7765	0.075	215553	keystroke_p	p	n/a
107.9575	0.119	215915	keystroke_e	e	n/a
108.0915	0.061	216183	keystroke_r	r	n/a
108.2575	0.105	216515	keystroke_a	a	n/a
108.3765	0.076	216753	keystroke_t	t	n/a
108.5715	0.045	217143	keystroke_e	e	n/a
108.7665	0.091	217533	keystroke_Key.space	Key.space	n/a
109.0665	0.076	218133	keystroke_w	w	n/a
109.1715	0.061	218343	keystroke_i	i	n/a
109.3365	0.06	218673	keystroke_l	l	n/a
109.4575	0.104	218915	keystroke_l	l	n/a
109.6665	0.06	219333	keystroke_i	i	n/a
109.8165	0.075	219633	keystroke_n	n	n/a
109.9075	0.075	219815	keystroke_g	g	n/a
109.9515	0.106	219903	keystroke_Key.space	Key.space	n/a
110.0875	0.059	220175	keystroke_p	p	n/a
110.1615	0.046	220323	keystroke_r	r	n/a
110.2825	0.06	220565	keystroke_e	e	n/a
110.4615	0.075	220923	keystroke_s	s	n/a
110.7025	0.119	221405	keystroke_c	c	n/a
110.9425	0.059	221885	keystroke_r	r	n/a
111.0325	0.059	222065	keystroke_i	i	n/a
111.2115	0.06	222423	keystroke_b	b	n/a
111.4215	0.016	222843	keystroke_e	e	n/a
111.6025	0.06	223205	keystroke_d	d	n/a
111.8265	0.09	223653	keystroke_Key.space	Key.space	n/a
112.0515	0.075	224103	keystroke_h	h	n/a
112.4865	0.075	224973	keystroke_e	e	n/a
112.6665	0.091	225333	keystroke_a	a	n/a
112.8615	0.046	225723	keystroke_d	d	n/a
113.1165	0.091	226233	keystroke_p	p	n/a
113.3115	0.135	226623	keystroke_h	h	n/a
113.4015	0.106	226803	keystroke_o	o	n/a
114.0625	0.089	228125	keystroke_n	n	n/a
114.1365	0.075	228273	keystroke_e	e	n/a
114.3165	0.076	228633	keystroke_s	s	n/a
114.9165	0.075	229833	keystroke_Key.enter	Key.enter	n/a
114.9965	12.657	229993	prompt	n/a	cameroon chocolate greensboro immunology\n
115.7575	0.075	231515	keystroke_c	c	n/a
116.5525	0.075	233105	keystroke_a	a	n/a
116.6575	0.09	233315	keystroke_m	m	n/a
117.0165	0.136	234033	keystroke_e	e	n/a
117.1225	0.09	234245	keystroke_r	r	n/a
117.9325	0.059	235865	keystroke_o	o	n/a
118.0665	0.091	236133	keystroke_o	o	n/a
118.2465	0.061	236493	keystroke_n	n	n/a
118.4575	0.105	236915	keystroke_Key.space	Key.space	n/a
118.7575	0.09	237515	keystroke_c	c	n/a
118.8625	0.105	237725	keystroke_h	h	n/a
118.9225	0.09	237845	keystroke_o	o	n/a
119.7475	0.06	239495	keystroke_c	c	n/a
119.8525	0.06	239705	keystroke_o	o	n/a
120.1665	0.061	240333	keystroke_l	l	n/a
120.3175	0.105	240635	keystroke_a	a	n/a
120.4675	0.06	240935	keystroke_t	t	n/a
120.6625	0.03	241325	keystroke_e	e	n/a
121.0825	0.104	242165	keystroke_Key.space	Key.space	n/a
121.2475	0.075	242495	keystroke_g	g	n/a
121.3675	0.09	242735	keystroke_r	r	n/a
121.7875	0.075	243575	keystroke_e	e	n/a
121.9375	0.075	243875	keystroke_e	e	n/a
122.1025	0.045	244205	keystroke_n	n	n/a
122.1925	0.075	244385	keystroke_s	s	n/a
123.3775	0.045	246755	keystroke_b	b	n/a
123.5425	0.09	247085	keystroke_o	o	n/a
123.7375	0.045	247475	keystroke_r	r	n/a
123.8125	0.075	247625	keystroke_o	o	n/a
124.8925	0.12	249785	keystroke_Key.space	Key.space	n/a
125.0425	0.06	250085	keystroke_i	i	n/a
125.2225	0.045	250445	keystroke_m	m	n/a
125.3725	0.045	250745	keystroke_m	m	n/a
125.6875	0.06	251375	keystroke_u	u	n/a
126.4675	0.105	252935	keystroke_n	n	n/a
126.5875	0.075	253175	keystroke_o	o	n/a
126.7975	0.06	253595	keystroke_l	l	n/a
126.9765	0.06	253953	keystroke_o	o	n/a
127.0825	0.059	254165	keystroke_g	g	n/a
127.2165	0.06	254433	keystroke_y	y	n/a
127.6215	0.03	255243	keystroke_Key.enter	Key.enter	n/a
127.6565	12.537	255313	prompt	n/a	assistant malpractice policies mary\n
128.3875	0.059	256775	keystroke_a	a	n/a
128.5515	0.045	257103	keystroke_s	s	n/a
128.7025	0.059	257405	keystroke_s	s	n/a
128.8525	0.06	257705	keystroke_i	i	n/a
130.1575	0.075	260315	keystroke_s	s	n/a
130.3965	0.061	260793	keystroke_t	t	n/a
130.5175	0.104	261035	keystroke_a	a	n/a
130.6365	0.075	261273	keystroke_n	n	n/a
130.7425	0.06	261485	keystroke_t	t	n/a
131.2365	0.136	262473	keystroke_Key.space	Key.space	n/a
131.4025	0.134	262805	keystroke_m	m	n/a
131.8965	0.061	263793	keystroke_a	a	n/a
131.9715	0.076	263943	keystroke_l	l	n/a
133.0525	0.06	266105	keystroke_p	p	n/a
133.1575	0.075	266315	keystroke_r	r	n/a
133.2775	0.09	266555	keystroke_a	a	n/a
133.5025	0.12	267005	keystroke_c	c	n/a
133.8025	0.06	267605	keystroke_t	t	n/a
133.8775	0.06	267755	keystroke_i	i	n/a
134.1925	0.075	268385	keystroke_c	c	n/a
134.4175	0.045	268835	keystroke_e	e	n/a
135.0625	0.12	270125	keystroke_Key.space	Key.space	n/a
135.2875	0.045	270575	keystroke_o	o	n/a
135.7975	0.075	271595	keystroke_Key.backspace	Key.backspace	n/a
136.4125	0.075	272825	keystroke_p	p	n/a
136.5925	0.06	273185	keystroke_o	o	n/a
136.7875	0.075	273575	keystroke_l	l	n/a
136.9975	0.03	273995	keystroke_i	i	n/a
138.4075	0.09	276815	keystroke_c	c	n/a
138.5575	0.075	277115	keystroke_i	i	n/a
138.7975	0.06	277595	keystroke_e	e	n/a
138.9625	0.06	277925	keystroke_s	s	n/a
139.1725	0.09	278345	keystroke_Key.space	Key.space	n/a
139.3225	0.09	278645	keystroke_m	m	n/a
139.4275	0.075	278855	keystroke_a	a	n/a
139.6075	0.06	279215	keystroke_r	r	n/a
139.7125	0.075	279425	keystroke_y	y	n/a
140.1625	0.03	280325	keystroke_Key.enter	Key.enter	n/a
140.197	12.867	280394	prompt	n/a	in acdbentity worse circus\n
140.9425	0.06	281885	keystroke_i	i	n/a
141.0925	0.06	282185	keystroke_n	n	n/a
141.6175	0.09	283235	keystroke_Key.space	Key.space	n/a
142.0675	0.075	284135	keystroke_a	a	n/a
142.6225	0.06	285245	keystroke_c	c	n/a
143.4775	0.09	286955	keystroke_d	d	n/a
145.1725	0.075	290345	keystroke_b	b	n/a
145.2925	0.075	290585	keystroke_e	e	n/a
145.4125	0.12	290825	keystroke_n	n	n/a
145.9525	0.06	291905	keystroke_t	t	n/a
146.0725	0.06	292145	keystroke_i	i	n/a
146.1475	0.075	292295	keystroke_t	t	n/a
146.3275	0.06	292655	keystroke_y	y	n/a
147.0475	0.105	294095	keystroke_Key.space	Key.space	n/a
148.8025	0.09	297605	keystroke_w	w	n/a
149.4625	0.06	298925	keystroke_o	o	n/a
149.6125	0.09	299225	keystroke_r	r	n/a
149.8375	0.06	299675	keystroke_s	s	n/a
150.0175	0.03	300035	keystroke_e	e	n/a
150.2125	0.105	300425	keystroke_Key.space	Key.space	n/a
150.3325	0.105	300665	keystroke_c	c	n/a
150.4525	0.045	300905	keystroke_i	i	n/a
150.6625	0.075	301325	keystroke_t	t	n/a
150.9475	0.06	301895	keystroke_c	c	n/a
151.3975	0.075	302795	keystroke_Key.backspace	Key.backspace	n/a
151.5475	0.075	303095	keystroke_Key.backspace	Key.backspace	n/a
152.327	0.09	304654	keystroke_r	r	n/a
152.582	0.045	305164	keystroke_c	c	n/a
152.657	0.075	305314	keystroke_u	u	n/a
152.7625	0.0595	305525	keystroke_s	s	n/a
153.002	0.0605	306004	keystroke_Key.enter	Key.enter	n/a
153.067	9.326	306134	prompt	n/a	restore party things cancer\n
153.992	0.06	307984	keystroke_r	r	n/a
154.082	0.075	308164	keystroke_e	e	n/a
154.247	0.105	308494	keystroke_s	s	n/a
154.472	0.06	308944	keystroke_t	t	n/a
154.577	0.09	309154	keystroke_o	o	n/a
154.652	0.06	309304	keystroke_r	r	n/a
154.757	0.075	309514	keystroke_e	e	n/a
155.177	0.09	310354	keystroke_Key.space	Key.space	n/a
155.402	0.06	310804	keystroke_p	p	n/a
155.537	0.09	311074	keystroke_a	a	n/a
155.957	0.06	311914	keystroke_r	r	n/a
156.182	0.06	312364	keystroke_t	t	n/a
156.302	0.06	312604	keystroke_y	y	n/a
157.382	0.075	314764	keystroke_t	t	n/a
157.457	0.06	314914	keystroke_h	h	n/a
157.502	0.075	315004	keystroke_i	i	n/a
157.667	0.075	315334	keystroke_n	n	n/a
157.757	0.03	315514	keystroke_g	g	n/a
157.982	0.06	315964	keystroke_Key.backspace	Key.backspace	n/a
158.1325	0.0595	316265	keystroke_Key.backspace	Key.backspace	n/a
158.267	0.09	316534	keystroke_Key.backspace	Key.backspace	n/a
158.432	0.09	316864	keystroke_Key.backspace	Key.backspace	n/a
158.957	0.075	317914	keystroke_Key.backspace	Key.backspace	n/a
159.287	0.105	318574	keystroke_Key.space	Key.space	n/a
159.557	0.09	319114	keystroke_t	t	n/a
159.632	0.105	319264	keystroke_h	h	n/a
159.707	0.09	319414	keystroke_i	i	n/a
159.872	0.06	319744	keystroke_n	n	n/a
159.947	0.045	319894	keystroke_g	g	n/a
160.112	0.045	320224	keystroke_s	s	n/a
160.6065	0.105	321213	keystroke_Key.space	Key.space	n/a
160.8165	0.09	321633	keystroke_c	c	n/a
160.9815	0.075	321963	keystroke_a	a	n/a
161.0715	0.06	322143	keystroke_n	n	n/a
161.1765	0.09	322353	keystroke_c	c	n/a
161.3865	0.12	322773	keystroke_e	e	n/a
161.8665	0.045	323733	keystroke_r	r	n/a
162.3165	0.075	324633	keystroke_Key.enter	Key.enter	n/a
162.396	6.507	324792	prompt	n/a	reason accounts achieved sale\n
163.2315	0.03	326463	keystroke_r	r	n/a
163.6665	0.06	327333	keystroke_e	e	n/a
163.8015	0.105	327603	keystroke_a	a	n/a
164.0115	0.06	328023	keystroke_s	s	n/a
164.0865	0.075	328173	keystroke_o	o	n/a
164.6715	0.075	329343	keystroke_n	n	n/a
164.8515	0.12	329703	keystroke_Key.space	Key.space	n/a
165.0315	0.09	330063	keystroke_a	a	n/a
165.2565	0.045	330513	keystroke_c	c	n/a
165.4065	0.045	330813	keystroke_c	c	n/a
165.4665	0.09	330933	keystroke_o	o	n/a
165.6165	0.075	331233	keystroke_u	u	n/a
165.7965	0.06	331593	keystroke_n	n	n/a
165.8715	0.06	331743	keystroke_t	t	n/a
166.0815	0.075	332163	keystroke_s	s	n/a
166.1415	0.12	332283	keystroke_Key.space	Key.space	n/a
166.2915	0.09	332583	keystroke_a	a	n/a
166.4865	0.06	332973	keystroke_c	c	n/a
166.5765	0.09	333153	keystroke_h	h	n/a
167.1315	0.06	334263	keystroke_i	i	n/a
167.2215	0.09	334443	keystroke_e	e	n/a
167.4465	0.075	334893	keystroke_v	v	n/a
167.6415	0.06	335283	keystroke_e	e	n/a
167.8215	0.075	335643	keystroke_d	d	n/a
167.9265	0.105	335853	keystroke_Key.space	Key.space	n/a
168.1515	0.075	336303	keystroke_s	s	n/a
168.3315	0.075	336663	keystroke_a	a	n/a
168.4215	0.09	336843	keystroke_l	l	n/a
168.5265	0.045	337053	keystroke_e	e	n/a
168.8565	0.045	337713	keystroke_Key.enter	Key.enter	n/a
168.906	12.3425	337812	prompt	n/a	stadium jennifer modelling documented\n
170.2065	0.09	340413	keystroke_s	s	n/a
170.5365	0.06	341073	keystroke_t	t	n/a
170.6565	0.105	341313	keystroke_a	a	n/a
171.4965	0.075	342993	keystroke_d	d	n/a
171.7365	0.075	343473	keystroke_i	i	n/a
172.6965	0.06	345393	keystroke_u	u	n/a
172.8915	0.09	345783	keystroke_m	m	n/a
173.0715	0.105	346143	keystroke_Key.space	Key.space	n/a
173.2815	0.09	346563	keystroke_j	j	n/a
173.5215	0.045	347043	keystroke_e	e	n/a
173.6565	0.06	347313	keystroke_n	n	n/a
173.8065	0.075	347613	keystroke_n	n	n/a
174.6165	0.075	349233	keystroke_i	i	n/a
174.7365	0.075	349473	keystroke_f	f	n/a
174.9165	0.105	349833	keystroke_e	e	n/a
175.0065	0.075	350013	keystroke_r	r	n/a
175.1115	0.105	350223	keystroke_Key.space	Key.space	n/a
175.2615	0.135	350523	keystroke_m	m	n/a
175.4115	0.06	350823	keystroke_o	o	n/a
175.4865	0.075	350973	keystroke_d	d	n/a
176.8065	0.06	353613	keystroke_e	e	n/a
176.9115	0.06	353823	keystroke_l	l	n/a
177.0615	0.075	354123	keystroke_l	l	n/a
177.2115	0.075	354423	keystroke_i	i	n/a
177.377	0.075	354754	keystroke_n	n	n/a
177.466	0.09	354932	keystroke_g	g	n/a
177.541	0.106	355082	keystroke_Key.space	Key.space	n/a
178.906	0.076	357812	keystroke_d	d	n/a
179.702	0.06	359404	keystroke_o	o	n/a
179.777	0.075	359554	keystroke_c	c	n/a
179.911	0.061	359822	keystroke_u	u	n/a
180.107	0.075	360214	keystroke_m	m	n/a
180.212	0.06	360424	keystroke_e	e	n/a
180.317	0.044	360634	keystroke_n	n	n/a
180.467	0.09	360934	keystroke_t	t	n/a
180.647	0.06	361294	keystroke_e	e	n/a
180.842	0.045	361684	keystroke_d	d	n/a
181.156	0.091	362312	keystroke_Key.enter	Key.enter	n/a
181.253	8.231	362506	prompt	n/a	represents ryan alike down\n
182.207	0.045	364414	keystroke_r	r	n/a
182.687	0.06	365374	keystroke_e	e	n/a
182.837	0.06	365674	keystroke_p	p	n/a
182.987	0.044	365974	keystroke_r	r	n/a
183.092	0.074	366184	keystroke_e	e	n/a
183.272	0.075	366544	keystroke_s	s	n/a
183.451	0.061	366902	keystroke_e	e	n/a
183.616	0.061	367232	keystroke_n	n	n/a
183.797	0.09	367594	keystroke_t	t	n/a
184.217	0.06	368434	keystroke_s	s	n/a
184.486	0.12	368972	keystroke_Key.space	Key.space	n/a
185.252	0.075	370504	keystroke_r	r	n/a
185.402	0.06	370804	keystroke_u	u	n/a
185.492	0.105	370984	keystroke_a	a	n/a
186.061	0.046	372122	keystroke_n	n	n/a
186.556	0.045	373112	keystroke_Key.backspace	Key.backspace	n/a
186.707	0.059	373414	keystroke_Key.backspace	Key.backspace	n/a
186.857	0.075	373714	keystroke_Key.backspace	Key.backspace	n/a
187.487	0.06	374974	keystroke_y	y	n/a
187.592	0.105	375184	keystroke_a	a	n/a
187.712	0.045	375424	keystroke_n	n	n/a
187.862	0.089	375724	keystroke_Key.space	Key.space	n/a
188.012	0.105	376024	keystroke_a	a	n/a
188.102	0.09	376204	keystroke_l	l	n/a
188.282	0.045	376564	keystroke_i	i	n/a
188.432	0.075	376864	keystroke_k	k	n/a
188.522	0.06	377044	keystroke_e	e	n/a
188.612	0.12	377224	keystroke_Key.space	Key.space	n/a
188.837	0.06	377674	keystroke_d	d	n/a
188.927	0.09	377854	keystroke_o	o	n/a
189.047	0.06	378094	keystroke_w	w	n/a
189.122	0.06	378244	keystroke_n	n	n/a
189.422	0.06	378844	keystroke_Key.enter	Key.enter	n/a
189.487	5.6215	378974	prompt	n/a	hints tale highland nevada\n
190.157	0.105	380314	keystroke_h	h	n/a
190.247	0.075	380494	keystroke_i	i	n/a
190.397	0.06	380794	keystroke_n	n	n/a
190.442	0.09	380884	keystroke_t	t	n/a
190.682	0.09	381364	keystroke_s	s	n/a
190.787	0.09	381574	keystroke_Key.space	Key.space	n/a
190.952	0.075	381904	keystroke_t	t	n/a
191.237	0.09	382474	keystroke_a	a	n/a
191.342	0.06	382684	keystroke_l	l	n/a
191.447	0.06	382894	keystroke_e	e	n/a
191.567	0.09	383134	keystroke_Key.space	Key.space	n/a
191.762	0.12	383524	keystroke_h	h	n/a
191.852	0.105	383704	keystroke_i	i	n/a
192.002	0.045	384004	keystroke_g	g	n/a
192.062	0.045	384124	keystroke_h	h	n/a
192.452	0.105	384904	keystroke_l	l	n/a
192.647	0.09	385294	keystroke_a	a	n/a
192.752	0.06	385504	keystroke_n	n	n/a
192.842	0.075	385684	keystroke_d	d	n/a
193.007	0.105	386014	keystroke_Key.space	Key.space	n/a
193.322	0.06	386644	keystroke_n	n	n/a
193.397	0.06	386794	keystroke_e	e	n/a
193.667	0.06	387334	keystroke_v	v	n/a
193.862	0.09	387724	keystroke_a	a	n/a
194.117	0.09	388234	keystroke_d	d	n/a
194.327	0.045	388654	keystroke_e	e	n/a
194.687	0.09	389374	keystroke_Key.backspace	Key.backspace	n/a
194.852	0.06	389704	keystroke_a	a	n/a
195.062	0.045	390124	keystroke_Key.enter	Key.enter	n/a
195.111	8.9375	390222	prompt	n/a	accomplished nevertheless dispatch alumni\n
195.887	0.075	391774	keystroke_a	a	n/a
196.157	0.075	392314	keystroke_c	c	n/a
196.352	0.045	392704	keystroke_c	c	n/a
196.502	0.075	393004	keystroke_o	o	n/a
196.667	0.135	393334	keystroke_m	m	n/a
196.757	0.075	393514	keystroke_p	p	n/a
196.967	0.075	393934	keystroke_l	l	n/a
197.147	0.06	394294	keystroke_i	i	n/a
197.222	0.075	394444	keystroke_s	s	n/a
197.342	0.06	394684	keystroke_h	h	n/a
197.462	0.06	394924	keystroke_e	e	n/a
197.672	0.045	395344	keystroke_d	d	n/a
197.747	0.12	395494	keystroke_Key.space	Key.space	n/a
198.017	0.045	396034	keystroke_n	n	n/a
198.077	0.06	396154	keystroke_e	e	n/a
198.287	0.06	396574	keystroke_v	v	n/a
198.467	0.135	396934	keystroke_e	e	n/a
198.587	0.075	397174	keystroke_r	r	n/a
198.827	0.075	397654	keystroke_t	t	n/a
198.917	0.06	397834	keystroke_h	h	n/a
198.992	0.075	397984	keystroke_e	e	n/a
199.217	0.06	398434	keystroke_l	l	n/a
199.322	0.075	398644	keystroke_e	e	n/a
199.517	0.075	399034	keystroke_s	s	n/a
199.667	0.075	399334	keystroke_s	s	n/a
200.072	0.105	400144	keystroke_Key.space	Key.space	n/a
200.327	0.075	400654	keystroke_d	d	n/a
200.432	0.075	400864	keystroke_i	i	n/a
200.522	0.06	401044	keystroke_s	s	n/a
200.657	0.06	401314	keystroke_p	p	n/a
200.837	0.075	401674	keystroke_a	a	n/a
201.752	0.06	403504	keystroke_t	t	n/a
202.022	0.09	404044	keystroke_c	c	n/a
202.127	0.075	404254	keystroke_h	h	n/a
202.382	0.105	404764	keystroke_Key.space	Key.space	n/a
202.577	0.09	405154	keystroke_a	a	n/a
202.637	0.12	405274	keystroke_l	l	n/a
202.922	0.06	405844	keystroke_u	u	n/a
203.117	0.09	406234	keystroke_m	m	n/a
203.342	0.03	406684	keystroke_n	n	n/a
203.507	0.06	407014	keystroke_i	i	n/a
203.987	0.06	407974	keystroke_Key.enter	Key.enter	n/a
204.052	8.4115	408104	prompt	n/a	asylum blogs investors attorney\n
204.737	0.075	409474	keystroke_a	a	n/a
204.917	0.06	409834	keystroke_s	s	n/a
205.997	0.09	411994	keystroke_y	y	n/a
206.237	0.09	412474	keystroke_l	l	n/a
206.417	0.045	412834	keystroke_u	u	n/a
206.642	0.075	413284	keystroke_m	m	n/a
206.837	0.075	413674	keystroke_Key.space	Key.space	n/a
207.077	0.03	414154	keystroke_b	b	n/a
207.227	0.075	414454	keystroke_l	l	n/a
207.422	0.06	414844	keystroke_o	o	n/a
207.512	0.06	415024	keystroke_g	g	n/a
207.947	0.06	415894	keystroke_s	s	n/a
208.232	0.09	416464	keystroke_Key.space	Key.space	n/a
208.382	0.075	416764	keystroke_i	i	n/a
208.532	0.06	417064	keystroke_n	n	n/a
208.607	0.06	417214	keystroke_v	v	n/a
208.787	0.06	417574	keystroke_e	e	n/a
208.952	0.09	417904	keystroke_s	s	n/a
209.132	0.075	418264	keystroke_t	t	n/a
209.267	0.045	418534	keystroke_o	o	n/a
209.342	0.045	418684	keystroke_r	r	n/a
210.077	0.12	420154	keystroke_Key.space	Key.space	n/a
210.272	0.105	420544	keystroke_a	a	n/a
210.482	0.06	420964	keystroke_t	t	n/a
210.632	0.06	421264	keystroke_t	t	n/a
210.782	0.075	421564	keystroke_o	o	n/a
210.917	0.045	421834	keystroke_r	r	n/a
211.202	0.045	422404	keystroke_n	n	n/a
211.892	0.075	423784	keystroke_e	e	n/a
211.982	0.075	423964	keystroke_y	y	n/a
212.417	0.045	424834	keystroke_Key.enter	Key.enter	n/a
212.466	6.403	424932	prompt	n/a	ricky asbestos divided brake\n
213.377	0.075	426754	keystroke_r	r	n/a
213.467	0.075	426934	keystroke_i	i	n/a
213.602	0.075	427204	keystroke_c	c	n/a
213.707	0.045	427414	keystroke_k	k	n/a
214.217	0.09	428434	keystroke_y	y	n/a
214.457	0.105	428914	keystroke_Key.space	Key.space	n/a
214.637	0.09	429274	keystroke_a	a	n/a
214.832	0.06	429664	keystroke_s	s	n/a
215.057	0.045	430114	keystroke_b	b	n/a
215.192	0.075	430384	keystroke_e	e	n/a
215.357	0.09	430714	keystroke_s	s	n/a
215.582	0.06	431164	keystroke_t	t	n/a
215.672	0.06	431344	keystroke_o	o	n/a
215.987	0.075	431974	keystroke_s	s	n/a
216.197	0.12	432394	keystroke_Key.space	Key.space	n/a
216.377	0.09	432754	keystroke_d	d	n/a
216.482	0.045	432964	keystroke_i	i	n/a
216.602	0.06	433204	keystroke_v	v	n/a
216.707	0.045	433414	keystroke_i	i	n/a
217.022	0.09	434044	keystroke_d	d	n/a
217.217	0.06	434434	keystroke_e	e	n/a
217.397	0.06	434794	keystroke_d	d	n/a
217.487	0.105	434974	keystroke_Key.space	Key.space	n/a
217.697	0.06	435394	keystroke_b	b	n/a
217.787	0.06	435574	keystroke_r	r	n/a
218.177	0.09	436354	keystroke_a	a	n/a
218.327	0.03	436654	keystroke_k	k	n/a
218.447	0.045	436894	keystroke_e	e	n/a
218.822	0.045	437644	keystroke_Key.enter	Key.enter	n/a
218.872	8.097	437744	prompt	n/a	brake richard almost daren't\n
219.632	0.075	439264	keystroke_b	b	n/a
219.752	0.06	439504	keystroke_r	r	n/a
220.067	0.09	440134	keystroke_a	a	n/a
220.187	0.075	440374	keystroke_k	k	n/a
220.292	0.03	440584	keystroke_e	e	n/a
220.442	0.105	440884	keystroke_Key.space	Key.space	n/a
220.727	0.06	441454	keystroke_b	b	n/a
221.057	0.06	442114	keystroke_Key.backspace	Key.backspace	n/a
221.162	0.075	442324	keystroke_r	r	n/a
221.312	0.045	442624	keystroke_i	i	n/a
221.432	0.09	442864	keystroke_c	c	n/a
221.552	0.03	443104	keystroke_h	h	n/a
221.732	0.12	443464	keystroke_a	a	n/a
221.882	0.045	443764	keystroke_r	r	n/a
222.137	0.06	444274	keystroke_d	d	n/a
222.602	0.12	445204	keystroke_Key.space	Key.space	n/a
222.767	0.105	445534	keystroke_a	a	n/a
222.857	0.105	445714	keystroke_l	l	n/a
223.037	0.105	446074	keystroke_m	m	n/a
223.157	0.075	446314	keystroke_o	o	n/a
223.727	0.045	447454	keystroke_s	s	n/a
224.027	0.06	448054	keystroke_t	t	n/a
224.222	0.12	448444	keystroke_Key.space	Key.space	n/a
224.402	0.075	448804	keystroke_d	d	n/a
224.552	0.12	449104	keystroke_a	a	n/a
224.822	0.045	449644	keystroke_r	r	n/a
225.017	0.03	450034	keystroke_e	e	n/a
225.782	0.06	451564	keystroke_n	n	n/a
226.397	0.09	452794	keystroke_'	'	n/a
226.637	0.03	453274	keystroke_t	t	n/a
226.907	0.06	453814	keystroke_Key.enter	Key.enter	n/a
226.972	15.4615	453944	prompt	n/a	acting toronto theoretical cartoons\n
227.9265	0.105	455853	keystroke_a	a	n/a
228.1515	0.075	456303	keystroke_c	c	n/a
228.4515	0.09	456903	keystroke_t	t	n/a
228.5565	0.045	457113	keystroke_i	i	n/a
228.6925	0.074	457385	keystroke_n	n	n/a
228.7815	0.045	457563	keystroke_g	g	n/a
228.8865	0.105	457773	keystroke_Key.space	Key.space	n/a
229.0665	0.045	458133	keystroke_t	t	n/a
229.1715	0.046	458343	keystroke_o	o	n/a
229.3515	0.015	458703	keystroke_r	r	n/a
230.6865	0.06	461373	keystroke_o	o	n/a
231.2715	0.075	462543	keystroke_n	n	n/a
231.4065	0.06	462813	keystroke_t	t	n/a
231.4965	0.06	462993	keystroke_o	o	n/a
231.7965	0.09	463593	keystroke_Key.space	Key.space	n/a
231.9315	0.045	463863	keystroke_t	t	n/a
232.1425	0.059	464285	keystroke_e	e	n/a
232.2465	0.075	464493	keystroke_h	h	n/a
232.5015	0.045	465003	keystroke_o	o	n/a
232.6665	0.015	465333	keystroke_r	r	n/a
233.7015	0.045	467403	keystroke_Key.backspace	Key.backspace	n/a
233.8665	0.045	467733	keystroke_Key.backspace	Key.backspace	n/a
234.0165	0.075	468033	keystroke_Key.backspace	Key.backspace	n/a
234.1815	0.075	468363	keystroke_Key.backspace	Key.backspace	n/a
234.4815	0.075	468963	keystroke_h	h	n/a
234.6315	0.06	469263	keystroke_e	e	n/a
234.7515	0.06	469503	keystroke_o	o	n/a
235.2465	0.06	470493	keystroke_t	t	n/a
237.2715	0.075	474543	keystroke_=	=	n/a
238.1115	0.075	476223	keystroke_Key.backspace	Key.backspace	n/a
238.3365	0.09	476673	keystroke_Key.backspace	Key.backspace	n/a
239.1465	0.06	478293	keystroke_r	r	n/a
239.2515	0.075	478503	keystroke_e	e	n/a
239.8965	0.091	479793	keystroke_t	t	n/a
240.0175	0.075	480035	keystroke_i	i	n/a
240.1515	0.105	480303	keystroke_c	c	n/a
240.3925	0.134	480785	keystroke_a	a	n/a
240.5115	0.09	481023	keystroke_l	l	n/a
240.617	0.1195	481234	keystroke_Key.space	Key.space	n/a
240.8875	0.105	481775	keystroke_c	c	n/a
241.0525	0.104	482105	keystroke_a	a	n/a
241.2315	0.075	482463	keystroke_r	r	n/a
241.5465	0.06	483093	keystroke_t	t	n/a
241.7125	0.044	483425	keystroke_o	o	n/a
241.8465	0.076	483693	keystroke_o	o	n/a
241.9965	0.06	483993	keystroke_n	n	n/a
242.0715	0.091	484143	keystroke_s	s	n/a
242.3715	0.06	484743	keystroke_Key.enter	Key.enter	n/a
242.436	12.2225	484872	prompt	n/a	expression harvard nail compressed\n
243.227	0.06	486454	keystroke_e	e	n/a
243.467	0.075	486934	keystroke_x	x	n/a
243.587	0.075	487174	keystroke_p	p	n/a
244.021	0.091	488042	keystroke_r	r	n/a
244.157	0.075	488314	keystroke_e	e	n/a
244.367	0.045	488734	keystroke_s	s	n/a
244.502	0.09	489004	keystroke_s	s	n/a
244.622	0.135	489244	keystroke_i	i	n/a
244.697	0.12	489394	keystroke_o	o	n/a
245.717	0.06	491434	keystroke_n	n	n/a
245.881	0.106	491762	keystroke_Key.space	Key.space	n/a
246.152	0.075	492304	keystroke_h	h	n/a
246.287	0.075	492574	keystroke_a	a	n/a
246.407	0.075	492814	keystroke_r	r	n/a
246.632	0.09	493264	keystroke_v	v	n/a
246.767	0.105	493534	keystroke_a	a	n/a
246.887	0.075	493774	keystroke_r	r	n/a
247.097	0.105	494194	keystroke_d	d	n/a
247.187	0.075	494374	keystroke_Key.space	Key.space	n/a
247.382	0.045	494764	keystroke_a	a	n/a
248.057	0.06	496114	keystroke_n	n	n/a
248.237	0.105	496474	keystroke_a	a	n/a
248.327	0.06	496654	keystroke_i	i	n/a
248.477	0.09	496954	keystroke_l	l	n/a
248.597	0.12	497194	keystroke_Key.space	Key.space	n/a
248.687	0.105	497374	keystroke_c	c	n/a
248.807	0.06	497614	keystroke_o	o	n/a
248.942	0.135	497884	keystroke_m	m	n/a
249.047	0.09	498094	keystroke_p	p	n/a
249.437	0.075	498874	keystroke_Key.backspace	Key.backspace	n/a
249.587	0.075	499174	keystroke_Key.backspace	Key.backspace	n/a
249.752	0.09	499504	keystroke_Key.backspace	Key.backspace	n/a
249.932	0.06	499864	keystroke_Key.backspace	Key.backspace	n/a
250.112	0.06	500224	keystroke_Key.backspace	Key.backspace	n/a
250.292	0.045	500584	keystroke_Key.backspace	Key.backspace	n/a
250.457	0.06	500914	keystroke_Key.backspace	Key.backspace	n/a
250.622	0.075	501244	keystroke_Key.backspace	Key.backspace	n/a
250.802	0.06	501604	keystroke_Key.backspace	Key.backspace	n/a
251.522	0.0455	503044	keystroke_Key.backspace	Key.backspace	n/a
251.822	0.06	503644	keystroke_n	n	n/a
252.212	0.09	504424	keystroke_a	a	n/a
252.317	0.06	504634	keystroke_i	i	n/a
252.602	0.045	505204	keystroke_l	l	n/a
252.857	0.06	505714	keystroke_Key.space	Key.space	n/a
253.052	0.075	506104	keystroke_c	c	n/a
253.142	0.06	506284	keystroke_o	o	n/a
253.262	0.12	506524	keystroke_m	m	n/a
253.322	0.09	506644	keystroke_p	p	n/a
253.427	0.09	506854	keystroke_r	r	n/a
253.577	0.06	507154	keystroke_e	e	n/a
253.772	0.06	507544	keystroke_s	s	n/a
253.907	0.09	507814	keystroke_s	s	n/a
254.057	0.075	508114	keystroke_e	e	n/a
254.252	0.06	508504	keystroke_d	d	n/a
254.597	0.06	509194	keystroke_Key.enter	Key.enter	n/a
254.6615	8.6225	509323	prompt	n/a	representing resorts copyright parliament\n
255.407	0.045	510814	keystroke_r	r	n/a
255.602	0.06	511204	keystroke_e	e	n/a
255.827	0.045	511654	keystroke_p	p	n/a
255.932	0.075	511864	keystroke_r	r	n/a
256.082	0.075	512164	keystroke_e	e	n/a
256.262	0.075	512524	keystroke_s	s	n/a
256.532	0.06	513064	keystroke_e	e	n/a
256.637	0.06	513274	keystroke_n	n	n/a
256.742	0.075	513484	keystroke_t	t	n/a
256.847	0.03	513694	keystroke_i	i	n/a
256.952	0.09	513904	keystroke_n	n	n/a
257.057	0.075	514114	keystroke_g	g	n/a
257.132	0.12	514264	keystroke_Key.space	Key.space	n/a
257.297	0.06	514594	keystroke_r	r	n/a
257.417	0.06	514834	keystroke_e	e	n/a
257.567	0.075	515134	keystroke_s	s	n/a
257.672	0.06	515344	keystroke_o	o	n/a
257.792	0.09	515584	keystroke_r	r	n/a
257.927	0.075	515854	keystroke_t	t	n/a
258.122	0.075	516244	keystroke_s	s	n/a
258.272	0.135	516544	keystroke_Key.space	Key.space	n/a
258.512	0.075	517024	keystroke_c	c	n/a
258.632	0.045	517264	keystroke_o	o	n/a
258.812	0.06	517624	keystroke_p	p	n/a
259.097	0.045	518194	keystroke_y	y	n/a
259.652	0.045	519304	keystroke_r	r	n/a
259.727	0.09	519454	keystroke_i	i	n/a
259.787	0.06	519574	keystroke_g	g	n/a
259.877	0.105	519754	keystroke_h	h	n/a
259.997	0.045	519994	keystroke_t	t	n/a
260.417	0.105	520834	keystroke_Key.space	Key.space	n/a
260.747	0.06	521494	keystroke_p	p	n/a
260.852	0.09	521704	keystroke_a	a	n/a
261.332	0.06	522664	keystroke_r	r	n/a
261.452	0.075	522904	keystroke_l	l	n/a
261.647	0.045	523294	keystroke_i	i	n/a
261.767	0.09	523534	keystroke_a	a	n/a
262.247	0.075	524494	keystroke_m	m	n/a
262.337	0.045	524674	keystroke_e	e	n/a
262.517	0.015	525034	keystroke_n	n	n/a
262.577	0.06	525154	keystroke_t	t	n/a
263.192	0.09	526384	keystroke_Key.enter	Key.enter	n/a
263.2865	14.4275	526573	prompt	n/a	likelihood alto complications bulgaria\n
263.912	0.075	527824	keystroke_l	l	n/a
264.062	0.075	528124	keystroke_i	i	n/a
264.227	0.06	528454	keystroke_e	e	n/a
264.347	0.075	528694	keystroke_k	k	n/a
264.812	0.075	529624	keystroke_l	l	n/a
264.962	0.075	529924	keystroke_i	i	n/a
265.337	0.09	530674	keystroke_h	h	n/a
265.442	0.075	530884	keystroke_o	o	n/a
265.607	0.075	531214	keystroke_o	o	n/a
265.727	0.06	531454	keystroke_d	d	n/a
266.072	0.105	532144	keystroke_Key.space	Key.space	n/a
266.297	0.09	532594	keystroke_a	a	n/a
266.372	0.075	532744	keystroke_l	l	n/a
267.527	0.075	535054	keystroke_Key.backspace	Key.backspace	n/a
267.737	0.06	535474	keystroke_Key.backspace	Key.backspace	n/a
267.917	0.06	535834	keystroke_Key.backspace	Key.backspace	n/a
268.112	0.06	536224	keystroke_Key.backspace	Key.backspace	n/a
268.277	0.06	536554	keystroke_Key.backspace	Key.backspace	n/a
268.442	0.06	536884	keystroke_Key.backspace	Key.backspace	n/a
268.622	0.06	537244	keystroke_Key.backspace	Key.backspace	n/a
268.802	0.045	537604	keystroke_Key.backspace	Key.backspace	n/a
268.967	0.06	537934	keystroke_Key.backspace	Key.backspace	n/a
269.132	0.075	538264	keystroke_Key.backspace	Key.backspace	n/a
269.462	0.075	538924	keystroke_Key.backspace	Key.backspace	n/a
269.762	0.075	539524	keystroke_k	k	n/a
269.897	0.045	539794	keystroke_e	e	n/a
270.557	0.06	541114	keystroke_l	l	n/a
270.722	0.06	541444	keystroke_i	i	n/a
270.992	0.12	541984	keystroke_h	h	n/a
271.097	0.06	542194	keystroke_o	o	n/a
271.232	0.09	542464	keystroke_o	o	n/a
271.412	0.045	542824	keystroke_d	d	n/a
271.817	0.09	543634	keystroke_Key.space	Key.space	n/a
272.192	0.09	544384	keystroke_a	a	n/a
272.267	0.075	544534	keystroke_l	l	n/a
272.462	0.06	544924	keystroke_t	t	n/a
272.537	0.06	545074	keystroke_o	o	n/a
272.837	0.105	545674	keystroke_Key.space	Key.space	n/a
273.167	0.06	546334	keystroke_c	c	n/a
273.227	0.06	546454	keystroke_o	o	n/a
273.377	0.12	546754	keystroke_m	m	n/a
273.422	0.09	546844	keystroke_p	p	n/a
273.617	0.06	547234	keystroke_l	l	n/a
273.737	0.075	547474	keystroke_i	i	n/a
273.827	0.105	547654	keystroke_c	c	n/a
274.067	0.12	548134	keystroke_a	a	n/a
274.232	0.09	548464	keystroke_t	t	n/a
274.292	0.12	548584	keystroke_i	i	n/a
274.367	0.09	548734	keystroke_o	o	n/a
274.502	0.075	549004	keystroke_n	n	n/a
274.592	0.06	549184	keystroke_s	s	n/a
275.537	0.075	551074	keystroke_Key.space	Key.space	n/a
275.717	0.06	551434	keystroke_b	b	n/a
275.957	0.06	551914	keystroke_u	u	n/a
276.152	0.045	552304	keystroke_l	l	n/a
276.257	0.075	552514	keystroke_g	g	n/a
276.482	0.075	552964	keystroke_a	a	n/a
276.662	0.045	553324	keystroke_r	r	n/a
276.977	0.045	553954	keystroke_i	i	n/a
277.052	0.075	554104	keystroke_a	a	n/a
277.682	0.03	555364	keystroke_Key.enter	Key.enter	n/a
277.7185	4.405	555437	prompt	n/a	town wire fund force\n
278.582	0.06	557164	keystroke_t	t	n/a
278.657	0.075	557314	keystroke_o	o	n/a
278.732	0.075	557464	keystroke_w	w	n/a
278.837	0.075	557674	keystroke_n	n	n/a
279.002	0.105	558004	keystroke_Key.space	Key.space	n/a
279.167	0.075	558334	keystroke_w	w	n/a
279.287	0.06	558574	keystroke_i	i	n/a
279.407	0.045	558814	keystroke_r	r	n/a
280.097	0.03	560194	keystroke_e	e	n/a
280.277	0.09	560554	keystroke_Key.space	Key.space	n/a
280.517	0.06	561034	keystroke_f	f	n/a
280.622	0.06	561244	keystroke_u	u	n/a
280.802	0.06	561604	keystroke_n	n	n/a
280.877	0.045	561754	keystroke_d	d	n/a
281.042	0.09	562084	keystroke_Key.space	Key.space	n/a
281.357	0.075	562714	keystroke_f	f	n/a
281.462	0.075	562924	keystroke_o	o	n/a
281.552	0.045	563104	keystroke_r	r	n/a
281.762	0.075	563524	keystroke_c	c	n/a
281.912	0.075	563824	keystroke_e	e	n/a
282.062	0.06	564124	keystroke_Key.enter	Key.enter	n/a
282.1265	8.592	564253	prompt	n/a	definitions immediate adopt situation\n
282.782	0.075	565564	keystroke_d	d	n/a
282.977	0.045	565954	keystroke_e	e	n/a
283.142	0.06	566284	keystroke_f	f	n/a
283.262	0.06	566524	keystroke_i	i	n/a
283.457	0.045	566914	keystroke_n	n	n/a
283.637	0.075	567274	keystroke_i	i	n/a
284.747	0.075	569494	keystroke_t	t	n/a
285.017	0.18	570034	keystroke_i	i	n/a
285.137	0.105	570274	keystroke_o	o	n/a
285.302	0.075	570604	keystroke_n	n	n/a
285.692	0.06	571384	keystroke_s	s	n/a
285.947	0.12	571894	keystroke_Key.space	Key.space	n/a
286.172	0.06	572344	keystroke_i	i	n/a
286.337	0.06	572674	keystroke_m	m	n/a
286.487	0.06	572974	keystroke_m	m	n/a
286.638	0.059	573276	keystroke_e	e	n/a
286.877	0.075	573754	keystroke_d	d	n/a
287.013	0.014	574026	keystroke_i	i	n/a
287.132	0.12	574264	keystroke_a	a	n/a
287.282	0.106	574564	keystroke_t	t	n/a
287.432	0.075	574864	keystroke_e	e	n/a
287.567	0.09	575134	keystroke_Key.space	Key.space	n/a
287.732	0.12	575464	keystroke_a	a	n/a
287.897	0.0595	575794	keystroke_d	d	n/a
288.032	0.1345	576064	keystroke_o	o	n/a
288.138	0.1035	576276	keystroke_p	p	n/a
288.3165	0.06	576633	keystroke_t	t	n/a
288.4365	0.09	576873	keystroke_Key.space	Key.space	n/a
288.7375	0.075	577475	keystroke_s	s	n/a
288.8265	0.061	577653	keystroke_i	i	n/a
288.9765	0.061	577953	keystroke_t	t	n/a
289.5465	0.06	579093	keystroke_u	u	n/a
289.6665	0.165	579333	keystroke_a	a	n/a
289.8465	0.06	579693	keystroke_t	t	n/a
289.8765	0.15	579753	keystroke_i	i	n/a
289.9665	0.09	579933	keystroke_o	o	n/a
290.1165	0.06	580233	keystroke_n	n	n/a
290.6565	0.06	581313	keystroke_Key.enter	Key.enter	n/a
290.721	10.2125	581442	prompt	n/a	mixed pioneer filtering liberal\n
291.3015	0.105	582603	keystroke_m	m	n/a
291.4365	0.09	582873	keystroke_i	i	n/a
291.5875	0.014	583175	keystroke_x	x	n/a
291.6465	0.105	583293	keystroke_x	x	n/a
292.2615	0.09	584523	keystroke_Key.backspace	Key.backspace	n/a
292.3665	0.046	584733	keystroke_e	e	n/a
292.5315	0.075	585063	keystroke_d	d	n/a
292.7115	0.106	585423	keystroke_Key.space	Key.space	n/a
293.7915	0.046	587583	keystroke_p	p	n/a
293.9125	0.119	587825	keystroke_i	i	n/a
293.9875	0.12	587975	keystroke_o	o	n/a
294.2415	0.046	588483	keystroke_n	n	n/a
294.5265	0.12	589053	keystroke_e	e	n/a
294.6625	0.089	589325	keystroke_e	e	n/a
294.8415	0.075	589683	keystroke_r	r	n/a
295.1265	0.075	590253	keystroke_Key.space	Key.space	n/a
295.3965	0.06	590793	keystroke_f	f	n/a
295.4715	0.06	590943	keystroke_i	i	n/a
295.6665	0.03	591333	keystroke_l	l	n/a
295.8165	0.105	591633	keystroke_e	e	n/a
295.9075	0.089	591815	keystroke_r	r	n/a
296.0575	0.044	592115	keystroke_i	i	n/a
296.1915	0.075	592383	keystroke_n	n	n/a
296.2815	0.06	592563	keystroke_g	g	n/a
296.3565	0.09	592713	keystroke_Key.space	Key.space	n/a
296.4915	0.075	592983	keystroke_l	l	n/a
296.6715	0.075	593343	keystroke_i	i	n/a
297.0015	0.06	594003	keystroke_Key.backspace	Key.backspace	n/a
297.1515	0.075	594303	keystroke_Key.backspace	Key.backspace	n/a
297.3315	0.075	594663	keystroke_Key.backspace	Key.backspace	n/a
297.5265	0.045	595053	keystroke_Key.backspace	Key.backspace	n/a
297.6915	0.075	595383	keystroke_Key.backspace	Key.backspace	n/a
297.8715	0.075	595743	keystroke_Key.backspace	Key.backspace	n/a
298.0815	0.06	596163	keystroke_Key.backspace	Key.backspace	n/a
298.4125	0.074	596825	keystroke_Key.backspace	Key.backspace	n/a
298.9965	0.06	597993	keystroke_t	t	n/a
299.1765	0.105	598353	keystroke_e	e	n/a
299.2375	0.105	598475	keystroke_r	r	n/a
299.3725	0.06	598745	keystroke_i	i	n/a
299.5375	0.105	599075	keystroke_n	n	n/a
299.6575	0.03	599315	keystroke_g	g	n/a
299.6725	0.104	599345	keystroke_Key.space	Key.space	n/a
299.8075	0.06	599615	keystroke_l	l	n/a
299.9415	0.091	599883	keystroke_i	i	n/a
300.1375	0.059	600275	keystroke_b	b	n/a
300.2125	0.12	600425	keystroke_e	e	n/a
300.3015	0.09	600603	keystroke_r	r	n/a
300.4515	0.106	600903	keystroke_a	a	n/a
300.5415	0.06	601083	keystroke_l	l	n/a
300.8715	0.06	601743	keystroke_Key.enter	Key.enter	n/a
300.936	9.3125	601872	prompt	n/a	lifestyle carroll tropical episodes\n
301.5175	0.104	603035	keystroke_l	l	n/a
301.6975	0.09	603395	keystroke_i	i	n/a
302.2225	0.075	604445	keystroke_f	f	n/a
302.3575	0.059	604715	keystroke_e	e	n/a
302.7025	0.075	605405	keystroke_s	s	n/a
302.8975	0.09	605795	keystroke_t	t	n/a
303.3775	0.06	606755	keystroke_y	y	n/a
303.7075	0.06	607415	keystroke_l	l	n/a
303.8275	0.03	607655	keystroke_e	e	n/a
303.9925	0.105	607985	keystroke_Key.space	Key.space	n/a
304.2175	0.075	608435	keystroke_c	c	n/a
304.3975	0.075	608795	keystroke_a	a	n/a
304.6225	0.06	609245	keystroke_r	r	n/a
304.7875	0.045	609575	keystroke_r	r	n/a
304.9375	0.06	609875	keystroke_o	o	n/a
305.8375	0.015	611675	keystroke_l	l	n/a
305.9725	0.06	611945	keystroke_l	l	n/a
306.4525	0.12	612905	keystroke_Key.space	Key.space	n/a
307.0825	0.075	614165	keystroke_t	t	n/a
307.2175	0.075	614435	keystroke_r	r	n/a
307.3975	0.12	614795	keystroke_o	o	n/a
307.4575	0.135	614915	keystroke_p	p	n/a
307.6525	0.09	615305	keystroke_i	i	n/a
307.7275	0.09	615455	keystroke_c	c	n/a
307.9375	0.12	615875	keystroke_a	a	n/a
308.0425	0.06	616085	keystroke_l	l	n/a
308.1475	0.12	616295	keystroke_Key.space	Key.space	n/a
308.4475	0.03	616895	keystroke_e	e	n/a
308.5975	0.0745	617195	keystroke_p	p	n/a
308.822	0.06	617644	keystroke_i	i	n/a
309.0025	0.06	618005	keystroke_s	s	n/a
309.122	0.0605	618244	keystroke_o	o	n/a
309.197	0.06	618394	keystroke_d	d	n/a
309.392	0.045	618784	keystroke_e	e	n/a
309.5425	0.045	619085	keystroke_s	s	n/a
310.202	0.045	620404	keystroke_Key.enter	Key.enter	n/a
310.2515	21.372	620503	prompt	n/a	jordan contribution editorials councils\n
310.907	0.15	621814	keystroke_j	j	n/a
311.012	0.09	622024	keystroke_o	o	n/a
311.132	0.075	622264	keystroke_r	r	n/a
311.627	0.075	623254	keystroke_d	d	n/a
311.882	0.12	623764	keystroke_a	a	n/a
312.002	0.045	624004	keystroke_n	n	n/a
312.152	0.105	624304	keystroke_Key.space	Key.space	n/a
312.317	0.105	624634	keystroke_c	c	n/a
312.407	0.06	624814	keystroke_o	o	n/a
312.527	0.09	625054	keystroke_n	n	n/a
312.647	0.06	625294	keystroke_t	t	n/a
312.812	0.045	625624	keystroke_r	r	n/a
312.932	0.06	625864	keystroke_o	o	n/a
313.487	0.06	626974	keystroke_Key.backspace	Key.backspace	n/a
313.727	0.06	627454	keystroke_i	i	n/a
313.907	0.06	627814	keystroke_b	b	n/a
314.057	0.075	628114	keystroke_u	u	n/a
314.267	0.075	628534	keystroke_t	t	n/a
314.312	0.135	628624	keystroke_i	i	n/a
314.387	0.09	628774	keystroke_o	o	n/a
314.537	0.075	629074	keystroke_n	n	n/a
314.672	0.105	629344	keystroke_Key.space	Key.space	n/a
314.837	0.03	629674	keystroke_e	e	n/a
315.002	0.06	630004	keystroke_d	d	n/a
315.107	0.045	630214	keystroke_i	i	n/a
315.302	0.045	630604	keystroke_t	t	n/a
315.392	0.105	630784	keystroke_i	i	n/a
315.992	0.06	631984	keystroke_o	o	n/a
316.082	0.06	632164	keystroke_r	r	n/a
316.172	0.075	632344	keystroke_i	i	n/a
316.232	0.105	632464	keystroke_a	a	n/a
316.367	0.06	632734	keystroke_l	l	n/a
316.637	0.015	633274	keystroke_Key.space	Key.space	n/a
316.727	0.06	633454	keystroke_c	c	n/a
316.772	0.075	633544	keystroke_o	o	n/a
316.937	0.06	633874	keystroke_u	u	n/a
317.072	0.09	634144	keystroke_n	n	n/a
317.177	0.06	634354	keystroke_c	c	n/a
317.297	0.06	634594	keystroke_i	i	n/a
317.927	0.06	635854	keystroke_Key.backspace	Key.backspace	n/a
318.107	0.06	636214	keystroke_Key.backspace	Key.backspace	n/a
318.272	0.06	636544	keystroke_Key.backspace	Key.backspace	n/a
318.452	0.06	636904	keystroke_Key.backspace	Key.backspace	n/a
318.632	0.06	637264	keystroke_Key.backspace	Key.backspace	n/a
319.397	0.075	638794	keystroke_Key.backspace	Key.backspace	n/a
319.592	0.09	639184	keystroke_Key.backspace	Key.backspace	n/a
319.787	0.09	639574	keystroke_Key.backspace	Key.backspace	n/a
319.982	0.075	639964	keystroke_Key.backspace	Key.backspace	n/a
320.162	0.09	640324	keystroke_Key.backspace	Key.backspace	n/a
320.357	0.09	640714	keystroke_Key.backspace	Key.backspace	n/a
320.567	0.075	641134	keystroke_Key.backspace	Key.backspace	n/a
320.732	0.105	641464	keystroke_Key.backspace	Key.backspace	n/a
321.107	0.06	642214	keystroke_Key.backspace	Key.backspace	n/a
322.127	0.06	644254	keystroke_t	t	n/a
322.352	0.075	644704	keystroke_i	i	n/a
322.517	0.045	645034	keystroke_r	r	n/a
323.252	0.045	646504	keystroke_Key.backspace	Key.backspace	n/a
323.402	0.075	646804	keystroke_Key.backspace	Key.backspace	n/a
324.062	0.06	648124	keystroke_Key.backspace	Key.backspace	n/a
325.262	0.045	650524	keystroke_i	i	n/a
325.367	0.045	650734	keystroke_t	t	n/a
325.802	0.06	651604	keystroke_o	o	n/a
326.402	0.06	652804	keystroke_Key.backspace	Key.backspace	n/a
326.567	0.075	653134	keystroke_Key.backspace	Key.backspace	n/a
326.762	0.075	653524	keystroke_Key.backspace	Key.backspace	n/a
328.517	0.06	657034	keystroke_t	t	n/a
328.757	0.075	657514	keystroke_o	o	n/a
328.997	0.06	657994	keystroke_r	r	n/a
329.072	0.075	658144	keystroke_i	i	n/a
329.177	0.105	658354	keystroke_a	a	n/a
329.297	0.045	658594	keystroke_l	l	n/a
329.807	0.075	659614	keystroke_s	s	n/a
329.972	0.09	659944	keystroke_Key.space	Key.space	n/a
330.107	0.09	660214	keystroke_c	c	n/a
330.182	0.09	660364	keystroke_o	o	n/a
330.362	0.045	660724	keystroke_u	u	n/a
330.497	0.105	660994	keystroke_n	n	n/a
330.602	0.075	661204	keystroke_c	c	n/a
330.707	0.06	661414	keystroke_i	i	n/a
330.872	0.075	661744	keystroke_l	l	n/a
330.977	0.045	661954	keystroke_s	s	n/a
331.577	0.045	663154	keystroke_Key.enter	Key.enter	n/a
331.6265	6.1025	663253	prompt	n/a	exclusion hugo clean court\n
332.432	0.045	664864	keystroke_e	e	n/a
332.702	0.075	665404	keystroke_x	x	n/a
332.897	0.09	665794	keystroke_c	c	n/a
333.017	0.09	666034	keystroke_l	l	n/a
333.212	0.06	666424	keystroke_u	u	n/a
333.302	0.075	666604	keystroke_s	s	n/a
333.422	0.135	666844	keystroke_i	i	n/a
333.482	0.12	666964	keystroke_o	o	n/a
333.677	0.075	667354	keystroke_n	n	n/a
334.337	0.09	668674	keystroke_Key.space	Key.space	n/a
334.667	0.09	669334	keystroke_h	h	n/a
334.757	0.075	669514	keystroke_u	u	n/a
334.877	0.075	669754	keystroke_g	g	n/a
334.982	0.06	669964	keystroke_o	o	n/a
335.207	0.105	670414	keystroke_Key.space	Key.space	n/a
335.478	0.089	670956	keystroke_c	c	n/a
335.552	0.06	671104	keystroke_l	l	n/a
335.657	0.075	671314	keystroke_e	e	n/a
335.807	0.09	671614	keystroke_a	a	n/a
335.957	0.045	671914	keystroke_n	n	n/a
336.527	0.105	673054	keystroke_Key.space	Key.space	n/a
336.647	0.075	673294	keystroke_c	c	n/a
336.737	0.075	673474	keystroke_o	o	n/a
336.917	0.075	673834	keystroke_u	u	n/a
337.082	0.075	674164	keystroke_r	r	n/a
337.262	0.045	674524	keystroke_t	t	n/a
337.697	0.03	675394	keystroke_Key.enter	Key.enter	n/a
337.7315	6.012	675463	prompt	n/a	naked twiki table patrol\n
338.342	0.06	676684	keystroke_n	n	n/a
338.432	0.09	676864	keystroke_a	a	n/a
338.537	0.075	677074	keystroke_k	k	n/a
338.687	0.06	677374	keystroke_e	e	n/a
338.987	0.045	677974	keystroke_d	d	n/a
339.227	0.105	678454	keystroke_Key.space	Key.space	n/a
339.407	0.075	678814	keystroke_t	t	n/a
339.827	0.075	679654	keystroke_w	w	n/a
339.932	0.06	679864	keystroke_i	i	n/a
340.127	0.045	680254	keystroke_k	k	n/a
340.292	0.06	680584	keystroke_i	i	n/a
341.087	0.12	682174	keystroke_Key.space	Key.space	n/a
341.342	0.075	682684	keystroke_t	t	n/a
341.567	0.105	683134	keystroke_a	a	n/a
341.822	0.06	683644	keystroke_b	b	n/a
342.017	0.06	684034	keystroke_l	l	n/a
342.107	0.045	684214	keystroke_e	e	n/a
342.227	0.045	684454	keystroke_Key.space	Key.space	n/a
342.332	0.075	684664	keystroke_p	p	n/a
342.452	0.135	684904	keystroke_a	a	n/a
342.647	0.075	685294	keystroke_t	t	n/a
342.947	0.061	685894	keystroke_r	r	n/a
343.052	0.075	686104	keystroke_o	o	n/a
343.277	0.06	686554	keystroke_l	l	n/a
343.667	0.075	687334	keystroke_Key.enter	Key.enter	n/a
343.7465	16.812	687493	prompt	n/a	programme celebrate bibliography screensaver\n
344.5815	0.075	689163	keystroke_p	p	n/a
344.7465	0.03	689493	keystroke_r	r	n/a
344.8515	0.075	689703	keystroke_o	o	n/a
345.1665	0.045	690333	keystroke_g	g	n/a
345.2565	0.09	690513	keystroke_r	r	n/a
345.3915	0.045	690783	keystroke_l	l	n/a
345.4065	0.105	690813	keystroke_a	a	n/a
345.8265	0.075	691653	keystroke_Key.backspace	Key.backspace	n/a
345.9915	0.09	691983	keystroke_Key.backspace	Key.backspace	n/a
346.4565	0.09	692913	keystroke_a	a	n/a
346.6215	0.075	693243	keystroke_m	m	n/a
346.7865	0.045	693573	keystroke_m	m	n/a
346.8915	0.045	693783	keystroke_e	e	n/a
347.6115	0.105	695223	keystroke_Key.space	Key.space	n/a
348.7215	0.106	697443	keystroke_c	c	n/a
348.9025	0.059	697805	keystroke_e	e	n/a
349.0215	0.06	698043	keystroke_l	l	n/a
349.1865	0.015	698373	keystroke_e	e	n/a
350.1165	0.075	700233	keystroke_b	b	n/a
350.2665	0.09	700533	keystroke_r	r	n/a
350.4315	0.121	700863	keystroke_a	a	n/a
350.5365	0.09	701073	keystroke_t	t	n/a
350.7315	0.03	701463	keystroke_e	e	n/a
351.4065	0.09	702813	keystroke_Key.space	Key.space	n/a
351.5715	0.075	703143	keystroke_b	b	n/a
351.7515	0.105	703503	keystroke_i	i	n/a
351.9025	0.075	703805	keystroke_b	b	n/a
354.0645	0.042	708129	keystroke_l	l	n/a
354.2415	0.18	708483	keystroke_i	i	n/a
354.3915	0.075	708783	keystroke_o	o	n/a
354.7365	0.045	709473	keystroke_g	g	n/a
354.9025	0.029	709805	keystroke_r	r	n/a
355.4565	0.105	710913	keystroke_a	a	n/a
355.5465	0.075	711093	keystroke_p	p	n/a
355.7715	0.09	711543	keystroke_h	h	n/a
355.9815	0.046	711963	keystroke_y	y	n/a
356.7025	0.119	713405	keystroke_Key.space	Key.space	n/a
356.9725	0.075	713945	keystroke_s	s	n/a
357.1375	0.09	714275	keystroke_c	c	n/a
357.3925	0.044	714785	keystroke_r	r	n/a
357.5115	0.06	715023	keystroke_e	e	n/a
357.8125	0.06	715625	keystroke_e	e	n/a
357.9915	0.061	715983	keystroke_n	n	n/a
358.3365	0.091	716673	keystroke_s	s	n/a
358.4725	0.135	716945	keystroke_a	a	n/a
358.6525	0.075	717305	keystroke_v	v	n/a
358.8775	0.105	717755	keystroke_e	e	n/a
358.9525	0.09	717905	keystroke_r	r	n/a
360.497	0.06	720994	keystroke_Key.enter	Key.enter	n/a
360.562	8.067	721124	prompt	n/a	acts resolve buried queens\n
361.2625	0.105	722525	keystroke_a	a	n/a
361.4865	0.075	722973	keystroke_c	c	n/a
361.8325	0.03	723665	keystroke_t	t	n/a
362.0125	0.0595	724025	keystroke_s	s	n/a
363.227	0.12	726454	keystroke_Key.space	Key.space	n/a
363.407	0.06	726814	keystroke_r	r	n/a
363.827	0.09	727654	keystroke_e	e	n/a
364.037	0.06	728074	keystroke_s	s	n/a
364.547	0.06	729094	keystroke_o	o	n/a
364.712	0.105	729424	keystroke_l	l	n/a
364.832	0.06	729664	keystroke_v	v	n/a
365.027	0.06	730054	keystroke_e	e	n/a
365.267	0.09	730534	keystroke_Key.space	Key.space	n/a
365.462	0.09	730924	keystroke_b	b	n/a
365.582	0.075	731164	keystroke_u	u	n/a
365.687	0.06	731374	keystroke_r	r	n/a
366.032	0.03	732064	keystroke_i	i	n/a
366.092	0.06	732184	keystroke_e	e	n/a
366.287	0.075	732574	keystroke_d	d	n/a
366.377	0.105	732754	keystroke_Key.space	Key.space	n/a
367.172	0.075	734344	keystroke_q	q	n/a
367.262	0.09	734524	keystroke_u	u	n/a
367.367	0.075	734734	keystroke_e	e	n/a
367.547	0.045	735094	keystroke_e	e	n/a
367.817	0.06	735634	keystroke_n	n	n/a
367.937	0.045	735874	keystroke_s	s	n/a
368.552	0.075	737104	keystroke_Key.enter	Key.enter	n/a
368.6325	8.846	737265	prompt	n/a	conclusion warriors excerpt alan\n
369.407	0.045	738814	keystroke_c	c	n/a
369.467	0.075	738934	keystroke_o	o	n/a
369.647	0.015	739294	keystroke_n	n	n/a
369.692	0.075	739384	keystroke_c	c	n/a
369.812	0.105	739624	keystroke_l	l	n/a
370.022	0.06	740044	keystroke_u	u	n/a
370.142	0.06	740284	keystroke_s	s	n/a
370.262	0.15	740524	keystroke_i	i	n/a
370.382	0.075	740764	keystroke_o	o	n/a
370.517	0.075	741034	keystroke_n	n	n/a
371.282	0.09	742564	keystroke_Key.space	Key.space	n/a
371.432	0.075	742864	keystroke_w	w	n/a
371.567	0.105	743134	keystroke_a	a	n/a
372.422	0.045	744844	keystroke_r	r	n/a
372.557	0.06	745114	keystroke_r	r	n/a
372.647	0.135	745294	keystroke_i	i	n/a
372.737	0.075	745474	keystroke_o	o	n/a
372.827	0.045	745654	keystroke_r	r	n/a
373.202	0.045	746404	keystroke_s	s	n/a
373.577	0.12	747154	keystroke_Key.space	Key.space	n/a
373.712	0.09	747424	keystroke_e	e	n/a
373.982	0.105	747964	keystroke_x	x	n/a
374.237	0.105	748474	keystroke_c	c	n/a
374.462	0.045	748924	keystroke_e	e	n/a
374.537	0.06	749074	keystroke_p	p	n/a
374.882	0.075	749764	keystroke_Key.backspace	Key.backspace	n/a
375.017	0.03	750034	keystroke_r	r	n/a
375.662	0.06	751324	keystroke_p	p	n/a
375.797	0.06	751594	keystroke_t	t	n/a
376.082	0.06	752164	keystroke_Key.space	Key.space	n/a
376.322	0.075	752644	keystroke_a	a	n/a
376.457	0.06	752914	keystroke_l	l	n/a
376.577	0.075	753154	keystroke_a	a	n/a
376.697	0.045	753394	keystroke_n	n	n/a
377.432	0.045	754864	keystroke_Key.enter	Key.enter	n/a
377.482	16.481	754964	prompt	n/a	premiere affordable generations simpsons\n
378.302	0.06	756604	keystroke_p	p	n/a
378.557	0.045	757114	keystroke_r	r	n/a
378.692	0.045	757384	keystroke_e	e	n/a
378.827	0.105	757654	keystroke_m	m	n/a
378.992	0.06	757984	keystroke_i	i	n/a
379.217	0.015	758434	keystroke_r	r	n/a
379.682	0.06	759364	keystroke_Key.backspace	Key.backspace	n/a
381.092	0.12	762184	keystroke_e	e	n/a
381.197	0.09	762394	keystroke_r	r	n/a
381.272	0.09	762544	keystroke_e	e	n/a
382.052	0.105	764104	keystroke_Key.space	Key.space	n/a
382.262	0.045	764524	keystroke_a	a	n/a
382.472	0.075	764944	keystroke_f	f	n/a
382.652	0.045	765304	keystroke_f	f	n/a
382.757	0.075	765514	keystroke_o	o	n/a
382.907	0.045	765814	keystroke_r	r	n/a
383.147	0.03	766294	keystroke_d	d	n/a
384.707	0.105	769414	keystroke_a	a	n/a
384.842	0.075	769684	keystroke_b	b	n/a
385.007	0.06	770014	keystroke_l	l	n/a
385.097	0.045	770194	keystroke_e	e	n/a
386.102	0.135	772204	keystroke_Key.space	Key.space	n/a
386.432	0.075	772864	keystroke_g	g	n/a
386.597	0.045	773194	keystroke_e	e	n/a
386.732	0.03	773464	keystroke_n	n	n/a
386.867	0.12	773734	keystroke_e	e	n/a
386.957	0.105	773914	keystroke_r	r	n/a
387.167	0.105	774334	keystroke_a	a	n/a
387.437	0.075	774874	keystroke_t	t	n/a
387.497	0.15	774994	keystroke_i	i	n/a
387.572	0.105	775144	keystroke_o	o	n/a
388.292	0.075	776584	keystroke_Key.backspace	Key.backspace	n/a
389.792	0.075	779584	keystroke_o	o	n/a
389.972	0.075	779944	keystroke_n	n	n/a
390.092	0.075	780184	keystroke_s	s	n/a
390.317	0.135	780634	keystroke_Key.space	Key.space	n/a
390.602	0.09	781204	keystroke_s	s	n/a
390.707	0.045	781414	keystroke_i	i	n/a
390.857	0.135	781714	keystroke_m	m	n/a
390.962	0.12	781924	keystroke_p	p	n/a
391.367	0.09	782734	keystroke_s	s	n/a
391.487	0.09	782974	keystroke_o	o	n/a
391.637	0.06	783274	keystroke_n	n	n/a
391.742	0.075	783484	keystroke_s	s	n/a
393.934	0.028	787868	keystroke_Key.enter	Key.enter	n/a
393.9685	7.99	787937	prompt	n/a	placed baths tomatoes sorts\n
394.7715	0.0455	789543	keystroke_p	p	n/a
394.9365	0.0755	789873	keystroke_l	l	n/a
395.012	0.0895	790024	keystroke_a	a	n/a
395.192	0.0895	790384	keystroke_c	c	n/a
395.3715	0.045	790743	keystroke_e	e	n/a
395.5815	0.0305	791163	keystroke_d	d	n/a
396.5715	0.1205	793143	keystroke_Key.space	Key.space	n/a
397.5165	0.09	795033	keystroke_b	b	n/a
397.7415	0.105	795483	keystroke_a	a	n/a
397.9065	0.09	795813	keystroke_t	t	n/a
397.9665	0.075	795933	keystroke_h	h	n/a
398.4015	0.075	796803	keystroke_s	s	n/a
398.5665	0.12	797133	keystroke_Key.space	Key.space	n/a
398.8365	0.075	797673	keystroke_t	t	n/a
398.8815	0.075	797763	keystroke_o	o	n/a
399.0615	0.105	798123	keystroke_m	m	n/a
399.4365	0.09	798873	keystroke_a	a	n/a
399.7215	0.075	799443	keystroke_t	t	n/a
399.9015	0.06	799803	keystroke_o	o	n/a
400.0665	0.075	800133	keystroke_e	e	n/a
400.2615	0.075	800523	keystroke_s	s	n/a
400.5015	0.09	801003	keystroke_Key.space	Key.space	n/a
400.9065	0.105	801813	keystroke_s	s	n/a
401.0265	0.075	802053	keystroke_o	o	n/a
401.1315	0.105	802263	keystroke_r	r	n/a
401.252	0.0595	802504	keystroke_t	t	n/a
401.4315	0.075	802863	keystroke_s	s	n/a
401.8965	0.06	803793	keystroke_Key.enter	Key.enter	n/a
401.961	8.052	803922	prompt	n/a	clarity diversity costs load\n
402.7815	0.075	805563	keystroke_c	c	n/a
402.8865	0.06	805773	keystroke_l	l	n/a
403.1565	0.09	806313	keystroke_a	a	n/a
403.8465	0.045	807693	keystroke_r	r	n/a
403.9215	0.075	807843	keystroke_i	i	n/a
404.0865	0.06	808173	keystroke_t	t	n/a
404.1915	0.06	808383	keystroke_y	y	n/a
404.3715	0.105	808743	keystroke_Key.space	Key.space	n/a
404.4315	0.09	808863	keystroke_d	d	n/a
404.5515	0.06	809103	keystroke_i	i	n/a
405.4815	0.075	810963	keystroke_v	v	n/a
405.7065	0.135	811413	keystroke_e	e	n/a
405.8715	0.06	811743	keystroke_r	r	n/a
406.0665	0.075	812133	keystroke_s	s	n/a
406.1865	0.06	812373	keystroke_i	i	n/a
406.4265	0.075	812853	keystroke_t	t	n/a
406.5765	0.105	813153	keystroke_y	y	n/a
406.8915	0.12	813783	keystroke_Key.space	Key.space	n/a
407.2065	0.06	814413	keystroke_c	c	n/a
407.2815	0.06	814563	keystroke_o	o	n/a
407.4015	0.105	814803	keystroke_s	s	n/a
407.7315	0.045	815463	keystroke_t	t	n/a
407.9715	0.045	815943	keystroke_s	s	n/a
408.5415	0.105	817083	keystroke_Key.space	Key.space	n/a
408.7515	0.121	817503	keystroke_l	l	n/a
408.9915	0.075	817983	keystroke_o	o	n/a
409.0975	0.104	818195	keystroke_a	a	n/a
409.3215	0.045	818643	keystroke_d	d	n/a
409.9665	0.045	819933	keystroke_Key.enter	Key.enter	n/a
410.0165	8.607	820033	prompt	n/a	daisy nested dogs appreciated\n
410.8975	0.104	821795	keystroke_a	a	n/a
411.3015	0.045	822603	keystroke_Key.backspace	Key.backspace	n/a
411.3765	0.075	822753	keystroke_d	d	n/a
411.7815	0.075	823563	keystroke_a	a	n/a
411.9765	0.06	823953	keystroke_i	i	n/a
412.2165	0.06	824433	keystroke_s	s	n/a
412.3515	0.015	824703	keystroke_y	y	n/a
413.0715	0.075	826143	keystroke_Key.space	Key.space	n/a
413.2065	0.06	826413	keystroke_n	n	n/a
413.2815	0.06	826563	keystroke_e	e	n/a
413.4615	0.09	826923	keystroke_s	s	n/a
413.6565	0.061	827313	keystroke_t	t	n/a
413.7765	0.075	827553	keystroke_e	e	n/a
413.9865	0.061	827973	keystroke_d	d	n/a
414.0915	0.106	828183	keystroke_Key.space	Key.space	n/a
414.3165	0.106	828633	keystroke_d	d	n/a
414.4365	0.06	828873	keystroke_o	o	n/a
414.5565	0.045	829113	keystroke_g	g	n/a
414.7515	0.06	829503	keystroke_s	s	n/a
415.2615	0.075	830523	keystroke_Key.space	Key.space	n/a
415.5315	0.091	831063	keystroke_a	a	n/a
415.6365	0.061	831273	keystroke_p	p	n/a
415.7565	0.06	831513	keystroke_p	p	n/a
415.8615	0.09	831723	keystroke_r	r	n/a
416.3565	0.06	832713	keystroke_e	e	n/a
417.2115	0.075	834423	keystroke_c	c	n/a
417.3325	0.074	834665	keystroke_i	i	n/a
417.4825	0.104	834965	keystroke_a	a	n/a
417.6025	0.074	835205	keystroke_t	t	n/a
417.7375	0.074	835475	keystroke_e	e	n/a
417.9475	0.045	835895	keystroke_d	d	n/a
418.5615	0.061	837123	keystroke_Key.enter	Key.enter	n/a
418.626	8.6825	837252	prompt	n/a	joel protective culture registry\n
419.2365	0.105	838473	keystroke_j	j	n/a
419.3865	0.09	838773	keystroke_o	o	n/a
419.5375	0.044	839075	keystroke_e	e	n/a
419.6265	0.06	839253	keystroke_l	l	n/a
420.1365	0.12	840273	keystroke_Key.space	Key.space	n/a
420.3025	0.09	840605	keystroke_p	p	n/a
420.4365	0.061	840873	keystroke_r	r	n/a
421.2925	0.045	842585	keystroke_o	o	n/a
422.0425	0.045	844085	keystroke_t	t	n/a
422.1475	0.09	844295	keystroke_e	e	n/a
422.3575	0.12	844715	keystroke_c	c	n/a
422.6265	0.061	845253	keystroke_t	t	n/a
422.7025	0.09	845405	keystroke_i	i	n/a
422.8675	0.06	845735	keystroke_v	v	n/a
423.0475	0.045	846095	keystroke_e	e	n/a
423.4525	0.09	846905	keystroke_Key.space	Key.space	n/a
423.5725	0.0895	847145	keystroke_c	c	n/a
423.692	0.075	847384	keystroke_u	u	n/a
423.902	0.06	847804	keystroke_l	l	n/a
424.082	0.045	848164	keystroke_t	t	n/a
424.172	0.06	848344	keystroke_u	u	n/a
424.502	0.045	849004	keystroke_r	r	n/a
424.982	0.075	849964	keystroke_e	e	n/a
425.282	0.09	850564	keystroke_Key.space	Key.space	n/a
425.477	0.045	850954	keystroke_r	r	n/a
425.567	0.09	851134	keystroke_e	e	n/a
425.777	0.045	851554	keystroke_g	g	n/a
425.867	0.06	851734	keystroke_i	i	n/a
425.972	0.075	851944	keystroke_s	s	n/a
426.167	0.06	852334	keystroke_t	t	n/a
426.302	0.06	852604	keystroke_r	r	n/a
426.422	0.075	852844	keystroke_y	y	n/a
427.262	0.045	854524	keystroke_Key.enter	Key.enter	n/a
427.3115	8.6525	854623	prompt	n/a	rivers praise reunion genre\n
428.462	0.075	856924	keystroke_r	r	n/a
428.552	0.09	857104	keystroke_i	i	n/a
428.657	0.075	857314	keystroke_v	v	n/a
428.867	0.075	857734	keystroke_e	e	n/a
428.957	0.075	857914	keystroke_r	r	n/a
429.137	0.06	858274	keystroke_s	s	n/a
429.317	0.075	858634	keystroke_Key.space	Key.space	n/a
429.422	0.075	858844	keystroke_p	p	n/a
429.557	0.06	859114	keystroke_r	r	n/a
429.812	0.09	859624	keystroke_a	a	n/a
429.917	0.06	859834	keystroke_i	i	n/a
430.022	0.105	860044	keystroke_s	s	n/a
430.217	0.06	860434	keystroke_e	e	n/a
430.367	0.075	860734	keystroke_Key.space	Key.space	n/a
430.682	0.075	861364	keystroke_r	r	n/a
430.922	0.015	861844	keystroke_e	e	n/a
431.732	0.09	863464	keystroke_u	u	n/a
431.927	0.09	863854	keystroke_n	n	n/a
432.077	0.135	864154	keystroke_i	i	n/a
432.182	0.105	864364	keystroke_o	o	n/a
432.377	0.075	864754	keystroke_n	n	n/a
432.527	0.15	865054	keystroke_Key.space	Key.space	n/a
433.172	0.06	866344	keystroke_g	g	n/a
433.277	0.09	866554	keystroke_n	n	n/a
433.352	0.09	866704	keystroke_e	e	n/a
434.012	0.105	868024	keystroke_Key.backspace	Key.backspace	n/a
434.252	0.075	868504	keystroke_Key.backspace	Key.backspace	n/a
434.477	0.06	868954	keystroke_e	e	n/a
434.612	0.045	869224	keystroke_n	n	n/a
434.897	0.06	869794	keystroke_r	r	n/a
435.002	0.075	870004	keystroke_e	e	n/a
435.902	0.06	871804	keystroke_Key.enter	Key.enter	n/a
435.9665	6.5225	871933	prompt	n/a	tracked alignment resistant aaron\n
436.697	0.06	873394	keystroke_t	t	n/a
436.817	0.09	873634	keystroke_r	r	n/a
436.922	0.105	873844	keystroke_a	a	n/a
437.147	0.06	874294	keystroke_c	c	n/a
437.237	0.06	874474	keystroke_k	k	n/a
437.342	0.06	874684	keystroke_e	e	n/a
437.522	0.075	875044	keystroke_d	d	n/a
437.612	0.135	875224	keystroke_Key.space	Key.space	n/a
437.777	0.105	875554	keystroke_a	a	n/a
437.867	0.06	875734	keystroke_l	l	n/a
438.032	0.06	876064	keystroke_i	i	n/a
438.212	0.045	876424	keystroke_g	g	n/a
438.302	0.03	876604	keystroke_n	n	n/a
438.527	0.06	877054	keystroke_m	m	n/a
438.632	0.06	877264	keystroke_e	e	n/a
438.737	0.045	877474	keystroke_n	n	n/a
438.887	0.0455	877774	keystroke_t	t	n/a
439.067	0.09	878134	keystroke_Key.space	Key.space	n/a
439.217	0.06	878434	keystroke_r	r	n/a
439.352	0.06	878704	keystroke_e	e	n/a
439.517	0.06	879034	keystroke_s	s	n/a
439.757	0.045	879514	keystroke_i	i	n/a
439.847	0.09	879694	keystroke_s	s	n/a
440.072	0.075	880144	keystroke_t	t	n/a
440.192	0.105	880384	keystroke_a	a	n/a
440.312	0.06	880624	keystroke_n	n	n/a
440.402	0.06	880804	keystroke_t	t	n/a
440.522	0.09	881044	keystroke_Key.space	Key.space	n/a
440.627	0.09	881254	keystroke_a	a	n/a
440.837	0.09	881674	keystroke_a	a	n/a
441.572	0.045	883144	keystroke_r	r	n/a
441.692	0.075	883384	keystroke_o	o	n/a
441.857	0.06	883714	keystroke_n	n	n/a
442.412	0.075	884824	keystroke_Key.enter	Key.enter	n/a
442.4925	6.386	884985	prompt	n/a	keyboard realm range replica\n
443.162	0.075	886324	keystroke_k	k	n/a
443.252	0.075	886504	keystroke_e	e	n/a
443.627	0.075	887254	keystroke_y	y	n/a
443.927	0.045	887854	keystroke_b	b	n/a
444.137	0.045	888274	keystroke_o	o	n/a
444.272	0.12	888544	keystroke_a	a	n/a
444.452	0.075	888904	keystroke_r	r	n/a
444.662	0.06	889324	keystroke_d	d	n/a
444.752	0.12	889504	keystroke_Key.space	Key.space	n/a
445.097	0.075	890194	keystroke_r	r	n/a
445.217	0.075	890434	keystroke_e	e	n/a
445.322	0.135	890644	keystroke_a	a	n/a
445.472	0.075	890944	keystroke_l	l	n/a
445.622	0.075	891244	keystroke_m	m	n/a
445.712	0.135	891424	keystroke_Key.space	Key.space	n/a
445.952	0.06	891904	keystroke_r	r	n/a
446.057	0.105	892114	keystroke_a	a	n/a
446.192	0.06	892384	keystroke_n	n	n/a
446.267	0.06	892534	keystroke_g	g	n/a
446.432	0.06	892864	keystroke_e	e	n/a
446.522	0.09	893044	keystroke_Key.space	Key.space	n/a
446.882	0.03	893764	keystroke_r	r	n/a
447.002	0.075	894004	keystroke_e	e	n/a
447.722	0.075	895444	keystroke_p	p	n/a
447.932	0.09	895864	keystroke_l	l	n/a
448.082	0.075	896164	keystroke_i	i	n/a
448.172	0.09	896344	keystroke_c	c	n/a
448.367	0.105	896734	keystroke_a	a	n/a
448.832	0.045	897664	keystroke_Key.enter	Key.enter	n/a
448.8815	7.932	897763	prompt	n/a	rainbow perform erik newton\n
449.642	0.09	899284	keystroke_r	r	n/a
449.747	0.135	899494	keystroke_a	a	n/a
449.852	0.105	899704	keystroke_i	i	n/a
450.062	0.075	900124	keystroke_n	n	n/a
450.287	0.075	900574	keystroke_b	b	n/a
450.407	0.09	900814	keystroke_o	o	n/a
450.512	0.045	901024	keystroke_w	w	n/a
450.872	0.09	901744	keystroke_Key.space	Key.space	n/a
451.202	0.075	902404	keystroke_p	p	n/a
451.322	0.12	902644	keystroke_e	e	n/a
451.457	0.06	902914	keystroke_r	r	n/a
451.682	0.045	903364	keystroke_f	f	n/a
452.297	0.075	904594	keystroke_o	o	n/a
452.402	0.045	904804	keystroke_r	r	n/a
452.507	0.075	905014	keystroke_m	m	n/a
452.702	0.105	905404	keystroke_Key.space	Key.space	n/a
452.882	0.075	905764	keystroke_e	e	n/a
453.002	0.06	906004	keystroke_i	i	n/a
454.007	0.075	908014	keystroke_Key.backspace	Key.backspace	n/a
454.142	0.03	908284	keystroke_r	r	n/a
454.262	0.045	908524	keystroke_i	i	n/a
454.442	0.045	908884	keystroke_k	k	n/a
454.907	0.06	909814	keystroke_Key.space	Key.space	n/a
455.057	0.09	910114	keystroke_n	n	n/a
455.132	0.075	910264	keystroke_e	e	n/a
455.312	0.045	910624	keystroke_w	w	n/a
455.657	0.06	911314	keystroke_t	t	n/a
455.747	0.06	911494	keystroke_o	o	n/a
456.452	0.075	912904	keystroke_n	n	n/a
456.737	0.075	913474	keystroke_Key.enter	Key.enter	n/a
456.8165	10.842	913633	prompt	n/a	mozambique employee furnished helen\n
457.667	0.105	915334	keystroke_m	m	n/a
457.817	0.075	915634	keystroke_o	o	n/a
457.997	0.075	915994	keystroke_z	z	n/a
458.267	0.09	916534	keystroke_a	a	n/a
458.972	0.075	917944	keystroke_m	m	n/a
459.257	0.03	918514	keystroke_b	b	n/a
459.482	0.045	918964	keystroke_i	i	n/a
460.307	0.105	920614	keystroke_q	q	n/a
460.427	0.045	920854	keystroke_u	u	n/a
460.502	0.06	921004	keystroke_e	e	n/a
461.312	0.135	922624	keystroke_Key.space	Key.space	n/a
461.642	0.06	923284	keystroke_e	e	n/a
461.807	0.105	923614	keystroke_m	m	n/a
462.587	0.075	925174	keystroke_p	p	n/a
462.827	0.075	925654	keystroke_l	l	n/a
463.022	0.06	926044	keystroke_o	o	n/a
463.232	0.06	926464	keystroke_y	y	n/a
463.397	0.045	926794	keystroke_e	e	n/a
463.532	0.06	927064	keystroke_e	e	n/a
463.697	0.105	927394	keystroke_Key.space	Key.space	n/a
464.297	0.03	928594	keystroke_f	f	n/a
464.387	0.06	928774	keystroke_u	u	n/a
464.462	0.045	928924	keystroke_r	r	n/a
464.582	0.03	929164	keystroke_n	n	n/a
465.137	0.06	930274	keystroke_n	n	n/a
465.512	0.06	931024	keystroke_Key.backspace	Key.backspace	n/a
465.752	0.06	931504	keystroke_i	i	n/a
465.857	0.075	931714	keystroke_s	s	n/a
465.977	0.045	931954	keystroke_h	h	n/a
466.202	0.045	932404	keystroke_e	e	n/a
466.397	0.03	932794	keystroke_d	d	n/a
466.487	0.09	932974	keystroke_Key.space	Key.space	n/a
466.727	0.06	933454	keystroke_h	h	n/a
466.802	0.03	933604	keystroke_e	e	n/a
466.907	0.06	933814	keystroke_l	l	n/a
466.997	0.045	933994	keystroke_e	e	n/a
467.282	0.045	934564	keystroke_n	n	n/a
467.612	0.045	935224	keystroke_Key.enter	Key.enter	n/a
467.6625	7.6315	935325	prompt	n/a	specials accordance venice likes\n
468.407	0.09	936814	keystroke_s	s	n/a
468.542	0.045	937084	keystroke_p	p	n/a
468.647	0.06	937294	keystroke_e	e	n/a
469.0375	0.0745	938075	keystroke_c	c	n/a
469.1425	0.06	938285	keystroke_i	i	n/a
469.292	0.0905	938584	keystroke_a	a	n/a
469.3975	0.03	938795	keystroke_l	l	n/a
469.7725	0.09	939545	keystroke_s	s	n/a
470.0725	0.105	940145	keystroke_Key.space	Key.space	n/a
470.2675	0.075	940535	keystroke_s	s	n/a
470.6875	0.06	941375	keystroke_Key.backspace	Key.backspace	n/a
470.7775	0.06	941555	keystroke_a	a	n/a
470.9725	0.045	941945	keystroke_c	c	n/a
471.1375	0.03	942275	keystroke_c	c	n/a
471.2725	0.06	942545	keystroke_o	o	n/a
471.3925	0.06	942785	keystroke_r	r	n/a
471.6625	0.09	943325	keystroke_d	d	n/a
471.7975	0.105	943595	keystroke_a	a	n/a
471.9175	0.06	943835	keystroke_n	n	n/a
472.0075	0.12	944015	keystroke_c	c	n/a
472.2175	0.045	944435	keystroke_e	e	n/a
472.5175	0.12	945035	keystroke_Key.space	Key.space	n/a
472.8775	0.045	945755	keystroke_v	v	n/a
473.4325	0.06	946865	keystroke_e	e	n/a
473.5375	0.075	947075	keystroke_n	n	n/a
473.6875	0.06	947375	keystroke_i	i	n/a
473.8075	0.09	947615	keystroke_c	c	n/a
473.9875	0.075	947975	keystroke_e	e	n/a
474.0925	0.12	948185	keystroke_Key.space	Key.space	n/a
474.2275	0.075	948455	keystroke_l	l	n/a
474.3925	0.045	948785	keystroke_i	i	n/a
474.5425	0.075	949085	keystroke_k	k	n/a
474.6625	0.06	949325	keystroke_e	e	n/a
474.917	0.045	949834	keystroke_s	s	n/a
475.2325	0.06	950465	keystroke_Key.enter	Key.enter	n/a
475.2975	9.3715	950595	prompt	n/a	taylor ruling excluding conscious\n
476.2825	0.0445	952565	keystroke_t	t	n/a
476.7325	0.09	953465	keystroke_a	a	n/a
476.9275	0.09	953855	keystroke_y	y	n/a
477.2275	0.06	954455	keystroke_l	l	n/a
477.4225	0.045	954845	keystroke_o	o	n/a
477.4975	0.045	954995	keystroke_r	r	n/a
477.737	0.1055	955474	keystroke_Key.space	Key.space	n/a
478.7575	0.075	957515	keystroke_r	r	n/a
478.8475	0.0595	957695	keystroke_u	u	n/a
479.027	0.0755	958054	keystroke_l	l	n/a
479.192	0.06	958384	keystroke_i	i	n/a
479.357	0.075	958714	keystroke_n	n	n/a
479.447	0.06	958894	keystroke_g	g	n/a
479.522	0.12	959044	keystroke_Key.space	Key.space	n/a
479.732	0.045	959464	keystroke_e	e	n/a
480.017	0.09	960034	keystroke_x	x	n/a
480.167	0.075	960334	keystroke_c	c	n/a
480.272	0.075	960544	keystroke_l	l	n/a
480.437	0.075	960874	keystroke_u	u	n/a
480.647	0.105	961294	keystroke_d	d	n/a
480.797	0.06	961594	keystroke_i	i	n/a
480.962	0.06	961924	keystroke_n	n	n/a
481.097	0.045	962194	keystroke_g	g	n/a
481.712	0.12	963424	keystroke_Key.space	Key.space	n/a
481.922	0.075	963844	keystroke_c	c	n/a
482.012	0.075	964024	keystroke_o	o	n/a
482.147	0.06	964294	keystroke_n	n	n/a
483.047	0.06	966094	keystroke_s	s	n/a
483.212	0.06	966424	keystroke_c	c	n/a
483.602	0.12	967204	keystroke_i	i	n/a
483.707	0.105	967414	keystroke_o	o	n/a
483.902	0.06	967804	keystroke_u	u	n/a
484.007	0.045	968014	keystroke_s	s	n/a
484.622	0.045	969244	keystroke_Key.enter	Key.enter	n/a
484.674	9.49	969348	prompt	n/a	confidence associations incredible michigan\n
485.432	0.06	970864	keystroke_c	c	n/a
485.522	0.075	971044	keystroke_o	o	n/a
485.702	0.03	971404	keystroke_n	n	n/a
487.322	0.075	974644	keystroke_f	f	n/a
487.427	0.075	974854	keystroke_i	i	n/a
487.487	0.06	974974	keystroke_d	d	n/a
487.682	0.045	975364	keystroke_e	e	n/a
487.787	0.06	975574	keystroke_n	n	n/a
487.862	0.075	975724	keystroke_c	c	n/a
487.982	0.0605	975964	keystroke_e	e	n/a
488.2225	0.09	976445	keystroke_Key.space	Key.space	n/a
488.4475	0.105	976895	keystroke_a	a	n/a
488.6425	0.045	977285	keystroke_s	s	n/a
488.7775	0.075	977555	keystroke_s	s	n/a
488.9125	0.075	977825	keystroke_o	o	n/a
489.0025	0.06	978005	keystroke_c	c	n/a
489.1225	0.075	978245	keystroke_i	i	n/a
489.2875	0.075	978575	keystroke_a	a	n/a
489.4225	0.075	978845	keystroke_t	t	n/a
489.4525	0.135	978905	keystroke_i	i	n/a
489.5125	0.105	979025	keystroke_o	o	n/a
489.6775	0.06	979355	keystroke_n	n	n/a
489.8125	0.045	979625	keystroke_s	s	n/a
490.142	0.075	980284	keystroke_Key.space	Key.space	n/a
490.277	0.075	980554	keystroke_i	i	n/a
490.427	0.09	980854	keystroke_n	n	n/a
490.592	0.06	981184	keystroke_c	c	n/a
490.817	0.045	981634	keystroke_r	r	n/a
490.937	0.09	981874	keystroke_e	e	n/a
491.132	0.075	982264	keystroke_d	d	n/a
491.192	0.09	982384	keystroke_i	i	n/a
491.372	0.06	982744	keystroke_b	b	n/a
491.552	0.075	983104	keystroke_l	l	n/a
491.642	0.075	983284	keystroke_e	e	n/a
491.732	0.09	983464	keystroke_Key.space	Key.space	n/a
492.302	0.105	984604	keystroke_m	m	n/a
492.452	0.075	984904	keystroke_i	i	n/a
492.602	0.06	985204	keystroke_c	c	n/a
492.692	0.105	985384	keystroke_h	h	n/a
492.782	0.09	985564	keystroke_i	i	n/a
493.112	0.075	986224	keystroke_g	g	n/a
493.232	0.105	986464	keystroke_a	a	n/a
493.352	0.075	986704	keystroke_n	n	n/a
494.102	0.06	988204	keystroke_Key.enter	Key.enter	n/a
494.167	10.167	988334	prompt	n/a	anchor waters component injuries\n
494.807	0.075	989614	keystroke_a	a	n/a
495.1675	0.075	990335	keystroke_c	c	n/a
495.7075	0.075	991415	keystroke_h	h	n/a
496.712	0.06	993424	keystroke_Key.backspace	Key.backspace	n/a
496.862	0.06	993724	keystroke_Key.backspace	Key.backspace	n/a
497.087	0.075	994174	keystroke_n	n	n/a
497.2675	0.06	994535	keystroke_c	c	n/a
497.3725	0.12	994745	keystroke_h	h	n/a
497.4625	0.105	994925	keystroke_o	o	n/a
497.6125	0.06	995225	keystroke_r	r	n/a
497.9875	0.105	995975	keystroke_Key.space	Key.space	n/a
498.2125	0.075	996425	keystroke_w	w	n/a
498.3625	0.105	996725	keystroke_a	a	n/a
498.4825	0.105	996965	keystroke_t	t	n/a
498.6775	0.075	997355	keystroke_e	e	n/a
498.7225	0.075	997445	keystroke_r	r	n/a
498.9175	0.0745	997835	keystroke_s	s	n/a
499.082	0.12	998164	keystroke_Key.space	Key.space	n/a
499.337	0.06	998674	keystroke_c	c	n/a
499.412	0.075	998824	keystroke_o	o	n/a
499.547	0.1055	999094	keystroke_m	m	n/a
499.6225	0.105	999245	keystroke_p	p	n/a
500.252	0.075	1000504	keystroke_o	o	n/a
500.432	0.06	1000864	keystroke_n	n	n/a
500.6275	0.0595	1001255	keystroke_e	e	n/a
500.717	0.0605	1001434	keystroke_n	n	n/a
500.927	0.045	1001854	keystroke_t	t	n/a
501.122	0.1055	1002244	keystroke_Key.space	Key.space	n/a
501.3775	0.0595	1002755	keystroke_i	i	n/a
501.512	0.06	1003024	keystroke_n	n	n/a
501.692	0.075	1003384	keystroke_j	j	n/a
501.872	0.0305	1003744	keystroke_o	o	n/a
502.262	0.06	1004524	keystroke_Key.backspace	Key.backspace	n/a
502.517	0.0605	1005034	keystroke_u	u	n/a
502.727	0.03	1005454	keystroke_r	r	n/a
502.832	0.045	1005664	keystroke_i	i	n/a
503.147	0.075	1006294	keystroke_e	e	n/a
503.312	0.06	1006624	keystroke_s	s	n/a
504.287	0.045	1008574	keystroke_Key.enter	Key.enter	n/a
504.3365	7.908	1008673	prompt	n/a	artistic tunes symantec fight\n
505.022	0.105	1010044	keystroke_a	a	n/a
505.292	0.09	1010584	keystroke_r	r	n/a
505.412	0.09	1010824	keystroke_t	t	n/a
505.562	0.075	1011124	keystroke_i	i	n/a
505.682	0.09	1011364	keystroke_s	s	n/a
505.877	0.06	1011754	keystroke_t	t	n/a
505.952	0.075	1011904	keystroke_i	i	n/a
506.117	0.075	1012234	keystroke_c	c	n/a
506.447	0.075	1012894	keystroke_Key.space	Key.space	n/a
507.002	0.06	1014004	keystroke_t	t	n/a
507.077	0.075	1014154	keystroke_u	u	n/a
507.227	0.075	1014454	keystroke_n	n	n/a
507.317	0.075	1014634	keystroke_e	e	n/a
507.497	0.06	1014994	keystroke_s	s	n/a
507.662	0.075	1015324	keystroke_Key.space	Key.space	n/a
507.962	0.09	1015924	keystroke_s	s	n/a
508.112	0.075	1016224	keystroke_y	y	n/a
508.667	0.09	1017334	keystroke_m	m	n/a
508.862	0.075	1017724	keystroke_a	a	n/a
508.997	0.06	1017994	keystroke_n	n	n/a
509.417	0.06	1018834	keystroke_t	t	n/a
509.627	0.075	1019254	keystroke_e	e	n/a
509.822	0.06	1019644	keystroke_c	c	n/a
510.122	0.105	1020244	keystroke_Key.space	Key.space	n/a
510.422	0.075	1020844	keystroke_i	i	n/a
510.797	0.09	1021594	keystroke_Key.backspace	Key.backspace	n/a
511.667	0.06	1023334	keystroke_f	f	n/a
511.742	0.09	1023484	keystroke_i	i	n/a
511.862	0.075	1023724	keystroke_g	g	n/a
511.967	0.045	1023934	keystroke_h	h	n/a
512.057	0.06	1024114	keystroke_t	t	n/a
512.2445	0	1024489	keystroke_Key.enter	Key.enter	n/a
512.2445	0	1024489	keystroke_s	s	n/a
512.2445	0	1024489	keystroke_h	h	n/a
512.2445	0	1024489	keystroke_o	o	n/a
512.2445	0	1024489	keystroke_r	r	n/a
512.2445	0	1024489	keystroke_t	t	n/a
512.2445	0	1024489	keystroke_c	c	n/a
512.2445	0	1024489	keystroke_u	u	n/a
512.2445	3.6745	1024489	prompt	n/a	shortcuts issued substantial connected\n
512.245	0	1024490	keystroke_t	t	n/a
512.245	0	1024490	keystroke_s	s	n/a
512.245	0	1024490	keystroke_Key.space	Key.space	n/a
512.245	0	1024490	keystroke_i	i	n/a
512.245	0	1024490	keystroke_s	s	n/a
512.245	0	1024490	keystroke_s	s	n/a
512.245	0	1024490	keystroke_u	u	n/a
512.245	0	1024490	keystroke_e	e	n/a
512.245	0	1024490	keystroke_d	d	n/a
512.245	0	1024490	keystroke_Key.space	Key.space	n/a
512.4175	0.0725	1024835	keystroke_s	s	n/a
512.5475	0.058	1025095	keystroke_u	u	n/a
512.6635	0.0825	1025327	keystroke_b	b	n/a
512.7785	0.101	1025557	keystroke_s	s	n/a
513.01	0.043	1026020	keystroke_t	t	n/a
513.1265	0.107	1026253	keystroke_a	a	n/a
513.2835	0.0615	1026567	keystroke_n	n	n/a
513.692	0.065	1027384	keystroke_t	t	n/a
513.79	0.0635	1027580	keystroke_i	i	n/a
513.897	0.101	1027794	keystroke_a	a	n/a
514.0125	0.0575	1028025	keystroke_l	l	n/a
514.1285	0.1375	1028257	keystroke_Key.space	Key.space	n/a
514.316	0.09	1028632	keystroke_c	c	n/a
514.392	0.0575	1028784	keystroke_o	o	n/a
514.5515	0.058	1029103	keystroke_n	n	n/a
514.6525	0.072	1029305	keystroke_n	n	n/a
514.71	0.0805	1029420	keystroke_e	e	n/a
514.8865	0.0725	1029773	keystroke_c	c	n/a
515.146	0.043	1030292	keystroke_t	t	n/a
515.269	0.0665	1030538	keystroke_e	e	n/a
515.452	0.072	1030904	keystroke_d	d	n/a
515.8595	0.058	1031719	keystroke_Key.enter	Key.enter	n/a
515.922	8.853	1031844	prompt	n/a	guyana obtaining developmental remark\n
516.9495	0.0575	1033899	keystroke_g	g	n/a
517.021	0.0585	1034042	keystroke_u	u	n/a
517.195	0.0615	1034390	keystroke_y	y	n/a
517.273	0.0835	1034546	keystroke_a	a	n/a
517.4145	0.058	1034829	keystroke_n	n	n/a
517.5015	0.087	1035003	keystroke_a	a	n/a
518.168	0.1255	1036336	keystroke_Key.space	Key.space	n/a
518.4735	0.0875	1036947	keystroke_o	o	n/a
518.6185	0.0725	1037237	keystroke_b	b	n/a
518.7205	0.05	1037441	keystroke_t	t	n/a
518.8515	0.087	1037703	keystroke_a	a	n/a
519.0115	0.058	1038023	keystroke_i	i	n/a
519.2445	0.101	1038489	keystroke_n	n	n/a
519.462	0.0575	1038924	keystroke_i	i	n/a
519.578	0.073	1039156	keystroke_n	n	n/a
519.6805	0.0575	1039361	keystroke_g	g	n/a
519.8665	0.089	1039733	keystroke_Key.space	Key.space	n/a
520.057	0.0585	1040114	keystroke_d	d	n/a
520.2025	0.058	1040405	keystroke_e	e	n/a
520.4205	0.029	1040841	keystroke_v	v	n/a
520.595	0.0435	1041190	keystroke_e	e	n/a
520.867	0.048	1041734	keystroke_l	l	n/a
521.3445	0.179	1042689	keystroke_o	o	n/a
521.4945	0.088	1042989	keystroke_p	p	n/a
521.885	0.0745	1043770	keystroke_m	m	n/a
522.017	0.058	1044034	keystroke_e	e	n/a
522.1185	0.0435	1044237	keystroke_n	n	n/a
522.264	0.047	1044528	keystroke_t	t	n/a
522.5095	0.102	1045019	keystroke_a	a	n/a
522.7125	0.0605	1045425	keystroke_l	l	n/a
523.0025	0.1015	1046005	keystroke_Key.space	Key.space	n/a
523.235	0.065	1046470	keystroke_r	r	n/a
523.349	0.0745	1046698	keystroke_e	e	n/a
523.4665	0.073	1046933	keystroke_m	m	n/a
523.5975	0.087	1047195	keystroke_a	a	n/a
523.9455	0.0435	1047891	keystroke_r	r	n/a
524.048	0.0285	1048096	keystroke_k	k	n/a
524.715	0.058	1049430	keystroke_Key.enter	Key.enter	n/a
524.778	6.7035	1049556	prompt	n/a	watt describe benefits market\n
525.484	0.0725	1050968	keystroke_w	w	n/a
525.659	0.0725	1051318	keystroke_a	a	n/a
525.882	0.0815	1051764	keystroke_t	t	n/a
526.036	0.058	1052072	keystroke_t	t	n/a
526.2535	0.1045	1052507	keystroke_Key.space	Key.space	n/a
526.5145	0.0725	1053029	keystroke_d	d	n/a
526.6875	0.045	1053375	keystroke_e	e	n/a
526.819	0.08	1053638	keystroke_s	s	n/a
526.9635	0.0725	1053927	keystroke_c	c	n/a
527.1815	0.0425	1054363	keystroke_r	r	n/a
527.238	0.073	1054476	keystroke_i	i	n/a
527.4255	0.0725	1054851	keystroke_b	b	n/a
527.5125	0.0585	1055025	keystroke_e	e	n/a
527.745	0.075	1055490	keystroke_Key.space	Key.space	n/a
527.961	0.058	1055922	keystroke_b	b	n/a
528.034	0.0445	1056068	keystroke_e	e	n/a
528.824	0.0925	1057648	keystroke_n	n	n/a
528.932	0.0435	1057864	keystroke_e	e	n/a
529.3325	0.0755	1058665	keystroke_f	f	n/a
529.437	0.0595	1058874	keystroke_i	i	n/a
529.5695	0.057	1059139	keystroke_t	t	n/a
529.758	0.0645	1059516	keystroke_s	s	n/a
530.0025	0.102	1060005	keystroke_Key.space	Key.space	n/a
530.192	0.0445	1060384	keystroke_m	m	n/a
530.33	0.093	1060660	keystroke_a	a	n/a
530.626	0.0435	1061252	keystroke_r	r	n/a
530.7425	0.0805	1061485	keystroke_k	k	n/a
530.87	0.073	1061740	keystroke_e	e	n/a
531.0015	0.073	1062003	keystroke_t	t	n/a
531.421	0.0585	1062842	keystroke_Key.enter	Key.enter	n/a
531.4845	7.985	1062969	prompt	n/a	actor attorneys mitchell vegetarian\n
532.295	0.0825	1064590	keystroke_a	a	n/a
532.4795	0.0725	1064959	keystroke_c	c	n/a
532.712	0.059	1065424	keystroke_t	t	n/a
532.786	0.0655	1065572	keystroke_o	o	n/a
532.884	0.0435	1065768	keystroke_r	r	n/a
533.0575	0.117	1066115	keystroke_Key.space	Key.space	n/a
533.19	0.073	1066380	keystroke_a	a	n/a
533.3755	0.0435	1066751	keystroke_t	t	n/a
533.492	0.0575	1066984	keystroke_t	t	n/a
534.1445	0.0875	1068289	keystroke_o	o	n/a
534.358	0.0595	1068716	keystroke_r	r	n/a
534.491	0.117	1068982	keystroke_n	n	n/a
534.71	0.044	1069420	keystroke_e	e	n/a
534.797	0.084	1069594	keystroke_y	y	n/a
534.9685	0.0585	1069937	keystroke_s	s	n/a
535.144	0.102	1070288	keystroke_Key.space	Key.space	n/a
535.3555	0.1055	1070711	keystroke_m	m	n/a
535.5775	0.044	1071155	keystroke_i	i	n/a
535.68	0.117	1071360	keystroke_t	t	n/a
535.9965	0.0875	1071993	keystroke_c	c	n/a
536.0985	0.0585	1072197	keystroke_h	h	n/a
536.245	0.0435	1072490	keystroke_e	e	n/a
536.62	0.0435	1073240	keystroke_l	l	n/a
536.751	0.0585	1073502	keystroke_l	l	n/a
536.9365	0.087	1073873	keystroke_Key.space	Key.space	n/a
537.17	0.073	1074340	keystroke_v	v	n/a
537.348	0.066	1074696	keystroke_e	e	n/a
537.5165	0.0585	1075033	keystroke_g	g	n/a
537.6625	0.0735	1075325	keystroke_e	e	n/a
538.2265	0.0585	1076453	keystroke_t	t	n/a
538.455	0.0735	1076910	keystroke_a	a	n/a
538.631	0.073	1077262	keystroke_r	r	n/a
538.7625	0.0585	1077525	keystroke_i	i	n/a
538.867	0.08	1077734	keystroke_a	a	n/a
538.9615	0.059	1077923	keystroke_n	n	n/a
539.407	0.0615	1078814	keystroke_Key.enter	Key.enter	n/a
539.472	9.017	1078944	prompt	n/a	likely treaty correction brunette\n
540.238	0.0585	1080476	keystroke_l	l	n/a
540.37	0.065	1080740	keystroke_i	i	n/a
540.525	0.044	1081050	keystroke_e	e	n/a
540.554	0.044	1081108	keystroke_k	k	n/a
540.7295	0.0735	1081459	keystroke_l	l	n/a
540.9865	0.044	1081973	keystroke_y	y	n/a
541.845	0.076	1083690	keystroke_Key.backspace	Key.backspace	n/a
542.014	0.088	1084028	keystroke_Key.backspace	Key.backspace	n/a
542.175	0.0875	1084350	keystroke_Key.backspace	Key.backspace	n/a
542.3505	0.08	1084701	keystroke_Key.backspace	Key.backspace	n/a
542.681	0.073	1085362	keystroke_k	k	n/a
542.8275	0.0585	1085655	keystroke_e	e	n/a
542.967	0.044	1085934	keystroke_l	l	n/a
543.1865	0.0735	1086373	keystroke_y	y	n/a
543.428	0.103	1086856	keystroke_Key.space	Key.space	n/a
543.619	0.0585	1087238	keystroke_t	t	n/a
543.765	0.0585	1087530	keystroke_r	r	n/a
544.0505	0.1025	1088101	keystroke_e	e	n/a
544.1825	0.132	1088365	keystroke_a	a	n/a
544.3	0.11	1088600	keystroke_t	t	n/a
544.586	0.073	1089172	keystroke_y	y	n/a
544.8505	0.11	1089701	keystroke_Key.space	Key.space	n/a
545.3265	0.0645	1090653	keystroke_c	c	n/a
545.4075	0.073	1090815	keystroke_o	o	n/a
545.6125	0.0585	1091225	keystroke_r	r	n/a
545.745	0.073	1091490	keystroke_r	r	n/a
545.833	0.1095	1091666	keystroke_e	e	n/a
546.0305	0.088	1092061	keystroke_c	c	n/a
546.309	0.0955	1092618	keystroke_t	t	n/a
546.388	0.119	1092776	keystroke_i	i	n/a
546.4485	0.1025	1092897	keystroke_o	o	n/a
546.6095	0.0735	1093219	keystroke_n	n	n/a
546.742	0.073	1093484	keystroke_Key.space	Key.space	n/a
546.91	0.088	1093820	keystroke_b	b	n/a
547.0275	0.044	1094055	keystroke_r	r	n/a
547.13	0.0735	1094260	keystroke_u	u	n/a
547.2915	0.0915	1094583	keystroke_n	n	n/a
547.46	0.0735	1094920	keystroke_e	e	n/a
547.7395	0.0585	1095479	keystroke_t	t	n/a
547.9665	0.0145	1095933	keystroke_t	t	n/a
548.04	0.073	1096080	keystroke_e	e	n/a
548.4415	0.0455	1096883	keystroke_Key.enter	Key.enter	n/a
548.492	12.8425	1096984	prompt	n/a	target shakespeare scheduled exception\n
549.14	0.073	1098280	keystroke_t	t	n/a
549.316	0.088	1098632	keystroke_a	a	n/a
549.469	0.0735	1098938	keystroke_r	r	n/a
549.616	0.059	1099232	keystroke_g	g	n/a
549.7775	0.0885	1099555	keystroke_e	e	n/a
549.895	0.0945	1099790	keystroke_t	t	n/a
550.1075	0.1025	1100215	keystroke_Key.space	Key.space	n/a
550.328	0.073	1100656	keystroke_s	s	n/a
551.207	0.0735	1102414	keystroke_h	h	n/a
551.3245	0.0735	1102649	keystroke_a	a	n/a
551.4595	0.0325	1102919	keystroke_k	k	n/a
551.551	0.0735	1103102	keystroke_e	e	n/a
551.7415	0.059	1103483	keystroke_s	s	n/a
551.9515	0.075	1103903	keystroke_p	p	n/a
552.35	0.074	1104700	keystroke_e	e	n/a
552.4885	0.1175	1104977	keystroke_a	a	n/a
552.621	0.0585	1105242	keystroke_r	r	n/a
552.7825	0.0735	1105565	keystroke_e	e	n/a
552.9295	0.0795	1105859	keystroke_Key.space	Key.space	n/a
553.215	0.088	1106430	keystroke_s	s	n/a
553.5135	0.0455	1107027	keystroke_c	c	n/a
553.5885	0.0585	1107177	keystroke_h	h	n/a
553.7505	0.044	1107501	keystroke_e	e	n/a
554.791	0.06	1109582	keystroke_d	d	n/a
554.894	0.0735	1109788	keystroke_u	u	n/a
555.401	0.0435	1110802	keystroke_l	l	n/a
557.753	0.001	1115506	keystroke_e	e	n/a
557.9425	0.0605	1115885	keystroke_d	d	n/a
558.541	0.1325	1117082	keystroke_Key.space	Key.space	n/a
558.7325	0.0585	1117465	keystroke_e	e	n/a
559.12	0.1175	1118240	keystroke_c	c	n/a
559.581	0.0885	1119162	keystroke_Key.backspace	Key.backspace	n/a
559.7135	0.0735	1119427	keystroke_x	x	n/a
559.998	0.0885	1119996	keystroke_c	c	n/a
560.2045	0.0445	1120409	keystroke_e	e	n/a
560.3225	0.074	1120645	keystroke_p	p	n/a
560.548	0.0585	1121096	keystroke_t	t	n/a
560.636	0.1475	1121272	keystroke_i	i	n/a
560.695	0.118	1121390	keystroke_o	o	n/a
560.872	0.0745	1121744	keystroke_n	n	n/a
561.289	0.044	1122578	keystroke_Key.enter	Key.enter	n/a
561.3375	10.1155	1122675	prompt	n/a	certified indiana terry henry\n
562.2965	0.059	1124593	keystroke_c	c	n/a
562.534	0.109	1125068	keystroke_e	e	n/a
562.684	0.0815	1125368	keystroke_r	r	n/a
563.284	0.068	1126568	keystroke_t	t	n/a
563.3795	0.0545	1126759	keystroke_i	i	n/a
563.72	0.055	1127440	keystroke_f	f	n/a
563.843	0.0545	1127686	keystroke_i	i	n/a
564.143	0.0545	1128286	keystroke_e	e	n/a
564.32	0.041	1128640	keystroke_d	d	n/a
564.6885	0.0955	1129377	keystroke_Key.space	Key.space	n/a
564.8385	0.0545	1129677	keystroke_i	i	n/a
564.92	0.0545	1129840	keystroke_d	d	n/a
565.452	0.041	1130904	keystroke_Key.backspace	Key.backspace	n/a
565.643	0.0545	1131286	keystroke_n	n	n/a
565.7245	0.0685	1131449	keystroke_d	d	n/a
565.8335	0.041	1131667	keystroke_i	i	n/a
566.0385	0.068	1132077	keystroke_a	a	n/a
566.12	0.0545	1132240	keystroke_n	n	n/a
566.42	0.0685	1132840	keystroke_a	a	n/a
566.529	0.0685	1133058	keystroke_Key.space	Key.space	n/a
567.2655	0.068	1134531	keystroke_t	t	n/a
567.4565	0.0955	1134913	keystroke_e	e	n/a
567.5925	0.055	1135185	keystroke_r	r	n/a
567.7425	0.055	1135485	keystroke_r	r	n/a
567.92	0.0545	1135840	keystroke_y	y	n/a
568.097	0.0955	1136194	keystroke_Key.space	Key.space	n/a
568.3425	0.0545	1136685	keystroke_h	h	n/a
568.438	0.0545	1136876	keystroke_e	e	n/a
568.52	0.0545	1137040	keystroke_n	n	n/a
569.461	0.0815	1138922	keystroke_t	t	n/a
569.6655	0.027	1139331	keystroke_r	r	n/a
569.7745	0.0815	1139549	keystroke_y	y	n/a
570.156	0.0685	1140312	keystroke_Key.backspace	Key.backspace	n/a
570.306	0.0685	1140612	keystroke_Key.backspace	Key.backspace	n/a
570.647	0.0685	1141294	keystroke_Key.backspace	Key.backspace	n/a
570.8925	0.041	1141785	keystroke_r	r	n/a
570.9745	0.0545	1141949	keystroke_y	y	n/a
571.4105	0.041	1142821	keystroke_Key.enter	Key.enter	n/a
571.4575	7.821	1142915	prompt	n/a	prophet pillow bobby papua\n
572.256	0.0685	1144512	keystroke_p	p	n/a
572.365	0.041	1144730	keystroke_r	r	n/a
572.924	0.0685	1145848	keystroke_o	o	n/a
573.115	0.0545	1146230	keystroke_p	p	n/a
573.2925	0.0545	1146585	keystroke_h	h	n/a
573.4015	0.068	1146803	keystroke_e	e	n/a
573.579	0.068	1147158	keystroke_t	t	n/a
573.688	0.109	1147376	keystroke_Key.space	Key.space	n/a
573.865	0.0545	1147730	keystroke_p	p	n/a
574.0425	0.068	1148085	keystroke_i	i	n/a
574.2335	0.0405	1148467	keystroke_l	l	n/a
574.3425	0.068	1148685	keystroke_l	l	n/a
574.5195	0.041	1149039	keystroke_o	o	n/a
574.588	0.068	1149176	keystroke_w	w	n/a
574.6425	0.0955	1149285	keystroke_Key.space	Key.space	n/a
575.0515	0.027	1150103	keystroke_h	h	n/a
575.324	0.082	1150648	keystroke_o	o	n/a
575.706	0.068	1151412	keystroke_Key.backspace	Key.backspace	n/a
575.8285	0.082	1151657	keystroke_Key.backspace	Key.backspace	n/a
576.8795	0.0535	1153759	keystroke_b	b	n/a
577.0015	0.068	1154003	keystroke_o	o	n/a
577.274	0.0545	1154548	keystroke_b	b	n/a
577.4105	0.068	1154821	keystroke_b	b	n/a
577.5605	0.069	1155121	keystroke_y	y	n/a
577.751	0.123	1155502	keystroke_Key.space	Key.space	n/a
577.9285	0.068	1155857	keystroke_p	p	n/a
578.1195	0.0545	1156239	keystroke_a	a	n/a
578.5005	0.059	1157001	keystroke_p	p	n/a
578.7965	0.0595	1157593	keystroke_u	u	n/a
578.951	0.074	1157902	keystroke_a	a	n/a
579.232	0.0445	1158464	keystroke_Key.enter	Key.enter	n/a
579.281	10.0205	1158562	prompt	n/a	appeared paradise according tribunal\n
580.178	0.089	1160356	keystroke_a	a	n/a
580.252	0.0605	1160504	keystroke_p	p	n/a
580.406	0.0445	1160812	keystroke_p	p	n/a
580.5835	0.0595	1161167	keystroke_e	e	n/a
580.9005	0.104	1161801	keystroke_a	a	n/a
581.0485	0.089	1162097	keystroke_r	r	n/a
581.182	0.0595	1162364	keystroke_e	e	n/a
581.381	0.074	1162762	keystroke_d	d	n/a
581.47	0.104	1162940	keystroke_Key.space	Key.space	n/a
581.619	0.0745	1163238	keystroke_p	p	n/a
581.722	0.122	1163444	keystroke_a	a	n/a
581.965	0.0595	1163930	keystroke_r	r	n/a
582.084	0.0885	1164168	keystroke_a	a	n/a
582.306	0.066	1164612	keystroke_d	d	n/a
582.401	0.059	1164802	keystroke_i	i	n/a
