onset	duration	sample	value	key	prompt_text
1.176	10.073	2352	prompt	n/a	the quick brown fox jumps over a lazy dog\n
6.0715	0.043	12143	keystroke_t	t	n/a
6.1295	0.0915	12259	keystroke_h	h	n/a
6.2045	0.0915	12409	keystroke_e	e	n/a
6.296	0.089	12592	keystroke_Key.space	Key.space	n/a
6.4	0.15	12800	keystroke_q	q	n/a
6.521	0.06	13042	keystroke_u	u	n/a
6.67	0.09	13340	keystroke_i	i	n/a
6.776	0.1345	13552	keystroke_c	c	n/a
6.8955	0.06	13791	keystroke_k	k	n/a
7.0005	0.045	14001	keystroke_Key.space	Key.space	n/a
7.1505	0.09	14301	keystroke_b	b	n/a
7.271	0.09	14542	keystroke_r	r	n/a
7.376	0.075	14752	keystroke_o	o	n/a
7.496	0.105	14992	keystroke_w	w	n/a
7.616	0.075	15232	keystroke_n	n	n/a
7.736	0.075	15472	keystroke_Key.space	Key.space	n/a
7.826	0.09	15652	keystroke_f	f	n/a
7.946	0.105	15892	keystroke_o	o	n/a
8.111	0.105	16222	keystroke_x	x	n/a
8.231	0.06	16462	keystroke_Key.space	Key.space	n/a
8.3355	0.09	16671	keystroke_j	j	n/a
8.4705	0.09	16941	keystroke_u	u	n/a
8.6355	0.09	17271	keystroke_m	m	n/a
8.7555	0.09	17511	keystroke_p	p	n/a
8.921	0.105	17842	keystroke_s	s	n/a
9.055	0.076	18110	keystroke_Key.space	Key.space	n/a
9.236	0.105	18472	keystroke_o	o	n/a
9.3865	0.1045	18773	keystroke_v	v	n/a
9.5815	0.119	19163	keystroke_e	e	n/a
9.6555	0.09	19311	keystroke_r	r	n/a
9.7605	0.075	19521	keystroke_Key.space	Key.space	n/a
9.8505	0.1205	19701	keystroke_a	a	n/a
9.9555	0.06	19911	keystroke_Key.space	Key.space	n/a
10.075	0.1055	20150	keystroke_l	l	n/a
10.15	0.1055	20300	keystroke_a	a	n/a
10.3615	0.105	20723	keystroke_z	z	n/a
10.4955	0.075	20991	keystroke_y	y	n/a
10.5855	0.075	21171	keystroke_Key.space	Key.space	n/a
10.6755	0.105	21351	keystroke_d	d	n/a
10.7955	0.076	21591	keystroke_o	o	n/a
10.9155	0.09	21831	keystroke_g	g	n/a
11.1555	0.09	22311	keystroke_Key.enter	Key.enter	n/a
11.2555	7.7625	22511	prompt	n/a	argentina vast lafayette gregory\n
12.0115	0.119	24023	keystroke_a	a	n/a
12.1755	0.09	24351	keystroke_r	r	n/a
12.3405	0.075	24681	keystroke_g	g	n/a
12.4605	0.12	24921	keystroke_e	e	n/a
12.6255	0.09	25251	keystroke_n	n	n/a
12.8205	0.09	25641	keystroke_t	t	n/a
13.0155	0.075	26031	keystroke_i	i	n/a
13.2115	0.089	26423	keystroke_n	n	n/a
13.4055	0.15	26811	keystroke_a	a	n/a
13.6305	0.09	27261	keystroke_Key.space	Key.space	n/a
14.0355	0.09	28071	keystroke_v	v	n/a
14.1705	0.12	28341	keystroke_a	a	n/a
14.3205	0.105	28641	keystroke_s	s	n/a
14.5455	0.09	29091	keystroke_t	t	n/a
15.0405	0.12	30081	keystroke_Key.space	Key.space	n/a
15.4155	0.1055	30831	keystroke_l	l	n/a
15.551	0.1195	31102	keystroke_a	a	n/a
15.761	0.105	31522	keystroke_f	f	n/a
15.9555	0.135	31911	keystroke_a	a	n/a
16.2855	0.09	32571	keystroke_y	y	n/a
16.4955	0.09	32991	keystroke_e	e	n/a
16.7205	0.06	33441	keystroke_t	t	n/a
16.8555	0.075	33711	keystroke_t	t	n/a
17.0505	0.09	34101	keystroke_e	e	n/a
17.2455	0.09	34491	keystroke_Key.space	Key.space	n/a
17.5005	0.06	35001	keystroke_g	g	n/a
17.7255	0.075	35451	keystroke_r	r	n/a
17.8755	0.09	35751	keystroke_e	e	n/a
18.071	0.0895	36142	keystroke_g	g	n/a
18.2805	0.105	36561	keystroke_o	o	n/a
18.4455	0.09	36891	keystroke_r	r	n/a
18.6405	0.075	37281	keystroke_y	y	n/a
18.9105	0.105	37821	keystroke_Key.enter	Key.enter	n/a
19.023	8.6795	38046	prompt	n/a	kijiji alternate downloads scene\n
19.661	0.075	39322	keystroke_k	k	n/a
19.856	0.075	39712	keystroke_i	i	n/a
20.3355	0.09	40671	keystroke_j	j	n/a
20.5905	0.105	41181	keystroke_i	i	n/a
21.2955	0.09	42591	keystroke_j	j	n/a
21.4905	0.09	42981	keystroke_i	i	n/a
22.0905	0.09	44181	keystroke_Key.space	Key.space	n/a
22.3305	0.15	44661	keystroke_a	a	n/a
22.5105	0.09	45021	keystroke_l	l	n/a
22.7505	0.0895	45501	keystroke_t	t	n/a
22.976	0.089	45952	keystroke_e	e	n/a
23.185	0.091	46370	keystroke_r	r	n/a
23.3955	0.0905	46791	keystroke_n	n	n/a
23.531	0.1195	47062	keystroke_a	a	n/a
23.6805	0.105	47361	keystroke_t	t	n/a
23.9655	0.075	47931	keystroke_e	e	n/a
24.2805	0.075	48561	keystroke_Key.space	Key.space	n/a
24.6255	0.105	49251	keystroke_d	d	n/a
24.8055	0.12	49611	keystroke_o	o	n/a
24.9855	0.105	49971	keystroke_w	w	n/a
25.1355	0.075	50271	keystroke_n	n	n/a
25.3155	0.075	50631	keystroke_l	l	n/a
25.4655	0.075	50931	keystroke_o	o	n/a
25.5255	0.105	51051	keystroke_a	a	n/a
25.7205	0.075	51441	keystroke_d	d	n/a
25.9455	0.09	51891	keystroke_s	s	n/a
26.3055	0.105	52611	keystroke_Key.space	Key.space	n/a
26.5155	0.105	53031	keystroke_s	s	n/a
26.8305	0.045	53661	keystroke_c	c	n/a
26.9655	0.075	53931	keystroke_e	e	n/a
27.1155	0.09	54231	keystroke_n	n	n/a
27.2505	0.075	54501	keystroke_e	e	n/a
27.5655	0.135	55131	keystroke_Key.enter	Key.enter	n/a
27.708	7.975	55416	prompt	n/a	respondents agencies completed lamp\n
28.3005	0.105	56601	keystroke_r	r	n/a
28.3605	0.105	56721	keystroke_e	e	n/a
28.5705	0.105	57141	keystroke_s	s	n/a
28.7055	0.09	57411	keystroke_p	p	n/a
28.9155	0.075	57831	keystroke_o	o	n/a
29.0805	0.09	58161	keystroke_n	n	n/a
29.2005	0.075	58401	keystroke_d	d	n/a
29.3955	0.075	58791	keystroke_e	e	n/a
29.5305	0.12	59061	keystroke_n	n	n/a
29.7105	0.075	59421	keystroke_t	t	n/a
29.9505	0.105	59901	keystroke_s	s	n/a
30.3705	0.105	60741	keystroke_Key.space	Key.space	n/a
30.6555	0.12	61311	keystroke_a	a	n/a
30.8505	0.075	61701	keystroke_g	g	n/a
31.0005	0.09	62001	keystroke_e	e	n/a
31.1505	0.105	62301	keystroke_n	n	n/a
31.2855	0.105	62571	keystroke_c	c	n/a
31.4505	0.12	62901	keystroke_i	i	n/a
31.6155	0.06	63231	keystroke_e	e	n/a
31.7355	0.105	63471	keystroke_s	s	n/a
32.0955	0.105	64191	keystroke_Key.space	Key.space	n/a
32.5455	0.12	65091	keystroke_c	c	n/a
32.6955	0.09	65391	keystroke_o	o	n/a
32.8305	0.105	65661	keystroke_m	m	n/a
32.9805	0.09	65961	keystroke_p	p	n/a
33.1755	0.09	66351	keystroke_l	l	n/a
33.2505	0.09	66501	keystroke_e	e	n/a
33.4005	0.09	66801	keystroke_t	t	n/a
33.5655	0.06	67131	keystroke_e	e	n/a
33.7455	0.075	67491	keystroke_d	d	n/a
33.9255	0.09	67851	keystroke_Key.space	Key.space	n/a
34.1505	0.105	68301	keystroke_l	l	n/a
34.2705	0.15	68541	keystroke_a	a	n/a
34.4055	0.075	68811	keystroke_m	m	n/a
34.5405	0.12	69081	keystroke_p	p	n/a
34.7355	0.09	69471	keystroke_s	s	n/a
35.3355	0.075	70671	keystroke_Key.backspace	Key.backspace	n/a
35.5905	0.09	71181	keystroke_Key.enter	Key.enter	n/a
35.6875	9.2655	71375	prompt	n/a	portrait suffering streams development\n
36.5055	0.075	73011	keystroke_p	p	n/a
36.7155	0.09	73431	keystroke_o	o	n/a
36.8505	0.09	73701	keystroke_r	r	n/a
37.0905	0.09	74181	keystroke_t	t	n/a
37.3305	0.105	74661	keystroke_r	r	n/a
37.5265	0.119	75053	keystroke_a	a	n/a
37.8405	0.105	75681	keystroke_i	i	n/a
38.0805	0.105	76161	keystroke_t	t	n/a
38.6505	0.09	77301	keystroke_Key.space	Key.space	n/a
38.8605	0.105	77721	keystroke_s	s	n/a
39.0105	0.075	78021	keystroke_u	u	n/a
39.1305	0.075	78261	keystroke_f	f	n/a
39.2655	0.09	78531	keystroke_f	f	n/a
39.4605	0.12	78921	keystroke_e	e	n/a
39.6255	0.105	79251	keystroke_r	r	n/a
39.8655	0.105	79731	keystroke_i	i	n/a
40.1055	0.12	80211	keystroke_n	n	n/a
40.3605	0.075	80721	keystroke_g	g	n/a
40.5555	0.09	81111	keystroke_Key.space	Key.space	n/a
40.6905	0.106	81381	keystroke_s	s	n/a
40.8405	0.061	81681	keystroke_u	u	n/a
41.1255	0.09	82251	keystroke_Key.backspace	Key.backspace	n/a
41.2755	0.09	82551	keystroke_t	t	n/a
41.4865	0.104	82973	keystroke_r	r	n/a
41.5605	0.075	83121	keystroke_e	e	n/a
41.7405	0.135	83481	keystroke_a	a	n/a
41.9055	0.12	83811	keystroke_m	m	n/a
42.1305	0.105	84261	keystroke_s	s	n/a
42.3705	0.105	84741	keystroke_Key.space	Key.space	n/a
42.7005	0.09	85401	keystroke_d	d	n/a
42.9105	0.075	85821	keystroke_e	e	n/a
43.1665	0.059	86333	keystroke_v	v	n/a
43.3605	0.075	86721	keystroke_e	e	n/a
43.5855	0.075	87171	keystroke_l	l	n/a
43.8105	0.075	87621	keystroke_o	o	n/a
44.0205	0.06	88041	keystroke_p	p	n/a
44.2305	0.09	88461	keystroke_m	m	n/a
44.3805	0.105	88761	keystroke_e	e	n/a
44.5005	0.105	89001	keystroke_n	n	n/a
44.6365	0.074	89273	keystroke_t	t	n/a
44.8605	0.09	89721	keystroke_Key.enter	Key.enter	n/a
44.9575	5.8455	89915	prompt	n/a	pump view validation carbon\n
45.5205	0.075	91041	keystroke_p	p	n/a
45.7305	0.075	91461	keystroke_u	u	n/a
45.9255	0.075	91851	keystroke_m	m	n/a
46.1055	0.075	92211	keystroke_p	p	n/a
46.2705	0.075	92541	keystroke_Key.space	Key.space	n/a
46.4055	0.105	92811	keystroke_v	v	n/a
46.5555	0.091	93111	keystroke_i	i	n/a
46.6905	0.076	93381	keystroke_e	e	n/a
46.8705	0.091	93741	keystroke_w	w	n/a
47.0205	0.09	94041	keystroke_Key.space	Key.space	n/a
47.2005	0.09	94401	keystroke_v	v	n/a
47.3805	0.106	94761	keystroke_a	a	n/a
47.7115	0.089	95423	keystroke_l	l	n/a
47.9505	0.075	95901	keystroke_i	i	n/a
48.1005	0.105	96201	keystroke_d	d	n/a
48.2655	0.12	96531	keystroke_a	a	n/a
48.4615	0.089	96923	keystroke_t	t	n/a
48.6105	0.105	97221	keystroke_i	i	n/a
48.7765	0.134	97553	keystroke_o	o	n/a
48.8955	0.105	97791	keystroke_n	n	n/a
49.1355	0.075	98271	keystroke_Key.space	Key.space	n/a
49.4955	0.09	98991	keystroke_c	c	n/a
49.6915	0.119	99383	keystroke_a	a	n/a
49.8705	0.075	99741	keystroke_r	r	n/a
50.0805	0.06	100161	keystroke_b	b	n/a
50.2755	0.061	100551	keystroke_o	o	n/a
50.4555	0.075	100911	keystroke_n	n	n/a
50.7105	0.09	101421	keystroke_Key.enter	Key.enter	n/a
50.8075	5.695	101615	prompt	n/a	beats advance noticed upon\n
51.4755	0.075	102951	keystroke_b	b	n/a
51.6105	0.075	103221	keystroke_e	e	n/a
51.7455	0.12	103491	keystroke_a	a	n/a
51.9105	0.075	103821	keystroke_t	t	n/a
52.1205	0.09	104241	keystroke_s	s	n/a
52.2555	0.09	104511	keystroke_Key.space	Key.space	n/a
52.4205	0.106	104841	keystroke_a	a	n/a
52.6155	0.06	105231	keystroke_d	d	n/a
52.7505	0.105	105501	keystroke_v	v	n/a
52.9155	0.12	105831	keystroke_a	a	n/a
53.1105	0.105	106221	keystroke_n	n	n/a
53.2915	0.089	106583	keystroke_c	c	n/a
53.5155	0.075	107031	keystroke_e	e	n/a
53.7705	0.09	107541	keystroke_Key.space	Key.space	n/a
54.1305	0.075	108261	keystroke_n	n	n/a
54.2805	0.12	108561	keystroke_o	o	n/a
54.4455	0.09	108891	keystroke_t	t	n/a
54.5955	0.105	109191	keystroke_i	i	n/a
54.7305	0.075	109461	keystroke_c	c	n/a
54.9115	0.059	109823	keystroke_e	e	n/a
55.1055	0.075	110211	keystroke_d	d	n/a
55.3155	0.075	110631	keystroke_Key.space	Key.space	n/a
55.5555	0.09	111111	keystroke_u	u	n/a
55.7815	0.06	111563	keystroke_p	p	n/a
55.9755	0.06	111951	keystroke_o	o	n/a
56.1405	0.075	112281	keystroke_n	n	n/a
56.4105	0.09	112821	keystroke_Key.enter	Key.enter	n/a
56.5095	7.838	113019	prompt	n/a	translated delhi height brandon\n
57.1915	0.074	114383	keystroke_t	t	n/a
57.3705	0.075	114741	keystroke_r	r	n/a
57.4615	0.134	114923	keystroke_a	a	n/a
57.6405	0.105	115281	keystroke_n	n	n/a
57.7615	0.104	115523	keystroke_s	s	n/a
57.9405	0.09	115881	keystroke_l	l	n/a
58.0465	0.134	116093	keystroke_a	a	n/a
58.1655	0.076	116331	keystroke_t	t	n/a
58.3455	0.06	116691	keystroke_e	e	n/a
58.5555	0.076	117111	keystroke_d	d	n/a
58.6905	0.105	117381	keystroke_Key.space	Key.space	n/a
58.8705	0.09	117741	keystroke_d	d	n/a
59.1705	0.075	118341	keystroke_e	e	n/a
59.5905	0.09	119181	keystroke_l	l	n/a
59.8905	0.075	119781	keystroke_h	h	n/a
60.1155	0.076	120231	keystroke_i	i	n/a
60.3405	0.075	120681	keystroke_Key.space	Key.space	n/a
60.5655	0.075	121131	keystroke_h	h	n/a
60.8065	0.089	121613	keystroke_e	e	n/a
61.0915	0.089	122183	keystroke_i	i	n/a
61.2555	0.105	122511	keystroke_g	g	n/a
61.4205	0.09	122841	keystroke_h	h	n/a
61.5405	0.09	123081	keystroke_t	t	n/a
62.8305	0.09	125661	keystroke_Key.space	Key.space	n/a
63.2055	0.106	126411	keystroke_b	b	n/a
63.3255	0.091	126651	keystroke_r	r	n/a
63.4305	0.136	126861	keystroke_a	a	n/a
63.5675	0.059	127135	keystroke_n	n	n/a
63.6705	0.09	127341	keystroke_d	d	n/a
63.7905	0.105	127581	keystroke_o	o	n/a
63.9705	0.09	127941	keystroke_n	n	n/a
64.2405	0.105	128481	keystroke_Key.enter	Key.enter	n/a
64.3525	6.925	128705	prompt	n/a	draw responding parks consistency\n
64.9615	0.074	129923	keystroke_d	d	n/a
65.1555	0.06	130311	keystroke_r	r	n/a
65.3205	0.105	130641	keystroke_a	a	n/a
65.5005	0.105	131001	keystroke_w	w	n/a
65.6805	0.09	131361	keystroke_Key.space	Key.space	n/a
66.0715	0.074	132143	keystroke_r	r	n/a
66.2215	0.074	132443	keystroke_e	e	n/a
66.4315	0.074	132863	keystroke_s	s	n/a
66.5505	0.09	133101	keystroke_p	p	n/a
66.7465	0.074	133493	keystroke_o	o	n/a
66.9405	0.09	133881	keystroke_n	n	n/a
67.1055	0.12	134211	keystroke_d	d	n/a
67.2855	0.09	134571	keystroke_i	i	n/a
67.4655	0.105	134931	keystroke_n	n	n/a
67.6615	0.075	135323	keystroke_g	g	n/a
67.7955	0.09	135591	keystroke_Key.space	Key.space	n/a
67.9915	0.089	135983	keystroke_p	p	n/a
68.1115	0.105	136223	keystroke_a	a	n/a
68.2465	0.089	136493	keystroke_r	r	n/a
68.4255	0.091	136851	keystroke_k	k	n/a
68.6065	0.105	137213	keystroke_s	s	n/a
68.7405	0.09	137481	keystroke_Key.space	Key.space	n/a
68.8765	0.104	137753	keystroke_c	c	n/a
68.9965	0.074	137993	keystroke_o	o	n/a
69.2055	0.09	138411	keystroke_n	n	n/a
69.6415	0.089	139283	keystroke_s	s	n/a
69.8505	0.091	139701	keystroke_i	i	n/a
70.0465	0.074	140093	keystroke_s	s	n/a
70.2415	0.089	140483	keystroke_t	t	n/a
70.3755	0.106	140751	keystroke_e	e	n/a
70.5565	0.105	141113	keystroke_n	n	n/a
70.7215	0.105	141443	keystroke_c	c	n/a
70.9155	0.075	141831	keystroke_y	y	n/a
71.1855	0.09	142371	keystroke_Key.enter	Key.enter	n/a
71.282	10.5255	142564	prompt	n/a	separation creator activists survivor\n
71.9365	0.075	143873	keystroke_s	s	n/a
72.2215	0.074	144443	keystroke_e	e	n/a
72.4615	0.075	144923	keystroke_p	p	n/a
72.8515	0.045	145703	keystroke_r	r	n/a
73.4665	0.074	146933	keystroke_Key.backspace	Key.backspace	n/a
73.7205	0.091	147441	keystroke_a	a	n/a
73.9605	0.076	147921	keystroke_r	r	n/a
74.1405	0.121	148281	keystroke_a	a	n/a
74.4555	0.016	148911	keystroke_t	t	n/a
74.5305	0.091	149061	keystroke_i	i	n/a
74.7405	0.075	149481	keystroke_o	o	n/a
74.9215	0.089	149843	keystroke_n	n	n/a
75.3255	0.09	150651	keystroke_Key.space	Key.space	n/a
75.8955	0.075	151791	keystroke_c	c	n/a
76.0765	0.06	152153	keystroke_r	r	n/a
76.1955	0.091	152391	keystroke_e	e	n/a
76.3905	0.09	152781	keystroke_a	a	n/a
76.4955	0.09	152991	keystroke_t	t	n/a
76.6755	0.105	153351	keystroke_o	o	n/a
76.8255	0.091	153651	keystroke_r	r	n/a
77.0215	0.074	154043	keystroke_Key.space	Key.space	n/a
77.4265	0.135	154853	keystroke_a	a	n/a
77.6665	0.105	155333	keystroke_c	c	n/a
77.9515	0.104	155903	keystroke_t	t	n/a
78.1915	0.134	156383	keystroke_i	i	n/a
78.4305	0.09	156861	keystroke_v	v	n/a
78.6415	0.105	157283	keystroke_i	i	n/a
78.8515	0.09	157703	keystroke_s	s	n/a
79.0915	0.089	158183	keystroke_t	t	n/a
79.4815	0.075	158963	keystroke_s	s	n/a
79.7215	0.089	159443	keystroke_Key.space	Key.space	n/a
79.9315	0.075	159863	keystroke_s	s	n/a
80.306	0.105	160612	keystroke_u	u	n/a
80.4555	0.091	160911	keystroke_r	r	n/a
80.6815	0.105	161363	keystroke_v	v	n/a
80.8615	0.1045	161723	keystroke_i	i	n/a
81.041	0.1055	162082	keystroke_v	v	n/a
81.2505	0.106	162501	keystroke_o	o	n/a
81.4305	0.0755	162861	keystroke_r	r	n/a
81.701	0.105	163402	keystroke_Key.enter	Key.enter	n/a
81.813	9.175	163626	prompt	n/a	commerce thats responsibility tracked\n
82.496	0.105	164992	keystroke_c	c	n/a
82.661	0.0905	165322	keystroke_o	o	n/a
82.886	0.06	165772	keystroke_m	m	n/a
83.0505	0.075	166101	keystroke_m	m	n/a
83.231	0.09	166462	keystroke_e	e	n/a
83.4555	0.0745	166911	keystroke_r	r	n/a
83.726	0.075	167452	keystroke_c	c	n/a
83.951	0.09	167902	keystroke_e	e	n/a
84.116	0.075	168232	keystroke_Key.space	Key.space	n/a
84.221	0.135	168442	keystroke_t	t	n/a
84.3715	0.0895	168743	keystroke_h	h	n/a
84.506	0.149	169012	keystroke_a	a	n/a
84.67	0.076	169340	keystroke_t	t	n/a
84.881	0.105	169762	keystroke_s	s	n/a
85.075	0.09	170150	keystroke_Key.space	Key.space	n/a
85.316	0.075	170632	keystroke_r	r	n/a
85.405	0.105	170810	keystroke_e	e	n/a
85.631	0.089	171262	keystroke_s	s	n/a
85.736	0.105	171472	keystroke_p	p	n/a
85.961	0.06	171922	keystroke_o	o	n/a
86.125	0.091	172250	keystroke_n	n	n/a
86.291	0.12	172582	keystroke_s	s	n/a
86.516	0.105	173032	keystroke_i	i	n/a
86.8615	0.0895	173723	keystroke_b	b	n/a
87.73	0.106	175460	keystroke_i	i	n/a
87.941	0.09	175882	keystroke_l	l	n/a
88.166	0.105	176332	keystroke_i	i	n/a
88.361	0.09	176722	keystroke_t	t	n/a
88.556	0.105	177112	keystroke_y	y	n/a
89.32	0.091	178640	keystroke_Key.space	Key.space	n/a
89.741	0.06	179482	keystroke_t	t	n/a
89.891	0.09	179782	keystroke_r	r	n/a
89.966	0.12	179932	keystroke_a	a	n/a
90.131	0.105	180262	keystroke_c	c	n/a
90.296	0.09	180592	keystroke_k	k	n/a
90.461	0.075	180922	keystroke_e	e	n/a
90.655	0.076	181310	keystroke_d	d	n/a
90.881	0.105	181762	keystroke_Key.enter	Key.enter	n/a
90.993	6.9685	181986	prompt	n/a	guru ongoing taxes precious\n
91.796	0.105	183592	keystroke_g	g	n/a
91.976	0.135	183952	keystroke_u	u	n/a
92.186	0.075	184372	keystroke_r	r	n/a
92.411	0.105	184822	keystroke_u	u	n/a
92.681	0.075	185362	keystroke_Key.space	Key.space	n/a
92.9055	0.09	185811	keystroke_o	o	n/a
93.1605	0.09	186321	keystroke_n	n	n/a
93.3405	0.135	186681	keystroke_g	g	n/a
93.5055	0.12	187011	keystroke_o	o	n/a
93.7295	0.076	187459	keystroke_i	i	n/a
93.9255	0.09	187851	keystroke_n	n	n/a
94.1805	0.075	188361	keystroke_g	g	n/a
94.6905	0.105	189381	keystroke_Key.space	Key.space	n/a
94.8405	0.09	189681	keystroke_t	t	n/a
94.9755	0.105	189951	keystroke_a	a	n/a
95.2305	0.03	190461	keystroke_x	x	n/a
95.3955	0.06	190791	keystroke_e	e	n/a
95.5905	0.09	191181	keystroke_s	s	n/a
96.1155	0.09	192231	keystroke_Key.space	Key.space	n/a
96.3555	0.105	192711	keystroke_p	p	n/a
96.5355	0.09	193071	keystroke_r	r	n/a
96.7005	0.09	193401	keystroke_e	e	n/a
96.9255	0.09	193851	keystroke_c	c	n/a
97.0755	0.075	194151	keystroke_i	i	n/a
97.2405	0.09	194481	keystroke_o	o	n/a
97.436	0.1045	194872	keystroke_u	u	n/a
97.6005	0.06	195201	keystroke_s	s	n/a
97.8705	0.09	195741	keystroke_Key.enter	Key.enter	n/a
97.9665	7.375	195933	prompt	n/a	andrew james get doors\n
98.5605	0.135	197121	keystroke_a	a	n/a
98.7405	0.105	197481	keystroke_n	n	n/a
98.8755	0.09	197751	keystroke_d	d	n/a
99.0855	0.075	198171	keystroke_r	r	n/a
99.3555	0.045	198711	keystroke_e	e	n/a
99.9255	0.105	199851	keystroke_w	w	n/a
100.3455	0.09	200691	keystroke_Key.space	Key.space	n/a
100.6005	0.09	201201	keystroke_j	j	n/a
100.7205	0.135	201441	keystroke_a	a	n/a
100.8705	0.12	201741	keystroke_m	m	n/a
101.0355	0.045	202071	keystroke_e	e	n/a
101.2155	0.105	202431	keystroke_s	s	n/a
101.6505	0.075	203301	keystroke_Key.space	Key.space	n/a
101.9505	0.135	203901	keystroke_g	g	n/a
102.2055	0.075	204411	keystroke_e	e	n/a
102.3105	0.105	204621	keystroke_t	t	n/a
102.5805	0.09	205161	keystroke_Key.space	Key.space	n/a
102.8055	0.09	205611	keystroke_d	d	n/a
102.9705	0.09	205941	keystroke_o	o	n/a
103.1655	0.105	206331	keystroke_o	o	n/a
103.3305	0.06	206661	keystroke_r	r	n/a
103.5255	0.075	207051	keystroke_s	s	n/a
105.2805	0.06	210561	keystroke_Key.enter	Key.enter	n/a
105.346	8.3065	210692	prompt	n/a	sharon supplier analytical clause\n
106.1355	0.105	212271	keystroke_s	s	n/a
106.3305	0.12	212661	keystroke_h	h	n/a
106.4515	0.074	212903	keystroke_a	a	n/a
106.5705	0.105	213141	keystroke_r	r	n/a
106.795	0.091	213590	keystroke_o	o	n/a
107.005	0.09	214010	keystroke_n	n	n/a
107.185	0.09	214370	keystroke_Key.space	Key.space	n/a
107.3355	0.105	214671	keystroke_s	s	n/a
107.4705	0.075	214941	keystroke_u	u	n/a
107.6955	0.09	215391	keystroke_p	p	n/a
107.8755	0.075	215751	keystroke_p	p	n/a
108.0855	0.075	216171	keystroke_l	l	n/a
108.2955	0.09	216591	keystroke_i	i	n/a
108.5355	0.09	217071	keystroke_e	e	n/a
108.7605	0.075	217521	keystroke_r	r	n/a
109.4055	0.09	218811	keystroke_Key.space	Key.space	n/a
109.5855	0.135	219171	keystroke_a	a	n/a
109.8105	0.105	219621	keystroke_n	n	n/a
109.9905	0.12	219981	keystroke_a	a	n/a
110.2905	0.105	220581	keystroke_l	l	n/a
110.8455	0.075	221691	keystroke_y	y	n/a
110.9955	0.105	221991	keystroke_t	t	n/a
111.1305	0.12	222261	keystroke_i	i	n/a
111.2955	0.09	222591	keystroke_c	c	n/a
111.4605	0.105	222921	keystroke_a	a	n/a
111.6705	0.075	223341	keystroke_l	l	n/a
111.8205	0.09	223641	keystroke_Key.space	Key.space	n/a
112.0455	0.105	224091	keystroke_c	c	n/a
112.3305	0.075	224661	keystroke_l	l	n/a
112.6755	0.12	225351	keystroke_a	a	n/a
112.9155	0.09	225831	keystroke_u	u	n/a
113.0955	0.09	226191	keystroke_s	s	n/a
113.3055	0.06	226611	keystroke_e	e	n/a
113.5455	0.105	227091	keystroke_Key.enter	Key.enter	n/a
113.6575	6.43	227315	prompt	n/a	curves dishes standing mind\n
114.4605	0.09	228921	keystroke_c	c	n/a
114.6255	0.09	229251	keystroke_u	u	n/a
114.7305	0.075	229461	keystroke_r	r	n/a
114.8805	0.075	229761	keystroke_v	v	n/a
115.0905	0.045	230181	keystroke_e	e	n/a
115.3005	0.09	230601	keystroke_s	s	n/a
115.5855	0.09	231171	keystroke_Key.space	Key.space	n/a
115.7955	0.09	231591	keystroke_d	d	n/a
115.9455	0.105	231891	keystroke_i	i	n/a
116.2155	0.105	232431	keystroke_s	s	n/a
116.4405	0.105	232881	keystroke_h	h	n/a
116.6055	0.06	233211	keystroke_e	e	n/a
116.7855	0.105	233571	keystroke_s	s	n/a
117.2655	0.09	234531	keystroke_Key.space	Key.space	n/a
117.6105	0.12	235221	keystroke_s	s	n/a
117.8355	0.075	235671	keystroke_t	t	n/a
117.9555	0.135	235911	keystroke_a	a	n/a
118.1805	0.09	236361	keystroke_n	n	n/a
118.3155	0.12	236631	keystroke_d	d	n/a
118.4505	0.075	236901	keystroke_i	i	n/a
118.6455	0.12	237291	keystroke_n	n	n/a
118.8255	0.09	237651	keystroke_g	g	n/a
119.0205	0.09	238041	keystroke_Key.space	Key.space	n/a
119.2455	0.09	238491	keystroke_m	m	n/a
119.4405	0.06	238881	keystroke_i	i	n/a
119.6205	0.09	239241	keystroke_n	n	n/a
119.7705	0.105	239541	keystroke_d	d	n/a
119.9805	0.105	239961	keystroke_Key.enter	Key.enter	n/a
120.093	7.5545	240186	prompt	n/a	trim fuji trails significance\n
120.8055	0.075	241611	keystroke_t	t	n/a
120.9705	0.09	241941	keystroke_r	r	n/a
121.1055	0.075	242211	keystroke_i	i	n/a
121.3005	0.09	242601	keystroke_m	m	n/a
121.4655	0.09	242931	keystroke_Key.space	Key.space	n/a
121.6755	0.105	243351	keystroke_f	f	n/a
121.8855	0.075	243771	keystroke_u	u	n/a
122.4705	0.075	244941	keystroke_i	i	n/a
122.8905	0.075	245781	keystroke_Key.backspace	Key.backspace	n/a
123.1455	0.075	246291	keystroke_j	j	n/a
123.3705	0.09	246741	keystroke_i	i	n/a
123.5955	0.09	247191	keystroke_Key.space	Key.space	n/a
123.7755	0.075	247551	keystroke_t	t	n/a
123.9405	0.075	247881	keystroke_r	r	n/a
124.0905	0.135	248181	keystroke_a	a	n/a
124.2705	0.075	248541	keystroke_i	i	n/a
124.4205	0.105	248841	keystroke_l	l	n/a
124.6005	0.12	249201	keystroke_s	s	n/a
124.9155	0.015	249831	keystroke_Key.space	Key.space	n/a
125.0205	0.12	250041	keystroke_s	s	n/a
125.2755	0.105	250551	keystroke_i	i	n/a
125.5605	0.09	251121	keystroke_g	g	n/a
125.8605	0.075	251721	keystroke_n	n	n/a
126.0855	0.105	252171	keystroke_i	i	n/a
126.2805	0.105	252561	keystroke_f	f	n/a
126.5055	0.09	253011	keystroke_i	i	n/a
126.7755	0.015	253551	keystroke_c	c	n/a
126.8505	0.12	253701	keystroke_a	a	n/a
127.0605	0.075	254121	keystroke_n	n	n/a
127.1805	0.105	254361	keystroke_c	c	n/a
127.3005	0.09	254601	keystroke_e	e	n/a
127.5555	0.09	255111	keystroke_Key.enter	Key.enter	n/a
127.653	6.325	255306	prompt	n/a	america extend became buying\n
128.2755	0.105	256551	keystroke_a	a	n/a
128.4855	0.075	256971	keystroke_m	m	n/a
128.6655	0.105	257331	keystroke_e	e	n/a
128.7405	0.09	257481	keystroke_r	r	n/a
128.9355	0.09	257871	keystroke_i	i	n/a
129.0555	0.09	258111	keystroke_c	c	n/a
129.2355	0.105	258471	keystroke_a	a	n/a
129.4305	0.09	258861	keystroke_Key.space	Key.space	n/a
129.7905	0.06	259581	keystroke_e	e	n/a
129.9855	0.12	259971	keystroke_x	x	n/a
130.1955	0.075	260391	keystroke_t	t	n/a
130.3155	0.105	260631	keystroke_e	e	n/a
130.5405	0.105	261081	keystroke_n	n	n/a
130.7655	0.09	261531	keystroke_d	d	n/a
130.9155	0.09	261831	keystroke_Key.space	Key.space	n/a
131.2005	0.075	262401	keystroke_b	b	n/a
131.3505	0.075	262701	keystroke_e	e	n/a
131.5605	0.075	263121	keystroke_c	c	n/a
131.7105	0.12	263421	keystroke_a	a	n/a
131.8905	0.105	263781	keystroke_m	m	n/a
132.1455	0.09	264291	keystroke_e	e	n/a
132.3855	0.09	264771	keystroke_Key.space	Key.space	n/a
132.6855	0.075	265371	keystroke_b	b	n/a
132.8805	0.06	265761	keystroke_u	u	n/a
133.0605	0.075	266121	keystroke_y	y	n/a
133.2705	0.075	266541	keystroke_i	i	n/a
133.4355	0.09	266871	keystroke_n	n	n/a
133.6305	0.075	267261	keystroke_g	g	n/a
133.8705	0.105	267741	keystroke_Key.enter	Key.enter	n/a
133.9825	5.8	267965	prompt	n/a	mustang food archive gras\n
134.5755	0.075	269151	keystroke_m	m	n/a
134.7855	0.075	269571	keystroke_u	u	n/a
134.8905	0.075	269781	keystroke_s	s	n/a
135.0555	0.075	270111	keystroke_t	t	n/a
135.1905	0.135	270381	keystroke_a	a	n/a
135.3555	0.105	270711	keystroke_n	n	n/a
135.5505	0.09	271101	keystroke_g	g	n/a
135.7155	0.075	271431	keystroke_Key.space	Key.space	n/a
135.8805	0.09	271761	keystroke_f	f	n/a
136.1055	0.075	272211	keystroke_o	o	n/a
136.2855	0.09	272571	keystroke_o	o	n/a
136.4055	0.09	272811	keystroke_d	d	n/a
136.5405	0.09	273081	keystroke_Key.space	Key.space	n/a
136.6605	0.105	273321	keystroke_a	a	n/a
136.9005	0.06	273801	keystroke_r	r	n/a
137.1405	0.09	274281	keystroke_c	c	n/a
137.3205	0.09	274641	keystroke_h	h	n/a
137.5605	0.105	275121	keystroke_i	i	n/a
137.7405	0.09	275481	keystroke_v	v	n/a
138.0105	0.075	276021	keystroke_e	e	n/a
138.2355	0.075	276471	keystroke_Key.space	Key.space	n/a
138.8805	0.06	277761	keystroke_g	g	n/a
139.0605	0.06	278121	keystroke_r	r	n/a
139.2255	0.12	278451	keystroke_a	a	n/a
139.4205	0.09	278841	keystroke_s	s	n/a
139.6755	0.105	279351	keystroke_Key.enter	Key.enter	n/a
139.786	6.761	279572	prompt	n/a	afford remix governing with\n
140.3205	0.12	280641	keystroke_a	a	n/a
140.6355	0.075	281271	keystroke_f	f	n/a
140.8755	0.09	281751	keystroke_f	f	n/a
141.1005	0.09	282201	keystroke_o	o	n/a
141.3255	0.075	282651	keystroke_r	r	n/a
141.5655	0.075	283131	keystroke_d	d	n/a
141.7755	0.075	283551	keystroke_Key.space	Key.space	n/a
142.1205	0.075	284241	keystroke_r	r	n/a
142.3005	0.09	284601	keystroke_e	e	n/a
142.5255	0.075	285051	keystroke_m	m	n/a
142.7055	0.09	285411	keystroke_i	i	n/a
142.9005	0.09	285801	keystroke_x	x	n/a
143.1255	0.09	286251	keystroke_Key.space	Key.space	n/a
143.3205	0.09	286641	keystroke_g	g	n/a
143.4855	0.09	286971	keystroke_o	o	n/a
143.5905	0.075	287181	keystroke_v	v	n/a
143.8005	0.09	287601	keystroke_e	e	n/a
143.9955	0.06	287991	keystroke_r	r	n/a
144.2355	0.09	288471	keystroke_n	n	n/a
144.4605	0.105	288921	keystroke_i	i	n/a
144.7905	0.105	289581	keystroke_n	n	n/a
144.9705	0.09	289941	keystroke_g	g	n/a
145.3455	0.075	290691	keystroke_Key.space	Key.space	n/a
145.8255	0.105	291651	keystroke_w	w	n/a
145.9755	0.075	291951	keystroke_i	i	n/a
146.0955	0.09	292191	keystroke_t	t	n/a
146.2305	0.075	292461	keystroke_h	h	n/a
146.4405	0.105	292881	keystroke_Key.enter	Key.enter	n/a
146.5535	7.119	293107	prompt	n/a	theta bicycle grey annotation\n
147.2055	0.09	294411	keystroke_t	t	n/a
147.37	0.1055	294740	keystroke_h	h	n/a
147.5505	0.09	295101	keystroke_e	e	n/a
147.7455	0.09	295491	keystroke_t	t	n/a
147.9255	0.105	295851	keystroke_a	a	n/a
148.1355	0.075	296271	keystroke_Key.space	Key.space	n/a
148.36	0.0905	296720	keystroke_b	b	n/a
148.69	0.12	297380	keystroke_i	i	n/a
148.975	0.0905	297950	keystroke_c	c	n/a
149.1555	0.09	298311	keystroke_y	y	n/a
149.29	0.1055	298580	keystroke_c	c	n/a
149.455	0.1205	298910	keystroke_l	l	n/a
149.68	0.0755	299360	keystroke_e	e	n/a
150.1305	0.0745	300261	keystroke_Key.space	Key.space	n/a
150.31	0.075	300620	keystroke_g	g	n/a
150.5055	0.0445	301011	keystroke_r	r	n/a
150.6255	0.0745	301251	keystroke_e	e	n/a
151.0305	0.09	302061	keystroke_y	y	n/a
151.2555	0.0745	302511	keystroke_Key.space	Key.space	n/a
151.405	0.1355	302810	keystroke_a	a	n/a
151.6005	0.075	303201	keystroke_n	n	n/a
151.7805	0.075	303561	keystroke_n	n	n/a
151.99	0.0905	303980	keystroke_o	o	n/a
152.2	0.0905	304400	keystroke_t	t	n/a
152.395	0.1055	304790	keystroke_a	a	n/a
152.59	0.0905	305180	keystroke_t	t	n/a
152.785	0.09	305570	keystroke_i	i	n/a
153.01	0.135	306020	keystroke_o	o	n/a
153.1	0.0905	306200	keystroke_n	n	n/a
153.58	0.09	307160	keystroke_Key.enter	Key.enter	n/a
153.6765	9.086	307353	prompt	n/a	renewable severe settings diseases\n
154.3755	0.0895	308751	keystroke_r	r	n/a
154.585	0.09	309170	keystroke_e	e	n/a
154.795	0.1055	309590	keystroke_n	n	n/a
155.005	0.075	310010	keystroke_e	e	n/a
155.2	0.105	310400	keystroke_w	w	n/a
155.5	0.12	311000	keystroke_a	a	n/a
155.785	0.075	311570	keystroke_b	b	n/a
156.0555	0.075	312111	keystroke_l	l	n/a
156.22	0.09	312440	keystroke_e	e	n/a
156.745	0.09	313490	keystroke_Key.space	Key.space	n/a
156.97	0.075	313940	keystroke_s	s	n/a
157.18	0.06	314360	keystroke_e	e	n/a
157.465	0.105	314930	keystroke_v	v	n/a
157.69	0.0905	315380	keystroke_e	e	n/a
157.93	0.076	315860	keystroke_r	r	n/a
158.215	0.075	316430	keystroke_e	e	n/a
158.5	0.09	317000	keystroke_Key.space	Key.space	n/a
158.725	0.105	317450	keystroke_s	s	n/a
159.025	0.09	318050	keystroke_e	e	n/a
159.235	0.06	318470	keystroke_t	t	n/a
159.385	0.121	318770	keystroke_t	t	n/a
159.535	0.09	319070	keystroke_i	i	n/a
159.73	0.12	319460	keystroke_n	n	n/a
159.865	0.09	319730	keystroke_g	g	n/a
160.15	0.105	320300	keystroke_s	s	n/a
160.465	0.105	320930	keystroke_Key.space	Key.space	n/a
160.96	0.09	321920	keystroke_d	d	n/a
161.155	0.105	322310	keystroke_i	i	n/a
161.35	0.105	322700	keystroke_s	s	n/a
161.59	0.09	323180	keystroke_e	e	n/a
161.785	0.09	323570	keystroke_a	a	n/a
161.98	0.105	323960	keystroke_s	s	n/a
162.19	0.06	324380	keystroke_e	e	n/a
162.37	0.09	324740	keystroke_s	s	n/a
162.67	0.0905	325340	keystroke_Key.enter	Key.enter	n/a
162.768	6.5945	325536	prompt	n/a	israeli matching whale valves\n
163.42	0.09	326840	keystroke_i	i	n/a
163.63	0.09	327260	keystroke_s	s	n/a
163.84	0.075	327680	keystroke_r	r	n/a
164.02	0.105	328040	keystroke_a	a	n/a
164.29	0.075	328580	keystroke_e	e	n/a
164.53	0.09	329060	keystroke_l	l	n/a
164.755	0.075	329510	keystroke_i	i	n/a
164.995	0.06	329990	keystroke_Key.space	Key.space	n/a
165.205	0.06	330410	keystroke_m	m	n/a
165.34	0.12	330680	keystroke_a	a	n/a
165.505	0.09	331010	keystroke_t	t	n/a
165.79	0.09	331580	keystroke_c	c	n/a
166.045	0.105	332090	keystroke_h	h	n/a
166.27	0.09	332540	keystroke_i	i	n/a
166.51	0.105	333020	keystroke_n	n	n/a
166.75	0.075	333500	keystroke_g	g	n/a
166.93	0.075	333860	keystroke_Key.space	Key.space	n/a
167.11	0.105	334220	keystroke_w	w	n/a
167.29	0.105	334580	keystroke_h	h	n/a
167.44	0.12	334880	keystroke_a	a	n/a
167.605	0.105	335210	keystroke_l	l	n/a
167.755	0.09	335510	keystroke_e	e	n/a
167.875	0.09	335750	keystroke_Key.space	Key.space	n/a
168.055	0.09	336110	keystroke_v	v	n/a
168.235	0.12	336470	keystroke_a	a	n/a
168.46	0.105	336920	keystroke_l	l	n/a
168.64	0.075	337280	keystroke_v	v	n/a
168.835	0.045	337670	keystroke_e	e	n/a
168.985	0.09	337970	keystroke_s	s	n/a
169.255	0.105	338510	keystroke_Key.enter	Key.enter	n/a
169.3675	8.6805	338735	prompt	n/a	expo offensive kinase savings\n
170.006	0.074	340012	keystroke_s	s	n/a
170.29	0.105	340580	keystroke_Key.backspace	Key.backspace	n/a
170.5	0.075	341000	keystroke_e	e	n/a
171.07	0.09	342140	keystroke_x	x	n/a
171.34	0.015	342680	keystroke_p	p	n/a
171.535	0.12	343070	keystroke_o	o	n/a
172.105	0.09	344210	keystroke_Key.space	Key.space	n/a
172.315	0.075	344630	keystroke_e	e	n/a
172.645	0.105	345290	keystroke_Key.backspace	Key.backspace	n/a
172.93	0.09	345860	keystroke_o	o	n/a
173.14	0.09	346280	keystroke_f	f	n/a
173.32	0.075	346640	keystroke_f	f	n/a
173.515	0.075	347030	keystroke_e	e	n/a
173.725	0.09	347450	keystroke_n	n	n/a
173.86	0.12	347720	keystroke_s	s	n/a
174.025	0.105	348050	keystroke_i	i	n/a
174.19	0.09	348380	keystroke_v	v	n/a
174.415	0.045	348830	keystroke_e	e	n/a
174.55	0.105	349100	keystroke_Key.space	Key.space	n/a
174.956	0.059	349912	keystroke_k	k	n/a
175.135	0.075	350270	keystroke_i	i	n/a
175.345	0.09	350690	keystroke_n	n	n/a
175.57	0.106	351140	keystroke_a	a	n/a
175.795	0.075	351590	keystroke_s	s	n/a
176.005	0.06	352010	keystroke_e	e	n/a
176.32	0.06	352640	keystroke_Key.space	Key.space	n/a
176.485	0.075	352970	keystroke_s	s	n/a
176.635	0.105	353270	keystroke_a	a	n/a
176.995	0.075	353990	keystroke_v	v	n/a
177.22	0.06	354440	keystroke_i	i	n/a
177.4	0.09	354800	keystroke_n	n	n/a
177.52	0.061	355040	keystroke_g	g	n/a
177.701	0.074	355402	keystroke_s	s	n/a
177.94	0.105	355880	keystroke_Key.enter	Key.enter	n/a
178.053	7.15	356106	prompt	n/a	custom shakira you'll writers\n
178.736	0.09	357472	keystroke_c	c	n/a
178.885	0.105	357770	keystroke_u	u	n/a
179.005	0.075	358010	keystroke_s	s	n/a
179.155	0.075	358310	keystroke_t	t	n/a
179.365	0.091	358730	keystroke_o	o	n/a
179.59	0.091	359180	keystroke_m	m	n/a
179.8	0.09	359600	keystroke_Key.space	Key.space	n/a
180.175	0.12	360350	keystroke_s	s	n/a
180.415	0.09	360830	keystroke_h	h	n/a
180.61	0.09	361220	keystroke_a	a	n/a
180.88	0.075	361760	keystroke_k	k	n/a
181.075	0.106	362150	keystroke_i	i	n/a
181.255	0.075	362510	keystroke_r	r	n/a
181.45	0.105	362900	keystroke_a	a	n/a
181.66	0.09	363320	keystroke_Key.space	Key.space	n/a
182.305	0.075	364610	keystroke_y	y	n/a
182.515	0.105	365030	keystroke_o	o	n/a
182.74	0.076	365480	keystroke_u	u	n/a
183.025	0.091	366050	keystroke_'	'	n/a
183.325	0.075	366650	keystroke_l	l	n/a
183.52	0.075	367040	keystroke_l	l	n/a
183.7	0.075	367400	keystroke_Key.space	Key.space	n/a
183.865	0.075	367730	keystroke_w	w	n/a
184.045	0.105	368090	keystroke_r	r	n/a
184.195	0.105	368390	keystroke_i	i	n/a
184.345	0.09	368690	keystroke_t	t	n/a
184.555	0.105	369110	keystroke_e	e	n/a
184.691	0.0745	369382	keystroke_r	r	n/a
184.8705	0.075	369741	keystroke_s	s	n/a
185.0955	0.105	370191	keystroke_Key.enter	Key.enter	n/a
185.2075	8.1095	370415	prompt	n/a	initiative packages under oriented\n
185.8155	0.075	371631	keystroke_i	i	n/a
186.0405	0.075	372081	keystroke_n	n	n/a
186.2355	0.105	372471	keystroke_i	i	n/a
186.4305	0.09	372861	keystroke_t	t	n/a
187.3305	0.09	374661	keystroke_i	i	n/a
187.5855	0.09	375171	keystroke_a	a	n/a
187.8255	0.09	375651	keystroke_t	t	n/a
188.0205	0.09	376041	keystroke_i	i	n/a
188.2005	0.09	376401	keystroke_v	v	n/a
188.3955	0.075	376791	keystroke_e	e	n/a
188.5905	0.075	377181	keystroke_Key.space	Key.space	n/a
188.7555	0.075	377511	keystroke_p	p	n/a
188.8455	0.09	377691	keystroke_a	a	n/a
189.0405	0.09	378081	keystroke_c	c	n/a
189.1605	0.09	378321	keystroke_k	k	n/a
189.2655	0.12	378531	keystroke_a	a	n/a
189.4305	0.09	378861	keystroke_g	g	n/a
189.6415	0.044	379283	keystroke_e	e	n/a
189.8205	0.075	379641	keystroke_s	s	n/a
190.4055	0.075	380811	keystroke_Key.space	Key.space	n/a
190.6005	0.06	381201	keystroke_u	u	n/a
190.7805	0.075	381561	keystroke_n	n	n/a
190.8705	0.105	381741	keystroke_d	d	n/a
191.0805	0.09	382161	keystroke_e	e	n/a
191.2905	0.075	382581	keystroke_r	r	n/a
191.4405	0.075	382881	keystroke_Key.space	Key.space	n/a
191.6505	0.12	383301	keystroke_o	o	n/a
191.8455	0.09	383691	keystroke_r	r	n/a
192.0705	0.09	384141	keystroke_i	i	n/a
192.2355	0.105	384471	keystroke_e	e	n/a
192.3855	0.09	384771	keystroke_n	n	n/a
192.5355	0.06	385071	keystroke_t	t	n/a
192.7455	0.06	385491	keystroke_e	e	n/a
192.9555	0.075	385911	keystroke_d	d	n/a
193.2405	0.075	386481	keystroke_Key.enter	Key.enter	n/a
193.3225	5.7695	386645	prompt	n/a	antibody missing peers logic\n
193.8705	0.12	387741	keystroke_a	a	n/a
194.0655	0.105	388131	keystroke_n	n	n/a
194.4555	0.09	388911	keystroke_t	t	n/a
194.6205	0.105	389241	keystroke_i	i	n/a
194.9655	0.075	389931	keystroke_b	b	n/a
195.1305	0.09	390261	keystroke_o	o	n/a
195.2655	0.105	390531	keystroke_d	d	n/a
195.4755	0.075	390951	keystroke_y	y	n/a
195.6105	0.09	391221	keystroke_Key.space	Key.space	n/a
195.8055	0.075	391611	keystroke_m	m	n/a
196.0005	0.09	392001	keystroke_i	i	n/a
196.1805	0.06	392361	keystroke_s	s	n/a
196.3305	0.09	392661	keystroke_s	s	n/a
196.4805	0.06	392961	keystroke_i	i	n/a
196.6455	0.105	393291	keystroke_n	n	n/a
196.7955	0.09	393591	keystroke_g	g	n/a
196.9005	0.06	393801	keystroke_Key.space	Key.space	n/a
197.0355	0.09	394071	keystroke_p	p	n/a
197.1705	0.06	394341	keystroke_e	e	n/a
197.3205	0.075	394641	keystroke_e	e	n/a
197.5005	0.06	395001	keystroke_r	r	n/a
197.6955	0.09	395391	keystroke_s	s	n/a
198.0105	0.09	396021	keystroke_Key.space	Key.space	n/a
198.2805	0.075	396561	keystroke_l	l	n/a
198.4605	0.075	396921	keystroke_o	o	n/a
198.5655	0.09	397131	keystroke_g	g	n/a
198.6855	0.075	397371	keystroke_i	i	n/a
198.8205	0.075	397641	keystroke_c	c	n/a
199.0005	0.09	398001	keystroke_Key.enter	Key.enter	n/a
199.097	5.4105	398194	prompt	n/a	subject andreas items funds\n
199.6455	0.12	399291	keystroke_s	s	n/a
199.7955	0.075	399591	keystroke_u	u	n/a
199.9305	0.09	399861	keystroke_b	b	n/a
200.1105	0.09	400221	keystroke_j	j	n/a
200.2155	0.075	400431	keystroke_e	e	n/a
200.3355	0.075	400671	keystroke_c	c	n/a
200.5005	0.075	401001	keystroke_t	t	n/a
200.5905	0.09	401181	keystroke_Key.space	Key.space	n/a
200.6955	0.09	401391	keystroke_a	a	n/a
200.8155	0.105	401631	keystroke_n	n	n/a
200.9355	0.075	401871	keystroke_d	d	n/a
201.1005	0.09	402201	keystroke_r	r	n/a
201.1605	0.12	402321	keystroke_e	e	n/a
201.4305	0.075	402861	keystroke_a	a	n/a
201.6255	0.075	403251	keystroke_s	s	n/a
202.1655	0.075	404331	keystroke_Key.space	Key.space	n/a
202.4505	0.09	404901	keystroke_i	i	n/a
202.6155	0.075	405231	keystroke_t	t	n/a
202.7505	0.075	405501	keystroke_e	e	n/a
202.8855	0.09	405771	keystroke_m	m	n/a
203.0655	0.105	406131	keystroke_s	s	n/a
203.4705	0.075	406941	keystroke_Key.space	Key.space	n/a
203.6805	0.09	407361	keystroke_f	f	n/a
203.8155	0.06	407631	keystroke_u	u	n/a
203.9505	0.09	407901	keystroke_n	n	n/a
204.0405	0.06	408081	keystroke_d	d	n/a
204.1755	0.09	408351	keystroke_s	s	n/a
204.4155	0.09	408831	keystroke_Key.enter	Key.enter	n/a
204.5125	6.2495	409025	prompt	n/a	tools types operation defining\n
205.1055	0.09	410211	keystroke_t	t	n/a
205.2705	0.09	410541	keystroke_o	o	n/a
205.4505	0.075	410901	keystroke_o	o	n/a
205.6305	0.09	411261	keystroke_l	l	n/a
205.7655	0.09	411531	keystroke_s	s	n/a
205.8855	0.09	411771	keystroke_Key.space	Key.space	n/a
206.0055	0.105	412011	keystroke_t	t	n/a
206.1555	0.075	412311	keystroke_y	y	n/a
206.3355	0.09	412671	keystroke_p	p	n/a
206.4705	0.06	412941	keystroke_e	e	n/a
206.6355	0.09	413271	keystroke_s	s	n/a
206.8155	0.075	413631	keystroke_Key.space	Key.space	n/a
206.9955	0.09	413991	keystroke_o	o	n/a
207.2205	0.09	414441	keystroke_p	p	n/a
207.3555	0.09	414711	keystroke_e	e	n/a
207.5655	0.075	415131	keystroke_r	r	n/a
207.7455	0.105	415491	keystroke_a	a	n/a
207.8805	0.12	415761	keystroke_t	t	n/a
208.0455	0.06	416091	keystroke_i	i	n/a
208.2855	0.105	416571	keystroke_o	o	n/a
208.5105	0.09	417021	keystroke_n	n	n/a
208.8255	0.0895	417651	keystroke_Key.space	Key.space	n/a
209.096	0.104	418192	keystroke_d	d	n/a
209.321	0.044	418642	keystroke_e	e	n/a
209.455	0.075	418910	keystroke_f	f	n/a
209.62	0.09	419240	keystroke_i	i	n/a
209.845	0.105	419690	keystroke_n	n	n/a
210.055	0.075	420110	keystroke_i	i	n/a
210.235	0.091	420470	keystroke_n	n	n/a
210.415	0.06	420830	keystroke_g	g	n/a
210.67	0.09	421340	keystroke_Key.enter	Key.enter	n/a
210.7655	6.6415	421531	prompt	n/a	deaf comic communist pill\n
211.331	0.074	422662	keystroke_d	d	n/a
211.48	0.09	422960	keystroke_e	e	n/a
211.645	0.105	423290	keystroke_a	a	n/a
211.84	0.09	423680	keystroke_f	f	n/a
212.08	0.09	424160	keystroke_Key.space	Key.space	n/a
212.365	0.09	424730	keystroke_c	c	n/a
212.5	0.075	425000	keystroke_o	o	n/a
212.665	0.061	425330	keystroke_m	m	n/a
212.845	0.09	425690	keystroke_i	i	n/a
213.025	0.09	426050	keystroke_c	c	n/a
213.205	0.09	426410	keystroke_Key.space	Key.space	n/a
213.4	0.09	426800	keystroke_c	c	n/a
213.58	0.075	427160	keystroke_o	o	n/a
213.835	0.061	427670	keystroke_m	m	n/a
214.001	0.059	428002	keystroke_m	m	n/a
214.211	0.074	428422	keystroke_u	u	n/a
214.42	0.09	428840	keystroke_n	n	n/a
214.765	0.105	429530	keystroke_i	i	n/a
215.005	0.075	430010	keystroke_s	s	n/a
215.215	0.105	430430	keystroke_t	t	n/a
216.295	0.09	432590	keystroke_Key.space	Key.space	n/a
216.565	0.061	433130	keystroke_p	p	n/a
216.76	0.06	433520	keystroke_i	i	n/a
216.94	0.075	433880	keystroke_l	l	n/a
217.105	0.075	434210	keystroke_l	l	n/a
217.315	0.09	434630	keystroke_Key.enter	Key.enter	n/a
217.412	7.765	434824	prompt	n/a	achieving active african pakistan\n
218.201	0.104	436402	keystroke_a	a	n/a
218.41	0.091	436820	keystroke_c	c	n/a
218.56	0.091	437120	keystroke_h	h	n/a
218.755	0.12	437510	keystroke_i	i	n/a
218.95	0.076	437900	keystroke_e	e	n/a
219.176	0.104	438352	keystroke_v	v	n/a
219.37	0.09	438740	keystroke_i	i	n/a
219.58	0.09	439160	keystroke_n	n	n/a
219.731	0.089	439462	keystroke_g	g	n/a
219.88	0.09	439760	keystroke_Key.space	Key.space	n/a
220.045	0.09	440090	keystroke_a	a	n/a
220.27	0.06	440540	keystroke_c	c	n/a
220.45	0.105	440900	keystroke_t	t	n/a
220.645	0.09	441290	keystroke_i	i	n/a
220.795	0.06	441590	keystroke_v	v	n/a
220.99	0.075	441980	keystroke_e	e	n/a
221.155	0.12	442310	keystroke_Key.space	Key.space	n/a
221.605	0.12	443210	keystroke_a	a	n/a
222.07	0.06	444140	keystroke_f	f	n/a
222.265	0.075	444530	keystroke_r	r	n/a
222.46	0.105	444920	keystroke_i	i	n/a
222.61	0.091	445220	keystroke_c	c	n/a
222.76	0.12	445520	keystroke_a	a	n/a
222.97	0.09	445940	keystroke_n	n	n/a
223.165	0.09	446330	keystroke_Key.space	Key.space	n/a
223.495	0.091	446990	keystroke_p	p	n/a
223.735	0.12	447470	keystroke_a	a	n/a
223.945	0.075	447890	keystroke_k	k	n/a
224.14	0.076	448280	keystroke_i	i	n/a
224.276	0.089	448552	keystroke_s	s	n/a
224.47	0.075	448940	keystroke_t	t	n/a
224.62	0.105	449240	keystroke_a	a	n/a
224.801	0.074	449602	keystroke_n	n	n/a
225.07	0.105	450140	keystroke_Key.enter	Key.enter	n/a
225.181	7.992	450362	prompt	n/a	long sentence milwaukee innovations\n
225.9245	0.075	451849	keystroke_l	l	n/a
226.1045	0.0905	452209	keystroke_o	o	n/a
226.2695	0.09	452539	keystroke_n	n	n/a
226.3755	0.0895	452751	keystroke_g	g	n/a
226.495	0.0895	452990	keystroke_Key.space	Key.space	n/a
226.6145	0.091	453229	keystroke_s	s	n/a
226.7065	0.103	453413	keystroke_e	e	n/a
226.8845	0.1055	453769	keystroke_n	n	n/a
227.05	0.076	454100	keystroke_t	t	n/a
227.17	0.0895	454340	keystroke_e	e	n/a
227.3345	0.09	454669	keystroke_n	n	n/a
227.4855	0.104	454971	keystroke_c	c	n/a
227.6205	0.089	455241	keystroke_e	e	n/a
228.22	0.0895	456440	keystroke_Key.space	Key.space	n/a
228.5195	0.09	457039	keystroke_m	m	n/a
228.7155	0.075	457431	keystroke_i	i	n/a
228.8955	0.089	457791	keystroke_l	l	n/a
229.1955	0.074	458391	keystroke_w	w	n/a
229.3595	0.135	458719	keystroke_a	a	n/a
229.7495	0.075	459499	keystroke_u	u	n/a
230.0645	0.06	460129	keystroke_k	k	n/a
230.2755	0.059	460551	keystroke_e	e	n/a
230.4545	0.075	460909	keystroke_e	e	n/a
230.6645	0.09	461329	keystroke_Key.space	Key.space	n/a
230.8445	0.075	461689	keystroke_i	i	n/a
231.0545	0.076	462109	keystroke_n	n	n/a
231.3095	0.075	462619	keystroke_n	n	n/a
231.5195	0.091	463039	keystroke_o	o	n/a
231.7295	0.076	463459	keystroke_v	v	n/a
231.9095	0.09	463819	keystroke_a	a	n/a
232.0755	0.089	464151	keystroke_t	t	n/a
232.2255	0.075	464451	keystroke_i	i	n/a
232.3605	0.119	464721	keystroke_o	o	n/a
232.4345	0.075	464869	keystroke_n	n	n/a
232.5695	0.075	465139	keystroke_s	s	n/a
233.0655	0.104	466131	keystroke_Key.enter	Key.enter	n/a
233.18	7.162	466360	prompt	n/a	satisfy ebay parent reuters\n
233.9795	0.105	467959	keystroke_s	s	n/a
234.2955	0.15	468591	keystroke_a	a	n/a
234.5505	0.074	469101	keystroke_t	t	n/a
234.7155	0.119	469431	keystroke_i	i	n/a
234.9245	0.091	469849	keystroke_s	s	n/a
235.0745	0.105	470149	keystroke_f	f	n/a
235.3145	0.09	470629	keystroke_y	y	n/a
235.6445	0.09	471289	keystroke_Key.space	Key.space	n/a
235.9755	0.045	471951	keystroke_s	s	n/a
236.2745	0.09	472549	keystroke_Key.backspace	Key.backspace	n/a
236.4255	0.089	472851	keystroke_e	e	n/a
236.6055	0.089	473211	keystroke_b	b	n/a
236.7845	0.105	473569	keystroke_a	a	n/a
236.9195	0.09	473839	keystroke_y	y	n/a
237.0845	0.075	474169	keystroke_Key.space	Key.space	n/a
237.3095	0.075	474619	keystroke_p	p	n/a
237.3855	0.135	474771	keystroke_a	a	n/a
237.5345	0.121	475069	keystroke_r	r	n/a
237.6395	0.105	475279	keystroke_e	e	n/a
237.8195	0.105	475639	keystroke_n	n	n/a
238.0295	0.076	476059	keystroke_t	t	n/a
238.2845	0.075	476569	keystroke_Key.space	Key.space	n/a
238.7945	0.0905	477589	keystroke_r	r	n/a
238.945	0.105	477890	keystroke_e	e	n/a
239.2	0.09	478400	keystroke_u	u	n/a
239.335	0.105	478670	keystroke_t	t	n/a
239.56	0.105	479120	keystroke_e	e	n/a
239.74	0.075	479480	keystroke_r	r	n/a
239.98	0.075	479960	keystroke_s	s	n/a
240.25	0.09	480500	keystroke_Key.enter	Key.enter	n/a
240.348	6.084	480696	prompt	n/a	sara empty optimal mark\n
240.925	0.105	481850	keystroke_s	s	n/a
241.105	0.105	482210	keystroke_a	a	n/a
241.27	0.075	482540	keystroke_r	r	n/a
241.42	0.105	482840	keystroke_a	a	n/a
241.645	0.075	483290	keystroke_Key.space	Key.space	n/a
242.02	0.075	484040	keystroke_e	e	n/a
242.17	0.075	484340	keystroke_m	m	n/a
242.335	0.09	484670	keystroke_p	p	n/a
242.455	0.09	484910	keystroke_t	t	n/a
242.695	0.075	485390	keystroke_y	y	n/a
242.905	0.06	485810	keystroke_Key.space	Key.space	n/a
243.115	0.075	486230	keystroke_e	e	n/a
243.52	0.09	487040	keystroke_Key.backspace	Key.backspace	n/a
243.775	0.105	487550	keystroke_o	o	n/a
243.97	0.09	487940	keystroke_p	p	n/a
244.15	0.09	488300	keystroke_t	t	n/a
244.285	0.06	488570	keystroke_i	i	n/a
244.45	0.06	488900	keystroke_m	m	n/a
244.525	0.12	489050	keystroke_a	a	n/a
244.705	0.09	489410	keystroke_l	l	n/a
245.2	0.075	490400	keystroke_Key.space	Key.space	n/a
245.62	0.06	491240	keystroke_m	m	n/a
245.71	0.075	491420	keystroke_a	a	n/a
245.845	0.09	491690	keystroke_r	r	n/a
245.98	0.09	491960	keystroke_k	k	n/a
246.325	0.105	492650	keystroke_Key.enter	Key.enter	n/a
246.4375	7.749	492875	prompt	n/a	conspiracy talented burton instant\n
247.375	0.12	494750	keystroke_c	c	n/a
247.54	0.09	495080	keystroke_o	o	n/a
247.735	0.075	495470	keystroke_n	n	n/a
247.87	0.09	495740	keystroke_s	s	n/a
248.02	0.09	496040	keystroke_p	p	n/a
248.23	0.075	496460	keystroke_i	i	n/a
248.35	0.09	496700	keystroke_r	r	n/a
248.515	0.12	497030	keystroke_a	a	n/a
248.845	0.09	497690	keystroke_c	c	n/a
249.07	0.075	498140	keystroke_y	y	n/a
249.22	0.075	498440	keystroke_Key.space	Key.space	n/a
249.46	0.075	498920	keystroke_t	t	n/a
249.625	0.12	499250	keystroke_a	a	n/a
249.79	0.105	499580	keystroke_l	l	n/a
249.955	0.105	499910	keystroke_e	e	n/a
250.12	0.09	500240	keystroke_n	n	n/a
250.24	0.06	500480	keystroke_t	t	n/a
250.375	0.06	500750	keystroke_e	e	n/a
250.585	0.075	501170	keystroke_d	d	n/a
250.72	0.0595	501440	keystroke_Key.space	Key.space	n/a
250.9145	0.0905	501829	keystroke_b	b	n/a
251.1995	0.0905	502399	keystroke_u	u	n/a
251.3495	0.1205	502699	keystroke_r	r	n/a
251.575	0.0745	503150	keystroke_t	t	n/a
251.7395	0.075	503479	keystroke_o	o	n/a
251.9795	0.09	503959	keystroke_n	n	n/a
252.2045	0.075	504409	keystroke_Key.space	Key.space	n/a
252.4295	0.075	504859	keystroke_i	i	n/a
252.6095	0.09	505219	keystroke_n	n	n/a
252.7295	0.091	505459	keystroke_s	s	n/a
252.9095	0.09	505819	keystroke_t	t	n/a
253.0295	0.12	506059	keystroke_a	a	n/a
253.2095	0.09	506419	keystroke_n	n	n/a
253.3745	0.09	506749	keystroke_t	t	n/a
254.0795	0.105	508159	keystroke_Key.enter	Key.enter	n/a
254.1915	5.755	508383	prompt	n/a	acre shut eagle rouge\n
254.8295	0.105	509659	keystroke_a	a	n/a
255.0995	0.105	510199	keystroke_c	c	n/a
255.3695	0.06	510739	keystroke_r	r	n/a
255.5645	0.105	511129	keystroke_e	e	n/a
255.7445	0.09	511489	keystroke_Key.space	Key.space	n/a
256.0145	0.12	512029	keystroke_s	s	n/a
256.1795	0.09	512359	keystroke_h	h	n/a
256.3295	0.135	512659	keystroke_u	u	n/a
256.5095	0.09	513019	keystroke_t	t	n/a
256.7645	0.09	513529	keystroke_Key.space	Key.space	n/a
257.1095	0.06	514219	keystroke_e	e	n/a
257.4845	0.09	514969	keystroke_a	a	n/a
257.7395	0.09	515479	keystroke_g	g	n/a
257.9495	0.12	515899	keystroke_l	l	n/a
258.1295	0.09	516259	keystroke_e	e	n/a
258.5195	0.075	517039	keystroke_Key.space	Key.space	n/a
258.9545	0.105	517909	keystroke_r	r	n/a
259.1045	0.075	518209	keystroke_o	o	n/a
259.2545	0.09	518509	keystroke_u	u	n/a
259.3595	0.09	518719	keystroke_g	g	n/a
259.5545	0.075	519109	keystroke_e	e	n/a
259.8545	0.09	519709	keystroke_Key.enter	Key.enter	n/a
259.9505	5.772	519901	prompt	n/a	hundreds bean links china\n
260.5145	0.075	521029	keystroke_h	h	n/a
260.6495	0.075	521299	keystroke_u	u	n/a
260.7995	0.075	521599	keystroke_n	n	n/a
260.8595	0.06	521719	keystroke_d	d	n/a
261.0395	0.09	522079	keystroke_r	r	n/a
261.0995	0.09	522199	keystroke_e	e	n/a
261.3245	0.06	522649	keystroke_s	s	n/a
261.8045	0.09	523609	keystroke_Key.backspace	Key.backspace	n/a
261.9705	0.074	523941	keystroke_d	d	n/a
262.1495	0.09	524299	keystroke_s	s	n/a
262.3595	0.075	524719	keystroke_Key.space	Key.space	n/a
262.5695	0.09	525139	keystroke_b	b	n/a
262.6745	0.075	525349	keystroke_e	e	n/a
262.8545	0.105	525709	keystroke_a	a	n/a
263.0045	0.075	526009	keystroke_n	n	n/a
263.2445	0.015	526489	keystroke_Key.space	Key.space	n/a
263.3795	0.06	526759	keystroke_l	l	n/a
263.5595	0.09	527119	keystroke_i	i	n/a
263.7395	0.12	527479	keystroke_n	n	n/a
263.9045	0.09	527809	keystroke_k	k	n/a
264.0995	0.12	528199	keystroke_s	s	n/a
264.6245	0.06	529249	keystroke_Key.space	Key.space	n/a
264.8645	0.105	529729	keystroke_c	c	n/a
264.9995	0.09	529999	keystroke_h	h	n/a
265.1645	0.12	530329	keystroke_i	i	n/a
265.2695	0.09	530539	keystroke_n	n	n/a
265.4195	0.105	530839	keystroke_a	a	n/a
265.6145	0.105	531229	keystroke_Key.enter	Key.enter	n/a
265.7275	5.815	531455	prompt	n/a	backup develops sperm alerts\n
266.4695	0.09	532939	keystroke_b	b	n/a
266.6045	0.12	533209	keystroke_a	a	n/a
266.6795	0.105	533359	keystroke_c	c	n/a
266.7995	0.09	533599	keystroke_k	k	n/a
267.0245	0.06	534049	keystroke_u	u	n/a
267.2495	0.075	534499	keystroke_p	p	n/a
267.3845	0.105	534769	keystroke_Key.space	Key.space	n/a
267.5645	0.075	535129	keystroke_d	d	n/a
267.7445	0.06	535489	keystroke_e	e	n/a
267.8795	0.075	535759	keystroke_v	v	n/a
268.0445	0.075	536089	keystroke_e	e	n/a
268.2095	0.045	536419	keystroke_l	l	n/a
268.3895	0.075	536779	keystroke_o	o	n/a
268.5995	0.09	537199	keystroke_p	p	n/a
268.7345	0.12	537469	keystroke_s	s	n/a
268.9595	0.09	537919	keystroke_Key.space	Key.space	n/a
269.2145	0.09	538429	keystroke_s	s	n/a
269.3495	0.09	538699	keystroke_p	p	n/a
269.5145	0.09	539029	keystroke_e	e	n/a
269.7095	0.06	539419	keystroke_r	r	n/a
269.9495	0.075	539899	keystroke_m	m	n/a
270.1895	0.075	540379	keystroke_Key.space	Key.space	n/a
270.3095	0.12	540619	keystroke_a	a	n/a
270.4595	0.09	540919	keystroke_l	l	n/a
270.5645	0.09	541129	keystroke_e	e	n/a
270.7595	0.075	541519	keystroke_r	r	n/a
270.9095	0.06	541819	keystroke_t	t	n/a
271.0745	0.075	542149	keystroke_s	s	n/a
271.435	0.105	542870	keystroke_Key.enter	Key.enter	n/a
271.549	7.807	543098	prompt	n/a	delivers rise impressive continuous\n
272.08	0.075	544160	keystroke_d	d	n/a
272.26	0.09	544520	keystroke_e	e	n/a
272.455	0.09	544910	keystroke_l	l	n/a
272.65	0.075	545300	keystroke_i	i	n/a
272.785	0.075	545570	keystroke_v	v	n/a
272.98	0.075	545960	keystroke_e	e	n/a
273.16	0.06	546320	keystroke_r	r	n/a
273.355	0.09	546710	keystroke_s	s	n/a
273.565	0.075	547130	keystroke_Key.space	Key.space	n/a
273.85	0.09	547700	keystroke_r	r	n/a
274	0.09	548000	keystroke_i	i	n/a
274.135	0.105	548270	keystroke_s	s	n/a
274.255	0.105	548510	keystroke_e	e	n/a
274.45	0.06	548900	keystroke_Key.space	Key.space	n/a
274.645	0.09	549290	keystroke_i	i	n/a
274.84	0.075	549680	keystroke_m	m	n/a
275.02	0.09	550040	keystroke_p	p	n/a
275.455	0.045	550910	keystroke_r	r	n/a
275.65	0.075	551300	keystroke_e	e	n/a
276.055	0.075	552110	keystroke_s	s	n/a
276.22	0.09	552440	keystroke_s	s	n/a
276.4	0.06	552800	keystroke_i	i	n/a
276.505	0.09	553010	keystroke_v	v	n/a
276.7	0.075	553400	keystroke_e	e	n/a
276.85	0.075	553700	keystroke_Key.space	Key.space	n/a
277.03	0.09	554060	keystroke_c	c	n/a
277.18	0.075	554360	keystroke_o	o	n/a
277.36	0.09	554720	keystroke_n	n	n/a
277.48	0.09	554960	keystroke_t	t	n/a
277.63	0.075	555260	keystroke_i	i	n/a
277.975	0.075	555950	keystroke_n	n	n/a
278.335	0.09	556670	keystroke_u	u	n/a
278.59	0.09	557180	keystroke_o	o	n/a
278.8	0.09	557600	keystroke_u	u	n/a
278.995	0.075	557990	keystroke_s	s	n/a
279.265	0.09	558530	keystroke_Key.enter	Key.enter	n/a
279.361	11.981	558722	prompt	n/a	thou behavioral stats broader\n
280.12	0.09	560240	keystroke_t	t	n/a
280.225	0.075	560450	keystroke_h	h	n/a
280.39	0.09	560780	keystroke_o	o	n/a
280.5245	0.105	561049	keystroke_u	u	n/a
280.7645	0.09	561529	keystroke_Key.space	Key.space	n/a
281.0495	0.09	562099	keystroke_b	b	n/a
281.1995	0.1055	562399	keystroke_e	e	n/a
281.32	0.1045	562640	keystroke_h	h	n/a
281.4545	0.105	562909	keystroke_a	a	n/a
281.4845	0.105	562969	keystroke_v	v	n/a
281.71	0.135	563420	keystroke_o	o	n/a
281.8895	0.12	563779	keystroke_r	r	n/a
282.0545	0.105	564109	keystroke_i	i	n/a
282.3245	0.12	564649	keystroke_a	a	n/a
282.5345	0.105	565069	keystroke_l	l	n/a
282.7745	0.09	565549	keystroke_Key.space	Key.space	n/a
285.8675	0.027	571735	keystroke_Key.backspace	Key.backspace	n/a
286.0595	0.075	572119	keystroke_Key.backspace	Key.backspace	n/a
286.314	0.075	572628	keystroke_Key.backspace	Key.backspace	n/a
286.569	0.075	573138	keystroke_Key.backspace	Key.backspace	n/a
286.794	0.0755	573588	keystroke_Key.backspace	Key.backspace	n/a
287.019	0.09	574038	keystroke_Key.backspace	Key.backspace	n/a
287.319	0.09	574638	keystroke_i	i	n/a
287.589	0.09	575178	keystroke_o	o	n/a
287.859	0.106	575718	keystroke_r	r	n/a
288.085	0.134	576170	keystroke_a	a	n/a
288.324	0.06	576648	keystroke_l	l	n/a
288.474	0.09	576948	keystroke_Key.space	Key.space	n/a
288.579	0.105	577158	keystroke_s	s	n/a
288.804	0.105	577608	keystroke_t	t	n/a
288.999	0.121	577998	keystroke_a	a	n/a
289.134	0.075	578268	keystroke_t	t	n/a
289.329	0.09	578658	keystroke_s	s	n/a
289.554	0.09	579108	keystroke_Key.space	Key.space	n/a
289.99	0.089	579980	keystroke_b	b	n/a
290.184	0.09	580368	keystroke_r	r	n/a
290.349	0.105	580698	keystroke_o	o	n/a
290.484	0.105	580968	keystroke_a	a	n/a
290.575	0.089	581150	keystroke_d	d	n/a
290.784	0.075	581568	keystroke_e	e	n/a
290.934	0.09	581868	keystroke_r	r	n/a
291.249	0.09	582498	keystroke_Key.enter	Key.enter	n/a
291.3475	7.434	582695	prompt	n/a	selling beer biotechnology important\n
291.954	0.075	583908	keystroke_s	s	n/a
292.134	0.076	584268	keystroke_e	e	n/a
292.314	0.075	584628	keystroke_l	l	n/a
292.479	0.091	584958	keystroke_l	l	n/a
292.674	0.061	585348	keystroke_i	i	n/a
292.839	0.09	585678	keystroke_n	n	n/a
292.989	0.09	585978	keystroke_g	g	n/a
293.094	0.06	586188	keystroke_Key.space	Key.space	n/a
293.244	0.091	586488	keystroke_b	b	n/a
293.424	0.075	586848	keystroke_e	e	n/a
293.604	0.075	587208	keystroke_e	e	n/a
293.814	0.06	587628	keystroke_r	r	n/a
293.994	0.09	587988	keystroke_Key.space	Key.space	n/a
294.234	0.06	588468	keystroke_b	b	n/a
294.384	0.075	588768	keystroke_i	i	n/a
294.564	0.105	589128	keystroke_o	o	n/a
294.744	0.09	589488	keystroke_t	t	n/a
294.939	0.06	589878	keystroke_e	e	n/a
295.134	0.09	590268	keystroke_c	c	n/a
295.284	0.075	590568	keystroke_h	h	n/a
295.539	0.075	591078	keystroke_n	n	n/a
295.749	0.075	591498	keystroke_o	o	n/a
295.929	0.06	591858	keystroke_l	l	n/a
296.079	0.075	592158	keystroke_o	o	n/a
296.199	0.091	592398	keystroke_g	g	n/a
296.394	0.076	592788	keystroke_y	y	n/a
296.619	0.075	593238	keystroke_Key.space	Key.space	n/a
297.174	0.06	594348	keystroke_i	i	n/a
297.354	0.075	594708	keystroke_m	m	n/a
297.52	0.06	595040	keystroke_p	p	n/a
297.684	0.105	595368	keystroke_o	o	n/a
297.804	0.075	595608	keystroke_r	r	n/a
297.939	0.09	595878	keystroke_t	t	n/a
298.089	0.105	596178	keystroke_a	a	n/a
298.254	0.091	596508	keystroke_n	n	n/a
298.389	0.075	596778	keystroke_t	t	n/a
298.674	0.105	597348	keystroke_Key.enter	Key.enter	n/a
298.7855	10.0165	597571	prompt	n/a	cylinder gauge suggestion execution\n
299.5	0.104	599000	keystroke_c	c	n/a
299.694	0.061	599388	keystroke_y	y	n/a
299.905	0.075	599810	keystroke_l	l	n/a
300.114	0.06	600228	keystroke_i	i	n/a
300.294	0.09	600588	keystroke_n	n	n/a
300.445	0.074	600890	keystroke_d	d	n/a
300.639	0.06	601278	keystroke_e	e	n/a
300.834	0.061	601668	keystroke_r	r	n/a
300.984	0.075	601968	keystroke_Key.space	Key.space	n/a
301.134	0.105	602268	keystroke_g	g	n/a
301.285	0.074	602570	keystroke_u	u	n/a
301.45	0.119	602900	keystroke_a	a	n/a
301.674	0.12	603348	keystroke_g	g	n/a
302.769	0.09	605538	keystroke_Key.backspace	Key.backspace	n/a
303.024	0.075	606048	keystroke_Key.backspace	Key.backspace	n/a
303.49	0.074	606980	keystroke_Key.backspace	Key.backspace	n/a
303.64	0.134	607280	keystroke_a	a	n/a
303.82	0.089	607640	keystroke_u	u	n/a
304	0.074	608000	keystroke_g	g	n/a
304.24	0.075	608480	keystroke_e	e	n/a
304.599	0.09	609198	keystroke_Key.space	Key.space	n/a
304.824	0.105	609648	keystroke_s	s	n/a
305.004	0.091	610008	keystroke_u	u	n/a
305.184	0.045	610368	keystroke_g	g	n/a
305.305	0.074	610610	keystroke_g	g	n/a
305.469	0.06	610938	keystroke_e	e	n/a
305.62	0.089	611240	keystroke_s	s	n/a
305.814	0.075	611628	keystroke_t	t	n/a
305.949	0.076	611898	keystroke_i	i	n/a
306.099	0.136	612198	keystroke_o	o	n/a
306.264	0.135	612528	keystroke_n	n	n/a
306.519	0.09	613038	keystroke_Key.space	Key.space	n/a
306.699	0.075	613398	keystroke_e	e	n/a
306.94	0.089	613880	keystroke_x	x	n/a
307.134	0.075	614268	keystroke_e	e	n/a
307.314	0.075	614628	keystroke_c	c	n/a
307.659	0.135	615318	keystroke_u	u	n/a
307.93	0.074	615860	keystroke_t	t	n/a
308.064	0.106	616128	keystroke_i	i	n/a
308.274	0.076	616548	keystroke_o	o	n/a
308.44	0.105	616880	keystroke_n	n	n/a
308.709	0.09	617418	keystroke_Key.enter	Key.enter	n/a
308.815	9.211	617630	prompt	n/a	fiji miller clearance hygiene\n
309.01	0.015	618020	keystroke_j	j	n/a
309.7	0.074	619400	keystroke_Key.backspace	Key.backspace	n/a
309.849	0.075	619698	keystroke_Key.backspace	Key.backspace	n/a
310.42	0.119	620840	keystroke_f	f	n/a
310.675	0.089	621350	keystroke_i	i	n/a
310.899	0.076	621798	keystroke_j	j	n/a
311.109	0.075	622218	keystroke_i	i	n/a
311.32	0.089	622640	keystroke_Key.space	Key.space	n/a
311.71	0.045	623420	keystroke_m	m	n/a
311.934	0.061	623868	keystroke_i	i	n/a
312.13	0.075	624260	keystroke_l	l	n/a
312.309	0.09	624618	keystroke_l	l	n/a
312.475	0.089	624950	keystroke_e	e	n/a
312.684	0.061	625368	keystroke_r	r	n/a
312.834	0.09	625668	keystroke_Key.space	Key.space	n/a
313.059	0.091	626118	keystroke_c	c	n/a
313.254	0.091	626508	keystroke_l	l	n/a
313.404	0.09	626808	keystroke_e	e	n/a
313.54	0.119	627080	keystroke_a	a	n/a
313.689	0.106	627378	keystroke_r	r	n/a
313.989	0.106	627978	keystroke_a	a	n/a
314.17	0.105	628340	keystroke_n	n	n/a
314.365	0.075	628730	keystroke_c	c	n/a
314.605	0.059	629210	keystroke_e	e	n/a
314.844	0.09	629688	keystroke_Key.space	Key.space	n/a
315.114	0.09	630228	keystroke_h	h	n/a
315.369	0.09	630738	keystroke_y	y	n/a
315.654	0.06	631308	keystroke_g	g	n/a
315.835	0.074	631670	keystroke_i	i	n/a
316.044	0.091	632088	keystroke_n	n	n/a
316.239	0.09	632478	keystroke_e	e	n/a
317.035	0.089	634070	keystroke_Key.backspace	Key.backspace	n/a
317.229	0.06	634458	keystroke_Key.backspace	Key.backspace	n/a
317.334	0.091	634668	keystroke_e	e	n/a
317.545	0.09	635090	keystroke_n	n	n/a
317.755	0.06	635510	keystroke_e	e	n/a
317.949	0.075	635898	keystroke_Key.enter	Key.enter	n/a
318.03	5.6665	636060	prompt	n/a	buys quantities clone standings\n
318.895	0.075	637790	keystroke_b	b	n/a
318.999	0.09	637998	keystroke_u	u	n/a
319.195	0.089	638390	keystroke_y	y	n/a
319.36	0.105	638720	keystroke_s	s	n/a
319.479	0.091	638958	keystroke_Key.space	Key.space	n/a
319.825	0.089	639650	keystroke_q	q	n/a
319.959	0.091	639918	keystroke_u	u	n/a
320.065	0.119	640130	keystroke_a	a	n/a
320.2	0.104	640400	keystroke_n	n	n/a
320.38	0.089	640760	keystroke_t	t	n/a
320.545	0.09	641090	keystroke_i	i	n/a
320.65	0.089	641300	keystroke_t	t	n/a
320.8	0.104	641600	keystroke_i	i	n/a
320.965	0.06	641930	keystroke_e	e	n/a
321.084	0.121	642168	keystroke_s	s	n/a
321.339	0.09	642678	keystroke_Key.space	Key.space	n/a
321.61	0.09	643220	keystroke_c	c	n/a
321.745	0.089	643490	keystroke_l	l	n/a
321.924	0.061	643848	keystroke_o	o	n/a
322.09	0.089	644180	keystroke_n	n	n/a
322.225	0.075	644450	keystroke_e	e	n/a
322.329	0.091	644658	keystroke_Key.space	Key.space	n/a
322.495	0.089	644990	keystroke_s	s	n/a
322.63	0.075	645260	keystroke_t	t	n/a
322.75	0.075	645500	keystroke_a	a	n/a
322.839	0.09	645678	keystroke_n	n	n/a
322.96	0.089	645920	keystroke_d	d	n/a
323.065	0.135	646130	keystroke_i	i	n/a
323.154	0.106	646308	keystroke_n	n	n/a
323.245	0.075	646490	keystroke_g	g	n/a
323.335	0.09	646670	keystroke_s	s	n/a
323.59	0.105	647180	keystroke_Key.enter	Key.enter	n/a
323.701	8.95	647402	prompt	n/a	adrian earlier patricia passive\n
324.295	0.105	648590	keystroke_a	a	n/a
324.505	0.06	649010	keystroke_d	d	n/a
324.685	0.09	649370	keystroke_r	r	n/a
324.865	0.075	649730	keystroke_i	i	n/a
324.999	0.136	649998	keystroke_a	a	n/a
325.165	0.09	650330	keystroke_n	n	n/a
325.314	0.105	650628	keystroke_Key.space	Key.space	n/a
325.585	0.09	651170	keystroke_e	e	n/a
325.705	0.09	651410	keystroke_a	a	n/a
325.825	0.089	651650	keystroke_r	r	n/a
326.05	0.09	652100	keystroke_l	l	n/a
326.26	0.09	652520	keystroke_i	i	n/a
326.395	0.075	652790	keystroke_e	e	n/a
326.605	0.075	653210	keystroke_r	r	n/a
328.615	0.075	657230	keystroke_Key.space	Key.space	n/a
328.93	0.09	657860	keystroke_p	p	n/a
329.05	0.09	658100	keystroke_a	a	n/a
329.245	0.06	658490	keystroke_t	t	n/a
329.41	0.09	658820	keystroke_r	r	n/a
329.575	0.12	659150	keystroke_i	i	n/a
329.98	0.09	659960	keystroke_c	c	n/a
330.22	0.075	660440	keystroke_i	i	n/a
330.37	0.06	660740	keystroke_c	c	n/a
331	0.09	662000	keystroke_Key.backspace	Key.backspace	n/a
331.195	0.12	662390	keystroke_a	a	n/a
331.465	0.06	662930	keystroke_Key.space	Key.space	n/a
331.63	0.09	663260	keystroke_p	p	n/a
331.735	0.09	663470	keystroke_a	a	n/a
331.929	0.061	663858	keystroke_s	s	n/a
332.08	0.09	664160	keystroke_s	s	n/a
332.23	0.045	664460	keystroke_i	i	n/a
332.275	0.075	664550	keystroke_v	v	n/a
332.395	0.09	664790	keystroke_e	e	n/a
332.545	0.105	665090	keystroke_Key.enter	Key.enter	n/a
332.655	9.4015	665310	prompt	n/a	persistent canberra capabilities failing\n
333.445	0.075	666890	keystroke_p	p	n/a
333.595	0.06	667190	keystroke_e	e	n/a
333.76	0.045	667520	keystroke_r	r	n/a
334.03	0.09	668060	keystroke_s	s	n/a
334.21	0.075	668420	keystroke_i	i	n/a
334.39	0.105	668780	keystroke_s	s	n/a
334.555	0.09	669110	keystroke_t	t	n/a
334.675	0.105	669350	keystroke_e	e	n/a
334.885	0.09	669770	keystroke_n	n	n/a
335.05	0.09	670100	keystroke_t	t	n/a
335.2	0.09	670400	keystroke_Key.space	Key.space	n/a
335.605	0.075	671210	keystroke_c	c	n/a
335.7395	0.12	671479	keystroke_a	a	n/a
335.9045	0.0755	671809	keystroke_n	n	n/a
336.1445	0.075	672289	keystroke_b	b	n/a
336.3095	0.09	672619	keystroke_e	e	n/a
336.5795	0.0755	673159	keystroke_r	r	n/a
336.9245	0.09	673849	keystroke_r	r	n/a
337.165	0.1045	674330	keystroke_a	a	n/a
337.3895	0.075	674779	keystroke_Key.space	Key.space	n/a
337.5995	0.075	675199	keystroke_c	c	n/a
337.7795	0.12	675559	keystroke_a	a	n/a
338.0495	0.09	676099	keystroke_p	p	n/a
338.2445	0.12	676489	keystroke_a	a	n/a
338.6195	0.075	677239	keystroke_b	b	n/a
338.83	0.0745	677660	keystroke_i	i	n/a
339.025	0.0895	678050	keystroke_l	l	n/a
339.235	0.1045	678470	keystroke_i	i	n/a
339.3695	0.09	678739	keystroke_t	t	n/a
339.505	0.0895	679010	keystroke_i	i	n/a
339.625	0.075	679250	keystroke_e	e	n/a
339.805	0.0745	679610	keystroke_s	s	n/a
340.4195	0.089	680839	keystroke_Key.space	Key.space	n/a
340.6145	0.0905	681229	keystroke_f	f	n/a
340.78	0.1345	681560	keystroke_a	a	n/a
340.9895	0.0905	681979	keystroke_i	i	n/a
341.17	0.105	682340	keystroke_l	l	n/a
341.38	0.075	682760	keystroke_i	i	n/a
341.545	0.09	683090	keystroke_n	n	n/a
341.695	0.075	683390	keystroke_g	g	n/a
341.965	0.09	683930	keystroke_Key.enter	Key.enter	n/a
342.061	8.0655	684122	prompt	n/a	organic convenient zones boots\n
342.745	0.105	685490	keystroke_o	o	n/a
342.91	0.09	685820	keystroke_r	r	n/a
343.09	0.075	686180	keystroke_g	g	n/a
343.225	0.12	686450	keystroke_a	a	n/a
343.405	0.09	686810	keystroke_n	n	n/a
343.585	0.105	687170	keystroke_i	i	n/a
343.81	0.09	687620	keystroke_c	c	n/a
344.019	0.09	688038	keystroke_Key.space	Key.space	n/a
344.289	0.105	688578	keystroke_o	o	n/a
344.634	0.09	689268	keystroke_Key.backspace	Key.backspace	n/a
344.86	0.104	689720	keystroke_c	c	n/a
345.04	0.105	690080	keystroke_o	o	n/a
345.369	0.075	690738	keystroke_n	n	n/a
345.639	0.105	691278	keystroke_v	v	n/a
346.284	0.09	692568	keystroke_e	e	n/a
346.494	0.105	692988	keystroke_n	n	n/a
346.779	0.09	693558	keystroke_i	i	n/a
346.974	0.091	693948	keystroke_e	e	n/a
347.124	0.105	694248	keystroke_n	n	n/a
347.304	0.091	694608	keystroke_t	t	n/a
347.514	0.075	695028	keystroke_Key.space	Key.space	n/a
347.934	0.106	695868	keystroke_z	z	n/a
348.1	0.059	696200	keystroke_o	o	n/a
348.28	0.075	696560	keystroke_n	n	n/a
348.399	0.076	696798	keystroke_e	e	n/a
348.61	0.105	697220	keystroke_s	s	n/a
348.835	0.074	697670	keystroke_Key.space	Key.space	n/a
349.059	0.061	698118	keystroke_b	b	n/a
349.225	0.074	698450	keystroke_o	o	n/a
349.39	0.105	698780	keystroke_o	o	n/a
349.555	0.06	699110	keystroke_t	t	n/a
349.765	0.089	699530	keystroke_s	s	n/a
350.034	0.09	700068	keystroke_Key.enter	Key.enter	n/a
350.13	10.587	700260	prompt	n/a	miracle example occasionally presidential\n
350.8595	0.09	701719	keystroke_p	p	n/a
351.2945	0.075	702589	keystroke_Key.backspace	Key.backspace	n/a
351.5805	0.074	703161	keystroke_m	m	n/a
351.7745	0.09	703549	keystroke_i	i	n/a
351.9395	0.075	703879	keystroke_r	r	n/a
352.1195	0.105	704239	keystroke_a	a	n/a
352.3295	0.09	704659	keystroke_c	c	n/a
352.5245	0.105	705049	keystroke_l	l	n/a
352.7195	0.06	705439	keystroke_e	e	n/a
352.8395	0.075	705679	keystroke_Key.space	Key.space	n/a
352.9595	0.06	705919	keystroke_e	e	n/a
353.1545	0.091	706309	keystroke_x	x	n/a
353.3345	0.105	706669	keystroke_a	a	n/a
353.5145	0.075	707029	keystroke_m	m	n/a
353.6645	0.09	707329	keystroke_p	p	n/a
353.8595	0.09	707719	keystroke_l	l	n/a
354.0245	0.075	708049	keystroke_e	e	n/a
354.1595	0.075	708319	keystroke_Key.space	Key.space	n/a
354.3395	0.09	708679	keystroke_o	o	n/a
354.4895	0.09	708979	keystroke_s	s	n/a
355.3445	0.09	710689	keystroke_Key.backspace	Key.backspace	n/a
355.6145	0.06	711229	keystroke_c	c	n/a
355.8105	0.074	711621	keystroke_c	c	n/a
356.0495	0.105	712099	keystroke_a	a	n/a
356.2745	0.075	712549	keystroke_s	s	n/a
356.5445	0.075	713089	keystroke_i	i	n/a
356.7245	0.09	713449	keystroke_o	o	n/a
356.9045	0.09	713809	keystroke_n	n	n/a
357.0845	0.105	714169	keystroke_a	a	n/a
357.2645	0.06	714529	keystroke_l	l	n/a
357.4445	0.075	714889	keystroke_l	l	n/a
357.6995	0.075	715399	keystroke_y	y	n/a
357.8795	0.075	715759	keystroke_Key.space	Key.space	n/a
358.0445	0.09	716089	keystroke_p	p	n/a
358.2695	0.075	716539	keystroke_r	r	n/a
358.4495	0.091	716899	keystroke_e	e	n/a
358.6895	0.075	717379	keystroke_s	s	n/a
358.8695	0.075	717739	keystroke_i	i	n/a
358.9895	0.06	717979	keystroke_d	d	n/a
359.1395	0.076	718279	keystroke_e	e	n/a
359.2745	0.076	718549	keystroke_n	n	n/a
359.4555	0.089	718911	keystroke_t	t	n/a
359.9345	0.106	719869	keystroke_i	i	n/a
360.1145	0.105	720229	keystroke_a	a	n/a
360.2955	0.089	720591	keystroke_l	l	n/a
360.6095	0.105	721219	keystroke_Key.enter	Key.enter	n/a
360.721	9.6255	721442	prompt	n/a	wordpress changes config robust\n
361.4495	0.09	722899	keystroke_w	w	n/a
361.5855	0.089	723171	keystroke_o	o	n/a
361.7045	0.09	723409	keystroke_r	r	n/a
361.8095	0.09	723619	keystroke_k	k	n/a
362.0055	0.089	724011	keystroke_p	p	n/a
362.1855	0.105	724371	keystroke_r	r	n/a
362.3645	0.091	724729	keystroke_e	e	n/a
362.6195	0.06	725239	keystroke_s	s	n/a
362.7995	0.061	725599	keystroke_s	s	n/a
364.3595	0.06	728719	keystroke_Key.backspace	Key.backspace	n/a
364.5545	0.06	729109	keystroke_Key.backspace	Key.backspace	n/a
364.7195	0.075	729439	keystroke_Key.backspace	Key.backspace	n/a
364.8695	0.09	729739	keystroke_Key.backspace	Key.backspace	n/a
365.0495	0.09	730099	keystroke_Key.backspace	Key.backspace	n/a
365.2145	0.09	730429	keystroke_Key.backspace	Key.backspace	n/a
365.3195	0.12	730639	keystroke_d	d	n/a
365.5305	0.075	731061	keystroke_p	p	n/a
365.6795	0.105	731359	keystroke_r	r	n/a
365.7555	0.104	731511	keystroke_e	e	n/a
365.9955	0.059	731991	keystroke_s	s	n/a
366.145	0.0595	732290	keystroke_s	s	n/a
366.279	0.0905	732558	keystroke_Key.space	Key.space	n/a
366.519	0.1205	733038	keystroke_c	c	n/a
366.654	0.091	733308	keystroke_h	h	n/a
366.76	0.119	733520	keystroke_a	a	n/a
366.865	0.09	733730	keystroke_n	n	n/a
366.9705	0.089	733941	keystroke_g	g	n/a
367.15	0.0895	734300	keystroke_e	e	n/a
367.3	0.1045	734600	keystroke_s	s	n/a
367.569	0.105	735138	keystroke_Key.space	Key.space	n/a
367.765	0.12	735530	keystroke_c	c	n/a
367.869	0.0605	735738	keystroke_o	o	n/a
367.989	0.09	735978	keystroke_n	n	n/a
368.11	0.045	736220	keystroke_f	f	n/a
368.199	0.091	736398	keystroke_i	i	n/a
368.3045	0.075	736609	keystroke_g	g	n/a
369.039	0.0755	738078	keystroke_Key.space	Key.space	n/a
369.415	0.075	738830	keystroke_r	r	n/a
369.504	0.0755	739008	keystroke_o	o	n/a
369.669	0.09	739338	keystroke_b	b	n/a
369.774	0.105	739548	keystroke_u	u	n/a
369.88	0.119	739760	keystroke_s	s	n/a
370.0145	0.0755	740029	keystroke_t	t	n/a
370.24	0.104	740480	keystroke_Key.enter	Key.enter	n/a
370.3515	15.835	740703	prompt	n/a	unavailable justify appliances contrast\n
371.065	0.06	742130	keystroke_u	u	n/a
371.2	0.09	742400	keystroke_n	n	n/a
371.365	0.089	742730	keystroke_a	a	n/a
371.485	0.089	742970	keystroke_v	v	n/a
371.679	0.09	743358	keystroke_i	i	n/a
371.83	0.134	743660	keystroke_a	a	n/a
372.024	0.105	744048	keystroke_l	l	n/a
372.564	0.06	745128	keystroke_Key.backspace	Key.backspace	n/a
372.699	0.075	745398	keystroke_Key.backspace	Key.backspace	n/a
372.849	0.09	745698	keystroke_Key.backspace	Key.backspace	n/a
372.954	0.15	745908	keystroke_a	a	n/a
373.119	0.061	746238	keystroke_i	i	n/a
373.299	0.03	746598	keystroke_l	l	n/a
373.389	0.135	746778	keystroke_a	a	n/a
373.555	0.074	747110	keystroke_b	b	n/a
373.735	0.105	747470	keystroke_l	l	n/a
373.884	0.075	747768	keystroke_e	e	n/a
375.024	0.076	750048	keystroke_Key.space	Key.space	n/a
375.159	0.091	750318	keystroke_j	j	n/a
375.325	0.12	750650	keystroke_u	u	n/a
375.399	0.105	750798	keystroke_s	s	n/a
375.55	0.089	751100	keystroke_t	t	n/a
375.685	0.09	751370	keystroke_i	i	n/a
375.789	0.105	751578	keystroke_f	f	n/a
375.969	0.09	751938	keystroke_y	y	n/a
376.164	0.075	752328	keystroke_Key.space	Key.space	n/a
376.434	0.121	752868	keystroke_a	a	n/a
376.69	0.089	753380	keystroke_p	p	n/a
376.84	0.089	753680	keystroke_p	p	n/a
377.049	0.091	754098	keystroke_l	l	n/a
377.244	0.091	754488	keystroke_i	i	n/a
377.365	0.089	754730	keystroke_c	c	n/a
377.484	0.136	754968	keystroke_a	a	n/a
377.665	0.105	755330	keystroke_n	n	n/a
377.815	0.119	755630	keystroke_c	c	n/a
377.95	0.105	755900	keystroke_e	e	n/a
378.564	0.106	757128	keystroke_s	s	n/a
378.819	0.09	757638	keystroke_Key.space	Key.space	n/a
382.0775	0.012	764155	keystroke_Key.backspace	Key.backspace	n/a
382.2535	0.06	764507	keystroke_Key.backspace	Key.backspace	n/a
382.4935	0.076	764987	keystroke_Key.backspace	Key.backspace	n/a
382.7035	0.06	765407	keystroke_Key.backspace	Key.backspace	n/a
382.8835	0.061	765767	keystroke_Key.backspace	Key.backspace	n/a
383.0645	0.074	766129	keystroke_Key.backspace	Key.backspace	n/a
383.2585	0.075	766517	keystroke_Key.backspace	Key.backspace	n/a
383.3945	0.134	766789	keystroke_a	a	n/a
383.5735	0.105	767147	keystroke_n	n	n/a
383.7685	0.091	767537	keystroke_c	c	n/a
383.9495	0.06	767899	keystroke_e	e	n/a
384.1445	0.09	768289	keystroke_s	s	n/a
384.7285	0.106	769457	keystroke_Key.space	Key.space	n/a
384.9085	0.136	769817	keystroke_c	c	n/a
385.0585	0.061	770117	keystroke_o	o	n/a
385.1945	0.104	770389	keystroke_n	n	n/a
385.3145	0.09	770629	keystroke_t	t	n/a
385.4045	0.12	770809	keystroke_r	r	n/a
385.5395	0.135	771079	keystroke_a	a	n/a
385.7035	0.106	771407	keystroke_s	s	n/a
385.8545	0.075	771709	keystroke_t	t	n/a
386.0795	0.104	772159	keystroke_Key.enter	Key.enter	n/a
386.191	9.3705	772382	prompt	n/a	environments point who'll monitored\n
386.7995	0.09	773599	keystroke_e	e	n/a
386.9645	0.105	773929	keystroke_n	n	n/a
387.4595	0.075	774919	keystroke_v	v	n/a
387.6535	0.091	775307	keystroke_i	i	n/a
387.9985	0.091	775997	keystroke_r	r	n/a
388.2095	0.075	776419	keystroke_o	o	n/a
388.4495	0.06	776899	keystroke_n	n	n/a
388.6745	0.0755	777349	keystroke_m	m	n/a
388.854	0.105	777708	keystroke_e	e	n/a
388.99	0.09	777980	keystroke_n	n	n/a
389.095	0.075	778190	keystroke_t	t	n/a
389.29	0.105	778580	keystroke_s	s	n/a
389.425	0.089	778850	keystroke_Key.space	Key.space	n/a
389.635	0.09	779270	keystroke_p	p	n/a
389.8595	0.075	779719	keystroke_o	o	n/a
390.0535	0.091	780107	keystroke_i	i	n/a
390.2045	0.089	780409	keystroke_n	n	n/a
390.3695	0.089	780739	keystroke_t	t	n/a
390.5195	0.09	781039	keystroke_Key.space	Key.space	n/a
390.7595	0.105	781519	keystroke_w	w	n/a
390.9095	0.119	781819	keystroke_h	h	n/a
391.0445	0.165	782089	keystroke_o	o	n/a
391.4345	0.135	782869	keystroke_'	'	n/a
391.8695	0.075	783739	keystroke_l	l	n/a
392.0645	0.09	784129	keystroke_l	l	n/a
392.3645	0.09	784729	keystroke_Key.space	Key.space	n/a
392.5895	0.06	785179	keystroke_m	m	n/a
392.7545	0.075	785509	keystroke_o	o	n/a
392.9345	0.06	785869	keystroke_n	n	n/a
393.0835	0.106	786167	keystroke_i	i	n/a
393.3095	0.09	786619	keystroke_t	t	n/a
393.4745	0.105	786949	keystroke_o	o	n/a
394.0595	0.09	788119	keystroke_e	e	n/a
394.4645	0.06	788929	keystroke_Key.backspace	Key.backspace	n/a
394.5545	0.09	789109	keystroke_r	r	n/a
394.7945	0.06	789589	keystroke_e	e	n/a
394.9895	0.06	789979	keystroke_d	d	n/a
395.4695	0.089	790939	keystroke_Key.enter	Key.enter	n/a
395.567	6.879	791134	prompt	n/a	interstate charlie familiar fitted\n
396.3545	0.075	792709	keystroke_i	i	n/a
396.5195	0.09	793039	keystroke_n	n	n/a
396.5945	0.09	793189	keystroke_t	t	n/a
396.7145	0.104	793429	keystroke_e	e	n/a
396.7745	0.105	793549	keystroke_r	r	n/a
396.9245	0.12	793849	keystroke_s	s	n/a
397.0295	0.075	794059	keystroke_t	t	n/a
397.1635	0.136	794327	keystroke_a	a	n/a
397.2535	0.121	794507	keystroke_t	t	n/a
397.8545	0.09	795709	keystroke_e	e	n/a
398.0645	0.09	796129	keystroke_Key.space	Key.space	n/a
398.2595	0.09	796519	keystroke_c	c	n/a
398.3645	0.089	796729	keystroke_h	h	n/a
398.4395	0.105	796879	keystroke_a	a	n/a
398.5145	0.09	797029	keystroke_r	r	n/a
398.6795	0.105	797359	keystroke_l	l	n/a
398.7995	0.12	797599	keystroke_i	i	n/a
398.9645	0.06	797929	keystroke_e	e	n/a
399.0245	0.075	798049	keystroke_Key.space	Key.space	n/a
399.2195	0.075	798439	keystroke_f	f	n/a
399.4445	0.12	798889	keystroke_a	a	n/a
399.6695	0.09	799339	keystroke_m	m	n/a
400.2995	0.105	800599	keystroke_i	i	n/a
400.5095	0.075	801019	keystroke_l	l	n/a
400.6295	0.12	801259	keystroke_i	i	n/a
400.7645	0.105	801529	keystroke_a	a	n/a
400.8245	0.105	801649	keystroke_r	r	n/a
401.3795	0.09	802759	keystroke_Key.space	Key.space	n/a
401.5145	0.135	803029	keystroke_f	f	n/a
401.6795	0.09	803359	keystroke_i	i	n/a
401.7845	0.045	803569	keystroke_t	t	n/a
401.9045	0.06	803809	keystroke_t	t	n/a
402.0245	0.075	804049	keystroke_e	e	n/a
402.2195	0.06	804439	keystroke_d	d	n/a
402.3545	0.09	804709	keystroke_Key.enter	Key.enter	n/a
402.4505	7.436	804901	prompt	n/a	attending temporal weapon regarded\n
403.0295	0.09	806059	keystroke_a	a	n/a
403.1795	0.075	806359	keystroke_t	t	n/a
403.3295	0.09	806659	keystroke_t	t	n/a
403.4645	0.075	806929	keystroke_e	e	n/a
403.5995	0.09	807199	keystroke_n	n	n/a
403.6745	0.075	807349	keystroke_d	d	n/a
403.7795	0.135	807559	keystroke_i	i	n/a
403.8545	0.135	807709	keystroke_n	n	n/a
403.9745	0.075	807949	keystroke_g	g	n/a
404.1245	0.105	808249	keystroke_Key.space	Key.space	n/a
404.2895	0.09	808579	keystroke_t	t	n/a
404.5445	0.075	809089	keystroke_e	e	n/a
404.7545	0.075	809509	keystroke_m	m	n/a
404.9345	0.075	809869	keystroke_p	p	n/a
405.1145	0.105	810229	keystroke_o	o	n/a
405.2345	0.09	810469	keystroke_r	r	n/a
405.3845	0.105	810769	keystroke_a	a	n/a
405.7445	0.075	811489	keystroke_l	l	n/a
405.9395	0.09	811879	keystroke_Key.space	Key.space	n/a
406.2545	0.105	812509	keystroke_w	w	n/a
406.3445	0.12	812689	keystroke_e	e	n/a
406.4795	0.12	812959	keystroke_a	a	n/a
406.6445	0.075	813289	keystroke_p	p	n/a
406.8395	0.075	813679	keystroke_o	o	n/a
406.9895	0.09	813979	keystroke_n	n	n/a
407.3945	0.075	814789	keystroke_Key.space	Key.space	n/a
408.4295	0.06	816859	keystroke_r	r	n/a
408.5795	0.09	817159	keystroke_e	e	n/a
408.7745	0.075	817549	keystroke_g	g	n/a
408.9095	0.12	817819	keystroke_a	a	n/a
408.9995	0.105	817999	keystroke_r	r	n/a
409.2245	0.06	818449	keystroke_d	d	n/a
409.3895	0.075	818779	keystroke_e	e	n/a
409.5695	0.06	819139	keystroke_d	d	n/a
409.8095	0.075	819619	keystroke_Key.enter	Key.enter	n/a
409.8915	7.8695	819783	prompt	n/a	creation delivering providers metres\n
410.5445	0.075	821089	keystroke_c	c	n/a
410.7095	0.15	821419	keystroke_r	r	n/a
410.8445	0.045	821689	keystroke_e	e	n/a
410.9195	0.12	821839	keystroke_a	a	n/a
411.0245	0.09	822049	keystroke_t	t	n/a
411.1745	0.09	822349	keystroke_i	i	n/a
411.3695	0.1345	822739	keystroke_o	o	n/a
411.489	0.1055	822978	keystroke_n	n	n/a
411.8945	0.075	823789	keystroke_Key.space	Key.space	n/a
412.0445	0.075	824089	keystroke_d	d	n/a
412.2245	0.075	824449	keystroke_e	e	n/a
412.4645	0.09	824929	keystroke_l	l	n/a
412.6595	0.09	825319	keystroke_i	i	n/a
412.8095	0.075	825619	keystroke_v	v	n/a
412.9895	0.09	825979	keystroke_e	e	n/a
413.1845	0.06	826369	keystroke_r	r	n/a
413.3645	0.06	826729	keystroke_i	i	n/a
413.5295	0.1045	827059	keystroke_n	n	n/a
413.709	0.09	827418	keystroke_g	g	n/a
413.889	0.09	827778	keystroke_Key.space	Key.space	n/a
414.294	0.105	828588	keystroke_p	p	n/a
414.504	0.075	829008	keystroke_r	r	n/a
414.639	0.09	829278	keystroke_o	o	n/a
414.759	0.0755	829518	keystroke_v	v	n/a
414.879	0.09	829758	keystroke_i	i	n/a
414.984	0.06	829968	keystroke_d	d	n/a
415.179	0.09	830358	keystroke_e	e	n/a
415.284	0.09	830568	keystroke_r	r	n/a
415.599	0.105	831198	keystroke_s	s	n/a
415.899	0.0905	831798	keystroke_Key.space	Key.space	n/a
416.214	0.09	832428	keystroke_m	m	n/a
416.364	0.09	832728	keystroke_e	e	n/a
416.574	0.075	833148	keystroke_t	t	n/a
416.769	0.075	833538	keystroke_r	r	n/a
417.099	0.09	834198	keystroke_e	e	n/a
417.3545	0.0595	834709	keystroke_s	s	n/a
417.6545	0.1045	835309	keystroke_Key.enter	Key.enter	n/a
417.7705	5.93	835541	prompt	n/a	seeks consider curves exam\n
418.464	0.105	836928	keystroke_s	s	n/a
418.659	0.045	837318	keystroke_e	e	n/a
418.794	0.075	837588	keystroke_e	e	n/a
419.079	0.015	838158	keystroke_k	k	n/a
419.109	0.075	838218	keystroke_s	s	n/a
419.199	0.105	838398	keystroke_Key.space	Key.space	n/a
419.454	0.09	838908	keystroke_c	c	n/a
419.604	0.075	839208	keystroke_o	o	n/a
419.784	0.09	839568	keystroke_n	n	n/a
419.904	0.075	839808	keystroke_s	s	n/a
420.009	0.09	840018	keystroke_i	i	n/a
420.114	0.075	840228	keystroke_d	d	n/a
420.324	0.075	840648	keystroke_e	e	n/a
420.519	0.075	841038	keystroke_r	r	n/a
420.744	0.09	841488	keystroke_Key.space	Key.space	n/a
420.939	0.105	841878	keystroke_c	c	n/a
421.179	0.09	842358	keystroke_u	u	n/a
421.329	0.075	842658	keystroke_r	r	n/a
421.464	0.075	842928	keystroke_v	v	n/a
421.644	0.06	843288	keystroke_e	e	n/a
421.854	0.075	843708	keystroke_s	s	n/a
422.124	0.075	844248	keystroke_Key.space	Key.space	n/a
422.739	0.045	845478	keystroke_e	e	n/a
422.919	0.075	845838	keystroke_x	x	n/a
423.084	0.105	846168	keystroke_a	a	n/a
423.219	0.09	846438	keystroke_m	m	n/a
423.609	0.09	847218	keystroke_Key.enter	Key.enter	n/a
423.705	5.5605	847410	prompt	n/a	click astrology ripe knew\n
424.434	0.105	848868	keystroke_c	c	n/a
424.554	0.09	849108	keystroke_l	l	n/a
424.629	0.09	849258	keystroke_i	i	n/a
424.749	0.105	849498	keystroke_c	c	n/a
424.839	0.09	849678	keystroke_k	k	n/a
424.944	0.09	849888	keystroke_Key.space	Key.space	n/a
425.079	0.045	850158	keystroke_e	e	n/a
425.379	0.09	850758	keystroke_Key.backspace	Key.backspace	n/a
425.529	0.12	851058	keystroke_a	a	n/a
425.724	0.09	851448	keystroke_s	s	n/a
425.874	0.075	851748	keystroke_t	t	n/a
426.009	0.105	852018	keystroke_r	r	n/a
426.129	0.09	852258	keystroke_o	o	n/a
426.324	0.075	852648	keystroke_l	l	n/a
426.474	0.105	852948	keystroke_o	o	n/a
426.609	0.09	853218	keystroke_g	g	n/a
426.759	0.075	853518	keystroke_y	y	n/a
426.894	0.09	853788	keystroke_Key.space	Key.space	n/a
427.119	0.105	854238	keystroke_r	r	n/a
427.254	0.075	854508	keystroke_i	i	n/a
427.419	0.075	854838	keystroke_p	p	n/a
427.554	0.075	855108	keystroke_e	e	n/a
427.644	0.075	855288	keystroke_Key.space	Key.space	n/a
427.779	0.135	855558	keystroke_w	w	n/a
428.274	0.09	856548	keystroke_Key.backspace	Key.backspace	n/a
428.499	0.075	856998	keystroke_k	k	n/a
428.709	0.075	857418	keystroke_n	n	n/a
428.799	0.105	857598	keystroke_e	e	n/a
428.874	0.105	857748	keystroke_w	w	n/a
429.174	0.09	858348	keystroke_Key.enter	Key.enter	n/a
429.2715	11.1695	858543	prompt	n/a	noted confirm warranties aggressive\n
429.984	0.09	859968	keystroke_n	n	n/a
430.119	0.12	860238	keystroke_o	o	n/a
430.254	0.045	860508	keystroke_r	r	n/a
430.254	0.06	860508	keystroke_t	t	n/a
430.359	0.075	860718	keystroke_e	e	n/a
430.554	0.075	861108	keystroke_d	d	n/a
430.659	0.075	861318	keystroke_Key.space	Key.space	n/a
430.764	0.09	861528	keystroke_c	c	n/a
430.839	0.135	861678	keystroke_o	o	n/a
431.4095	0.075	862819	keystroke_Key.backspace	Key.backspace	n/a
431.6345	0.06	863269	keystroke_Key.backspace	Key.backspace	n/a
431.8445	0.075	863689	keystroke_Key.backspace	Key.backspace	n/a
432.0695	0.075	864139	keystroke_Key.backspace	Key.backspace	n/a
432.2645	0.075	864529	keystroke_Key.backspace	Key.backspace	n/a
432.4445	0.09	864889	keystroke_Key.backspace	Key.backspace	n/a
432.6695	0.075	865339	keystroke_Key.backspace	Key.backspace	n/a
432.8345	0.09	865669	keystroke_t	t	n/a
433.0295	0.045	866059	keystroke_e	e	n/a
433.2395	0.075	866479	keystroke_d	d	n/a
433.3745	0.105	866749	keystroke_Key.space	Key.space	n/a
433.5545	0.105	867109	keystroke_c	c	n/a
433.6445	0.105	867289	keystroke_o	o	n/a
433.7345	0.105	867469	keystroke_n	n	n/a
433.8695	0.09	867739	keystroke_f	f	n/a
433.9895	0.075	867979	keystroke_i	i	n/a
434.1245	0.105	868249	keystroke_r	r	n/a
434.3795	0.09	868759	keystroke_m	m	n/a
434.6495	0.09	869299	keystroke_Key.space	Key.space	n/a
434.9345	0.075	869869	keystroke_w	w	n/a
435.0845	0.105	870169	keystroke_a	a	n/a
435.2645	0.075	870529	keystroke_r	r	n/a
435.4295	0.09	870859	keystroke_r	r	n/a
435.8345	0.12	871669	keystroke_a	a	n/a
436.0445	0.105	872089	keystroke_n	n	n/a
436.2245	0.105	872449	keystroke_t	t	n/a
436.4645	0.135	872929	keystroke_i	i	n/a
436.6445	0.06	873289	keystroke_e	e	n/a
436.8695	0.09	873739	keystroke_s	s	n/a
437.1545	0.09	874309	keystroke_Key.space	Key.space	n/a
437.6495	0.105	875299	keystroke_a	a	n/a
437.8895	0.06	875779	keystroke_g	g	n/a
438.0845	0.09	876169	keystroke_g	g	n/a
438.3395	0.075	876679	keystroke_r	r	n/a
438.5645	0.105	877129	keystroke_e	e	n/a
438.8795	0.075	877759	keystroke_s	s	n/a
439.0445	0.105	878089	keystroke_s	s	n/a
439.2095	0.105	878419	keystroke_i	i	n/a
439.3595	0.09	878719	keystroke_v	v	n/a
439.5995	0.06	879199	keystroke_e	e	n/a
440.3345	0.105	880669	keystroke_Key.enter	Key.enter	n/a
440.448	6.983	880896	prompt	n/a	configuring rich putting scenarios\n
441.0545	0.105	882109	keystroke_c	c	n/a
441.2045	0.06	882409	keystroke_o	o	n/a
441.3545	0.09	882709	keystroke_n	n	n/a
441.4895	0.105	882979	keystroke_f	f	n/a
441.6095	0.09	883219	keystroke_i	i	n/a
441.7295	0.09	883459	keystroke_g	g	n/a
441.8645	0.12	883729	keystroke_u	u	n/a
441.9845	0.105	883969	keystroke_r	r	n/a
442.1795	0.06	884359	keystroke_i	i	n/a
442.3445	0.105	884689	keystroke_n	n	n/a
442.5095	0.09	885019	keystroke_g	g	n/a
442.6595	0.105	885319	keystroke_Key.space	Key.space	n/a
442.8545	0.09	885709	keystroke_r	r	n/a
443.0045	0.105	886009	keystroke_i	i	n/a
443.1545	0.105	886309	keystroke_c	c	n/a
443.3195	0.09	886639	keystroke_h	h	n/a
443.4845	0.09	886969	keystroke_Key.space	Key.space	n/a
443.7995	0.075	887599	keystroke_p	p	n/a
443.9945	0.075	887989	keystroke_u	u	n/a
444.1295	0.06	888259	keystroke_t	t	n/a
444.2645	0.105	888529	keystroke_t	t	n/a
444.4445	0.135	888889	keystroke_i	i	n/a
444.5345	0.12	889069	keystroke_n	n	n/a
444.7145	0.09	889429	keystroke_g	g	n/a
444.8195	0.09	889639	keystroke_Key.space	Key.space	n/a
444.9845	0.12	889969	keystroke_s	s	n/a
445.5245	0.06	891049	keystroke_c	c	n/a
445.7045	0.075	891409	keystroke_e	e	n/a
445.9145	0.09	891829	keystroke_n	n	n/a
446.0945	0.105	892189	keystroke_a	a	n/a
446.2745	0.105	892549	keystroke_r	r	n/a
446.4695	0.075	892939	keystroke_i	i	n/a
446.6645	0.105	893329	keystroke_o	o	n/a
446.8445	0.105	893689	keystroke_s	s	n/a
447.3245	0.105	894649	keystroke_Key.enter	Key.enter	n/a
447.4355	10.6605	894871	prompt	n/a	compatible bless instrumentation underwear\n
448.1945	0.105	896389	keystroke_c	c	n/a
448.3445	0.105	896689	keystroke_o	o	n/a
448.5545	0.075	897109	keystroke_m	m	n/a
448.7495	0.09	897499	keystroke_p	p	n/a
449.0795	0.09	898159	keystroke_a	a	n/a
449.4695	0.09	898939	keystroke_t	t	n/a
449.7395	0.09	899479	keystroke_i	i	n/a
449.9645	0.075	899929	keystroke_b	b	n/a
450.1895	0.09	900379	keystroke_l	l	n/a
450.3845	0.075	900769	keystroke_e	e	n/a
450.5195	0.09	901039	keystroke_Key.space	Key.space	n/a
450.7895	0.075	901579	keystroke_b	b	n/a
450.9995	0.105	901999	keystroke_l	l	n/a
451.1495	0.06	902299	keystroke_e	e	n/a
451.3145	0.105	902629	keystroke_s	s	n/a
451.5695	0.075	903139	keystroke_s	s	n/a
452.0795	0.075	904159	keystroke_Key.space	Key.space	n/a
452.2895	0.075	904579	keystroke_i	i	n/a
452.4845	0.09	904969	keystroke_n	n	n/a
452.6345	0.105	905269	keystroke_s	s	n/a
452.7995	0.0905	905599	keystroke_t	t	n/a
452.949	0.121	905898	keystroke_r	r	n/a
453.085	0.045	906170	keystroke_u	u	n/a
453.235	0.089	906470	keystroke_m	m	n/a
453.34	0.074	906680	keystroke_e	e	n/a
453.459	0.075	906918	keystroke_n	n	n/a
453.52	0.09	907040	keystroke_t	t	n/a
453.654	0.12	907308	keystroke_a	a	n/a
453.73	0.074	907460	keystroke_t	t	n/a
453.865	0.074	907730	keystroke_i	i	n/a
453.969	0.136	907938	keystroke_o	o	n/a
454.075	0.105	908150	keystroke_n	n	n/a
454.584	0.09	909168	keystroke_Key.space	Key.space	n/a
454.824	0.061	909648	keystroke_u	u	n/a
454.84	0.029	909680	keystroke_y	y	n/a
454.974	0.09	909948	keystroke_n	n	n/a
455.08	0.12	910160	keystroke_d	d	n/a
455.649	0.075	911298	keystroke_Key.backspace	Key.backspace	n/a
455.814	0.075	911628	keystroke_Key.backspace	Key.backspace	n/a
456.294	0.03	912588	keystroke_Key.backspace	Key.backspace	n/a
456.505	0.059	913010	keystroke_n	n	n/a
456.654	0.075	913308	keystroke_d	d	n/a
456.864	0.06	913728	keystroke_e	e	n/a
457.06	0.059	914120	keystroke_r	r	n/a
457.254	0.09	914508	keystroke_w	w	n/a
457.359	0.09	914718	keystroke_e	e	n/a
457.479	0.105	914958	keystroke_a	a	n/a
457.554	0.06	915108	keystroke_r	r	n/a
458.019	0.075	916038	keystroke_Key.enter	Key.enter	n/a
458.101	7.57	916202	prompt	n/a	module sheffield deal downloads\n
458.6635	0.091	917327	keystroke_m	m	n/a
458.829	0.1045	917658	keystroke_o	o	n/a
458.979	0.106	917958	keystroke_d	d	n/a
459.1135	0.075	918227	keystroke_u	u	n/a
459.2935	0.091	918587	keystroke_l	l	n/a
459.4285	0.076	918857	keystroke_e	e	n/a
459.549	0.0895	919098	keystroke_Key.space	Key.space	n/a
459.8045	0.105	919609	keystroke_s	s	n/a
460.179	0.0895	920358	keystroke_h	h	n/a
460.3885	0.076	920777	keystroke_e	e	n/a
460.81	0.075	921620	keystroke_f	f	n/a
460.974	0.0895	921948	keystroke_f	f	n/a
461.1545	0.105	922309	keystroke_i	i	n/a
461.349	0.105	922698	keystroke_e	e	n/a
461.5295	0.1045	923059	keystroke_l	l	n/a
461.6935	0.106	923387	keystroke_d	d	n/a
461.9185	0.0905	923837	keystroke_Key.space	Key.space	n/a
463.0135	0.0905	926027	keystroke_f	f	n/a
463.4185	0.0905	926837	keystroke_Key.backspace	Key.backspace	n/a
463.5695	0.09	927139	keystroke_d	d	n/a
463.779	0.0445	927558	keystroke_e	e	n/a
463.8985	0.105	927797	keystroke_a	a	n/a
464.1245	0.074	928249	keystroke_l	l	n/a
464.2895	0.074	928579	keystroke_Key.space	Key.space	n/a
464.4095	0.089	928819	keystroke_d	d	n/a
464.5145	0.074	929029	keystroke_o	o	n/a
464.6035	0.106	929207	keystroke_w	w	n/a
464.7095	0.059	929419	keystroke_n	n	n/a
464.8435	0.091	929687	keystroke_l	l	n/a
464.9945	0.09	929989	keystroke_o	o	n/a
465.0685	0.105	930137	keystroke_a	a	n/a
465.1895	0.104	930379	keystroke_d	d	n/a
465.3535	0.075	930707	keystroke_s	s	n/a
465.5785	0.09	931157	keystroke_Key.enter	Key.enter	n/a
465.6765	9.31	931353	prompt	n/a	memo invited teachers medicine\n
466.2245	0.089	932449	keystroke_m	m	n/a
466.4485	0.106	932897	keystroke_o	o	n/a
466.8385	0.09	933677	keystroke_Key.backspace	Key.backspace	n/a
466.9735	0.106	933947	keystroke_e	e	n/a
467.2145	0.059	934429	keystroke_m	m	n/a
467.4095	0.075	934819	keystroke_o	o	n/a
467.6635	0.09	935327	keystroke_Key.space	Key.space	n/a
468.0695	0.044	936139	keystroke_h	h	n/a
468.4885	0.09	936977	keystroke_Key.backspace	Key.backspace	n/a
468.7285	0.076	937457	keystroke_i	i	n/a
468.9235	0.091	937847	keystroke_n	n	n/a
469.1045	0.105	938209	keystroke_v	v	n/a
469.3145	0.09	938629	keystroke_i	i	n/a
469.4795	0.075	938959	keystroke_t	t	n/a
469.6745	0.06	939349	keystroke_e	e	n/a
469.8995	0.074	939799	keystroke_d	d	n/a
470.5885	0.075	941177	keystroke_Key.space	Key.space	n/a
470.7545	0.075	941509	keystroke_t	t	n/a
470.9045	0.105	941809	keystroke_e	e	n/a
471.0535	0.136	942107	keystroke_a	a	n/a
471.1745	0.105	942349	keystroke_c	c	n/a
471.3535	0.106	942707	keystroke_h	h	n/a
471.5045	0.089	943009	keystroke_e	e	n/a
471.6845	0.059	943369	keystroke_r	r	n/a
471.8785	0.09	943757	keystroke_s	s	n/a
472.1645	0.075	944329	keystroke_Key.space	Key.space	n/a
472.5395	0.059	945079	keystroke_m	m	n/a
472.7795	0.075	945559	keystroke_d	d	n/a
473.1535	0.091	946307	keystroke_Key.backspace	Key.backspace	n/a
473.3945	0.075	946789	keystroke_e	e	n/a
473.7095	0.105	947419	keystroke_d	d	n/a
473.9195	0.105	947839	keystroke_i	i	n/a
474.1445	0.09	948289	keystroke_c	c	n/a
474.2945	0.104	948589	keystroke_i	i	n/a
474.4895	0.105	948979	keystroke_n	n	n/a
474.6545	0.075	949309	keystroke_e	e	n/a
474.8945	0.09	949789	keystroke_Key.enter	Key.enter	n/a
474.991	6.5795	949982	prompt	n/a	days visitor what'll hdtv\n
475.6735	0.09	951347	keystroke_d	d	n/a
475.8095	0.135	951619	keystroke_a	a	n/a
475.9885	0.091	951977	keystroke_y	y	n/a
476.1545	0.105	952309	keystroke_s	s	n/a
476.3045	0.089	952609	keystroke_Key.space	Key.space	n/a
476.5295	0.09	953059	keystroke_v	v	n/a
476.6645	0.105	953329	keystroke_i	i	n/a
476.8145	0.104	953629	keystroke_s	s	n/a
477.0985	0.045	954197	keystroke_t	t	n/a
477.4145	0.075	954829	keystroke_Key.backspace	Key.backspace	n/a
477.6395	0.105	955279	keystroke_i	i	n/a
477.8345	0.105	955669	keystroke_t	t	n/a
478.0595	0.15	956119	keystroke_o	o	n/a
478.3445	0.075	956689	keystroke_r	r	n/a
478.7635	0.105	957527	keystroke_Key.space	Key.space	n/a
479.0945	0.09	958189	keystroke_w	w	n/a
479.2595	0.105	958519	keystroke_h	h	n/a
479.3485	0.121	958697	keystroke_a	a	n/a
479.4095	0.104	958819	keystroke_t	t	n/a
479.6345	0.105	959269	keystroke_'	'	n/a
479.9345	0.075	959869	keystroke_l	l	n/a
480.1295	0.09	960259	keystroke_l	l	n/a
480.2935	0.105	960587	keystroke_Key.space	Key.space	n/a
480.5645	0.09	961129	keystroke_h	h	n/a
480.7145	0.09	961429	keystroke_d	d	n/a
480.9095	0.075	961819	keystroke_t	t	n/a
481.1635	0.075	962327	keystroke_v	v	n/a
481.4795	0.09	962959	keystroke_Key.enter	Key.enter	n/a
481.5745	6.432	963149	prompt	n/a	michigan fred entity pete\n
482.1845	0.075	964369	keystroke_m	m	n/a
482.3645	0.105	964729	keystroke_i	i	n/a
482.6195	0.074	965239	keystroke_c	c	n/a
482.7685	0.091	965537	keystroke_h	h	n/a
482.9935	0.105	965987	keystroke_i	i	n/a
483.2185	0.076	966437	keystroke_g	g	n/a
483.3695	0.119	966739	keystroke_a	a	n/a
483.6235	0.091	967247	keystroke_n	n	n/a
483.8185	0.091	967637	keystroke_Key.space	Key.space	n/a
483.9695	0.105	967939	keystroke_f	f	n/a
484.3295	0.06	968659	keystroke_r	r	n/a
484.5395	0.06	969079	keystroke_e	e	n/a
484.7645	0.075	969529	keystroke_d	d	n/a
484.9735	0.075	969947	keystroke_Key.space	Key.space	n/a
485.1845	0.075	970369	keystroke_e	e	n/a
485.4235	0.136	970847	keystroke_n	n	n/a
485.6785	0.106	971357	keystroke_t	t	n/a
485.8885	0.105	971777	keystroke_i	i	n/a
486.0695	0.09	972139	keystroke_t	t	n/a
486.2645	0.075	972529	keystroke_y	y	n/a
486.4595	0.074	972919	keystroke_Key.space	Key.space	n/a
486.6395	0.075	973279	keystroke_e	e	n/a
486.9235	0.09	973847	keystroke_Key.backspace	Key.backspace	n/a
487.1795	0.105	974359	keystroke_p	p	n/a
487.4645	0.014	974929	keystroke_e	e	n/a
487.5395	0.074	975079	keystroke_t	t	n/a
487.6885	0.076	975377	keystroke_e	e	n/a
487.8985	0.106	975797	keystroke_Key.enter	Key.enter	n/a
488.011	8.155	976022	prompt	n/a	regulatory hampshire nodes portions\n
488.7395	0.075	977479	keystroke_r	r	n/a
488.8295	0.12	977659	keystroke_e	e	n/a
489.0545	0.09	978109	keystroke_g	g	n/a
489.2345	0.059	978469	keystroke_u	u	n/a
489.3995	0.104	978799	keystroke_l	l	n/a
489.5045	0.105	979009	keystroke_a	a	n/a
489.7735	0.091	979547	keystroke_t	t	n/a
489.9995	0.105	979999	keystroke_o	o	n/a
490.1795	0.075	980359	keystroke_r	r	n/a
490.3895	0.075	980779	keystroke_y	y	n/a
490.6285	0.09	981257	keystroke_Key.space	Key.space	n/a
491.2145	0.104	982429	keystroke_h	h	n/a
491.3345	0.12	982669	keystroke_a	a	n/a
491.5745	0.06	983149	keystroke_m	m	n/a
491.7395	0.09	983479	keystroke_p	p	n/a
491.9045	0.12	983809	keystroke_s	s	n/a
492.0995	0.075	984199	keystroke_h	h	n/a
492.2795	0.105	984559	keystroke_i	i	n/a
492.4145	0.074	984829	keystroke_r	r	n/a
492.6545	0.075	985309	keystroke_e	e	n/a
492.8935	0.075	985787	keystroke_Key.space	Key.space	n/a
493.1195	0.059	986239	keystroke_n	n	n/a
493.2695	0.09	986539	keystroke_o	o	n/a
493.3895	0.075	986779	keystroke_d	d	n/a
493.5845	0.045	987169	keystroke_e	e	n/a
493.7495	0.105	987499	keystroke_s	s	n/a
493.9885	0.06	987977	keystroke_Key.space	Key.space	n/a
494.1845	0.074	988369	keystroke_n	n	n/a
494.4545	0.074	988909	keystroke_Key.backspace	Key.backspace	n/a
494.6785	0.105	989357	keystroke_p	p	n/a
494.9195	0.09	989839	keystroke_o	o	n/a
495.0545	0.075	990109	keystroke_r	r	n/a
495.2345	0.12	990469	keystroke_t	t	n/a
495.3995	0.089	990799	keystroke_i	i	n/a
495.5945	0.075	991189	keystroke_o	o	n/a
495.7295	0.09	991459	keystroke_n	n	n/a
495.8945	0.075	991789	keystroke_s	s	n/a
496.0745	0.089	992149	keystroke_Key.enter	Key.enter	n/a
496.17	9.7605	992340	prompt	n/a	late refer encourages prescription\n
496.9145	0.09	993829	keystroke_l	l	n/a
497.0195	0.12	994039	keystroke_a	a	n/a
497.1995	0.09	994399	keystroke_t	t	n/a
497.4095	0.075	994819	keystroke_e	e	n/a
497.5445	0.089	995089	keystroke_Key.space	Key.space	n/a
497.6645	0.09	995329	keystroke_r	r	n/a
497.7395	0.09	995479	keystroke_e	e	n/a
497.9635	0.076	995927	keystroke_f	f	n/a
498.1445	0.135	996289	keystroke_e	e	n/a
498.2945	0.075	996589	keystroke_r	r	n/a
498.5045	0.089	997009	keystroke_Key.space	Key.space	n/a
499.1485	0.0905	998297	keystroke_e	e	n/a
499.329	0.105	998658	keystroke_n	n	n/a
499.509	0.075	999018	keystroke_c	c	n/a
499.644	0.09	999288	keystroke_o	o	n/a
499.824	0.12	999648	keystroke_r	r	n/a
499.974	0.09	999948	keystroke_u	u	n/a
500.124	0.12	1000248	keystroke_a	a	n/a
500.469	0.075	1000938	keystroke_g	g	n/a
500.634	0.075	1001268	keystroke_e	e	n/a
500.979	0.075	1001958	keystroke_Key.backspace	Key.backspace	n/a
501.204	0.06	1002408	keystroke_Key.backspace	Key.backspace	n/a
501.384	0.09	1002768	keystroke_Key.backspace	Key.backspace	n/a
501.564	0.06	1003128	keystroke_Key.backspace	Key.backspace	n/a
501.699	0.075	1003398	keystroke_Key.backspace	Key.backspace	n/a
501.939	0.075	1003878	keystroke_u	u	n/a
502.044	0.075	1004088	keystroke_r	r	n/a
502.224	0.12	1004448	keystroke_a	a	n/a
502.494	0.075	1004988	keystroke_g	g	n/a
502.674	0.06	1005348	keystroke_e	e	n/a
502.899	0.105	1005798	keystroke_s	s	n/a
503.229	0.09	1006458	keystroke_Key.space	Key.space	n/a
503.439	0.105	1006878	keystroke_p	p	n/a
503.574	0.09	1007148	keystroke_e	e	n/a
503.949	0.09	1007898	keystroke_Key.backspace	Key.backspace	n/a
504.144	0.09	1008288	keystroke_r	r	n/a
504.399	0.06	1008798	keystroke_e	e	n/a
504.609	0.09	1009218	keystroke_s	s	n/a
504.744	0.075	1009488	keystroke_c	c	n/a
504.939	0.09	1009878	keystroke_r	r	n/a
505.089	0.075	1010178	keystroke_i	i	n/a
505.209	0.105	1010418	keystroke_p	p	n/a
505.344	0.075	1010688	keystroke_t	t	n/a
505.434	0.075	1010868	keystroke_i	i	n/a
505.569	0.12	1011138	keystroke_o	o	n/a
505.659	0.09	1011318	keystroke_n	n	n/a
505.839	0.09	1011678	keystroke_Key.enter	Key.enter	n/a
505.9355	6.775	1011871	prompt	n/a	flashing verse august administrator\n
506.619	0.09	1013238	keystroke_f	f	n/a
506.784	0.105	1013568	keystroke_l	l	n/a
506.859	0.075	1013718	keystroke_a	a	n/a
506.889	0.12	1013778	keystroke_s	s	n/a
507.054	0.09	1014108	keystroke_h	h	n/a
507.159	0.15	1014318	keystroke_i	i	n/a
507.279	0.075	1014558	keystroke_n	n	n/a
507.369	0.075	1014738	keystroke_g	g	n/a
507.459	0.06	1014918	keystroke_Key.space	Key.space	n/a
507.579	0.075	1015158	keystroke_v	v	n/a
507.759	0.075	1015518	keystroke_e	e	n/a
507.939	0.06	1015878	keystroke_r	r	n/a
508.134	0.105	1016268	keystroke_s	s	n/a
508.314	0.075	1016628	keystroke_e	e	n/a
508.584	0.105	1017168	keystroke_Key.space	Key.space	n/a
508.824	0.105	1017648	keystroke_a	a	n/a
509.034	0.12	1018068	keystroke_u	u	n/a
509.169	0.105	1018338	keystroke_g	g	n/a
509.319	0.12	1018638	keystroke_u	u	n/a
509.454	0.09	1018908	keystroke_s	s	n/a
509.589	0.09	1019178	keystroke_t	t	n/a
509.889	0.09	1019778	keystroke_Key.space	Key.space	n/a
510.279	0.105	1020558	keystroke_a	a	n/a
510.489	0.09	1020978	keystroke_d	d	n/a
510.624	0.09	1021248	keystroke_m	m	n/a
510.804	0.075	1021608	keystroke_i	i	n/a
510.954	0.09	1021908	keystroke_n	n	n/a
511.2085	0.0905	1022417	keystroke_i	i	n/a
511.374	0.1045	1022748	keystroke_s	s	n/a
511.5085	0.1355	1023017	keystroke_t	t	n/a
511.6285	0.105	1023257	keystroke_r	r	n/a
511.7635	0.1205	1023527	keystroke_a	a	n/a
511.8385	0.105	1023677	keystroke_t	t	n/a
512.079	0.105	1024158	keystroke_o	o	n/a
512.229	0.076	1024458	keystroke_r	r	n/a
512.6185	0.09	1025237	keystroke_Key.enter	Key.enter	n/a
512.717	9.324	1025434	prompt	n/a	summaries classical gothic organisations\n
513.414	0.1195	1026828	keystroke_s	s	n/a
513.609	0.0745	1027218	keystroke_u	u	n/a
513.804	0.075	1027608	keystroke_m	m	n/a
513.984	0.0745	1027968	keystroke_m	m	n/a
514.1045	0.0895	1028209	keystroke_a	a	n/a
514.299	0.0895	1028598	keystroke_r	r	n/a
514.5085	0.105	1029017	keystroke_i	i	n/a
514.689	0.0445	1029378	keystroke_e	e	n/a
514.8085	0.12	1029617	keystroke_s	s	n/a
515.0635	0.0905	1030127	keystroke_Key.space	Key.space	n/a
515.2735	0.09	1030547	keystroke_c	c	n/a
515.4835	0.106	1030967	keystroke_l	l	n/a
515.6635	0.129	1031327	keystroke_a	a	n/a
515.9485	0.075	1031897	keystroke_s	s	n/a
516.1285	0.09	1032257	keystroke_s	s	n/a
516.3845	0.0895	1032769	keystroke_i	i	n/a
516.5785	0.105	1033157	keystroke_c	c	n/a
516.999	0.0895	1033998	keystroke_a	a	n/a
517.2385	0.09	1034477	keystroke_l	l	n/a
517.5245	0.089	1035049	keystroke_Key.space	Key.space	n/a
517.8685	0.09	1035737	keystroke_g	g	n/a
518.1385	0.09	1036277	keystroke_o	o	n/a
518.2585	0.105	1036517	keystroke_t	t	n/a
518.4235	0.075	1036847	keystroke_h	h	n/a
518.6185	0.09	1037237	keystroke_i	i	n/a
518.8285	0.09	1037657	keystroke_c	c	n/a
519.1135	0.075	1038227	keystroke_Key.space	Key.space	n/a
519.5045	0.104	1039009	keystroke_o	o	n/a
519.6685	0.09	1039337	keystroke_r	r	n/a
519.8785	0.09	1039757	keystroke_g	g	n/a
520.1035	0.105	1040207	keystroke_a	a	n/a
520.4335	0.075	1040867	keystroke_n	n	n/a
520.6435	0.09	1041287	keystroke_i	i	n/a
520.8685	0.09	1041737	keystroke_s	s	n/a
521.0485	0.105	1042097	keystroke_a	a	n/a
521.1985	0.105	1042397	keystroke_t	t	n/a
521.3485	0.075	1042697	keystroke_i	i	n/a
521.4835	0.12	1042967	keystroke_o	o	n/a
521.5585	0.105	1043117	keystroke_n	n	n/a
521.7085	0.06	1043417	keystroke_s	s	n/a
521.9335	0.105	1043867	keystroke_Key.enter	Key.enter	n/a
522.058	8.533	1044116	prompt	n/a	gambling application hungary homeland\n
522.6845	0.089	1045369	keystroke_g	g	n/a
522.8635	0.105	1045727	keystroke_a	a	n/a
523.1335	0.075	1046267	keystroke_m	m	n/a
523.3585	0.06	1046717	keystroke_b	b	n/a
523.5235	0.075	1047047	keystroke_l	l	n/a
523.7045	0.089	1047409	keystroke_i	i	n/a
523.8835	0.105	1047767	keystroke_n	n	n/a
524.0635	0.075	1048127	keystroke_g	g	n/a
524.6035	0.075	1049207	keystroke_Key.space	Key.space	n/a
525.0085	0.136	1050017	keystroke_a	a	n/a
525.2035	0.075	1050407	keystroke_p	p	n/a
525.3535	0.075	1050707	keystroke_p	p	n/a
525.5485	0.09	1051097	keystroke_l	l	n/a
525.7735	0.09	1051547	keystroke_i	i	n/a
525.9835	0.105	1051967	keystroke_c	c	n/a
526.1485	0.12	1052297	keystroke_a	a	n/a
526.2835	0.09	1052567	keystroke_t	t	n/a
526.4485	0.0755	1052897	keystroke_i	i	n/a
526.629	0.12	1053258	keystroke_o	o	n/a
526.734	0.09	1053468	keystroke_n	n	n/a
526.974	0.09	1053948	keystroke_Key.space	Key.space	n/a
527.544	0.06	1055088	keystroke_h	h	n/a
527.724	0.075	1055448	keystroke_u	u	n/a
527.904	0.09	1055808	keystroke_n	n	n/a
528.084	0.075	1056168	keystroke_g	g	n/a
528.294	0.105	1056588	keystroke_a	a	n/a
528.534	0.06	1057068	keystroke_r	r	n/a
