onset	duration	sample	value	key	prompt_text
7.9945	14.5805	15989	prompt	n/a	the quick brown fox jumps over a lazy dog\n
9.1965	0.0415	18393	keystroke	t	n/a
9.253	0.1355	18506	keystroke	h	n/a
10.2875	0.1065	20575	keystroke	e	n/a
10.378	0.09	20756	keystroke	Key.space	n/a
10.663	0.1055	21326	keystroke	q	n/a
10.8135	0.105	21627	keystroke	u	n/a
10.9335	0.075	21867	keystroke	i	n/a
11.174	0.105	22348	keystroke	c	n/a
11.294	0.1345	22588	keystroke	k	n/a
11.4735	0.12	22947	keystroke	Key.space	n/a
11.7285	0.1045	23457	keystroke	b	n/a
11.863	0.09	23726	keystroke	r	n/a
12.133	0.06	24266	keystroke	w	n/a
12.7625	0.0755	25525	keystroke	Key.backspace	n/a
13.063	0.09	26126	keystroke	o	n/a
13.2885	0.0895	26577	keystroke	w	n/a
13.528	0.1055	27056	keystroke	Key.space	n/a
13.6185	0.105	27237	keystroke	n	n/a
13.8885	0.044	27777	keystroke	Key.backspace	n/a
14.0225	0.06	28045	keystroke	Key.backspace	n/a
14.1885	0.089	28377	keystroke	n	n/a
14.3225	0.076	28645	keystroke	Key.space	n/a
14.4135	0.0745	28827	keystroke	f	n/a
14.533	0.105	29066	keystroke	o	n/a
14.683	0.105	29366	keystroke	x	n/a
14.788	0.0755	29576	keystroke	Key.space	n/a
14.968	0.105	29936	keystroke	j	n/a
15.148	0.09	30296	keystroke	u	n/a
15.373	0.135	30746	keystroke	m	n/a
15.553	0.0895	31106	keystroke	p	n/a
15.6875	0.09	31375	keystroke	s	n/a
15.8225	0.075	31645	keystroke	Key.space	n/a
15.9875	0.09	31975	keystroke	o	n/a
16.0475	0.075	32095	keystroke	v	n/a
16.1675	0.09	32335	keystroke	e	n/a
16.2425	0.0755	32485	keystroke	r	n/a
16.423	0.06	32846	keystroke	Key.space	n/a
16.558	0.09	33116	keystroke	a	n/a
16.648	0.1045	33296	keystroke	Key.space	n/a
16.918	0.075	33836	keystroke	a	n/a
17.2625	0.09	34525	keystroke	Key.backspace	n/a
17.7875	0.105	35575	keystroke	k	n/a
17.9225	0.075	35845	keystroke	a	n/a
18.942	0.075	37884	keystroke	Key.backspace	n/a
19.122	0.09	38244	keystroke	Key.backspace	n/a
19.617	0.06	39234	keystroke	Key.backspace	n/a
20.4415	0.105	40883	keystroke	Key.space	n/a
20.6515	0.12	41303	keystroke	l	n/a
20.8015	0.12	41603	keystroke	a	n/a
21.207	0.12	42414	keystroke	z	n/a
21.342	0.075	42684	keystroke	y	n/a
21.626	0.12	43252	keystroke	Key.space	n/a
21.851	0.09	43702	keystroke	d	n/a
21.956	0.091	43912	keystroke	o	n/a
22.151	0.075	44302	keystroke	g	n/a
22.4965	0.0755	44993	keystroke	Key.enter	n/a
22.581	6.172	45162	prompt	n/a	adaptation thinks command deer\n
23.2165	0.105	46433	keystroke	a	n/a
23.3815	0.0905	46763	keystroke	d	n/a
23.501	0.091	47002	keystroke	a	n/a
23.607	0.1045	47214	keystroke	p	n/a
23.9065	0.0755	47813	keystroke	t	n/a
24.476	0.105	48952	keystroke	a	n/a
24.687	0.074	49374	keystroke	t	n/a
24.731	0.105	49462	keystroke	i	n/a
24.852	0.179	49704	keystroke	o	n/a
24.926	0.151	49852	keystroke	n	n/a
25.196	0.06	50392	keystroke	Key.space	n/a
25.7065	0.0745	51413	keystroke	t	n/a
25.766	0.12	51532	keystroke	h	n/a
25.871	0.0905	51742	keystroke	i	n/a
25.9465	0.135	51893	keystroke	n	n/a
26.0825	0.104	52165	keystroke	k	n/a
26.216	0.09	52432	keystroke	s	n/a
26.336	0.075	52672	keystroke	Key.space	n/a
26.6065	0.105	53213	keystroke	c	n/a
26.6965	0.075	53393	keystroke	o	n/a
26.7415	0.09	53483	keystroke	m	n/a
26.8915	0.09	53783	keystroke	m	n/a
26.9965	0.09	53993	keystroke	a	n/a
27.1165	0.09	54233	keystroke	n	n/a
27.2215	0.135	54443	keystroke	d	n/a
27.5065	0.0895	55013	keystroke	Key.space	n/a
27.7615	0.0895	55523	keystroke	d	n/a
27.911	0.12	55822	keystroke	e	n/a
28.316	0.105	56632	keystroke	e	n/a
28.466	0.075	56932	keystroke	r	n/a
28.631	0.12	57262	keystroke	Key.enter	n/a
28.7565	5.022	57513	prompt	n/a	conflict connect chapel spoke\n
29.262	0.089	58524	keystroke	c	n/a
29.336	0.135	58672	keystroke	o	n/a
29.411	0.09	58822	keystroke	n	n/a
29.531	0.09	59062	keystroke	f	n/a
29.681	0.12	59362	keystroke	l	n/a
29.741	0.09	59482	keystroke	i	n/a
29.832	0.104	59664	keystroke	c	n/a
30.071	0.075	60142	keystroke	t	n/a
30.176	0.105	60352	keystroke	Key.space	n/a
30.461	0.075	60922	keystroke	c	n/a
30.521	0.1205	61042	keystroke	o	n/a
30.611	0.0605	61222	keystroke	n	n/a
30.7315	0.119	61463	keystroke	n	n/a
30.8665	0.075	61733	keystroke	e	n/a
30.9265	0.075	61853	keystroke	c	n/a
31.1365	0.06	62273	keystroke	t	n/a
31.2415	0.119	62483	keystroke	Key.space	n/a
31.8115	0.075	63623	keystroke	c	n/a
31.9015	0.105	63803	keystroke	h	n/a
32.0355	0.091	64071	keystroke	a	n/a
32.2165	0.12	64433	keystroke	p	n/a
32.3965	0.09	64793	keystroke	e	n/a
32.5165	0.105	65033	keystroke	l	n/a
32.6805	0.106	65361	keystroke	Key.space	n/a
32.9365	0.09	65873	keystroke	s	n/a
33.0415	0.12	66083	keystroke	p	n/a
33.1165	0.09	66233	keystroke	o	n/a
33.3265	0.09	66653	keystroke	k	n/a
33.4175	0.074	66835	keystroke	e	n/a
33.6565	0.12	67313	keystroke	Key.enter	n/a
33.783	7.63	67566	prompt	n/a	stunning executed brunette terminals\n
34.2865	0.09	68573	keystroke	s	n/a
34.5115	0.075	69023	keystroke	t	n/a
34.6015	0.12	69203	keystroke	u	n/a
34.7815	0.075	69563	keystroke	n	n/a
34.9315	0.105	69863	keystroke	n	n/a
35.0665	0.12	70133	keystroke	i	n/a
35.1565	0.09	70313	keystroke	n	n/a
35.2315	0.09	70463	keystroke	g	n/a
35.3365	0.105	70673	keystroke	Key.space	n/a
35.606	0.075	71212	keystroke	e	n/a
35.831	0.09	71662	keystroke	x	n/a
36.041	0.09	72082	keystroke	e	n/a
36.176	0.075	72352	keystroke	c	n/a
36.296	0.105	72592	keystroke	u	n/a
36.431	0.075	72862	keystroke	t	n/a
36.596	0.105	73192	keystroke	i	n/a
36.671	0.105	73342	keystroke	n	n/a
37.031	0.045	74062	keystroke	Key.backspace	n/a
37.151	0.075	74302	keystroke	Key.backspace	n/a
37.316	0.09	74632	keystroke	e	n/a
37.376	0.075	74752	keystroke	d	n/a
37.571	0.105	75142	keystroke	Key.space	n/a
38.501	0.09	77002	keystroke	b	n/a
38.651	0.075	77302	keystroke	r	n/a
38.741	0.12	77482	keystroke	u	n/a
38.801	0.105	77602	keystroke	n	n/a
39.116	0.09	78232	keystroke	e	n/a
39.296	0.075	78592	keystroke	t	n/a
39.461	0.09	78922	keystroke	t	n/a
39.596	0.105	79192	keystroke	e	n/a
39.7455	0.12	79491	keystroke	Key.space	n/a
40.1655	0.075	80331	keystroke	t	n/a
40.3155	0.09	80631	keystroke	e	n/a
40.3905	0.075	80781	keystroke	r	n/a
40.4805	0.135	80961	keystroke	m	n/a
40.6455	0.12	81291	keystroke	i	n/a
40.7055	0.105	81411	keystroke	n	n/a
40.9155	0.075	81831	keystroke	a	n/a
41.0055	0.105	82011	keystroke	l	n/a
41.1255	0.075	82251	keystroke	s	n/a
41.3055	0.105	82611	keystroke	Key.enter	n/a
41.418	4.33	82836	prompt	n/a	approve turned bracket he\n
41.951	0.074	83902	keystroke	a	n/a
42.101	0.12	84202	keystroke	p	n/a
42.28	0.091	84560	keystroke	p	n/a
42.386	0.075	84772	keystroke	r	n/a
42.506	0.09	85012	keystroke	o	n/a
42.611	0.09	85222	keystroke	v	n/a
42.731	0.12	85462	keystroke	e	n/a
42.865	0.105	85730	keystroke	Key.space	n/a
43.1055	0.075	86211	keystroke	t	n/a
43.1655	0.105	86331	keystroke	u	n/a
43.3155	0.09	86631	keystroke	r	n/a
43.4205	0.09	86841	keystroke	n	n/a
43.5255	0.105	87051	keystroke	e	n/a
43.6005	0.09	87201	keystroke	d	n/a
43.7355	0.09	87471	keystroke	Key.space	n/a
44.1705	0.09	88341	keystroke	b	n/a
44.2305	0.075	88461	keystroke	r	n/a
44.3505	0.075	88701	keystroke	a	n/a
44.5155	0.075	89031	keystroke	c	n/a
44.6055	0.105	89211	keystroke	k	n/a
44.9055	0.075	89811	keystroke	e	n/a
44.9955	0.075	89991	keystroke	t	n/a
45.1305	0.105	90261	keystroke	Key.space	n/a
45.3555	0.09	90711	keystroke	h	n/a
45.4305	0.06	90861	keystroke	e	n/a
45.655	0.091	91310	keystroke	Key.enter	n/a
45.7525	8.32	91505	prompt	n/a	pharmacology cove nigeria bored\n
46.391	0.075	92782	keystroke	p	n/a
46.811	0.09	93622	keystroke	h	n/a
47.006	0.09	94012	keystroke	a	n/a
47.276	0.075	94552	keystroke	r	n/a
47.411	0.12	94822	keystroke	m	n/a
47.575	0.0905	95150	keystroke	a	n/a
47.876	0.1045	95752	keystroke	c	n/a
47.9355	0.105	95871	keystroke	o	n/a
48.2205	0.03	96441	keystroke	k	n/a
48.6705	0.0745	97341	keystroke	Key.backspace	n/a
48.956	0.1045	97912	keystroke	l	n/a
49.3005	0.09	98601	keystroke	o	n/a
49.4805	0.0905	98961	keystroke	g	n/a
49.6305	0.12	99261	keystroke	y	n/a
50.0205	0.075	100041	keystroke	Key.space	n/a
50.1855	0.105	100371	keystroke	c	n/a
50.2755	0.09	100551	keystroke	o	n/a
50.3955	0.09	100791	keystroke	v	n/a
50.5155	0.09	101031	keystroke	e	n/a
50.9055	0.075	101811	keystroke	Key.space	n/a
51.1455	0.09	102291	keystroke	n	n/a
51.3405	0.03	102681	keystroke	i	n/a
51.6705	0.075	103341	keystroke	g	n/a
51.7905	0.105	103581	keystroke	e	n/a
51.8655	0.0895	103731	keystroke	r	n/a
52.0605	0.12	104121	keystroke	i	n/a
52.2255	0.105	104451	keystroke	a	n/a
52.36	0.106	104720	keystroke	Key.space	n/a
53.2455	0.105	106491	keystroke	b	n/a
53.4105	0.1195	106821	keystroke	o	n/a
53.56	0.061	107120	keystroke	r	n/a
53.7255	0.09	107451	keystroke	e	n/a
53.7855	0.075	107571	keystroke	d	n/a
53.9805	0.09	107961	keystroke	Key.enter	n/a
54.0815	6.007	108163	prompt	n/a	bodies jumping pursuit sized\n
54.8055	0.105	109611	keystroke	b	n/a
54.9555	0.105	109911	keystroke	o	n/a
55.1055	0.09	110211	keystroke	d	n/a
55.2105	0.0905	110421	keystroke	i	n/a
55.301	0.059	110602	keystroke	e	n/a
55.465	0.076	110930	keystroke	s	n/a
55.72	0.12	111440	keystroke	Key.space	n/a
56.02	0.105	112040	keystroke	j	n/a
56.2	0.091	112400	keystroke	u	n/a
56.6795	0.106	113359	keystroke	m	n/a
56.8455	0.1195	113691	keystroke	p	n/a
57.085	0.106	114170	keystroke	i	n/a
57.145	0.09	114290	keystroke	n	n/a
57.25	0.091	114500	keystroke	g	n/a
57.355	0.1045	114710	keystroke	Key.space	n/a
57.8805	0.089	115761	keystroke	p	n/a
58.135	0.075	116270	keystroke	u	n/a
58.256	0.074	116512	keystroke	r	n/a
58.48	0.12	116960	keystroke	s	n/a
58.585	0.135	117170	keystroke	u	n/a
58.69	0.105	117380	keystroke	i	n/a
58.765	0.076	117530	keystroke	t	n/a
58.93	0.105	117860	keystroke	Key.space	n/a
59.3055	0.075	118611	keystroke	s	n/a
59.3805	0.105	118761	keystroke	i	n/a
59.546	0.089	119092	keystroke	z	n/a
59.756	0.105	119512	keystroke	e	n/a
59.83	0.105	119660	keystroke	d	n/a
59.995	0.09	119990	keystroke	Key.enter	n/a
60.0925	5.59	120185	prompt	n/a	diesel losses already pope\n
60.656	0.074	121312	keystroke	d	n/a
60.716	0.089	121432	keystroke	i	n/a
61.525	0.06	123050	keystroke	e	n/a
61.69	0.061	123380	keystroke	s	n/a
61.87	0.06	123740	keystroke	e	n/a
62.111	0.089	124222	keystroke	l	n/a
62.32	0.09	124640	keystroke	Key.space	n/a
62.575	0.075	125150	keystroke	l	n/a
62.74	0.075	125480	keystroke	o	n/a
62.86	0.091	125720	keystroke	s	n/a
63.026	0.09	126052	keystroke	s	n/a
63.206	0.06	126412	keystroke	e	n/a
63.3705	0.105	126741	keystroke	s	n/a
63.4605	0.105	126921	keystroke	Key.space	n/a
63.7305	0.075	127461	keystroke	a	n/a
63.8065	0.089	127613	keystroke	l	n/a
63.9105	0.09	127821	keystroke	r	n/a
63.9855	0.075	127971	keystroke	e	n/a
64.1655	0.09	128331	keystroke	a	n/a
64.1955	0.09	128391	keystroke	d	n/a
64.3155	0.075	128631	keystroke	y	n/a
64.4955	0.075	128991	keystroke	Key.space	n/a
64.9005	0.135	129801	keystroke	p	n/a
65.0055	0.12	130011	keystroke	o	n/a
65.1855	0.09	130371	keystroke	p	n/a
65.3505	0.075	130701	keystroke	e	n/a
65.6205	0.06	131241	keystroke	Key.enter	n/a
65.6875	5.3805	131375	prompt	n/a	corners tuner bunch alternate\n
66.2055	0.105	132411	keystroke	c	n/a
66.3555	0.12	132711	keystroke	o	n/a
66.5205	0.075	133041	keystroke	r	n/a
66.6255	0.09	133251	keystroke	n	n/a
66.7005	0.09	133401	keystroke	e	n/a
66.7605	0.09	133521	keystroke	r	n/a
66.9105	0.09	133821	keystroke	s	n/a
67.0455	0.135	134091	keystroke	Key.space	n/a
67.3905	0.0905	134781	keystroke	t	n/a
67.495	0.105	134990	keystroke	u	n/a
67.75	0.075	135500	keystroke	n	n/a
67.855	0.12	135710	keystroke	e	n/a
67.945	0.106	135890	keystroke	r	n/a
68.035	0.105	136070	keystroke	Key.space	n/a
68.3205	0.12	136641	keystroke	b	n/a
68.5005	0.12	137001	keystroke	u	n/a
68.5755	0.09	137151	keystroke	n	n/a
68.6805	0.105	137361	keystroke	c	n/a
68.7855	0.12	137571	keystroke	h	n/a
68.9655	0.075	137931	keystroke	Key.space	n/a
69.1605	0.105	138321	keystroke	a	n/a
69.2505	0.105	138501	keystroke	l	n/a
69.4155	0.075	138831	keystroke	t	n/a
69.8805	0.0745	139761	keystroke	e	n/a
69.925	0.105	139850	keystroke	r	n/a
70.136	0.089	140272	keystroke	n	n/a
70.285	0.09	140570	keystroke	a	n/a
70.436	0.09	140872	keystroke	t	n/a
70.63	0.045	141260	keystroke	e	n/a
70.961	0.104	141922	keystroke	Key.enter	n/a
71.074	6.8645	142148	prompt	n/a	estates theories regional onion\n
71.756	0.089	143512	keystroke	e	n/a
71.95	0.121	143900	keystroke	s	n/a
72.116	0.059	144232	keystroke	t	n/a
72.2805	0.1055	144561	keystroke	a	n/a
72.461	0.09	144922	keystroke	t	n/a
72.521	0.075	145042	keystroke	e	n/a
72.701	0.075	145402	keystroke	s	n/a
72.806	0.09	145612	keystroke	Key.space	n/a
73.046	0.045	146092	keystroke	t	n/a
73.091	0.105	146182	keystroke	h	n/a
73.2405	0.1055	146481	keystroke	e	n/a
73.5255	0.1055	147051	keystroke	o	n/a
73.901	0.09	147802	keystroke	r	n/a
73.992	0.089	147984	keystroke	i	n/a
74.096	0.045	148192	keystroke	e	n/a
74.246	0.105	148492	keystroke	s	n/a
74.366	0.105	148732	keystroke	Key.space	n/a
74.666	0.045	149332	keystroke	e	n/a
74.771	0.06	149542	keystroke	r	n/a
75.176	0.045	150352	keystroke	Key.backspace	n/a
75.446	0.06	150892	keystroke	Key.backspace	n/a
75.581	0.1055	151162	keystroke	r	n/a
75.6715	0.075	151343	keystroke	e	n/a
75.8665	0.0895	151733	keystroke	g	n/a
75.941	0.105	151882	keystroke	i	n/a
76.0615	0.1345	152123	keystroke	o	n/a
76.136	0.135	152272	keystroke	n	n/a
76.256	0.09	152512	keystroke	a	n/a
76.391	0.105	152782	keystroke	l	n/a
76.615	0.09	153230	keystroke	Key.space	n/a
76.916	0.165	153832	keystroke	o	n/a
77.156	0.09	154312	keystroke	n	n/a
77.366	0.105	154732	keystroke	i	n/a
77.486	0.1495	154972	keystroke	o	n/a
77.606	0.0895	155212	keystroke	n	n/a
77.8455	0.09	155691	keystroke	Key.enter	n/a
77.943	7.434	155886	prompt	n/a	irrigation suitable jeffrey hurricane\n
78.5505	0.105	157101	keystroke	i	n/a
78.6565	0.059	157313	keystroke	r	n/a
78.7755	0.09	157551	keystroke	r	n/a
78.9555	0.09	157911	keystroke	i	n/a
79.2255	0.06	158451	keystroke	g	n/a
79.3605	0.075	158721	keystroke	a	n/a
79.5105	0.06	159021	keystroke	t	n/a
79.6005	0.1055	159201	keystroke	i	n/a
79.751	0.15	159502	keystroke	o	n/a
79.826	0.105	159652	keystroke	n	n/a
80.141	0.015	160282	keystroke	Key.space	n/a
80.501	0.09	161002	keystroke	s	n/a
80.576	0.09	161152	keystroke	u	n/a
80.861	0.09	161722	keystroke	i	n/a
80.966	0.075	161932	keystroke	t	n/a
81.161	0.105	162322	keystroke	a	n/a
81.266	0.105	162532	keystroke	b	n/a
81.446	0.075	162892	keystroke	l	n/a
81.581	0.06	163162	keystroke	e	n/a
81.746	0.09	163492	keystroke	Key.space	n/a
81.971	0.09	163942	keystroke	j	n/a
82.1055	0.045	164211	keystroke	e	n/a
82.3455	0.06	164691	keystroke	f	n/a
82.5105	0.075	165021	keystroke	f	n/a
82.8855	0.075	165771	keystroke	r	n/a
82.9455	0.075	165891	keystroke	e	n/a
83.0505	0.1055	166101	keystroke	y	n/a
83.291	0.075	166582	keystroke	Key.space	n/a
83.456	0.105	166912	keystroke	h	n/a
83.651	0.06	167302	keystroke	u	n/a
83.786	0.045	167572	keystroke	r	n/a
84.131	0.105	168262	keystroke	r	n/a
84.296	0.1045	168592	keystroke	i	n/a
84.5205	0.105	169041	keystroke	c	n/a
84.6855	0.09	169371	keystroke	a	n/a
84.7905	0.105	169581	keystroke	n	n/a
85.0155	0.045	170031	keystroke	e	n/a
85.3	0.075	170600	keystroke	Key.enter	n/a
85.3815	12.1015	170763	prompt	n/a	criterion columbus efficiency remarkable\n
85.9305	0.091	171861	keystroke	c	n/a
86.2015	0.074	172403	keystroke	r	n/a
86.9515	0.09	173903	keystroke	i	n/a
87.4465	0.12	174893	keystroke	t	n/a
87.6415	0.135	175283	keystroke	e	n/a
88.0015	0.0895	176003	keystroke	r	n/a
88.151	0.135	176302	keystroke	i	n/a
88.316	0.135	176632	keystroke	o	n/a
88.391	0.135	176782	keystroke	n	n/a
88.916	0.105	177832	keystroke	Key.space	n/a
89.156	0.105	178312	keystroke	c	n/a
89.231	0.105	178462	keystroke	o	n/a
89.471	0.135	178942	keystroke	l	n/a
89.636	0.075	179272	keystroke	u	n/a
89.861	0.075	179722	keystroke	m	n/a
90.056	0.075	180112	keystroke	b	n/a
90.596	0.09	181192	keystroke	u	n/a
90.851	0.075	181702	keystroke	s	n/a
91.001	0.105	182002	keystroke	Key.space	n/a
91.421	0.105	182842	keystroke	e	n/a
91.601	0.075	183202	keystroke	f	n/a
91.751	0.09	183502	keystroke	f	n/a
92.1105	0.135	184221	keystroke	i	n/a
92.4255	0.076	184851	keystroke	c	n/a
92.6805	0.1055	185361	keystroke	i	n/a
92.816	0.075	185632	keystroke	e	n/a
92.966	0.105	185932	keystroke	n	n/a
93.236	0.105	186472	keystroke	c	n/a
93.476	0.09	186952	keystroke	y	n/a
93.701	0.09	187402	keystroke	Key.space	n/a
94.316	0.12	188632	keystroke	r	n/a
94.406	0.075	188812	keystroke	e	n/a
94.541	0.06	189082	keystroke	n	n/a
94.781	0.09	189562	keystroke	a	n/a
95.411	0.06	190822	keystroke	Key.backspace	n/a
95.546	0.105	191092	keystroke	Key.backspace	n/a
96.0115	0.1045	192023	keystroke	m	n/a
96.176	0.09	192352	keystroke	a	n/a
96.296	0.075	192592	keystroke	r	n/a
96.371	0.105	192742	keystroke	k	n/a
96.716	0.09	193432	keystroke	a	n/a
96.821	0.09	193642	keystroke	b	n/a
96.941	0.165	193882	keystroke	l	n/a
97.107	0.074	194214	keystroke	e	n/a
97.406	0.075	194812	keystroke	Key.enter	n/a
97.487	6.6865	194974	prompt	n/a	prize motorcycles rebates tournaments\n
98.126	0.09	196252	keystroke	p	n/a
98.201	0.075	196402	keystroke	r	n/a
98.411	0.105	196822	keystroke	i	n/a
98.546	0.105	197092	keystroke	z	n/a
98.786	0.075	197572	keystroke	e	n/a
98.876	0.105	197752	keystroke	Key.space	n/a
99.116	0.09	198232	keystroke	m	n/a
99.221	0.105	198442	keystroke	o	n/a
99.341	0.06	198682	keystroke	t	n/a
99.716	0.105	199432	keystroke	o	n/a
99.851	0.03	199702	keystroke	r	n/a
100.121	0.105	200242	keystroke	c	n/a
100.226	0.12	200452	keystroke	y	n/a
100.376	0.075	200752	keystroke	c	n/a
100.466	0.09	200932	keystroke	l	n/a
100.601	0.06	201202	keystroke	e	n/a
100.811	0.06	201622	keystroke	s	n/a
100.886	0.075	201772	keystroke	Key.space	n/a
101.111	0.09	202222	keystroke	r	n/a
101.216	0.105	202432	keystroke	e	n/a
101.351	0.105	202702	keystroke	b	n/a
101.471	0.09	202942	keystroke	a	n/a
101.651	0.09	203302	keystroke	t	n/a
101.711	0.06	203422	keystroke	e	n/a
101.876	0.075	203752	keystroke	s	n/a
101.966	0.105	203932	keystroke	Key.space	n/a
102.356	0.06	204712	keystroke	t	n/a
102.461	0.165	204922	keystroke	o	n/a
102.536	0.105	205072	keystroke	u	n/a
102.776	0.0755	205552	keystroke	r	n/a
102.9865	0.09	205973	keystroke	n	n/a
103.1065	0.105	206213	keystroke	a	n/a
103.1965	0.09	206393	keystroke	m	n/a
103.5565	0.075	207113	keystroke	e	n/a
103.6465	0.06	207293	keystroke	n	n/a
103.7515	0.06	207503	keystroke	t	n/a
103.8565	0.09	207713	keystroke	s	n/a
104.0665	0.105	208133	keystroke	Key.enter	n/a
104.179	10.1795	208358	prompt	n/a	bras spot moisture surrounding\n
104.8165	0.09	209633	keystroke	b	n/a
104.8915	0.105	209783	keystroke	r	n/a
105.2365	0.12	210473	keystroke	a	n/a
105.3715	0.06	210743	keystroke	s	n/a
105.4915	0.12	210983	keystroke	Key.space	n/a
105.6865	0.105	211373	keystroke	s	n/a
105.837	0.135	211674	keystroke	o	n/a
105.912	0.074	211824	keystroke	i	n/a
106.151	0.091	212302	keystroke	t	n/a
106.7355	0.091	213471	keystroke	Key.backspace	n/a
106.9305	0.076	213861	keystroke	Key.backspace	n/a
107.1415	0.059	214283	keystroke	Key.backspace	n/a
107.756	0.135	215512	keystroke	p	n/a
107.936	0.06	215872	keystroke	o	n/a
107.981	0.09	215962	keystroke	t	n/a
108.146	0.105	216292	keystroke	Key.space	n/a
108.911	0.105	217822	keystroke	m	n/a
109.106	0.135	218212	keystroke	o	n/a
109.181	0.12	218362	keystroke	i	n/a
109.481	0.06	218962	keystroke	i	n/a
109.931	0.105	219862	keystroke	Key.backspace	n/a
110.126	0.105	220252	keystroke	s	n/a
110.246	0.075	220492	keystroke	t	n/a
110.351	0.09	220702	keystroke	u	n/a
110.726	0.09	221452	keystroke	r	n/a
110.846	0.105	221692	keystroke	e	n/a
110.981	0.0895	221962	keystroke	Key.space	n/a
111.2065	0.075	222413	keystroke	s	n/a
111.3865	0.105	222773	keystroke	u	n/a
111.5065	0.06	223013	keystroke	r	n/a
111.6265	0.075	223253	keystroke	r	n/a
111.8215	0.15	223643	keystroke	o	n/a
111.9265	0.075	223853	keystroke	u	n/a
112.1965	0.075	224393	keystroke	n	n/a
112.3765	0.06	224753	keystroke	d	n/a
112.8715	0.135	225743	keystroke	u	n/a
113.6365	0.06	227273	keystroke	Key.backspace	n/a
113.8915	0.135	227783	keystroke	i	n/a
113.9965	0.075	227993	keystroke	n	n/a
114.0565	0.075	228113	keystroke	g	n/a
114.2815	0.075	228563	keystroke	Key.enter	n/a
114.3625	7.7505	228725	prompt	n/a	shannon booty impose webcast\n
114.8515	0.105	229703	keystroke	s	n/a
114.9565	0.075	229913	keystroke	h	n/a
115.1215	0.09	230243	keystroke	a	n/a
115.1965	0.075	230393	keystroke	n	n/a
115.3465	0.12	230693	keystroke	n	n/a
115.5115	0.105	231023	keystroke	o	n/a
115.5865	0.105	231173	keystroke	n	n/a
115.9165	0.105	231833	keystroke	Key.space	n/a
116.3065	0.12	232613	keystroke	b	n/a
116.5165	0.09	233033	keystroke	o	n/a
116.6815	0.09	233363	keystroke	o	n/a
116.8165	0.075	233633	keystroke	t	n/a
116.9215	0.12	233843	keystroke	y	n/a
117.1315	0.09	234263	keystroke	Key.space	n/a
117.4765	0.105	234953	keystroke	i	n/a
117.7165	0.09	235433	keystroke	m	n/a
118.0015	0.09	236003	keystroke	o	n/a
118.0465	0.09	236093	keystroke	i	n/a
118.3165	0.015	236633	keystroke	s	n/a
118.8415	0.015	237683	keystroke	Key.backspace	n/a
119.2315	0.06	238463	keystroke	Key.backspace	n/a
119.5615	0.06	239123	keystroke	Key.backspace	n/a
120.1615	0.105	240323	keystroke	p	n/a
120.2365	0.075	240473	keystroke	o	n/a
120.2815	0.075	240563	keystroke	s	n/a
120.4615	0.06	240923	keystroke	e	n/a
120.5215	0.09	241043	keystroke	Key.space	n/a
121.0015	0.06	242003	keystroke	w	n/a
121.0315	0.105	242063	keystroke	e	n/a
121.1215	0.135	242243	keystroke	b	n/a
121.4365	0.075	242873	keystroke	c	n/a
121.5565	0.09	243113	keystroke	a	n/a
121.6015	0.12	243203	keystroke	s	n/a
121.8565	0.045	243713	keystroke	t	n/a
122.0365	0.075	244073	keystroke	Key.enter	n/a
122.1195	10.9315	244239	prompt	n/a	dinner discretion concentrations unfortunately\n
122.6815	0.09	245363	keystroke	d	n/a
122.7565	0.105	245513	keystroke	i	n/a
123.1615	0.09	246323	keystroke	n	n/a
123.3115	0.09	246623	keystroke	n	n/a
123.4015	0.09	246803	keystroke	e	n/a
123.4765	0.075	246953	keystroke	r	n/a
123.5515	0.09	247103	keystroke	Key.space	n/a
123.8065	0.075	247613	keystroke	d	n/a
123.8965	0.105	247793	keystroke	u	n/a
124.0465	0.09	248093	keystroke	s	n/a
124.1815	0.09	248363	keystroke	c	n/a
124.3765	0.09	248753	keystroke	r	n/a
125.0065	0.075	250013	keystroke	Key.backspace	n/a
125.1865	0.075	250373	keystroke	Key.backspace	n/a
125.3365	0.075	250673	keystroke	Key.backspace	n/a
125.6965	0.075	251393	keystroke	Key.backspace	n/a
126.0715	0.075	252143	keystroke	i	n/a
126.4915	0.09	252983	keystroke	s	n/a
126.6415	0.075	253283	keystroke	c	n/a
126.8215	0.09	253643	keystroke	r	n/a
126.8965	0.0755	253793	keystroke	e	n/a
127.212	0.06	254424	keystroke	t	n/a
127.287	0.075	254574	keystroke	i	n/a
127.392	0.135	254784	keystroke	o	n/a
127.467	0.12	254934	keystroke	n	n/a
127.662	0.1205	255324	keystroke	Key.space	n/a
128.0225	0.075	256045	keystroke	c	n/a
128.1275	0.105	256255	keystroke	o	n/a
128.1875	0.105	256375	keystroke	n	n/a
128.3225	0.075	256645	keystroke	c	n/a
128.5325	0.09	257065	keystroke	e	n/a
128.8325	0.09	257665	keystroke	n	n/a
129.238	0.06	258476	keystroke	t	n/a
129.448	0.075	258896	keystroke	r	n/a
129.673	0.075	259346	keystroke	a	n/a
129.868	0.075	259736	keystroke	t	n/a
129.958	0.075	259916	keystroke	i	n/a
130.034	0.134	260068	keystroke	o	n/a
130.138	0.09	260276	keystroke	n	n/a
130.228	0.105	260456	keystroke	s	n/a
130.3785	0.105	260757	keystroke	Key.space	n/a
130.8135	0.135	261627	keystroke	u	n/a
130.9185	0.1045	261837	keystroke	n	n/a
131.113	0.09	262226	keystroke	f	n/a
131.264	0.105	262528	keystroke	o	n/a
131.413	0.075	262826	keystroke	r	n/a
131.624	0.045	263248	keystroke	t	n/a
131.789	0.09	263578	keystroke	u	n/a
131.984	0.09	263968	keystroke	n	n/a
132.134	0.105	264268	keystroke	a	n/a
132.3445	0.06	264689	keystroke	t	n/a
132.4195	0.0285	264839	keystroke	e	n/a
132.5695	0.09	265139	keystroke	l	n/a
132.6895	0.045	265379	keystroke	y	n/a
132.9595	0.09	265919	keystroke	Key.enter	n/a
133.057	8.352	266114	prompt	n/a	subscribe agree missouri incident\n
133.6345	0.09	267269	keystroke	s	n/a
133.8445	0.135	267689	keystroke	u	n/a
133.9495	0.1195	267899	keystroke	b	n/a
134.204	0.106	268408	keystroke	s	n/a
134.369	0.09	268738	keystroke	c	n/a
134.579	0.0755	269158	keystroke	r	n/a
134.6995	0.105	269399	keystroke	i	n/a
134.7295	0.105	269459	keystroke	b	n/a
134.8645	0.09	269729	keystroke	e	n/a
135.0745	0.105	270149	keystroke	Key.space	n/a
135.4645	0.09	270929	keystroke	a	n/a
135.63	0.06	271260	keystroke	g	n/a
135.78	0.09	271560	keystroke	r	n/a
135.885	0.06	271770	keystroke	e	n/a
136.185	0.09	272370	keystroke	e	n/a
136.365	0.09	272730	keystroke	Key.space	n/a
136.59	0.045	273180	keystroke	n	n/a
136.68	0.09	273360	keystroke	u	n/a
137.3855	0.06	274771	keystroke	Key.backspace	n/a
137.5355	0.0745	275071	keystroke	Key.backspace	n/a
138.0605	0.135	276121	keystroke	m	n/a
138.1655	0.09	276331	keystroke	i	n/a
138.2705	0.06	276541	keystroke	s	n/a
138.4355	0.09	276871	keystroke	s	n/a
138.7655	0.12	277531	keystroke	o	n/a
138.8255	0.1055	277651	keystroke	u	n/a
138.991	0.075	277982	keystroke	r	n/a
139.216	0.12	278432	keystroke	i	n/a
139.561	0.09	279122	keystroke	Key.space	n/a
139.8615	0.135	279723	keystroke	i	n/a
139.9365	0.105	279873	keystroke	n	n/a
140.0265	0.105	280053	keystroke	c	n/a
140.1915	0.105	280383	keystroke	i	n/a
140.5665	0.09	281133	keystroke	d	n/a
140.7315	0.105	281463	keystroke	e	n/a
140.8515	0.12	281703	keystroke	n	n/a
141.0765	0.075	282153	keystroke	t	n/a
141.3015	0.105	282603	keystroke	Key.enter	n/a
141.4155	5.664	282831	prompt	n/a	fears rates cork horrible\n
142.097	0.09	284194	keystroke	f	n/a
142.217	0.09	284434	keystroke	e	n/a
142.412	0.0755	284824	keystroke	a	n/a
142.517	0.105	285034	keystroke	r	n/a
142.637	0.06	285274	keystroke	s	n/a
142.742	0.105	285484	keystroke	Key.space	n/a
143.192	0.075	286384	keystroke	r	n/a
143.312	0.075	286624	keystroke	a	n/a
143.462	0.075	286924	keystroke	t	n/a
143.522	0.06	287044	keystroke	e	n/a
143.687	0.09	287374	keystroke	s	n/a
143.7925	0.105	287585	keystroke	Key.space	n/a
144.1675	0.09	288335	keystroke	i	n/a
144.9325	0.09	289865	keystroke	Key.backspace	n/a
145.1575	0.075	290315	keystroke	c	n/a
145.2625	0.105	290525	keystroke	o	n/a
145.4425	0.075	290885	keystroke	r	n/a
145.5475	0.105	291095	keystroke	k	n/a
145.7125	0.1205	291425	keystroke	Key.space	n/a
145.983	0.105	291966	keystroke	h	n/a
146.103	0.09	292206	keystroke	o	n/a
146.208	0.06	292416	keystroke	r	n/a
146.328	0.075	292656	keystroke	r	n/a
146.448	0.09	292896	keystroke	i	n/a
146.568	0.09	293136	keystroke	b	n/a
146.688	0.1055	293376	keystroke	l	n/a
146.8235	0.089	293647	keystroke	e	n/a
147.0025	0.075	294005	keystroke	Key.enter	n/a
147.0835	13.1095	294167	prompt	n/a	opponents spelling describing brokers\n
147.889	0.12	295778	keystroke	i	n/a
148.038	0.091	296076	keystroke	o	n/a
148.203	0.12	296406	keystroke	o	n/a
148.653	0.09	297306	keystroke	Key.backspace	n/a
148.983	0.075	297966	keystroke	Key.backspace	n/a
149.178	0.06	298356	keystroke	Key.backspace	n/a
149.674	0.12	299348	keystroke	o	n/a
149.823	0.091	299646	keystroke	p	n/a
149.9885	0.121	299977	keystroke	p	n/a
150.1985	0.091	300397	keystroke	o	n/a
150.6185	0.136	301237	keystroke	n	n/a
150.7995	0.075	301599	keystroke	e	n/a
150.9035	0.09	301807	keystroke	n	n/a
151.0235	0.076	302047	keystroke	t	n/a
151.4285	0.121	302857	keystroke	s	n/a
151.5645	0.104	303129	keystroke	Key.space	n/a
151.8195	0.1195	303639	keystroke	s	n/a
151.954	0.0605	303908	keystroke	p	n/a
152.0595	0.075	304119	keystroke	e	n/a
152.1645	0.075	304329	keystroke	k	n/a
152.2995	0.09	304599	keystroke	k	n/a
152.5845	0.045	305169	keystroke	u	n/a
152.6145	0.09	305229	keystroke	n	n/a
153.2145	0.06	306429	keystroke	Key.backspace	n/a
153.4095	0.06	306819	keystroke	Key.backspace	n/a
153.6495	0.0755	307299	keystroke	Key.backspace	n/a
153.965	0.075	307930	keystroke	Key.backspace	n/a
154.475	0.09	308950	keystroke	l	n/a
154.625	0.075	309250	keystroke	l	n/a
154.85	0.12	309700	keystroke	i	n/a
154.94	0.105	309880	keystroke	n	n/a
155.075	0.06	310150	keystroke	g	n/a
155.225	0.09	310450	keystroke	Key.space	n/a
155.66	0.1055	311320	keystroke	d	n/a
155.7805	0.075	311561	keystroke	e	n/a
155.9755	0.06	311951	keystroke	s	n/a
156.3355	0.075	312671	keystroke	c	n/a
156.5005	0.075	313001	keystroke	r	n/a
156.5605	0.105	313121	keystroke	i	n/a
156.6205	0.105	313241	keystroke	b	n/a
157.2955	0.03	314591	keystroke	g	n/a
157.7155	0.0605	315431	keystroke	Key.backspace	n/a
157.971	0.105	315942	keystroke	n	n/a
158.406	0.075	316812	keystroke	Key.backspace	n/a
158.646	0.09	317292	keystroke	i	n/a
158.721	0.045	317442	keystroke	n	n/a
158.826	0.045	317652	keystroke	g	n/a
158.961	0.105	317922	keystroke	Key.space	n/a
159.321	0.09	318642	keystroke	b	n/a
159.456	0.075	318912	keystroke	r	n/a
159.561	0.105	319122	keystroke	o	n/a
159.606	0.12	319212	keystroke	k	n/a
159.711	0.09	319422	keystroke	e	n/a
159.771	0.09	319542	keystroke	r	n/a
159.9215	0.105	319843	keystroke	s	n/a
160.0865	0.105	320173	keystroke	Key.enter	n/a
160.1965	5.9535	320393	prompt	n/a	directive finally variables grad\n
160.7465	0.09	321493	keystroke	d	n/a
160.8515	0.09	321703	keystroke	i	n/a
161.0015	0.06	322003	keystroke	r	n/a
161.0765	0.09	322153	keystroke	e	n/a
161.1965	0.105	322393	keystroke	c	n/a
161.4365	0.015	322873	keystroke	t	n/a
161.4665	0.075	322933	keystroke	i	n/a
161.5715	0.075	323143	keystroke	v	n/a
161.6615	0.105	323323	keystroke	e	n/a
161.8125	0.104	323625	keystroke	Key.space	n/a
162.0375	0.09	324075	keystroke	f	n/a
162.1125	0.105	324225	keystroke	i	n/a
162.1875	0.075	324375	keystroke	n	n/a
162.4575	0.105	324915	keystroke	a	n/a
162.5465	0.136	325093	keystroke	l	n/a
162.7565	0.061	325513	keystroke	l	n/a
163.1925	0.074	326385	keystroke	y	n/a
163.387	0.105	326774	keystroke	Key.space	n/a
163.792	0.06	327584	keystroke	v	n/a
163.957	0.06	327914	keystroke	a	n/a
164.047	0.075	328094	keystroke	r	n/a
164.167	0.09	328334	keystroke	i	n/a
164.302	0.105	328604	keystroke	a	n/a
164.422	0.09	328844	keystroke	b	n/a
164.602	0.09	329204	keystroke	l	n/a
164.707	0.06	329414	keystroke	e	n/a
164.887	0.1055	329774	keystroke	s	n/a
165.0075	0.12	330015	keystroke	Key.space	n/a
165.3675	0.015	330735	keystroke	g	n/a
165.5925	0.06	331185	keystroke	r	n/a
165.7275	0.075	331455	keystroke	a	n/a
165.9075	0.075	331815	keystroke	d	n/a
166.0575	0.0905	332115	keystroke	Key.enter	n/a
166.155	5.6075	332310	prompt	n/a	stack lifestyle henry reflect\n
166.689	0.089	333378	keystroke	s	n/a
166.823	0.075	333646	keystroke	t	n/a
166.958	0.075	333916	keystroke	a	n/a
167.093	0.105	334186	keystroke	c	n/a
167.183	0.105	334366	keystroke	k	n/a
167.303	0.09	334606	keystroke	Key.space	n/a
167.678	0.12	335356	keystroke	l	n/a
167.753	0.12	335506	keystroke	i	n/a
167.858	0.09	335716	keystroke	f	n/a
167.933	0.091	335866	keystroke	e	n/a
168.203	0.091	336406	keystroke	s	n/a
168.323	0.076	336646	keystroke	t	n/a
168.533	0.06	337066	keystroke	y	n/a
168.654	0.075	337308	keystroke	l	n/a
168.744	0.09	337488	keystroke	e	n/a
168.908	0.12	337816	keystroke	Key.space	n/a
169.373	0.105	338746	keystroke	h	n/a
169.523	0.075	339046	keystroke	e	n/a
169.6135	0.105	339227	keystroke	n	n/a
169.7335	0.105	339467	keystroke	r	n/a
169.8685	0.09	339737	keystroke	y	n/a
170.0485	0.105	340097	keystroke	Key.space	n/a
170.4985	0.105	340997	keystroke	r	n/a
170.5885	0.075	341177	keystroke	e	n/a
170.6935	0.09	341387	keystroke	f	n/a
170.8435	0.03	341687	keystroke	l	n/a
171.2635	0.09	342527	keystroke	e	n/a
171.324	0.091	342648	keystroke	c	n/a
171.519	0.06	343038	keystroke	t	n/a
171.6545	0.104	343309	keystroke	Key.enter	n/a
171.7675	8.259	343535	prompt	n/a	vbulletin insert colors onto\n
172.5845	0.09	345169	keystroke	v	n/a
173.0795	0.045	346159	keystroke	v	n/a
173.1845	0.09	346369	keystroke	u	n/a
173.6495	0.09	347299	keystroke	Key.backspace	n/a
173.8445	0.105	347689	keystroke	Key.backspace	n/a
174.115	0.075	348230	keystroke	b	n/a
174.219	0.076	348438	keystroke	u	n/a
174.355	0.075	348710	keystroke	l	n/a
174.505	0.09	349010	keystroke	l	n/a
174.91	0.06	349820	keystroke	e	n/a
175.015	0.03	350030	keystroke	t	n/a
175.105	0.105	350210	keystroke	i	n/a
175.179	0.106	350358	keystroke	n	n/a
175.329	0.12	350658	keystroke	Key.space	n/a
175.885	0.09	351770	keystroke	i	n/a
175.9	0.12	351800	keystroke	n	n/a
176.29	0.06	352580	keystroke	s	n/a
176.47	0.075	352940	keystroke	e	n/a
176.53	0.09	353060	keystroke	r	n/a
176.724	0.046	353448	keystroke	t	n/a
176.8	0.12	353600	keystroke	Key.space	n/a
177.205	0.09	354410	keystroke	c	n/a
177.565	0.105	355130	keystroke	o	n/a
178.495	0.09	356990	keystroke	l	n/a
178.675	0.105	357350	keystroke	o	n/a
178.765	0.12	357530	keystroke	r	n/a
178.87	0.105	357740	keystroke	s	n/a
179.095	0.09	358190	keystroke	Key.space	n/a
179.44	0.135	358880	keystroke	o	n/a
179.53	0.09	359060	keystroke	n	n/a
179.605	0.09	359210	keystroke	t	n/a
179.71	0.105	359420	keystroke	o	n/a
179.95	0.075	359900	keystroke	Key.enter	n/a
180.0315	8.8305	360063	prompt	n/a	actors reservations croatia winning\n
180.565	0.075	361130	keystroke	a	n/a
180.715	0.075	361430	keystroke	c	n/a
180.895	0.06	361790	keystroke	t	n/a
180.97	0.09	361940	keystroke	o	n/a
181.105	0.09	362210	keystroke	s	n/a
181.24	0.105	362480	keystroke	Key.space	n/a
182.095	0.105	364190	keystroke	Key.backspace	n/a
182.485	0.075	364970	keystroke	Key.backspace	n/a
182.635	0.09	365270	keystroke	r	n/a
182.755	0.045	365510	keystroke	s	n/a
183.07	0.105	366140	keystroke	Key.space	n/a
183.535	0.105	367070	keystroke	r	n/a
183.64	0.045	367280	keystroke	e	n/a
183.79	0.06	367580	keystroke	s	n/a
183.94	0.0595	367880	keystroke	e	n/a
183.9845	0.075	367969	keystroke	r	n/a
184.1645	0.045	368329	keystroke	v	n/a
184.2995	0.075	368599	keystroke	a	n/a
184.5095	0.06	369019	keystroke	t	n/a
184.5995	0.105	369199	keystroke	i	n/a
184.7345	0.135	369469	keystroke	o	n/a
184.8095	0.075	369619	keystroke	n	n/a
184.9145	0.09	369829	keystroke	s	n/a
185.0495	0.105	370099	keystroke	Key.space	n/a
185.4395	0.09	370879	keystroke	c	n/a
185.5745	0.075	371149	keystroke	o	n/a
185.8445	0.105	371689	keystroke	Key.backspace	n/a
186.0245	0.075	372049	keystroke	r	n/a
186.1295	0.09	372259	keystroke	o	n/a
186.5195	0.09	373039	keystroke	a	n/a
186.8795	0.075	373759	keystroke	t	n/a
186.9845	0.105	373969	keystroke	i	n/a
187.1495	0.09	374299	keystroke	a	n/a
187.4645	0.1045	374929	keystroke	Key.space	n/a
187.9295	0.0895	375859	keystroke	w	n/a
188.004	0.105	376008	keystroke	i	n/a
188.124	0.06	376248	keystroke	n	n/a
188.244	0.0905	376488	keystroke	n	n/a
188.3795	0.1195	376759	keystroke	i	n/a
188.4695	0.0895	376939	keystroke	n	n/a
188.544	0.075	377088	keystroke	g	n/a
188.784	0.075	377568	keystroke	Key.enter	n/a
188.867	8.3495	377734	prompt	n/a	rack identified directories receiving\n
189.564	0.075	379128	keystroke	r	n/a
189.804	0.045	379608	keystroke	a	n/a
189.909	0.09	379818	keystroke	c	n/a
190.044	0.075	380088	keystroke	k	n/a
190.239	0.12	380478	keystroke	Key.space	n/a
190.479	0.105	380958	keystroke	i	n/a
190.899	0.09	381798	keystroke	d	n/a
191.049	0.06	382098	keystroke	e	n/a
191.139	0.105	382278	keystroke	n	n/a
191.484	0.0905	382968	keystroke	t	n/a
191.724	0.09	383448	keystroke	i	n/a
191.844	0.09	383688	keystroke	f	n/a
191.949	0.09	383898	keystroke	i	n/a
192.054	0.105	384108	keystroke	e	n/a
192.129	0.09	384258	keystroke	d	n/a
192.249	0.105	384498	keystroke	Key.space	n/a
192.684	0.075	385368	keystroke	d	n/a
192.759	0.105	385518	keystroke	i	n/a
193.029	0.0605	386058	keystroke	r	n/a
193.104	0.0755	386208	keystroke	e	n/a
193.2095	0.09	386419	keystroke	c	n/a
193.419	0.06	386838	keystroke	t	n/a
193.6745	0.09	387349	keystroke	o	n/a
193.8095	0.06	387619	keystroke	r	n/a
193.8995	0.075	387799	keystroke	i	n/a
194.1545	0.03	388309	keystroke	e	n/a
194.3045	0.09	388609	keystroke	s	n/a
194.4245	0.09	388849	keystroke	Key.space	n/a
194.6645	0.075	389329	keystroke	r	n/a
194.7845	0.105	389569	keystroke	e	n/a
195.1445	0.105	390289	keystroke	c	n/a
195.8495	0.075	391699	keystroke	e	n/a
196.0445	0.09	392089	keystroke	i	n/a
196.1495	0.105	392299	keystroke	v	n/a
196.5835	0.12	393167	keystroke	i	n/a
196.6435	0.121	393287	keystroke	n	n/a
196.7195	0.09	393439	keystroke	g	n/a
197.1235	0.09	394247	keystroke	Key.enter	n/a
197.221	8.59	394442	prompt	n/a	suburban manitoba gateway smoking\n
197.814	0.0905	395628	keystroke	s	n/a
197.9195	0.1195	395839	keystroke	u	n/a
198.639	0.09	397278	keystroke	b	n/a
198.834	0.075	397668	keystroke	r	n/a
198.984	0.09	397968	keystroke	u	n/a
199.404	0.09	398808	keystroke	Key.backspace	n/a
199.569	0.075	399138	keystroke	Key.backspace	n/a
199.7345	0.09	399469	keystroke	u	n/a
199.8535	0.076	399707	keystroke	r	n/a
199.9595	0.105	399919	keystroke	b	n/a
200.6195	0.075	401239	keystroke	a	n/a
200.6795	0.09	401359	keystroke	n	n/a
200.8145	0.135	401629	keystroke	Key.space	n/a
201.2945	0.135	402589	keystroke	m	n/a
201.4745	0.105	402949	keystroke	a	n/a
201.6095	0.1195	403219	keystroke	n	n/a
201.744	0.09	403488	keystroke	i	n/a
201.954	0.045	403908	keystroke	t	n/a
202.164	0.105	404328	keystroke	o	n/a
202.389	0.075	404778	keystroke	b	n/a
202.509	0.12	405018	keystroke	a	n/a
202.614	0.105	405228	keystroke	Key.space	n/a
202.974	0.06	405948	keystroke	g	n/a
203.139	0.075	406278	keystroke	a	n/a
203.334	0.09	406668	keystroke	t	n/a
203.634	0.06	407268	keystroke	e	n/a
203.874	0.075	407748	keystroke	w	n/a
204.024	0.105	408048	keystroke	a	n/a
204.114	0.09	408228	keystroke	y	n/a
204.294	0.105	408588	keystroke	Key.space	n/a
204.684	0.12	409368	keystroke	s	n/a
204.789	0.09	409578	keystroke	m	n/a
204.984	0.15	409968	keystroke	o	n/a
205.089	0.09	410178	keystroke	k	n/a
205.404	0.105	410808	keystroke	i	n/a
205.464	0.09	410928	keystroke	n	n/a
205.539	0.045	411078	keystroke	g	n/a
205.704	0.105	411408	keystroke	Key.enter	n/a
205.815	6.131	411630	prompt	n/a	hate crash buyer groove\n
206.319	0.105	412638	keystroke	h	n/a
206.439	0.075	412878	keystroke	a	n/a
206.664	0.075	413328	keystroke	e	n/a
207.1285	0.075	414257	keystroke	Key.backspace	n/a
207.2335	0.09	414467	keystroke	t	n/a
207.3085	0.075	414617	keystroke	e	n/a
207.4285	0.09	414857	keystroke	Key.space	n/a
207.5785	0.075	415157	keystroke	c	n/a
207.7435	0.09	415487	keystroke	r	n/a
207.8485	0.105	415697	keystroke	u	n/a
207.9685	0.09	415937	keystroke	s	n/a
208.0735	0.105	416147	keystroke	h	n/a
208.2085	0.105	416417	keystroke	Key.space	n/a
208.5685	0.12	417137	keystroke	b	n/a
208.7035	0.105	417407	keystroke	u	n/a
208.8235	0.06	417647	keystroke	t	n/a
209.4835	0.09	418967	keystroke	Key.backspace	n/a
209.6035	0.06	419207	keystroke	y	n/a
209.8585	0.09	419717	keystroke	g	n/a
210.1435	0.09	420287	keystroke	Key.backspace	n/a
210.2485	0.09	420497	keystroke	e	n/a
210.3085	0.075	420617	keystroke	r	n/a
210.4435	0.105	420887	keystroke	Key.space	n/a
210.8785	0.075	421757	keystroke	g	n/a
211.1035	0.076	422207	keystroke	r	n/a
211.2085	0.075	422417	keystroke	o	n/a
211.3435	0.09	422687	keystroke	o	n/a
211.5235	0.06	423047	keystroke	v	n/a
211.6135	0.09	423227	keystroke	e	n/a
211.8685	0.075	423737	keystroke	Key.enter	n/a
211.9515	10.089	423903	prompt	n/a	substantially wrap relates my\n
212.4835	0.09	424967	keystroke	s	n/a
212.6185	0.165	425237	keystroke	u	n/a
212.7535	0.12	425507	keystroke	b	n/a
213.1435	0.09	426287	keystroke	s	n/a
213.7135	0.045	427427	keystroke	a	n/a
213.968	0.105	427936	keystroke	Key.backspace	n/a
214.088	0.06	428176	keystroke	t	n/a
214.223	0.09	428446	keystroke	a	n/a
214.4035	0.075	428807	keystroke	t	n/a
214.8835	0.045	429767	keystroke	Key.backspace	n/a
215.0345	0.089	430069	keystroke	n	n/a
215.1385	0.06	430277	keystroke	t	n/a
215.2585	0.105	430517	keystroke	i	n/a
215.9335	0.105	431867	keystroke	a	n/a
216.909	0.075	433818	keystroke	l	n/a
217.058	0.09	434116	keystroke	l	n/a
217.134	0.074	434268	keystroke	y	n/a
217.328	0.075	434656	keystroke	Key.space	n/a
217.899	0.104	435798	keystroke	w	n/a
218.034	0.12	436068	keystroke	r	n/a
218.198	0.105	436396	keystroke	a	n/a
219.504	0.12	439008	keystroke	p	n/a
219.909	0.119	439818	keystroke	Key.space	n/a
220.209	0.105	440418	keystroke	r	n/a
220.329	0.089	440658	keystroke	e	n/a
220.464	0.105	440928	keystroke	l	n/a
220.734	0.12	441468	keystroke	a	n/a
220.974	0.09	441948	keystroke	t	n/a
221.124	0.09	442248	keystroke	e	n/a
221.334	0.09	442668	keystroke	s	n/a
221.453	0.061	442906	keystroke	Key.space	n/a
221.589	0.1045	443178	keystroke	m	n/a
221.7085	0.105	443417	keystroke	y	n/a
221.9485	0.09	443897	keystroke	Key.enter	n/a
222.0455	8.44	444091	prompt	n/a	comfort appeared madison gaps\n
222.6385	0.105	445277	keystroke	c	n/a
222.7585	0.09	445517	keystroke	o	n/a
222.7885	0.135	445577	keystroke	m	n/a
223.0135	0.075	446027	keystroke	f	n/a
223.1635	0.105	446327	keystroke	o	n/a
223.3135	0.03	446627	keystroke	r	n/a
223.6735	0.075	447347	keystroke	t	n/a
223.8385	0.075	447677	keystroke	Key.space	n/a
224.1985	0.075	448397	keystroke	a	n/a
224.4235	0.075	448847	keystroke	p	n/a
224.5585	0.09	449117	keystroke	p	n/a
224.6335	0.09	449267	keystroke	e	n/a
224.8285	0.06	449657	keystroke	a	n/a
224.9785	0.09	449957	keystroke	r	n/a
225.2185	0.09	450437	keystroke	e	n/a
225.2785	0.105	450557	keystroke	d	n/a
225.3685	0.105	450737	keystroke	Key.space	n/a
225.6835	0.09	451367	keystroke	m	n/a
225.8635	0.09	451727	keystroke	a	n/a
225.9975	0.091	451995	keystroke	d	n/a
226.1035	0.075	452207	keystroke	i	n/a
226.3725	0.076	452745	keystroke	s	n/a
226.4335	0.12	452867	keystroke	o	n/a
226.4775	0.106	452955	keystroke	n	n/a
226.6285	0.06	453257	keystroke	Key.space	n/a
227.2285	0.0755	454457	keystroke	g	n/a
227.3935	0.075	454787	keystroke	a	n/a
227.4835	0.06	454967	keystroke	o	n/a
227.5885	0.0755	455177	keystroke	s	n/a
228.218	0.075	456436	keystroke	=	n/a
228.623	0.045	457246	keystroke	Key.backspace	n/a
228.983	0.075	457966	keystroke	Key.backspace	n/a
229.343	0.075	458686	keystroke	Key.backspace	n/a
229.898	0.105	459796	keystroke	p	n/a
230.0335	0.0745	460067	keystroke	s	n/a
230.378	0.105	460756	keystroke	Key.enter	n/a
230.4925	5.468	460985	prompt	n/a	retained costa reports lucia\n
231.038	0.105	462076	keystroke	r	n/a
231.173	0.015	462346	keystroke	e	n/a
231.503	0.075	463006	keystroke	t	n/a
231.7735	0.074	463547	keystroke	a	n/a
232.118	0.135	464236	keystroke	i	n/a
232.2085	0.1045	464417	keystroke	n	n/a
232.283	0.105	464566	keystroke	e	n/a
232.343	0.12	464686	keystroke	d	n/a
232.4785	0.1195	464957	keystroke	Key.space	n/a
232.884	0.089	465768	keystroke	c	n/a
232.958	0.1045	465916	keystroke	o	n/a
233.0775	0.09	466155	keystroke	s	n/a
233.2125	0.0605	466425	keystroke	t	n/a
233.3635	0.104	466727	keystroke	a	n/a
233.483	0.0745	466966	keystroke	Key.space	n/a
233.9325	0.1355	467865	keystroke	r	n/a
234.023	0.12	468046	keystroke	e	n/a
234.218	0.15	468436	keystroke	p	n/a
234.248	0.18	468496	keystroke	o	n/a
234.578	0.075	469156	keystroke	r	n/a
234.743	0.075	469486	keystroke	t	n/a
234.863	0.09	469726	keystroke	s	n/a
235.013	0.09	470026	keystroke	Key.space	n/a
235.283	0.12	470566	keystroke	l	n/a
235.328	0.105	470656	keystroke	u	n/a
235.463	0.06	470926	keystroke	c	n/a
235.553	0.09	471106	keystroke	i	n/a
235.673	0.06	471346	keystroke	a	n/a
235.883	0.075	471766	keystroke	Key.enter	n/a
235.966	8.1535	471932	prompt	n/a	governor ratings not shore\n
236.6335	0.075	473267	keystroke	g	n/a
237.338	0.09	474676	keystroke	o	n/a
237.443	0.09	474886	keystroke	v	n/a
237.593	0.105	475186	keystroke	e	n/a
237.683	0.075	475366	keystroke	r	n/a
238.208	0.12	476416	keystroke	n	n/a
238.433	0.105	476866	keystroke	o	n/a
238.568	0.075	477136	keystroke	r	n/a
238.748	0.105	477496	keystroke	Key.space	n/a
239.033	0.075	478066	keystroke	r	n/a
239.198	0.075	478396	keystroke	a	n/a
239.363	0.045	478726	keystroke	t	n/a
239.423	0.09	478846	keystroke	i	n/a
239.738	0.075	479476	keystroke	n	n/a
240.593	0.045	481186	keystroke	g	n/a
240.938	0.09	481876	keystroke	s	n/a
241.088	0.105	482176	keystroke	Key.space	n/a
241.643	0.135	483286	keystroke	n	n/a
241.853	0.03	483706	keystroke	o	n/a
241.928	0.045	483856	keystroke	o	n/a
242.138	0.075	484276	keystroke	t	n/a
242.618	0.075	485236	keystroke	Key.backspace	n/a
242.798	0.075	485596	keystroke	Key.backspace	n/a
242.993	0.06	485986	keystroke	t	n/a
243.173	0.09	486346	keystroke	Key.space	n/a
243.323	0.105	486646	keystroke	s	n/a
243.413	0.12	486826	keystroke	h	n/a
243.518	0.105	487036	keystroke	o	n/a
243.758	0.12	487516	keystroke	r	n/a
243.893	0.09	487786	keystroke	e	n/a
244.028	0.09	488056	keystroke	Key.enter	n/a
244.1255	8.8895	488251	prompt	n/a	alternatively chrome replacing lawn\n
244.643	0.09	489286	keystroke	a	n/a
245.483	0.105	490966	keystroke	l	n/a
245.588	0.06	491176	keystroke	t	n/a
245.708	0.075	491416	keystroke	e	n/a
245.768	0.075	491536	keystroke	r	n/a
246.068	0.09	492136	keystroke	n	n/a
246.188	0.09	492376	keystroke	a	n/a
246.323	0.06	492646	keystroke	t	n/a
246.413	0.105	492826	keystroke	i	n/a
246.548	0.09	493096	keystroke	v	n/a
246.623	0.09	493246	keystroke	e	n/a
246.788	0.105	493576	keystroke	l	n/a
246.908	0.045	493816	keystroke	y	n/a
247.058	0.105	494116	keystroke	Key.space	n/a
247.253	0.105	494506	keystroke	c	n/a
247.343	0.09	494686	keystroke	h	n/a
247.478	0.075	494956	keystroke	r	n/a
247.568	0.1195	495136	keystroke	o	n/a
247.6275	0.091	495255	keystroke	m	n/a
247.8675	0.075	495735	keystroke	e	n/a
248.0025	0.09	496005	keystroke	Key.space	n/a
248.4375	0.076	496875	keystroke	r	n/a
248.5285	0.075	497057	keystroke	e	n/a
248.6475	0.12	497295	keystroke	o	n/a
248.7085	0.12	497417	keystroke	k	n/a
248.8125	0.076	497625	keystroke	a	n/a
249.3825	0.076	498765	keystroke	Key.backspace	n/a
249.5335	0.0745	499067	keystroke	Key.backspace	n/a
249.682	0.09	499364	keystroke	Key.backspace	n/a
249.938	0.12	499876	keystroke	o	n/a
250.028	0.075	500056	keystroke	k	n/a
250.387	0.076	500774	keystroke	Key.backspace	n/a
250.552	0.09	501104	keystroke	Key.backspace	n/a
251.123	0.105	502246	keystroke	p	n/a
251.183	0.09	502366	keystroke	l	n/a
251.258	0.12	502516	keystroke	a	n/a
251.453	0.105	502906	keystroke	c	n/a
251.543	0.1345	503086	keystroke	i	n/a
251.633	0.0745	503266	keystroke	n	n/a
251.7225	0.075	503445	keystroke	g	n/a
251.8425	0.09	503685	keystroke	Key.space	n/a
252.3225	0.105	504645	keystroke	l	n/a
252.3975	0.075	504795	keystroke	a	n/a
252.608	0.0745	505216	keystroke	w	n/a
252.7125	0.075	505425	keystroke	n	n/a
252.9375	0.075	505875	keystroke	Key.enter	n/a
253.0185	5.815	506037	prompt	n/a	closely rocket parking adventures\n
253.5375	0.0755	507075	keystroke	c	n/a
253.643	0.0895	507286	keystroke	l	n/a
253.838	0.075	507676	keystroke	o	n/a
253.9275	0.075	507855	keystroke	s	n/a
254.093	0.075	508186	keystroke	e	n/a
254.183	0.0745	508366	keystroke	l	n/a
254.3025	0.06	508605	keystroke	y	n/a
254.4375	0.075	508875	keystroke	Key.space	n/a
254.6775	0.075	509355	keystroke	r	n/a
254.8575	0.105	509715	keystroke	o	n/a
254.9775	0.105	509955	keystroke	c	n/a
255.1125	0.09	510225	keystroke	k	n/a
255.2025	0.0755	510405	keystroke	e	n/a
255.293	0.045	510586	keystroke	t	n/a
255.428	0.09	510856	keystroke	Key.space	n/a
256.1775	0.045	512355	keystroke	p	n/a
256.3725	0.09	512745	keystroke	a	n/a
256.4475	0.09	512895	keystroke	r	n/a
256.5375	0.12	513075	keystroke	k	n/a
256.7475	0.09	513495	keystroke	i	n/a
256.7775	0.12	513555	keystroke	n	n/a
256.8675	0.075	513735	keystroke	g	n/a
256.9725	0.105	513945	keystroke	Key.space	n/a
257.3025	0.075	514605	keystroke	a	n/a
257.4075	0.09	514815	keystroke	d	n/a
257.6625	0.0445	515325	keystroke	v	n/a
257.8425	0.09	515685	keystroke	e	n/a
257.9475	0.075	515895	keystroke	n	n/a
258.0825	0.075	516165	keystroke	t	n/a
258.2025	0.075	516405	keystroke	u	n/a
258.3525	0.09	516705	keystroke	r	n/a
258.4275	0.09	516855	keystroke	e	n/a
258.6225	0.075	517245	keystroke	s	n/a
258.7425	0.09	517485	keystroke	Key.enter	n/a
258.838	4.976	517676	prompt	n/a	sunny grand refined sessions\n
259.3575	0.075	518715	keystroke	s	n/a
259.4475	0.09	518895	keystroke	u	n/a
259.6725	0.06	519345	keystroke	n	n/a
259.7925	0.09	519585	keystroke	n	n/a
259.9425	0.06	519885	keystroke	y	n/a
260.0475	0.09	520095	keystroke	Key.space	n/a
260.273	0.0745	520546	keystroke	g	n/a
260.4675	0.075	520935	keystroke	r	n/a
260.5875	0.09	521175	keystroke	a	n/a
260.6925	0.09	521385	keystroke	n	n/a
260.7975	0.09	521595	keystroke	d	n/a
260.9025	0.105	521805	keystroke	Key.space	n/a
261.2325	0.09	522465	keystroke	r	n/a
261.4875	0.075	522975	keystroke	e	n/a
261.8025	0.075	523605	keystroke	f	n/a
261.8925	0.12	523785	keystroke	i	n/a
261.9525	0.105	523905	keystroke	n	n/a
262.0725	0.09	524145	keystroke	e	n/a
262.1325	0.09	524265	keystroke	d	n/a
262.2225	0.09	524445	keystroke	Key.space	n/a
262.6275	0.06	525255	keystroke	s	n/a
262.8075	0.06	525615	keystroke	e	n/a
263.0175	0.06	526035	keystroke	s	n/a
263.1525	0.075	526305	keystroke	s	n/a
263.2725	0.075	526545	keystroke	i	n/a
263.3625	0.15	526725	keystroke	o	n/a
263.4825	0.075	526965	keystroke	n	n/a
263.5425	0.06	527085	keystroke	s	n/a
263.7375	0.075	527475	keystroke	Key.enter	n/a
263.8175	11.187	527635	prompt	n/a	emerald paths pharmacies collectables\n
264.262	0.06	528524	keystroke	s	n/a
264.637	0.09	529274	keystroke	Key.backspace	n/a
264.818	0.059	529636	keystroke	e	n/a
264.967	0.06	529934	keystroke	n	n/a
265.087	0.075	530174	keystroke	e	n/a
265.402	0.06	530804	keystroke	Key.backspace	n/a
265.807	0.105	531614	keystroke	Key.backspace	n/a
266.077	0.105	532154	keystroke	m	n/a
266.257	0.075	532514	keystroke	e	n/a
266.317	0.09	532634	keystroke	r	n/a
266.482	0.09	532964	keystroke	a	n/a
266.587	0.105	533174	keystroke	l	n/a
266.722	0.09	533444	keystroke	d	n/a
266.857	0.09	533714	keystroke	Key.space	n/a
267.247	0.09	534494	keystroke	o	n/a
267.622	0.06	535244	keystroke	Key.backspace	n/a
267.907	0.105	535814	keystroke	p	n/a
268.117	0.075	536234	keystroke	a	n/a
268.282	0.06	536564	keystroke	t	n/a
268.372	0.09	536744	keystroke	h	n/a
268.492	0.105	536984	keystroke	s	n/a
268.627	0.09	537254	keystroke	Key.space	n/a
269.152	0.135	538304	keystroke	p	n/a
269.392	0.09	538784	keystroke	h	n/a
269.542	0.105	539084	keystroke	a	n/a
269.662	0.06	539324	keystroke	r	n/a
269.797	0.075	539594	keystroke	a	n/a
270.577	0.105	541154	keystroke	Key.backspace	n/a
270.787	0.09	541574	keystroke	m	n/a
270.892	0.09	541784	keystroke	a	n/a
271.057	0.09	542114	keystroke	c	n/a
271.267	0.09	542534	keystroke	i	n/a
271.342	0.06	542684	keystroke	e	n/a
271.507	0.0905	543014	keystroke	s	n/a
271.6125	0.09	543225	keystroke	Key.space	n/a
272.0625	0.09	544125	keystroke	c	n/a
272.1375	0.06	544275	keystroke	o	n/a
272.3625	0.09	544725	keystroke	l	n/a
272.5725	0.075	545145	keystroke	l	n/a
272.6325	0.105	545265	keystroke	e	n/a
272.7075	0.105	545415	keystroke	c	n/a
272.9175	0.06	545835	keystroke	t	n/a
273.0075	0.075	546015	keystroke	i	n/a
273.1875	0.09	546375	keystroke	b	n/a
273.667	0.045	547334	keystroke	Key.backspace	n/a
274.042	0.075	548084	keystroke	Key.backspace	n/a
274.252	0.09	548504	keystroke	a	n/a
274.312	0.09	548624	keystroke	b	n/a
274.447	0.105	548894	keystroke	l	n/a
274.567	0.06	549134	keystroke	e	n/a
274.732	0.09	549464	keystroke	s	n/a
274.927	0.075	549854	keystroke	Key.enter	n/a
275.01	8.4535	550020	prompt	n/a	illustrations calendar councils ready\n
275.632	0.075	551264	keystroke	i	n/a
275.932	0.12	551864	keystroke	l	n/a
276.172	0.105	552344	keystroke	l	n/a
276.337	0.09	552674	keystroke	u	n/a
276.517	0.09	553034	keystroke	s	n/a
276.592	0.075	553184	keystroke	t	n/a
276.802	0.09	553604	keystroke	r	n/a
276.937	0.09	553874	keystroke	a	n/a
277.072	0.075	554144	keystroke	t	n/a
277.192	0.12	554384	keystroke	i	n/a
277.432	0.12	554864	keystroke	o	n/a
277.507	0.09	555014	keystroke	n	n/a
277.582	0.075	555164	keystroke	s	n/a
277.702	0.105	555404	keystroke	Key.space	n/a
277.882	0.075	555764	keystroke	c	n/a
277.987	0.09	555974	keystroke	l	n/a
278.017	0.09	556034	keystroke	a	n/a
278.557	0.075	557114	keystroke	Key.backspace	n/a
278.707	0.09	557414	keystroke	Key.backspace	n/a
278.827	0.09	557654	keystroke	a	n/a
278.947	0.12	557894	keystroke	l	n/a
279.412	0.09	558824	keystroke	e	n/a
279.517	0.09	559034	keystroke	n	n/a
279.682	0.06	559364	keystroke	d	n/a
279.802	0.09	559604	keystroke	a	n/a
279.937	0.075	559874	keystroke	r	n/a
280.057	0.09	560114	keystroke	Key.space	n/a
280.522	0.1195	561044	keystroke	c	n/a
280.6425	0.104	561285	keystroke	o	n/a
280.8665	0.075	561733	keystroke	u	n/a
281.1965	0.09	562393	keystroke	n	n/a
281.5865	0.091	563173	keystroke	c	n/a
281.8275	0.12	563655	keystroke	i	n/a
281.9025	0.09	563805	keystroke	l	n/a
282.0215	0.0905	564043	keystroke	s	n/a
282.171	0.105	564342	keystroke	Key.space	n/a
282.577	0.09	565154	keystroke	r	n/a
282.637	0.074	565274	keystroke	e	n/a
282.817	0.074	565634	keystroke	a	n/a
282.907	0.059	565814	keystroke	d	n/a
283.147	0.045	566294	keystroke	y	n/a
283.342	0.12	566684	keystroke	Key.enter	n/a
283.4675	6.086	566935	prompt	n/a	spot stomach advertise differently\n
283.971	0.091	567942	keystroke	s	n/a
284.107	0.15	568214	keystroke	p	n/a
284.241	0.106	568482	keystroke	o	n/a
284.362	0.06	568724	keystroke	t	n/a
284.482	0.12	568964	keystroke	Key.space	n/a
284.827	0.075	569654	keystroke	s	n/a
284.962	0.045	569924	keystroke	t	n/a
285.202	0.09	570404	keystroke	o	n/a
285.232	0.105	570464	keystroke	m	n/a
285.322	0.075	570644	keystroke	a	n/a
285.487	0.09	570974	keystroke	c	n/a
285.546	0.1065	571092	keystroke	h	n/a
285.6815	0.09	571363	keystroke	Key.space	n/a
285.8765	0.06	571753	keystroke	a	n/a
286.0415	0.015	572083	keystroke	d	n/a
286.2965	0.075	572593	keystroke	v	n/a
286.4465	0.165	572893	keystroke	e	n/a
286.5065	0.12	573013	keystroke	r	n/a
286.8215	0.06	573643	keystroke	t	n/a
286.9415	0.135	573883	keystroke	i	n/a
287.0915	0.075	574183	keystroke	s	n/a
287.2715	0.06	574543	keystroke	e	n/a
287.3765	0.105	574753	keystroke	Key.space	n/a
287.7965	0.09	575593	keystroke	d	n/a
287.9015	0.09	575803	keystroke	i	n/a
288.0065	0.075	576013	keystroke	f	n/a
288.1415	0.075	576283	keystroke	f	n/a
288.2765	0.075	576553	keystroke	e	n/a
288.3365	0.09	576673	keystroke	r	n/a
288.4565	0.045	576913	keystroke	e	n/a
288.6215	0.105	577243	keystroke	n	n/a
288.8465	0.075	577693	keystroke	t	n/a
289.0415	0.105	578083	keystroke	l	n/a
289.1315	0.06	578263	keystroke	y	n/a
289.4615	0.09	578923	keystroke	Key.enter	n/a
289.558	7.1355	579116	prompt	n/a	settings brook outstanding formatting\n
290.062	0.075	580124	keystroke	s	n/a
290.272	0.06	580544	keystroke	e	n/a
290.317	0.09	580634	keystroke	t	n/a
290.497	0.075	580994	keystroke	t	n/a
290.647	0.12	581294	keystroke	i	n/a
290.692	0.105	581384	keystroke	n	n/a
290.782	0.075	581564	keystroke	g	n/a
290.902	0.09	581804	keystroke	Key.space	n/a
291.337	0.089	582674	keystroke	Key.backspace	n/a
291.502	0.09	583004	keystroke	s	n/a
291.6665	0.09	583333	keystroke	Key.space	n/a
292.0265	0.075	584053	keystroke	b	n/a
292.2065	0.09	584413	keystroke	r	n/a
292.3115	0.075	584623	keystroke	o	n/a
292.4465	0.135	584893	keystroke	o	n/a
292.5515	0.09	585103	keystroke	k	n/a
292.8515	0.105	585703	keystroke	Key.space	n/a
293.3165	0.165	586633	keystroke	o	n/a
293.4065	0.12	586813	keystroke	u	n/a
293.5115	0.075	587023	keystroke	t	n/a
293.7665	0.09	587533	keystroke	s	n/a
293.8865	0.075	587773	keystroke	t	n/a
294.0215	0.075	588043	keystroke	a	n/a
294.1115	0.09	588223	keystroke	n	n/a
294.2165	0.075	588433	keystroke	d	n/a
294.3215	0.105	588643	keystroke	i	n/a
294.3965	0.06	588793	keystroke	n	n/a
294.4865	0.075	588973	keystroke	g	n/a
294.5915	0.105	589183	keystroke	Key.space	n/a
295.0715	0.075	590143	keystroke	f	n/a
295.1915	0.09	590383	keystroke	o	n/a
295.2965	0.075	590593	keystroke	r	n/a
295.6715	0.12	591343	keystroke	m	n/a
295.8065	0.105	591613	keystroke	a	n/a
295.9715	0.09	591943	keystroke	t	n/a
296.1065	0.09	592213	keystroke	t	n/a
296.2265	0.12	592453	keystroke	i	n/a
296.3025	0.104	592605	keystroke	n	n/a
296.3915	0.06	592783	keystroke	g	n/a
296.6165	0.075	593233	keystroke	Key.enter	n/a
296.6975	8.0355	593395	prompt	n/a	burning ours desert integrity\n
297.3065	0.121	594613	keystroke	b	n/a
297.4725	0.074	594945	keystroke	r	n/a
297.5615	0.12	595123	keystroke	u	n/a
298.2365	0.09	596473	keystroke	Key.backspace	n/a
298.3865	0.09	596773	keystroke	Key.backspace	n/a
298.7615	0.075	597523	keystroke	u	n/a
298.9565	0.075	597913	keystroke	r	n/a
299.0915	0.09	598183	keystroke	n	n/a
299.3765	0.12	598753	keystroke	i	n/a
299.4515	0.09	598903	keystroke	n	n/a
299.5265	0.09	599053	keystroke	g	n/a
299.6615	0.09	599323	keystroke	Key.space	n/a
300.0215	0.105	600043	keystroke	o	n/a
300.2315	0.06	600463	keystroke	r	n/a
300.3215	0.075	600643	keystroke	u	n/a
300.6215	0.075	601243	keystroke	Key.backspace	n/a
300.8015	0.09	601603	keystroke	Key.backspace	n/a
300.9065	0.105	601813	keystroke	u	n/a
301.0265	0.075	602053	keystroke	r	n/a
301.0865	0.09	602173	keystroke	s	n/a
301.2065	0.105	602413	keystroke	Key.space	n/a
301.6865	0.09	603373	keystroke	d	n/a
301.8365	0.06	603673	keystroke	e	n/a
302.0015	0.09	604003	keystroke	s	n/a
302.1965	0.09	604393	keystroke	e	n/a
302.2715	0.09	604543	keystroke	r	n/a
302.4515	0.06	604903	keystroke	t	n/a
302.5265	0.12	605053	keystroke	Key.space	n/a
302.7215	0.135	605443	keystroke	i	n/a
302.8265	0.06	605653	keystroke	n	n/a
303.1865	0.09	606373	keystroke	t	n/a
303.3215	0.09	606643	keystroke	e	n/a
303.5015	0.075	607003	keystroke	g	n/a
303.8015	0.06	607603	keystroke	r	n/a
303.9065	0.09	607813	keystroke	i	n/a
304.0715	0.075	608143	keystroke	t	n/a
304.311	0.09	608622	keystroke	y	n/a
304.656	0.075	609312	keystroke	Key.enter	n/a
304.74	6.653	609480	prompt	n/a	roger edit doors obtaining\n
305.301	0.075	610602	keystroke	r	n/a
305.406	0.105	610812	keystroke	i	n/a
305.541	0.075	611082	keystroke	g	n/a
305.736	0.045	611472	keystroke	e	n/a
306.036	0.075	612072	keystroke	Key.backspace	n/a
306.171	0.105	612342	keystroke	Key.backspace	n/a
306.651	0.075	613302	keystroke	Key.backspace	n/a
306.861	0.105	613722	keystroke	o	n/a
306.951	0.075	613902	keystroke	g	n/a
307.071	0.105	614142	keystroke	e	n/a
307.146	0.075	614292	keystroke	r	n/a
307.296	0.09	614592	keystroke	Key.space	n/a
307.791	0.12	615582	keystroke	e	n/a
307.881	0.09	615762	keystroke	d	n/a
307.986	0.075	615972	keystroke	i	n/a
308.121	0.06	616242	keystroke	t	n/a
308.226	0.09	616452	keystroke	Key.space	n/a
308.721	0.0745	617442	keystroke	d	n/a
308.8855	0.06	617771	keystroke	o	n/a
309.0205	0.09	618041	keystroke	o	n/a
309.1405	0.06	618281	keystroke	r	n/a
309.4855	0.075	618971	keystroke	s	n/a
309.5755	0.09	619151	keystroke	Key.space	n/a
309.9355	0.105	619871	keystroke	o	n/a
310.1155	0.09	620231	keystroke	b	n/a
310.4605	0.03	620921	keystroke	t	n/a
310.5655	0.09	621131	keystroke	a	n/a
310.6105	0.105	621221	keystroke	i	n/a
310.7005	0.105	621401	keystroke	n	n/a
310.8205	0.12	621641	keystroke	i	n/a
310.9105	0.075	621821	keystroke	n	n/a
310.9715	0.074	621943	keystroke	g	n/a
311.2855	0.105	622571	keystroke	Key.enter	n/a
311.399	6.1295	622798	prompt	n/a	registry twelve yarn gender\n
311.946	0.105	623892	keystroke	r	n/a
312.036	0.075	624072	keystroke	e	n/a
312.201	0.09	624402	keystroke	g	n/a
312.396	0.045	624792	keystroke	u	n/a
312.756	0.1045	625512	keystroke	Key.backspace	n/a
312.9055	0.105	625811	keystroke	i	n/a
313.0255	0.075	626051	keystroke	s	n/a
313.1305	0.075	626261	keystroke	t	n/a
313.5055	0.075	627011	keystroke	r	n/a
313.5955	0.0905	627191	keystroke	y	n/a
313.761	0.105	627522	keystroke	Key.space	n/a
314.001	0.075	628002	keystroke	t	n/a
314.2855	0.06	628571	keystroke	w	n/a
314.3465	0.104	628693	keystroke	e	n/a
314.5255	0.09	629051	keystroke	l	n/a
314.8705	0.105	629741	keystroke	v	n/a
314.9905	0.075	629981	keystroke	e	n/a
315.1405	0.12	630281	keystroke	Key.space	n/a
315.5455	0.06	631091	keystroke	y	n/a
315.7405	0.09	631481	keystroke	a	n/a
315.8455	0.105	631691	keystroke	r	n/a
315.9655	0.09	631931	keystroke	n	n/a
316.2055	0.0895	632411	keystroke	Key.space	n/a
316.476	0.06	632952	keystroke	g	n/a
316.566	0.0895	633132	keystroke	e	n/a
316.7155	0.12	633431	keystroke	n	n/a
316.8205	0.06	633641	keystroke	d	n/a
316.9255	0.09	633851	keystroke	e	n/a
317.0005	0.075	634001	keystroke	r	n/a
317.4205	0.105	634841	keystroke	Key.enter	n/a
317.533	9.054	635066	prompt	n/a	educational comparative relief arrest\n
318.081	0.075	636162	keystroke	e	n/a
318.186	0.104	636372	keystroke	d	n/a
318.501	0.105	637002	keystroke	u	n/a
318.71	0.075	637420	keystroke	c	n/a
318.846	0.09	637692	keystroke	a	n/a
318.981	0.09	637962	keystroke	t	n/a
319.056	0.075	638112	keystroke	i	n/a
319.146	0.105	638292	keystroke	o	n/a
319.221	0.105	638442	keystroke	n	n/a
319.371	0.104	638742	keystroke	a	n/a
319.46	0.105	638920	keystroke	l	n/a
319.701	0.074	639402	keystroke	Key.space	n/a
320.001	0.12	640002	keystroke	c	n/a
320.15	0.12	640300	keystroke	o	n/a
320.24	0.105	640480	keystroke	m	n/a
320.405	0.12	640810	keystroke	p	n/a
320.57	0.076	641140	keystroke	a	n/a
320.69	0.09	641380	keystroke	r	n/a
320.841	0.104	641682	keystroke	i	n/a
320.99	0.06	641980	keystroke	t	n/a
321.65	0.0605	643300	keystroke	v	n/a
321.7405	0.045	643481	keystroke	e	n/a
322.0405	0.09	644081	keystroke	Key.backspace	n/a
322.2205	0.075	644441	keystroke	Key.backspace	n/a
322.4155	0.09	644831	keystroke	i	n/a
322.4905	0.105	644981	keystroke	v	n/a
322.5805	0.075	645161	keystroke	e	n/a
322.7605	0.075	645521	keystroke	Key.space	n/a
323.5855	0.09	647171	keystroke	r	n/a
323.6605	0.09	647321	keystroke	e	n/a
323.8105	0.165	647621	keystroke	l	n/a
323.9155	0.105	647831	keystroke	i	n/a
324.0505	0.09	648101	keystroke	e	n/a
324.1555	0.105	648311	keystroke	f	n/a
324.4555	0.12	648911	keystroke	Key.space	n/a
325.1455	0.075	650291	keystroke	r	n/a
325.5055	0.09	651011	keystroke	Key.backspace	n/a
325.6255	0.105	651251	keystroke	a	n/a
325.7455	0.075	651491	keystroke	r	n/a
325.8955	0.09	651791	keystroke	r	n/a
326.0305	0.09	652061	keystroke	e	n/a
326.2255	0.06	652451	keystroke	s	n/a
326.3005	0.045	652601	keystroke	t	n/a
326.4805	0.105	652961	keystroke	Key.enter	n/a
326.5915	8.111	653183	prompt	n/a	recommendations dutch compact lesson\n
327.1105	0.075	654221	keystroke	r	n/a
327.2455	0.105	654491	keystroke	e	n/a
327.4105	0.09	654821	keystroke	c	n/a
327.5455	0.135	655091	keystroke	o	n/a
327.6355	0.06	655271	keystroke	m	n/a
327.7705	0.105	655541	keystroke	m	n/a
328.0405	0.105	656081	keystroke	e	n/a
328.2955	0.075	656591	keystroke	n	n/a
328.7005	0.075	657401	keystroke	Key.backspace	n/a
329.0905	0.09	658181	keystroke	n	n/a
329.2105	0.075	658421	keystroke	d	n/a
329.3455	0.06	658691	keystroke	a	n/a
329.4655	0.09	658931	keystroke	t	n/a
329.5405	0.09	659081	keystroke	i	n/a
329.6605	0.12	659321	keystroke	o	n/a
329.7205	0.105	659441	keystroke	n	n/a
329.8405	0.075	659681	keystroke	s	n/a
329.9755	0.105	659951	keystroke	Key.space	n/a
330.3205	0.075	660641	keystroke	d	n/a
330.4105	0.135	660821	keystroke	u	n/a
330.5755	0.075	661151	keystroke	t	n/a
330.6955	0.075	661391	keystroke	h	n/a
330.785	0.09	661570	keystroke	c	n/a
331.5355	0.06	663071	keystroke	Key.backspace	n/a
331.6855	0.075	663371	keystroke	Key.backspace	n/a
331.7905	0.09	663581	keystroke	c	n/a
331.9105	0.09	663821	keystroke	h	n/a
332.0605	0.135	664121	keystroke	Key.space	n/a
332.5105	0.09	665021	keystroke	c	n/a
332.6155	0.105	665231	keystroke	o	n/a
332.6455	0.105	665291	keystroke	m	n/a
332.9305	0.09	665861	keystroke	p	n/a
333.1105	0.075	666221	keystroke	a	n/a
333.3955	0.075	666791	keystroke	c	n/a
333.575	0.06	667150	keystroke	t	n/a
333.636	0.089	667272	keystroke	Key.space	n/a
333.815	0.09	667630	keystroke	l	n/a
333.92	0.09	667840	keystroke	e	n/a
334.115	0.045	668230	keystroke	s	n/a
334.235	0.045	668470	keystroke	s	n/a
334.37	0.09	668740	keystroke	o	n/a
334.415	0.105	668830	keystroke	n	n/a
334.685	0.015	669370	keystroke	Key.enter	n/a
334.707	5.4995	669414	prompt	n/a	bowling strips alike analyst\n
335.3	0.09	670600	keystroke	b	n/a
335.405	0.09	670810	keystroke	o	n/a
335.525	0.09	671050	keystroke	w	n/a
335.66	0.03	671320	keystroke	i	n/a
335.96	0.09	671920	keystroke	Key.backspace	n/a
336.185	0.09	672370	keystroke	l	n/a
336.41	0.12	672820	keystroke	i	n/a
336.485	0.105	672970	keystroke	n	n/a
336.605	0.06	673210	keystroke	g	n/a
336.695	0.075	673390	keystroke	Key.space	n/a
336.83	0.09	673660	keystroke	s	n/a
336.935	0.06	673870	keystroke	t	n/a
337.07	0.09	674140	keystroke	r	n/a
337.13	0.135	674260	keystroke	i	n/a
337.22	0.105	674440	keystroke	p	n/a
337.37	0.075	674740	keystroke	s	n/a
337.49	0.075	674980	keystroke	Key.space	n/a
337.865	0.09	675730	keystroke	a	n/a
337.94	0.135	675880	keystroke	l	n/a
338.015	0.105	676030	keystroke	i	n/a
338.195	0.105	676390	keystroke	k	n/a
338.285	0.075	676570	keystroke	e	n/a
338.405	0.09	676810	keystroke	Key.space	n/a
338.555	0.075	677110	keystroke	a	n/a
338.825	0.075	677650	keystroke	n	n/a
338.915	0.075	677830	keystroke	a	n/a
339.11	0.09	678220	keystroke	l	n/a
339.29	0.045	678580	keystroke	y	n/a
339.68	0.09	679360	keystroke	s	n/a
339.83	0.075	679660	keystroke	t	n/a
340.16	0.045	680320	keystroke	Key.enter	n/a
340.2105	6.582	680421	prompt	n/a	remove asking indicated mechanism\n
340.73	0.09	681460	keystroke	r	n/a
340.805	0.09	681610	keystroke	e	n/a
340.91	0.12	681820	keystroke	m	n/a
341.015	0.106	682030	keystroke	o	n/a
341.075	0.09	682150	keystroke	v	n/a
341.18	0.09	682360	keystroke	e	n/a
341.33	0.09	682660	keystroke	Key.space	n/a
341.48	0.09	682960	keystroke	a	n/a
341.675	0.105	683350	keystroke	s	n/a
341.765	0.09	683530	keystroke	k	n/a
341.9	0.135	683800	keystroke	i	n/a
341.975	0.105	683950	keystroke	n	n/a
342.065	0.09	684130	keystroke	g	n/a
342.2	0.075	684400	keystroke	Key.space	n/a
342.515	0.12	685030	keystroke	i	n/a
342.59	0.09	685180	keystroke	n	n/a
342.695	0.09	685390	keystroke	d	n/a
342.98	0.075	685960	keystroke	i	n/a
343.085	0.075	686170	keystroke	c	n/a
343.46	0.09	686920	keystroke	a	n/a
343.595	0.075	687190	keystroke	t	n/a
344.12	0.12	688240	keystroke	e	n/a
344.195	0.105	688390	keystroke	d	n/a
344.33	0.09	688660	keystroke	Key.space	n/a
344.825	0.105	689650	keystroke	m	n/a
345.05	0.09	690100	keystroke	e	n/a
345.11	0.12	690220	keystroke	c	n/a
345.215	0.093	690430	keystroke	h	n/a
345.395	0.105	690790	keystroke	a	n/a
345.9505	0.135	691901	keystroke	n	n/a
346.2355	0.105	692471	keystroke	i	n/a
346.3255	0.09	692651	keystroke	s	n/a
346.4455	0.105	692891	keystroke	m	n/a
346.7005	0.09	693401	keystroke	Key.enter	n/a
346.7975	11.1395	693595	prompt	n/a	departments scene psychiatry players\n
347.345	0.075	694690	keystroke	d	n/a
347.555	0.075	695110	keystroke	e	n/a
347.691	0.105	695382	keystroke	p	n/a
348.1545	0.075	696309	keystroke	a	n/a
348.2895	0.105	696579	keystroke	r	n/a
348.6045	0.061	697209	keystroke	t	n/a
348.6955	0.09	697391	keystroke	m	n/a
348.8155	0.075	697631	keystroke	e	n/a
348.9195	0.105	697839	keystroke	n	n/a
349.0705	0.075	698141	keystroke	t	n/a
349.1605	0.074	698321	keystroke	s	n/a
349.2495	0.09	698499	keystroke	Key.space	n/a
349.5655	0.075	699131	keystroke	s	n/a
349.7595	0.091	699519	keystroke	c	n/a
349.8655	0.075	699731	keystroke	e	n/a
349.9705	0.09	699941	keystroke	n	n/a
350.0605	0.075	700121	keystroke	e	n/a
350.1805	0.09	700361	keystroke	Key.space	n/a
350.6905	0.105	701381	keystroke	o	n/a
350.8555	0.06	701711	keystroke	s	n/a
351.4855	0.105	702971	keystroke	Key.backspace	n/a
351.665	0.075	703330	keystroke	Key.backspace	n/a
352.205	0.06	704410	keystroke	p	n/a
352.475	0.075	704950	keystroke	s	n/a
352.64	0.045	705280	keystroke	y	n/a
353.045	0.09	706090	keystroke	c	n/a
353.165	0.105	706330	keystroke	h	n/a
353.645	0.09	707290	keystroke	i	n/a
353.78	0.105	707560	keystroke	a	n/a
354.08	0.06	708160	keystroke	t	n/a
354.26	0.075	708520	keystroke	r	n/a
354.35	0.09	708700	keystroke	y	n/a
354.56	0.105	709120	keystroke	Key.space	n/a
355.086	0.104	710172	keystroke	k	n/a
355.415	0.075	710830	keystroke	Key.backspace	n/a
355.61	0.165	711220	keystroke	o	n/a
355.76	0.09	711520	keystroke	k	n/a
355.835	0.09	711670	keystroke	a	n/a
356.105	0.09	712210	keystroke	Key.backspace	n/a
356.285	0.09	712570	keystroke	Key.backspace	n/a
356.675	0.09	713350	keystroke	Key.backspace	n/a
356.96	0.105	713920	keystroke	p	n/a
357.005	0.09	714010	keystroke	l	n/a
357.08	0.09	714160	keystroke	a	n/a
357.305	0.09	714610	keystroke	y	n/a
357.38	0.075	714760	keystroke	e	n/a
357.44	0.09	714880	keystroke	r	n/a
357.575	0.06	715150	keystroke	s	n/a
357.845	0.09	715690	keystroke	Key.enter	n/a
357.942	6.685	715884	prompt	n/a	subscribers html diagnosis rankings\n
358.475	0.045	716950	keystroke	s	n/a
358.565	0.15	717130	keystroke	u	n/a
358.865	0.09	717730	keystroke	b	n/a
359.165	0.075	718330	keystroke	s	n/a
359.255	0.09	718510	keystroke	c	n/a
359.435	0.075	718870	keystroke	r	n/a
359.525	0.105	719050	keystroke	i	n/a
359.57	0.105	719140	keystroke	b	n/a
359.66	0.09	719320	keystroke	e	n/a
359.735	0.075	719470	keystroke	r	n/a
359.855	0.105	719710	keystroke	s	n/a
359.975	0.105	719950	keystroke	Key.space	n/a
360.305	0.09	720610	keystroke	h	n/a
360.425	0.06	720850	keystroke	t	n/a
360.59	0.18	721180	keystroke	m	n/a
360.83	0.105	721660	keystroke	l	n/a
361.07	0.09	722140	keystroke	Key.space	n/a
361.325	0.075	722650	keystroke	d	n/a
361.385	0.091	722770	keystroke	i	n/a
361.52	0.09	723040	keystroke	a	n/a
361.745	0.045	723490	keystroke	g	n/a
362.1795	0.09	724359	keystroke	n	n/a
362.3145	0.09	724629	keystroke	o	n/a
362.5255	0.075	725051	keystroke	s	n/a
362.6595	0.09	725319	keystroke	i	n/a
362.7345	0.075	725469	keystroke	s	n/a
362.9145	0.105	725829	keystroke	Key.space	n/a
363.2445	0.06	726489	keystroke	r	n/a
363.3645	0.09	726729	keystroke	a	n/a
363.4395	0.076	726879	keystroke	n	n/a
363.5005	0.09	727001	keystroke	k	n/a
363.7095	0.105	727419	keystroke	i	n/a
363.7695	0.09	727539	keystroke	n	n/a
363.8445	0.06	727689	keystroke	g	n/a
364.3095	0.06	728619	keystroke	s	n/a
364.5495	0.075	729099	keystroke	Key.enter	n/a
364.6315	6.565	729263	prompt	n/a	drawings suitable lesbians admission\n
365.1945	0.09	730389	keystroke	d	n/a
365.3745	0.075	730749	keystroke	r	n/a
365.4945	0.045	730989	keystroke	a	n/a
365.7045	0.015	731409	keystroke	w	n/a
365.7495	0.135	731499	keystroke	i	n/a
365.8245	0.105	731649	keystroke	n	n/a
365.9445	0.075	731889	keystroke	g	n/a
366.0645	0.09	732129	keystroke	s	n/a
366.1695	0.09	732339	keystroke	Key.space	n/a
366.4845	0.075	732969	keystroke	s	n/a
366.5745	0.12	733149	keystroke	u	n/a
366.7095	0.09	733419	keystroke	i	n/a
366.8155	0.075	733631	keystroke	t	n/a
366.9945	0.105	733989	keystroke	a	n/a
367.0855	0.104	734171	keystroke	b	n/a
367.2645	0.045	734529	keystroke	l	n/a
367.3395	0.06	734679	keystroke	e	n/a
367.5345	0.09	735069	keystroke	Key.space	n/a
367.7745	0.121	735549	keystroke	l	n/a
367.8795	0.075	735759	keystroke	e	n/a
368.0595	0.075	736119	keystroke	s	n/a
368.5395	0.09	737079	keystroke	b	n/a
368.6445	0.09	737289	keystroke	i	n/a
368.7495	0.091	737499	keystroke	a	n/a
368.8545	0.075	737709	keystroke	n	n/a
368.9445	0.075	737889	keystroke	s	n/a
369.0345	0.105	738069	keystroke	Key.space	n/a
369.6355	0.074	739271	keystroke	a	n/a
369.7395	0.105	739479	keystroke	d	n/a
369.8595	0.075	739719	keystroke	m	n/a
369.9355	0.104	739871	keystroke	i	n/a
370.0095	0.09	740019	keystroke	s	n/a
370.1595	0.09	740319	keystroke	s	n/a
370.2345	0.106	740469	keystroke	i	n/a
370.4005	0.149	740801	keystroke	o	n/a
370.4745	0.121	740949	keystroke	n	n/a
371.1045	0.09	742209	keystroke	Key.enter	n/a
371.201	12.7755	742402	prompt	n/a	workshops reggae consequence johnston\n
371.7805	0.104	743561	keystroke	w	n/a
371.9145	0.105	743829	keystroke	o	n/a
372.0645	0.075	744129	keystroke	r	n/a
372.1855	0.089	744371	keystroke	k	n/a
372.2905	0.104	744581	keystroke	s	n/a
372.4545	0.09	744909	keystroke	h	n/a
372.6945	0.105	745389	keystroke	o	n/a
372.7545	0.106	745509	keystroke	p	n/a
372.8745	0.091	745749	keystroke	s	n/a
373.0545	0.09	746109	keystroke	Key.space	n/a
373.2795	0.075	746559	keystroke	r	n/a
373.4445	0.06	746889	keystroke	a	n/a
373.91	0.075	747820	keystroke	Key.backspace	n/a
373.97	0.075	747940	keystroke	e	n/a
374.09	0.0595	748180	keystroke	g	n/a
374.4195	0.075	748839	keystroke	g	n/a
374.6295	0.075	749259	keystroke	a	n/a
374.7495	0.075	749499	keystroke	r	n/a
374.8695	0.105	749739	keystroke	Key.space	n/a
375.1545	0.075	750309	keystroke	c	n/a
375.3045	0.105	750609	keystroke	n	n/a
376.49	0.09	752980	keystroke	Key.backspace	n/a
376.7	0.075	753400	keystroke	Key.backspace	n/a
376.985	0.105	753970	keystroke	Key.backspace	n/a
377.375	0.09	754750	keystroke	Key.backspace	n/a
377.51	0.1055	755020	keystroke	e	n/a
377.6595	0.12	755319	keystroke	Key.space	n/a
377.9445	0.09	755889	keystroke	c	n/a
378.0795	0.12	756159	keystroke	o	n/a
378.1405	0.104	756281	keystroke	n	n/a
378.3645	0.06	756729	keystroke	s	n/a
378.9195	0.075	757839	keystroke	q	n/a
379.2645	0.06	758529	keystroke	Key.backspace	n/a
380.0445	0.045	760089	keystroke	e	n/a
380.1945	0.09	760389	keystroke	q	n/a
380.3295	0.075	760659	keystroke	u	n/a
380.5545	0.075	761109	keystroke	e	n/a
380.6895	0.105	761379	keystroke	n	n/a
380.7795	0.09	761559	keystroke	c	n/a
380.8395	0.09	761679	keystroke	e	n/a
380.9745	0.09	761949	keystroke	Key.space	n/a
381.4995	0.1345	762999	keystroke	h	n/a
381.665	0.09	763330	keystroke	o	n/a
381.979	0.06	763958	keystroke	Key.backspace	n/a
382.144	0.076	764288	keystroke	Key.backspace	n/a
382.31	0.135	764620	keystroke	j	n/a
382.505	0.089	765010	keystroke	o	n/a
382.6695	0.105	765339	keystroke	h	n/a
382.8945	0.075	765789	keystroke	n	n/a
383.0295	0.105	766059	keystroke	s	n/a
383.5545	0.105	767109	keystroke	t	n/a
383.6445	0.105	767289	keystroke	o	n/a
383.6895	0.075	767379	keystroke	n	n/a
383.8845	0.09	767769	keystroke	Key.enter	n/a
383.982	4.96	767964	prompt	n/a	parcel am pete feeds\n
384.5445	0.12	769089	keystroke	o	n/a
384.8595	0.09	769719	keystroke	a	n/a
385.0545	0.09	770109	keystroke	Key.backspace	n/a
385.2345	0.06	770469	keystroke	Key.backspace	n/a
385.4145	0.105	770829	keystroke	p	n/a
385.5345	0.09	771069	keystroke	a	n/a
385.6395	0.075	771279	keystroke	r	n/a
385.8645	0.09	771729	keystroke	c	n/a
385.9695	0.105	771939	keystroke	e	n/a
386.0595	0.09	772119	keystroke	l	n/a
386.2395	0.09	772479	keystroke	Key.space	n/a
386.4495	0.075	772899	keystroke	a	n/a
386.5245	0.105	773049	keystroke	m	n/a
386.6445	0.105	773289	keystroke	Key.space	n/a
386.7795	0.105	773559	keystroke	p	n/a
386.8995	0.075	773799	keystroke	e	n/a
387.0345	0.075	774069	keystroke	t	n/a
387.4395	0.06	774879	keystroke	e	n/a
387.5445	0.09	775089	keystroke	Key.space	n/a
387.7845	0.09	775569	keystroke	f	n/a
387.9495	0.09	775899	keystroke	e	n/a
388.1445	0.12	776289	keystroke	e	n/a
388.2345	0.135	776469	keystroke	d	n/a
388.4145	0.105	776829	keystroke	s	n/a
388.8195	0.12	777639	keystroke	Key.enter	n/a
388.9475	5.5285	777895	prompt	n/a	don't guild knee tribune\n
389.5245	0.105	779049	keystroke	d	n/a
390.3345	0.12	780669	keystroke	o	n/a
390.41	0.1045	780820	keystroke	n	n/a
391.0095	0.075	782019	keystroke	'	n/a
391.1145	0.09	782229	keystroke	t	n/a
391.2495	0.12	782499	keystroke	Key.space	n/a
391.7745	0.09	783549	keystroke	g	n/a
391.8795	0.075	783759	keystroke	u	n/a
392.0745	0.105	784149	keystroke	i	n/a
392.1345	0.105	784269	keystroke	l	n/a
392.3595	0.09	784719	keystroke	d	n/a
392.5095	0.075	785019	keystroke	Key.space	n/a
392.6895	0.135	785379	keystroke	k	n/a
392.7795	0.075	785559	keystroke	n	n/a
392.8095	0.06	785619	keystroke	e	n/a
392.9445	0.09	785889	keystroke	e	n/a
393.0945	0.06	786189	keystroke	Key.space	n/a
393.3495	0.06	786699	keystroke	t	n/a
393.6045	0.015	787209	keystroke	r	n/a
393.6205	0.089	787241	keystroke	i	n/a
393.6645	0.135	787329	keystroke	b	n/a
394.04	0.105	788080	keystroke	u	n/a
394.1	0.105	788200	keystroke	n	n/a
394.22	0.09	788440	keystroke	e	n/a
394.385	0.089	788770	keystroke	Key.enter	n/a
394.483	7.8235	788966	prompt	n/a	pros certificates water judges\n
395.045	0.12	790090	keystroke	o	n/a
395.2235	0.061	790447	keystroke	r	n/a
395.4785	0.046	790957	keystroke	Key.backspace	n/a
395.6435	0.075	791287	keystroke	Key.backspace	n/a
395.8235	0.121	791647	keystroke	p	n/a
396.0045	0.0445	792009	keystroke	r	n/a
396.065	0.119	792130	keystroke	o	n/a
396.454	0.12	792908	keystroke	Key.space	n/a
396.799	0.105	793598	keystroke	Key.backspace	n/a
396.949	0.105	793898	keystroke	s	n/a
397.114	0.09	794228	keystroke	Key.space	n/a
397.369	0.09	794738	keystroke	c	n/a
397.504	0.105	795008	keystroke	e	n/a
397.594	0.075	795188	keystroke	r	n/a
398.164	0.105	796328	keystroke	t	n/a
399.019	0.09	798038	keystroke	i	n/a
399.184	0.09	798368	keystroke	f	n/a
399.289	0.09	798578	keystroke	i	n/a
399.544	0.105	799088	keystroke	c	n/a
399.739	0.09	799478	keystroke	a	n/a
399.874	0.075	799748	keystroke	t	n/a
399.979	0.06	799958	keystroke	e	n/a
400.144	0.105	800288	keystroke	s	n/a
400.234	0.075	800468	keystroke	Key.space	n/a
400.459	0.075	800918	keystroke	w	n/a
400.639	0.06	801278	keystroke	a	n/a
400.774	0.091	801548	keystroke	t	n/a
400.879	0.075	801758	keystroke	e	n/a
400.94	0.104	801880	keystroke	r	n/a
401.059	0.09	802118	keystroke	Key.space	n/a
401.389	0.09	802778	keystroke	j	n/a
401.5845	0.09	803169	keystroke	u	n/a
401.6595	0.075	803319	keystroke	d	n/a
401.8545	0.06	803709	keystroke	g	n/a
401.9295	0.06	803859	keystroke	e	n/a
402.0945	0.09	804189	keystroke	s	n/a
402.2145	0.09	804429	keystroke	Key.enter	n/a
402.3115	7.3895	804623	prompt	n/a	boss blake disaster prospective\n
403.2495	0.075	806499	keystroke	b	n/a
403.549	0.1055	807098	keystroke	o	n/a
403.7145	0.075	807429	keystroke	s	n/a
403.864	0.0905	807728	keystroke	s	n/a
403.9695	0.1045	807939	keystroke	Key.space	n/a
404.464	0.076	808928	keystroke	b	n/a
404.615	0.105	809230	keystroke	l	n/a
404.721	0.089	809442	keystroke	a	n/a
404.825	0.09	809650	keystroke	k	n/a
404.929	0.076	809858	keystroke	e	n/a
405.065	0.0735	810130	keystroke	Key.space	n/a
405.3345	0.075	810669	keystroke	d	n/a
405.4235	0.1205	810847	keystroke	i	n/a
405.56	0.09	811120	keystroke	s	n/a
406.0995	0.09	812199	keystroke	a	n/a
406.2945	0.09	812589	keystroke	s	n/a
406.4445	0.075	812889	keystroke	t	n/a
406.6085	0.06	813217	keystroke	e	n/a
406.6385	0.09	813277	keystroke	r	n/a
406.7435	0.105	813487	keystroke	Key.space	n/a
407.3745	0.104	814749	keystroke	p	n/a
407.4935	0.076	814987	keystroke	r	n/a
407.6145	0.105	815229	keystroke	o	n/a
408.0045	0.09	816009	keystroke	s	n/a
408.1845	0.075	816369	keystroke	c	n/a
408.5445	0.06	817089	keystroke	Key.backspace	n/a
408.7245	0.105	817449	keystroke	p	n/a
408.8145	0.09	817629	keystroke	e	n/a
408.8895	0.09	817779	keystroke	c	n/a
409.0845	0.06	818169	keystroke	t	n/a
409.1745	0.105	818349	keystroke	i	n/a
409.3095	0.075	818619	keystroke	v	n/a
409.3995	0.075	818799	keystroke	e	n/a
409.6095	0.089	819219	keystroke	Key.enter	n/a
409.704	7.092	819408	prompt	n/a	naval iran identified cameroon\n
410.3745	0.104	820749	keystroke	n	n/a
410.5245	0.075	821049	keystroke	a	n/a
410.9595	0.075	821919	keystroke	v	n/a
411.1685	0.091	822337	keystroke	a	n/a
411.2295	0.105	822459	keystroke	l	n/a
411.4085	0.076	822817	keystroke	Key.space	n/a
411.5145	0.074	823029	keystroke	i	n/a
411.6045	0.075	823209	keystroke	r	n/a
411.7545	0.09	823509	keystroke	a	n/a
411.8895	0.105	823779	keystroke	n	n/a
412.1895	0.105	824379	keystroke	Key.space	n/a
412.6545	0.09	825309	keystroke	i	n/a
412.7595	0.105	825519	keystroke	d	n/a
412.9245	0.09	825849	keystroke	n	n/a
413.2695	0.06	826539	keystroke	Key.backspace	n/a
413.2995	0.09	826599	keystroke	e	n/a
413.4645	0.075	826929	keystroke	n	n/a
413.6595	0.06	827319	keystroke	t	n/a
413.7345	0.075	827469	keystroke	i	n/a
413.8995	0.075	827799	keystroke	f	n/a
413.9595	0.075	827919	keystroke	i	n/a
414.0495	0.12	828099	keystroke	e	n/a
414.1095	0.105	828219	keystroke	d	n/a
414.2445	0.09	828489	keystroke	Key.space	n/a
414.6645	0.09	829329	keystroke	c	n/a
414.8895	0.0745	829779	keystroke	a	n/a
415.069	0.075	830138	keystroke	m	n/a
415.2345	0.106	830469	keystroke	e	n/a
415.3245	0.06	830649	keystroke	r	n/a
415.5345	0.015	831069	keystroke	r	n/a
415.8495	0.105	831699	keystroke	Key.backspace	n/a
416.1345	0.075	832269	keystroke	o	n/a
416.2995	0.105	832599	keystroke	o	n/a
416.4195	0.09	832839	keystroke	n	n/a
416.7345	0.06	833469	keystroke	Key.enter	n/a
416.8005	4.361	833601	prompt	n/a	elegant hood warming guns\n
417.3495	0.075	834699	keystroke	e	n/a
417.4395	0.09	834879	keystroke	l	n/a
417.5595	0.075	835119	keystroke	e	n/a
417.7245	0.075	835449	keystroke	g	n/a
417.9045	0.09	835809	keystroke	a	n/a
418.0545	0.09	836109	keystroke	n	n/a
418.1595	0.075	836319	keystroke	t	n/a
418.2645	0.075	836529	keystroke	Key.space	n/a
418.6095	0.075	837219	keystroke	h	n/a
418.7145	0.075	837429	keystroke	o	n/a
418.8495	0.09	837699	keystroke	o	n/a
418.9395	0.09	837879	keystroke	d	n/a
419.1195	0.09	838239	keystroke	Key.space	n/a
419.3595	0.075	838719	keystroke	w	n/a
419.5095	0.09	839019	keystroke	a	n/a
419.6295	0.075	839259	keystroke	r	n/a
419.8995	0.105	839799	keystroke	m	n/a
420.0645	0.105	840129	keystroke	i	n/a
420.1245	0.105	840249	keystroke	n	n/a
420.2895	0.12	840579	keystroke	g	n/a
420.4245	0.09	840849	keystroke	Key.space	n/a
420.6345	0.015	841269	keystroke	g	n/a
420.6795	0.12	841359	keystroke	u	n/a
420.7545	0.09	841509	keystroke	n	n/a
420.8295	0.075	841659	keystroke	s	n/a
421.0695	0.09	842139	keystroke	Key.enter	n/a
421.1665	5.6655	842333	prompt	n/a	strictly harrison view warrant\n
421.699	0.105	843398	keystroke	s	n/a
421.879	0.075	843758	keystroke	t	n/a
422.029	0.09	844058	keystroke	r	n/a
422.269	0.075	844538	keystroke	c	n/a
422.584	0.105	845168	keystroke	Key.backspace	n/a
422.689	0.09	845378	keystroke	i	n/a
422.749	0.09	845498	keystroke	c	n/a
422.959	0.09	845918	keystroke	t	n/a
423.139	0.105	846278	keystroke	l	n/a
423.259	0.075	846518	keystroke	y	n/a
423.394	0.105	846788	keystroke	Key.space	n/a
423.679	0.075	847358	keystroke	h	n/a
423.739	0.09	847478	keystroke	a	n/a
423.859	0.075	847718	keystroke	r	n/a
423.979	0.075	847958	keystroke	r	n/a
424.099	0.075	848198	keystroke	i	n/a
424.219	0.09	848438	keystroke	s	n/a
424.339	0.12	848678	keystroke	o	n/a
424.369	0.12	848738	keystroke	n	n/a
424.624	0.09	849248	keystroke	Key.space	n/a
424.924	0.075	849848	keystroke	v	n/a
425.014	0.075	850028	keystroke	i	n/a
425.104	0.075	850208	keystroke	e	n/a
425.269	0.075	850538	keystroke	w	n/a
425.374	0.09	850748	keystroke	Key.space	n/a
425.719	0.075	851438	keystroke	w	n/a
425.869	0.09	851738	keystroke	a	n/a
426.019	0.075	852038	keystroke	r	n/a
426.169	0.075	852338	keystroke	r	n/a
426.289	0.09	852578	keystroke	a	n/a
426.439	0.105	852878	keystroke	n	n/a
426.559	0.075	853118	keystroke	t	n/a
426.814	0.015	853628	keystroke	Key.enter	n/a
426.836	12.8945	853672	prompt	n/a	springfield corners positive kruger\n
427.594	0.09	855188	keystroke	s	n/a
427.729	0.15	855458	keystroke	o	n/a
428.164	0.06	856328	keystroke	Key.backspace	n/a
428.344	0.105	856688	keystroke	p	n/a
428.524	0.09	857048	keystroke	r	n/a
428.674	0.12	857348	keystroke	i	n/a
428.854	0.075	857708	keystroke	g	n/a
429.169	0.075	858338	keystroke	Key.backspace	n/a
429.319	0.09	858638	keystroke	n	n/a
429.424	0.075	858848	keystroke	g	n/a
429.544	0.105	859088	keystroke	Key.space	n/a
429.844	0.06	859688	keystroke	Key.backspace	n/a
430.039	0.075	860078	keystroke	f	n/a
430.144	0.075	860288	keystroke	i	n/a
430.279	0.09	860558	keystroke	e	n/a
430.399	0.075	860798	keystroke	l	n/a
430.504	0.075	861008	keystroke	d	n/a
430.639	0.09	861278	keystroke	Key.space	n/a
431.074	0.09	862148	keystroke	c	n/a
431.179	0.075	862358	keystroke	o	n/a
431.419	0.075	862838	keystroke	r	n/a
431.524	0.1055	863048	keystroke	n	n/a
431.5995	0.075	863199	keystroke	e	n/a
431.6445	0.09	863289	keystroke	r	n/a
431.7795	0.09	863559	keystroke	s	n/a
431.8845	0.075	863769	keystroke	Key.space	n/a
432.3645	0.105	864729	keystroke	p	n/a
432.4245	0.09	864849	keystroke	o	n/a
432.5745	0.045	865149	keystroke	s	n/a
432.6645	0.075	865329	keystroke	t	n/a
432.8145	0.09	865629	keystroke	i	n/a
433.3545	0.074	866709	keystroke	Key.backspace	n/a
433.5045	0.075	867009	keystroke	Key.backspace	n/a
433.6695	0.09	867339	keystroke	i	n/a
433.7445	0.075	867489	keystroke	t	n/a
433.9545	0.074	867909	keystroke	v	n/a
434.0595	0.104	868119	keystroke	e	n/a
434.2235	0.09	868447	keystroke	Key.space	n/a
434.9135	0.06	869827	keystroke	Key.backspace	n/a
435.0935	0.06	870187	keystroke	Key.backspace	n/a
435.3185	0.06	870637	keystroke	Key.backspace	n/a
435.5445	0.045	871089	keystroke	i	n/a
435.6185	0.0605	871237	keystroke	v	n/a
435.6335	0.03	871267	keystroke	i	n/a
436.2185	0.045	872437	keystroke	Key.backspace	n/a
436.3835	0.09	872767	keystroke	Key.backspace	n/a
436.5495	0.134	873099	keystroke	i	n/a
436.6985	0.075	873397	keystroke	v	n/a
437.1485	0.075	874297	keystroke	Key.backspace	n/a
437.3285	0.075	874657	keystroke	Key.backspace	n/a
437.4645	0.059	874929	keystroke	v	n/a
437.629	0.0745	875258	keystroke	e	n/a
437.7935	0.075	875587	keystroke	Key.space	n/a
438.7245	0.09	877449	keystroke	k	n/a
438.9345	0.074	877869	keystroke	r	n/a
439.0835	0.076	878167	keystroke	u	n/a
439.2645	0.045	878529	keystroke	g	n/a
439.3685	0.106	878737	keystroke	e	n/a
439.4285	0.09	878857	keystroke	r	n/a
439.6235	0.105	879247	keystroke	Key.enter	n/a
439.735	5.8455	879470	prompt	n/a	maintains survive action hardly\n
440.2995	0.119	880599	keystroke	m	n/a
440.4485	0.105	880897	keystroke	a	n/a
440.7035	0.18	881407	keystroke	i	n/a
441.0345	0.09	882069	keystroke	n	n/a
441.2595	0.074	882519	keystroke	t	n/a
441.3935	0.075	882787	keystroke	a	n/a
441.4535	0.105	882907	keystroke	i	n/a
441.4985	0.09	882997	keystroke	n	n/a
441.6035	0.0755	883207	keystroke	s	n/a
441.694	0.09	883388	keystroke	Key.space	n/a
441.859	0.06	883718	keystroke	s	n/a
442.114	0.105	884228	keystroke	u	n/a
442.264	0.06	884528	keystroke	r	n/a
442.444	0.075	884888	keystroke	v	n/a
442.549	0.105	885098	keystroke	i	n/a
442.624	0.09	885248	keystroke	v	n/a
442.744	0.09	885488	keystroke	e	n/a
442.879	0.09	885758	keystroke	Key.space	n/a
443.149	0.075	886298	keystroke	a	n/a
443.299	0.075	886598	keystroke	c	n/a
443.464	0.075	886928	keystroke	t	n/a
443.524	0.09	887048	keystroke	i	n/a
443.704	0.09	887408	keystroke	n	n/a
444.109	0.06	888218	keystroke	Key.backspace	n/a
444.304	0.135	888608	keystroke	o	n/a
444.409	0.09	888818	keystroke	n	n/a
444.589	0.09	889178	keystroke	Key.space	n/a
444.799	0.09	889598	keystroke	h	n/a
444.874	0.09	889748	keystroke	a	n/a
444.949	0.0905	889898	keystroke	r	n/a
445.0995	0.075	890199	keystroke	d	n/a
445.1895	0.105	890379	keystroke	l	n/a
445.3845	0.045	890769	keystroke	y	n/a
445.5045	0.075	891009	keystroke	Key.enter	n/a
445.584	5.2015	891168	prompt	n/a	north commons bean fundamental\n
446.1045	0.09	892209	keystroke	n	n/a
446.2095	0.12	892419	keystroke	o	n/a
446.3595	0.09	892719	keystroke	r	n/a
446.5245	0.075	893049	keystroke	t	n/a
446.6145	0.075	893229	keystroke	h	n/a
446.7045	0.075	893409	keystroke	Key.space	n/a
446.9295	0.105	893859	keystroke	c	n/a
447.0645	0.12	894129	keystroke	o	n/a
447.2745	0.075	894549	keystroke	m	n/a
447.4095	0.09	894819	keystroke	m	n/a
447.544	0.105	895088	keystroke	o	n/a
447.604	0.09	895208	keystroke	n	n/a
447.709	0.09	895418	keystroke	s	n/a
447.829	0.09	895658	keystroke	Key.space	n/a
448.459	0.09	896918	keystroke	b	n/a
448.534	0.06	897068	keystroke	e	n/a
448.699	0.075	897398	keystroke	a	n/a
448.759	0.105	897518	keystroke	n	n/a
448.894	0.09	897788	keystroke	Key.space	n/a
449.269	0.09	898538	keystroke	f	n/a
449.329	0.075	898658	keystroke	u	n/a
449.509	0.105	899018	keystroke	n	n/a
449.584	0.075	899168	keystroke	d	n/a
449.704	0.105	899408	keystroke	a	n/a
449.869	0.135	899738	keystroke	m	n/a
450.019	0.09	900038	keystroke	e	n/a
450.124	0.105	900248	keystroke	n	n/a
450.229	0.06	900458	keystroke	t	n/a
450.349	0.09	900698	keystroke	a	n/a
450.424	0.105	900848	keystroke	l	n/a
450.709	0.075	901418	keystroke	Key.enter	n/a
450.789	3.612	901578	prompt	n/a	football continue studying scary\n
451.324	0.09	902648	keystroke	f	n/a
451.579	0.075	903158	keystroke	o	n/a
451.729	0.09	903458	keystroke	o	n/a
451.849	0.06	903698	keystroke	t	n/a
452.179	0.075	904358	keystroke	b	n/a
452.299	0.09	904598	keystroke	a	n/a
452.389	0.045	904778	keystroke	l	n/a
452.509	0.075	905018	keystroke	l	n/a
452.689	0.06	905378	keystroke	Key.space	n/a
452.929	0.105	905858	keystroke	c	n/a
453.049	0.09	906098	keystroke	o	n/a
453.094	0.09	906188	keystroke	n	n/a
453.304	0.075	906608	keystroke	t	n/a
453.409	0.15	906818	keystroke	i	n/a
453.514	0.12	907028	keystroke	n	n/a
453.709	0.09	907418	keystroke	u	n/a
453.724	0.045	907448	keystroke	e	n/a
454.339	0.06	908678	keystroke	Key.enter	n/a
454.4055	6.01	908811	prompt	n/a	levels dogs support islam\n
455.509	0.06	911018	keystroke	e	n/a
455.599	0.09	911198	keystroke	l	n/a
456.019	0.06	912038	keystroke	Key.backspace	n/a
456.154	0.06	912308	keystroke	Key.backspace	n/a
456.349	0.105	912698	keystroke	l	n/a
456.484	0.075	912968	keystroke	e	n/a
456.634	0.06	913268	keystroke	v	n/a
456.679	0.09	913358	keystroke	e	n/a
456.799	0.105	913598	keystroke	l	n/a
456.964	0.09	913928	keystroke	s	n/a
457.114	0.09	914228	keystroke	Key.space	n/a
457.534	0.09	915068	keystroke	d	n/a
457.624	0.09	915248	keystroke	o	n/a
457.744	0.06	915488	keystroke	g	n/a
457.849	0.09	915698	keystroke	s	n/a
457.984	0.09	915968	keystroke	Key.space	n/a
458.284	0.09	916568	keystroke	s	n/a
458.359	0.09	916718	keystroke	u	n/a
458.509	0.105	917018	keystroke	p	n/a
458.674	0.1345	917348	keystroke	p	n/a
458.7785	0.09	917557	keystroke	o	n/a
458.8385	0.09	917677	keystroke	r	n/a
459.0195	0.044	918039	keystroke	t	n/a
459.0785	0.09	918157	keystroke	Key.space	n/a
459.3185	0.091	918637	keystroke	i	n/a
459.3935	0.076	918787	keystroke	s	n/a
459.4995	0.104	918999	keystroke	l	n/a
459.6485	0.076	919297	keystroke	a	n/a
459.7535	0.121	919507	keystroke	m	n/a
460.3385	0.075	920677	keystroke	Key.enter	n/a
460.423	6.4885	920846	prompt	n/a	productivity worth plugin info\n
460.9845	0.075	921969	keystroke	o	n/a
461.3735	0.09	922747	keystroke	Key.backspace	n/a
461.614	0.09	923228	keystroke	p	n/a
461.764	0.075	923528	keystroke	r	n/a
461.854	0.12	923708	keystroke	o	n/a
462.094	0.075	924188	keystroke	d	n/a
462.289	0.09	924578	keystroke	u	n/a
462.394	0.105	924788	keystroke	c	n/a
462.679	0.075	925358	keystroke	t	n/a
462.799	0.09	925598	keystroke	i	n/a
463.459	0.075	926918	keystroke	v	n/a
463.639	0.105	927278	keystroke	i	n/a
463.804	0.075	927608	keystroke	t	n/a
463.909	0.105	927818	keystroke	y	n/a
464.254	0.09	928508	keystroke	Key.space	n/a
464.479	0.045	928958	keystroke	w	n/a
464.644	0.09	929288	keystroke	o	n/a
464.734	0.09	929468	keystroke	r	n/a
464.929	0.06	929858	keystroke	t	n/a
465.004	0.09	930008	keystroke	h	n/a
465.079	0.09	930158	keystroke	Key.space	n/a
465.334	0.164	930668	keystroke	p	n/a
465.409	0.105	930818	keystroke	l	n/a
465.6485	0.09	931297	keystroke	u	n/a
465.7545	0.075	931509	keystroke	g	n/a
465.8595	0.12	931719	keystroke	i	n/a
465.9195	0.1045	931839	keystroke	n	n/a
466.0985	0.075	932197	keystroke	Key.space	n/a
466.3385	0.121	932677	keystroke	i	n/a
466.4145	0.105	932829	keystroke	n	n/a
466.5345	0.075	933069	keystroke	f	n/a
466.5935	0.09	933187	keystroke	o	n/a
466.8345	0.075	933669	keystroke	Key.enter	n/a
466.9165	5.9945	933833	prompt	n/a	feeding findings icons gonna\n
467.4495	0.09	934899	keystroke	f	n/a
467.5545	0.089	935109	keystroke	e	n/a
467.779	0.105	935558	keystroke	e	n/a
467.914	0.105	935828	keystroke	d	n/a
468.064	0.165	936128	keystroke	i	n/a
468.169	0.105	936338	keystroke	n	n/a
468.544	0.03	937088	keystroke	f	n/a
468.874	0.105	937748	keystroke	Key.space	n/a
469.204	0.045	938408	keystroke	Key.backspace	n/a
469.324	0.09	938648	keystroke	Key.backspace	n/a
469.369	0.09	938738	keystroke	g	n/a
469.489	0.09	938978	keystroke	Key.space	n/a
469.699	0.045	939398	keystroke	f	n/a
469.774	0.15	939548	keystroke	i	n/a
469.864	0.135	939728	keystroke	n	n/a
470.044	0.06	940088	keystroke	d	n/a
470.194	0.105	940388	keystroke	i	n/a
470.269	0.075	940538	keystroke	n	n/a
470.389	0.045	940778	keystroke	g	n/a
470.494	0.09	940988	keystroke	s	n/a
470.629	0.09	941258	keystroke	Key.space	n/a
471.109	0.105	942218	keystroke	i	n/a
471.229	0.075	942458	keystroke	c	n/a
471.319	0.135	942638	keystroke	o	n/a
471.394	0.105	942788	keystroke	n	n/a
471.484	0.09	942968	keystroke	s	n/a
471.619	0.09	943238	keystroke	Key.space	n/a
471.9485	0.06	943897	keystroke	g	n/a
472.1135	0.09	944227	keystroke	o	n/a
472.1885	0.045	944377	keystroke	n	n/a
472.2635	0.091	944527	keystroke	n	n/a
472.6835	0.09	945367	keystroke	a	n/a
472.8335	0.075	945667	keystroke	Key.enter	n/a
472.915	7.286	945830	prompt	n/a	apparatus acting treated recording\n
473.4795	0.074	946959	keystroke	a	n/a
473.5385	0.105	947077	keystroke	p	n/a
473.6885	0.105	947377	keystroke	p	n/a
473.8685	0.09	947737	keystroke	a	n/a
474.0185	0.105	948037	keystroke	r	n/a
474.9035	0.09	949807	keystroke	a	n/a
475.0985	0.06	950197	keystroke	t	n/a
475.2335	0.09	950467	keystroke	u	n/a
475.3535	0.076	950707	keystroke	s	n/a
475.4885	0.135	950977	keystroke	Key.space	n/a
475.8035	0.075	951607	keystroke	a	n/a
475.9385	0.09	951877	keystroke	c	n/a
476.1485	0.045	952297	keystroke	t	n/a
476.1785	0.105	952357	keystroke	i	n/a
476.2385	0.09	952477	keystroke	n	n/a
476.3435	0.06	952687	keystroke	g	n/a
476.4335	0.12	952867	keystroke	Key.space	n/a
476.8385	0.075	953677	keystroke	t	n/a
477.0185	0.105	954037	keystroke	r	n/a
477.0945	0.09	954189	keystroke	e	n/a
477.2735	0.09	954547	keystroke	a	n/a
477.4385	0.06	954877	keystroke	t	n/a
477.5585	0.135	955117	keystroke	e	n/a
477.6335	0.105	955267	keystroke	d	n/a
477.7535	0.105	955507	keystroke	Key.space	n/a
478.1135	0.075	956227	keystroke	r	n/a
478.2035	0.09	956407	keystroke	e	n/a
478.3385	0.09	956677	keystroke	c	n/a
478.5185	0.015	957037	keystroke	o	n/a
478.5485	0.06	957097	keystroke	r	n/a
478.5785	0.045	957157	keystroke	o	n/a
479.4335	0.075	958867	keystroke	Key.backspace	n/a
479.5235	0.09	959047	keystroke	d	n/a
479.6585	0.165	959317	keystroke	i	n/a
479.7935	0.105	959587	keystroke	n	n/a
479.9285	0.075	959857	keystroke	g	n/a
480.1085	0.09	960217	keystroke	Key.enter	n/a
480.206	9.01	960412	prompt	n/a	myanmar winston silence dialog\n
480.9195	0.119	961839	keystroke	m	n/a
481.0395	0.089	962079	keystroke	a	n/a
481.6535	0.09	963307	keystroke	Key.backspace	n/a
481.7595	0.074	963519	keystroke	y	n/a
481.9685	0.105	963937	keystroke	a	n/a
482.0585	0.09	964117	keystroke	n	n/a
482.3885	0.09	964777	keystroke	m	n/a
482.5235	0.12	965047	keystroke	a	n/a
482.6885	0.075	965377	keystroke	r	n/a
483.3035	0.105	966607	keystroke	Key.space	n/a
484.3395	0.089	968679	keystroke	w	n/a
484.4435	0.135	968887	keystroke	i	n/a
484.5345	0.104	969069	keystroke	n	n/a
484.6835	0.091	969367	keystroke	s	n/a
484.8935	0.105	969787	keystroke	t	n/a
485.0135	0.15	970027	keystroke	o	n/a
485.1485	0.12	970297	keystroke	n	n/a
485.4935	0.105	970987	keystroke	Key.space	n/a
485.7935	0.105	971587	keystroke	s	n/a
485.8685	0.135	971737	keystroke	i	n/a
485.9745	0.105	971949	keystroke	l	n/a
486.1235	0.075	972247	keystroke	e	n/a
486.4235	0.091	972847	keystroke	c	n/a
486.5585	0.09	973117	keystroke	n	n/a
486.9185	0.09	973837	keystroke	Key.backspace	n/a
487.0985	0.075	974197	keystroke	Key.backspace	n/a
487.2485	0.09	974497	keystroke	n	n/a
487.3235	0.106	974647	keystroke	c	n/a
487.3995	0.104	974799	keystroke	e	n/a
487.5185	0.09	975037	keystroke	Key.space	n/a
487.9985	0.09	975997	keystroke	d	n/a
488.1045	0.089	976209	keystroke	i	n/a
488.2245	0.105	976449	keystroke	a	n/a
488.2995	0.105	976599	keystroke	l	n/a
488.8685	0.09	977737	keystroke	o	n/a
488.9735	0.06	977947	keystroke	g	n/a
489.1235	0.09	978247	keystroke	Key.enter	n/a
489.2205	5.335	978441	prompt	n/a	volt cisco drinks stadium\n
490.114	0.09	980228	keystroke	v	n/a
490.188	0.091	980376	keystroke	o	n/a
490.384	0.104	980768	keystroke	l	n/a
490.503	0.076	981006	keystroke	t	n/a
490.623	0.09	981246	keystroke	Key.space	n/a
490.818	0.09	981636	keystroke	c	n/a
490.893	0.09	981786	keystroke	i	n/a
490.999	0.089	981998	keystroke	s	n/a
491.118	0.09	982236	keystroke	o	n/a
491.418	0.075	982836	keystroke	Key.backspace	n/a
491.524	0.105	983048	keystroke	c	n/a
491.614	0.105	983228	keystroke	o	n/a
491.794	0.09	983588	keystroke	Key.space	n/a
492.169	0.06	984338	keystroke	d	n/a
492.334	0.075	984668	keystroke	r	n/a
492.379	0.105	984758	keystroke	i	n/a
492.454	0.12	984908	keystroke	n	n/a
492.589	0.105	985178	keystroke	k	n/a
492.709	0.075	985418	keystroke	s	n/a
492.859	0.075	985718	keystroke	Key.space	n/a
493.204	0.105	986408	keystroke	s	n/a
493.369	0.045	986738	keystroke	t	n/a
493.504	0.09	987008	keystroke	a	n/a
493.804	0.105	987608	keystroke	d	n/a
493.924	0.075	987848	keystroke	i	n/a
494.044	0.105	988088	keystroke	u	n/a
494.253	0.105	988506	keystroke	m	n/a
494.463	0.09	988926	keystroke	Key.enter	n/a
494.5605	8.83	989121	prompt	n/a	tool preparation establish bulgarian\n
495.304	0.074	990608	keystroke	o	n/a
495.6185	0.06	991237	keystroke	Key.backspace	n/a
495.6935	0.09	991387	keystroke	t	n/a
495.8135	0.09	991627	keystroke	o	n/a
495.9335	0.12	991867	keystroke	o	n/a
496.4735	0.09	992947	keystroke	l	n/a
496.6385	0.12	993277	keystroke	Key.space	n/a
496.8035	0.09	993607	keystroke	p	n/a
496.9535	0.075	993907	keystroke	r	n/a
497.2685	0.105	994537	keystroke	e	n/a
497.4035	0.09	994807	keystroke	p	n/a
497.733	0.091	995466	keystroke	a	n/a
498.049	0.104	996098	keystroke	r	n/a
498.259	0.075	996518	keystroke	t	n/a
498.604	0.105	997208	keystroke	i	n/a
498.768	0.15	997536	keystroke	o	n/a
498.873	0.106	997746	keystroke	n	n/a
499.204	0.104	998408	keystroke	Key.space	n/a
500.164	0.075	1000328	keystroke	e	n/a
500.329	0.12	1000658	keystroke	s	n/a
500.509	0.075	1001018	keystroke	t	n/a
500.674	0.12	1001348	keystroke	a	n/a
500.779	0.09	1001558	keystroke	b	n/a
500.944	0.165	1001888	keystroke	l	n/a
501.019	0.135	1002038	keystroke	i	n/a
501.184	0.09	1002368	keystroke	s	n/a
501.289	0.09	1002578	keystroke	h	n/a
501.484	0.075	1002968	keystroke	Key.space	n/a
501.7235	0.075	1003447	keystroke	b	n/a
501.9185	0.135	1003837	keystroke	u	n/a
502.0385	0.075	1004077	keystroke	l	n/a
502.2035	0.06	1004407	keystroke	g	n/a
502.3985	0.075	1004797	keystroke	a	n/a
502.4885	0.075	1004977	keystroke	r	n/a
502.6085	0.105	1005217	keystroke	i	n/a
503.0285	0.09	1006057	keystroke	a	n/a
503.1335	0.06	1006267	keystroke	n	n/a
503.2985	0.09	1006597	keystroke	Key.enter	n/a
503.3945	9.526	1006789	prompt	n/a	cellular mathematical origins points\n
504.0185	0.09	1008037	keystroke	c	n/a
504.1535	0.075	1008307	keystroke	e	n/a
504.3335	0.075	1008667	keystroke	l	n/a
504.4835	0.135	1008967	keystroke	l	n/a
504.5885	0.105	1009177	keystroke	u	n/a
504.7985	0.075	1009597	keystroke	a	n/a
505.2635	0.075	1010527	keystroke	l	n/a
505.7135	0.09	1011427	keystroke	Key.backspace	n/a
505.8635	0.075	1011727	keystroke	Key.backspace	n/a
506.0595	0.104	1012119	keystroke	l	n/a
506.2085	0.105	1012417	keystroke	a	n/a
506.2985	0.09	1012597	keystroke	r	n/a
506.6885	0.105	1013377	keystroke	Key.space	n/a
507.1245	0.119	1014249	keystroke	m	n/a
507.2285	0.09	1014457	keystroke	a	n/a
507.3495	0.074	1014699	keystroke	t	n/a
507.4545	0.089	1014909	keystroke	h	n/a
507.7085	0.06	1015417	keystroke	e	n/a
507.8285	0.12	1015657	keystroke	m	n/a
508.0685	0.09	1016137	keystroke	i	n/a
508.1885	0.075	1016377	keystroke	c	n/a
508.3245	0.134	1016649	keystroke	a	n/a
508.6385	0.09	1017277	keystroke	Key.backspace	n/a
508.8335	0.09	1017667	keystroke	Key.backspace	n/a
509.0135	0.075	1018027	keystroke	Key.backspace	n/a
509.2835	0.075	1018567	keystroke	a	n/a
509.3735	0.075	1018747	keystroke	t	n/a
509.4635	0.09	1018927	keystroke	i	n/a
509.6135	0.075	1019227	keystroke	c	n/a
509.7635	0.105	1019527	keystroke	a	n/a
509.8385	0.09	1019677	keystroke	l	n/a
510.0935	0.105	1020187	keystroke	Key.space	n/a
510.6335	0.105	1021267	keystroke	o	n/a
510.7245	0.104	1021449	keystroke	r	n/a
510.9785	0.09	1021957	keystroke	i	n/a
511.0995	0.089	1022199	keystroke	g	n/a
511.2335	0.105	1022467	keystroke	i	n/a
511.3085	0.09	1022617	keystroke	n	n/a
511.4285	0.075	1022857	keystroke	s	n/a
511.5935	0.09	1023187	keystroke	Key.space	n/a
512.1035	0.15	1024207	keystroke	p	n/a
512.2085	0.12	1024417	keystroke	o	n/a
512.4345	0.089	1024869	keystroke	i	n/a
512.4635	0.105	1024927	keystroke	n	n/a
512.5385	0.105	1025077	keystroke	t	n/a
512.6585	0.075	1025317	keystroke	s	n/a
512.8085	0.105	1025617	keystroke	Key.enter	n/a
512.921	6.2645	1025842	prompt	n/a	moderators care looked score\n
513.5295	0.12	1027059	keystroke	m	n/a
513.6635	0.09	1027327	keystroke	e	n/a
513.7235	0.135	1027447	keystroke	d	n/a
514.1135	0.075	1028227	keystroke	Key.backspace	n/a
514.2785	0.09	1028557	keystroke	Key.backspace	n/a
514.5045	0.089	1029009	keystroke	o	n/a
514.6235	0.091	1029247	keystroke	d	n/a
514.8185	0.105	1029637	keystroke	e	n/a
514.9085	0.105	1029817	keystroke	r	n/a
515.1035	0.075	1030207	keystroke	a	n/a
515.2535	0.075	1030507	keystroke	t	n/a
515.4335	0.121	1030867	keystroke	o	n/a
515.6135	0.09	1031227	keystroke	r	n/a
515.7185	0.106	1031437	keystroke	s	n/a
515.869	0.09	1031738	keystroke	Key.space	n/a
516.079	0.075	1032158	keystroke	c	n/a
516.214	0.06	1032428	keystroke	a	n/a
516.364	0.105	1032728	keystroke	r	n/a
516.439	0.075	1032878	keystroke	e	n/a
516.559	0.105	1033118	keystroke	Key.space	n/a
516.739	0.09	1033478	keystroke	l	n/a
516.934	0.06	1033868	keystroke	o	n/a
517.054	0.105	1034108	keystroke	o	n/a
517.129	0.09	1034258	keystroke	k	n/a
517.294	0.03	1034588	keystroke	s	n/a
517.954	0.075	1035908	keystroke	Key.backspace	n/a
518.059	0.09	1036118	keystroke	e	n/a
518.134	0.12	1036268	keystroke	d	n/a
518.269	0.09	1036538	keystroke	Key.space	n/a
518.524	0.09	1037048	keystroke	s	n/a
518.629	0.075	1037258	keystroke	c	n/a
518.719	0.105	1037438	keystroke	o	n/a
518.839	0.075	1037678	keystroke	r	n/a
518.899	0.09	1037798	keystroke	e	n/a
519.109	0.075	1038218	keystroke	Key.enter	n/a
519.1905	6.386	1038381	prompt	n/a	backed eventually trash limitations\n
519.875	0.104	1039750	keystroke	b	n/a
520.009	0.045	1040018	keystroke	a	n/a
520.129	0.09	1040258	keystroke	c	n/a
520.579	0.105	1041158	keystroke	k	n/a
520.924	0.075	1041848	keystroke	e	n/a
