onset	duration	sample	value	key	prompt_text
12.29	18.7395	24580	prompt	n/a	the quick brown fox jumps over a lazy dog\n
14.5145	0.026	29029	keystroke_t	t	n/a
14.5705	0.06	29141	keystroke_h	h	n/a
14.6755	0.09	29351	keystroke_e	e	n/a
17.1085	0.072	34217	keystroke_q	q	n/a
17.2105	0.06	34421	keystroke_u	u	n/a
17.3905	0.075	34781	keystroke_i	i	n/a
17.6005	0.09	35201	keystroke_c	c	n/a
17.7355	0.075	35471	keystroke_k	k	n/a
18.6655	0.09	37331	keystroke_Key.backspace	Key.backspace	n/a
18.8605	0.09	37721	keystroke_Key.backspace	Key.backspace	n/a
19.0555	0.09	38111	keystroke_Key.backspace	Key.backspace	n/a
19.2355	0.09	38471	keystroke_Key.backspace	Key.backspace	n/a
19.4455	0.09	38891	keystroke_Key.backspace	Key.backspace	n/a
19.7455	0.105	39491	keystroke_Key.space	Key.space	n/a
20.0155	0.12	40031	keystroke_q	q	n/a
20.2555	0.045	40511	keystroke_u	u	n/a
20.4355	0.06	40871	keystroke_i	i	n/a
20.5555	0.075	41111	keystroke_c	c	n/a
20.6755	0.075	41351	keystroke_k	k	n/a
20.8105	0.105	41621	keystroke_Key.space	Key.space	n/a
20.9905	0.06	41981	keystroke_b	b	n/a
21.3655	0.12	42731	keystroke_r	r	n/a
21.5005	0.105	43001	keystroke_o	o	n/a
21.7555	0.075	43511	keystroke_n	n	n/a
22.5805	0.015	45161	keystroke_Key.backspace	Key.backspace	n/a
22.6555	0.12	45311	keystroke_w	w	n/a
22.8205	0.06	45641	keystroke_n	n	n/a
23.0605	0.12	46121	keystroke_Key.space	Key.space	n/a
23.3155	0.12	46631	keystroke_f	f	n/a
23.4505	0.09	46901	keystroke_o	o	n/a
23.6155	0.105	47231	keystroke_x	x	n/a
24.0505	0.12	48101	keystroke_Key.space	Key.space	n/a
24.8005	0.06	49601	keystroke_j	j	n/a
24.9655	0.045	49931	keystroke_u	u	n/a
25.1305	0.075	50261	keystroke_m	m	n/a
25.2955	0.09	50591	keystroke_p	p	n/a
25.4605	0.105	50921	keystroke_s	s	n/a
25.6105	0.135	51221	keystroke_Key.space	Key.space	n/a
26.2405	0.105	52481	keystroke_o	o	n/a
26.3905	0.105	52781	keystroke_v	v	n/a
26.5855	0.18	53171	keystroke_e	e	n/a
26.7205	0.135	53441	keystroke_r	r	n/a
26.9905	0.135	53981	keystroke_Key.space	Key.space	n/a
27.1705	0.15	54341	keystroke_a	a	n/a
27.5905	0.135	55181	keystroke_Key.space	Key.space	n/a
27.8455	0.12	55691	keystroke_l	l	n/a
27.9955	0.12	55991	keystroke_a	a	n/a
28.2505	0.135	56501	keystroke_z	z	n/a
28.3705	0.06	56741	keystroke_y	y	n/a
28.6405	0.12	57281	keystroke_Key.space	Key.space	n/a
29.1805	0.045	58361	keystroke_f	f	n/a
29.9455	0.075	59891	keystroke_Key.backspace	Key.backspace	n/a
30.1255	0.105	60251	keystroke_d	d	n/a
30.2455	0.105	60491	keystroke_o	o	n/a
30.4105	0.09	60821	keystroke_g	g	n/a
30.9655	0.06	61931	keystroke_Key.enter	Key.enter	n/a
31.0365	16.3125	62073	prompt	n/a	commentary catherine improving longer\n
31.7455	0.12	63491	keystroke_c	c	n/a
31.8805	0.09	63761	keystroke_o	o	n/a
32.1205	0.06	64241	keystroke_m	m	n/a
32.2705	0.075	64541	keystroke_m	m	n/a
32.5255	0.135	65051	keystroke_e	e	n/a
32.9305	0.075	65861	keystroke_n	n	n/a
33.0205	0.105	66041	keystroke_t	t	n/a
33.5755	0.165	67151	keystroke_a	a	n/a
33.7105	0.105	67421	keystroke_r	r	n/a
33.8755	0.06	67751	keystroke_y	y	n/a
34.1005	0.135	68201	keystroke_Key.space	Key.space	n/a
34.6555	0.09	69311	keystroke_c	c	n/a
34.8055	0.15	69611	keystroke_a	a	n/a
35.1055	0.105	70211	keystroke_t	t	n/a
35.2405	0.075	70481	keystroke_h	h	n/a
35.6905	0.075	71381	keystroke_e	e	n/a
35.9155	0.09	71831	keystroke_r	r	n/a
36.0655	0.075	72131	keystroke_i	i	n/a
36.2455	0.075	72491	keystroke_n	n	n/a
37.0855	0.105	74171	keystroke_e	e	n/a
38.0905	0.12	76181	keystroke_Key.space	Key.space	n/a
38.3605	0.075	76721	keystroke_i	i	n/a
42.3685	0.012	84737	keystroke_m	m	n/a
42.7115	0.119	85423	keystroke_p	p	n/a
43.0115	0.104	86023	keystroke_r	r	n/a
43.0705	0.106	86141	keystroke_o	o	n/a
43.4005	0.075	86801	keystroke_v	v	n/a
43.4905	0.135	86981	keystroke_i	i	n/a
43.6115	0.06	87223	keystroke_n	n	n/a
43.6865	0.074	87373	keystroke_g	g	n/a
43.7755	0.105	87551	keystroke_Key.space	Key.space	n/a
45.4405	0.075	90881	keystroke_l	l	n/a
45.6355	0.09	91271	keystroke_o	o	n/a
45.7865	0.074	91573	keystroke_n	n	n/a
45.9055	0.12	91811	keystroke_g	g	n/a
46.4905	0.135	92981	keystroke_e	e	n/a
46.5805	0.105	93161	keystroke_r	r	n/a
47.2555	0.09	94511	keystroke_Key.enter	Key.enter	n/a
47.3545	7.9285	94709	prompt	n/a	fonts cigarette arrives conferencing\n
48.3055	0.12	96611	keystroke_f	f	n/a
48.4555	0.105	96911	keystroke_o	o	n/a
48.5755	0.09	97151	keystroke_n	n	n/a
48.6665	0.104	97333	keystroke_t	t	n/a
48.8155	0.151	97631	keystroke_s	s	n/a
48.9355	0.135	97871	keystroke_Key.space	Key.space	n/a
49.2055	0.106	98411	keystroke_c	c	n/a
49.3255	0.105	98651	keystroke_i	i	n/a
49.4755	0.105	98951	keystroke_g	g	n/a
49.6255	0.151	99251	keystroke_a	a	n/a
49.8355	0.121	99671	keystroke_r	r	n/a
49.9855	0.105	99971	keystroke_e	e	n/a
50.1805	0.061	100361	keystroke_t	t	n/a
50.3305	0.076	100661	keystroke_t	t	n/a
50.5265	0.104	101053	keystroke_e	e	n/a
50.6755	0.15	101351	keystroke_Key.space	Key.space	n/a
50.8555	0.15	101711	keystroke_a	a	n/a
51.0665	0.074	102133	keystroke_r	r	n/a
51.2305	0.076	102461	keystroke_r	r	n/a
51.3665	0.104	102733	keystroke_i	i	n/a
51.6505	0.12	103301	keystroke_v	v	n/a
51.9505	0.105	103901	keystroke_e	e	n/a
52.2055	0.091	104411	keystroke_s	s	n/a
52.4755	0.135	104951	keystroke_Key.space	Key.space	n/a
52.9265	0.12	105853	keystroke_c	c	n/a
53.0615	0.135	106123	keystroke_o	o	n/a
53.1505	0.091	106301	keystroke_n	n	n/a
53.2855	0.105	106571	keystroke_f	f	n/a
53.5255	0.12	107051	keystroke_e	e	n/a
53.7515	0.15	107503	keystroke_r	r	n/a
53.8565	0.105	107713	keystroke_e	e	n/a
54.1115	0.105	108223	keystroke_n	n	n/a
54.3815	0.105	108763	keystroke_c	c	n/a
54.6365	0.119	109273	keystroke_i	i	n/a
54.7705	0.106	109541	keystroke_n	n	n/a
54.9365	0.105	109873	keystroke_g	g	n/a
55.1455	0.135	110291	keystroke_Key.enter	Key.enter	n/a
55.287	11.577	110574	prompt	n/a	experiences edited acceptance gonna\n
56.1815	0.075	112363	keystroke_e	e	n/a
56.4055	0.135	112811	keystroke_x	x	n/a
56.5715	0.104	113143	keystroke_p	p	n/a
56.7515	0.119	113503	keystroke_e	e	n/a
56.9915	0.12	113983	keystroke_r	r	n/a
57.1405	0.106	114281	keystroke_i	i	n/a
57.2615	0.089	114523	keystroke_e	e	n/a
57.4415	0.105	114883	keystroke_n	n	n/a
57.5605	0.09	115121	keystroke_c	c	n/a
57.7555	0.076	115511	keystroke_e	e	n/a
57.9655	0.12	115931	keystroke_s	s	n/a
58.1005	0.105	116201	keystroke_Key.space	Key.space	n/a
58.3555	0.105	116711	keystroke_d	d	n/a
60.1865	0.074	120373	keystroke_Key.backspace	Key.backspace	n/a
60.6965	0.06	121393	keystroke_e	e	n/a
60.8915	0.104	121783	keystroke_d	d	n/a
60.9815	0.105	121963	keystroke_i	i	n/a
61.1465	0.12	122293	keystroke_t	t	n/a
61.2065	0.12	122413	keystroke_e	e	n/a
61.4315	0.134	122863	keystroke_d	d	n/a
61.5205	0.135	123041	keystroke_Key.space	Key.space	n/a
61.7465	0.12	123493	keystroke_a	a	n/a
62.0315	0.074	124063	keystroke_c	c	n/a
62.1955	0.061	124391	keystroke_c	c	n/a
62.3765	0.105	124753	keystroke_e	e	n/a
63.5165	0.105	127033	keystroke_p	p	n/a
63.7555	0.136	127511	keystroke_t	t	n/a
64.3415	0.12	128683	keystroke_a	a	n/a
64.4755	0.091	128951	keystroke_n	n	n/a
64.6265	0.075	129253	keystroke_c	c	n/a
64.8065	0.12	129613	keystroke_e	e	n/a
64.9115	0.105	129823	keystroke_Key.space	Key.space	n/a
65.1365	0.09	130273	keystroke_g	g	n/a
65.3165	0.075	130633	keystroke_o	o	n/a
65.7815	0.06	131563	keystroke_n	n	n/a
66.2315	0.09	132463	keystroke_n	n	n/a
66.5315	0.135	133063	keystroke_a	a	n/a
66.7715	0.09	133543	keystroke_Key.enter	Key.enter	n/a
66.8705	7.6735	133741	prompt	n/a	gregory billy black miami\n
67.6265	0.09	135253	keystroke_g	g	n/a
67.9865	0.12	135973	keystroke_r	r	n/a
68.0915	0.09	136183	keystroke_e	e	n/a
68.3315	0.09	136663	keystroke_g	g	n/a
68.4365	0.105	136873	keystroke_o	o	n/a
68.5565	0.105	137113	keystroke_r	r	n/a
68.6915	0.045	137383	keystroke_y	y	n/a
68.7665	0.15	137533	keystroke_Key.space	Key.space	n/a
68.9765	0.06	137953	keystroke_b	b	n/a
69.1565	0.06	138313	keystroke_i	i	n/a
69.3665	0.06	138733	keystroke_l	l	n/a
69.5165	0.075	139033	keystroke_l	l	n/a
69.7865	0.105	139573	keystroke_y	y	n/a
70.8955	0.12	141791	keystroke_Key.space	Key.space	n/a
71.3605	0.075	142721	keystroke_b	b	n/a
71.5555	0.12	143111	keystroke_l	l	n/a
71.6905	0.12	143381	keystroke_a	a	n/a
71.9155	0.12	143831	keystroke_c	c	n/a
72.0355	0.09	144071	keystroke_k	k	n/a
73.1905	0.105	146381	keystroke_Key.space	Key.space	n/a
73.6255	0.075	147251	keystroke_m	m	n/a
73.7905	0.075	147581	keystroke_i	i	n/a
73.9855	0.12	147971	keystroke_a	a	n/a
74.1205	0.075	148241	keystroke_m	m	n/a
74.2705	0.075	148541	keystroke_i	i	n/a
74.4505	0.09	148901	keystroke_Key.enter	Key.enter	n/a
74.5515	8.6905	149103	prompt	n/a	who metallic aggressive tones\n
75.4255	0.135	150851	keystroke_w	w	n/a
75.5455	0.06	151091	keystroke_h	h	n/a
75.6805	0.105	151361	keystroke_o	o	n/a
75.8005	0.105	151601	keystroke_Key.space	Key.space	n/a
75.9355	0.075	151871	keystroke_m	m	n/a
76.0255	0.135	152051	keystroke_e	e	n/a
76.1905	0.15	152381	keystroke_t	t	n/a
76.3255	0.165	152651	keystroke_a	a	n/a
76.5055	0.09	153011	keystroke_l	l	n/a
76.6705	0.105	153341	keystroke_l	l	n/a
76.8205	0.09	153641	keystroke_i	i	n/a
76.9855	0.12	153971	keystroke_c	c	n/a
77.1355	0.105	154271	keystroke_Key.space	Key.space	n/a
77.3155	0.135	154631	keystroke_a	a	n/a
77.5105	0.075	155021	keystroke_g	g	n/a
77.6605	0.06	155321	keystroke_g	g	n/a
77.855	0.165	155710	keystroke_r	r	n/a
78.05	0.045	156100	keystroke_r	r	n/a
78.065	0.12	156130	keystroke_e	e	n/a
79.64	0.12	159280	keystroke_Key.backspace	Key.backspace	n/a
80.195	0.105	160390	keystroke_Key.backspace	Key.backspace	n/a
80.976	0.074	161952	keystroke_e	e	n/a
81.23	0.075	162460	keystroke_s	s	n/a
81.38	0.105	162760	keystroke_s	s	n/a
81.53	0.105	163060	keystroke_i	i	n/a
81.68	0.09	163360	keystroke_v	v	n/a
81.845	0.12	163690	keystroke_e	e	n/a
82.115	0.105	164230	keystroke_Key.space	Key.space	n/a
82.34	0.105	164680	keystroke_t	t	n/a
82.43	0.135	164860	keystroke_o	o	n/a
82.535	0.105	165070	keystroke_n	n	n/a
82.625	0.106	165250	keystroke_e	e	n/a
82.895	0.12	165790	keystroke_s	s	n/a
83.15	0.09	166300	keystroke_Key.enter	Key.enter	n/a
83.248	7.5555	166496	prompt	n/a	alexander armor debt predicted\n
83.96	0.12	167920	keystroke_a	a	n/a
84.17	0.12	168340	keystroke_l	l	n/a
84.245	0.06	168490	keystroke_e	e	n/a
84.47	0.105	168940	keystroke_x	x	n/a
84.68	0.12	169360	keystroke_a	a	n/a
84.861	0.089	169722	keystroke_n	n	n/a
85.085	0.075	170170	keystroke_d	d	n/a
85.295	0.195	170590	keystroke_e	e	n/a
85.506	0.105	171012	keystroke_r	r	n/a
85.655	0.12	171310	keystroke_Key.space	Key.space	n/a
86.226	0.119	172452	keystroke_a	a	n/a
86.495	0.106	172990	keystroke_r	r	n/a
86.66	0.09	173320	keystroke_m	m	n/a
86.81	0.105	173620	keystroke_o	o	n/a
86.975	0.15	173950	keystroke_r	r	n/a
87.095	0.09	174190	keystroke_Key.space	Key.space	n/a
87.365	0.075	174730	keystroke_d	d	n/a
87.545	0.09	175090	keystroke_e	e	n/a
87.965	0.09	175930	keystroke_b	b	n/a
88.28	0.105	176560	keystroke_t	t	n/a
88.49	0.105	176980	keystroke_Key.space	Key.space	n/a
88.925	0.075	177850	keystroke_p	p	n/a
89.075	0.18	178150	keystroke_r	r	n/a
89.18	0.12	178360	keystroke_e	e	n/a
89.69	0.09	179380	keystroke_d	d	n/a
89.825	0.105	179650	keystroke_i	i	n/a
89.975	0.09	179950	keystroke_c	c	n/a
90.155	0.165	180310	keystroke_t	t	n/a
90.231	0.134	180462	keystroke_e	e	n/a
90.47	0.105	180940	keystroke_d	d	n/a
90.74	0.06	181480	keystroke_Key.enter	Key.enter	n/a
90.8115	9.3215	181623	prompt	n/a	creek reef governing discharge\n
91.67	0.091	183340	keystroke_c	c	n/a
91.91	0.135	183820	keystroke_r	r	n/a
92.15	0.06	184300	keystroke_e	e	n/a
92.33	0.091	184660	keystroke_e	e	n/a
92.495	0.09	184990	keystroke_k	k	n/a
92.63	0.12	185260	keystroke_Key.space	Key.space	n/a
92.871	0.12	185742	keystroke_r	r	n/a
93.065	0.076	186130	keystroke_e	e	n/a
93.231	0.089	186462	keystroke_e	e	n/a
93.425	0.105	186850	keystroke_f	f	n/a
93.56	0.09	187120	keystroke_Key.space	Key.space	n/a
93.785	0.135	187570	keystroke_v	v	n/a
94.91	0.12	189820	keystroke_Key.backspace	Key.backspace	n/a
95.12	0.105	190240	keystroke_g	g	n/a
95.511	0.104	191022	keystroke_o	o	n/a
95.721	0.09	191442	keystroke_v	v	n/a
95.915	0.196	191830	keystroke_e	e	n/a
96.29	0.12	192580	keystroke_r	r	n/a
96.68	0.061	193360	keystroke_n	n	n/a
96.816	0.134	193632	keystroke_i	i	n/a
96.935	0.075	193870	keystroke_n	n	n/a
97.07	0.121	194140	keystroke_g	g	n/a
97.175	0.12	194350	keystroke_Key.space	Key.space	n/a
97.595	0.105	195190	keystroke_d	d	n/a
97.731	0.09	195462	keystroke_i	i	n/a
97.85	0.121	195700	keystroke_s	s	n/a
98.42	0.136	196840	keystroke_c	c	n/a
98.601	0.074	197202	keystroke_h	h	n/a
98.706	0.18	197412	keystroke_a	a	n/a
98.856	0.119	197712	keystroke_r	r	n/a
99.125	0.165	198250	keystroke_g	g	n/a
99.246	0.12	198492	keystroke_e	e	n/a
100.04	0.09	200080	keystroke_Key.enter	Key.enter	n/a
100.1375	9.6415	200275	prompt	n/a	quad contacts grades brochures\n
101.061	0.104	202122	keystroke_q	q	n/a
101.181	0.075	202362	keystroke_u	u	n/a
101.345	0.136	202690	keystroke_a	a	n/a
101.811	0.12	203622	keystroke_d	d	n/a
101.96	0.12	203920	keystroke_Key.space	Key.space	n/a
102.216	0.134	204432	keystroke_c	c	n/a
102.321	0.104	204642	keystroke_o	o	n/a
102.44	0.091	204880	keystroke_n	n	n/a
102.561	0.24	205122	keystroke_t	t	n/a
102.906	0.135	205812	keystroke_a	a	n/a
103.221	0.18	206442	keystroke_c	c	n/a
103.386	0.135	206772	keystroke_t	t	n/a
103.685	0.121	207370	keystroke_s	s	n/a
103.82	0.165	207640	keystroke_Key.space	Key.space	n/a
104.15	0.091	208300	keystroke_g	g	n/a
104.571	0.12	209142	keystroke_r	r	n/a
104.751	0.135	209502	keystroke_a	a	n/a
105.306	0.09	210612	keystroke_d	d	n/a
105.516	0.075	211032	keystroke_e	e	n/a
105.816	0.135	211632	keystroke_s	s	n/a
105.981	0.135	211962	keystroke_Key.space	Key.space	n/a
106.371	0.075	212742	keystroke_b	b	n/a
106.716	0.12	213432	keystroke_r	r	n/a
106.896	0.1045	213792	keystroke_o	o	n/a
107.8405	0.135	215681	keystroke_c	c	n/a
107.9605	0.06	215921	keystroke_h	h	n/a
108.3655	0.075	216731	keystroke_u	u	n/a
108.531	0.1495	217062	keystroke_r	r	n/a
108.621	0.1195	217242	keystroke_e	e	n/a
108.8605	0.12	217721	keystroke_s	s	n/a
109.6705	0.1055	219341	keystroke_Key.enter	Key.enter	n/a
109.7855	7.687	219571	prompt	n/a	pond plaintiff raises openings\n
110.4655	0.09	220931	keystroke_p	p	n/a
110.6605	0.105	221321	keystroke_o	o	n/a
110.8105	0.09	221621	keystroke_n	n	n/a
111.2305	0.09	222461	keystroke_d	d	n/a
111.3795	0.136	222759	keystroke_Key.space	Key.space	n/a
111.8905	0.075	223781	keystroke_p	p	n/a
112.1005	0.09	224201	keystroke_l	l	n/a
112.2205	0.12	224441	keystroke_a	a	n/a
112.4455	0.15	224891	keystroke_i	i	n/a
112.5355	0.105	225071	keystroke_n	n	n/a
112.9705	0.135	225941	keystroke_t	t	n/a
113.1205	0.09	226241	keystroke_i	i	n/a
113.4805	0.06	226961	keystroke_f	f	n/a
113.6155	0.075	227231	keystroke_f	f	n/a
113.7505	0.119	227501	keystroke_Key.space	Key.space	n/a
114.2305	0.135	228461	keystroke_r	r	n/a
114.3805	0.15	228761	keystroke_a	a	n/a
114.5755	0.09	229151	keystroke_i	i	n/a
114.6805	0.18	229361	keystroke_s	s	n/a
114.8755	0.12	229751	keystroke_e	e	n/a
115.1005	0.165	230201	keystroke_s	s	n/a
115.2505	0.135	230501	keystroke_Key.space	Key.space	n/a
115.5955	0.105	231191	keystroke_o	o	n/a
115.8055	0.12	231611	keystroke_p	p	n/a
116.1355	0.09	232271	keystroke_e	e	n/a
116.5105	0.06	233021	keystroke_n	n	n/a
116.6605	0.12	233321	keystroke_i	i	n/a
116.7505	0.105	233501	keystroke_n	n	n/a
116.8855	0.105	233771	keystroke_g	g	n/a
117.0655	0.12	234131	keystroke_s	s	n/a
117.3805	0.09	234761	keystroke_Key.enter	Key.enter	n/a
117.4765	6.1015	234953	prompt	n/a	rank palmer having councils\n
118.2505	0.15	236501	keystroke_r	r	n/a
118.3555	0.165	236711	keystroke_a	a	n/a
118.4905	0.09	236981	keystroke_n	n	n/a
118.8355	0.075	237671	keystroke_k	k	n/a
119.0005	0.12	238001	keystroke_Key.space	Key.space	n/a
119.2405	0.12	238481	keystroke_p	p	n/a
119.5855	0.12	239171	keystroke_a	a	n/a
119.6905	0.105	239381	keystroke_l	l	n/a
119.9755	0.075	239951	keystroke_m	m	n/a
120.1555	0.12	240311	keystroke_e	e	n/a
120.2455	0.12	240491	keystroke_r	r	n/a
120.4705	0.105	240941	keystroke_Key.space	Key.space	n/a
120.6505	0.075	241301	keystroke_h	h	n/a
120.7555	0.135	241511	keystroke_a	a	n/a
120.9805	0.09	241961	keystroke_v	v	n/a
121.1005	0.12	242201	keystroke_i	i	n/a
121.1755	0.105	242351	keystroke_n	n	n/a
121.2815	0.119	242563	keystroke_g	g	n/a
121.3705	0.105	242741	keystroke_Key.space	Key.space	n/a
121.7005	0.105	243401	keystroke_c	c	n/a
121.8805	0.12	243761	keystroke_o	o	n/a
122.1505	0.06	244301	keystroke_u	u	n/a
122.3755	0.075	244751	keystroke_n	n	n/a
122.6905	0.135	245381	keystroke_c	c	n/a
122.8255	0.075	245651	keystroke_i	i	n/a
123.0355	0.105	246071	keystroke_l	l	n/a
123.1705	0.105	246341	keystroke_s	s	n/a
123.4855	0.09	246971	keystroke_Key.enter	Key.enter	n/a
123.5835	11.484	247167	prompt	n/a	occurred stranger momentum fighter\n
124.2955	0.105	248591	keystroke_c	c	n/a
125.0755	0.075	250151	keystroke_Key.backspace	Key.backspace	n/a
125.3455	0.105	250691	keystroke_o	o	n/a
125.5855	0.09	251171	keystroke_c	c	n/a
125.7505	0.105	251501	keystroke_c	c	n/a
125.9005	0.075	251801	keystroke_u	u	n/a
126.0655	0.12	252131	keystroke_r	r	n/a
126.2905	0.09	252581	keystroke_r	r	n/a
126.4405	0.09	252881	keystroke_e	e	n/a
126.6805	0.075	253361	keystroke_d	d	n/a
126.8005	0.165	253601	keystroke_Key.space	Key.space	n/a
127.4455	0.09	254891	keystroke_s	s	n/a
127.6105	0.135	255221	keystroke_t	t	n/a
127.9855	0.135	255971	keystroke_r	r	n/a
128.0755	0.165	256151	keystroke_a	a	n/a
128.3005	0.09	256601	keystroke_n	n	n/a
128.4355	0.105	256871	keystroke_g	g	n/a
128.5855	0.225	257171	keystroke_e	e	n/a
128.7505	0.135	257501	keystroke_r	r	n/a
129.3355	0.12	258671	keystroke_Key.space	Key.space	n/a
129.6205	0.09	259241	keystroke_m	m	n/a
129.7855	0.105	259571	keystroke_o	o	n/a
129.9205	0.105	259841	keystroke_m	m	n/a
130.0405	0.105	260081	keystroke_e	e	n/a
130.2205	0.075	260441	keystroke_n	n	n/a
130.3705	0.105	260741	keystroke_t	t	n/a
131.2255	0.06	262451	keystroke_u	u	n/a
131.4205	0.075	262841	keystroke_m	m	n/a
132.0505	0.105	264101	keystroke_Key.space	Key.space	n/a
132.2605	0.105	264521	keystroke_f	f	n/a
132.3805	0.09	264761	keystroke_i	i	n/a
133.3855	0.09	266771	keystroke_g	g	n/a
133.6705	0.09	267341	keystroke_h	h	n/a
133.8355	0.09	267671	keystroke_t	t	n/a
134.1805	0.15	268361	keystroke_e	e	n/a
134.3155	0.09	268631	keystroke_r	r	n/a
134.9455	0.12	269891	keystroke_Key.enter	Key.enter	n/a
135.073	6.639	270146	prompt	n/a	shareware shade mandate present\n
136.0105	0.135	272021	keystroke_s	s	n/a
136.1605	0.06	272321	keystroke_h	h	n/a
136.3105	0.15	272621	keystroke_a	a	n/a
136.5055	0.15	273011	keystroke_r	r	n/a
136.6105	0.105	273221	keystroke_e	e	n/a
136.8805	0.09	273761	keystroke_w	w	n/a
137.0905	0.15	274181	keystroke_a	a	n/a
137.2705	0.15	274541	keystroke_r	r	n/a
137.3905	0.12	274781	keystroke_e	e	n/a
137.5855	0.12	275171	keystroke_Key.space	Key.space	n/a
137.8105	0.105	275621	keystroke_s	s	n/a
137.9305	0.075	275861	keystroke_h	h	n/a
138.0205	0.12	276041	keystroke_a	a	n/a
138.2455	0.06	276491	keystroke_d	d	n/a
138.4405	0.09	276881	keystroke_e	e	n/a
138.5605	0.105	277121	keystroke_Key.space	Key.space	n/a
138.8155	0.09	277631	keystroke_m	m	n/a
138.9355	0.12	277871	keystroke_a	a	n/a
139.0855	0.06	278171	keystroke_n	n	n/a
139.2805	0.09	278561	keystroke_d	d	n/a
139.4155	0.135	278831	keystroke_a	a	n/a
139.58	0.0905	279160	keystroke_t	t	n/a
139.6405	0.12	279281	keystroke_e	e	n/a
139.88	0.0905	279760	keystroke_Key.space	Key.space	n/a
140.4505	0.0895	280901	keystroke_p	p	n/a
140.63	0.18	281260	keystroke_r	r	n/a
140.735	0.1055	281470	keystroke_e	e	n/a
141.005	0.12	282010	keystroke_s	s	n/a
141.1555	0.1345	282311	keystroke_e	e	n/a
141.305	0.105	282610	keystroke_n	n	n/a
141.4405	0.1195	282881	keystroke_t	t	n/a
141.59	0.12	283180	keystroke_Key.enter	Key.enter	n/a
141.7175	8.0945	283435	prompt	n/a	dodge announced electronic traffic\n
142.5205	0.1345	285041	keystroke_d	d	n/a
142.745	0.105	285490	keystroke_o	o	n/a
142.925	0.12	285850	keystroke_d	d	n/a
143.3	0.135	286600	keystroke_g	g	n/a
144.155	0.105	288310	keystroke_e	e	n/a
144.38	0.135	288760	keystroke_Key.space	Key.space	n/a
144.605	0.135	289210	keystroke_a	a	n/a
144.83	0.06	289660	keystroke_n	n	n/a
144.995	0.06	289990	keystroke_n	n	n/a
145.115	0.12	290230	keystroke_o	o	n/a
145.22	0.075	290440	keystroke_u	u	n/a
145.415	0.09	290830	keystroke_n	n	n/a
145.52	0.075	291040	keystroke_c	c	n/a
145.7	0.06	291400	keystroke_e	e	n/a
145.925	0.105	291850	keystroke_d	d	n/a
146.075	0.12	292150	keystroke_Key.space	Key.space	n/a
146.3	0.105	292600	keystroke_e	e	n/a
146.465	0.105	292930	keystroke_l	l	n/a
146.525	0.075	293050	keystroke_e	e	n/a
146.75	0.135	293500	keystroke_c	c	n/a
146.93	0.12	293860	keystroke_t	t	n/a
147.2	0.105	294400	keystroke_r	r	n/a
147.32	0.105	294640	keystroke_o	o	n/a
147.515	0.075	295030	keystroke_n	n	n/a
147.65	0.105	295300	keystroke_i	i	n/a
147.785	0.105	295570	keystroke_c	c	n/a
147.92	0.12	295840	keystroke_Key.space	Key.space	n/a
148.13	0.075	296260	keystroke_t	t	n/a
148.295	0.12	296590	keystroke_r	r	n/a
148.385	0.15	296770	keystroke_a	a	n/a
148.82	0.06	297640	keystroke_f	f	n/a
148.955	0.075	297910	keystroke_f	f	n/a
149.09	0.09	298180	keystroke_i	i	n/a
149.21	0.075	298420	keystroke_c	c	n/a
149.735	0.075	299470	keystroke_Key.enter	Key.enter	n/a
149.816	7.093	299632	prompt	n/a	lamb psychology paperbacks claims\n
150.575	0.105	301150	keystroke_l	l	n/a
150.83	0.12	301660	keystroke_a	a	n/a
150.935	0.045	301870	keystroke_m	m	n/a
151.145	0.045	302290	keystroke_b	b	n/a
151.325	0.105	302650	keystroke_Key.space	Key.space	n/a
151.595	0.075	303190	keystroke_p	p	n/a
151.805	0.105	303610	keystroke_s	s	n/a
151.88	0.075	303760	keystroke_y	y	n/a
152.24	0.12	304480	keystroke_c	c	n/a
152.33	0.06	304660	keystroke_h	h	n/a
152.465	0.06	304930	keystroke_o	o	n/a
152.615	0.075	305230	keystroke_l	l	n/a
152.87	0.015	305740	keystroke_o	o	n/a
152.9	0.09	305800	keystroke_g	g	n/a
153.02	0.06	306040	keystroke_y	y	n/a
153.14	0.12	306280	keystroke_Key.space	Key.space	n/a
153.275	0.12	306550	keystroke_p	p	n/a
153.68	0.12	307360	keystroke_a	a	n/a
153.905	0.105	307810	keystroke_p	p	n/a
154.1	0.135	308200	keystroke_e	e	n/a
154.34	0.105	308680	keystroke_r	r	n/a
154.82	0.075	309640	keystroke_b	b	n/a
154.925	0.12	309850	keystroke_a	a	n/a
155.18	0.12	310360	keystroke_c	c	n/a
155.301	0.074	310602	keystroke_k	k	n/a
155.435	0.105	310870	keystroke_s	s	n/a
155.645	0.12	311290	keystroke_Key.space	Key.space	n/a
155.826	0.134	311652	keystroke_c	c	n/a
155.945	0.105	311890	keystroke_l	l	n/a
156.08	0.135	312160	keystroke_a	a	n/a
156.23	0.06	312460	keystroke_i	i	n/a
156.38	0.06	312760	keystroke_m	m	n/a
156.62	0.105	313240	keystroke_s	s	n/a
156.8	0.105	313600	keystroke_Key.enter	Key.enter	n/a
156.9145	8.8895	313829	prompt	n/a	frame plots realm accreditation\n
157.52	0.09	315040	keystroke_f	f	n/a
157.73	0.121	315460	keystroke_r	r	n/a
157.835	0.135	315670	keystroke_a	a	n/a
157.955	0.105	315910	keystroke_m	m	n/a
158.105	0.12	316210	keystroke_e	e	n/a
158.24	0.105	316480	keystroke_Key.space	Key.space	n/a
158.57	0.075	317140	keystroke_p	p	n/a
158.78	0.075	317560	keystroke_l	l	n/a
158.93	0.105	317860	keystroke_o	o	n/a
159.05	0.135	318100	keystroke_t	t	n/a
159.26	0.15	318520	keystroke_s	s	n/a
159.395	0.09	318790	keystroke_Key.space	Key.space	n/a
159.62	0.135	319240	keystroke_r	r	n/a
159.68	0.225	319360	keystroke_e	e	n/a
160.175	0.15	320350	keystroke_a	a	n/a
160.49	0.105	320980	keystroke_l	l	n/a
160.715	0.09	321430	keystroke_m	m	n/a
161.015	0.015	322030	keystroke_Key.space	Key.space	n/a
161.166	0.044	322332	keystroke_s	s	n/a
162.005	0.09	324010	keystroke_Key.backspace	Key.backspace	n/a
162.171	0.149	324342	keystroke_a	a	n/a
162.575	0.06	325150	keystroke_c	c	n/a
162.71	0.075	325420	keystroke_c	c	n/a
162.935	0.105	325870	keystroke_e	e	n/a
163.64	0.09	327280	keystroke_Key.backspace	Key.backspace	n/a
163.821	0.119	327642	keystroke_r	r	n/a
163.88	0.135	327760	keystroke_e	e	n/a
164.54	0.091	329080	keystroke_d	d	n/a
164.645	0.09	329290	keystroke_i	i	n/a
164.826	0.089	329652	keystroke_t	t	n/a
164.961	0.134	329922	keystroke_a	a	n/a
165.05	0.136	330100	keystroke_t	t	n/a
165.231	0.074	330462	keystroke_i	i	n/a
165.365	0.15	330730	keystroke_o	o	n/a
165.47	0.091	330940	keystroke_n	n	n/a
165.725	0.075	331450	keystroke_Key.enter	Key.enter	n/a
165.81	7.042	331620	prompt	n/a	decreased scanning fails papers\n
166.7005	0.105	333401	keystroke_d	d	n/a
166.8955	0.06	333791	keystroke_e	e	n/a
167.1505	0.105	334301	keystroke_c	c	n/a
167.3915	0.179	334783	keystroke_r	r	n/a
167.4955	0.165	334991	keystroke_e	e	n/a
167.7355	0.135	335471	keystroke_a	a	n/a
167.9305	0.165	335861	keystroke_s	s	n/a
168.0655	0.09	336131	keystroke_e	e	n/a
168.2755	0.12	336551	keystroke_d	d	n/a
168.4255	0.135	336851	keystroke_Key.space	Key.space	n/a
168.7405	0.105	337481	keystroke_s	s	n/a
168.9655	0.15	337931	keystroke_c	c	n/a
169.0855	0.165	338171	keystroke_a	a	n/a
169.2655	0.075	338531	keystroke_n	n	n/a
169.4455	0.06	338891	keystroke_n	n	n/a
169.6105	0.075	339221	keystroke_i	i	n/a
169.7155	0.09	339431	keystroke_n	n	n/a
169.8065	0.149	339613	keystroke_g	g	n/a
169.9105	0.135	339821	keystroke_Key.space	Key.space	n/a
170.1955	0.12	340391	keystroke_f	f	n/a
170.7505	0.15	341501	keystroke_a	a	n/a
170.8855	0.06	341771	keystroke_i	i	n/a
171.0505	0.09	342101	keystroke_l	l	n/a
171.1855	0.135	342371	keystroke_s	s	n/a
171.3355	0.09	342671	keystroke_Key.space	Key.space	n/a
171.5005	0.105	343001	keystroke_p	p	n/a
171.6355	0.135	343271	keystroke_a	a	n/a
171.8005	0.12	343601	keystroke_p	p	n/a
171.9505	0.195	343901	keystroke_e	e	n/a
172.2055	0.105	344411	keystroke_r	r	n/a
172.5055	0.105	345011	keystroke_s	s	n/a
172.7755	0.075	345551	keystroke_Key.enter	Key.enter	n/a
172.8585	6.03	345717	prompt	n/a	triumph least hanging passport\n
173.6005	0.075	347201	keystroke_t	t	n/a
173.8105	0.075	347621	keystroke_r	r	n/a
173.9155	0.09	347831	keystroke_i	i	n/a
174.1105	0.045	348221	keystroke_u	u	n/a
174.3055	0.09	348611	keystroke_m	m	n/a
174.5155	0.09	349031	keystroke_p	p	n/a
174.7105	0.06	349421	keystroke_h	h	n/a
174.9205	0.105	349841	keystroke_Key.space	Key.space	n/a
175.0855	0.105	350171	keystroke_l	l	n/a
175.2055	0.12	350411	keystroke_e	e	n/a
175.43	0.106	350860	keystroke_a	a	n/a
175.61	0.15	351220	keystroke_s	s	n/a
175.805	0.15	351610	keystroke_t	t	n/a
175.94	0.09	351880	keystroke_Key.space	Key.space	n/a
176.09	0.075	352180	keystroke_h	h	n/a
176.21	0.15	352420	keystroke_a	a	n/a
176.361	0.074	352722	keystroke_n	n	n/a
176.48	0.105	352960	keystroke_g	g	n/a
176.57	0.12	353140	keystroke_i	i	n/a
176.645	0.106	353290	keystroke_n	n	n/a
176.751	0.119	353502	keystroke_g	g	n/a
176.855	0.09	353710	keystroke_Key.space	Key.space	n/a
176.96	0.105	353920	keystroke_p	p	n/a
177.11	0.105	354220	keystroke_a	a	n/a
177.35	0.06	354700	keystroke_s	s	n/a
177.515	0.106	355030	keystroke_s	s	n/a
177.605	0.105	355210	keystroke_p	p	n/a
177.8	0.106	355600	keystroke_o	o	n/a
177.935	0.121	355870	keystroke_r	r	n/a
178.205	0.0895	356410	keystroke_t	t	n/a
178.8045	0.075	357609	keystroke_Key.enter	Key.enter	n/a
178.8885	10.299	357777	prompt	n/a	locally gzip mobile wales\n
179.6005	0.119	359201	keystroke_l	l	n/a
179.7495	0.105	359499	keystroke_a	a	n/a
180.4845	0.075	360969	keystroke_Key.backspace	Key.backspace	n/a
180.7845	0.09	361569	keystroke_o	o	n/a
181.0555	0.149	362111	keystroke_c	c	n/a
181.1755	0.134	362351	keystroke_a	a	n/a
181.3555	0.029	362711	keystroke_l	l	n/a
181.4605	0.075	362921	keystroke_l	l	n/a
181.6405	0.06	363281	keystroke_y	y	n/a
181.7595	0.09	363519	keystroke_Key.space	Key.space	n/a
181.9845	0.091	363969	keystroke_g	g	n/a
182.0905	0.09	364181	keystroke_i	i	n/a
183.0505	0.074	366101	keystroke_Key.backspace	Key.backspace	n/a
183.2455	0.135	366491	keystroke_z	z	n/a
184.4905	0.06	368981	keystroke_i	i	n/a
184.6555	0.075	369311	keystroke_p	p	n/a
184.9105	0.119	369821	keystroke_Key.space	Key.space	n/a
186.5445	0.091	373089	keystroke_m	m	n/a
186.6955	0.09	373391	keystroke_o	o	n/a
186.9655	0.06	373931	keystroke_b	b	n/a
187.1145	0.076	374229	keystroke_i	i	n/a
187.2805	0.104	374561	keystroke_l	l	n/a
187.4305	0.105	374861	keystroke_e	e	n/a
187.5645	0.12	375129	keystroke_Key.space	Key.space	n/a
188.2395	0.061	376479	keystroke_w	w	n/a
188.4355	0.15	376871	keystroke_a	a	n/a
188.5695	0.106	377139	keystroke_l	l	n/a
188.6605	0.105	377321	keystroke_e	e	n/a
188.8405	0.135	377681	keystroke_s	s	n/a
189.0945	0.091	378189	keystroke_Key.enter	Key.enter	n/a
189.1925	13.6155	378385	prompt	n/a	manitoba madness automobile ieee\n
190.1155	0.074	380231	keystroke_m	m	n/a
190.2495	0.121	380499	keystroke_a	a	n/a
190.3855	0.075	380771	keystroke_n	n	n/a
190.5055	0.119	381011	keystroke_i	i	n/a
190.6695	0.121	381339	keystroke_t	t	n/a
190.7605	0.104	381521	keystroke_o	o	n/a
190.9855	0.075	381971	keystroke_b	b	n/a
191.0895	0.151	382179	keystroke_a	a	n/a
191.6745	0.121	383349	keystroke_Key.space	Key.space	n/a
191.8855	0.105	383771	keystroke_m	m	n/a
192.5005	0.134	385001	keystroke_a	a	n/a
192.7395	0.136	385479	keystroke_d	d	n/a
193.0255	0.075	386051	keystroke_n	n	n/a
193.2055	0.075	386411	keystroke_e	e	n/a
193.4605	0.075	386921	keystroke_s	s	n/a
193.6405	0.09	387281	keystroke_s	s	n/a
194.3455	0.12	388691	keystroke_Key.space	Key.space	n/a
195.9805	0.15	391961	keystroke_a	a	n/a
196.2055	0.12	392411	keystroke_t	t	n/a
196.3405	0.06	392681	keystroke_u	u	n/a
197.6905	0.09	395381	keystroke_Key.backspace	Key.backspace	n/a
197.8855	0.09	395771	keystroke_Key.backspace	Key.backspace	n/a
198.1105	0.06	396221	keystroke_u	u	n/a
198.3055	0.075	396611	keystroke_t	t	n/a
198.4855	0.09	396971	keystroke_o	o	n/a
199.5655	0.075	399131	keystroke_m	m	n/a
199.6555	0.09	399311	keystroke_o	o	n/a
199.8505	0.06	399701	keystroke_b	b	n/a
200.0305	0.06	400061	keystroke_i	i	n/a
200.1955	0.09	400391	keystroke_l	l	n/a
200.3005	0.105	400601	keystroke_e	e	n/a
200.4505	0.089	400901	keystroke_Key.space	Key.space	n/a
201.1555	0.09	402311	keystroke_i	i	n/a
201.3655	0.06	402731	keystroke_e	e	n/a
201.5155	0.06	403031	keystroke_e	e	n/a
201.6805	0.06	403361	keystroke_e	e	n/a
201.8455	0.06	403691	keystroke_e	e	n/a
202.4455	0.075	404891	keystroke_Key.backspace	Key.backspace	n/a
202.7305	0.075	405461	keystroke_Key.enter	Key.enter	n/a
202.8165	12.396	405633	prompt	n/a	gourmet lasting eight customized\n
203.6605	0.09	407321	keystroke_g	g	n/a
203.7955	0.105	407591	keystroke_o	o	n/a
203.8855	0.09	407771	keystroke_u	u	n/a
204.0055	0.12	408011	keystroke_r	r	n/a
204.56	0.09	409120	keystroke_m	m	n/a
204.665	0.09	409330	keystroke_e	e	n/a
205.1155	0.0745	410231	keystroke_t	t	n/a
205.355	0.12	410710	keystroke_Key.space	Key.space	n/a
205.655	0.12	411310	keystroke_l	l	n/a
205.8205	0.1045	411641	keystroke_a	a	n/a
206.045	0.1055	412090	keystroke_s	s	n/a
206.255	0.075	412510	keystroke_t	t	n/a
206.36	0.135	412720	keystroke_i	i	n/a
206.45	0.0905	412900	keystroke_n	n	n/a
206.705	0.12	413410	keystroke_g	g	n/a
207.08	0.12	414160	keystroke_Key.space	Key.space	n/a
207.455	0.09	414910	keystroke_e	e	n/a
207.6655	0.0895	415331	keystroke_i	i	n/a
207.77	0.0755	415540	keystroke_t	t	n/a
207.89	0.075	415780	keystroke_h	h	n/a
208.745	0.015	417490	keystroke_Key.backspace	Key.backspace	n/a
208.97	0.1205	417940	keystroke_Key.backspace	Key.backspace	n/a
209.4955	0.0895	418991	keystroke_g	g	n/a
209.6155	0.0745	419231	keystroke_h	h	n/a
209.765	0.105	419530	keystroke_t	t	n/a
210.59	0.1055	421180	keystroke_Key.space	Key.space	n/a
210.92	0.09	421840	keystroke_c	c	n/a
211.04	0.075	422080	keystroke_u	u	n/a
211.235	0.09	422470	keystroke_s	s	n/a
211.415	0.105	422830	keystroke_t	t	n/a
211.58	0.135	423160	keystroke_o	o	n/a
212.69	0.09	425380	keystroke_m	m	n/a
212.84	0.135	425680	keystroke_i	i	n/a
213.065	0.18	426130	keystroke_z	z	n/a
213.23	0.09	426460	keystroke_e	e	n/a
213.4405	0.1045	426881	keystroke_d	d	n/a
215.0895	0.12	430179	keystroke_Key.enter	Key.enter	n/a
215.22	7.0725	430440	prompt	n/a	differential lives elections dirty\n
215.9005	0.089	431801	keystroke_d	d	n/a
216.0045	0.09	432009	keystroke_i	i	n/a
216.4255	0.075	432851	keystroke_f	f	n/a
216.5745	0.076	433149	keystroke_f	f	n/a
216.9655	0.089	433931	keystroke_e	e	n/a
217.1745	0.151	434349	keystroke_r	r	n/a
217.2955	0.104	434591	keystroke_e	e	n/a
217.4445	0.105	434889	keystroke_n	n	n/a
217.5805	0.134	435161	keystroke_t	t	n/a
217.6995	0.075	435399	keystroke_i	i	n/a
217.7905	0.164	435581	keystroke_a	a	n/a
217.9095	0.105	435819	keystroke_l	l	n/a
218.0295	0.105	436059	keystroke_Key.space	Key.space	n/a
218.1645	0.06	436329	keystroke_l	l	n/a
218.2095	0.106	436419	keystroke_i	i	n/a
218.3895	0.15	436779	keystroke_v	v	n/a
218.5105	0.119	437021	keystroke_e	e	n/a
218.7195	0.15	437439	keystroke_s	s	n/a
218.8545	0.105	437709	keystroke_Key.space	Key.space	n/a
219.1095	0.151	438219	keystroke_e	e	n/a
219.3805	0.089	438761	keystroke_l	l	n/a
219.6055	0.059	439211	keystroke_e	e	n/a
219.8455	0.104	439691	keystroke_c	c	n/a
220.0245	0.135	440049	keystroke_t	t	n/a
220.1745	0.09	440349	keystroke_i	i	n/a
220.3395	0.166	440679	keystroke_o	o	n/a
220.4445	0.12	440889	keystroke_n	n	n/a
220.5945	0.15	441189	keystroke_s	s	n/a
221.0445	0.12	442089	keystroke_Key.space	Key.space	n/a
221.2705	0.105	442541	keystroke_d	d	n/a
221.3905	0.104	442781	keystroke_i	i	n/a
221.5105	0.104	443021	keystroke_r	r	n/a
221.8095	0.09	443619	keystroke_t	t	n/a
221.9905	0.06	443981	keystroke_y	y	n/a
222.1995	0.09	444399	keystroke_Key.enter	Key.enter	n/a
222.3005	7.7615	444601	prompt	n/a	markets program tactics innovative\n
222.9805	0.09	445961	keystroke_m	m	n/a
223.1895	0.136	446379	keystroke_a	a	n/a
223.5955	0.104	447191	keystroke_r	r	n/a
223.7895	0.105	447579	keystroke_k	k	n/a
223.9395	0.106	447879	keystroke_e	e	n/a
224.1055	0.104	448211	keystroke_t	t	n/a
224.3155	0.134	448631	keystroke_s	s	n/a
224.4345	0.12	448869	keystroke_Key.space	Key.space	n/a
224.5995	0.106	449199	keystroke_p	p	n/a
224.7645	0.12	449529	keystroke_r	r	n/a
224.8545	0.105	449709	keystroke_o	o	n/a
225.0495	0.061	450099	keystroke_g	g	n/a
225.2145	0.106	450429	keystroke_r	r	n/a
225.3055	0.15	450611	keystroke_a	a	n/a
225.4555	0.074	450911	keystroke_m	m	n/a
225.5895	0.165	451179	keystroke_Key.space	Key.space	n/a
226.1595	0.09	452319	keystroke_t	t	n/a
226.2805	0.119	452561	keystroke_a	a	n/a
226.5205	0.089	453041	keystroke_c	c	n/a
226.7295	0.091	453459	keystroke_t	t	n/a
226.8345	0.105	453669	keystroke_i	i	n/a
226.9855	0.104	453971	keystroke_c	c	n/a
227.8395	0.105	455679	keystroke_s	s	n/a
227.9595	0.105	455919	keystroke_Key.space	Key.space	n/a
228.2445	0.076	456489	keystroke_i	i	n/a
228.4705	0.075	456941	keystroke_n	n	n/a
228.6195	0.06	457239	keystroke_n	n	n/a
228.7405	0.119	457481	keystroke_o	o	n/a
228.8895	0.12	457779	keystroke_v	v	n/a
229.0105	0.18	458021	keystroke_a	a	n/a
229.2045	0.121	458409	keystroke_t	t	n/a
229.3705	0.075	458741	keystroke_i	i	n/a
229.5345	0.136	459069	keystroke_v	v	n/a
229.6255	0.15	459251	keystroke_e	e	n/a
229.9545	0.105	459909	keystroke_Key.enter	Key.enter	n/a
230.067	10.4645	460134	prompt	n/a	undefined acrylic casio lovely\n
230.7655	0.045	461531	keystroke_u	u	n/a
230.9595	0.061	461919	keystroke_n	n	n/a
231.0805	0.074	462161	keystroke_d	d	n/a
231.3055	0.195	462611	keystroke_e	e	n/a
233.7835	0.056	467567	keystroke_f	f	n/a
233.8105	0.075	467621	keystroke_i	i	n/a
233.9455	0.0895	467891	keystroke_n	n	n/a
234.0355	0.06	468071	keystroke_e	e	n/a
234.2305	0.09	468461	keystroke_d	d	n/a
234.3345	0.12	468669	keystroke_Key.space	Key.space	n/a
234.5295	0.121	469059	keystroke_a	a	n/a
234.8005	0.09	469601	keystroke_c	c	n/a
235.0405	0.105	470081	keystroke_r	r	n/a
235.1755	0.06	470351	keystroke_y	y	n/a
235.3845	0.091	470769	keystroke_l	l	n/a
235.5355	0.09	471071	keystroke_i	i	n/a
235.7155	0.09	471431	keystroke_c	c	n/a
235.8195	0.12	471639	keystroke_Key.space	Key.space	n/a
236.0755	0.104	472151	keystroke_c	c	n/a
236.1955	0.134	472391	keystroke_a	a	n/a
236.4055	0.134	472811	keystroke_s	s	n/a
236.8545	0.076	473709	keystroke_i	i	n/a
237.0495	0.09	474099	keystroke_o	o	n/a
237.1705	0.134	474341	keystroke_Key.space	Key.space	n/a
237.5005	0.104	475001	keystroke_l	l	n/a
237.7245	0.076	475449	keystroke_o	o	n/a
237.8455	0.12	475691	keystroke_v	v	n/a
238.2205	0.104	476441	keystroke_e	e	n/a
239.7655	0.074	479531	keystroke_l	l	n/a
239.945	0.075	479890	keystroke_y	y	n/a
240.424	0.105	480848	keystroke_Key.enter	Key.enter	n/a
240.536	7.481	481072	prompt	n/a	extends plenty comm greek\n
241.295	0.06	482590	keystroke_e	e	n/a
241.505	0.12	483010	keystroke_x	x	n/a
241.759	0.136	483518	keystroke_t	t	n/a
241.835	0.119	483670	keystroke_e	e	n/a
242	0.089	484000	keystroke_n	n	n/a
242.091	0.104	484182	keystroke_d	d	n/a
242.6	0.12	485200	keystroke_s	s	n/a
242.735	0.135	485470	keystroke_Key.space	Key.space	n/a
243.02	0.075	486040	keystroke_p	p	n/a
243.26	0.09	486520	keystroke_l	l	n/a
243.995	0.09	487990	keystroke_e	e	n/a
244.13	0.09	488260	keystroke_n	n	n/a
244.25	0.0905	488500	keystroke_t	t	n/a
244.985	0.06	489970	keystroke_y	y	n/a
245.57	0.09	491140	keystroke_Key.space	Key.space	n/a
245.78	0.105	491560	keystroke_c	c	n/a
245.9	0.09	491800	keystroke_o	o	n/a
246.1105	0.0595	492221	keystroke_m	m	n/a
246.245	0.075	492490	keystroke_m	m	n/a
246.47	0.105	492940	keystroke_Key.space	Key.space	n/a
246.68	0.075	493360	keystroke_g	g	n/a
246.89	0.105	493780	keystroke_r	r	n/a
247.1	0.075	494200	keystroke_e	e	n/a
247.25	0.105	494500	keystroke_e	e	n/a
247.445	0.09	494890	keystroke_k	k	n/a
247.91	0.105	495820	keystroke_Key.enter	Key.enter	n/a
248.022	6.385	496044	prompt	n/a	diversity learn blvd robbie\n
249.2	0.105	498400	keystroke_d	d	n/a
249.29	0.09	498580	keystroke_i	i	n/a
249.425	0.105	498850	keystroke_v	v	n/a
249.59	0.21	499180	keystroke_e	e	n/a
249.755	0.105	499510	keystroke_r	r	n/a
249.98	0.105	499960	keystroke_s	s	n/a
250.055	0.09	500110	keystroke_i	i	n/a
250.16	0.12	500320	keystroke_t	t	n/a
250.295	0.045	500590	keystroke_y	y	n/a
250.37	0.135	500740	keystroke_Key.space	Key.space	n/a
250.52	0.09	501040	keystroke_l	l	n/a
250.595	0.165	501190	keystroke_e	e	n/a
250.715	0.18	501430	keystroke_a	a	n/a
251.375	0.105	502750	keystroke_r	r	n/a
251.465	0.09	502930	keystroke_n	n	n/a
251.6	0.135	503200	keystroke_Key.space	Key.space	n/a
251.885	0.075	503770	keystroke_b	b	n/a
252.11	0.105	504220	keystroke_l	l	n/a
252.41	0.12	504820	keystroke_v	v	n/a
252.665	0.09	505330	keystroke_d	d	n/a
252.815	0.105	505630	keystroke_Key.space	Key.space	n/a
253.04	0.135	506080	keystroke_r	r	n/a
253.16	0.09	506320	keystroke_o	o	n/a
253.61	0.045	507220	keystroke_b	b	n/a
253.76	0.06	507520	keystroke_b	b	n/a
253.94	0.105	507880	keystroke_i	i	n/a
254.135	0.09	508270	keystroke_e	e	n/a
254.3	0.105	508600	keystroke_Key.enter	Key.enter	n/a
254.411	6.1155	508822	prompt	n/a	quarterly holiday final authorized\n
255.26	0.12	510520	keystroke_q	q	n/a
255.41	0.06	510820	keystroke_u	u	n/a
255.575	0.195	511150	keystroke_a	a	n/a
255.74	0.105	511480	keystroke_r	r	n/a
255.95	0.09	511900	keystroke_t	t	n/a
256.055	0.15	512110	keystroke_e	e	n/a
256.28	0.12	512560	keystroke_r	r	n/a
256.43	0.09	512860	keystroke_l	l	n/a
256.625	0.06	513250	keystroke_y	y	n/a
256.73	0.135	513460	keystroke_Key.space	Key.space	n/a
256.895	0.09	513790	keystroke_h	h	n/a
257.045	0.09	514090	keystroke_o	o	n/a
257.225	0.075	514450	keystroke_l	l	n/a
257.315	0.12	514630	keystroke_i	i	n/a
257.465	0.135	514930	keystroke_d	d	n/a
257.555	0.165	515110	keystroke_a	a	n/a
257.705	0.075	515410	keystroke_y	y	n/a
257.825	0.105	515650	keystroke_Key.space	Key.space	n/a
258.035	0.12	516070	keystroke_f	f	n/a
258.185	0.075	516370	keystroke_i	i	n/a
258.335	0.075	516670	keystroke_n	n	n/a
258.47	0.12	516940	keystroke_a	a	n/a
258.605	0.09	517210	keystroke_l	l	n/a
258.725	0.09	517450	keystroke_Key.space	Key.space	n/a
258.98	0.12	517960	keystroke_a	a	n/a
259.145	0.075	518290	keystroke_u	u	n/a
259.28	0.105	518560	keystroke_t	t	n/a
259.43	0.075	518860	keystroke_h	h	n/a
259.55	0.105	519100	keystroke_o	o	n/a
259.73	0.12	519460	keystroke_r	r	n/a
259.88	0.075	519760	keystroke_i	i	n/a
259.985	0.12	519970	keystroke_z	z	n/a
260.12	0.09	520240	keystroke_e	e	n/a
260.315	0.12	520630	keystroke_d	d	n/a
260.45	0.075	520900	keystroke_Key.enter	Key.enter	n/a
260.531	10.616	521062	prompt	n/a	drink antigua calgary tractor\n
261.395	0.105	522790	keystroke_d	d	n/a
261.59	0.09	523180	keystroke_r	r	n/a
261.71	0.075	523420	keystroke_i	i	n/a
261.845	0.075	523690	keystroke_n	n	n/a
261.995	0.105	523990	keystroke_k	k	n/a
262.13	0.12	524260	keystroke_Key.space	Key.space	n/a
262.325	0.12	524650	keystroke_a	a	n/a
262.46	0.075	524920	keystroke_n	n	n/a
262.625	0.105	525250	keystroke_i	i	n/a
263.795	0.075	527590	keystroke_=	=	n/a
265.055	0.09	530110	keystroke_Key.backspace	Key.backspace	n/a
265.22	0.09	530440	keystroke_Key.backspace	Key.backspace	n/a
265.73	0.06	531460	keystroke_t	t	n/a
265.865	0.105	531730	keystroke_i	i	n/a
266.315	0.105	532630	keystroke_g	g	n/a
266.435	0.06	532870	keystroke_u	u	n/a
266.555	0.15	533110	keystroke_a	a	n/a
267.125	0.105	534250	keystroke_Key.space	Key.space	n/a
267.365	0.105	534730	keystroke_c	c	n/a
267.755	0.105	535510	keystroke_a	a	n/a
267.935	0.075	535870	keystroke_l	l	n/a
268.22	0.075	536440	keystroke_g	g	n/a
268.34	0.1795	536680	keystroke_a	a	n/a
268.4745	0.12	536949	keystroke_r	r	n/a
268.6095	0.075	537219	keystroke_y	y	n/a
268.7295	0.105	537459	keystroke_Key.space	Key.space	n/a
268.9395	0.09	537879	keystroke_t	t	n/a
269.1195	0.12	538239	keystroke_r	r	n/a
269.2095	0.105	538419	keystroke_a	a	n/a
269.4495	0.165	538899	keystroke_c	c	n/a
270.1095	0.09	540219	keystroke_t	t	n/a
270.2145	0.105	540429	keystroke_o	o	n/a
270.3345	0.075	540669	keystroke_r	r	n/a
271.0395	0.105	542079	keystroke_Key.enter	Key.enter	n/a
271.151	6.2505	542302	prompt	n/a	consortium livestock lips cheese\n
271.8945	0.105	543789	keystroke_c	c	n/a
271.9695	0.09	543939	keystroke_o	o	n/a
272.0895	0.09	544179	keystroke_n	n	n/a
272.4045	0.105	544809	keystroke_s	s	n/a
272.7645	0.105	545529	keystroke_o	o	n/a
272.8395	0.09	545679	keystroke_r	r	n/a
273.0795	0.105	546159	keystroke_t	t	n/a
273.1995	0.09	546399	keystroke_i	i	n/a
273.3495	0.06	546699	keystroke_u	u	n/a
273.5295	0.075	547059	keystroke_m	m	n/a
273.6495	0.12	547299	keystroke_Key.space	Key.space	n/a
273.7995	0.09	547599	keystroke_l	l	n/a
274.0095	0.075	548019	keystroke_i	i	n/a
274.1445	0.105	548289	keystroke_v	v	n/a
274.3395	0.105	548679	keystroke_e	e	n/a
274.5795	0.105	549159	keystroke_s	s	n/a
274.7745	0.09	549549	keystroke_t	t	n/a
274.8795	0.12	549759	keystroke_o	o	n/a
275.0595	0.105	550119	keystroke_c	c	n/a
275.2095	0.09	550419	keystroke_k	k	n/a
275.2845	0.12	550569	keystroke_Key.space	Key.space	n/a
275.4345	0.09	550869	keystroke_l	l	n/a
275.5995	0.075	551199	keystroke_i	i	n/a
275.7945	0.12	551589	keystroke_p	p	n/a
275.9445	0.12	551889	keystroke_s	s	n/a
276.0495	0.105	552099	keystroke_Key.space	Key.space	n/a
276.2445	0.09	552489	keystroke_c	c	n/a
276.3495	0.075	552699	keystroke_h	h	n/a
276.4845	0.06	552969	keystroke_e	e	n/a
276.6345	0.06	553269	keystroke_e	e	n/a
276.8295	0.105	553659	keystroke_s	s	n/a
277.0395	0.105	554079	keystroke_e	e	n/a
277.2795	0.12	554559	keystroke_Key.enter	Key.enter	n/a
277.406	5.2305	554812	prompt	n/a	hard wooden miller file\n
278.0445	0.075	556089	keystroke_h	h	n/a
278.1795	0.195	556359	keystroke_a	a	n/a
278.3295	0.12	556659	keystroke_r	r	n/a
278.8545	0.105	557709	keystroke_d	d	n/a
278.9745	0.09	557949	keystroke_Key.space	Key.space	n/a
279.3045	0.135	558609	keystroke_w	w	n/a
279.5595	0.075	559119	keystroke_o	o	n/a
279.7095	0.09	559419	keystroke_o	o	n/a
279.8005	0.089	559601	keystroke_d	d	n/a
280.0245	0.15	560049	keystroke_e	e	n/a
280.3245	0.075	560649	keystroke_n	n	n/a
280.4745	0.12	560949	keystroke_Key.space	Key.space	n/a
280.7595	0.075	561519	keystroke_m	m	n/a
280.9395	0.075	561879	keystroke_i	i	n/a
281.1345	0.06	562269	keystroke_l	l	n/a
281.2995	0.09	562599	keystroke_l	l	n/a
281.4645	0.195	562929	keystroke_e	e	n/a
281.5845	0.135	563169	keystroke_r	r	n/a
281.7345	0.105	563469	keystroke_Key.space	Key.space	n/a
281.9895	0.135	563979	keystroke_f	f	n/a
282.1095	0.06	564219	keystroke_i	i	n/a
282.2595	0.09	564519	keystroke_l	l	n/a
282.3645	0.105	564729	keystroke_e	e	n/a
282.5445	0.09	565089	keystroke_Key.enter	Key.enter	n/a
282.6445	12.727	565289	prompt	n/a	maintains hopkins solutions featured\n
283.7295	0.105	567459	keystroke_m	m	n/a
283.9095	0.15	567819	keystroke_a	a	n/a
284.0145	0.12	568029	keystroke_i	i	n/a
284.1045	0.09	568209	keystroke_n	n	n/a
284.3595	0.105	568719	keystroke_t	t	n/a
284.4945	0.165	568989	keystroke_a	a	n/a
284.6445	0.12	569289	keystroke_i	i	n/a
284.7195	0.09	569439	keystroke_n	n	n/a
284.8245	0.135	569649	keystroke_s	s	n/a
284.9605	0.089	569921	keystroke_Key.space	Key.space	n/a
285.1545	0.06	570309	keystroke_h	h	n/a
285.2895	0.09	570579	keystroke_o	o	n/a
285.4695	0.105	570939	keystroke_p	p	n/a
285.8895	0.06	571779	keystroke_k	k	n/a
286.6695	0.12	573339	keystroke_i	i	n/a
286.7745	0.0905	573549	keystroke_n	n	n/a
287.3445	0.12	574689	keystroke_s	s	n/a
287.4495	0.12	574899	keystroke_Key.space	Key.space	n/a
287.7795	0.09	575559	keystroke_s	s	n/a
290.557	0.012	581114	keystroke_o	o	n/a
290.704	0.09	581408	keystroke_l	l	n/a
290.8695	0.0745	581739	keystroke_u	u	n/a
291.11	0.104	582220	keystroke_t	t	n/a
291.199	0.1055	582398	keystroke_i	i	n/a
291.3345	0.1345	582669	keystroke_o	o	n/a
291.4245	0.0745	582849	keystroke_n	n	n/a
291.694	0.15	583388	keystroke_s	s	n/a
291.964	0.1205	583928	keystroke_Key.space	Key.space	n/a
292.4295	0.1355	584859	keystroke_f	f	n/a
292.685	0.1045	585370	keystroke_e	e	n/a
292.8645	0.15	585729	keystroke_a	a	n/a
293.54	0.0905	587080	keystroke_t	t	n/a
293.689	0.076	587378	keystroke_u	u	n/a
293.765	0.179	587530	keystroke_r	r	n/a
293.869	0.12	587738	keystroke_e	e	n/a
294.545	0.074	589090	keystroke_d	d	n/a
295.279	0.09	590558	keystroke_Key.enter	Key.enter	n/a
295.377	9.1605	590754	prompt	n/a	wars pokemon depression highest\n
296.03	0.059	592060	keystroke_w	w	n/a
296.209	0.18	592418	keystroke_a	a	n/a
296.359	0.12	592718	keystroke_r	r	n/a
296.659	0.105	593318	keystroke_s	s	n/a
296.794	0.135	593588	keystroke_Key.space	Key.space	n/a
297.5	0.089	595000	keystroke_p	p	n/a
297.679	0.09	595358	keystroke_o	o	n/a
297.889	0.09	595778	keystroke_l	l	n/a
298.759	0.075	597518	keystroke_Key.backspace	Key.backspace	n/a
299	0.09	598000	keystroke_k	k	n/a
299.164	0.091	598328	keystroke_e	e	n/a
299.374	0.091	598748	keystroke_m	m	n/a
299.494	0.12	598988	keystroke_o	o	n/a
299.645	0.074	599290	keystroke_n	n	n/a
300.424	0.09	600848	keystroke_Key.space	Key.space	n/a
300.65	0.059	601300	keystroke_d	d	n/a
300.799	0.091	601598	keystroke_e	e	n/a
300.979	0.121	601958	keystroke_p	p	n/a
301.189	0.18	602378	keystroke_r	r	n/a
301.279	0.12	602558	keystroke_e	e	n/a
301.535	0.089	603070	keystroke_s	s	n/a
301.685	0.119	603370	keystroke_s	s	n/a
301.849	0.09	603698	keystroke_i	i	n/a
301.999	0.136	603998	keystroke_o	o	n/a
302.12	0.089	604240	keystroke_n	n	n/a
302.584	0.12	605168	keystroke_Key.space	Key.space	n/a
302.884	0.06	605768	keystroke_h	h	n/a
303.049	0.09	606098	keystroke_i	i	n/a
303.185	0.149	606370	keystroke_g	g	n/a
303.29	0.074	606580	keystroke_h	h	n/a
303.934	0.09	607868	keystroke_e	e	n/a
304.129	0.165	608258	keystroke_s	s	n/a
304.264	0.105	608528	keystroke_t	t	n/a
304.429	0.105	608858	keystroke_Key.enter	Key.enter	n/a
304.542	9.91	609084	prompt	n/a	snake expectations cutting religious\n
305.315	0.12	610630	keystroke_s	s	n/a
305.464	0.075	610928	keystroke_h	h	n/a
306.454	0.075	612908	keystroke_Key.backspace	Key.backspace	n/a
306.679	0.075	613358	keystroke_n	n	n/a
306.814	0.12	613628	keystroke_a	a	n/a
306.919	0.075	613838	keystroke_k	k	n/a
307.084	0.075	614168	keystroke_e	e	n/a
307.609	0.09	615218	keystroke_Key.space	Key.space	n/a
307.879	0.06	615758	keystroke_e	e	n/a
308.104	0.12	616208	keystroke_x	x	n/a
308.239	0.09	616478	keystroke_p	p	n/a
308.374	0.076	616748	keystroke_e	e	n/a
308.674	0.106	617348	keystroke_c	c	n/a
308.899	0.106	617798	keystroke_t	t	n/a
309.079	0.166	618158	keystroke_a	a	n/a
309.245	0.119	618490	keystroke_t	t	n/a
309.38	0.089	618760	keystroke_i	i	n/a
309.485	0.165	618970	keystroke_o	o	n/a
309.605	0.074	619210	keystroke_n	n	n/a
309.739	0.165	619478	keystroke_s	s	n/a
309.919	0.121	619838	keystroke_Key.space	Key.space	n/a
310.595	0.134	621190	keystroke_c	c	n/a
310.76	0.059	621520	keystroke_u	u	n/a
310.895	0.06	621790	keystroke_t	t	n/a
311.014	0.091	622028	keystroke_t	t	n/a
311.135	0.119	622270	keystroke_i	i	n/a
311.21	0.105	622420	keystroke_n	n	n/a
311.285	0.105	622570	keystroke_g	g	n/a
311.359	0.09	622718	keystroke_Key.space	Key.space	n/a
311.555	0.18	623110	keystroke_r	r	n/a
311.705	0.12	623410	keystroke_e	e	n/a
311.915	0.089	623830	keystroke_l	l	n/a
312.109	0.09	624218	keystroke_i	i	n/a
312.304	0.091	624608	keystroke_g	g	n/a
313.43	0.06	626860	keystroke_i	i	n/a
313.64	0.105	627280	keystroke_o	o	n/a
313.745	0.09	627490	keystroke_u	u	n/a
313.94	0.12	627880	keystroke_s	s	n/a
314.36	0.089	628720	keystroke_Key.enter	Key.enter	n/a
314.4565	6.76	628913	prompt	n/a	mainly personalized stickers little\n
315.184	0.076	630368	keystroke_m	m	n/a
315.304	0.121	630608	keystroke_a	a	n/a
315.41	0.075	630820	keystroke_i	i	n/a
315.545	0.06	631090	keystroke_n	n	n/a
315.679	0.091	631358	keystroke_l	l	n/a
315.844	0.076	631688	keystroke_y	y	n/a
315.979	0.136	631958	keystroke_Key.space	Key.space	n/a
316.13	0.089	632260	keystroke_p	p	n/a
316.295	0.164	632590	keystroke_e	e	n/a
316.445	0.104	632890	keystroke_r	r	n/a
316.715	0.105	633430	keystroke_s	s	n/a
316.804	0.106	633608	keystroke_o	o	n/a
316.955	0.09	633910	keystroke_n	n	n/a
317.12	0.135	634240	keystroke_a	a	n/a
317.21	0.105	634420	keystroke_l	l	n/a
317.329	0.061	634658	keystroke_i	i	n/a
317.435	0.164	634870	keystroke_z	z	n/a
317.57	0.089	635140	keystroke_e	e	n/a
317.765	0.105	635530	keystroke_d	d	n/a
317.885	0.105	635770	keystroke_Key.space	Key.space	n/a
318.41	0.15	636820	keystroke_s	s	n/a
318.7695	0.015	637539	keystroke_t	t	n/a
318.8145	0.075	637629	keystroke_i	i	n/a
318.9345	0.105	637869	keystroke_c	c	n/a
319.1895	0.09	638379	keystroke_k	k	n/a
319.3245	0.18	638649	keystroke_e	e	n/a
319.4895	0.105	638979	keystroke_r	r	n/a
319.9245	0.12	639849	keystroke_s	s	n/a
320.0595	0.105	640119	keystroke_Key.space	Key.space	n/a
320.2095	0.105	640419	keystroke_l	l	n/a
320.3745	0.12	640749	keystroke_i	i	n/a
320.5695	0.06	641139	keystroke_t	t	n/a
320.6895	0.09	641379	keystroke_t	t	n/a
320.8245	0.12	641649	keystroke_l	l	n/a
320.9295	0.075	641859	keystroke_e	e	n/a
321.1245	0.09	642249	keystroke_Key.enter	Key.enter	n/a
321.221	7.181	642442	prompt	n/a	gage framed vendors nissan\n
321.9345	0.09	643869	keystroke_g	g	n/a
322.0395	0.135	644079	keystroke_a	a	n/a
322.2345	0.12	644469	keystroke_g	g	n/a
322.3245	0.135	644649	keystroke_e	e	n/a
322.4595	0.09	644919	keystroke_Key.space	Key.space	n/a
322.6845	0.075	645369	keystroke_f	f	n/a
322.8795	0.12	645759	keystroke_r	r	n/a
322.9695	0.15	645939	keystroke_a	a	n/a
323.1345	0.09	646269	keystroke_m	m	n/a
323.2395	0.06	646479	keystroke_e	e	n/a
323.4195	0.105	646839	keystroke_d	d	n/a
323.5395	0.075	647079	keystroke_Key.space	Key.space	n/a
323.7345	0.09	647469	keystroke_v	v	n/a
323.8695	0.12	647739	keystroke_e	e	n/a
324.0345	0.09	648069	keystroke_n	n	n/a
324.1395	0.105	648279	keystroke_d	d	n/a
324.2895	0.135	648579	keystroke_o	o	n/a
324.4095	0.105	648819	keystroke_r	r	n/a
324.5445	0.105	649089	keystroke_Key.space	Key.space	n/a
326.0145	0.075	652029	keystroke_Key.backspace	Key.backspace	n/a
326.7945	0.105	653589	keystroke_s	s	n/a
326.9895	0.15	653979	keystroke_Key.space	Key.space	n/a
327.3195	0.075	654639	keystroke_n	n	n/a
327.4395	0.075	654879	keystroke_i	i	n/a
327.5895	0.075	655179	keystroke_s	s	n/a
327.7695	0.12	655539	keystroke_s	s	n/a
327.9495	0.15	655899	keystroke_a	a	n/a
328.1295	0.075	656259	keystroke_n	n	n/a
328.3245	0.075	656649	keystroke_Key.enter	Key.enter	n/a
328.407	11.3345	656814	prompt	n/a	lauren fiji sounds everybody\n
329.2995	0.1195	658599	keystroke_l	l	n/a
329.449	0.136	658898	keystroke_a	a	n/a
329.57	0.045	659140	keystroke_u	u	n/a
329.72	0.149	659440	keystroke_r	r	n/a
329.81	0.119	659620	keystroke_e	e	n/a
329.975	0.074	659950	keystroke_n	n	n/a
330.095	0.134	660190	keystroke_Key.space	Key.space	n/a
330.305	0.074	660610	keystroke_i	i	n/a
330.439	0.106	660878	keystroke_f	f	n/a
330.56	0.059	661120	keystroke_j	j	n/a
330.71	0.089	661420	keystroke_i	i	n/a
330.86	0.104	661720	keystroke_Key.space	Key.space	n/a
331.069	0.105	662138	keystroke_s	s	n/a
331.19	0.0895	662380	keystroke_o	o	n/a
331.265	0.0595	662530	keystroke_u	u	n/a
331.4595	0.075	662919	keystroke_n	n	n/a
331.6245	0.105	663249	keystroke_d	d	n/a
332.5995	0.09	665199	keystroke_Key.backspace	Key.backspace	n/a
332.7795	0.09	665559	keystroke_Key.backspace	Key.backspace	n/a
332.9745	0.09	665949	keystroke_Key.backspace	Key.backspace	n/a
333.1695	0.09	666339	keystroke_Key.backspace	Key.backspace	n/a
333.3495	0.09	666699	keystroke_Key.backspace	Key.backspace	n/a
333.5445	0.09	667089	keystroke_Key.backspace	Key.backspace	n/a
333.7695	0.09	667539	keystroke_Key.backspace	Key.backspace	n/a
333.9945	0.105	667989	keystroke_Key.backspace	Key.backspace	n/a
334.2795	0.105	668559	keystroke_Key.backspace	Key.backspace	n/a
334.6245	0.09	669249	keystroke_Key.backspace	Key.backspace	n/a
335.1795	0.075	670359	keystroke_f	f	n/a
335.3445	0.06	670689	keystroke_i	i	n/a
335.5245	0.045	671049	keystroke_j	j	n/a
335.6895	0.06	671379	keystroke_i	i	n/a
335.9895	0.075	671979	keystroke_Key.space	Key.space	n/a
336.2445	0.135	672489	keystroke_s	s	n/a
336.3945	0.09	672789	keystroke_o	o	n/a
336.4995	0.045	672999	keystroke_u	u	n/a
336.6795	0.09	673359	keystroke_n	n	n/a
336.8295	0.075	673659	keystroke_d	d	n/a
336.9945	0.135	673989	keystroke_s	s	n/a
337.1595	0.105	674319	keystroke_Key.space	Key.space	n/a
337.3245	0.09	674649	keystroke_e	e	n/a
337.5345	0.135	675069	keystroke_v	v	n/a
337.6845	0.18	675369	keystroke_e	e	n/a
337.8195	0.135	675639	keystroke_r	r	n/a
337.9695	0.045	675939	keystroke_y	y	n/a
338.7345	0.12	677469	keystroke_b	b	n/a
338.9595	0.12	677919	keystroke_o	o	n/a
339.1245	0.12	678249	keystroke_d	d	n/a
339.1995	0.06	678399	keystroke_y	y	n/a
339.6495	0.09	679299	keystroke_Key.enter	Key.enter	n/a
339.746	9.6405	679492	prompt	n/a	chapel downloaded dozens cubic\n
340.7145	0.12	681429	keystroke_c	c	n/a
340.7895	0.075	681579	keystroke_h	h	n/a
340.9845	0.135	681969	keystroke_a	a	n/a
341.1345	0.12	682269	keystroke_p	p	n/a
341.2995	0.09	682599	keystroke_e	e	n/a
341.4345	0.09	682869	keystroke_l	l	n/a
341.9745	0.135	683949	keystroke_Key.space	Key.space	n/a
342.3645	0.105	684729	keystroke_d	d	n/a
342.4845	0.12	684969	keystroke_o	o	n/a
342.6795	0.105	685359	keystroke_w	w	n/a
342.8145	0.09	685629	keystroke_n	n	n/a
342.9945	0.105	685989	keystroke_l	l	n/a
343.1595	0.15	686319	keystroke_a	a	n/a
344.0595	0.105	688119	keystroke_Key.backspace	Key.backspace	n/a
344.3145	0.12	688629	keystroke_o	o	n/a
344.9145	0.12	689829	keystroke_a	a	n/a
345.1395	0.075	690279	keystroke_d	d	n/a
345.5295	0.06	691059	keystroke_e	e	n/a
345.6945	0.09	691389	keystroke_d	d	n/a
345.8145	0.12	691629	keystroke_Key.space	Key.space	n/a
346.0395	0.105	692079	keystroke_d	d	n/a
346.16	0.12	692320	keystroke_o	o	n/a
346.729	0.106	693458	keystroke_z	z	n/a
346.924	0.091	693848	keystroke_e	e	n/a
347.045	0.105	694090	keystroke_n	n	n/a
347.33	0.09	694660	keystroke_s	s	n/a
347.464	0.076	694928	keystroke_Key.space	Key.space	n/a
347.749	0.121	695498	keystroke_c	c	n/a
347.885	0.045	695770	keystroke_u	u	n/a
348.08	0.075	696160	keystroke_b	b	n/a
348.215	0.12	696430	keystroke_i	i	n/a
349.0095	0.09	698019	keystroke_c	c	n/a
349.2645	0.12	698529	keystroke_Key.enter	Key.enter	n/a
349.39	10.631	698780	prompt	n/a	certification army annotated dietary\n
350.3295	0.075	700659	keystroke_c	c	n/a
350.5245	0.075	701049	keystroke_e	e	n/a
351.0195	0.105	702039	keystroke_r	r	n/a
351.3495	0.075	702699	keystroke_t	t	n/a
351.4845	0.09	702969	keystroke_i	i	n/a
351.6195	0.075	703239	keystroke_f	f	n/a
351.7095	0.105	703419	keystroke_i	i	n/a
351.8445	0.135	703689	keystroke_c	c	n/a
351.9645	0.18	703929	keystroke_a	a	n/a
352.0545	0.135	704109	keystroke_t	t	n/a
352.1745	0.105	704349	keystroke_i	i	n/a
352.2645	0.18	704529	keystroke_o	o	n/a
352.3695	0.105	704739	keystroke_n	n	n/a
352.8495	0.105	705699	keystroke_Key.space	Key.space	n/a
353.0445	0.21	706089	keystroke_a	a	n/a
353.2245	0.135	706449	keystroke_r	r	n/a
353.4945	0.075	706989	keystroke_m	m	n/a
353.7645	0.06	707529	keystroke_y	y	n/a
353.9595	0.12	707919	keystroke_Key.space	Key.space	n/a
354.1845	0.12	708369	keystroke_a	a	n/a
354.4245	0.06	708849	keystroke_n	n	n/a
354.5895	0.06	709179	keystroke_n	n	n/a
354.7245	0.105	709449	keystroke_o	o	n/a
354.8895	0.15	709779	keystroke_t	t	n/a
354.9645	0.12	709929	keystroke_e	e	n/a
356.3595	0.09	712719	keystroke_Key.backspace	Key.backspace	n/a
356.5245	0.195	713049	keystroke_a	a	n/a
356.7495	0.12	713499	keystroke_t	t	n/a
356.7945	0.09	713589	keystroke_e	e	n/a
357.0645	0.09	714129	keystroke_d	d	n/a
357.1995	0.105	714399	keystroke_Key.space	Key.space	n/a
358.0095	0.105	716019	keystroke_d	d	n/a
358.1295	0.105	716259	keystroke_i	i	n/a
358.4745	0.09	716949	keystroke_e	e	n/a
358.7595	0.105	717519	keystroke_t	t	n/a
358.9245	0.165	717849	keystroke_a	a	n/a
359.0445	0.12	718089	keystroke_r	r	n/a
359.1945	0.075	718389	keystroke_y	y	n/a
359.9295	0.09	719859	keystroke_Key.enter	Key.enter	n/a
360.025	11.2465	720050	prompt	n/a	podcasts terminal abandoned criminal\n
360.8445	0.105	721689	keystroke_p	p	n/a
361.1595	0.09	722319	keystroke_o	o	n/a
361.3695	0.105	722739	keystroke_d	d	n/a
361.6395	0.09	723279	keystroke_c	c	n/a
361.7445	0.12	723489	keystroke_a	a	n/a
361.9845	0.12	723969	keystroke_s	s	n/a
362.1495	0.105	724299	keystroke_t	t	n/a
362.7345	0.12	725469	keystroke_s	s	n/a
362.8695	0.09	725739	keystroke_Key.space	Key.space	n/a
363.0795	0.105	726159	keystroke_t	t	n/a
363.2295	0.15	726459	keystroke_e	e	n/a
363.3495	0.12	726699	keystroke_r	r	n/a
363.5445	0.09	727089	keystroke_m	m	n/a
363.6795	0.135	727359	keystroke_i	i	n/a
364.4295	0.06	728859	keystroke_n	n	n/a
364.5045	0.15	729009	keystroke_a	a	n/a
364.5795	0.105	729159	keystroke_l	l	n/a
365.2395	0.12	730479	keystroke_Key.space	Key.space	n/a
365.9895	0.12	731979	keystroke_a	a	n/a
366.2295	0.12	732459	keystroke_d	d	n/a
366.3345	0.105	732669	keystroke_a	a	n/a
367.1145	0.165	734229	keystroke_Key.backspace	Key.backspace	n/a
367.4145	0.105	734829	keystroke_Key.backspace	Key.backspace	n/a
367.8345	0.105	735669	keystroke_b	b	n/a
367.9545	0.12	735909	keystroke_a	a	n/a
368.0895	0.075	736179	keystroke_n	n	n/a
368.9445	0.15	737889	keystroke_d	d	n/a
369.0645	0.105	738129	keystroke_o	o	n/a
369.2295	0.135	738459	keystroke_n	n	n/a
369.3195	0.075	738639	keystroke_e	e	n/a
369.5445	0.105	739089	keystroke_d	d	n/a
369.6795	0.09	739359	keystroke_Key.space	Key.space	n/a
369.8895	0.09	739779	keystroke_c	c	n/a
370.1445	0.12	740289	keystroke_r	r	n/a
370.2795	0.06	740559	keystroke_i	i	n/a
370.4445	0.075	740889	keystroke_m	m	n/a
370.5645	0.09	741129	keystroke_i	i	n/a
370.7145	0.09	741429	keystroke_n	n	n/a
370.8495	0.135	741699	keystroke_a	a	n/a
370.9395	0.105	741879	keystroke_l	l	n/a
371.1945	0.075	742389	keystroke_Key.enter	Key.enter	n/a
371.2755	6.716	742551	prompt	n/a	integer noise epic clone\n
372.0495	0.06	744099	keystroke_i	i	n/a
372.1695	0.09	744339	keystroke_n	n	n/a
372.2745	0.135	744549	keystroke_t	t	n/a
372.3795	0.21	744759	keystroke_e	e	n/a
373.4445	0.075	746889	keystroke_g	g	n/a
373.6245	0.12	747249	keystroke_e	e	n/a
373.8345	0.09	747669	keystroke_r	r	n/a
373.9695	0.12	747939	keystroke_Key.space	Key.space	n/a
374.2095	0.075	748419	keystroke_n	n	n/a
374.3295	0.105	748659	keystroke_o	o	n/a
374.5095	0.12	749019	keystroke_i	i	n/a
375.0945	0.165	750189	keystroke_s	s	n/a
375.2145	0.12	750429	keystroke_e	e	n/a
375.3645	0.09	750729	keystroke_Key.space	Key.space	n/a
375.5745	0.105	751149	keystroke_e	e	n/a
375.7995	0.015	751599	keystroke_p	p	n/a
376.519	0.091	753038	keystroke_i	i	n/a
376.669	0.121	753338	keystroke_c	c	n/a
376.804	0.09	753608	keystroke_Key.space	Key.space	n/a
377.06	0.12	754120	keystroke_c	c	n/a
377.164	0.061	754328	keystroke_l	l	n/a
377.345	0.074	754690	keystroke_o	o	n/a
377.48	0.09	754960	keystroke_n	n	n/a
377.585	0.089	755170	keystroke_e	e	n/a
377.884	0.105	755768	keystroke_Key.enter	Key.enter	n/a
377.999	10.5225	755998	prompt	n/a	stationery wings speakers glucose\n
378.875	0.119	757750	keystroke_s	s	n/a
379.085	0.15	758170	keystroke_t	t	n/a
379.22	0.195	758440	keystroke_a	a	n/a
379.43	0.164	758860	keystroke_t	t	n/a
379.625	0.075	759250	keystroke_i	i	n/a
379.775	0.164	759550	keystroke_o	o	n/a
379.85	0.165	759700	keystroke_n	n	n/a
380.48	0.06	760960	keystroke_e	e	n/a
380.93	0.12	761860	keystroke_r	r	n/a
381.05	0.074	762100	keystroke_y	y	n/a
381.244	0.105	762488	keystroke_Key.space	Key.space	n/a
381.47	0.105	762940	keystroke_w	w	n/a
381.59	0.12	763180	keystroke_i	i	n/a
381.68	0.09	763360	keystroke_n	n	n/a
381.755	0.105	763510	keystroke_g	g	n/a
381.949	0.151	763898	keystroke_s	s	n/a
382.084	0.106	764168	keystroke_Key.space	Key.space	n/a
382.655	0.1335	765310	keystroke_s	s	n/a
382.8045	0.12	765609	keystroke_p	p	n/a
382.9545	0.09	765909	keystroke_e	e	n/a
383.1935	0.105	766387	keystroke_a	a	n/a
383.3595	0.105	766719	keystroke_k	k	n/a
383.4795	0.12	766959	keystroke_e	e	n/a
383.5545	0.089	767109	keystroke_r	r	n/a
383.7645	0.104	767529	keystroke_s	s	n/a
383.9135	0.06	767827	keystroke_Key.space	Key.space	n/a
384.4385	0.105	768877	keystroke_c	c	n/a
385.3535	0.09	770707	keystroke_Key.backspace	Key.backspace	n/a
385.5185	0.105	771037	keystroke_g	g	n/a
386.5395	0.09	773079	keystroke_l	l	n/a
386.7795	0.06	773559	keystroke_u	u	n/a
387.7985	0.076	775597	keystroke_c	c	n/a
387.8595	0.104	775719	keystroke_o	o	n/a
387.9935	0.121	775987	keystroke_s	s	n/a
388.0845	0.105	776169	keystroke_e	e	n/a
388.4285	0.091	776857	keystroke_Key.enter	Key.enter	n/a
388.5265	9.43	777053	prompt	n/a	discussed incorrect payable within\n
389.2995	0.09	778599	keystroke_d	d	n/a
389.4495	0.12	778899	keystroke_i	i	n/a
389.5545	0.089	779109	keystroke_s	s	n/a
389.7795	0.105	779559	keystroke_c	c	n/a
389.8695	0.075	779739	keystroke_u	u	n/a
390.0495	0.06	780099	keystroke_s	s	n/a
390.1845	0.18	780369	keystroke_s	s	n/a
390.3195	0.075	780639	keystroke_e	e	n/a
390.4995	0.12	780999	keystroke_d	d	n/a
390.6035	0.106	781207	keystroke_Key.space	Key.space	n/a
390.7695	0.12	781539	keystroke_i	i	n/a
390.8295	0.12	781659	keystroke_n	n	n/a
390.9645	0.09	781929	keystroke_Key.space	Key.space	n/a
391.6845	0.09	783369	keystroke_Key.backspace	Key.backspace	n/a
391.9095	0.12	783819	keystroke_c	c	n/a
391.9995	0.09	783999	keystroke_o	o	n/a
392.7945	0.06	785589	keystroke_r	r	n/a
392.9295	0.105	785859	keystroke_r	r	n/a
393.0645	0.075	786129	keystroke_e	e	n/a
393.3045	0.15	786609	keystroke_c	c	n/a
393.4245	0.12	786849	keystroke_t	t	n/a
393.8595	0.12	787719	keystroke_Key.space	Key.space	n/a
394.1895	0.09	788379	keystroke_p	p	n/a
394.3395	0.15	788679	keystroke_a	a	n/a
394.5045	0.06	789009	keystroke_y	y	n/a
394.8195	0.12	789639	keystroke_a	a	n/a
394.9245	0.06	789849	keystroke_b	b	n/a
395.0895	0.09	790179	keystroke_l	l	n/a
395.2395	0.075	790479	keystroke_e	e	n/a
396.1685	0.106	792337	keystroke_Key.space	Key.space	n/a
396.5445	0.105	793089	keystroke_w	w	n/a
396.6345	0.06	793269	keystroke_i	i	n/a
396.7095	0.105	793419	keystroke_t	t	n/a
396.8295	0.045	793659	keystroke_h	h	n/a
397.5645	0.12	795129	keystroke_i	i	n/a
397.6395	0.09	795279	keystroke_n	n	n/a
397.8795	0.075	795759	keystroke_Key.enter	Key.enter	n/a
397.9625	9.6985	795925	prompt	n/a	beneficial significantly lamp drive\n
398.8695	0.075	797739	keystroke_b	b	n/a
398.9895	0.075	797979	keystroke_e	e	n/a
399.1245	0.06	798249	keystroke_n	n	n/a
399.1995	0.045	798399	keystroke_e	e	n/a
399.4095	0.09	798819	keystroke_d	d	n/a
400.0695	0.135	800139	keystroke_Key.backspace	Key.backspace	n/a
400.2945	0.075	800589	keystroke_f	f	n/a
400.4145	0.075	800829	keystroke_i	i	n/a
400.5495	0.09	801099	keystroke_c	c	n/a
400.6695	0.075	801339	keystroke_i	i	n/a
400.7595	0.12	801519	keystroke_a	a	n/a
400.8645	0.09	801729	keystroke_l	l	n/a
401.0445	0.09	802089	keystroke_Key.space	Key.space	n/a
401.2845	0.105	802569	keystroke_s	s	n/a
401.3745	0.075	802749	keystroke_i	i	n/a
401.4795	0.09	802959	keystroke_g	g	n/a
401.6145	0.075	803229	keystroke_n	n	n/a
401.8095	0.09	803619	keystroke_i	i	n/a
402.1845	0.15	804369	keystroke_f	f	n/a
402.4845	0.09	804969	keystroke_i	i	n/a
402.7245	0.135	805449	keystroke_c	c	n/a
402.8445	0.165	805689	keystroke_a	a	n/a
402.9795	0.075	805959	keystroke_n	n	n/a
403.0995	0.105	806199	keystroke_t	t	n/a
403.2045	0.09	806409	keystroke_l	l	n/a
403.3845	0.06	806769	keystroke_y	y	n/a
403.4895	0.12	806979	keystroke_Key.space	Key.space	n/a
403.6245	0.09	807249	keystroke_l	l	n/a
403.7445	0.12	807489	keystroke_a	a	n/a
403.8195	0.09	807639	keystroke_m	m	n/a
404.0145	0.105	808029	keystroke_p	p	n/a
404.1795	0.09	808359	keystroke_Key.space	Key.space	n/a
404.3895	0.09	808779	keystroke_d	d	n/a
404.5095	0.09	809019	keystroke_i	i	n/a
404.6295	0.15	809259	keystroke_r	r	n/a
405.8895	0.12	811779	keystroke_Key.backspace	Key.backspace	n/a
406.204	0.075	812408	keystroke_Key.backspace	Key.backspace	n/a
406.474	0.106	812948	keystroke_r	r	n/a
406.594	0.075	813188	keystroke_i	i	n/a
407.149	0.166	814298	keystroke_v	v	n/a
407.299	0.12	814598	keystroke_e	e	n/a
407.554	0.105	815108	keystroke_Key.enter	Key.enter	n/a
407.665	10.122	815330	prompt	n/a	timothy angela praise inspector\n
408.635	0.104	817270	keystroke_t	t	n/a
408.724	0.075	817448	keystroke_i	i	n/a
408.905	0.074	817810	keystroke_m	m	n/a
409.099	0.075	818198	keystroke_o	o	n/a
409.354	0.105	818708	keystroke_t	t	n/a
409.519	0.06	819038	keystroke_h	h	n/a
409.805	0.059	819610	keystroke_y	y	n/a
410.134	0.12	820268	keystroke_Key.space	Key.space	n/a
410.645	0.135	821290	keystroke_a	a	n/a
410.824	0.09	821648	keystroke_n	n	n/a
411.049	0.076	822098	keystroke_g	g	n/a
411.169	0.12	822338	keystroke_e	e	n/a
411.334	0.105	822668	keystroke_l	l	n/a
411.469	0.121	822938	keystroke_a	a	n/a
411.784	0.121	823568	keystroke_Key.space	Key.space	n/a
412.265	0.089	824530	keystroke_p	p	n/a
412.429	0.15	824858	keystroke_r	r	n/a
412.534	0.135	825068	keystroke_a	a	n/a
412.715	0.105	825430	keystroke_i	i	n/a
413.119	0.135	826238	keystroke_s	s	n/a
413.269	0.091	826538	keystroke_e	e	n/a
413.7785	0.12	827557	keystroke_Key.space	Key.space	n/a
414.1385	0.075	828277	keystroke_i	i	n/a
414.3035	0.076	828607	keystroke_n	n	n/a
414.5735	0.12	829147	keystroke_s	s	n/a
414.7395	0.12	829479	keystroke_p	p	n/a
414.9185	0.075	829837	keystroke_e	e	n/a
415.2035	0.105	830407	keystroke_c	c	n/a
417.0635	0.136	834127	keystroke_t	t	n/a
417.2135	0.105	834427	keystroke_o	o	n/a
417.3345	0.119	834669	keystroke_r	r	n/a
417.6785	0.105	835357	keystroke_Key.enter	Key.enter	n/a
417.7905	8.2155	835581	prompt	n/a	solution hotmail endif intelligence\n
418.5035	0.135	837007	keystroke_s	s	n/a
418.6245	0.074	837249	keystroke_o	o	n/a
418.8335	0.061	837667	keystroke_l	l	n/a
418.9835	0.061	837967	keystroke_u	u	n/a
419.1345	0.104	838269	keystroke_t	t	n/a
419.2545	0.089	838509	keystroke_i	i	n/a
419.3585	0.196	838717	keystroke_o	o	n/a
419.4945	0.075	838989	keystroke_n	n	n/a
419.5835	0.09	839167	keystroke_Key.space	Key.space	n/a
419.7345	0.06	839469	keystroke_h	h	n/a
419.8545	0.105	839709	keystroke_o	o	n/a
419.9285	0.09	839857	keystroke_t	t	n/a
420.2435	0.076	840487	keystroke_m	m	n/a
420.3485	0.135	840697	keystroke_a	a	n/a
420.4545	0.045	840909	keystroke_i	i	n/a
420.6035	0.09	841207	keystroke_l	l	n/a
420.7535	0.075	841507	keystroke_Key.space	Key.space	n/a
420.9935	0.075	841987	keystroke_e	e	n/a
421.2335	0.091	842467	keystroke_n	n	n/a
421.4435	0.091	842887	keystroke_d	d	n/a
421.5935	0.106	843187	keystroke_i	i	n/a
421.8035	0.09	843607	keystroke_f	f	n/a
422.2685	0.12	844537	keystroke_Key.space	Key.space	n/a
423.9035	0.091	847807	keystroke_i	i	n/a
424.0095	0.09	848019	keystroke_n	n	n/a
424.1745	0.105	848349	keystroke_t	t	n/a
424.2485	0.136	848497	keystroke_e	e	n/a
424.5795	0.089	849159	keystroke_l	l	n/a
424.7445	0.09	849489	keystroke_l	l	n/a
424.9685	0.09	849937	keystroke_i	i	n/a
425.1945	0.029	850389	keystroke_g	g	n/a
425.2095	0.15	850419	keystroke_e	e	n/a
425.3735	0.09	850747	keystroke_n	n	n/a
425.5395	0.06	851079	keystroke_c	c	n/a
425.7195	0.104	851439	keystroke_e	e	n/a
425.9895	0.014	851979	keystroke_Key.enter	Key.enter	n/a
426.011	10.3005	852022	prompt	n/a	clay postposted call longitude\n
426.7685	0.136	853537	keystroke_c	c	n/a
426.9195	0.09	853839	keystroke_l	l	n/a
427.0395	0.149	854079	keystroke_a	a	n/a
427.1745	0.06	854349	keystroke_y	y	n/a
427.2785	0.121	854557	keystroke_Key.space	Key.space	n/a
427.4445	0.089	854889	keystroke_p	p	n/a
427.6685	0.09	855337	keystroke_o	o	n/a
427.7895	0.134	855579	keystroke_s	s	n/a
428.6445	0.104	857289	keystroke_t	t	n/a
429.1535	0.106	858307	keystroke_p	p	n/a
429.3635	0.12	858727	keystroke_o	o	n/a
430.5945	0.165	861189	keystroke_s	s	n/a
431.2545	0.15	862509	keystroke_t	t	n/a
431.3295	0.135	862659	keystroke_e	e	n/a
431.6295	0.119	863259	keystroke_d	d	n/a
431.7345	0.12	863469	keystroke_Key.space	Key.space	n/a
432.0345	0.135	864069	keystroke_c	c	n/a
432.1835	0.121	864367	keystroke_a	a	n/a
432.3495	0.09	864699	keystroke_l	l	n/a
432.4995	0.105	864999	keystroke_l	l	n/a
432.9045	0.12	865809	keystroke_Key.space	Key.space	n/a
433.8645	0.075	867729	keystroke_l	l	n/a
434.3895	0.09	868779	keystroke_o	o	n/a
434.4945	0.105	868989	keystroke_n	n	n/a
434.6445	0.105	869289	keystroke_g	g	n/a
434.9295	0.105	869859	keystroke_i	i	n/a
435.5595	0.105	871119	keystroke_t	t	n/a
435.6645	0.06	871329	keystroke_u	u	n/a
435.8745	0.075	871749	keystroke_d	d	n/a
436.0395	0.105	872079	keystroke_e	e	n/a
436.2195	0.09	872439	keystroke_Key.enter	Key.enter	n/a
436.3165	8.0345	872633	prompt	n/a	draft soap private sleeve\n
437.0595	0.09	874119	keystroke_d	d	n/a
437.2695	0.12	874539	keystroke_r	r	n/a
437.3595	0.135	874719	keystroke_a	a	n/a
437.5695	0.075	875139	keystroke_f	f	n/a
437.8095	0.105	875619	keystroke_t	t	n/a
437.9295	0.09	875859	keystroke_Key.space	Key.space	n/a
438.5895	0.12	877179	keystroke_s	s	n/a
440.8125	0.012	881625	keystroke_o	o	n/a
440.8995	0.135	881799	keystroke_a	a	n/a
441.0795	0.105	882159	keystroke_p	p	n/a
441.3345	0.12	882669	keystroke_Key.space	Key.space	n/a
441.6495	0.075	883299	keystroke_p	p	n/a
441.7845	0.135	883569	keystroke_r	r	n/a
441.9345	0.06	883869	keystroke_i	i	n/a
442.0995	0.135	884199	keystroke_v	v	n/a
442.5495	0.15	885099	keystroke_a	a	n/a
442.7295	0.105	885459	keystroke_t	t	n/a
442.8045	0.135	885609	keystroke_e	e	n/a
442.9545	0.105	885909	keystroke_Key.space	Key.space	n/a
443.1645	0.12	886329	keystroke_s	s	n/a
443.3145	0.12	886629	keystroke_l	l	n/a
443.4195	0.06	886839	keystroke_e	e	n/a
443.5545	0.06	887109	keystroke_e	e	n/a
443.7195	0.24	887439	keystroke_v	v	n/a
444.0495	0.105	888099	keystroke_e	e	n/a
444.2595	0.09	888519	keystroke_Key.enter	Key.enter	n/a
444.3565	7.0905	888713	prompt	n/a	will underlying deep cardiovascular\n
445.0545	0.09	890109	keystroke_w	w	n/a
445.2195	0.06	890439	keystroke_i	i	n/a
445.3845	0.09	890769	keystroke_l	l	n/a
445.5345	0.075	891069	keystroke_l	l	n/a
445.6245	0.12	891249	keystroke_Key.space	Key.space	n/a
445.7595	0.06	891519	keystroke_u	u	n/a
445.9695	0.075	891939	keystroke_n	n	n/a
446.4195	0.06	892839	keystroke_d	d	n/a
446.5995	0.1495	893199	keystroke_e	e	n/a
446.6745	0.0895	893349	keystroke_r	r	n/a
446.8995	0.09	893799	keystroke_l	l	n/a
447.0945	0.0445	894189	keystroke_y	y	n/a
447.3045	0.1345	894609	keystroke_i	i	n/a
447.3945	0.105	894789	keystroke_n	n	n/a
447.4545	0.09	894909	keystroke_g	g	n/a
447.529	0.0755	895058	keystroke_Key.space	Key.space	n/a
447.694	0.075	895388	keystroke_d	d	n/a
447.904	0.045	895808	keystroke_e	e	n/a
448.054	0.09	896108	keystroke_e	e	n/a
448.204	0.105	896408	keystroke_p	p	n/a
448.324	0.09	896648	keystroke_Key.space	Key.space	n/a
448.534	0.105	897068	keystroke_c	c	n/a
448.684	0.2405	897368	keystroke_a	a	n/a
448.9095	0.0895	897819	keystroke_r	r	n/a
449.194	0.09	898388	keystroke_d	d	n/a
449.299	0.0605	898598	keystroke_i	i	n/a
449.479	0.09	898958	keystroke_o	o	n/a
449.644	0.105	899288	keystroke_v	v	n/a
449.809	0.105	899618	keystroke_a	a	n/a
450.019	0.09	900038	keystroke_s	s	n/a
450.259	0.135	900518	keystroke_c	c	n/a
450.379	0.06	900758	keystroke_u	u	n/a
450.559	0.09	901118	keystroke_l	l	n/a
450.664	0.135	901328	keystroke_a	a	n/a
450.814	0.075	901628	keystroke_r	r	n/a
451.354	0.09	902708	keystroke_Key.enter	Key.enter	n/a
451.4515	6.5945	902903	prompt	n/a	cable camping donors final\n
452.0745	0.105	904149	keystroke_c	c	n/a
452.1635	0.15	904327	keystroke_a	a	n/a
452.3895	0.059	904779	keystroke_b	b	n/a
452.5235	0.105	905047	keystroke_l	l	n/a
452.6595	0.089	905319	keystroke_e	e	n/a
452.7935	0.075	905587	keystroke_Key.space	Key.space	n/a
453.0035	0.135	906007	keystroke_c	c	n/a
453.1245	0.104	906249	keystroke_a	a	n/a
453.2595	0.074	906519	keystroke_m	m	n/a
453.8585	0.12	907717	keystroke_p	p	n/a
454.3235	0.09	908647	keystroke_i	i	n/a
454.4585	0.075	908917	keystroke_n	n	n/a
454.8635	0.121	909727	keystroke_g	g	n/a
454.9985	0.09	909997	keystroke_Key.space	Key.space	n/a
455.2385	0.136	910477	keystroke_d	d	n/a
455.3585	0.091	910717	keystroke_o	o	n/a
455.5235	0.091	911047	keystroke_n	n	n/a
455.6435	0.12	911287	keystroke_o	o	n/a
455.7785	0.076	911557	keystroke_r	r	n/a
455.9745	0.104	911949	keystroke_s	s	n/a
456.0635	0.105	912127	keystroke_Key.space	Key.space	n/a
456.2585	0.12	912517	keystroke_f	f	n/a
456.3795	0.075	912759	keystroke_i	i	n/a
456.5295	0.074	913059	keystroke_n	n	n/a
456.6635	0.135	913327	keystroke_a	a	n/a
456.7385	0.091	913477	keystroke_l	l	n/a
457.9385	0.105	915877	keystroke_Key.enter	Key.enter	n/a
458.051	9.221	916102	prompt	n/a	conducting celebrity puppy leasing\n
458.7645	0.105	917529	keystroke_c	c	n/a
459.0935	0.09	918187	keystroke_o	o	n/a
459.2895	0.09	918579	keystroke_n	n	n/a
459.4535	0.09	918907	keystroke_d	d	n/a
459.5585	0.061	919117	keystroke_u	u	n/a
459.7085	0.075	919417	keystroke_c	c	n/a
459.8445	0.119	919689	keystroke_t	t	n/a
459.9785	0.136	919957	keystroke_i	i	n/a
460.0995	0.074	920199	keystroke_n	n	n/a
460.1595	0.119	920319	keystroke_g	g	n/a
460.2485	0.075	920497	keystroke_Key.space	Key.space	n/a
460.4435	0.076	920887	keystroke_c	c	n/a
460.6385	0.09	921277	keystroke_e	e	n/a
460.7585	0.106	921517	keystroke_l	l	n/a
460.8785	0.09	921757	keystroke_e	e	n/a
461.0145	0.074	922029	keystroke_b	b	n/a
461.1635	0.09	922327	keystroke_r	r	n/a
461.4645	0.089	922929	keystroke_i	i	n/a
461.5685	0.105	923137	keystroke_t	t	n/a
461.7035	0.076	923407	keystroke_y	y	n/a
461.8085	0.12	923617	keystroke_Key.space	Key.space	n/a
462.0635	0.106	924127	keystroke_p	p	n/a
462.1995	0.075	924399	keystroke_u	u	n/a
462.4085	0.076	924817	keystroke_p	p	n/a
462.5735	0.061	925147	keystroke_p	p	n/a
462.6945	0.089	925389	keystroke_y	y	n/a
462.8435	0.121	925687	keystroke_Key.space	Key.space	n/a
463.0385	0.121	926077	keystroke_l	l	n/a
463.2035	0.151	926407	keystroke_e	e	n/a
463.8035	0.121	927607	keystroke_a	a	n/a
464.0595	0.12	928119	keystroke_s	s	n/a
464.1795	0.104	928359	keystroke_i	i	n/a
464.3745	0.09	928749	keystroke_g	g	n/a
465.8135	0.076	931627	keystroke_Key.backspace	Key.backspace	n/a
466.1885	0.076	932377	keystroke_n	n	n/a
466.4295	0.074	932859	keystroke_g	g	n/a
467.1785	0.09	934357	keystroke_Key.enter	Key.enter	n/a
467.2765	5.74	934553	prompt	n/a	sleeve boring soon surgeons\n
467.9885	0.121	935977	keystroke_s	s	n/a
468.1095	0.104	936219	keystroke_l	l	n/a
468.2585	0.075	936517	keystroke_e	e	n/a
468.3935	0.09	936787	keystroke_e	e	n/a
468.6795	0.074	937359	keystroke_v	v	n/a
468.7995	0.105	937599	keystroke_e	e	n/a
468.9185	0.105	937837	keystroke_Key.space	Key.space	n/a
469.1585	0.061	938317	keystroke_b	b	n/a
469.2945	0.104	938589	keystroke_o	o	n/a
469.4145	0.09	938829	keystroke_r	r	n/a
469.5495	0.12	939099	keystroke_i	i	n/a
469.6845	0.09	939369	keystroke_n	n	n/a
469.8045	0.119	939609	keystroke_g	g	n/a
469.8935	0.09	939787	keystroke_Key.space	Key.space	n/a
470.1485	0.12	940297	keystroke_s	s	n/a
470.2985	0.076	940597	keystroke_o	o	n/a
470.4335	0.091	940867	keystroke_o	o	n/a
470.6135	0.075	941227	keystroke_n	n	n/a
470.7335	0.105	941467	keystroke_Key.space	Key.space	n/a
471.0035	0.105	942007	keystroke_s	s	n/a
471.1545	0.06	942309	keystroke_u	u	n/a
471.2595	0.09	942519	keystroke_r	r	n/a
471.4845	0.075	942969	keystroke_g	g	n/a
471.6495	0.12	943299	keystroke_e	e	n/a
471.9045	0.104	943809	keystroke_o	o	n/a
472.0245	0.09	944049	keystroke_n	n	n/a
472.2035	0.106	944407	keystroke_s	s	n/a
472.9085	0.106	945817	keystroke_Key.enter	Key.enter	n/a
473.032	10.0345	946064	prompt	n/a	indicated problems springs vocal\n
473.6445	0.045	947289	keystroke_i	i	n/a
473.7795	0.074	947559	keystroke_n	n	n/a
473.9895	0.09	947979	keystroke_d	d	n/a
474.0945	0.09	948189	keystroke_i	i	n/a
474.2895	0.12	948579	keystroke_c	c	n/a
474.4245	0.195	948849	keystroke_a	a	n/a
474.6045	0.105	949209	keystroke_t	t	n/a
474.6645	0.12	949329	keystroke_e	e	n/a
474.8895	0.089	949779	keystroke_d	d	n/a
474.9495	0.135	949899	keystroke_Key.space	Key.space	n/a
475.1745	0.12	950349	keystroke_p	p	n/a
475.3245	0.135	950649	keystroke_r	r	n/a
475.4605	0.059	950921	keystroke_o	o	n/a
475.6695	0.06	951339	keystroke_b	b	n/a
475.8195	0.105	951639	keystroke_l	l	n/a
475.9395	0.09	951879	keystroke_e	e	n/a
476.0595	0.09	952119	keystroke_m	m	n/a
476.2095	0.12	952419	keystroke_s	s	n/a
476.3595	0.089	952719	keystroke_Key.space	Key.space	n/a
476.5845	0.12	953169	keystroke_s	s	n/a
476.6745	0.105	953349	keystroke_p	p	n/a
477.2745	0.09	954549	keystroke_r	r	n/a
477.3795	0.135	954759	keystroke_i	i	n/a
477.4845	0.09	954969	keystroke_n	n	n/a
477.6795	0.135	955359	keystroke_g	g	n/a
478.9995	0.12	957999	keystroke_s	s	n/a
479.1495	0.105	958299	keystroke_Key.space	Key.space	n/a
479.3295	0.12	958659	keystroke_v	v	n/a
479.4645	0.09	958929	keystroke_o	o	n/a
479.5395	0.09	959079	keystroke_a	a	n/a
480.304	0.075	960608	keystroke_Key.backspace	Key.backspace	n/a
480.439	0.165	960878	keystroke_c	c	n/a
480.559	0.135	961118	keystroke_a	a	n/a
482.089	0.09	964178	keystroke_l	l	n/a
482.959	0.105	965918	keystroke_Key.enter	Key.enter	n/a
483.071	13.06	966142	prompt	n/a	misc held fatal thoroughly\n
483.8585	0.091	967717	keystroke_m	m	n/a
483.9935	0.105	967987	keystroke_i	i	n/a
484.0995	0.104	968199	keystroke_s	s	n/a
484.2785	0.12	968557	keystroke_c	c	n/a
484.3835	0.105	968767	keystroke_Key.space	Key.space	n/a
484.5635	0.075	969127	keystroke_h	h	n/a
485.0735	0.075	970147	keystroke_e	e	n/a
485.2235	0.105	970447	keystroke_l	l	n/a
485.8835	0.091	971767	keystroke_d	d	n/a
486.0335	0.09	972067	keystroke_Key.space	Key.space	n/a
486.3035	0.075	972607	keystroke_f	f	n/a
486.4235	0.135	972847	keystroke_a	a	n/a
486.5735	0.106	973147	keystroke_t	t	n/a
486.7385	0.15	973477	keystroke_a	a	n/a
486.9185	0.105	973837	keystroke_l	l	n/a
487.0535	0.105	974107	keystroke_Key.space	Key.space	n/a
487.3835	0.075	974767	keystroke_t	t	n/a
487.5035	0.09	975007	keystroke_h	h	n/a
487.6535	0.121	975307	keystroke_r	r	n/a
487.7885	0.135	975577	keystroke_o	o	n/a
487.9085	0.09	975817	keystroke_u	u	n/a
488.149	0.105	976298	keystroke_g	g	n/a
488.314	0.09	976628	keystroke_h	h	n/a
488.599	0.105	977198	keystroke_l	l	n/a
490.489	0.15	980978	keystroke_y	y	n/a
492.124	0.06	984248	keystroke_Key.backspace	Key.backspace	n/a
492.289	0.06	984578	keystroke_Key.backspace	Key.backspace	n/a
492.454	0.075	984908	keystroke_Key.backspace	Key.backspace	n/a
492.634	0.09	985268	keystroke_Key.backspace	Key.backspace	n/a
492.799	0.105	985598	keystroke_Key.backspace	Key.backspace	n/a
492.994	0.105	985988	keystroke_Key.backspace	Key.backspace	n/a
493.189	0.105	986378	keystroke_Key.backspace	Key.backspace	n/a
494.134	0.075	988268	keystroke_o	o	n/a
494.344	0.12	988688	keystroke_r	r	n/a
494.449	0.06	988898	keystroke_o	o	n/a
494.479	0.105	988958	keystroke_u	u	n/a
494.764	0.09	989528	keystroke_g	g	n/a
494.959	0.06	989918	keystroke_h	h	n/a
495.124	0.09	990248	keystroke_l	l	n/a
495.379	0.015	990758	keystroke_y	y	n/a
496.039	0.09	992078	keystroke_Key.enter	Key.enter	n/a
496.136	8.215	992272	prompt	n/a	digit phpbb maximum intro\n
496.999	0.105	993998	keystroke_d	d	n/a
497.059	0.06	994118	keystroke_i	i	n/a
497.224	0.09	994448	keystroke_g	g	n/a
498.259	0.09	996518	keystroke_i	i	n/a
498.394	0.12	996788	keystroke_t	t	n/a
498.499	0.105	996998	keystroke_Key.space	Key.space	n/a
498.784	0.075	997568	keystroke_p	p	n/a
498.964	0.075	997928	keystroke_h	h	n/a
499.309	0.105	998618	keystroke_p	p	n/a
499.699	0.075	999398	keystroke_b	b	n/a
499.984	0.075	999968	keystroke_b	b	n/a
500.464	0.12	1000928	keystroke_Key.space	Key.space	n/a
500.629	0.105	1001258	keystroke_m	m	n/a
500.749	0.12	1001498	keystroke_a	a	n/a
501.019	0.09	1002038	keystroke_x	x	n/a
501.079	0.075	1002158	keystroke_i	i	n/a
501.274	0.06	1002548	keystroke_m	m	n/a
501.469	0.045	1002938	keystroke_u	u	n/a
501.634	0.075	1003268	keystroke_m	m	n/a
501.784	0.105	1003568	keystroke_Key.space	Key.space	n/a
501.919	0.09	1003838	keystroke_i	i	n/a
502.054	0.075	1004108	keystroke_n	n	n/a
502.174	0.12	1004348	keystroke_t	t	n/a
502.339	0.075	1004678	keystroke_h	h	n/a
503.179	0.075	1006358	keystroke_Key.backspace	Key.backspace	n/a
503.344	0.075	1006688	keystroke_Key.backspace	Key.backspace	n/a
503.509	0.105	1007018	keystroke_r	r	n/a
503.599	0.09	1007198	keystroke_o	o	n/a
504.259	0.0895	1008518	keystroke_Key.enter	Key.enter	n/a
504.3555	6.85	1008711	prompt	n/a	substances tricks urls trucks\n
505.0995	0.135	1010199	keystroke_s	s	n/a
505.1895	0.046	1010379	keystroke_u	u	n/a
505.3835	0.075	1010767	keystroke_b	b	n/a
505.6685	0.12	1011337	keystroke_s	s	n/a
505.8795	0.12	1011759	keystroke_t	t	n/a
505.9695	0.134	1011939	keystroke_a	a	n/a
506.1185	0.076	1012237	keystroke_n	n	n/a
506.2395	0.105	1012479	keystroke_c	c	n/a
506.4195	0.075	1012839	keystroke_e	e	n/a
506.5985	0.121	1013197	keystroke_s	s	n/a
506.7035	0.105	1013407	keystroke_Key.space	Key.space	n/a
506.8995	0.075	1013799	keystroke_t	t	n/a
507.0935	0.121	1014187	keystroke_r	r	n/a
507.1995	0.074	1014399	keystroke_i	i	n/a
507.3485	0.12	1014697	keystroke_c	c	n/a
507.4995	0.089	1014999	keystroke_k	k	n/a
507.6035	0.12	1015207	keystroke_s	s	n/a
507.7385	0.105	1015477	keystroke_Key.space	Key.space	n/a
508.0085	0.075	1016017	keystroke_u	u	n/a
508.1735	0.106	1016347	keystroke_r	r	n/a
508.3395	0.104	1016679	keystroke_l	l	n/a
508.5045	0.105	1017009	keystroke_s	s	n/a
508.6535	0.12	1017307	keystroke_Key.space	Key.space	n/a
508.8785	0.06	1017757	keystroke_t	t	n/a
509.0435	0.105	1018087	keystroke_r	r	n/a
509.1635	0.045	1018327	keystroke_u	u	n/a
509.5695	0.12	1019139	keystroke_c	c	n/a
509.8245	0.105	1019649	keystroke_k	k	n/a
510.0335	0.12	1020067	keystroke_s	s	n/a
511.1135	0.09	1022227	keystroke_Key.enter	Key.enter	n/a
511.2105	11.4705	1022421	prompt	n/a	exam fioricet upgrade dark\n
511.9245	0.06	1023849	keystroke_e	e	n/a
512.1185	0.09	1024237	keystroke_x	x	n/a
512.2985	0.12	1024597	keystroke_a	a	n/a
512.4045	0.09	1024809	keystroke_m	m	n/a
512.5235	0.12	1025047	keystroke_Key.space	Key.space	n/a
512.8385	0.135	1025677	keystroke_f	f	n/a
512.9585	0.061	1025917	keystroke_i	i	n/a
513.3335	0.091	1026667	keystroke_o	o	n/a
514.5795	0.119	1029159	keystroke_r	r	n/a
514.7285	0.076	1029457	keystroke_i	i	n/a
514.8795	0.074	1029759	keystroke_c	c	n/a
515.1495	0.014	1030299	keystroke_e	e	n/a
515.2095	0.105	1030419	keystroke_t	t	n/a
515.3285	0.105	1030657	keystroke_Key.space	Key.space	n/a
515.5995	0.075	1031199	keystroke_u	u	n/a
515.7645	0.105	1031529	keystroke_p	p	n/a
516.2585	0.106	1032517	keystroke_g	g	n/a
516.7395	0.135	1033479	keystroke_r	r	n/a
516.8885	0.121	1033777	keystroke_a	a	n/a
517.0995	0.104	1034199	keystroke_d	d	n/a
517.1145	0.074	1034229	keystroke_s	s	n/a
517.2945	0.105	1034589	keystroke_e	e	n/a
517.4285	0.12	1034857	keystroke_Key.space	Key.space	n/a
518.524	0.09	1037048	keystroke_Key.backspace	Key.backspace	n/a
518.839	0.075	1037678	keystroke_Key.backspace	Key.backspace	n/a
519.439	0.09	1038878	keystroke_Key.backspace	Key.backspace	n/a
520.355	0.089	1040710	keystroke_e	e	n/a
521.059	0.135	1042118	keystroke_Key.space	Key.space	n/a
521.224	0.105	1042448	keystroke_d	d	n/a
521.404	0.165	1042808	keystroke_a	a	n/a
521.8085	0.105	1043617	keystroke_r	r	n/a
522.0935	0.12	1044187	keystroke_k	k	n/a
522.5885	0.09	1045177	keystroke_Key.enter	Key.enter	n/a
522.6865	7.494	1045373	prompt	n/a	news marketplace jennifer belkin\n
523.6235	0.09	1047247	keystroke_n	n	n/a
523.7585	0.165	1047517	keystroke_e	e	n/a
523.8935	0.105	1047787	keystroke_w	w	n/a
524.5985	0.105	1049197	keystroke_s	s	n/a
524.7185	0.12	1049437	keystroke_Key.space	Key.space	n/a
524.9285	0.09	1049857	keystroke_m	m	n/a
525.0335	0.165	1050067	keystroke_a	a	n/a
525.1685	0.12	1050337	keystroke_r	r	n/a
525.3335	0.105	1050667	keystroke_k	k	n/a
525.4235	0.105	1050847	keystroke_e	e	n/a
525.5745	0.089	1051149	keystroke_t	t	n/a
526.0685	0.09	1052137	keystroke_p	p	n/a
526.2785	0.09	1052557	keystroke_l	l	n/a
526.3535	0.105	1052707	keystroke_a	a	n/a
526.5785	0.09	1053157	keystroke_c	c	n/a
526.7435	0.105	1053487	keystroke_e	e	n/a
526.8495	0.119	1053699	keystroke_Key.space	Key.space	n/a
527.3885	0.09	1054777	keystroke_j	j	n/a
527.6735	0.12	1055347	keystroke_e	e	n/a
527.9885	0.045	1055977	keystroke_n	n	n/a
528.1385	0.06	1056277	keystroke_n	n	n/a
528.2885	0.09	1056577	keystroke_i	i	n/a
528.4685	0.075	1056937	keystroke_f	f	n/a
528.6185	0.195	1057237	keystroke_e	e	n/a
528.7535	0.12	1057507	keystroke_r	r	n/a
528.8735	0.105	1057747	keystroke_Key.space	Key.space	n/a
529.1585	0.06	1058317	keystroke_b	b	n/a
529.3685	0.09	1058737	keystroke_e	e	n/a
529.4885	0.105	1058977	keystroke_l	l	n/a
529.7135	0.045	1059427	keystroke_k	k	n/a
529.8635	0.105	1059727	keystroke_i	i	n/a
529.9385	0.06	1059877	keystroke_n	n	n/a
530.1185	0.06	1060237	keystroke_Key.enter	Key.enter	n/a
530.185	6.2965	1060370	prompt	n/a	glenn rest medium teacher\n
530.9435	0.105	1061887	keystroke_g	g	n/a
531.6335	0.09	1063267	keystroke_l	l	n/a
531.7535	0.091	1063507	keystroke_e	e	n/a
531.9185	0.06	1063837	keystroke_n	n	n/a
532.0385	0.075	1064077	keystroke_n	n	n/a
532.1585	0.09	1064317	keystroke_Key.space	Key.space	n/a
532.3685	0.15	1064737	keystroke_r	r	n/a
532.4585	0.135	1064917	keystroke_e	e	n/a
532.6985	0.195	1065397	keystroke_s	s	n/a
532.8485	0.15	1065697	keystroke_t	t	n/a
532.9235	0.15	1065847	keystroke_Key.space	Key.space	n/a
533.9735	0.075	1067947	keystroke_m	m	n/a
534.0635	0.06	1068127	keystroke_e	e	n/a
534.2735	0.106	1068547	keystroke_d	d	n/a
534.3635	0.075	1068727	keystroke_i	i	n/a
534.7085	0.045	1069417	keystroke_u	u	n/a
534.9035	0.06	1069807	keystroke_m	m	n/a
535.0235	0.075	1070047	keystroke_Key.space	Key.space	n/a
535.2185	0.105	1070437	keystroke_t	t	n/a
535.2785	0.195	1070557	keystroke_e	e	n/a
535.4585	0.15	1070917	keystroke_a	a	n/a
535.7435	0.09	1071487	keystroke_c	c	n/a
535.7885	0.06	1071577	keystroke_h	h	n/a
535.9385	0.15	1071877	keystroke_e	e	n/a
536.0285	0.105	1072057	keystroke_r	r	n/a
536.4185	0.06	1072837	keystroke_'	'	n/a
536.4335	0.046	1072867	keystroke_Key.enter	Key.enter	n/a
536.487	7.7335	1072974	prompt	n/a	compiled arise karaoke who'd've\n
537.6185	0.105	1075237	keystroke_c	c	n/a
537.7085	0.091	1075417	keystroke_o	o	n/a
537.7845	0.119	1075569	keystroke_m	m	n/a
537.9935	0.09	1075987	keystroke_p	p	n/a
538.4745	0.059	1076949	keystroke_i	i	n/a
538.6685	0.105	1077337	keystroke_l	l	n/a
538.8035	0.06	1077607	keystroke_e	e	n/a
538.9685	0.106	1077937	keystroke_d	d	n/a
539.1035	0.105	1078207	keystroke_Key.space	Key.space	n/a
539.2685	0.136	1078537	keystroke_a	a	n/a
539.5235	0.105	1079047	keystroke_r	r	n/a
539.6585	0.12	1079317	keystroke_i	i	n/a
539.8985	0.15	1079797	keystroke_s	s	n/a
540.6045	0.059	1081209	keystroke_e	e	n/a
540.7235	0.105	1081447	keystroke_Key.space	Key.space	n/a
541.0985	0.09	1082197	keystroke_k	k	n/a
541.2345	0.134	1082469	keystroke_a	a	n/a
541.4585	0.121	1082917	keystroke_r	r	n/a
541.5635	0.15	1083127	keystroke_a	a	n/a
541.7285	0.09	1083457	keystroke_o	o	n/a
541.9385	0.09	1083877	keystroke_k	k	n/a
542.0745	0.104	1084149	keystroke_e	e	n/a
542.1935	0.105	1084387	keystroke_Key.space	Key.space	n/a
542.4035	0.12	1084807	keystroke_w	w	n/a
542.5385	0.06	1085077	keystroke_h	h	n/a
542.6585	0.105	1085317	keystroke_o	o	n/a
542.9435	0.135	1085887	keystroke_'	'	n/a
543.1695	0.09	1086339	keystroke_d	d	n/a
543.3335	0.091	1086667	keystroke_'	'	n/a
543.5885	0.12	1087177	keystroke_v	v	n/a
543.8435	0.091	1087687	keystroke_e	e	n/a
544.1435	0.075	1088287	keystroke_Key.enter	Key.enter	n/a
544.225	7.136	1088450	prompt	n/a	named kiss biggest photos\n
545.0745	0.074	1090149	keystroke_n	n	n/a
545.1785	0.135	1090357	keystroke_a	a	n/a
545.2835	0.075	1090567	keystroke_m	m	n/a
545.3885	0.09	1090777	keystroke_e	e	n/a
545.5535	0.121	1091107	keystroke_d	d	n/a
545.6585	0.12	1091317	keystroke_Key.space	Key.space	n/a
545.8085	0.075	1091617	keystroke_k	k	n/a
546.0035	0.076	1092007	keystroke_i	i	n/a
546.1985	0.06	1092397	keystroke_l	l	n/a
546.9185	0.075	1093837	keystroke_Key.backspace	Key.backspace	n/a
547.2045	0.06	1094409	keystroke_s	s	n/a
547.4285	0.106	1094857	keystroke_s	s	n/a
547.6235	0.12	1095247	keystroke_Key.space	Key.space	n/a
547.8935	0.06	1095787	keystroke_b	b	n/a
548.0745	0.075	1096149	keystroke_i	i	n/a
548.2545	0.059	1096509	keystroke_g	g	n/a
548.3895	0.059	1096779	keystroke_g	g	n/a
548.5235	0.15	1097047	keystroke_e	e	n/a
548.7795	0.179	1097559	keystroke_s	s	n/a
548.9435	0.136	1097887	keystroke_t	t	n/a
549.0495	0.089	1098099	keystroke_Key.space	Key.space	n/a
549.3035	0.09	1098607	keystroke_p	p	n/a
549.4985	0.046	1098997	keystroke_h	h	n/a
549.6035	0.106	1099207	keystroke_o	o	n/a
549.7985	0.076	1099597	keystroke_t	t	n/a
549.9185	0.106	1099837	keystroke_o	o	n/a
550.0385	0.09	1100077	keystroke_s	s	n/a
550.1735	0.105	1100347	keystroke_Key.space	Key.space	n/a
551.2685	0.09	1102537	keystroke_Key.enter	Key.enter	n/a
551.365	8.638	1102730	prompt	n/a	antique editorials judges products\n
552.2285	0.1505	1104457	keystroke_a	a	n/a
552.348	0.0915	1104696	keystroke_n	n	n/a
552.484	0.074	1104968	keystroke_t	t	n/a
552.574	0.104	1105148	keystroke_i	i	n/a
552.949	0.134	1105898	keystroke_q	q	n/a
553.098	0.0605	1106196	keystroke_u	u	n/a
553.3395	0.1185	1106679	keystroke_e	e	n/a
553.578	0.135	1107156	keystroke_Key.space	Key.space	n/a
553.863	0.075	1107726	keystroke_e	e	n/a
554.809	0.09	1109618	keystroke_d	d	n/a
554.9	0.058	1109800	keystroke_i	i	n/a
555.079	0.089	1110158	keystroke_t	t	n/a
555.364	0.105	1110728	keystroke_o	o	n/a
555.544	0.089	1111088	keystroke_r	r	n/a
555.634	0.105	1111268	keystroke_i	i	n/a
555.828	0.136	1111656	keystroke_a	a	n/a
555.979	0.104	1111958	keystroke_l	l	n/a
556.098	0.106	1112196	keystroke_s	s	n/a
556.278	0.15	1112556	keystroke_Key.space	Key.space	n/a
556.504	0.06	1113008	keystroke_j	j	n/a
556.774	0.059	1113548	keystroke_u	u	n/a
556.908	0.09	1113816	keystroke_d	d	n/a
557.134	0.074	1114268	keystroke_g	g	n/a
557.269	0.134	1114538	keystroke_e	e	n/a
557.509	0.12	1115018	keystroke_s	s	n/a
557.643	0.135	1115286	keystroke_Key.space	Key.space	n/a
557.898	0.106	1115796	keystroke_p	p	n/a
558.078	0.136	1116156	keystroke_r	r	n/a
558.199	0.075	1116398	keystroke_o	o	n/a
558.798	0.091	1117596	keystroke_d	d	n/a
558.903	0.075	1117806	keystroke_u	u	n/a
559.083	0.061	1118166	keystroke_c	c	n/a
559.264	0.105	1118528	keystroke_t	t	n/a
559.458	0.106	1118916	keystroke_s	s	n/a
559.893	0.105	1119786	keystroke_Key.enter	Key.enter	n/a
560.0085	9.248	1120017	prompt	n/a	impression bingo appreciated funeral\n
560.749	0.075	1121498	keystroke_i	i	n/a
560.899	0.104	1121798	keystroke_m	m	n/a
561.199	0.015	1122398	keystroke_p	p	n/a
561.304	0.165	1122608	keystroke_r	r	n/a
561.393	0.121	1122786	keystroke_e	e	n/a
561.664	0.075	1123328	keystroke_s	s	n/a
561.799	0.134	1123598	keystroke_s	s	n/a
561.949	0.119	1123898	keystroke_i	i	n/a
562.083	0.165	1124166	keystroke_o	o	n/a
562.173	0.091	1124346	keystroke_n	n	n/a
562.653	0.105	1125306	keystroke_Key.space	Key.space	n/a
563.044	0.075	1126088	keystroke_b	b	n/a
563.209	0.09	1126418	keystroke_i	i	n/a
563.389	0.075	1126778	keystroke_n	n	n/a
563.584	0.12	1127168	keystroke_g	g	n/a
564.244	0.09	1128488	keystroke_o	o	n/a
564.364	0.119	1128728	keystroke_Key.space	Key.space	n/a
564.619	0.134	1129238	keystroke_a	a	n/a
564.799	0.09	1129598	keystroke_p	p	n/a
564.979	0.075	1129958	keystroke_p	p	n/a
565.144	0.21	1130288	keystroke_r	r	n/a
565.309	0.09	1130618	keystroke_e	e	n/a
565.534	0.134	1131068	keystroke_c	c	n/a
565.684	0.09	1131368	keystroke_i	i	n/a
565.819	0.24	1131638	keystroke_a	a	n/a
566.014	0.195	1132028	keystroke_t	t	n/a
566.134	0.135	1132268	keystroke_e	e	n/a
566.374	0.105	1132748	keystroke_d	d	n/a
566.509	0.104	1133018	keystroke_Key.space	Key.space	n/a
566.704	0.135	1133408	keystroke_f	f	n/a
566.809	0.045	1133618	keystroke_u	u	n/a
566.989	0.09	1133978	keystroke_n	n	n/a
567.064	0.105	1134128	keystroke_e	e	n/a
567.244	0.12	1134488	keystroke_r	r	n/a
567.349	0.149	1134698	keystroke_a	a	n/a
567.484	0.105	1134968	keystroke_l	l	n/a
567.754	0.06	1135508	keystroke_]	]	n/a
568.624	0.09	1137248	keystroke_Key.backspace	Key.backspace	n/a
569.164	0.09	1138328	keystroke_Key.enter	Key.enter	n/a
569.2615	10.1045	1138523	prompt	n/a	nova video scottish alerts\n
570.1545	0.089	1140309	keystroke_n	n	n/a
570.3935	0.106	1140787	keystroke_o	o	n/a
570.5435	0.121	1141087	keystroke_v	v	n/a
570.6335	0.195	1141267	keystroke_a	a	n/a
570.7835	0.12	1141567	keystroke_Key.space	Key.space	n/a
571.0685	0.105	1142137	keystroke_v	v	n/a
571.1885	0.09	1142377	keystroke_i	i	n/a
571.3085	0.06	1142617	keystroke_d	d	n/a
571.4585	0.075	1142917	keystroke_e	e	n/a
571.7585	0.105	1143517	keystroke_o	o	n/a
571.8935	0.135	1143787	keystroke_Key.space	Key.space	n/a
572.1185	0.09	1144237	keystroke_s	s	n/a
572.3585	0.105	1144717	keystroke_c	c	n/a
572.4785	0.12	1144957	keystroke_o	o	n/a
572.6885	0.06	1145377	keystroke_t	t	n/a
572.8085	0.075	1145617	keystroke_t	t	n/a
572.9135	0.12	1145827	keystroke_i	i	n/a
573.1085	0.09	1146217	keystroke_s	s	n/a
573.3185	0.075	1146637	keystroke_h	h	n/a
573.5585	0.15	1147117	keystroke_Key.space	Key.space	n/a
575.9015	0.057	1151803	keystroke_s	s	n/a
576.8285	0.075	1153657	keystroke_Key.backspace	Key.backspace	n/a
577.0235	0.135	1154047	keystroke_a	a	n/a
577.4585	0.105	1154917	keystroke_l	l	n/a
577.6985	0.165	1155397	keystroke_e	e	n/a
577.8185	0.105	1155637	keystroke_r	r	n/a
578.1935	0.105	1156387	keystroke_t	t	n/a
578.4035	0.105	1156807	keystroke_s	s	n/a
579.2585	0.105	1158517	keystroke_Key.enter	Key.enter	n/a
579.3735	6.0225	1158747	prompt	n/a	depth taught lance clark\n
580.0685	0.045	1160137	keystroke_d	d	n/a
580.2185	0.075	1160437	keystroke_e	e	n/a
580.3835	0.12	1160767	keystroke_p	p	n/a
580.5485	0.075	1161097	keystroke_t	t	n/a
580.6535	0.075	1161307	keystroke_h	h	n/a
581.1185	0.105	1162237	keystroke_Key.space	Key.space	n/a
581.4035	0.075	1162807	keystroke_t	t	n/a
581.7035	0.15	1163407	keystroke_a	a	n/a
581.8685	0.045	1163737	keystroke_u	u	n/a
581.9435	0.06	1163887	keystroke_g	g	n/a
582.0485	0.091	1164097	keystroke_h	h	n/a
582.2285	0.075	1164457	keystroke_t	t	n/a
582.7535	0.12	1165507	keystroke_Key.space	Key.space	n/a
583.1285	0.105	1166257	keystroke_l	l	n/a
583.2495	0.119	1166499	keystroke_a	a	n/a
583.3985	0.075	1166797	keystroke_n	n	n/a
583.5035	0.061	1167007	keystroke_c	c	n/a
583.6685	0.09	1167337	keystroke_e	e	n/a
583.7435	0.105	1167487	keystroke_Key.space	Key.space	n/a
584.0885	0.09	1168177	keystroke_c	c	n/a
584.1935	0.105	1168387	keystroke_l	l	n/a
584.3285	0.18	1168657	keystroke_a	a	n/a
584.4935	0.075	1168987	keystroke_r	r	n/a
584.7785	0.105	1169557	keystroke_k	k	n/a
585.3185	0.075	1170637	keystroke_Key.enter	Key.enter	n/a
585.4	5.9205	1170800	prompt	n/a	silence nuke ranks reforms\n
586.0395	0.134	1172079	keystroke_s	s	n/a
586.2185	0.076	1172437	keystroke_i	i	n/a
586.8785	0.1195	1173757	keystroke_l	l	n/a
587.014	0.044	1174028	keystroke_e	e	n/a
587.193	0.075	1174386	keystroke_n	n	n/a
587.328	0.06	1174656	keystroke_c	c	n/a
587.493	0.076	1174986	keystroke_e	e	n/a
587.613	0.075	1175226	keystroke_Key.space	Key.space	n/a
587.898	0.075	1175796	keystroke_n	n	n/a
588.093	0.046	1176186	keystroke_u	u	n/a
588.258	0.09	1176516	keystroke_k	k	n/a
588.364	0.104	1176728	keystroke_e	e	n/a
588.498	0.09	1176996	keystroke_Key.space	Key.space	n/a
588.708	0.135	1177416	keystroke_r	r	n/a
588.828	0.135	1177656	keystroke_a	a	n/a
588.933	0.106	1177866	keystroke_n	n	n/a
589.189	0.089	1178378	keystroke_k	k	n/a
589.338	0.09	1178676	keystroke_s	s	n/a
589.443	0.09	1178886	keystroke_Key.space	Key.space	n/a
589.653	0.135	1179306	keystroke_r	r	n/a
589.743	0.135	1179486	keystroke_e	e	n/a
590.149	0.104	1180298	keystroke_f	f	n/a
590.269	0.135	1180538	keystroke_o	o	n/a
590.388	0.12	1180776	keystroke_r	r	n/a
590.718	0.09	1181436	keystroke_m	m	n/a
590.883	0.105	1181766	keystroke_s	s	n/a
591.228	0.09	1182456	keystroke_Key.enter	Key.enter	n/a
591.3245	11.4265	1182649	prompt	n/a	terminals subscribers aquarium selected\n
592.189	0.074	1184378	keystroke_t	t	n/a
592.353	0.15	1184706	keystroke_e	e	n/a
592.578	0.105	1185156	keystroke_r	r	n/a
592.743	0.076	1185486	keystroke_m	m	n/a
592.893	0.18	1185786	keystroke_i	i	n/a
593.044	0.089	1186088	keystroke_n	n	n/a
593.178	0.151	1186356	keystroke_a	a	n/a
593.33	0.089	1186660	keystroke_l	l	n/a
593.478	0.105	1186956	keystroke_s	s	n/a
594.093	0.105	1188186	keystroke_Key.space	Key.space	n/a
594.363	0.12	1188726	keystroke_s	s	n/a
594.484	0.059	1188968	keystroke_u	u	n/a
594.678	0.076	1189356	keystroke_b	b	n/a
594.873	0.09	1189746	keystroke_s	s	n/a
595.099	0.09	1190198	keystroke_c	c	n/a
595.849	0.089	1191698	keystroke_r	r	n/a
595.969	0.089	1191938	keystroke_i	i	n/a
596.658	0.09	1193316	keystroke_b	b	n/a
596.988	0.135	1193976	keystroke_e	e	n/a
597.094	0.089	1194188	keystroke_r	r	n/a
597.828	0.106	1195656	keystroke_s	s	n/a
597.979	0.089	1195958	keystroke_Key.space	Key.space	n/a
598.534	0.15	1197068	keystroke_a	a	n/a
598.909	0.105	1197818	keystroke_q	q	n/a
599.058	0.076	1198116	keystroke_u	u	n/a
599.359	0.135	1198718	keystroke_a	a	n/a
599.614	0.105	1199228	keystroke_r	r	n/a
599.704	0.09	1199408	keystroke_i	i	n/a
599.929	0.044	1199858	keystroke_u	u	n/a
600.108	0.076	1200216	keystroke_m	m	n/a
600.558	0.12	1201116	keystroke_Key.space	Key.space	n/a
600.903	0.12	1201806	keystroke_s	s	n/a
601.069	0.075	1202138	keystroke_e	e	n/a
601.188	0.121	1202376	keystroke_l	l	n/a
601.264	0.089	1202528	keystroke_e	e	n/a
601.489	0.12	1202978	keystroke_c	c	n/a
601.668	0.181	1203336	keystroke_t	t	n/a
601.773	0.136	1203546	keystroke_e	e	n/a
601.999	0.105	1203998	keystroke_d	d	n/a
602.659	0.089	1205318	keystroke_Key.enter	Key.enter	n/a
602.7575	6.443	1205515	prompt	n/a	fabric perfume unusual excellent\n
603.394	0.12	1206788	keystroke_f	f	n/a
603.528	0.151	1207056	keystroke_a	a	n/a
603.694	0.09	1207388	keystroke_b	b	n/a
603.889	0.089	1207778	keystroke_r	r	n/a
604.009	0.075	1208018	keystroke_i	i	n/a
604.189	0.12	1208378	keystroke_c	c	n/a
604.323	0.105	1208646	keystroke_Key.space	Key.space	n/a
604.639	0.09	1209278	keystroke_p	p	n/a
604.773	0.181	1209546	keystroke_e	e	n/a
604.864	0.12	1209728	keystroke_r	r	n/a
605.134	0.15	1210268	keystroke_f	f	n/a
605.268	0.046	1210536	keystroke_u	u	n/a
605.434	0.089	1210868	keystroke_m	m	n/a
605.554	0.119	1211108	keystroke_e	e	n/a
605.688	0.121	1211376	keystroke_Key.space	Key.space	n/a
605.869	0.045	1211738	keystroke_u	u	n/a
606.049	0.09	1212098	keystroke_n	n	n/a
606.453	0.09	1212906	keystroke_u	u	n/a
606.859	0.12	1213718	keystroke_s	s	n/a
606.949	0.075	1213898	keystroke_u	u	n/a
607.069	0.135	1214138	keystroke_a	a	n/a
607.189	0.075	1214378	keystroke_l	l	n/a
607.323	0.121	1214646	keystroke_Key.space	Key.space	n/a
607.563	0.061	1215126	keystroke_e	e	n/a
607.759	0.105	1215518	keystroke_x	x	n/a
607.969	0.075	1215938	keystroke_c	c	n/a
608.149	0.105	1216298	keystroke_e	e	n/a
608.314	0.06	1216628	keystroke_l	l	n/a
608.464	0.075	1216928	keystroke_l	l	n/a
608.569	0.12	1217138	keystroke_e	e	n/a
608.674	0.09	1217348	keystroke_n	n	n/a
608.809	0.075	1217618	keystroke_t	t	n/a
609.109	0.09	1218218	keystroke_Key.enter	Key.enter	n/a
609.2055	5.0515	1218411	prompt	n/a	wound mold there's skirt\n
609.859	0.105	1219718	keystroke_w	w	n/a
610.024	0.105	1220048	keystroke_o	o	n/a
610.099	0.09	1220198	keystroke_u	u	n/a
610.354	0.09	1220708	keystroke_n	n	n/a
610.489	0.09	1220978	keystroke_d	d	n/a
610.594	0.105	1221188	keystroke_Key.space	Key.space	n/a
610.954	0.09	1221908	keystroke_m	m	n/a
611.119	0.09	1222238	keystroke_o	o	n/a
611.314	0.09	1222628	keystroke_l	l	n/a
611.419	0.105	1222838	keystroke_d	d	n/a
611.509	0.075	1223018	keystroke_Key.space	Key.space	n/a
611.719	0.09	1223438	keystroke_t	t	n/a
611.794	0.075	1223588	keystroke_h	h	n/a
611.929	0.135	1223858	keystroke_e	e	n/a
612.049	0.09	1224098	keystroke_r	r	n/a
612.124	0.06	1224248	keystroke_e	e	n/a
612.484	0.105	1224968	keystroke_'	'	n/a
612.679	0.135	1225358	keystroke_s	s	n/a
613.009	0.12	1226018	keystroke_Key.space	Key.space	n/a
613.549	0.135	1227098	keystroke_s	s	n/a
613.669	0.06	1227338	keystroke_k	k	n/a
613.834	0.075	1227668	keystroke_i	i	n/a
613.894	0.06	1227788	keystroke_r	r	n/a
614.029	0.09	1228058	keystroke_t	t	n/a
614.164	0.09	1228328	keystroke_Key.enter	Key.enter	n/a
614.264	8.527	1228528	prompt	n/a	dubai arrest exercises sapphire\n
614.989	0.12	1229978	keystroke_d	d	n/a
