onset	duration	sample	value	key	prompt_text
23.6295	19.474	47259	prompt	n/a	the quick brown fox jumps over a lazy dog\n
26.499	0.027	52998	keystroke_t	t	n/a
26.66	0.12	53320	keystroke_h	h	n/a
26.81	0.12	53620	keystroke_e	e	n/a
27.035	0.15	54070	keystroke_Key.space	Key.space	n/a
28.175	0.12	56350	keystroke_q	q	n/a
28.28	0.121	56560	keystroke_u	u	n/a
28.34	0.18	56680	keystroke_i	i	n/a
28.85	0.09	57700	keystroke_c	c	n/a
29.03	0.091	58060	keystroke_k	k	n/a
29.975	0.105	59950	keystroke_Key.space	Key.space	n/a
30.246	0.105	60492	keystroke_b	b	n/a
30.365	0.12	60730	keystroke_r	r	n/a
30.575	0.091	61150	keystroke_o	o	n/a
30.77	0.105	61540	keystroke_w	w	n/a
30.89	0.075	61780	keystroke_n	n	n/a
31.385	0.135	62770	keystroke_Key.space	Key.space	n/a
31.625	0.1055	63250	keystroke_f	f	n/a
31.7155	0.12	63431	keystroke_o	o	n/a
31.8505	0.135	63701	keystroke_x	x	n/a
32.7205	0.105	65441	keystroke_Key.space	Key.space	n/a
33.7855	0.09	67571	keystroke_j	j	n/a
34.0555	0.12	68111	keystroke_u	u	n/a
34.8505	0.06	69701	keystroke_m	m	n/a
35.1055	0.105	70211	keystroke_p	p	n/a
37.01	0.106	74020	keystroke_s	s	n/a
37.325	0.105	74650	keystroke_Key.space	Key.space	n/a
37.686	0.089	75372	keystroke_o	o	n/a
38.015	0.075	76030	keystroke_v	v	n/a
38.181	0.105	76362	keystroke_e	e	n/a
38.271	0.15	76542	keystroke_r	r	n/a
38.405	0.12	76810	keystroke_Key.space	Key.space	n/a
39.71	0.1205	79420	keystroke_a	a	n/a
40.0405	0.12	80081	keystroke_Key.space	Key.space	n/a
40.2355	0.09	80471	keystroke_l	l	n/a
40.3555	0.09	80711	keystroke_a	a	n/a
40.5805	0.15	81161	keystroke_z	z	n/a
40.8505	0.105	81701	keystroke_y	y	n/a
41.6005	0.12	83201	keystroke_Key.space	Key.space	n/a
41.8555	0.105	83711	keystroke_d	d	n/a
41.9305	0.09	83861	keystroke_o	o	n/a
42.0805	0.105	84161	keystroke_g	g	n/a
43.0405	0.06	86081	keystroke_Key.enter	Key.enter	n/a
43.109	6.204	86218	prompt	n/a	basin very ross myth\n
44.5855	0.09	89171	keystroke_b	b	n/a
44.7505	0.12	89501	keystroke_a	a	n/a
45.0205	0.105	90041	keystroke_s	s	n/a
45.1405	0.15	90281	keystroke_i	i	n/a
45.2005	0.135	90401	keystroke_n	n	n/a
45.5755	0.105	91151	keystroke_Key.space	Key.space	n/a
45.9055	0.075	91811	keystroke_v	v	n/a
46.1755	0.135	92351	keystroke_e	e	n/a
46.2655	0.12	92531	keystroke_r	r	n/a
46.4755	0.105	92951	keystroke_y	y	n/a
46.7455	0.12	93491	keystroke_Key.space	Key.space	n/a
47.0155	0.09	94031	keystroke_r	r	n/a
47.1355	0.105	94271	keystroke_o	o	n/a
47.2855	0.075	94571	keystroke_s	s	n/a
47.4505	0.12	94901	keystroke_s	s	n/a
47.6755	0.09	95351	keystroke_Key.space	Key.space	n/a
47.8555	0.075	95711	keystroke_m	m	n/a
48.2455	0.105	96491	keystroke_y	y	n/a
48.4705	0.06	96941	keystroke_t	t	n/a
48.5755	0.075	97151	keystroke_h	h	n/a
49.2205	0.09	98441	keystroke_Key.enter	Key.enter	n/a
49.3185	12.2045	98637	prompt	n/a	folders return solve ralph\n
50.9455	0.12	101891	keystroke_f	f	n/a
51.0205	0.075	102041	keystroke_o	o	n/a
51.2305	0.12	102461	keystroke_l	l	n/a
52.7755	0.09	105551	keystroke_d	d	n/a
53.4655	0.15	106931	keystroke_e	e	n/a
53.5555	0.15	107111	keystroke_r	r	n/a
53.8555	0.12	107711	keystroke_s	s	n/a
54.9205	0.12	109841	keystroke_Key.space	Key.space	n/a
55.2055	0.165	110411	keystroke_r	r	n/a
55.3255	0.105	110651	keystroke_e	e	n/a
55.4905	0.105	110981	keystroke_t	t	n/a
55.6405	0.105	111281	keystroke_u	u	n/a
55.7755	0.105	111551	keystroke_r	r	n/a
55.9265	0.089	111853	keystroke_n	n	n/a
56.1355	0.135	112271	keystroke_Key.space	Key.space	n/a
56.5705	0.135	113141	keystroke_s	s	n/a
56.6605	0.09	113321	keystroke_o	o	n/a
56.8705	0.105	113741	keystroke_l	l	n/a
57.3505	0.075	114701	keystroke_v	v	n/a
57.6655	0.09	115331	keystroke_e	e	n/a
58.2505	0.12	116501	keystroke_Key.space	Key.space	n/a
58.4305	0.135	116861	keystroke_r	r	n/a
58.6255	0.15	117251	keystroke_a	a	n/a
59.5105	0.105	119021	keystroke_l	l	n/a
60.006	0.135	120012	keystroke_p	p	n/a
60.096	0.09	120192	keystroke_h	h	n/a
61.4605	0.06	122921	keystroke_Key.enter	Key.enter	n/a
61.528	9.34	123056	prompt	n/a	grove admissions berry victor\n
62.6305	0.105	125261	keystroke_g	g	n/a
62.8855	0.18	125771	keystroke_r	r	n/a
63.0355	0.075	126071	keystroke_o	o	n/a
63.3355	0.09	126671	keystroke_v	v	n/a
63.5305	0.135	127061	keystroke_e	e	n/a
63.7105	0.15	127421	keystroke_Key.space	Key.space	n/a
63.9655	0.105	127931	keystroke_a	a	n/a
64.1305	0.135	128261	keystroke_d	d	n/a
64.3405	0.105	128681	keystroke_m	m	n/a
64.5655	0.105	129131	keystroke_i	i	n/a
64.8955	0.09	129791	keystroke_s	s	n/a
65.4205	0.105	130841	keystroke_s	s	n/a
65.6305	0.1805	131261	keystroke_i	i	n/a
65.736	0.195	131472	keystroke_o	o	n/a
65.886	0.12	131772	keystroke_n	n	n/a
66.1565	0.119	132313	keystroke_s	s	n/a
66.4105	0.12	132821	keystroke_Key.space	Key.space	n/a
66.7255	0.135	133451	keystroke_b	b	n/a
66.8455	0.181	133691	keystroke_e	e	n/a
67.2805	0.075	134561	keystroke_r	r	n/a
67.4305	0.106	134861	keystroke_r	r	n/a
67.6415	0.089	135283	keystroke_y	y	n/a
67.9255	0.15	135851	keystroke_Key.space	Key.space	n/a
68.6155	0.105	137231	keystroke_v	v	n/a
68.7655	0.09	137531	keystroke_i	i	n/a
68.9005	0.105	137801	keystroke_c	c	n/a
69.936	0.1045	139872	keystroke_t	t	n/a
70.1005	0.075	140201	keystroke_o	o	n/a
70.1905	0.105	140381	keystroke_r	r	n/a
70.8205	0.0455	141641	keystroke_Key.enter	Key.enter	n/a
70.872	11.561	141744	prompt	n/a	fork summit nominated during\n
71.9005	0.105	143801	keystroke_f	f	n/a
72.0065	0.104	144013	keystroke_o	o	n/a
72.1405	0.1055	144281	keystroke_r	r	n/a
72.2905	0.105	144581	keystroke_k	k	n/a
72.5605	0.12	145121	keystroke_Key.space	Key.space	n/a
72.7405	0.135	145481	keystroke_s	s	n/a
72.8455	0.09	145691	keystroke_u	u	n/a
73.101	0.0895	146202	keystroke_m	m	n/a
73.2505	0.09	146501	keystroke_m	m	n/a
73.4455	0.105	146891	keystroke_i	i	n/a
73.6105	0.12	147221	keystroke_t	t	n/a
73.7755	0.12	147551	keystroke_Key.space	Key.space	n/a
74.5865	0.164	149173	keystroke_n	n	n/a
74.7055	0.105	149411	keystroke_o	o	n/a
74.9305	0.09	149861	keystroke_m	m	n/a
75.1705	0.105	150341	keystroke_i	i	n/a
75.891	0.09	151782	keystroke_n	n	n/a
76.026	0.06	152052	keystroke_a	a	n/a
76.236	0.165	152472	keystroke_t	t	n/a
76.386	0.105	152772	keystroke_e	e	n/a
76.596	0.105	153192	keystroke_d	d	n/a
77.225	0.106	154450	keystroke_Key.space	Key.space	n/a
77.586	0.09	155172	keystroke_f	f	n/a
78.006	0.09	156012	keystroke_u	u	n/a
78.186	0.105	156372	keystroke_r	r	n/a
78.366	0.165	156732	keystroke_i	i	n/a
78.441	0.15	156882	keystroke_n	n	n/a
78.576	0.09	157152	keystroke_g	g	n/a
79.145	0.076	158290	keystroke_Key.backspace	Key.backspace	n/a
79.326	0.075	158652	keystroke_Key.backspace	Key.backspace	n/a
79.625	0.091	159250	keystroke_Key.backspace	Key.backspace	n/a
79.911	0.09	159822	keystroke_Key.backspace	Key.backspace	n/a
80.241	0.075	160482	keystroke_Key.backspace	Key.backspace	n/a
80.646	0.045	161292	keystroke_Key.backspace	Key.backspace	n/a
81.066	0.12	162132	keystroke_d	d	n/a
81.291	0.075	162582	keystroke_u	u	n/a
81.456	0.12	162912	keystroke_r	r	n/a
81.636	0.165	163272	keystroke_i	i	n/a
81.726	0.15	163452	keystroke_n	n	n/a
81.861	0.09	163722	keystroke_g	g	n/a
82.341	0.09	164682	keystroke_Key.enter	Key.enter	n/a
82.4375	8.2755	164875	prompt	n/a	super magnetic heavy strain\n
83.361	0.135	166722	keystroke_s	s	n/a
83.481	0.075	166962	keystroke_u	u	n/a
83.676	0.105	167352	keystroke_p	p	n/a
83.766	0.105	167532	keystroke_e	e	n/a
83.841	0.165	167682	keystroke_r	r	n/a
83.946	0.15	167892	keystroke_Key.space	Key.space	n/a
84.126	0.105	168252	keystroke_m	m	n/a
84.246	0.105	168492	keystroke_a	a	n/a
84.786	0.12	169572	keystroke_g	g	n/a
85.716	0.075	171432	keystroke_n	n	n/a
85.851	0.15	171702	keystroke_e	e	n/a
86.166	0.075	172332	keystroke_t	t	n/a
86.301	0.075	172602	keystroke_i	i	n/a
86.436	0.105	172872	keystroke_c	c	n/a
86.796	0.105	173592	keystroke_Key.space	Key.space	n/a
87.336	0.105	174672	keystroke_h	h	n/a
87.651	0.105	175302	keystroke_e	e	n/a
87.831	0.15	175662	keystroke_a	a	n/a
87.966	0.09	175932	keystroke_v	v	n/a
88.341	0.105	176682	keystroke_y	y	n/a
88.686	0.12	177372	keystroke_Key.space	Key.space	n/a
88.971	0.12	177942	keystroke_s	s	n/a
89.196	0.075	178392	keystroke_t	t	n/a
89.346	0.135	178692	keystroke_r	r	n/a
89.781	0.105	179562	keystroke_a	a	n/a
89.991	0.165	179982	keystroke_i	i	n/a
90.081	0.15	180162	keystroke_n	n	n/a
90.636	0.075	181272	keystroke_Key.enter	Key.enter	n/a
90.7205	14.8585	181441	prompt	n/a	angeles offers step nerve\n
91.686	0.12	183372	keystroke_a	a	n/a
92.376	0.105	184752	keystroke_n	n	n/a
93.366	0.12	186732	keystroke_g	g	n/a
93.561	0.135	187122	keystroke_e	e	n/a
93.726	0.135	187452	keystroke_l	l	n/a
93.861	0.15	187722	keystroke_e	e	n/a
93.951	0.15	187902	keystroke_s	s	n/a
94.206	0.119	188412	keystroke_Key.space	Key.space	n/a
94.431	0.09	188862	keystroke_o	o	n/a
94.566	0.06	189132	keystroke_f	f	n/a
94.7005	0.105	189401	keystroke_f	f	n/a
100.7035	0.117	201407	keystroke_e	e	n/a
100.7455	0.15	201491	keystroke_r	r	n/a
100.9405	0.15	201881	keystroke_s	s	n/a
101.2555	0.12	202511	keystroke_Key.space	Key.space	n/a
101.5405	0.135	203081	keystroke_s	s	n/a
102.2455	0.106	204491	keystroke_t	t	n/a
103.4005	0.075	206801	keystroke_e	e	n/a
103.7005	0.075	207401	keystroke_p	p	n/a
104.4355	0.135	208871	keystroke_Key.space	Key.space	n/a
104.6305	0.09	209261	keystroke_n	n	n/a
104.9005	0.135	209801	keystroke_e	e	n/a
105.0055	0.135	210011	keystroke_r	r	n/a
105.1555	0.106	210311	keystroke_v	v	n/a
105.2905	0.12	210581	keystroke_e	e	n/a
105.4855	0.09	210971	keystroke_Key.enter	Key.enter	n/a
105.584	8.275	211168	prompt	n/a	transcripts newer context singer\n
106.8955	0.09	213791	keystroke_t	t	n/a
107.0755	0.105	214151	keystroke_r	r	n/a
107.2555	0.135	214511	keystroke_a	a	n/a
107.4055	0.06	214811	keystroke_n	n	n/a
107.5105	0.105	215021	keystroke_s	s	n/a
107.7655	0.091	215531	keystroke_c	c	n/a
108.0055	0.106	216011	keystroke_r	r	n/a
108.1405	0.15	216281	keystroke_i	i	n/a
108.2605	0.105	216521	keystroke_p	p	n/a
108.4565	0.089	216913	keystroke_t	t	n/a
108.6505	0.12	217301	keystroke_s	s	n/a
108.9955	0.105	217991	keystroke_Key.space	Key.space	n/a
109.2805	0.09	218561	keystroke_n	n	n/a
109.5365	0.194	219073	keystroke_e	e	n/a
109.6565	0.164	219313	keystroke_w	w	n/a
110.0755	0.165	220151	keystroke_e	e	n/a
110.2115	0.12	220423	keystroke_r	r	n/a
110.4205	0.12	220841	keystroke_Key.space	Key.space	n/a
110.7355	0.136	221471	keystroke_c	c	n/a
110.9005	0.15	221801	keystroke_o	o	n/a
111.0055	0.166	222011	keystroke_n	n	n/a
111.2755	0.106	222551	keystroke_t	t	n/a
111.5015	0.104	223003	keystroke_e	e	n/a
111.7405	0.121	223481	keystroke_x	x	n/a
112.0115	0.149	224023	keystroke_t	t	n/a
112.1455	0.12	224291	keystroke_Key.space	Key.space	n/a
112.3565	0.105	224713	keystroke_s	s	n/a
112.5965	0.165	225193	keystroke_i	i	n/a
112.6705	0.135	225341	keystroke_n	n	n/a
112.7905	0.106	225581	keystroke_g	g	n/a
113.0015	0.18	226003	keystroke_e	e	n/a
113.1365	0.119	226273	keystroke_r	r	n/a
113.7805	0.075	227561	keystroke_Key.enter	Key.enter	n/a
113.8645	13.5235	227729	prompt	n/a	quality holly acquisitions mario\n
114.8905	0.121	229781	keystroke_q	q	n/a
115.0865	0.134	230173	keystroke_u	u	n/a
115.4765	0.165	230953	keystroke_a	a	n/a
116.0015	0.164	232003	keystroke_l	l	n/a
116.1065	0.135	232213	keystroke_i	i	n/a
116.2415	0.089	232483	keystroke_t	t	n/a
116.3755	0.09	232751	keystroke_y	y	n/a
116.5415	0.119	233083	keystroke_Key.space	Key.space	n/a
116.8115	0.134	233623	keystroke_h	h	n/a
116.8865	0.119	233773	keystroke_o	o	n/a
117.1265	0.045	234253	keystroke_l	l	n/a
117.2465	0.134	234493	keystroke_l	l	n/a
117.5005	0.136	235001	keystroke_y	y	n/a
117.7105	0.151	235421	keystroke_Key.space	Key.space	n/a
118.806	0.135	237612	keystroke_a	a	n/a
119.106	0.135	238212	keystroke_c	c	n/a
120.891	0.165	241782	keystroke_q	q	n/a
121.176	0.09	242352	keystroke_u	u	n/a
121.881	0.09	243762	keystroke_i	i	n/a
122.361	0.15	244722	keystroke_s	s	n/a
122.586	0.09	245172	keystroke_i	i	n/a
122.856	0.075	245712	keystroke_t	t	n/a
122.901	0.135	245802	keystroke_i	i	n/a
122.991	0.195	245982	keystroke_o	o	n/a
123.111	0.135	246222	keystroke_n	n	n/a
123.261	0.195	246522	keystroke_s	s	n/a
123.441	0.135	246882	keystroke_Key.space	Key.space	n/a
123.6815	0.12	247363	keystroke_m	m	n/a
123.8615	0.15	247723	keystroke_a	a	n/a
123.9515	0.12	247903	keystroke_r	r	n/a
126.3095	0.072	252619	keystroke_i	i	n/a
126.3365	0.12	252673	keystroke_o	o	n/a
127.2965	0.09	254593	keystroke_Key.enter	Key.enter	n/a
127.392	15.5515	254784	prompt	n/a	mayor streets honduras turns\n
128.391	0.09	256782	keystroke_m	m	n/a
128.496	0.15	256992	keystroke_a	a	n/a
128.781	0.09	257562	keystroke_y	y	n/a
129.051	0.09	258102	keystroke_o	o	n/a
129.186	0.135	258372	keystroke_r	r	n/a
129.366	0.12	258732	keystroke_Key.space	Key.space	n/a
129.576	0.136	259152	keystroke_s	s	n/a
129.771	0.091	259542	keystroke_t	t	n/a
130.012	0.12	260024	keystroke_r	r	n/a
130.072	0.09	260144	keystroke_e	e	n/a
130.266	0.136	260532	keystroke_e	e	n/a
130.972	0.09	261944	keystroke_t	t	n/a
131.076	0.136	262152	keystroke_s	s	n/a
131.482	0.105	262964	keystroke_Key.space	Key.space	n/a
131.796	0.136	263592	keystroke_h	h	n/a
131.872	0.134	263744	keystroke_o	o	n/a
132.381	0.12	264762	keystroke_n	n	n/a
133.177	0.119	266354	keystroke_d	d	n/a
133.312	0.12	266624	keystroke_u	u	n/a
133.462	0.105	266924	keystroke_r	r	n/a
133.792	0.209	267584	keystroke_a	a	n/a
133.926	0.165	267852	keystroke_s	s	n/a
134.286	0.135	268572	keystroke_Key.space	Key.space	n/a
134.797	0.104	269594	keystroke_t	t	n/a
134.932	0.089	269864	keystroke_u	u	n/a
135.292	0.075	270584	keystroke_m	m	n/a
135.442	0.12	270884	keystroke_s	s	n/a
139.405	0.011	278810	keystroke_Key.backspace	Key.backspace	n/a
140.707	0.09	281414	keystroke_Key.backspace	Key.backspace	n/a
141.532	0.075	283064	keystroke_r	r	n/a
141.727	0.075	283454	keystroke_n	n	n/a
141.922	0.105	283844	keystroke_s	s	n/a
142.867	0.074	285734	keystroke_Key.enter	Key.enter	n/a
142.949	13.105	285898	prompt	n/a	disclaimers sure nickel navigator\n
145.075	0.057	290150	keystroke_d	d	n/a
145.417	0.12	290834	keystroke_i	i	n/a
145.852	0.12	291704	keystroke_s	s	n/a
146.242	0.12	292484	keystroke_c	c	n/a
146.422	0.105	292844	keystroke_l	l	n/a
146.632	0.15	293264	keystroke_a	a	n/a
146.827	0.045	293654	keystroke_i	i	n/a
147.037	0.09	294074	keystroke_m	m	n/a
147.322	0.18	294644	keystroke_e	e	n/a
147.412	0.15	294824	keystroke_r	r	n/a
147.607	0.135	295214	keystroke_s	s	n/a
147.817	0.12	295634	keystroke_Key.space	Key.space	n/a
148.042	0.12	296084	keystroke_s	s	n/a
148.192	0.09	296384	keystroke_u	u	n/a
148.342	0.135	296684	keystroke_r	r	n/a
148.402	0.165	296804	keystroke_e	e	n/a
148.582	0.12	297164	keystroke_Key.space	Key.space	n/a
148.972	0.12	297944	keystroke_n	n	n/a
149.077	0.105	298154	keystroke_i	i	n/a
149.242	0.135	298484	keystroke_c	c	n/a
149.392	0.12	298784	keystroke_k	k	n/a
149.647	0.105	299294	keystroke_e	e	n/a
149.857	0.075	299714	keystroke_l	l	n/a
150.247	0.105	300494	keystroke_Key.space	Key.space	n/a
150.472	0.09	300944	keystroke_n	n	n/a
150.622	0.135	301244	keystroke_a	a	n/a
153.5495	0.102	307099	keystroke_v	v	n/a
153.667	0.105	307334	keystroke_i	i	n/a
154.342	0.09	308684	keystroke_g	g	n/a
154.552	0.135	309104	keystroke_a	a	n/a
154.822	0.075	309644	keystroke_t	t	n/a
154.942	0.105	309884	keystroke_o	o	n/a
155.047	0.135	310094	keystroke_r	r	n/a
155.977	0.075	311954	keystroke_Key.enter	Key.enter	n/a
156.0605	5.514	312121	prompt	n/a	returned reduce popular share\n
156.8325	0.165	313665	keystroke_r	r	n/a
156.9515	0.136	313903	keystroke_e	e	n/a
157.1615	0.091	314323	keystroke_t	t	n/a
157.2365	0.135	314473	keystroke_u	u	n/a
157.4015	0.12	314803	keystroke_r	r	n/a
157.5515	0.12	315103	keystroke_n	n	n/a
157.6875	0.104	315375	keystroke_e	e	n/a
157.8815	0.165	315763	keystroke_d	d	n/a
158.0315	0.105	316063	keystroke_Key.space	Key.space	n/a
158.3465	0.15	316693	keystroke_r	r	n/a
158.4365	0.135	316873	keystroke_e	e	n/a
158.6775	0.089	317355	keystroke_d	d	n/a
158.7815	0.12	317563	keystroke_u	u	n/a
158.9165	0.075	317833	keystroke_c	c	n/a
159.1265	0.18	318253	keystroke_e	e	n/a
159.2765	0.12	318553	keystroke_Key.space	Key.space	n/a
159.5015	0.15	319003	keystroke_p	p	n/a
159.6065	0.121	319213	keystroke_o	o	n/a
159.7715	0.135	319543	keystroke_p	p	n/a
159.9375	0.135	319875	keystroke_u	u	n/a
160.2075	0.12	320415	keystroke_l	l	n/a
160.4325	0.1945	320865	keystroke_a	a	n/a
160.5525	0.1635	321105	keystroke_r	r	n/a
160.701	0.12	321402	keystroke_Key.space	Key.space	n/a
160.8525	0.1185	321705	keystroke_s	s	n/a
160.941	0.105	321882	keystroke_h	h	n/a
161.106	0.211	322212	keystroke_a	a	n/a
161.227	0.15	322454	keystroke_r	r	n/a
161.332	0.12	322664	keystroke_e	e	n/a
161.482	0.0895	322964	keystroke_Key.enter	Key.enter	n/a
161.58	9.954	323160	prompt	n/a	belfast vendor novel forty\n
163.1315	0.075	326263	keystroke_b	b	n/a
163.3415	0.12	326683	keystroke_e	e	n/a
163.6115	0.09	327223	keystroke_l	l	n/a
164.6465	0.075	329293	keystroke_Key.backspace	Key.backspace	n/a
165.1425	0.104	330285	keystroke_l	l	n/a
165.8325	0.104	331665	keystroke_f	f	n/a
166.0415	0.09	332083	keystroke_a	a	n/a
166.2515	0.196	332503	keystroke_s	s	n/a
166.3715	0.165	332743	keystroke_t	t	n/a
166.5375	0.119	333075	keystroke_Key.space	Key.space	n/a
167.1065	0.12	334213	keystroke_v	v	n/a
167.3775	0.149	334755	keystroke_e	e	n/a
167.5415	0.09	335083	keystroke_n	n	n/a
167.7965	0.12	335593	keystroke_d	d	n/a
167.9615	0.09	335923	keystroke_o	o	n/a
168.1115	0.105	336223	keystroke_r	r	n/a
168.2915	0.12	336583	keystroke_Key.space	Key.space	n/a
168.5325	0.059	337065	keystroke_n	n	n/a
168.6665	0.12	337333	keystroke_o	o	n/a
168.8765	0.09	337753	keystroke_v	v	n/a
169.1015	0.09	338203	keystroke_e	e	n/a
169.1925	0.104	338385	keystroke_l	l	n/a
169.3565	0.135	338713	keystroke_Key.space	Key.space	n/a
169.5975	0.089	339195	keystroke_f	f	n/a
169.7025	0.104	339405	keystroke_o	o	n/a
169.8215	0.075	339643	keystroke_r	r	n/a
170.0015	0.106	340003	keystroke_t	t	n/a
170.1215	0.076	340243	keystroke_y	y	n/a
171.4565	0.075	342913	keystroke_Key.enter	Key.enter	n/a
171.539	9.1745	343078	prompt	n/a	communist musician energy invisible\n
172.5975	0.104	345195	keystroke_c	c	n/a
172.6865	0.075	345373	keystroke_o	o	n/a
172.8825	0.059	345765	keystroke_m	m	n/a
173.0025	0.104	346005	keystroke_m	m	n/a
173.2415	0.09	346483	keystroke_u	u	n/a
173.5115	0.135	347023	keystroke_n	n	n/a
173.6165	0.135	347233	keystroke_i	i	n/a
173.7375	0.209	347475	keystroke_s	s	n/a
173.9025	0.149	347805	keystroke_t	t	n/a
174.0215	0.12	348043	keystroke_Key.space	Key.space	n/a
174.1865	0.06	348373	keystroke_m	m	n/a
174.3825	0.105	348765	keystroke_u	u	n/a
174.5915	0.12	349183	keystroke_s	s	n/a
174.6965	0.09	349393	keystroke_i	i	n/a
174.8775	0.12	349755	keystroke_c	c	n/a
175.0125	0.104	350025	keystroke_i	i	n/a
175.1625	0.165	350325	keystroke_a	a	n/a
175.3725	0.104	350745	keystroke_n	n	n/a
175.5515	0.12	351103	keystroke_Key.space	Key.space	n/a
176.2115	0.091	352423	keystroke_e	e	n/a
176.4225	0.089	352845	keystroke_n	n	n/a
176.5275	0.15	353055	keystroke_e	e	n/a
176.6325	0.104	353265	keystroke_r	r	n/a
176.8875	0.119	353775	keystroke_g	g	n/a
177.0825	0.105	354165	keystroke_y	y	n/a
177.3525	0.119	354705	keystroke_Key.space	Key.space	n/a
177.5175	0.165	355035	keystroke_i	i	n/a
177.6075	0.12	355215	keystroke_n	n	n/a
178.1915	0.12	356383	keystroke_v	v	n/a
178.2965	0.106	356593	keystroke_i	i	n/a
178.4625	0.165	356925	keystroke_s	s	n/a
178.5825	0.105	357165	keystroke_i	i	n/a
178.9575	0.089	357915	keystroke_b	b	n/a
179.2115	0.121	358423	keystroke_l	l	n/a
179.3625	0.09	358725	keystroke_e	e	n/a
180.637	0.075	361274	keystroke_Key.enter	Key.enter	n/a
180.7185	15.1005	361437	prompt	n/a	styles spouse joshua classic\n
181.6425	0.165	363285	keystroke_s	s	n/a
181.9125	0.105	363825	keystroke_y	y	n/a
182.2275	0.1495	364455	keystroke_l	l	n/a
183.0525	0.06	366105	keystroke_Key.backspace	Key.backspace	n/a
183.2175	0.105	366435	keystroke_Key.backspace	Key.backspace	n/a
184.2215	0.091	368443	keystroke_t	t	n/a
184.4615	0.091	368923	keystroke_y	y	n/a
184.7025	0.119	369405	keystroke_l	l	n/a
184.7915	0.136	369583	keystroke_e	e	n/a
184.8825	0.18	369765	keystroke_s	s	n/a
185.6325	0.1195	371265	keystroke_Key.space	Key.space	n/a
186.142	0.1345	372284	keystroke_s	s	n/a
186.3215	0.09	372643	keystroke_p	p	n/a
186.5465	0.2105	373093	keystroke_o	o	n/a
186.682	0.1195	373364	keystroke_u	u	n/a
186.9365	0.1955	373873	keystroke_s	s	n/a
187.0565	0.1505	374113	keystroke_e	e	n/a
187.252	0.15	374504	keystroke_Key.space	Key.space	n/a
188.632	0.135	377264	keystroke_j	j	n/a
188.887	0.105	377774	keystroke_o	o	n/a
189.337	0.18	378674	keystroke_s	s	n/a
189.442	0.12	378884	keystroke_h	h	n/a
189.667	0.0895	379334	keystroke_u	u	n/a
189.8165	0.12	379633	keystroke_a	a	n/a
190.5825	0.119	381165	keystroke_Key.space	Key.space	n/a
190.8965	0.135	381793	keystroke_c	c	n/a
191.0175	0.134	382035	keystroke_l	l	n/a
191.1675	0.119	382335	keystroke_a	a	n/a
191.4065	0.076	382813	keystroke_s	s	n/a
191.8415	0.135	383683	keystroke_s	s	n/a
192.0215	0.106	384043	keystroke_i	i	n/a
192.1415	0.075	384283	keystroke_c	c	n/a
195.8055	0.011	391611	keystroke_Key.enter	Key.enter	n/a
195.823	15.8355	391646	prompt	n/a	knee island fascinating pulse\n
197.0925	0.09	394185	keystroke_k	k	n/a
197.3165	0.076	394633	keystroke_n	n	n/a
197.6615	0.061	395323	keystroke_e	e	n/a
197.8275	0.164	395655	keystroke_e	e	n/a
198.0065	0.12	396013	keystroke_Key.space	Key.space	n/a
198.2315	0.091	396463	keystroke_i	i	n/a
198.3825	0.15	396765	keystroke_s	s	n/a
198.5625	0.09	397125	keystroke_l	l	n/a
198.6975	0.105	397395	keystroke_a	a	n/a
198.7875	0.12	397575	keystroke_n	n	n/a
198.9215	0.166	397843	keystroke_d	d	n/a
199.0715	0.166	398143	keystroke_Key.space	Key.space	n/a
199.3275	0.105	398655	keystroke_f	f	n/a
199.5065	0.106	399013	keystroke_a	a	n/a
199.7025	0.134	399405	keystroke_s	s	n/a
202.9905	0.072	405981	keystroke_c	c	n/a
206.6655	0.001	413331	keystroke_i	i	n/a
206.8575	0.105	413715	keystroke_n	n	n/a
207.0675	0.15	414135	keystroke_a	a	n/a
207.7275	0.075	415455	keystroke_t	t	n/a
207.8175	0.165	415635	keystroke_i	i	n/a
207.9075	0.15	415815	keystroke_n	n	n/a
208.0275	0.105	416055	keystroke_g	g	n/a
208.1915	0.136	416383	keystroke_Key.space	Key.space	n/a
208.4475	0.15	416895	keystroke_p	p	n/a
208.6575	0.03	417315	keystroke_y	y	n/a
209.2125	0.105	418425	keystroke_Key.backspace	Key.backspace	n/a
209.872	0.045	419744	keystroke_u	u	n/a
210.322	0.09	420644	keystroke_l	l	n/a
210.562	0.21	421124	keystroke_s	s	n/a
210.682	0.15	421364	keystroke_e	e	n/a
211.582	0.0745	423164	keystroke_Key.enter	Key.enter	n/a
211.6655	7.719	423331	prompt	n/a	desert homeland commodities yellow\n
212.5125	0.075	425025	keystroke_d	d	n/a
212.7375	0.105	425475	keystroke_e	e	n/a
212.9475	0.18	425895	keystroke_s	s	n/a
213.1115	0.256	426223	keystroke_e	e	n/a
213.2925	0.195	426585	keystroke_r	r	n/a
213.5775	0.1045	427155	keystroke_t	t	n/a
213.817	0.12	427634	keystroke_Key.space	Key.space	n/a
214.102	0.135	428204	keystroke_h	h	n/a
214.177	0.135	428354	keystroke_o	o	n/a
214.462	0.105	428924	keystroke_m	m	n/a
214.687	0.09	429374	keystroke_e	e	n/a
214.822	0.09	429644	keystroke_l	l	n/a
214.942	0.135	429884	keystroke_a	a	n/a
215.062	0.09	430124	keystroke_n	n	n/a
215.197	0.165	430394	keystroke_d	d	n/a
215.347	0.12	430694	keystroke_Key.space	Key.space	n/a
215.617	0.105	431234	keystroke_c	c	n/a
215.692	0.105	431384	keystroke_o	o	n/a
215.902	0.09	431804	keystroke_m	m	n/a
216.052	0.105	432104	keystroke_m	m	n/a
216.247	0.12	432494	keystroke_o	o	n/a
216.907	0.165	433814	keystroke_d	d	n/a
217.042	0.105	434084	keystroke_i	i	n/a
217.297	0.075	434594	keystroke_t	t	n/a
217.792	0.12	435584	keystroke_i	i	n/a
217.882	0.12	435764	keystroke_e	e	n/a
217.987	0.135	435974	keystroke_s	s	n/a
218.242	0.135	436484	keystroke_Key.space	Key.space	n/a
218.467	0.105	436934	keystroke_y	y	n/a
218.602	0.135	437204	keystroke_e	e	n/a
218.722	0.09	437444	keystroke_l	l	n/a
218.872	0.105	437744	keystroke_l	l	n/a
219.037	0.106	438074	keystroke_o	o	n/a
219.157	0.12	438314	keystroke_w	w	n/a
219.322	0.06	438644	keystroke_Key.enter	Key.enter	n/a
219.388	9.6255	438776	prompt	n/a	centuries univ reforms beta\n
220.718	0.119	441436	keystroke_c	c	n/a
221.092	0.136	442184	keystroke_e	e	n/a
222.353	0.104	444706	keystroke_n	n	n/a
222.832	0.105	445664	keystroke_t	t	n/a
223.042	0.06	446084	keystroke_u	u	n/a
223.222	0.105	446444	keystroke_r	r	n/a
223.342	0.15	446684	keystroke_i	i	n/a
223.688	0.149	447376	keystroke_e	e	n/a
223.792	0.18	447584	keystroke_s	s	n/a
224.017	0.165	448034	keystroke_Key.space	Key.space	n/a
224.318	0.089	448636	keystroke_u	u	n/a
224.677	0.135	449354	keystroke_n	n	n/a
224.798	0.134	449596	keystroke_i	i	n/a
225.832	0.196	451664	keystroke_v	v	n/a
226.057	0.12	452114	keystroke_Key.space	Key.space	n/a
226.297	0.181	452594	keystroke_r	r	n/a
226.432	0.15	452864	keystroke_e	e	n/a
226.807	0.106	453614	keystroke_f	f	n/a
226.957	0.121	453914	keystroke_o	o	n/a
227.048	0.149	454096	keystroke_r	r	n/a
227.257	0.105	454514	keystroke_m	m	n/a
227.377	0.15	454754	keystroke_s	s	n/a
227.647	0.12	455294	keystroke_Key.space	Key.space	n/a
227.858	0.119	455716	keystroke_b	b	n/a
227.917	0.181	455834	keystroke_e	e	n/a
228.112	0.105	456224	keystroke_t	t	n/a
228.727	0.105	457454	keystroke_a	a	n/a
228.952	0.06	457904	keystroke_Key.enter	Key.enter	n/a
229.023	17.047	458046	prompt	n/a	examinations chargers distributor turn\n
230.077	0.105	460154	keystroke_e	e	n/a
230.317	0.135	460634	keystroke_x	x	n/a
231.098	0.104	462196	keystroke_a	a	n/a
231.758	0.104	463516	keystroke_m	m	n/a
232.013	0.119	464026	keystroke_i	i	n/a
232.703	0.12	465406	keystroke_n	n	n/a
232.778	0.134	465556	keystroke_i	i	n/a
233.123	0.089	466246	keystroke_t	t	n/a
233.542	0.181	467084	keystroke_i	i	n/a
233.648	0.179	467296	keystroke_o	o	n/a
233.783	0.09	467566	keystroke_n	n	n/a
234.412	0.09	468824	keystroke_Key.backspace	Key.backspace	n/a
234.622	0.061	469244	keystroke_Key.backspace	Key.backspace	n/a
234.787	0.06	469574	keystroke_Key.backspace	Key.backspace	n/a
234.953	0.074	469906	keystroke_Key.backspace	Key.backspace	n/a
235.132	0.075	470264	keystroke_Key.backspace	Key.backspace	n/a
237.596	0.087	475192	keystroke_a	a	n/a
237.8325	0.105	475665	keystroke_t	t	n/a
237.8925	0.165	475785	keystroke_i	i	n/a
237.9825	0.18	475965	keystroke_o	o	n/a
238.1175	0.12	476235	keystroke_n	n	n/a
238.1925	0.195	476385	keystroke_s	s	n/a
238.4025	0.09	476805	keystroke_Key.space	Key.space	n/a
238.9125	0.12	477825	keystroke_c	c	n/a
239.0625	0.075	478125	keystroke_h	h	n/a
239.2725	0.135	478545	keystroke_a	a	n/a
239.3325	0.135	478665	keystroke_r	r	n/a
239.6025	0.1495	479205	keystroke_g	g	n/a
239.812	0.24	479624	keystroke_e	e	n/a
239.962	0.105	479924	keystroke_s	s	n/a
240.367	0.09	480734	keystroke_Key.backspace	Key.backspace	n/a
241.132	0.105	482264	keystroke_r	r	n/a
241.327	0.105	482654	keystroke_s	s	n/a
241.8975	0.09	483795	keystroke_Key.space	Key.space	n/a
242.1375	0.12	484275	keystroke_d	d	n/a
242.2585	0.104	484517	keystroke_i	i	n/a
242.3925	0.18	484785	keystroke_s	s	n/a
242.9025	0.075	485805	keystroke_t	t	n/a
243.0975	0.105	486195	keystroke_r	r	n/a
243.2475	0.09	486495	keystroke_i	i	n/a
243.4575	0.105	486915	keystroke_b	b	n/a
243.7275	0.135	487455	keystroke_u	u	n/a
244.1025	0.09	488205	keystroke_t	t	n/a
244.2375	0.09	488475	keystroke_o	o	n/a
244.3875	0.12	488775	keystroke_r	r	n/a
244.7925	0.12	489585	keystroke_Key.space	Key.space	n/a
245.0925	0.09	490185	keystroke_t	t	n/a
245.2125	0.12	490425	keystroke_u	u	n/a
245.3175	0.105	490635	keystroke_r	r	n/a
245.4675	0.105	490935	keystroke_n	n	n/a
245.9925	0.075	491985	keystroke_Key.enter	Key.enter	n/a
246.0755	10.9745	492151	prompt	n/a	strange bold homes revolution\n
247.0875	0.15	494175	keystroke_s	s	n/a
247.2675	0.12	494535	keystroke_t	t	n/a
247.8075	0.105	495615	keystroke_r	r	n/a
248.0475	0.105	496095	keystroke_a	a	n/a
248.1685	0.089	496337	keystroke_n	n	n/a
248.4075	0.105	496815	keystroke_g	g	n/a
248.6325	0.12	497265	keystroke_e	e	n/a
248.8425	0.15	497685	keystroke_Key.space	Key.space	n/a
249.0375	0.12	498075	keystroke_b	b	n/a
249.2025	0.09	498405	keystroke_o	o	n/a
249.3975	0.12	498795	keystroke_l	l	n/a
249.5775	0.12	499155	keystroke_d	d	n/a
249.848	0.15	499696	keystroke_Key.space	Key.space	n/a
250.268	0.12	500536	keystroke_h	h	n/a
250.358	0.105	500716	keystroke_o	o	n/a
250.583	0.12	501166	keystroke_m	m	n/a
250.688	0.165	501376	keystroke_e	e	n/a
250.808	0.165	501616	keystroke_s	s	n/a
251.273	0.135	502546	keystroke_Key.space	Key.space	n/a
251.513	0.165	503026	keystroke_r	r	n/a
251.618	0.105	503236	keystroke_e	e	n/a
251.963	0.18	503926	keystroke_c	c	n/a
252.473	0.075	504946	keystroke_o	o	n/a
252.788	0.06	505576	keystroke_Key.backspace	Key.backspace	n/a
252.968	0.075	505936	keystroke_Key.backspace	Key.backspace	n/a
253.568	0.135	507136	keystroke_v	v	n/a
253.688	0.09	507376	keystroke_o	o	n/a
253.883	0.105	507766	keystroke_l	l	n/a
254.093	0.105	508186	keystroke_u	u	n/a
254.453	0.105	508906	keystroke_t	t	n/a
254.798	0.12	509596	keystroke_i	i	n/a
254.903	0.165	509806	keystroke_o	o	n/a
255.008	0.12	510016	keystroke_n	n	n/a
255.188	0.09	510376	keystroke_s	s	n/a
255.848	0.06	511696	keystroke_Key.backspace	Key.backspace	n/a
256.973	0.075	513946	keystroke_Key.enter	Key.enter	n/a
257.0545	10.21	514109	prompt	n/a	vincent gender donate looking\n
258.488	0.09	516976	keystroke_v	v	n/a
258.623	0.165	517246	keystroke_i	i	n/a
258.698	0.135	517396	keystroke_n	n	n/a
258.878	0.12	517756	keystroke_c	c	n/a
259.133	0.135	518266	keystroke_e	e	n/a
259.253	0.12	518506	keystroke_n	n	n/a
259.433	0.09	518866	keystroke_t	t	n/a
259.943	0.105	519886	keystroke_Key.space	Key.space	n/a
260.123	0.105	520246	keystroke_g	g	n/a
260.318	0.135	520636	keystroke_e	e	n/a
260.468	0.105	520936	keystroke_n	n	n/a
263.621	0.012	527242	keystroke_d	d	n/a
263.783	0.135	527566	keystroke_e	e	n/a
263.888	0.195	527776	keystroke_r	r	n/a
264.038	0.12	528076	keystroke_Key.space	Key.space	n/a
264.293	0.135	528586	keystroke_d	d	n/a
264.443	0.09	528886	keystroke_o	o	n/a
264.608	0.12	529216	keystroke_n	n	n/a
264.743	0.135	529486	keystroke_a	a	n/a
265.043	0.135	530086	keystroke_t	t	n/a
265.133	0.165	530266	keystroke_e	e	n/a
265.388	0.12	530776	keystroke_Key.space	Key.space	n/a
265.823	0.105	531646	keystroke_l	l	n/a
266.033	0.06	532066	keystroke_o	o	n/a
266.183	0.09	532366	keystroke_o	o	n/a
266.333	0.12	532666	keystroke_k	k	n/a
266.543	0.225	533086	keystroke_i	i	n/a
266.693	0.12	533386	keystroke_n	n	n/a
266.783	0.09	533566	keystroke_g	g	n/a
267.173	0.09	534346	keystroke_Key.enter	Key.enter	n/a
267.269	21.521	534538	prompt	n/a	decision consequence activists identical\n
268.253	0.09	536506	keystroke_d	d	n/a
268.703	0.09	537406	keystroke_e	e	n/a
269.018	0.105	538036	keystroke_c	c	n/a
269.198	0.105	538396	keystroke_i	i	n/a
269.843	0.12	539686	keystroke_s	s	n/a
269.918	0.15	539836	keystroke_i	i	n/a
270.023	0.195	540046	keystroke_o	o	n/a
270.158	0.12	540316	keystroke_n	n	n/a
270.368	0.135	540736	keystroke_Key.space	Key.space	n/a
270.923	0.12	541846	keystroke_c	c	n/a
270.998	0.18	541996	keystroke_o	o	n/a
271.073	0.135	542146	keystroke_n	n	n/a
271.583	0.075	543166	keystroke_s	s	n/a
272.288	0.135	544576	keystroke_e	e	n/a
272.783	0.09	545566	keystroke_q	q	n/a
272.903	0.105	545806	keystroke_u	u	n/a
273.6835	0.12	547367	keystroke_e	e	n/a
273.8185	0.105	547637	keystroke_n	n	n/a
273.9835	0.119	547967	keystroke_c	c	n/a
274.1935	0.165	548387	keystroke_e	e	n/a
274.3275	0.15	548655	keystroke_Key.space	Key.space	n/a
274.5535	0.134	549107	keystroke_a	a	n/a
275.0635	0.105	550127	keystroke_v	v	n/a
275.3325	0.12	550665	keystroke_t	t	n/a
275.4835	0.119	550967	keystroke_i	i	n/a
275.7685	0.105	551537	keystroke_v	v	n/a
275.918	0.09	551836	keystroke_i	i	n/a
276.053	0.1655	552106	keystroke_s	s	n/a
276.2335	0.12	552467	keystroke_t	t	n/a
276.4285	0.135	552857	keystroke_s	s	n/a
277.178	0.1055	554356	keystroke_Key.space	Key.space	n/a
278.6175	0.06	557235	keystroke_Key.backspace	Key.backspace	n/a
278.7825	0.061	557565	keystroke_Key.backspace	Key.backspace	n/a
278.9635	0.044	557927	keystroke_Key.backspace	Key.backspace	n/a
279.2325	0.045	558465	keystroke_Key.backspace	Key.backspace	n/a
279.4875	0.091	558975	keystroke_Key.backspace	Key.backspace	n/a
279.7875	0.09	559575	keystroke_Key.backspace	Key.backspace	n/a
280.0575	0.09	560115	keystroke_Key.backspace	Key.backspace	n/a
280.4025	0.075	560805	keystroke_Key.backspace	Key.backspace	n/a
280.7925	0.06	561585	keystroke_Key.backspace	Key.backspace	n/a
281.5135	0.135	563027	keystroke_c	c	n/a
282.5025	0.09	565005	keystroke_t	t	n/a
282.7735	0.089	565547	keystroke_i	i	n/a
283.8375	0.135	567675	keystroke_v	v	n/a
284.0185	0.105	568037	keystroke_i	i	n/a
284.2735	0.149	568547	keystroke_s	s	n/a
284.4685	0.134	568937	keystroke_t	t	n/a
284.6175	0.136	569235	keystroke_s	s	n/a
284.8435	0.134	569687	keystroke_Key.space	Key.space	n/a
285.2635	0.105	570527	keystroke_i	i	n/a
285.4725	0.091	570945	keystroke_d	d	n/a
285.6825	0.15	571365	keystroke_e	e	n/a
285.7875	0.09	571575	keystroke_n	n	n/a
285.9535	0.09	571907	keystroke_t	t	n/a
286.0585	0.09	572117	keystroke_i	i	n/a
286.3435	0.09	572687	keystroke_c	c	n/a
286.5375	0.135	573075	keystroke_a	a	n/a
286.6585	0.09	573317	keystroke_l	l	n/a
288.7135	0.075	577427	keystroke_Key.enter	Key.enter	n/a
288.7955	12.6245	577591	prompt	n/a	she's improvement conference totals\n
289.8525	0.181	579705	keystroke_s	s	n/a
290.0035	0.104	580007	keystroke_h	h	n/a
290.1535	0.165	580307	keystroke_e	e	n/a
291.6535	0.09	583307	keystroke_'	'	n/a
291.8485	0.15	583697	keystroke_s	s	n/a
292.0735	0.119	584147	keystroke_Key.space	Key.space	n/a
292.9125	0.106	585825	keystroke_i	i	n/a
293.1835	0.105	586367	keystroke_m	m	n/a
293.4075	0.091	586815	keystroke_p	p	n/a
293.7385	0.104	587477	keystroke_r	r	n/a
293.9025	0.091	587805	keystroke_o	o	n/a
294.4435	0.045	588887	keystroke_v	v	n/a
294.6235	0.105	589247	keystroke_e	e	n/a
294.8485	0.09	589697	keystroke_n	n	n/a
295.643	0.15	591286	keystroke_Key.backspace	Key.backspace	n/a
296.348	0.1055	592696	keystroke_m	m	n/a
296.4985	0.179	592997	keystroke_e	e	n/a
296.6025	0.106	593205	keystroke_n	n	n/a
296.7835	0.09	593567	keystroke_t	t	n/a
297.0685	0.12	594137	keystroke_Key.space	Key.space	n/a
297.3685	0.09	594737	keystroke_c	c	n/a
297.4735	0.15	594947	keystroke_o	o	n/a
297.5335	0.12	595067	keystroke_n	n	n/a
297.7435	0.105	595487	keystroke_f	f	n/a
297.9085	0.12	595817	keystroke_e	e	n/a
298.1635	0.134	596327	keystroke_r	r	n/a
298.2835	0.135	596567	keystroke_e	e	n/a
298.4035	0.12	596807	keystroke_n	n	n/a
298.5685	0.089	597137	keystroke_c	c	n/a
298.7775	0.181	597555	keystroke_e	e	n/a
298.9425	0.106	597885	keystroke_Key.space	Key.space	n/a
299.183	0.075	598366	keystroke_t	t	n/a
299.273	0.165	598546	keystroke_o	o	n/a
299.393	0.075	598786	keystroke_t	t	n/a
299.603	0.1205	599206	keystroke_a	a	n/a
299.7535	0.135	599507	keystroke_l	l	n/a
300.0985	0.09	600197	keystroke_s	s	n/a
301.3435	0.075	602687	keystroke_Key.enter	Key.enter	n/a
301.425	7.225	602850	prompt	n/a	economy websites laid orbit\n
302.183	0.105	604366	keystroke_e	e	n/a
302.828	0.105	605656	keystroke_c	c	n/a
303.203	0.105	606406	keystroke_o	o	n/a
303.473	0.18	606946	keystroke_n	n	n/a
303.593	0.135	607186	keystroke_o	o	n/a
303.788	0.12	607576	keystroke_m	m	n/a
304.073	0.09	608146	keystroke_y	y	n/a
304.298	0.12	608596	keystroke_Key.space	Key.space	n/a
304.628	0.15	609256	keystroke_w	w	n/a
304.733	0.135	609466	keystroke_e	e	n/a
304.988	0.15	609976	keystroke_b	b	n/a
305.183	0.15	610366	keystroke_s	s	n/a
305.318	0.135	610636	keystroke_i	i	n/a
305.438	0.15	610876	keystroke_t	t	n/a
305.528	0.12	611056	keystroke_e	e	n/a
305.918	0.105	611836	keystroke_Key.space	Key.space	n/a
306.128	0.15	612256	keystroke_l	l	n/a
306.233	0.135	612466	keystroke_a	a	n/a
306.428	0.105	612856	keystroke_i	i	n/a
306.563	0.105	613126	keystroke_d	d	n/a
306.788	0.12	613576	keystroke_Key.space	Key.space	n/a
307.178	0.105	614356	keystroke_o	o	n/a
307.343	0.12	614686	keystroke_r	r	n/a
307.613	0.135	615226	keystroke_b	b	n/a
307.733	0.12	615466	keystroke_i	i	n/a
307.854	0.074	615708	keystroke_t	t	n/a
308.558	0.09	617116	keystroke_Key.enter	Key.enter	n/a
308.655	6.91	617310	prompt	n/a	framing missile years alike\n
309.623	0.105	619246	keystroke_f	f	n/a
309.833	0.135	619666	keystroke_r	r	n/a
310.073	0.15	620146	keystroke_a	a	n/a
310.673	0.075	621346	keystroke_m	m	n/a
310.898	0.21	621796	keystroke_i	i	n/a
311.033	0.135	622066	keystroke_n	n	n/a
311.153	0.12	622306	keystroke_g	g	n/a
311.318	0.12	622636	keystroke_Key.space	Key.space	n/a
311.498	0.09	622996	keystroke_m	m	n/a
311.693	0.09	623386	keystroke_i	i	n/a
311.948	0.105	623896	keystroke_s	s	n/a
312.158	0.12	624316	keystroke_s	s	n/a
312.338	0.105	624676	keystroke_i	i	n/a
312.548	0.12	625096	keystroke_l	l	n/a
312.743	0.105	625486	keystroke_e	e	n/a
312.998	0.135	625996	keystroke_Key.space	Key.space	n/a
313.238	0.09	626476	keystroke_y	y	n/a
313.343	0.09	626686	keystroke_e	e	n/a
313.538	0.15	627076	keystroke_a	a	n/a
313.643	0.12	627286	keystroke_r	r	n/a
313.808	0.15	627616	keystroke_s	s	n/a
314.018	0.09	628036	keystroke_Key.space	Key.space	n/a
314.244	0.119	628488	keystroke_a	a	n/a
314.438	0.165	628876	keystroke_l	l	n/a
314.558	0.135	629116	keystroke_i	i	n/a
314.783	0.106	629566	keystroke_k	k	n/a
314.903	0.105	629806	keystroke_e	e	n/a
315.473	0.09	630946	keystroke_Key.enter	Key.enter	n/a
315.57	19.3455	631140	prompt	n/a	lunch lately transmission rules\n
316.449	0.12	632898	keystroke_l	l	n/a
316.628	0.09	633256	keystroke_u	u	n/a
316.868	0.076	633736	keystroke_n	n	n/a
316.988	0.106	633976	keystroke_c	c	n/a
317.108	0.09	634216	keystroke_h	h	n/a
317.273	0.12	634546	keystroke_Key.space	Key.space	n/a
317.408	0.105	634816	keystroke_l	l	n/a
317.529	0.119	635058	keystroke_a	a	n/a
317.693	0.135	635386	keystroke_t	t	n/a
317.769	0.119	635538	keystroke_e	e	n/a
317.903	0.075	635806	keystroke_l	l	n/a
318.113	0.09	636226	keystroke_y	y	n/a
318.263	0.12	636526	keystroke_Key.space	Key.space	n/a
318.443	0.076	636886	keystroke_t	t	n/a
318.623	0.106	637246	keystroke_r	r	n/a
318.864	0.105	637728	keystroke_n	n	n/a
318.998	0.166	637996	keystroke_s	s	n/a
319.194	0.089	638388	keystroke_m	m	n/a
319.404	0.074	638808	keystroke_i	i	n/a
319.553	0.091	639106	keystroke_s	s	n/a
319.719	0.149	639438	keystroke_s	s	n/a
319.854	0.135	639708	keystroke_i	i	n/a
319.943	0.151	639886	keystroke_o	o	n/a
320.063	0.105	640126	keystroke_n	n	n/a
320.663	0.06	641326	keystroke_Key.space	Key.space	n/a
320.963	0.151	641926	keystroke_r	r	n/a
321.023	0.105	642046	keystroke_u	u	n/a
321.489	0.149	642978	keystroke_;	;	n/a
322.148	0.075	644296	keystroke_Key.backspace	Key.backspace	n/a
322.464	0.105	644928	keystroke_l	l	n/a
322.628	0.12	645256	keystroke_e	e	n/a
322.703	0.12	645406	keystroke_s	s	n/a
323.994	0.074	647988	keystroke_Key.left	Key.left	n/a
324.803	0.075	649606	keystroke_Key.left	Key.left	n/a
324.983	0.075	649966	keystroke_Key.left	Key.left	n/a
325.148	0.045	650296	keystroke_Key.left	Key.left	n/a
325.269	0.089	650538	keystroke_Key.left	Key.left	n/a
325.418	0.09	650836	keystroke_Key.left	Key.left	n/a
325.598	0.075	651196	keystroke_Key.left	Key.left	n/a
325.748	0.09	651496	keystroke_Key.left	Key.left	n/a
325.914	0.089	651828	keystroke_Key.left	Key.left	n/a
326.078	0.09	652156	keystroke_Key.left	Key.left	n/a
326.243	0.09	652486	keystroke_Key.left	Key.left	n/a
326.408	0.09	652816	keystroke_Key.left	Key.left	n/a
326.574	0.104	653148	keystroke_Key.left	Key.left	n/a
326.739	0.104	653478	keystroke_Key.left	Key.left	n/a
326.919	0.119	653838	keystroke_Key.left	Key.left	n/a
327.428	0.12	654856	keystroke_a	a	n/a
330.102	0.206	660204	keystroke_Key.right	Key.right	n/a
330.4435	0.075	660887	keystroke_Key.right	Key.right	n/a
330.6235	0.075	661247	keystroke_Key.right	Key.right	n/a
330.7885	0.09	661577	keystroke_Key.right	Key.right	n/a
330.968	0.075	661936	keystroke_Key.right	Key.right	n/a
331.133	0.075	662266	keystroke_Key.right	Key.right	n/a
331.328	0.061	662656	keystroke_Key.right	Key.right	n/a
331.493	0.075	662986	keystroke_Key.right	Key.right	n/a
331.6735	0.06	663347	keystroke_Key.right	Key.right	n/a
331.8535	0.06	663707	keystroke_Key.right	Key.right	n/a
332.0185	0.06	664037	keystroke_Key.right	Key.right	n/a
332.1835	0.075	664367	keystroke_Key.right	Key.right	n/a
332.3485	0.09	664697	keystroke_Key.right	Key.right	n/a
332.6935	0.09	665387	keystroke_Key.right	Key.right	n/a
333.2935	0.165	666587	keystroke_Key.right	Key.right	n/a
334.8385	0.075	669677	keystroke_Key.enter	Key.enter	n/a
334.9215	21.414	669843	prompt	n/a	guidelines abortion growth traveler\n
339.0115	0.042	678023	keystroke_g	g	n/a
339.0835	0.135	678167	keystroke_u	u	n/a
339.1435	0.165	678287	keystroke_i	i	n/a
340.719	0.075	681438	keystroke_d	d	n/a
340.944	0.09	681888	keystroke_e	e	n/a
341.214	0.135	682428	keystroke_l	l	n/a
341.319	0.149	682638	keystroke_i	i	n/a
341.529	0.149	683058	keystroke_n	n	n/a
341.649	0.18	683298	keystroke_e	e	n/a
341.798	0.15	683596	keystroke_s	s	n/a
342.053	0.15	684106	keystroke_Key.space	Key.space	n/a
342.534	0.119	685068	keystroke_a	a	n/a
342.698	0.105	685396	keystroke_b	b	n/a
342.878	0.106	685756	keystroke_o	o	n/a
344.214	0.12	688428	keystroke_r	r	n/a
344.469	0.135	688938	keystroke_t	t	n/a
344.573	0.151	689146	keystroke_i	i	n/a
344.679	0.18	689358	keystroke_o	o	n/a
344.799	0.104	689598	keystroke_n	n	n/a
345.264	0.105	690528	keystroke_Key.space	Key.space	n/a
345.609	0.075	691218	keystroke_g	g	n/a
345.819	0.12	691638	keystroke_r	r	n/a
346.389	0.105	692778	keystroke_o	o	n/a
346.598	0.181	693196	keystroke_w	w	n/a
346.944	0.105	693888	keystroke_t	t	n/a
347.064	0.09	694128	keystroke_h	h	n/a
347.828	0.135	695656	keystroke_Key.space	Key.space	n/a
348.173	0.105	696346	keystroke_g	g	n/a
348.398	0.12	696796	keystroke_r	r	n/a
348.593	0.135	697186	keystroke_a	a	n/a
348.833	0.09	697666	keystroke_v	v	n/a
348.954	0.089	697908	keystroke_e	e	n/a
349.103	0.121	698206	keystroke_l	l	n/a
349.373	0.15	698746	keystroke_e	e	n/a
349.463	0.135	698926	keystroke_r	r	n/a
350.694	0.075	701388	keystroke_Key.backspace	Key.backspace	n/a
350.903	0.06	701806	keystroke_Key.backspace	Key.backspace	n/a
351.083	0.06	702166	keystroke_Key.backspace	Key.backspace	n/a
351.248	0.075	702496	keystroke_Key.backspace	Key.backspace	n/a
351.428	0.06	702856	keystroke_Key.backspace	Key.backspace	n/a
351.593	0.09	703186	keystroke_Key.backspace	Key.backspace	n/a
351.833	0.075	703666	keystroke_Key.backspace	Key.backspace	n/a
352.298	0.09	704596	keystroke_Key.backspace	Key.backspace	n/a
352.599	0.09	705198	keystroke_t	t	n/a
352.809	0.105	705618	keystroke_r	r	n/a
352.958	0.181	705916	keystroke_a	a	n/a
353.573	0.105	707146	keystroke_v	v	n/a
353.828	0.135	707656	keystroke_e	e	n/a
354.518	0.105	709036	keystroke_l	l	n/a
355.088	0.12	710176	keystroke_e	e	n/a
355.178	0.106	710356	keystroke_r	r	n/a
356.259	0.074	712518	keystroke_Key.enter	Key.enter	n/a
356.345	11.5555	712690	prompt	n/a	hits practices magnificent seminar\n
357.984	0.149	715968	keystroke_h	h	n/a
358.059	0.15	716118	keystroke_i	i	n/a
358.193	0.091	716386	keystroke_t	t	n/a
358.359	0.194	716718	keystroke_s	s	n/a
358.613	0.105	717226	keystroke_Key.space	Key.space	n/a
358.868	0.09	717736	keystroke_t	t	n/a
359.333	0.105	718666	keystroke_r	r	n/a
359.949	0.075	719898	keystroke_Key.backspace	Key.backspace	n/a
360.114	0.09	720228	keystroke_Key.backspace	Key.backspace	n/a
360.579	0.105	721158	keystroke_p	p	n/a
360.759	0.12	721518	keystroke_r	r	n/a
360.999	0.135	721998	keystroke_a	a	n/a
361.269	0.105	722538	keystroke_c	c	n/a
361.569	0.09	723138	keystroke_t	t	n/a
361.719	0.12	723438	keystroke_i	i	n/a
361.914	0.075	723828	keystroke_c	c	n/a
362.109	0.134	724218	keystroke_e	e	n/a
362.289	0.135	724578	keystroke_s	s	n/a
362.559	0.134	725118	keystroke_Key.space	Key.space	n/a
362.753	0.136	725506	keystroke_m	m	n/a
362.874	0.135	725748	keystroke_a	a	n/a
363.173	0.091	726346	keystroke_g	g	n/a
363.384	0.18	726768	keystroke_n	n	n/a
363.534	0.165	727068	keystroke_i	i	n/a
363.743	0.12	727486	keystroke_f	f	n/a
363.938	0.12	727876	keystroke_i	i	n/a
364.434	0.134	728868	keystroke_c	c	n/a
364.628	0.18	729256	keystroke_e	e	n/a
364.718	0.105	729436	keystroke_n	n	n/a
364.928	0.106	729856	keystroke_t	t	n/a
365.183	0.12	730366	keystroke_Key.space	Key.space	n/a
365.709	0.135	731418	keystroke_s	s	n/a
366.099	0.09	732198	keystroke_e	e	n/a
366.309	0.075	732618	keystroke_m	m	n/a
366.534	0.105	733068	keystroke_i	i	n/a
366.819	0.105	733638	keystroke_n	n	n/a
367.224	0.165	734448	keystroke_a	a	n/a
367.314	0.12	734628	keystroke_r	r	n/a
367.808	0.09	735616	keystroke_Key.enter	Key.enter	n/a
367.905	24.732	735810	prompt	n/a	wheels correctly minority translator\n
368.903	0.106	737806	keystroke_w	w	n/a
369.053	0.076	738106	keystroke_h	h	n/a
369.188	0.075	738376	keystroke_e	e	n/a
369.384	0.09	738768	keystroke_e	e	n/a
369.638	0.0605	739276	keystroke_l	l	n/a
369.7735	0.12	739547	keystroke_s	s	n/a
370.0735	0.12	740147	keystroke_Key.space	Key.space	n/a
370.4485	0.12	740897	keystroke_c	c	n/a
370.6135	0.12	741227	keystroke_o	o	n/a
370.6885	0.12	741377	keystroke_n	n	n/a
370.8235	0.075	741647	keystroke_r	r	n/a
371.0185	0.075	742037	keystroke_r	r	n/a
371.4985	0.105	742997	keystroke_e	e	n/a
371.7235	0.09	743447	keystroke_c	c	n/a
371.9335	0.105	743867	keystroke_t	t	n/a
372.0535	0.105	744107	keystroke_l	l	n/a
372.2635	0.09	744527	keystroke_y	y	n/a
372.4585	0.105	744917	keystroke_Key.space	Key.space	n/a
372.6985	0.09	745397	keystroke_m	m	n/a
372.9385	0.135	745877	keystroke_i	i	n/a
373.6735	0.045	747347	keystroke_Key.backspace	Key.backspace	n/a
373.8235	0.09	747647	keystroke_Key.backspace	Key.backspace	n/a
374.0185	0.06	748037	keystroke_Key.backspace	Key.backspace	n/a
374.1685	0.06	748337	keystroke_Key.backspace	Key.backspace	n/a
374.3335	0.06	748667	keystroke_Key.backspace	Key.backspace	n/a
374.4985	0.06	748997	keystroke_Key.backspace	Key.backspace	n/a
374.6635	0.075	749327	keystroke_Key.backspace	Key.backspace	n/a
374.8435	0.06	749687	keystroke_Key.backspace	Key.backspace	n/a
375.0235	0.075	750047	keystroke_Key.backspace	Key.backspace	n/a
375.2635	0.09	750527	keystroke_Key.backspace	Key.backspace	n/a
375.6085	0.075	751217	keystroke_Key.backspace	Key.backspace	n/a
377.1235	0.06	754247	keystroke_r	r	n/a
377.2885	0.15	754577	keystroke_r	r	n/a
377.4085	0.105	754817	keystroke_e	e	n/a
377.6335	0.12	755267	keystroke_c	c	n/a
378.0085	0.12	756017	keystroke_t	t	n/a
378.5035	0.09	757007	keystroke_l	l	n/a
378.7435	0.105	757487	keystroke_y	y	n/a
379.6735	0.105	759347	keystroke_Key.space	Key.space	n/a
379.8535	0.105	759707	keystroke_m	m	n/a
381.1585	0.105	762317	keystroke_o	o	n/a
381.3985	0.105	762797	keystroke_n	n	n/a
382.4485	0.075	764897	keystroke_=	=	n/a
382.6285	0.075	765257	keystroke_=	=	n/a
383.0335	0.09	766067	keystroke_Key.backspace	Key.backspace	n/a
383.3785	0.075	766757	keystroke_Key.backspace	Key.backspace	n/a
383.7985	0.075	767597	keystroke_Key.backspace	Key.backspace	n/a
384.2035	0.075	768407	keystroke_Key.backspace	Key.backspace	n/a
385.0735	0.075	770147	keystroke_i	i	n/a
385.3885	0.12	770777	keystroke_n	n	n/a
386.6635	0.075	773327	keystroke_o	o	n/a
387.5035	0.165	775007	keystroke_r	r	n/a
388.1185	0.09	776237	keystroke_i	i	n/a
388.4035	0.075	776807	keystroke_t	t	n/a
388.5085	0.09	777017	keystroke_y	y	n/a
389.1535	0.12	778307	keystroke_Key.space	Key.space	n/a
389.4235	0.105	778847	keystroke_t	t	n/a
389.6335	0.105	779267	keystroke_r	r	n/a
389.7985	0.135	779597	keystroke_a	a	n/a
389.9185	0.105	779837	keystroke_n	n	n/a
390.0535	0.135	780107	keystroke_s	s	n/a
390.2335	0.135	780467	keystroke_l	l	n/a
390.3385	0.151	780677	keystroke_a	a	n/a
390.6095	0.074	781219	keystroke_t	t	n/a
390.7885	0.135	781577	keystroke_e	e	n/a
390.8785	0.12	781757	keystroke_r	r	n/a
391.4935	0.075	782987	keystroke_Key.backspace	Key.backspace	n/a
391.6735	0.075	783347	keystroke_Key.backspace	Key.backspace	n/a
391.9435	0.105	783887	keystroke_o	o	n/a
392.1685	0.075	784337	keystroke_r	r	n/a
392.5435	0.09	785087	keystroke_Key.enter	Key.enter	n/a
392.641	7.225	785282	prompt	n/a	resume boat territories span\n
393.4285	0.181	786857	keystroke_r	r	n/a
393.5485	0.1505	787097	keystroke_e	e	n/a
393.789	0.135	787578	keystroke_s	s	n/a
393.909	0.09	787818	keystroke_u	u	n/a
394.149	0.12	788298	keystroke_m	m	n/a
394.254	0.18	788508	keystroke_e	e	n/a
394.449	0.12	788898	keystroke_Key.space	Key.space	n/a
394.674	0.075	789348	keystroke_b	b	n/a
394.839	0.105	789678	keystroke_o	o	n/a
394.974	0.12	789948	keystroke_a	a	n/a
395.169	0.105	790338	keystroke_t	t	n/a
395.364	0.12	790728	keystroke_Key.space	Key.space	n/a
395.8885	0.075	791777	keystroke_t	t	n/a
396.0395	0.254	792079	keystroke_e	e	n/a
396.2645	0.135	792529	keystroke_r	r	n/a
396.9685	0.09	793937	keystroke_r	r	n/a
397.5845	0.104	795169	keystroke_i	i	n/a
397.9135	0.09	795827	keystroke_t	t	n/a
398.0485	0.105	796097	keystroke_o	o	n/a
398.1835	0.1055	796367	keystroke_r	r	n/a
398.379	0.09	796758	keystroke_i	i	n/a
398.484	0.15	796968	keystroke_e	e	n/a
398.574	0.195	797148	keystroke_s	s	n/a
398.814	0.12	797628	keystroke_Key.space	Key.space	n/a
399.069	0.1205	798138	keystroke_s	s	n/a
399.234	0.09	798468	keystroke_p	p	n/a
399.354	0.105	798708	keystroke_a	a	n/a
399.474	0.105	798948	keystroke_n	n	n/a
399.7885	0.075	799577	keystroke_Key.enter	Key.enter	n/a
399.8715	6.64	799743	prompt	n/a	beds struggle word water\n
400.9595	0.075	801919	keystroke_b	b	n/a
401.0185	0.091	802037	keystroke_e	e	n/a
401.2595	0.075	802519	keystroke_d	d	n/a
401.4385	0.15	802877	keystroke_s	s	n/a
401.6785	0.091	803357	keystroke_Key.space	Key.space	n/a
402.0545	0.165	804109	keystroke_s	s	n/a
402.2935	0.091	804587	keystroke_t	t	n/a
402.4745	0.149	804949	keystroke_r	r	n/a
402.7435	0.091	805487	keystroke_u	u	n/a
402.8645	0.06	805729	keystroke_g	g	n/a
403.0135	0.091	806027	keystroke_g	g	n/a
403.1495	0.09	806299	keystroke_l	l	n/a
403.2845	0.105	806569	keystroke_e	e	n/a
403.5835	0.091	807167	keystroke_Key.space	Key.space	n/a
403.8245	0.12	807649	keystroke_w	w	n/a
403.9595	0.105	807919	keystroke_o	o	n/a
404.0795	0.105	808159	keystroke_r	r	n/a
404.3035	0.136	808607	keystroke_d	d	n/a
404.4685	0.135	808937	keystroke_Key.space	Key.space	n/a
404.7245	0.119	809449	keystroke_w	w	n/a
405.1295	0.074	810259	keystroke_t	t	n/a
405.5485	0.09	811097	keystroke_Key.backspace	Key.backspace	n/a
405.7145	0.135	811429	keystroke_a	a	n/a
405.9245	0.075	811849	keystroke_t	t	n/a
406.0595	0.164	812119	keystroke_e	e	n/a
406.1795	0.12	812359	keystroke_r	r	n/a
406.4345	0.075	812869	keystroke_Key.enter	Key.enter	n/a
406.516	8.695	813032	prompt	n/a	otherwise dinner likely designing\n
407.5145	0.075	815029	keystroke_o	o	n/a
407.6345	0.105	815269	keystroke_t	t	n/a
407.7695	0.09	815539	keystroke_h	h	n/a
407.9195	0.194	815839	keystroke_e	e	n/a
408.0395	0.15	816079	keystroke_r	r	n/a
408.6245	0.045	817249	keystroke_w	w	n/a
408.6845	0.089	817369	keystroke_i	i	n/a
409.2385	0.18	818477	keystroke_s	s	n/a
409.3595	0.134	818719	keystroke_e	e	n/a
410.1385	0.121	820277	keystroke_Key.space	Key.space	n/a
410.3795	0.135	820759	keystroke_d	d	n/a
410.5595	0.075	821119	keystroke_i	i	n/a
410.7695	0.06	821539	keystroke_n	n	n/a
410.9185	0.091	821837	keystroke_n	n	n/a
411.0245	0.135	822049	keystroke_e	e	n/a
411.1145	0.179	822229	keystroke_r	r	n/a
411.2795	0.075	822559	keystroke_Key.space	Key.space	n/a
411.5495	0.195	823099	keystroke_l	l	n/a
411.7135	0.105	823427	keystroke_i	i	n/a
411.9545	0.105	823909	keystroke_k	k	n/a
412.0895	0.09	824179	keystroke_e	e	n/a
412.1935	0.106	824387	keystroke_l	l	n/a
412.3895	0.105	824779	keystroke_y	y	n/a
412.6595	0.089	825319	keystroke_Key.space	Key.space	n/a
413.0195	0.09	826039	keystroke_d	d	n/a
413.3195	0.15	826639	keystroke_e	e	n/a
413.6495	0.135	827299	keystroke_s	s	n/a
413.8145	0.09	827629	keystroke_i	i	n/a
414.1895	0.09	828379	keystroke_g	g	n/a
414.3245	0.135	828649	keystroke_n	n	n/a
414.4445	0.165	828889	keystroke_i	i	n/a
414.5645	0.135	829129	keystroke_n	n	n/a
414.6845	0.075	829369	keystroke_g	g	n/a
415.149	0.06	830298	keystroke_Key.enter	Key.enter	n/a
415.2165	6.91	830433	prompt	n/a	nails cached safari affect\n
416.319	0.0905	832638	keystroke_n	n	n/a
416.4695	0.165	832939	keystroke_a	a	n/a
416.6635	0.121	833327	keystroke_i	i	n/a
416.7685	0.121	833537	keystroke_l	l	n/a
416.9795	0.105	833959	keystroke_s	s	n/a
417.1885	0.091	834377	keystroke_Key.space	Key.space	n/a
417.4135	0.121	834827	keystroke_c	c	n/a
417.6385	0.151	835277	keystroke_a	a	n/a
417.9545	0.12	835909	keystroke_c	c	n/a
418.1045	0.12	836209	keystroke_h	h	n/a
418.2385	0.091	836477	keystroke_e	e	n/a
418.4635	0.106	836927	keystroke_d	d	n/a
418.7795	0.014	837559	keystroke_Key.space	Key.space	n/a
418.8095	0.105	837619	keystroke_s	s	n/a
419.0195	0.12	838039	keystroke_a	a	n/a
419.6195	0.1195	839239	keystroke_f	f	n/a
419.814	0.135	839628	keystroke_a	a	n/a
420.114	0.09	840228	keystroke_r	r	n/a
420.369	0.075	840738	keystroke_i	i	n/a
420.6845	0.09	841369	keystroke_Key.space	Key.space	n/a
420.8045	0.165	841609	keystroke_a	a	n/a
421.0445	0.075	842089	keystroke_f	f	n/a
421.2095	0.0895	842419	keystroke_f	f	n/a
421.3445	0.105	842689	keystroke_e	e	n/a
421.5845	0.1045	843169	keystroke_c	c	n/a
421.824	0.105	843648	keystroke_t	t	n/a
422.049	0.075	844098	keystroke_Key.enter	Key.enter	n/a
422.1325	23.859	844265	prompt	n/a	lean breeds wrapped asian\n
423.7595	0.075	847519	keystroke_l	l	n/a
423.9245	0.105	847849	keystroke_e	e	n/a
424.1045	0.12	848209	keystroke_a	a	n/a
424.2545	0.09	848509	keystroke_n	n	n/a
424.4795	0.105	848959	keystroke_Key.space	Key.space	n/a
425.1095	0.06	850219	keystroke_b	b	n/a
425.3495	0.165	850699	keystroke_r	r	n/a
425.4395	0.12	850879	keystroke_e	e	n/a
426.0995	0.105	852199	keystroke_e	e	n/a
426.3245	0.105	852649	keystroke_d	d	n/a
426.4445	0.18	852889	keystroke_s	s	n/a
426.6395	0.105	853279	keystroke_Key.space	Key.space	n/a
427.0145	0.12	854029	keystroke_w	w	n/a
427.2845	0.105	854569	keystroke_r	r	n/a
427.7945	0.15	855589	keystroke_a	a	n/a
428.0045	0.09	856009	keystroke_p	p	n/a
428.1845	0.09	856369	keystroke_p	p	n/a
428.3195	0.105	856639	keystroke_e	e	n/a
428.5295	0.12	857059	keystroke_d	d	n/a
428.6795	0.105	857359	keystroke_Key.space	Key.space	n/a
432.448	0.026	864896	keystroke_a	a	n/a
432.594	0.135	865188	keystroke_s	s	n/a
432.834	0.09	865668	keystroke_i	i	n/a
433.059	0.135	866118	keystroke_a	a	n/a
433.21	0.089	866420	keystroke_n	n	n/a
443.293	0.012	886586	keystroke_Key.backspace	Key.backspace	n/a
443.469	0.09	886938	keystroke_Key.backspace	Key.backspace	n/a
443.709	0.076	887418	keystroke_Key.backspace	Key.backspace	n/a
444.385	0.105	888770	keystroke_i	i	n/a
444.76	0.15	889520	keystroke_a	a	n/a
445.06	0.12	890120	keystroke_n	n	n/a
445.9	0.089	891800	keystroke_Key.enter	Key.enter	n/a
445.996	7.7505	891992	prompt	n/a	layout points wales dana\n
447.16	0.12	894320	keystroke_l	l	n/a
447.37	0.119	894740	keystroke_a	a	n/a
447.535	0.105	895070	keystroke_y	y	n/a
447.88	0.12	895760	keystroke_o	o	n/a
448.434	0.076	896868	keystroke_u	u	n/a
448.585	0.09	897170	keystroke_t	t	n/a
449.395	0.105	898790	keystroke_Key.space	Key.space	n/a
449.59	0.06	899180	keystroke_p	p	n/a
449.77	0.15	899540	keystroke_o	o	n/a
449.95	0.18	899900	keystroke_i	i	n/a
450.07	0.12	900140	keystroke_n	n	n/a
450.19	0.075	900380	keystroke_t	t	n/a
450.37	0.18	900740	keystroke_s	s	n/a
450.58	0.105	901160	keystroke_Key.space	Key.space	n/a
450.94	0.15	901880	keystroke_w	w	n/a
451.24	0.135	902480	keystroke_a	a	n/a
451.435	0.12	902870	keystroke_l	l	n/a
451.54	0.12	903080	keystroke_e	e	n/a
451.615	0.15	903230	keystroke_s	s	n/a
452.049	0.106	904098	keystroke_Key.space	Key.space	n/a
452.439	0.106	904878	keystroke_d	d	n/a
452.635	0.12	905270	keystroke_a	a	n/a
452.995	0.135	905990	keystroke_n	n	n/a
453.385	0.105	906770	keystroke_a	a	n/a
453.6545	0.09	907309	keystroke_Key.enter	Key.enter	n/a
453.75	7.782	907500	prompt	n/a	adobe daisy partly doll\n
454.7045	0.165	909409	keystroke_a	a	n/a
455.2445	0.12	910489	keystroke_d	d	n/a
455.4105	0.09	910821	keystroke_o	o	n/a
455.6045	0.0905	911209	keystroke_b	b	n/a
455.769	0.121	911538	keystroke_e	e	n/a
455.95	0.119	911900	keystroke_Key.space	Key.space	n/a
456.265	0.135	912530	keystroke_d	d	n/a
456.61	0.135	913220	keystroke_a	a	n/a
456.73	0.12	913460	keystroke_i	i	n/a
456.865	0.12	913730	keystroke_s	s	n/a
457.06	0.1055	914120	keystroke_y	y	n/a
457.36	0.135	914720	keystroke_Key.space	Key.space	n/a
457.6	0.075	915200	keystroke_p	p	n/a
457.66	0.224	915320	keystroke_a	a	n/a
457.825	0.105	915650	keystroke_r	r	n/a
458.064	0.091	916128	keystroke_t	t	n/a
459.475	0.075	918950	keystroke_l	l	n/a
459.7305	0.104	919461	keystroke_y	y	n/a
460.5245	0.105	921049	keystroke_Key.space	Key.space	n/a
460.7195	0.105	921439	keystroke_d	d	n/a
460.8695	0.09	921739	keystroke_o	o	n/a
461.0795	0.09	922159	keystroke_l	l	n/a
461.2295	0.075	922459	keystroke_l	l	n/a
461.469	0.0605	922938	keystroke_Key.enter	Key.enter	n/a
461.538	8.739	923076	prompt	n/a	item formula synthesis registry\n
462.5505	0.06	925101	keystroke_i	i	n/a
462.6395	0.09	925279	keystroke_t	t	n/a
462.8045	0.121	925609	keystroke_e	e	n/a
463.1345	0.09	926269	keystroke_m	m	n/a
463.6145	0.135	927229	keystroke_Key.space	Key.space	n/a
463.8555	0.074	927711	keystroke_f	f	n/a
463.9745	0.106	927949	keystroke_o	o	n/a
464.0495	0.136	928099	keystroke_r	r	n/a
464.2295	0.0895	928459	keystroke_m	m	n/a
464.454	0.0765	928908	keystroke_u	u	n/a
464.6795	0.105	929359	keystroke_l	l	n/a
464.7545	0.1345	929509	keystroke_a	a	n/a
466.074	0.105	932148	keystroke_Key.space	Key.space	n/a
466.284	0.1515	932568	keystroke_s	s	n/a
466.57	0.074	933140	keystroke_y	y	n/a
466.8855	0.1045	933771	keystroke_n	n	n/a
467.2305	0.0885	934461	keystroke_t	t	n/a
467.335	0.0755	934670	keystroke_h	h	n/a
467.455	0.135	934910	keystroke_e	e	n/a
467.725	0.1195	935450	keystroke_s	s	n/a
467.874	0.1205	935748	keystroke_i	i	n/a
468.009	0.075	936018	keystroke_s	s	n/a
468.279	0.12	936558	keystroke_Key.space	Key.space	n/a
468.745	0.164	937490	keystroke_r	r	n/a
468.85	0.134	937700	keystroke_e	e	n/a
469.059	0.1215	938118	keystroke_g	g	n/a
469.194	0.106	938388	keystroke_i	i	n/a
469.3	0.135	938600	keystroke_s	s	n/a
469.48	0.105	938960	keystroke_t	t	n/a
469.69	0.104	939380	keystroke_r	r	n/a
469.825	0.089	939650	keystroke_y	y	n/a
470.184	0.09	940368	keystroke_Key.enter	Key.enter	n/a
470.286	9.4705	940572	prompt	n/a	biblical jacksonville supported lycos\n
471.2655	0.0595	942531	keystroke_b	b	n/a
471.445	0.089	942890	keystroke_i	i	n/a
471.97	0.09	943940	keystroke_b	b	n/a
472.194	0.166	944388	keystroke_l	l	n/a
472.315	0.12	944630	keystroke_i	i	n/a
472.539	0.09	945078	keystroke_c	c	n/a
472.719	0.12	945438	keystroke_a	a	n/a
472.81	0.09	945620	keystroke_l	l	n/a
472.93	0.164	945860	keystroke_Key.space	Key.space	n/a
473.184	0.076	946368	keystroke_j	j	n/a
473.275	0.149	946550	keystroke_a	a	n/a
473.65	0.119	947300	keystroke_c	c	n/a
473.815	0.119	947630	keystroke_k	k	n/a
473.965	0.119	947930	keystroke_s	s	n/a
474.1	0.164	948200	keystroke_o	o	n/a
474.189	0.121	948378	keystroke_n	n	n/a
474.55	0.12	949100	keystroke_v	v	n/a
474.759	0.076	949518	keystroke_i	i	n/a
474.955	0.075	949910	keystroke_l	l	n/a
475.1055	0.089	950211	keystroke_l	l	n/a
475.285	0.165	950570	keystroke_e	e	n/a
475.435	0.15	950870	keystroke_Key.space	Key.space	n/a
475.6	0.135	951200	keystroke_s	s	n/a
475.764	0.076	951528	keystroke_u	u	n/a
475.944	0.076	951888	keystroke_p	p	n/a
476.11	0.074	952220	keystroke_p	p	n/a
476.305	0.104	952610	keystroke_o	o	n/a
476.425	0.075	952850	keystroke_r	r	n/a
476.604	0.166	953208	keystroke_t	t	n/a
476.755	0.075	953510	keystroke_e	e	n/a
477.19	0.09	954380	keystroke_d	d	n/a
478.344	0.075	956688	keystroke_Key.space	Key.space	n/a
478.435	0.09	956870	keystroke_l	l	n/a
478.66	0.105	957320	keystroke_y	y	n/a
478.93	0.105	957860	keystroke_c	c	n/a
479.064	0.076	958128	keystroke_o	o	n/a
479.17	0.105	958340	keystroke_s	s	n/a
479.6795	0.075	959359	keystroke_Key.enter	Key.enter	n/a
479.761	8.337	959522	prompt	n/a	for constructed later loss\n
480.7005	0.075	961401	keystroke_f	f	n/a
480.8195	0.091	961639	keystroke_o	o	n/a
480.9405	0.135	961881	keystroke_r	r	n/a
481.1045	0.105	962209	keystroke_Key.space	Key.space	n/a
481.7195	0.106	963439	keystroke_o	o	n/a
482.2755	0.089	964551	keystroke_n	n	n/a
482.6645	0.061	965329	keystroke_Key.backspace	Key.backspace	n/a
482.8305	0.059	965661	keystroke_Key.backspace	Key.backspace	n/a
483.0095	0.091	966019	keystroke_c	c	n/a
483.1145	0.195	966229	keystroke_o	o	n/a
483.2505	0.12	966501	keystroke_n	n	n/a
483.3855	0.09	966771	keystroke_s	s	n/a
483.5955	0.0595	967191	keystroke_t	t	n/a
483.775	0.105	967550	keystroke_r	r	n/a
484.735	0.09	969470	keystroke_u	u	n/a
484.885	0.12	969770	keystroke_c	c	n/a
485.2	0.135	970400	keystroke_t	t	n/a
485.336	0.089	970672	keystroke_e	e	n/a
485.545	0.12	971090	keystroke_d	d	n/a
485.7695	0.12	971539	keystroke_Key.space	Key.space	n/a
485.9645	0.09	971929	keystroke_l	l	n/a
486.1895	0.1055	972379	keystroke_a	a	n/a
486.3695	0.12	972739	keystroke_t	t	n/a
486.5195	0.15	973039	keystroke_e	e	n/a
486.6095	0.1955	973219	keystroke_r	r	n/a
487.0595	0.105	974119	keystroke_Key.space	Key.space	n/a
487.3145	0.075	974629	keystroke_l	l	n/a
487.4945	0.09	974989	keystroke_o	o	n/a
487.6295	0.06	975259	keystroke_s	s	n/a
487.795	0.12	975590	keystroke_s	s	n/a
488.035	0.06	976070	keystroke_Key.enter	Key.enter	n/a
488.1015	8.5005	976203	prompt	n/a	elite option douglas volumes\n
489.175	0.09	978350	keystroke_e	e	n/a
489.37	0.15	978740	keystroke_l	l	n/a
489.49	0.12	978980	keystroke_i	i	n/a
489.715	0.15	979430	keystroke_t	t	n/a
489.835	0.165	979670	keystroke_e	e	n/a
490.045	0.135	980090	keystroke_Key.space	Key.space	n/a
490.435	0.18	980870	keystroke_o	o	n/a
490.54	0.135	981080	keystroke_p	p	n/a
490.765	0.105	981530	keystroke_t	t	n/a
490.87	0.195	981740	keystroke_i	i	n/a
490.975	0.195	981950	keystroke_o	o	n/a
491.11	0.12	982220	keystroke_n	n	n/a
491.515	0.135	983030	keystroke_Key.space	Key.space	n/a
491.755	0.105	983510	keystroke_d	d	n/a
491.935	0.195	983870	keystroke_o	o	n/a
492.07	0.12	984140	keystroke_u	u	n/a
492.43	0.105	984860	keystroke_g	g	n/a
492.64	0.12	985280	keystroke_l	l	n/a
492.79	0.105	985580	keystroke_a	a	n/a
493.015	0.105	986030	keystroke_s	s	n/a
493.6	0.12	987200	keystroke_Key.space	Key.space	n/a
494.185	0.12	988370	keystroke_v	v	n/a
494.32	0.09	988640	keystroke_o	o	n/a
494.515	0.105	989030	keystroke_l	l	n/a
494.695	0.12	989390	keystroke_u	u	n/a
494.995	0.12	989990	keystroke_m	m	n/a
495.265	0.135	990530	keystroke_e	e	n/a
495.37	0.12	990740	keystroke_s	s	n/a
496.54	0.06	993080	keystroke_Key.enter	Key.enter	n/a
496.607	12.9105	993214	prompt	n/a	enquiry config instruments arabia\n
497.605	0.105	995210	keystroke_e	e	n/a
497.815	0.075	995630	keystroke_n	n	n/a
498.34	0.15	996680	keystroke_q	q	n/a
498.505	0.105	997010	keystroke_u	u	n/a
498.775	0.12	997550	keystroke_i	i	n/a
499.69	0.105	999380	keystroke_r	r	n/a
499.885	0.09	999770	keystroke_y	y	n/a
500.275	0.15	1000550	keystroke_Key.space	Key.space	n/a
500.8	0.105	1001600	keystroke_c	c	n/a
500.935	0.15	1001870	keystroke_o	o	n/a
500.995	0.135	1001990	keystroke_n	n	n/a
501.16	0.09	1002320	keystroke_f	f	n/a
501.295	0.105	1002590	keystroke_i	i	n/a
501.55	0.075	1003100	keystroke_g	g	n/a
502.36	0.12	1004720	keystroke_Key.space	Key.space	n/a
502.615	0.105	1005230	keystroke_i	i	n/a
502.855	0.105	1005710	keystroke_n	n	n/a
502.961	0.239	1005922	keystroke_s	s	n/a
503.155	0.105	1006310	keystroke_t	t	n/a
503.935	0.105	1007870	keystroke_r	r	n/a
504.175	0.12	1008350	keystroke_u	u	n/a
505.75	0.12	1011500	keystroke_m	m	n/a
505.915	0.165	1011830	keystroke_e	e	n/a
506.02	0.09	1012040	keystroke_n	n	n/a
506.275	0.105	1012550	keystroke_t	t	n/a
507.325	0.09	1014650	keystroke_s	s	n/a
507.7	0.135	1015400	keystroke_Key.space	Key.space	n/a
508.045	0.15	1016090	keystroke_a	a	n/a
508.315	0.12	1016630	keystroke_r	r	n/a
508.465	0.18	1016930	keystroke_a	a	n/a
509.095	0.135	1018190	keystroke_b	b	n/a
509.215	0.075	1018430	keystroke_i	i	n/a
509.26	0.12	1018520	keystroke_a	a	n/a
509.44	0.075	1018880	keystroke_Key.enter	Key.enter	n/a
509.5225	7.2545	1019045	prompt	n/a	it defeat determine thomson\n
510.655	0.075	1021310	keystroke_i	i	n/a
511.151	0.089	1022302	keystroke_t	t	n/a
511.36	0.09	1022720	keystroke_Key.space	Key.space	n/a
511.6605	0.075	1023321	keystroke_d	d	n/a
511.8555	0.075	1023711	keystroke_e	e	n/a
512.0805	0.105	1024161	keystroke_f	f	n/a
512.3055	0.09	1024611	keystroke_e	e	n/a
512.4705	0.135	1024941	keystroke_a	a	n/a
512.6955	0.09	1025391	keystroke_t	t	n/a
512.9055	0.105	1025811	keystroke_Key.space	Key.space	n/a
513.1155	0.09	1026231	keystroke_d	d	n/a
513.3105	0.105	1026621	keystroke_e	e	n/a
513.4755	0.105	1026951	keystroke_t	t	n/a
513.6855	0.12	1027371	keystroke_e	e	n/a
513.7455	0.135	1027491	keystroke_r	r	n/a
513.8955	0.059	1027791	keystroke_m	m	n/a
514.0745	0.135	1028149	keystroke_i	i	n/a
514.1955	0.135	1028391	keystroke_n	n	n/a
514.3455	0.134	1028691	keystroke_e	e	n/a
514.4645	0.105	1028929	keystroke_Key.space	Key.space	n/a
514.8405	0.074	1029681	keystroke_t	t	n/a
514.9905	0.105	1029981	keystroke_h	h	n/a
515.1555	0.105	1030311	keystroke_o	o	n/a
515.4105	0.135	1030821	keystroke_m	m	n/a
515.786	0.135	1031572	keystroke_s	s	n/a
515.9355	0.12	1031871	keystroke_o	o	n/a
515.9795	0.136	1031959	keystroke_n	n	n/a
516.6845	0.09	1033369	keystroke_Key.enter	Key.enter	n/a
516.782	11.141	1033564	prompt	n/a	citation discounted audi delay\n
517.855	0.105	1035710	keystroke_c	c	n/a
518.125	0.09	1036250	keystroke_i	i	n/a
518.38	0.09	1036760	keystroke_t	t	n/a
518.545	0.18	1037090	keystroke_a	a	n/a
518.785	0.105	1037570	keystroke_t	t	n/a
518.875	0.165	1037750	keystroke_i	i	n/a
518.965	0.196	1037930	keystroke_o	o	n/a
519.115	0.121	1038230	keystroke_n	n	n/a
519.28	0.105	1038560	keystroke_Key.space	Key.space	n/a
519.505	0.12	1039010	keystroke_d	d	n/a
519.67	0.09	1039340	keystroke_i	i	n/a
519.895	0.105	1039790	keystroke_s	s	n/a
520.15	0.12	1040300	keystroke_c	c	n/a
520.285	0.135	1040570	keystroke_o	o	n/a
521.38	0.075	1042760	keystroke_i	i	n/a
521.8	0.075	1043600	keystroke_Key.backspace	Key.backspace	n/a
522.115	0.09	1044230	keystroke_u	u	n/a
522.34	0.105	1044680	keystroke_n	n	n/a
522.505	0.09	1045010	keystroke_t	t	n/a
522.685	0.09	1045370	keystroke_e	e	n/a
522.895	0.105	1045790	keystroke_d	d	n/a
523.105	0.105	1046210	keystroke_Key.space	Key.space	n/a
523.36	0.12	1046720	keystroke_a	a	n/a
523.51	0.09	1047020	keystroke_u	u	n/a
523.72	0.105	1047440	keystroke_d	d	n/a
523.871	0.0895	1047742	keystroke_i	i	n/a
524.08	0.09	1048160	keystroke_Key.space	Key.space	n/a
524.275	0.09	1048550	keystroke_d	d	n/a
524.47	0.105	1048940	keystroke_e	e	n/a
524.59	0.09	1049180	keystroke_l	l	n/a
524.8	0.105	1049600	keystroke_a	a	n/a
524.965	0.075	1049930	keystroke_y	y	n/a
527.893	0.027	1055786	keystroke_Key.enter	Key.enter	n/a
527.9275	9.1155	1055855	prompt	n/a	planners navigation kevin climb\n
529.225	0.105	1058450	keystroke_p	p	n/a
529.435	0.105	1058870	keystroke_l	l	n/a
529.585	0.15	1059170	keystroke_a	a	n/a
529.795	0.06	1059590	keystroke_n	n	n/a
529.96	0.09	1059920	keystroke_n	n	n/a
530.065	0.165	1060130	keystroke_e	e	n/a
530.156	0.134	1060312	keystroke_r	r	n/a
530.365	0.18	1060730	keystroke_s	s	n/a
530.53	0.12	1061060	keystroke_Key.space	Key.space	n/a
530.83	0.12	1061660	keystroke_n	n	n/a
531.07	0.135	1062140	keystroke_a	a	n/a
531.595	0.135	1063190	keystroke_v	v	n/a
531.97	0.105	1063940	keystroke_i	i	n/a
532.225	0.09	1064450	keystroke_g	g	n/a
532.39	0.135	1064780	keystroke_a	a	n/a
532.66	0.09	1065320	keystroke_t	t	n/a
532.735	0.195	1065470	keystroke_i	i	n/a
532.841	0.194	1065682	keystroke_o	o	n/a
533.005	0.105	1066010	keystroke_n	n	n/a
533.125	0.135	1066250	keystroke_Key.space	Key.space	n/a
533.47	0.105	1066940	keystroke_k	k	n/a
533.635	0.091	1067270	keystroke_e	e	n/a
534.025	0.135	1068050	keystroke_v	v	n/a
534.266	0.164	1068532	keystroke_i	i	n/a
534.355	0.105	1068710	keystroke_n	n	n/a
534.685	0.12	1069370	keystroke_Key.space	Key.space	n/a
535.075	0.135	1070150	keystroke_c	c	n/a
535.195	0.18	1070390	keystroke_l	l	n/a
535.285	0.135	1070570	keystroke_i	i	n/a
535.555	0.12	1071110	keystroke_m	m	n/a
536.035	0.075	1072070	keystroke_b	b	n/a
536.965	0.075	1073930	keystroke_Key.enter	Key.enter	n/a
537.048	8.9795	1074096	prompt	n/a	cycle submitted majority teach\n
538.33	0.12	1076660	keystroke_c	c	n/a
538.54	0.12	1077080	keystroke_u	u	n/a
538.96	0.075	1077920	keystroke_Key.backspace	Key.backspace	n/a
539.245	0.105	1078490	keystroke_y	y	n/a
539.6205	0.06	1079241	keystroke_c	c	n/a
539.8905	0.075	1079781	keystroke_l	l	n/a
540.0705	0.12	1080141	keystroke_e	e	n/a
540.5655	0.12	1081131	keystroke_Key.space	Key.space	n/a
540.7455	0.15	1081491	keystroke_s	s	n/a
540.8505	0.12	1081701	keystroke_u	u	n/a
541.1505	0.06	1082301	keystroke_b	b	n/a
541.4355	0.135	1082871	keystroke_m	m	n/a
541.8705	0.105	1083741	keystroke_i	i	n/a
542.1555	0.045	1084311	keystroke_t	t	n/a
542.2905	0.12	1084581	keystroke_t	t	n/a
542.4405	0.12	1084881	keystroke_e	e	n/a
542.6655	0.12	1085331	keystroke_d	d	n/a
542.9205	0.105	1085841	keystroke_Key.space	Key.space	n/a
543.2055	0.105	1086411	keystroke_m	m	n/a
543.3255	0.18	1086651	keystroke_a	a	n/a
543.6105	0.12	1087221	keystroke_j	j	n/a
543.7455	0.15	1087491	keystroke_o	o	n/a
544.0005	0.09	1088001	keystroke_r	r	n/a
544.0755	0.105	1088151	keystroke_i	i	n/a
544.1955	0.09	1088391	keystroke_t	t	n/a
544.3305	0.09	1088661	keystroke_y	y	n/a
544.6455	0.09	1089291	keystroke_Key.space	Key.space	n/a
544.8705	0.135	1089741	keystroke_t	t	n/a
544.9755	0.15	1089951	keystroke_e	e	n/a
545.2455	0.105	1090491	keystroke_a	a	n/a
545.5005	0.105	1091001	keystroke_c	c	n/a
545.651	0.0895	1091302	keystroke_h	h	n/a
545.9505	0.075	1091901	keystroke_Key.enter	Key.enter	n/a
546.033	12.0695	1092066	prompt	n/a	perth trackbacks globe lessons\n
547.0755	0.075	1094151	keystroke_p	p	n/a
547.2855	0.195	1094571	keystroke_e	e	n/a
547.871	0.12	1095742	keystroke_r	r	n/a
548.096	0.12	1096192	keystroke_t	t	n/a
548.246	0.09	1096492	keystroke_h	h	n/a
548.426	0.104	1096852	keystroke_Key.space	Key.space	n/a
548.711	0.075	1097422	keystroke_t	t	n/a
548.891	0.09	1097782	keystroke_r	r	n/a
549.026	0.105	1098052	keystroke_a	a	n/a
549.281	0.105	1098562	keystroke_c	c	n/a
549.551	0.0895	1099102	keystroke_k	k	n/a
550.541	0.12	1101082	keystroke_b	b	n/a
550.676	0.09	1101352	keystroke_a	a	n/a
550.916	0.105	1101832	keystroke_c	c	n/a
551.006	0.105	1102012	keystroke_k	k	n/a
551.155	0.136	1102310	keystroke_s	s	n/a
551.335	0.09	1102670	keystroke_Key.space	Key.space	n/a
551.531	0.104	1103062	keystroke_g	g	n/a
551.756	0.09	1103512	keystroke_l	l	n/a
551.951	0.074	1103902	keystroke_o	o	n/a
552.161	0.09	1104322	keystroke_b	b	n/a
552.311	0.09	1104622	keystroke_e	e	n/a
552.806	0.09	1105612	keystroke_Key.space	Key.space	n/a
553.076	0.06	1106152	keystroke_t	t	n/a
553.526	0.074	1107052	keystroke_Key.backspace	Key.backspace	n/a
553.796	0.135	1107592	keystroke_l	l	n/a
553.901	0.135	1107802	keystroke_e	e	n/a
554.051	0.225	1108102	keystroke_s	s	n/a
554.576	0.105	1109152	keystroke_s	s	n/a
554.786	0.12	1109572	keystroke_i	i	n/a
554.876	0.18	1109752	keystroke_o	o	n/a
555.596	0.12	1111192	keystroke_Key.backspace	Key.backspace	n/a
556.016	0.09	1112032	keystroke_Key.backspace	Key.backspace	n/a
556.496	0.105	1112992	keystroke_o	o	n/a
556.931	0.105	1113862	keystroke_n	n	n/a
557.306	0.075	1114612	keystroke_s	s	n/a
558.026	0.075	1116052	keystroke_Key.enter	Key.enter	n/a
558.1075	9.2195	1116215	prompt	n/a	pills douglas enlarge batman\n
558.986	0.12	1117972	keystroke_p	p	n/a
559.226	0.09	1118452	keystroke_i	i	n/a
559.436	0.075	1118872	keystroke_l	l	n/a
559.616	0.09	1119232	keystroke_l	l	n/a
559.721	0.21	1119442	keystroke_s	s	n/a
559.901	0.12	1119802	keystroke_Key.space	Key.space	n/a
560.456	0.105	1120912	keystroke_d	d	n/a
560.636	0.18	1121272	keystroke_o	o	n/a
560.756	0.12	1121512	keystroke_u	u	n/a
561.086	0.12	1122172	keystroke_g	g	n/a
561.266	0.12	1122532	keystroke_l	l	n/a
561.416	0.105	1122832	keystroke_a	a	n/a
561.641	0.12	1123282	keystroke_s	s	n/a
561.956	0.09	1123912	keystroke_Key.space	Key.space	n/a
562.376	0.09	1124752	keystroke_e	e	n/a
562.646	0.09	1125292	keystroke_n	n	n/a
562.916	0.15	1125832	keystroke_l	l	n/a
563.081	0.21	1126162	keystroke_a	a	n/a
563.216	0.12	1126432	keystroke_r	r	n/a
563.426	0.12	1126852	keystroke_g	g	n/a
563.6205	0.15	1127241	keystroke_e	e	n/a
563.8155	0.135	1127631	keystroke_Key.space	Key.space	n/a
564.1005	0.09	1128201	keystroke_b	b	n/a
564.2055	0.135	1128411	keystroke_a	a	n/a
564.4905	0.09	1128981	keystroke_t	t	n/a
564.6555	0.105	1129311	keystroke_m	m	n/a
564.8655	0.12	1129731	keystroke_a	a	n/a
564.9705	0.105	1129941	keystroke_n	n	n/a
567.2845	0.041	1134569	keystroke_Key.enter	Key.enter	n/a
567.334	10.434	1134668	prompt	n/a	shortcuts wright considering chan\n
568.4665	0.15	1136933	keystroke_s	s	n/a
568.7055	0.105	1137411	keystroke_h	h	n/a
568.9615	0.105	1137923	keystroke_o	o	n/a
569.4405	0.105	1138881	keystroke_r	r	n/a
569.8605	0.105	1139721	keystroke_t	t	n/a
570.1905	0.105	1140381	keystroke_c	c	n/a
570.3555	0.09	1140711	keystroke_u	u	n/a
570.4605	0.105	1140921	keystroke_t	t	n/a
570.7005	0.12	1141401	keystroke_s	s	n/a
570.8655	0.105	1141731	keystroke_Key.space	Key.space	n/a
571.1655	0.12	1142331	keystroke_w	w	n/a
571.3905	0.15	1142781	keystroke_r	r	n/a
572.156	0.09	1144312	keystroke_i	i	n/a
572.366	0.106	1144732	keystroke_g	g	n/a
572.516	0.075	1145032	keystroke_h	h	n/a
572.621	0.105	1145242	keystroke_t	t	n/a
572.891	0.09	1145782	keystroke_Key.space	Key.space	n/a
573.281	0.105	1146562	keystroke_c	c	n/a
573.371	0.15	1146742	keystroke_o	o	n/a
573.446	0.15	1146892	keystroke_n	n	n/a
573.716	0.135	1147432	keystroke_s	s	n/a
573.896	0.105	1147792	keystroke_i	i	n/a
574.061	0.06	1148122	keystroke_d	d	n/a
574.256	0.195	1148512	keystroke_e	e	n/a
574.406	0.15	1148812	keystroke_r	r	n/a
574.766	0.165	1149532	keystroke_i	i	n/a
574.886	0.12	1149772	keystroke_n	n	n/a
575.007	0.089	1150014	keystroke_g	g	n/a
575.77	0.136	1151540	keystroke_Key.space	Key.space	n/a
576.146	0.12	1152292	keystroke_c	c	n/a
576.236	0.09	1152472	keystroke_h	h	n/a
576.356	0.12	1152712	keystroke_a	a	n/a
576.461	0.105	1152922	keystroke_n	n	n/a
577.676	0.09	1155352	keystroke_Key.enter	Key.enter	n/a
577.774	19.6145	1155548	prompt	n/a	simpsons indianapolis opportunities acrylic\n
578.98	0.165	1157960	keystroke_s	s	n/a
579.161	0.06	1158322	keystroke_i	i	n/a
579.356	0.105	1158712	keystroke_m	m	n/a
579.565	0.091	1159130	keystroke_p	p	n/a
579.746	0.135	1159492	keystroke_s	s	n/a
579.866	0.15	1159732	keystroke_o	o	n/a
579.971	0.135	1159942	keystroke_n	n	n/a
580.121	0.105	1160242	keystroke_s	s	n/a
580.346	0.135	1160692	keystroke_Key.space	Key.space	n/a
580.676	0.165	1161352	keystroke_i	i	n/a
580.781	0.105	1161562	keystroke_n	n	n/a
582.806	0.075	1165612	keystroke_Key.backspace	Key.backspace	n/a
582.986	0.06	1165972	keystroke_Key.backspace	Key.backspace	n/a
583.151	0.09	1166302	keystroke_Key.backspace	Key.backspace	n/a
583.346	0.06	1166692	keystroke_Key.backspace	Key.backspace	n/a
583.556	0.06	1167112	keystroke_Key.backspace	Key.backspace	n/a
583.766	0.06	1167532	keystroke_Key.backspace	Key.backspace	n/a
584.171	0.06	1168342	keystroke_Key.backspace	Key.backspace	n/a
584.876	0.105	1169752	keystroke_s	s	n/a
585.371	0.09	1170742	keystroke_Key.backspace	Key.backspace	n/a
586.061	0.105	1172122	keystroke_s	s	n/a
586.241	0.18	1172482	keystroke_o	o	n/a
586.346	0.12	1172692	keystroke_n	n	n/a
586.511	0.12	1173022	keystroke_s	s	n/a
586.931	0.105	1173862	keystroke_Key.space	Key.space	n/a
587.216	0.15	1174432	keystroke_i	i	n/a
587.396	0.105	1174792	keystroke_n	n	n/a
587.741	0.135	1175482	keystroke_d	d	n/a
587.891	0.12	1175782	keystroke_i	i	n/a
588.266	0.165	1176532	keystroke_a	a	n/a
588.491	0.12	1176982	keystroke_n	n	n/a
588.641	0.18	1177282	keystroke_a	a	n/a
588.866	0.18	1177732	keystroke_p	p	n/a
588.986	0.12	1177972	keystroke_o	o	n/a
589.211	0.15	1178422	keystroke_l	l	n/a
589.316	0.135	1178632	keystroke_i	i	n/a
589.481	0.135	1178962	keystroke_s	s	n/a
589.721	0.12	1179442	keystroke_Key.space	Key.space	n/a
589.976	0.12	1179952	keystroke_o	o	n/a
590.246	0.045	1180492	keystroke_p	p	n/a
590.501	0.105	1181002	keystroke_p	p	n/a
591.041	0.105	1182082	keystroke_o	o	n/a
591.206	0.105	1182412	keystroke_r	r	n/a
591.671	0.105	1183342	keystroke_t	t	n/a
591.821	0.09	1183642	keystroke_u	u	n/a
592.076	0.15	1184152	keystroke_n	n	n/a
592.196	0.12	1184392	keystroke_i	i	n/a
592.376	0.105	1184752	keystroke_t	t	n/a
592.526	0.105	1185052	keystroke_i	i	n/a
592.646	0.15	1185292	keystroke_e	e	n/a
592.751	0.135	1185502	keystroke_s	s	n/a
593.9215	0.12	1187843	keystroke_Key.space	Key.space	n/a
594.6115	0.12	1189223	keystroke_a	a	n/a
594.8665	0.105	1189733	keystroke_c	c	n/a
595.7515	0.105	1191503	keystroke_r	r	n/a
595.8715	0.09	1191743	keystroke_y	y	n/a
596.0965	0.15	1192193	keystroke_l	l	n/a
596.2165	0.134	1192433	keystroke_i	i	n/a
596.3665	0.075	1192733	keystroke_c	c	n/a
597.2965	0.09	1194593	keystroke_Key.enter	Key.enter	n/a
597.393	10.9295	1194786	prompt	n/a	acid pointer came what're\n
598.3465	0.105	1196693	keystroke_a	a	n/a
598.5865	0.105	1197173	keystroke_c	c	n/a
598.7215	0.12	1197443	keystroke_i	i	n/a
599.0515	0.09	1198103	keystroke_d	d	n/a
599.6665	0.135	1199333	keystroke_Key.space	Key.space	n/a
599.8765	0.06	1199753	keystroke_p	p	n/a
600.0715	0.135	1200143	keystroke_o	o	n/a
600.3265	0.165	1200653	keystroke_i	i	n/a
600.4165	0.15	1200833	keystroke_n	n	n/a
600.5515	0.12	1201103	keystroke_t	t	n/a
600.7765	0.15	1201553	keystroke_e	e	n/a
600.8965	0.135	1201793	keystroke_r	r	n/a
601.1665	0.135	1202333	keystroke_Key.space	Key.space	n/a
601.4965	0.09	1202993	keystroke_c	c	n/a
601.7665	0.105	1203533	keystroke_a	a	n/a
601.8865	0.105	1203773	keystroke_m	m	n/a
602.0815	0.164	1204163	keystroke_e	e	n/a
602.2305	0.15	1204461	keystroke_Key.space	Key.space	n/a
602.5165	0.105	1205033	keystroke_w	w	n/a
602.6815	0.105	1205363	keystroke_h	h	n/a
602.7865	0.105	1205573	keystroke_a	a	n/a
603.0555	0.12	1206111	keystroke_t	t	n/a
604.031	0.045	1208062	keystroke_'	'	n/a
604.376	0.135	1208752	keystroke_e	e	n/a
604.976	0.105	1209952	keystroke_Key.backspace	Key.backspace	n/a
605.336	0.12	1210672	keystroke_r	r	n/a
605.426	0.12	1210852	keystroke_e	e	n/a
608.3095	0.011	1216619	keystroke_Key.enter	Key.enter	n/a
608.327	11.0825	1216654	prompt	n/a	telephony closing placing you've\n
609.2665	0.135	1218533	keystroke_t	t	n/a
609.4305	0.106	1218861	keystroke_e	e	n/a
609.5815	0.1195	1219163	keystroke_l	l	n/a
609.746	0.105	1219492	keystroke_e	e	n/a
609.896	0.135	1219792	keystroke_p	p	n/a
610.106	0.12	1220212	keystroke_h	h	n/a
610.196	0.195	1220392	keystroke_o	o	n/a
610.376	0.105	1220752	keystroke_n	n	n/a
610.706	0.105	1221412	keystroke_y	y	n/a
610.931	0.12	1221862	keystroke_Key.space	Key.space	n/a
611.321	0.135	1222642	keystroke_c	c	n/a
611.441	0.105	1222882	keystroke_l	l	n/a
611.666	0.12	1223332	keystroke_o	o	n/a
611.861	0.15	1223722	keystroke_s	s	n/a
612.026	0.18	1224052	keystroke_i	i	n/a
612.131	0.12	1224262	keystroke_n	n	n/a
612.296	0.045	1224592	keystroke_g	g	n/a
613.511	0.105	1227022	keystroke_Key.space	Key.space	n/a
613.766	0.09	1227532	keystroke_p	p	n/a
613.976	0.15	1227952	keystroke_l	l	n/a
614.127	0.074	1228254	keystroke_a	a	n/a
614.366	0.12	1228732	keystroke_c	c	n/a
615.2965	0.1645	1230593	keystroke_i	i	n/a
615.401	0.105	1230802	keystroke_n	n	n/a
615.551	0.075	1231102	keystroke_g	g	n/a
615.806	0.135	1231612	keystroke_Key.space	Key.space	n/a
617.531	0.135	1235062	keystroke_y	y	n/a
617.621	0.21	1235242	keystroke_o	o	n/a
617.771	0.12	1235542	keystroke_u	u	n/a
618.221	0.105	1236442	keystroke_'	'	n/a
618.611	0.09	1237222	keystroke_v	v	n/a
618.731	0.105	1237462	keystroke_e	e	n/a
619.346	0.06	1238692	keystroke_Key.enter	Key.enter	n/a
619.4155	12.7575	1238831	prompt	n/a	trackback boulevard empty pierre\n
620.201	0.09	1240402	keystroke_t	t	n/a
620.381	0.09	1240762	keystroke_r	r	n/a
620.561	0.105	1241122	keystroke_a	a	n/a
620.921	0.135	1241842	keystroke_c	c	n/a
621.071	0.105	1242142	keystroke_k	k	n/a
621.296	0.105	1242592	keystroke_b	b	n/a
621.461	0.09	1242922	keystroke_a	a	n/a
621.701	0.135	1243402	keystroke_c	c	n/a
621.926	0.135	1243852	keystroke_k	k	n/a
622.136	0.15	1244272	keystroke_Key.space	Key.space	n/a
622.436	0.12	1244872	keystroke_b	b	n/a
622.676	0.166	1245352	keystroke_o	o	n/a
622.751	0.135	1245502	keystroke_u	u	n/a
622.976	0.12	1245952	keystroke_l	l	n/a
623.366	0.135	1246732	keystroke_e	e	n/a
623.9815	0.105	1247963	keystroke_v	v	n/a
624.2665	0.165	1248533	keystroke_a	a	n/a
624.5965	0.12	1249193	keystroke_r	r	n/a
624.8515	0.12	1249703	keystroke_d	d	n/a
626.1715	0.1355	1252343	keystroke_Key.space	Key.space	n/a
626.3965	0.135	1252793	keystroke_e	e	n/a
626.5315	0.09	1253063	keystroke_m	m	n/a
626.7565	0.105	1253513	keystroke_p	p	n/a
627.8815	0.075	1255763	keystroke_t	t	n/a
628.0315	0.105	1256063	keystroke_y	y	n/a
628.6465	0.12	1257293	keystroke_Key.space	Key.space	n/a
628.9015	0.105	1257803	keystroke_p	p	n/a
629.0815	0.15	1258163	keystroke_i	i	n/a
629.4865	0.12	1258973	keystroke_r	r	n/a
630.3115	0.135	1260623	keystroke_Key.backspace	Key.backspace	n/a
630.4915	0.135	1260983	keystroke_e	e	n/a
630.8065	0.06	1261613	keystroke_r	r	n/a
630.9715	0.165	1261943	keystroke_r	r	n/a
631.2865	0.09	1262573	keystroke_e	e	n/a
632.067	0.105	1264134	keystroke_Key.enter	Key.enter	n/a
632.177	7.4075	1264354	prompt	n/a	nasty important altered gravity\n
633.087	0.12	1266174	keystroke_n	n	n/a
633.267	0.105	1266534	keystroke_a	a	n/a
633.492	0.134	1266984	keystroke_s	s	n/a
633.761	0.105	1267522	keystroke_t	t	n/a
633.912	0.089	1267824	keystroke_y	y	n/a
634.091	0.105	1268182	keystroke_Key.space	Key.space	n/a
634.226	0.091	1268452	keystroke_i	i	n/a
634.437	0.105	1268874	keystroke_m	m	n/a
634.647	0.134	1269294	keystroke_p	p	n/a
634.707	0.15	1269414	keystroke_o	o	n/a
634.826	0.105	1269652	keystroke_r	r	n/a
635.051	0.091	1270102	keystroke_t	t	n/a
635.262	0.105	1270524	keystroke_a	a	n/a
635.337	0.089	1270674	keystroke_n	n	n/a
635.487	0.105	1270974	keystroke_t	t	n/a
635.606	0.136	1271212	keystroke_Key.space	Key.space	n/a
635.877	0.15	1271754	keystroke_a	a	n/a
636.102	0.135	1272204	keystroke_l	l	n/a
636.357	0.105	1272714	keystroke_t	t	n/a
636.537	0.105	1273074	keystroke_e	e	n/a
636.612	0.18	1273224	keystroke_r	r	n/a
636.762	0.09	1273524	keystroke_e	e	n/a
637.002	0.105	1274004	keystroke_d	d	n/a
637.167	0.09	1274334	keystroke_Key.space	Key.space	n/a
637.407	0.075	1274814	keystroke_g	g	n/a
637.602	0.104	1275204	keystroke_r	r	n/a
637.857	0.06	1275714	keystroke_a	a	n/a
638.321	0.091	1276642	keystroke_v	v	n/a
638.457	0.104	1276914	keystroke_i	i	n/a
638.636	0.12	1277272	keystroke_t	t	n/a
638.786	0.09	1277572	keystroke_y	y	n/a
639.507	0.074	1279014	keystroke_Key.enter	Key.enter	n/a
639.5895	17.1245	1279179	prompt	n/a	analytical tennessee outdoor config\n
640.482	0.105	1280964	keystroke_a	a	n/a
640.811	0.105	1281622	keystroke_n	n	n/a
641.006	0.12	1282012	keystroke_a	a	n/a
641.801	0.12	1283602	keystroke_l	l	n/a
642.071	0.09	1284142	keystroke_y	y	n/a
644.142	0.074	1288284	keystroke_t	t	n/a
644.277	0.105	1288554	keystroke_i	i	n/a
644.426	0.121	1288852	keystroke_c	c	n/a
644.667	0.15	1289334	keystroke_a	a	n/a
644.786	0.105	1289572	keystroke_l	l	n/a
644.951	0.105	1289902	keystroke_Key.space	Key.space	n/a
645.266	0.09	1290532	keystroke_t	t	n/a
645.461	0.106	1290922	keystroke_e	e	n/a
645.687	0.09	1291374	keystroke_n	n	n/a
645.867	0.12	1291734	keystroke_n	n	n/a
646.106	0.135	1292212	keystroke_e	e	n/a
646.331	0.121	1292662	keystroke_s	s	n/a
646.736	0.015	1293472	keystroke_s	s	n/a
646.991	0.06	1293982	keystroke_e	e	n/a
647.216	0.015	1294432	keystroke_e	e	n/a
647.5315	0.105	1295063	keystroke_Key.space	Key.space	n/a
647.7865	0.21	1295573	keystroke_o	o	n/a
647.9365	0.09	1295873	keystroke_u	u	n/a
650.9555	0.026	1301911	keystroke_t	t	n/a
651.7015	0.136	1303403	keystroke_d	d	n/a
651.9565	0.075	1303913	keystroke_o	o	n/a
652.1365	0.09	1304273	keystroke_o	o	n/a
652.2425	0.119	1304485	keystroke_r	r	n/a
652.4215	0.12	1304843	keystroke_Key.space	Key.space	n/a
652.976	0.135	1305952	keystroke_c	c	n/a
653.171	0.21	1306342	keystroke_o	o	n/a
653.261	0.135	1306522	keystroke_n	n	n/a
653.456	0.105	1306912	keystroke_f	f	n/a
653.591	0.12	1307182	keystroke_i	i	n/a
655.211	0.075	1310422	keystroke_g	g	n/a
656.606	0.105	1313212	keystroke_Key.enter	Key.enter	n/a
656.7225	7.1605	1313445	prompt	n/a	unions filed enter productions\n
657.402	0.089	1314804	keystroke_u	u	n/a
657.596	0.105	1315192	keystroke_n	n	n/a
657.837	0.2245	1315674	keystroke_i	i	n/a
658.001	0.195	1316002	keystroke_o	o	n/a
658.197	0.074	1316394	keystroke_n	n	n/a
658.691	0.12	1317382	keystroke_s	s	n/a
658.901	0.105	1317802	keystroke_Key.space	Key.space	n/a
659.111	0.12	1318222	keystroke_f	f	n/a
659.201	0.09	1318402	keystroke_i	i	n/a
659.6665	0.12	1319333	keystroke_l	l	n/a
659.8915	0.09	1319783	keystroke_e	e	n/a
660.1015	0.105	1320203	keystroke_d	d	n/a
660.3415	0.075	1320683	keystroke_Key.space	Key.space	n/a
660.5665	0.12	1321133	keystroke_e	e	n/a
660.7615	0.15	1321523	keystroke_n	n	n/a
660.9265	0.105	1321853	keystroke_t	t	n/a
661.107	0.1495	1322214	keystroke_e	e	n/a
661.1815	0.18	1322363	keystroke_r	r	n/a
661.3165	0.135	1322633	keystroke_Key.space	Key.space	n/a
661.5865	0.1205	1323173	keystroke_p	p	n/a
661.827	0.105	1323654	keystroke_r	r	n/a
661.947	0.15	1323894	keystroke_o	o	n/a
662.157	0.135	1324314	keystroke_d	d	n/a
662.322	0.105	1324644	keystroke_u	u	n/a
662.532	0.135	1325064	keystroke_c	c	n/a
662.937	0.135	1325874	keystroke_t	t	n/a
663.057	0.105	1326114	keystroke_i	i	n/a
663.132	0.165	1326264	keystroke_o	o	n/a
663.237	0.12	1326474	keystroke_n	n	n/a
663.402	0.06	1326804	keystroke_s	s	n/a
663.7765	0.105	1327553	keystroke_Key.enter	Key.enter	n/a
663.8985	8.535	1327797	prompt	n/a	season sizes barriers thailand\n
664.6015	0.15	1329203	keystroke_s	s	n/a
664.7815	0.1205	1329563	keystroke_e	e	n/a
665.187	0.165	1330374	keystroke_s	s	n/a
666.1615	0.075	1332323	keystroke_Key.backspace	Key.backspace	n/a
666.3875	0.149	1332775	keystroke_a	a	n/a
666.6415	0.15	1333283	keystroke_s	s	n/a
666.8215	0.15	1333643	keystroke_o	o	n/a
666.9115	0.135	1333823	keystroke_n	n	n/a
667.1965	0.105	1334393	keystroke_Key.space	Key.space	n/a
667.5415	0.09	1335083	keystroke_s	s	n/a
667.6465	0.1355	1335293	keystroke_i	i	n/a
667.797	0.09	1335594	keystroke_z	z	n/a
668.0375	0.18	1336075	keystroke_e	e	n/a
668.2015	0.165	1336403	keystroke_s	s	n/a
668.5165	0.15	1337033	keystroke_Key.space	Key.space	n/a
668.7415	0.121	1337483	keystroke_b	b	n/a
668.8775	0.15	1337755	keystroke_a	a	n/a
669.0725	0.104	1338145	keystroke_r	r	n/a
669.252	0.105	1338504	keystroke_r	r	n/a
669.372	0.12	1338744	keystroke_i	i	n/a
669.732	0.165	1339464	keystroke_e	e	n/a
669.807	0.18	1339614	keystroke_r	r	n/a
670.002	0.135	1340004	keystroke_s	s	n/a
670.212	0.12	1340424	keystroke_Key.space	Key.space	n/a
670.707	0.105	1341414	keystroke_t	t	n/a
670.827	0.105	1341654	keystroke_h	h	n/a
671.322	0.135	1342644	keystroke_a	a	n/a
671.502	0.12	1343004	keystroke_i	i	n/a
671.727	0.135	1343454	keystroke_l	l	n/a
671.832	0.135	1343664	keystroke_a	a	n/a
671.982	0.105	1343964	keystroke_n	n	n/a
672.102	0.09	1344204	keystroke_d	d	n/a
672.342	0.09	1344684	keystroke_Key.enter	Key.enter	n/a
672.4385	10.841	1344877	prompt	n/a	prescribed drag leather coalition\n
673.1515	0.12	1346303	keystroke_p	p	n/a
673.4525	0.1495	1346905	keystroke_r	r	n/a
673.5415	0.15	1347083	keystroke_e	e	n/a
673.9015	0.12	1347803	keystroke_s	s	n/a
674.1415	0.12	1348283	keystroke_c	c	n/a
674.3665	0.12	1348733	keystroke_r	r	n/a
674.4715	0.09	1348943	keystroke_i	i	n/a
674.6515	0.135	1349303	keystroke_b	b	n/a
674.7715	0.075	1349543	keystroke_e	e	n/a
674.9515	0.135	1349903	keystroke_d	d	n/a
675.0875	0.12	1350175	keystroke_Key.space	Key.space	n/a
675.2665	0.12	1350533	keystroke_d	d	n/a
675.5665	0.135	1351133	keystroke_r	r	n/a
675.7615	0.12	1351523	keystroke_a	a	n/a
676.0015	0.12	1352003	keystroke_g	g	n/a
676.1665	0.12	1352333	keystroke_Key.space	Key.space	n/a
676.3315	0.12	1352663	keystroke_l	l	n/a
676.4665	0.09	1352933	keystroke_e	e	n/a
676.6165	0.165	1353233	keystroke_a	a	n/a
676.8115	0.121	1353623	keystroke_t	t	n/a
676.9465	0.09	1353893	keystroke_h	h	n/a
677.0515	0.135	1354103	keystroke_e	e	n/a
677.1565	0.165	1354313	keystroke_r	r	n/a
677.3665	0.12	1354733	keystroke_Key.space	Key.space	n/a
677.6965	0.075	1355393	keystroke_c	c	n/a
678.0265	0.105	1356053	keystroke_o	o	n/a
678.5215	0.12	1357043	keystroke_a	a	n/a
678.7025	0.134	1357405	keystroke_l	l	n/a
678.9265	0.12	1357853	keystroke_i	i	n/a
681.1345	0.012	1362269	keystroke_Key.backspace	Key.backspace	n/a
681.9115	0.09	1363823	keystroke_i	i	n/a
682.3165	0.091	1364633	keystroke_t	t	n/a
682.4515	0.06	1364903	keystroke_i	i	n/a
682.4965	0.18	1364993	keystroke_o	o	n/a
682.6165	0.12	1365233	keystroke_n	n	n/a
683.1865	0.09	1366373	keystroke_Key.enter	Key.enter	n/a
683.287	9.6675	1366574	prompt	n/a	exhaust acrylic comp teams\n
684.5815	0.105	1369163	keystroke_e	e	n/a
684.8075	0.15	1369615	keystroke_x	x	n/a
685.1525	0.089	1370305	keystroke_h	h	n/a
685.5415	0.135	1371083	keystroke_a	a	n/a
685.7525	0.119	1371505	keystroke_u	u	n/a
685.9165	0.165	1371833	keystroke_s	s	n/a
686.0965	0.135	1372193	keystroke_t	t	n/a
686.2615	0.135	1372523	keystroke_Key.space	Key.space	n/a
686.9215	0.151	1373843	keystroke_a	a	n/a
687.2665	0.135	1374533	keystroke_c	c	n/a
688.1215	0.12	1376243	keystroke_r	r	n/a
688.2575	0.104	1376515	keystroke_y	y	n/a
688.4965	0.135	1376993	keystroke_l	l	n/a
688.6015	0.135	1377203	keystroke_i	i	n/a
688.7965	0.105	1377593	keystroke_c	c	n/a
689.0965	0.075	1378193	keystroke_Key.space	Key.space	n/a
689.427	0.1345	1378854	keystroke_o	o	n/a
690.777	0.09	1381554	keystroke_Key.backspace	Key.backspace	n/a
691.093	0.134	1382186	keystroke_c	c	n/a
691.257	0.105	1382514	keystroke_o	o	n/a
691.407	0.12	1382814	keystroke_m	m	n/a
691.647	0.09	1383294	keystroke_p	p	n/a
691.917	0.12	1383834	keystroke_Key.space	Key.space	n/a
692.127	0.135	1384254	keystroke_t	t	n/a
692.247	0.135	1384494	keystroke_e	e	n/a
692.427	0.12	1384854	keystroke_a	a	n/a
692.532	0.135	1385064	keystroke_m	m	n/a
692.652	0.15	1385304	keystroke_s	s	n/a
692.862	0.09	1385724	keystroke_Key.enter	Key.enter	n/a
692.9605	12.579	1385921	prompt	n/a	sacramento loves meetings showed\n
693.9125	0.075	1387825	keystroke_a	a	n/a
694.2875	0.12	1388575	keystroke_Key.backspace	Key.backspace	n/a
694.4225	0.075	1388845	keystroke_d	d	n/a
694.5875	0.135	1389175	keystroke_a	a	n/a
695.2925	0.075	1390585	keystroke_Key.backspace	Key.backspace	n/a
695.4875	0.09	1390975	keystroke_Key.backspace	Key.backspace	n/a
696.072	0.105	1392144	keystroke_s	s	n/a
696.237	0.105	1392474	keystroke_a	a	n/a
696.507	0.09	1393014	keystroke_c	c	n/a
696.747	0.12	1393494	keystroke_r	r	n/a
696.942	0.135	1393884	keystroke_a	a	n/a
697.137	0.12	1394274	keystroke_m	m	n/a
697.572	0.135	1395144	keystroke_e	e	n/a
697.722	0.09	1395444	keystroke_n	n	n/a
697.827	0.09	1395654	keystroke_t	t	n/a
697.947	0.135	1395894	keystroke_o	o	n/a
698.112	0.12	1396224	keystroke_Key.space	Key.space	n/a
698.262	0.09	1396524	keystroke_l	l	n/a
698.457	0.0905	1396914	keystroke_o	o	n/a
698.682	0.135	1397364	keystroke_v	v	n/a
698.787	0.15	1397574	keystroke_e	e	n/a
698.892	0.135	1397784	keystroke_s	s	n/a
699.822	0.15	1399644	keystroke_Key.space	Key.space	n/a
700.032	0.12	1400064	keystroke_m	m	n/a
700.167	0.06	1400334	keystroke_e	e	n/a
700.332	0.135	1400664	keystroke_e	e	n/a
700.587	0.105	1401174	keystroke_t	t	n/a
700.992	0.225	1401984	keystroke_i	i	n/a
701.112	0.15	1402224	keystroke_n	n	n/a
701.232	0.075	1402464	keystroke_g	g	n/a
701.397	0.15	1402794	keystroke_s	s	n/a
701.712	0.09	1403424	keystroke_Key.space	Key.space	n/a
701.907	0.12	1403814	keystroke_w	w	n/a
702.057	0.18	1404114	keystroke_h	h	n/a
702.222	0.12	1404444	keystroke_o	o	n/a
702.882	0.06	1405764	keystroke_Key.backspace	Key.backspace	n/a
703.062	0.09	1406124	keystroke_Key.backspace	Key.backspace	n/a
703.572	0.06	1407144	keystroke_Key.backspace	Key.backspace	n/a
703.932	0.135	1407864	keystroke_s	s	n/a
704.112	0.135	1408224	keystroke_h	h	n/a
704.277	0.135	1408554	keystroke_o	o	n/a
704.487	0.105	1408974	keystroke_w	w	n/a
704.772	0.075	1409544	keystroke_e	e	n/a
704.998	0.089	1409996	keystroke_d	d	n/a
705.462	0.075	1410924	keystroke_Key.enter	Key.enter	n/a
705.5445	6.8495	1411089	prompt	n/a	retirement count fans saying\n
706.422	0.18	1412844	keystroke_r	r	n/a
706.557	0.165	1413114	keystroke_e	e	n/a
706.992	0.12	1413984	keystroke_t	t	n/a
707.142	0.135	1414284	keystroke_i	i	n/a
707.262	0.15	1414524	keystroke_r	r	n/a
707.397	0.105	1414794	keystroke_e	e	n/a
707.518	0.149	1415036	keystroke_m	m	n/a
707.668	0.119	1415336	keystroke_e	e	n/a
707.772	0.12	1415544	keystroke_n	n	n/a
708.192	0.075	1416384	keystroke_t	t	n/a
708.867	0.135	1417734	keystroke_Key.space	Key.space	n/a
709.317	0.105	1418634	keystroke_c	c	n/a
709.482	0.195	1418964	keystroke_o	o	n/a
709.617	0.136	1419234	keystroke_u	u	n/a
709.887	0.12	1419774	keystroke_n	n	n/a
710.067	0.06	1420134	keystroke_t	t	n/a
710.262	0.09	1420524	keystroke_Key.space	Key.space	n/a
710.458	0.105	1420916	keystroke_f	f	n/a
710.622	0.135	1421244	keystroke_a	a	n/a
710.772	0.09	1421544	keystroke_n	n	n/a
710.878	0.134	1421756	keystroke_s	s	n/a
711.072	0.12	1422144	keystroke_Key.space	Key.space	n/a
711.327	0.12	1422654	keystroke_s	s	n/a
711.552	0.12	1423104	keystroke_a	a	n/a
711.688	0.09	1423376	keystroke_y	y	n/a
711.897	0.18	1423794	keystroke_i	i	n/a
711.972	0.15	1423944	keystroke_n	n	n/a
712.078	0.105	1424156	keystroke_g	g	n/a
712.287	0.105	1424574	keystroke_Key.enter	Key.enter	n/a
712.399	11.395	1424798	prompt	n/a	pursue driver christian macedonia\n
713.367	0.076	1426734	keystroke_p	p	n/a
713.547	0.105	1427094	keystroke_u	u	n/a
713.743	0.104	1427486	keystroke_r	r	n/a
713.952	0.135	1427904	keystroke_s	s	n/a
714.118	0.104	1428236	keystroke_u	u	n/a
714.282	0.106	1428564	keystroke_e	e	n/a
714.582	0.09	1429164	keystroke_Key.space	Key.space	n/a
715.167	0.105	1430334	keystroke_d	d	n/a
715.437	0.151	1430874	keystroke_r	r	n/a
715.753	0.12	1431506	keystroke_i	i	n/a
716.083	0.134	1432166	keystroke_v	v	n/a
716.397	0.15	1432794	keystroke_e	e	n/a
716.517	0.165	1433034	keystroke_r	r	n/a
716.952	0.105	1433904	keystroke_Key.space	Key.space	n/a
717.253	0.119	1434506	keystroke_c	c	n/a
717.433	0.105	1434866	keystroke_h	h	n/a
717.597	0.15	1435194	keystroke_a	a	n/a
718.393	0.15	1436786	keystroke_r	r	n/a
718.558	0.12	1437116	keystroke_i	i	n/a
718.692	0.166	1437384	keystroke_s	s	n/a
718.918	0.12	1437836	keystroke_t	t	n/a
719.008	0.119	1438016	keystroke_i	i	n/a
719.158	0.119	1438316	keystroke_a	a	n/a
719.247	0.12	1438494	keystroke_n	n	n/a
719.442	0.12	1438884	keystroke_Key.space	Key.space	n/a
719.638	0.135	1439276	keystroke_m	m	n/a
720.313	0.149	1440626	keystroke_a	a	n/a
721.812	0.12	1443624	keystroke_c	c	n/a
722.142	0.12	1444284	keystroke_e	e	n/a
722.457	0.12	1444914	keystroke_d	d	n/a
722.637	0.135	1445274	keystroke_o	o	n/a
722.877	0.15	1445754	keystroke_n	n	n/a
722.967	0.165	1445934	keystroke_i	i	n/a
723.237	0.135	1446474	keystroke_a	a	n/a
723.7175	0.075	1447435	keystroke_Key.enter	Key.enter	n/a
723.7995	8.32	1447599	prompt	n/a	pitch barrel blood maybe\n
724.6475	0.12	1449295	keystroke_p	p	n/a
724.7825	0.135	1449565	keystroke_i	i	n/a
724.977	0.1055	1449954	keystroke_t	t	n/a
725.3525	0.1045	1450705	keystroke_h	h	n/a
725.367	0.1355	1450734	keystroke_c	c	n/a
726.0275	0.09	1452055	keystroke_Key.backspace	Key.backspace	n/a
726.2375	0.075	1452475	keystroke_Key.backspace	Key.backspace	n/a
727.858	0.09	1455716	keystroke_c	c	n/a
727.992	0.076	1455984	keystroke_h	h	n/a
728.233	0.12	1456466	keystroke_Key.space	Key.space	n/a
728.428	0.105	1456856	keystroke_b	b	n/a
728.593	0.135	1457186	keystroke_a	a	n/a
728.758	0.09	1457516	keystroke_r	r	n/a
728.923	0.105	1457846	keystroke_r	r	n/a
729.163	0.09	1458326	keystroke_e	e	n/a
729.297	0.136	1458594	keystroke_l	l	n/a
729.492	0.12	1458984	keystroke_Key.space	Key.space	n/a
729.7325	0.135	1459465	keystroke_b	b	n/a
730.0325	0.105	1460065	keystroke_l	l	n/a
730.257	0.075	1460514	keystroke_o	o	n/a
730.4225	0.1045	1460845	keystroke_o	o	n/a
730.707	0.135	1461414	keystroke_d	d	n/a
730.9475	0.1345	1461895	keystroke_Key.space	Key.space	n/a
731.127	0.12	1462254	keystroke_m	m	n/a
731.232	0.15	1462464	keystroke_a	a	n/a
731.517	0.075	1463034	keystroke_y	y	n/a
731.727	0.09	1463454	keystroke_b	b	n/a
731.847	0.09	1463694	keystroke_e	e	n/a
732.027	0.09	1464054	keystroke_Key.enter	Key.enter	n/a
732.1245	12.4755	1464249	prompt	n/a	consequences sphere annotated confused\n
733.092	0.15	1466184	keystroke_c	c	n/a
733.257	0.21	1466514	keystroke_o	o	n/a
733.317	0.12	1466634	keystroke_n	n	n/a
733.827	0.12	1467654	keystroke_s	s	n/a
734.082	0.135	1468164	keystroke_q	q	n/a
734.742	0.09	1469484	keystroke_Key.backspace	Key.backspace	n/a
734.922	0.12	1469844	keystroke_e	e	n/a
735.177	0.12	1470354	keystroke_q	q	n/a
735.312	0.105	1470624	keystroke_u	u	n/a
737.008	0.135	1474016	keystroke_e	e	n/a
737.112	0.09	1474224	keystroke_n	n	n/a
737.592	0.091	1475184	keystroke_c	c	n/a
737.787	0.165	1475574	keystroke_e	e	n/a
737.922	0.136	1475844	keystroke_s	s	n/a
738.177	0.12	1476354	keystroke_Key.space	Key.space	n/a
738.432	0.151	1476864	keystroke_s	s	n/a
739.077	0.12	1478154	keystroke_p	p	n/a
739.753	0.104	1479506	keystroke_h	h	n/a
740.023	0.164	1480046	keystroke_e	e	n/a
740.142	0.21	1480284	keystroke_r	r	n/a
740.307	0.121	1480614	keystroke_e	e	n/a
741.327	0.09	1482654	keystroke_Key.space	Key.space	n/a
741.553	0.15	1483106	keystroke_a	a	n/a
741.717	0.09	1483434	keystroke_n	n	n/a
741.882	0.15	1483764	keystroke_n	n	n/a
741.987	0.15	1483974	keystroke_o	o	n/a
742.197	0.09	1484394	keystroke_t	t	n/a
742.377	0.135	1484754	keystroke_a	a	n/a
742.527	0.135	1485054	keystroke_t	t	n/a
742.632	0.091	1485264	keystroke_e	e	n/a
742.827	0.135	1485654	keystroke_d	d	n/a
742.977	0.135	1485954	keystroke_Key.space	Key.space	n/a
743.442	0.091	1486884	keystroke_c	c	n/a
743.517	0.225	1487034	keystroke_o	o	n/a
743.608	0.119	1487216	keystroke_n	n	n/a
743.758	0.15	1487516	keystroke_f	f	n/a
743.892	0.12	1487784	keystroke_u	u	n/a
744.028	0.164	1488056	keystroke_s	s	n/a
744.117	0.136	1488234	keystroke_e	e	n/a
744.327	0.12	1488654	keystroke_d	d	n/a
744.507	0.091	1489014	keystroke_Key.enter	Key.enter	n/a
744.605	13.7795	1489210	prompt	n/a	jenny elimination suddenly researchers\n
745.557	0.09	1491114	keystroke_j	j	n/a
746.142	0.075	1492284	keystroke_u	u	n/a
746.652	0.12	1493304	keystroke_Key.backspace	Key.backspace	n/a
747.103	0.075	1494206	keystroke_e	e	n/a
747.252	0.06	1494504	keystroke_n	n	n/a
747.387	0.091	1494774	keystroke_n	n	n/a
747.688	0.09	1495376	keystroke_y	y	n/a
748.002	0.09	1496004	keystroke_Key.space	Key.space	n/a
748.498	0.09	1496996	keystroke_e	e	n/a
748.632	0.166	1497264	keystroke_l	l	n/a
748.753	0.12	1497506	keystroke_i	i	n/a
748.977	0.12	1497954	keystroke_m	m	n/a
749.202	0.076	1498404	keystroke_i	i	n/a
749.428	0.105	1498856	keystroke_n	n	n/a
750.073	0.21	1500146	keystroke_a	a	n/a
750.5675	0.09	1501135	keystroke_t	t	n/a
750.7325	0.165	1501465	keystroke_i	i	n/a
750.853	0.18	1501706	keystroke_o	o	n/a
750.973	0.105	1501946	keystroke_n	n	n/a
751.153	0.105	1502306	keystroke_Key.space	Key.space	n/a
751.408	0.15	1502816	keystroke_s	s	n/a
751.543	0.105	1503086	keystroke_u	u	n/a
751.768	0.075	1503536	keystroke_d	d	n/a
751.948	0.09	1503896	keystroke_d	d	n/a
752.173	0.09	1504346	keystroke_e	e	n/a
752.248	0.09	1504496	keystroke_n	n	n/a
752.413	0.105	1504826	keystroke_l	l	n/a
752.653	0.075	1505306	keystroke_y	y	n/a
752.983	0.15	1505966	keystroke_Key.space	Key.space	n/a
753.283	0.165	1506566	keystroke_r	r	n/a
753.403	0.135	1506806	keystroke_e	e	n/a
753.643	0.12	1507286	keystroke_s	s	n/a
753.792	0.225	1507584	keystroke_e	e	n/a
754.033	0.179	1508066	keystroke_r	r	n/a
755.9225	0.015	1511845	keystroke_Key.backspace	Key.backspace	n/a
756.7925	0.165	1513585	keystroke_a	a	n/a
757.1075	0.105	1514215	keystroke_r	r	n/a
757.3925	0.15	1514785	keystroke_c	c	n/a
757.6475	0.09	1515295	keystroke_h	h	n/a
757.7825	0.21	1515565	keystroke_e	e	n/a
757.8875	0.18	1515775	keystroke_r	r	n/a
758.0825	0.12	1516165	keystroke_s	s	n/a
758.3075	0.075	1516615	keystroke_Key.enter	Key.enter	n/a
758.3885	10.1805	1516777	prompt	n/a	upgrading products instructor designer\n
760.198	0.12	1520396	keystroke_u	u	n/a
760.273	0.105	1520546	keystroke_p	p	n/a
760.423	0.09	1520846	keystroke_g	g	n/a
760.632	0.15	1521264	keystroke_r	r	n/a
760.723	0.135	1521446	keystroke_a	a	n/a
760.948	0.15	1521896	keystroke_d	d	n/a
761.1135	0.1795	1522227	keystroke_i	i	n/a
761.218	0.105	1522436	keystroke_n	n	n/a
761.368	0.074	1522736	keystroke_g	g	n/a
761.5925	0.1045	1523185	keystroke_Key.space	Key.space	n/a
761.923	0.134	1523846	keystroke_p	p	n/a
762.208	0.15	1524416	keystroke_r	r	n/a
762.387	0.106	1524774	keystroke_o	o	n/a
762.552	0.121	1525104	keystroke_d	d	n/a
762.688	0.105	1525376	keystroke_u	u	n/a
762.853	0.075	1525706	keystroke_c	c	n/a
763.078	0.105	1526156	keystroke_t	t	n/a
763.423	0.045	1526846	keystroke_s	s	n/a
763.482	0.06	1526964	keystroke_Key.space	Key.space	n/a
763.557	0.181	1527114	keystroke_i	i	n/a
763.678	0.15	1527356	keystroke_n	n	n/a
763.843	0.134	1527686	keystroke_s	s	n/a
764.083	0.074	1528166	keystroke_t	t	n/a
764.262	0.151	1528524	keystroke_r	r	n/a
765.058	0.075	1530116	keystroke_u	u	n/a
765.193	0.12	1530386	keystroke_c	c	n/a
765.433	0.135	1530866	keystroke_t	t	n/a
765.582	0.121	1531164	keystroke_o	o	n/a
