onset	duration	sample	value	key	prompt_text
6.3385	11.313	12677	prompt	n/a	the quick brown fox jumps over a lazy dog\n
8.036	0.043	16072	keystroke_t	t	n/a
8.184	0.075	16368	keystroke_h	h	n/a
8.394	0.09	16788	keystroke_e	e	n/a
8.649	0.09	17298	keystroke_Key.space	Key.space	n/a
9.4435	0.105	18887	keystroke_q	q	n/a
9.6385	0.091	19277	keystroke_u	u	n/a
9.8035	0.076	19607	keystroke_i	i	n/a
9.9985	0.09	19997	keystroke_c	c	n/a
10.1645	0.119	20329	keystroke_k	k	n/a
10.3135	0.0905	20627	keystroke_Key.space	Key.space	n/a
10.554	0.0755	21108	keystroke_b	b	n/a
10.7645	0.0745	21529	keystroke_r	r	n/a
10.884	0.09	21768	keystroke_o	o	n/a
11.019	0.09	22038	keystroke_w	w	n/a
11.139	0.1345	22278	keystroke_n	n	n/a
11.2585	0.105	22517	keystroke_Key.space	Key.space	n/a
11.4385	0.1055	22877	keystroke_f	f	n/a
11.634	0.105	23268	keystroke_o	o	n/a
11.784	0.09	23568	keystroke_x	x	n/a
11.964	0.0895	23928	keystroke_Key.space	Key.space	n/a
12.3095	0.074	24619	keystroke_u	u	n/a
12.5485	0.12	25097	keystroke_m	m	n/a
13.1935	0.105	26387	keystroke_Key.backspace	Key.backspace	n/a
13.4035	0.09	26807	keystroke_Key.backspace	Key.backspace	n/a
13.7785	0.09	27557	keystroke_j	j	n/a
13.9895	0.074	27979	keystroke_u	u	n/a
14.2135	0.1205	28427	keystroke_m	m	n/a
14.694	0.1195	29388	keystroke_p	p	n/a
15.1145	0.105	30229	keystroke_s	s	n/a
15.2635	0.09	30527	keystroke_Key.space	Key.space	n/a
15.4735	0.075	30947	keystroke_o	o	n/a
15.5495	0.075	31099	keystroke_v	v	n/a
15.7135	0.12	31427	keystroke_e	e	n/a
15.7885	0.15	31577	keystroke_r	r	n/a
15.9085	0.09	31817	keystroke_Key.space	Key.space	n/a
15.9685	0.18	31937	keystroke_a	a	n/a
16.1345	0.074	32269	keystroke_Key.space	Key.space	n/a
16.2685	0.1055	32537	keystroke_l	l	n/a
16.389	0.12	32778	keystroke_a	a	n/a
16.644	0.12	33288	keystroke_z	z	n/a
16.794	0.06	33588	keystroke_y	y	n/a
16.899	0.12	33798	keystroke_Key.space	Key.space	n/a
17.034	0.105	34068	keystroke_d	d	n/a
17.169	0.105	34338	keystroke_o	o	n/a
17.319	0.06	34638	keystroke_g	g	n/a
17.574	0.075	35148	keystroke_Key.enter	Key.enter	n/a
17.6565	7.7945	35313	prompt	n/a	donated games considerations collectible\n
18.3085	0.076	36617	keystroke_d	d	n/a
18.4435	0.0755	36887	keystroke_o	o	n/a
18.549	0.09	37098	keystroke_n	n	n/a
18.654	0.18	37308	keystroke_a	a	n/a
18.819	0.1045	37638	keystroke_t	t	n/a
18.909	0.105	37818	keystroke_e	e	n/a
19.119	0.12	38238	keystroke_d	d	n/a
19.209	0.105	38418	keystroke_Key.space	Key.space	n/a
19.509	0.06	39018	keystroke_g	g	n/a
19.614	0.15	39228	keystroke_a	a	n/a
19.8235	0.046	39647	keystroke_m	m	n/a
19.8385	0.18	39677	keystroke_e	e	n/a
19.9745	0.149	39949	keystroke_s	s	n/a
20.1085	0.09	40217	keystroke_Key.space	Key.space	n/a
20.4685	0.09	40937	keystroke_c	c	n/a
20.694	0.1355	41388	keystroke_o	o	n/a
20.784	0.135	41568	keystroke_n	n	n/a
20.904	0.075	41808	keystroke_s	s	n/a
21.0385	0.0905	42077	keystroke_i	i	n/a
21.2195	0.09	42439	keystroke_d	d	n/a
21.504	0.1355	43008	keystroke_a	a	n/a
22.0295	0.059	44059	keystroke_Key.backspace	Key.backspace	n/a
22.1345	0.134	44269	keystroke_e	e	n/a
22.2245	0.059	44449	keystroke_r	r	n/a
22.3735	0.195	44747	keystroke_a	a	n/a
22.5235	0.1355	45047	keystroke_t	t	n/a
22.6435	0.195	45287	keystroke_i	i	n/a
22.7185	0.135	45437	keystroke_o	o	n/a
22.8545	0.119	45709	keystroke_n	n	n/a
22.989	0.165	45978	keystroke_s	s	n/a
23.139	0.105	46278	keystroke_Key.space	Key.space	n/a
23.439	0.09	46878	keystroke_c	c	n/a
23.544	0.09	47088	keystroke_o	o	n/a
23.769	0.075	47538	keystroke_l	l	n/a
23.919	0.105	47838	keystroke_l	l	n/a
23.994	0.075	47988	keystroke_e	e	n/a
24.204	0.075	48408	keystroke_c	c	n/a
24.384	0.076	48768	keystroke_t	t	n/a
24.489	0.075	48978	keystroke_i	i	n/a
24.624	0.09	49248	keystroke_b	b	n/a
24.894	0.105	49788	keystroke_l	l	n/a
25.1195	0.0745	50239	keystroke_e	e	n/a
25.3445	0.1045	50689	keystroke_Key.enter	Key.enter	n/a
25.4545	6.431	50909	prompt	n/a	indians hacker interface career\n
26.2295	0.0745	52459	keystroke_i	i	n/a
26.379	0.09	52758	keystroke_n	n	n/a
26.484	0.075	52968	keystroke_d	d	n/a
26.589	0.09	53178	keystroke_i	i	n/a
26.709	0.12	53418	keystroke_a	a	n/a
26.844	0.09	53688	keystroke_n	n	n/a
27.039	0.075	54078	keystroke_s	s	n/a
27.189	0.105	54378	keystroke_Key.space	Key.space	n/a
27.459	0.06	54918	keystroke_h	h	n/a
27.534	0.12	55068	keystroke_a	a	n/a
27.774	0.075	55548	keystroke_c	c	n/a
27.939	0.09	55878	keystroke_k	k	n/a
28.059	0.165	56118	keystroke_e	e	n/a
28.179	0.135	56358	keystroke_r	r	n/a
28.299	0.105	56598	keystroke_Key.space	Key.space	n/a
28.464	0.12	56928	keystroke_i	i	n/a
28.569	0.105	57138	keystroke_n	n	n/a
28.689	0.105	57378	keystroke_t	t	n/a
28.795	0.164	57590	keystroke_e	e	n/a
28.929	0.12	57858	keystroke_r	r	n/a
29.214	0.09	58428	keystroke_f	f	n/a
29.394	0.12	58788	keystroke_a	a	n/a
29.589	0.075	59178	keystroke_c	c	n/a
29.769	0.075	59538	keystroke_e	e	n/a
29.994	0.09	59988	keystroke_Key.space	Key.space	n/a
30.3985	0.06	60797	keystroke_c	c	n/a
30.5485	0.165	61097	keystroke_a	a	n/a
30.6685	0.09	61337	keystroke_r	r	n/a
30.894	0.0595	61788	keystroke_e	e	n/a
31.059	0.075	62118	keystroke_e	e	n/a
31.285	0.074	62570	keystroke_r	r	n/a
31.824	0.06	63648	keystroke_Key.enter	Key.enter	n/a
31.8895	13.361	63779	prompt	n/a	mold softball centered producer\n
32.6335	0.09	65267	keystroke_n	n	n/a
32.7685	0.09	65537	keystroke_o	o	n/a
33.0235	0.09	66047	keystroke_l	l	n/a
33.1735	0.105	66347	keystroke_d	d	n/a
33.3235	0.1205	66647	keystroke_Key.space	Key.space	n/a
33.564	0.09	67128	keystroke_s	s	n/a
33.699	0.1055	67398	keystroke_o	o	n/a
33.8185	0.075	67637	keystroke_f	f	n/a
34.0135	0.075	68027	keystroke_t	t	n/a
34.2535	0.09	68507	keystroke_b	b	n/a
36.099	0.06	72198	keystroke_Key.backspace	Key.backspace	n/a
36.263	0.061	72526	keystroke_Key.backspace	Key.backspace	n/a
37.074	0.074	74148	keystroke_m	m	n/a
37.193	0.091	74386	keystroke_o	o	n/a
37.404	0.119	74808	keystroke_l	l	n/a
37.719	0.089	75438	keystroke_d	d	n/a
38.1835	0.09	76367	keystroke_Key.space	Key.space	n/a
38.7385	0.09	77477	keystroke_s	s	n/a
38.8595	0.09	77719	keystroke_o	o	n/a
38.9635	0.076	77927	keystroke_f	f	n/a
39.1445	0.059	78289	keystroke_t	t	n/a
39.4735	0.075	78947	keystroke_b	b	n/a
39.6095	0.119	79219	keystroke_a	a	n/a
39.7435	0.075	79487	keystroke_l	l	n/a
39.9235	0.105	79847	keystroke_l	l	n/a
40.1335	0.12	80267	keystroke_Key.space	Key.space	n/a
40.299	0.075	80598	keystroke_e	e	n/a
40.764	0.12	81528	keystroke_Key.backspace	Key.backspace	n/a
40.944	0.075	81888	keystroke_c	c	n/a
41.139	0.075	82278	keystroke_e	e	n/a
41.228	0.09	82456	keystroke_n	n	n/a
41.364	0.105	82728	keystroke_t	t	n/a
41.544	0.105	83088	keystroke_e	e	n/a
41.6185	0.1355	83237	keystroke_r	r	n/a
41.724	0.1205	83448	keystroke_e	e	n/a
42.8795	0.059	85759	keystroke_d	d	n/a
43.0595	0.074	86119	keystroke_Key.space	Key.space	n/a
43.5685	0.09	87137	keystroke_p	p	n/a
43.6885	0.075	87377	keystroke_r	r	n/a
43.7785	0.135	87557	keystroke_o	o	n/a
43.9285	0.045	87857	keystroke_d	d	n/a
44.0485	0.09	88097	keystroke_u	u	n/a
44.1685	0.09	88337	keystroke_c	c	n/a
44.6335	0.1505	89267	keystroke_e	e	n/a
44.769	0.105	89538	keystroke_r	r	n/a
45.174	0.075	90348	keystroke_Key.enter	Key.enter	n/a
45.2545	8.0965	90509	prompt	n/a	showers live roll florida\n
45.8935	0.09	91787	keystroke_s	s	n/a
45.9695	0.09	91939	keystroke_h	h	n/a
46.1035	0.075	92207	keystroke_o	o	n/a
46.1635	0.135	92327	keystroke_w	w	n/a
46.7935	0.09	93587	keystroke_e	e	n/a
46.8995	0.09	93799	keystroke_r	r	n/a
47.1085	0.09	94217	keystroke_s	s	n/a
47.3035	0.105	94607	keystroke_Key.space	Key.space	n/a
47.499	0.105	94998	keystroke_l	l	n/a
47.679	0.075	95358	keystroke_i	i	n/a
47.874	0.075	95748	keystroke_v	v	n/a
48.099	0.06	96198	keystroke_e	e	n/a
48.264	0.0745	96528	keystroke_Key.space	Key.space	n/a
48.6085	0.09	97217	keystroke_e	e	n/a
48.6235	0.061	97247	keystroke_r	r	n/a
48.804	0.09	97608	keystroke_o	o	n/a
49.4335	0.075	98867	keystroke_Key.backspace	Key.backspace	n/a
49.7635	0.09	99527	keystroke_Key.backspace	Key.backspace	n/a
50.0935	0.045	100187	keystroke_Key.backspace	Key.backspace	n/a
50.4235	0.075	100847	keystroke_r	r	n/a
50.5735	0.105	101147	keystroke_o	o	n/a
50.844	0.105	101688	keystroke_l	l	n/a
51.054	0.09	102108	keystroke_l	l	n/a
51.279	0.09	102558	keystroke_Key.space	Key.space	n/a
51.5335	0.075	103067	keystroke_f	f	n/a
51.6985	0.0905	103397	keystroke_l	l	n/a
51.9085	0.09	103817	keystroke_o	o	n/a
52.0585	0.075	104117	keystroke_r	r	n/a
52.1785	0.075	104357	keystroke_i	i	n/a
52.374	0.075	104748	keystroke_d	d	n/a
52.644	0.06	105288	keystroke_a	a	n/a
53.244	0.105	106488	keystroke_Key.enter	Key.enter	n/a
53.354	7.512	106708	prompt	n/a	alpine prepaid doctrine consoles\n
53.964	0.12	107928	keystroke_a	a	n/a
54.129	0.0895	108258	keystroke_l	l	n/a
54.579	0.105	109158	keystroke_p	p	n/a
54.864	0.09	109728	keystroke_i	i	n/a
54.939	0.105	109878	keystroke_n	n	n/a
55.194	0.09	110388	keystroke_e	e	n/a
55.269	0.105	110538	keystroke_Key.space	Key.space	n/a
55.584	0.09	111168	keystroke_p	p	n/a
55.704	0.105	111408	keystroke_r	r	n/a
55.7635	0.0905	111527	keystroke_e	e	n/a
56.064	0.12	112128	keystroke_p	p	n/a
56.169	0.15	112338	keystroke_a	a	n/a
56.379	0.06	112758	keystroke_i	i	n/a
56.499	0.075	112998	keystroke_d	d	n/a
56.664	0.105	113328	keystroke_Key.space	Key.space	n/a
56.889	0.075	113778	keystroke_d	d	n/a
57.009	0.075	114018	keystroke_o	o	n/a
57.129	0.075	114258	keystroke_c	c	n/a
57.339	0.06	114678	keystroke_t	t	n/a
57.5495	0.06	115099	keystroke_r	r	n/a
57.7295	0.09	115459	keystroke_i	i	n/a
57.8785	0.105	115757	keystroke_n	n	n/a
58.0585	0.106	116117	keystroke_e	e	n/a
59.0185	0.075	118037	keystroke_Key.space	Key.space	n/a
59.6485	0.061	119297	keystroke_c	c	n/a
59.7385	0.09	119477	keystroke_o	o	n/a
59.8585	0.0755	119717	keystroke_n	n	n/a
59.919	0.075	119838	keystroke_s	s	n/a
60.099	0.09	120198	keystroke_o	o	n/a
60.309	0.09	120618	keystroke_l	l	n/a
60.414	0.135	120828	keystroke_e	e	n/a
60.534	0.09	121068	keystroke_s	s	n/a
60.774	0.09	121548	keystroke_Key.enter	Key.enter	n/a
60.8705	7.855	121741	prompt	n/a	coaching indians counties drug\n
61.479	0.09	122958	keystroke_c	c	n/a
61.554	0.09	123108	keystroke_o	o	n/a
61.704	0.105	123408	keystroke_a	a	n/a
61.974	0.075	123948	keystroke_c	c	n/a
62.094	0.12	124188	keystroke_h	h	n/a
62.229	0.1205	124458	keystroke_i	i	n/a
62.3645	0.104	124729	keystroke_n	n	n/a
62.4835	0.15	124967	keystroke_g	g	n/a
62.6185	0.105	125237	keystroke_Key.space	Key.space	n/a
63.5785	0.09	127157	keystroke_i	i	n/a
63.6835	0.105	127367	keystroke_n	n	n/a
63.8785	0.075	127757	keystroke_d	d	n/a
63.9685	0.09	127937	keystroke_i	i	n/a
64.1185	0.12	128237	keystroke_a	a	n/a
64.2535	0.09	128507	keystroke_n	n	n/a
64.4035	0.09	128807	keystroke_s	s	n/a
64.5085	0.105	129017	keystroke_Key.space	Key.space	n/a
64.7495	0.089	129499	keystroke_c	c	n/a
64.8535	0.135	129707	keystroke_o	o	n/a
64.9735	0.09	129947	keystroke_u	u	n/a
65.1835	0.105	130367	keystroke_n	n	n/a
65.2585	0.075	130517	keystroke_t	t	n/a
65.454	0.075	130908	keystroke_r	r	n/a
65.6485	0.12	131297	keystroke_i	i	n/a
65.7545	0.1345	131509	keystroke_e	e	n/a
65.844	0.12	131688	keystroke_s	s	n/a
66.4135	0.075	132827	keystroke_Key.space	Key.space	n/a
66.7885	0.075	133577	keystroke_r	r	n/a
67.3135	0.09	134627	keystroke_Key.backspace	Key.backspace	n/a
67.7185	0.075	135437	keystroke_d	d	n/a
67.899	0.075	135798	keystroke_r	r	n/a
68.034	0.075	136068	keystroke_u	u	n/a
68.124	0.075	136248	keystroke_g	g	n/a
68.649	0.075	137298	keystroke_Key.enter	Key.enter	n/a
68.731	8.1395	137462	prompt	n/a	published lebanon integrate mechanical\n
69.474	0.105	138948	keystroke_p	p	n/a
69.684	0.075	139368	keystroke_u	u	n/a
69.789	0.075	139578	keystroke_b	b	n/a
69.909	0.165	139818	keystroke_l	l	n/a
70.029	0.09	140058	keystroke_i	i	n/a
70.239	0.09	140478	keystroke_s	s	n/a
70.359	0.09	140718	keystroke_h	h	n/a
70.494	0.075	140988	keystroke_e	e	n/a
70.6885	0.075	141377	keystroke_d	d	n/a
70.8535	0.105	141707	keystroke_Key.space	Key.space	n/a
71.1545	0.12	142309	keystroke_l	l	n/a
71.4535	0.075	142907	keystroke_e	e	n/a
71.6945	0.075	143389	keystroke_b	b	n/a
71.8595	0.105	143719	keystroke_a	a	n/a
72.0245	0.09	144049	keystroke_n	n	n/a
72.2935	0.15	144587	keystroke_o	o	n/a
72.4585	0.105	144917	keystroke_n	n	n/a
72.6385	0.09	145277	keystroke_Key.space	Key.space	n/a
72.8945	0.09	145789	keystroke_i	i	n/a
72.9535	0.1205	145907	keystroke_n	n	n/a
73.194	0.075	146388	keystroke_t	t	n/a
73.404	0.09	146808	keystroke_e	e	n/a
73.659	0.0755	147318	keystroke_g	g	n/a
73.8685	0.105	147737	keystroke_r	r	n/a
74.0185	0.21	148037	keystroke_a	a	n/a
74.1845	0.0895	148369	keystroke_t	t	n/a
74.424	0.075	148848	keystroke_e	e	n/a
74.634	0.0745	149268	keystroke_Key.space	Key.space	n/a
74.9195	0.104	149839	keystroke_m	m	n/a
75.0845	0.074	150169	keystroke_e	e	n/a
75.2945	0.089	150589	keystroke_c	c	n/a
75.4585	0.0755	150917	keystroke_h	h	n/a
75.5785	0.12	151157	keystroke_a	a	n/a
75.7285	0.105	151457	keystroke_n	n	n/a
75.9085	0.105	151817	keystroke_i	i	n/a
76.0745	0.075	152149	keystroke_c	c	n/a
76.2545	0.1195	152509	keystroke_a	a	n/a
76.419	0.12	152838	keystroke_l	l	n/a
76.794	0.075	153588	keystroke_Key.enter	Key.enter	n/a
76.874	8.817	153748	prompt	n/a	calculation conclusion golden up\n
77.604	0.075	155208	keystroke_c	c	n/a
77.784	0.12	155568	keystroke_a	a	n/a
77.949	0.105	155898	keystroke_l	l	n/a
78.114	0.075	156228	keystroke_c	c	n/a
78.294	0.075	156588	keystroke_u	u	n/a
78.549	0.105	157098	keystroke_l	l	n/a
78.684	0.18	157368	keystroke_a	a	n/a
78.819	0.105	157638	keystroke_t	t	n/a
78.924	0.195	157848	keystroke_i	i	n/a
78.999	0.12	157998	keystroke_o	o	n/a
79.089	0.15	158178	keystroke_n	n	n/a
79.5535	0.105	159107	keystroke_Key.space	Key.space	n/a
79.8685	0.075	159737	keystroke_c	c	n/a
79.9585	0.135	159917	keystroke_o	o	n/a
80.0785	0.105	160157	keystroke_n	n	n/a
80.2135	0.045	160427	keystroke_s	s	n/a
80.723	0.09	161446	keystroke_Key.backspace	Key.backspace	n/a
81.114	0.0595	162228	keystroke_c	c	n/a
81.5935	0.12	163187	keystroke_l	l	n/a
81.849	0.0745	163698	keystroke_u	u	n/a
82.074	0.09	164148	keystroke_s	s	n/a
82.224	0.1345	164448	keystroke_i	i	n/a
82.5985	0.21	165197	keystroke_o	o	n/a
82.7935	0.12	165587	keystroke_n	n	n/a
83.1085	0.09	166217	keystroke_Key.space	Key.space	n/a
83.559	0.09	167118	keystroke_g	g	n/a
83.664	0.075	167328	keystroke_o	o	n/a
83.859	0.135	167718	keystroke_l	l	n/a
84.024	0.075	168048	keystroke_d	d	n/a
84.234	0.0745	168468	keystroke_e	e	n/a
84.3685	0.135	168737	keystroke_n	n	n/a
84.4885	0.1055	168977	keystroke_Key.space	Key.space	n/a
84.9085	0.1205	169817	keystroke_u	u	n/a
85.1335	0.105	170267	keystroke_p	p	n/a
85.5985	0.09	171197	keystroke_Key.enter	Key.enter	n/a
85.694	6.252	171388	prompt	n/a	shame fridge lodging accessory\n
86.259	0.0905	172518	keystroke_s	s	n/a
86.3635	0.09	172727	keystroke_h	h	n/a
86.4835	0.105	172967	keystroke_a	a	n/a
86.6335	0.075	173267	keystroke_m	m	n/a
86.7685	0.075	173537	keystroke_e	e	n/a
86.8885	0.09	173777	keystroke_Key.space	Key.space	n/a
87.1435	0.075	174287	keystroke_f	f	n/a
87.3235	0.075	174647	keystroke_r	r	n/a
87.5485	0.045	175097	keystroke_i	i	n/a
87.7585	0.09	175517	keystroke_d	d	n/a
87.9085	0.09	175817	keystroke_g	g	n/a
88.1035	0.075	176207	keystroke_e	e	n/a
88.2085	0.075	176417	keystroke_Key.space	Key.space	n/a
88.6135	0.075	177227	keystroke_l	l	n/a
88.8235	0.09	177647	keystroke_o	o	n/a
88.9435	0.09	177887	keystroke_d	d	n/a
89.1535	0.09	178307	keystroke_g	g	n/a
89.3185	0.12	178637	keystroke_i	i	n/a
89.4235	0.105	178847	keystroke_n	n	n/a
89.5885	0.1055	179177	keystroke_g	g	n/a
89.6635	0.135	179327	keystroke_Key.space	Key.space	n/a
89.8585	0.136	179717	keystroke_a	a	n/a
90.0985	0.06	180197	keystroke_c	c	n/a
90.263	0.061	180526	keystroke_c	c	n/a
90.504	0.15	181008	keystroke_e	e	n/a
90.624	0.09	181248	keystroke_s	s	n/a
90.834	0.09	181668	keystroke_s	s	n/a
91.1185	0.091	182237	keystroke_o	o	n/a
91.2235	0.105	182447	keystroke_r	r	n/a
91.4485	0.105	182897	keystroke_y	y	n/a
91.8685	0.075	183737	keystroke_Key.enter	Key.enter	n/a
91.949	7.556	183898	prompt	n/a	excited enforcement large visitors\n
92.634	0.105	185268	keystroke_e	e	n/a
92.964	0.09	185928	keystroke_x	x	n/a
93.2645	0.059	186529	keystroke_c	c	n/a
93.5635	0.076	187127	keystroke_i	i	n/a
93.7135	0.075	187427	keystroke_t	t	n/a
93.8635	0.06	187727	keystroke_e	e	n/a
94.0435	0.075	188087	keystroke_d	d	n/a
94.2235	0.0895	188447	keystroke_Key.space	Key.space	n/a
94.479	0.059	188958	keystroke_e	e	n/a
94.553	0.105	189106	keystroke_n	n	n/a
94.718	0.09	189436	keystroke_f	f	n/a
94.883	0.09	189766	keystroke_o	o	n/a
94.988	0.075	189976	keystroke_r	r	n/a
95.169	0.104	190338	keystroke_m	m	n/a
95.9185	0.105	191837	keystroke_Key.backspace	Key.backspace	n/a
96.0835	0.075	192167	keystroke_c	c	n/a
96.294	0.075	192588	keystroke_e	e	n/a
96.429	0.089	192858	keystroke_m	m	n/a
96.534	0.075	193068	keystroke_e	e	n/a
96.639	0.104	193278	keystroke_n	n	n/a
96.744	0.089	193488	keystroke_t	t	n/a
96.893	0.105	193786	keystroke_Key.space	Key.space	n/a
97.164	0.089	194328	keystroke_l	l	n/a
97.223	0.181	194446	keystroke_a	a	n/a
97.374	0.0895	194748	keystroke_r	r	n/a
97.6135	0.06	195227	keystroke_g	g	n/a
97.8235	0.03	195647	keystroke_e	e	n/a
97.8385	0.09	195677	keystroke_Key.space	Key.space	n/a
98.0335	0.09	196067	keystroke_v	v	n/a
98.1985	0.075	196397	keystroke_i	i	n/a
98.3185	0.09	196637	keystroke_s	s	n/a
98.4385	0.075	196877	keystroke_i	i	n/a
98.6035	0.09	197207	keystroke_t	t	n/a
98.7535	0.09	197507	keystroke_o	o	n/a
98.9035	0.09	197807	keystroke_r	r	n/a
99.1885	0.0755	198377	keystroke_s	s	n/a
99.414	0.0895	198828	keystroke_Key.enter	Key.enter	n/a
99.5095	5.156	199019	prompt	n/a	kitty advisors cycle emails\n
100.1635	0.06	200327	keystroke_k	k	n/a
100.3745	0.0585	200749	keystroke_i	i	n/a
100.464	0.059	200928	keystroke_t	t	n/a
100.628	0.075	201256	keystroke_t	t	n/a
100.733	0.09	201466	keystroke_y	y	n/a
100.883	0.09	201766	keystroke_Key.space	Key.space	n/a
101.063	0.165	202126	keystroke_a	a	n/a
101.198	0.09	202396	keystroke_d	d	n/a
101.423	0.076	202846	keystroke_v	v	n/a
101.543	0.075	203086	keystroke_i	i	n/a
101.663	0.075	203326	keystroke_s	s	n/a
101.798	0.09	203596	keystroke_o	o	n/a
101.9485	0.075	203897	keystroke_r	r	n/a
102.1735	0.06	204347	keystroke_s	s	n/a
102.279	0.1195	204558	keystroke_Key.space	Key.space	n/a
102.5635	0.075	205127	keystroke_c	c	n/a
102.7435	0.075	205487	keystroke_y	y	n/a
102.8485	0.075	205697	keystroke_c	c	n/a
103.0585	0.105	206117	keystroke_l	l	n/a
103.2235	0.0905	206447	keystroke_e	e	n/a
103.299	0.09	206598	keystroke_Key.space	Key.space	n/a
103.554	0.06	207108	keystroke_e	e	n/a
103.674	0.09	207348	keystroke_m	m	n/a
103.793	0.105	207586	keystroke_a	a	n/a
103.929	0.104	207858	keystroke_i	i	n/a
104.034	0.12	208068	keystroke_l	l	n/a
104.289	0.09	208578	keystroke_s	s	n/a
104.589	0.0745	209178	keystroke_Key.enter	Key.enter	n/a
104.6685	7.0615	209337	prompt	n/a	ecuador computation skill boats\n
105.3835	0.075	210767	keystroke_e	e	n/a
105.9535	0.06	211907	keystroke_c	c	n/a
106.1935	0.06	212387	keystroke_u	u	n/a
106.3135	0.136	212627	keystroke_a	a	n/a
106.6885	0.075	213377	keystroke_d	d	n/a
106.8385	0.075	213677	keystroke_o	o	n/a
106.9735	0.105	213947	keystroke_r	r	n/a
107.1235	0.06	214247	keystroke_Key.space	Key.space	n/a
107.3485	0.0895	214697	keystroke_c	c	n/a
107.453	0.135	214906	keystroke_o	o	n/a
107.559	0.164	215118	keystroke_m	m	n/a
107.709	0.15	215418	keystroke_p	p	n/a
107.903	0.091	215806	keystroke_u	u	n/a
108.069	0.09	216138	keystroke_t	t	n/a
108.3235	0.15	216647	keystroke_a	a	n/a
108.4285	0.12	216857	keystroke_t	t	n/a
108.5335	0.18	217067	keystroke_i	i	n/a
108.6085	0.12	217217	keystroke_o	o	n/a
108.6985	0.1345	217397	keystroke_n	n	n/a
108.863	0.106	217726	keystroke_Key.space	Key.space	n/a
109.133	0.075	218266	keystroke_s	s	n/a
109.329	0.134	218658	keystroke_k	k	n/a
109.658	0.075	219316	keystroke_i	i	n/a
110.004	0.09	220008	keystroke_l	l	n/a
110.198	0.105	220396	keystroke_l	l	n/a
110.348	0.121	220696	keystroke_s	s	n/a
110.483	0.12	220966	keystroke_Key.space	Key.space	n/a
110.754	0.074	221508	keystroke_b	b	n/a
110.858	0.09	221716	keystroke_o	o	n/a
110.978	0.1655	221956	keystroke_a	a	n/a
111.1285	0.12	222257	keystroke_t	t	n/a
111.4285	0.075	222857	keystroke_s	s	n/a
111.6535	0.075	223307	keystroke_Key.enter	Key.enter	n/a
111.734	9.192	223468	prompt	n/a	broker distinct terrorist court\n
112.3285	0.075	224657	keystroke_b	b	n/a
112.5235	0.09	225047	keystroke_r	r	n/a
112.6435	0.105	225287	keystroke_o	o	n/a
112.883	0.106	225766	keystroke_k	k	n/a
113.003	0.15	226006	keystroke_e	e	n/a
113.078	0.165	226156	keystroke_r	r	n/a
113.213	0.135	226426	keystroke_Key.space	Key.space	n/a
113.5885	0.09	227177	keystroke_d	d	n/a
113.7235	0.09	227447	keystroke_i	i	n/a
113.8735	0.105	227747	keystroke_s	s	n/a
114.0085	0.09	228017	keystroke_t	t	n/a
114.1735	0.105	228347	keystroke_i	i	n/a
114.4895	0.104	228979	keystroke_n	n	n/a
114.923	0.09	229846	keystroke_c	c	n/a
115.223	0.091	230446	keystroke_t	t	n/a
116.4685	0.075	232937	keystroke_Key.space	Key.space	n/a
117.0385	0.0595	234077	keystroke_t	t	n/a
117.2035	0.165	234407	keystroke_e	e	n/a
117.3835	0.075	234767	keystroke_r	r	n/a
117.5635	0.075	235127	keystroke_r	r	n/a
117.6985	0.075	235397	keystroke_o	o	n/a
117.7885	0.105	235577	keystroke_r	r	n/a
118.0285	0.075	236057	keystroke_i	i	n/a
118.1785	0.105	236357	keystroke_s	s	n/a
118.3285	0.105	236657	keystroke_t	t	n/a
118.4935	0.105	236987	keystroke_Key.space	Key.space	n/a
119.1085	0.09	238217	keystroke_c	c	n/a
119.2435	0.105	238487	keystroke_o	o	n/a
119.3635	0.09	238727	keystroke_u	u	n/a
119.5135	0.09	239027	keystroke_r	r	n/a
120.263	0.016	240526	keystroke_t	t	n/a
120.8335	0.09	241667	keystroke_Key.enter	Key.enter	n/a
120.9295	21.9715	241859	prompt	n/a	making civilian sends confirmation\n
121.734	0.075	243468	keystroke_m	m	n/a
121.854	0.105	243708	keystroke_a	a	n/a
121.974	0.1045	243948	keystroke_k	k	n/a
122.0935	0.09	244187	keystroke_e	e	n/a
122.4685	0.105	244937	keystroke_i	i	n/a
122.5435	0.135	245087	keystroke_n	n	n/a
123.0385	0.09	246077	keystroke_Key.backspace	Key.backspace	n/a
123.2185	0.075	246437	keystroke_Key.backspace	Key.backspace	n/a
123.3535	0.075	246707	keystroke_Key.backspace	Key.backspace	n/a
123.6685	0.09	247337	keystroke_i	i	n/a
123.7735	0.09	247547	keystroke_n	n	n/a
124.1485	0.09	248297	keystroke_g	g	n/a
124.2835	0.105	248567	keystroke_Key.space	Key.space	n/a
124.9885	0.075	249977	keystroke_c	c	n/a
125.0935	0.075	250187	keystroke_i	i	n/a
125.2585	0.0755	250517	keystroke_c	c	n/a
125.6935	0.1045	251387	keystroke_Key.backspace	Key.backspace	n/a
125.828	0.075	251656	keystroke_v	v	n/a
125.948	0.0905	251896	keystroke_i	i	n/a
126.639	0.165	253278	keystroke_l	l	n/a
126.834	0.09	253668	keystroke_i	i	n/a
127.119	0.105	254238	keystroke_a	a	n/a
127.539	0.105	255078	keystroke_m	m	n/a
127.809	0.075	255618	keystroke_Key.space	Key.space	n/a
128.559	0.06	257118	keystroke_s	s	n/a
129.2485	0.06	258497	keystroke_e	e	n/a
129.4585	0.09	258917	keystroke_m	m	n/a
130.1785	0.09	260357	keystroke_Key.backspace	Key.backspace	n/a
130.4185	0.09	260837	keystroke_n	n	n/a
130.569	0.09	261138	keystroke_d	d	n/a
130.764	0.09	261528	keystroke_s	s	n/a
130.928	0.106	261856	keystroke_Key.space	Key.space	n/a
131.6185	0.09	263237	keystroke_c	c	n/a
131.6785	0.09	263357	keystroke_o	o	n/a
131.7835	0.09	263567	keystroke_n	n	n/a
131.8885	0.075	263777	keystroke_f	f	n/a
132.0085	0.06	264017	keystroke_i	i	n/a
132.1135	0.075	264227	keystroke_r	r	n/a
132.2785	0.105	264557	keystroke_m	m	n/a
132.3985	0.15	264797	keystroke_a	a	n/a
132.5185	0.105	265037	keystroke_t	t	n/a
132.6985	0.1655	265397	keystroke_i	i	n/a
132.7735	0.1055	265547	keystroke_o	o	n/a
132.849	0.12	265698	keystroke_n	n	n/a
133.3435	0.075	266687	keystroke_Key.backspace	Key.backspace	n/a
133.5235	0.06	267047	keystroke_Key.backspace	Key.backspace	n/a
133.6585	0.045	267317	keystroke_Key.backspace	Key.backspace	n/a
133.8085	0.06	267617	keystroke_Key.backspace	Key.backspace	n/a
133.9585	0.06	267917	keystroke_Key.backspace	Key.backspace	n/a
134.1085	0.06	268217	keystroke_Key.backspace	Key.backspace	n/a
134.2585	0.0605	268517	keystroke_Key.backspace	Key.backspace	n/a
134.424	0.045	268848	keystroke_Key.backspace	Key.backspace	n/a
134.574	0.06	269148	keystroke_Key.backspace	Key.backspace	n/a
134.7235	0.06	269447	keystroke_Key.backspace	Key.backspace	n/a
134.8735	0.06	269747	keystroke_Key.backspace	Key.backspace	n/a
135.0385	0.06	270077	keystroke_Key.backspace	Key.backspace	n/a
135.1885	0.06	270377	keystroke_Key.backspace	Key.backspace	n/a
135.3535	0.06	270707	keystroke_Key.backspace	Key.backspace	n/a
135.5035	0.06	271007	keystroke_Key.backspace	Key.backspace	n/a
135.6685	0.045	271337	keystroke_Key.backspace	Key.backspace	n/a
135.8185	0.06	271637	keystroke_Key.backspace	Key.backspace	n/a
135.8335	0.03	271667	keystroke_j	j	n/a
135.9835	0.06	271967	keystroke_Key.backspace	Key.backspace	n/a
136.1485	0.06	272297	keystroke_Key.backspace	Key.backspace	n/a
136.313	0.075	272626	keystroke_Key.backspace	Key.backspace	n/a
136.493	0.075	272986	keystroke_Key.backspace	Key.backspace	n/a
136.823	0.106	273646	keystroke_n	n	n/a
137.2735	0.09	274547	keystroke_Key.space	Key.space	n/a
138.654	0.075	277308	keystroke_s	s	n/a
138.8335	0.06	277667	keystroke_e	e	n/a
138.9085	0.09	277817	keystroke_n	n	n/a
139.0885	0.075	278177	keystroke_d	d	n/a
139.4785	0.075	278957	keystroke_s	s	n/a
139.6285	0.09	279257	keystroke_Key.space	Key.space	n/a
139.9435	0.075	279887	keystroke_c	c	n/a
140.0335	0.075	280067	keystroke_o	o	n/a
140.1535	0.045	280307	keystroke_n	n	n/a
140.2285	0.0755	280457	keystroke_f	f	n/a
140.379	0.075	280758	keystroke_i	i	n/a
140.619	0.075	281238	keystroke_r	r	n/a
140.754	0.1195	281508	keystroke_m	m	n/a
141.0835	0.165	282167	keystroke_a	a	n/a
141.2335	0.09	282467	keystroke_t	t	n/a
141.3385	0.1495	282677	keystroke_i	i	n/a
141.4135	0.1055	282827	keystroke_o	o	n/a
141.4735	0.1205	282947	keystroke_n	n	n/a
141.668	0.0905	283336	keystroke_Key.space	Key.space	n/a
142.4635	0.105	284927	keystroke_Key.backspace	Key.backspace	n/a
142.8385	0.06	285677	keystroke_Key.enter	Key.enter	n/a
142.904	10.2575	285808	prompt	n/a	bulletin thousands honors florists\n
143.7235	0.09	287447	keystroke_b	b	n/a
143.9935	0.06	287987	keystroke_u	u	n/a
144.1735	0.075	288347	keystroke_l	l	n/a
144.3385	0.105	288677	keystroke_l	l	n/a
144.6085	0.135	289217	keystroke_e	e	n/a
144.7285	0.09	289457	keystroke_t	t	n/a
144.9235	0.06	289847	keystroke_i	i	n/a
145.0435	0.105	290087	keystroke_n	n	n/a
145.4785	0.0905	290957	keystroke_Key.space	Key.space	n/a
145.959	0.06	291918	keystroke_t	t	n/a
146.094	0.0905	292188	keystroke_h	h	n/a
146.2285	0.136	292457	keystroke_o	o	n/a
146.3485	0.09	292697	keystroke_u	u	n/a
146.6185	0.121	293237	keystroke_s	s	n/a
146.9035	0.105	293807	keystroke_a	a	n/a
147.0245	0.074	294049	keystroke_n	n	n/a
147.4135	0.105	294827	keystroke_d	d	n/a
147.7285	0.105	295457	keystroke_s	s	n/a
147.8935	0.12	295787	keystroke_Key.space	Key.space	n/a
148.464	0.105	296928	keystroke_h	h	n/a
148.599	0.165	297198	keystroke_o	o	n/a
148.718	0.121	297436	keystroke_n	n	n/a
148.914	0.06	297828	keystroke_r	r	n/a
148.959	0.06	297918	keystroke_o	o	n/a
149.4835	0.075	298967	keystroke_Key.backspace	Key.backspace	n/a
149.6185	0.105	299237	keystroke_Key.backspace	Key.backspace	n/a
149.7535	0.12	299507	keystroke_o	o	n/a
149.8585	0.0755	299717	keystroke_r	r	n/a
150.039	0.104	300078	keystroke_s	s	n/a
150.129	0.09	300258	keystroke_Key.space	Key.space	n/a
150.353	0.075	300706	keystroke_f	f	n/a
150.459	0.09	300918	keystroke_l	l	n/a
150.669	0.09	301338	keystroke_o	o	n/a
150.788	0.076	301576	keystroke_r	r	n/a
150.924	0.1045	301848	keystroke_i	i	n/a
151.1035	0.06	302207	keystroke_d	d	n/a
151.6885	0.09	303377	keystroke_Key.backspace	Key.backspace	n/a
151.8385	0.09	303677	keystroke_s	s	n/a
152.033	0.09	304066	keystroke_t	t	n/a
152.4385	0.075	304877	keystroke_s	s	n/a
153.069	0.09	306138	keystroke_Key.enter	Key.enter	n/a
153.165	10.465	306330	prompt	n/a	ne'er oops we've davidson\n
153.9395	0.089	307879	keystroke_n	n	n/a
154.1785	0.12	308357	keystroke_e	e	n/a
154.5095	0.104	309019	keystroke_'	'	n/a
154.8535	0.15	309707	keystroke_e	e	n/a
154.9885	0.105	309977	keystroke_r	r	n/a
155.2285	0.09	310457	keystroke_Key.space	Key.space	n/a
155.5585	0.105	311117	keystroke_o	o	n/a
155.7085	0.135	311417	keystroke_o	o	n/a
156.0235	0.12	312047	keystroke_p	p	n/a
156.444	0.1195	312888	keystroke_s	s	n/a
156.6235	0.075	313247	keystroke_Key.space	Key.space	n/a
156.8635	0.075	313727	keystroke_v	v	n/a
157.0285	0.09	314057	keystroke_e	e	n/a
157.2235	0.12	314447	keystroke_'	'	n/a
157.4485	0.09	314897	keystroke_v	v	n/a
157.5685	0.12	315137	keystroke_e	e	n/a
157.7035	0.0895	315407	keystroke_Key.space	Key.space	n/a
158.4985	0.0745	316997	keystroke_Key.backspace	Key.backspace	n/a
158.663	0.06	317326	keystroke_Key.backspace	Key.backspace	n/a
158.813	0.06	317626	keystroke_Key.backspace	Key.backspace	n/a
158.963	0.06	317926	keystroke_Key.backspace	Key.backspace	n/a
159.128	0.045	318256	keystroke_Key.backspace	Key.backspace	n/a
159.294	0.0745	318588	keystroke_Key.backspace	Key.backspace	n/a
159.609	0.1495	319218	keystroke_w	w	n/a
159.7285	0.1055	319457	keystroke_e	e	n/a
159.999	0.1195	319998	keystroke_'	'	n/a
160.1935	0.0755	320387	keystroke_v	v	n/a
160.284	0.105	320568	keystroke_e	e	n/a
160.404	0.075	320808	keystroke_Key.space	Key.space	n/a
160.899	0.075	321798	keystroke_d	d	n/a
161.154	0.15	322308	keystroke_a	a	n/a
161.379	0.075	322758	keystroke_v	v	n/a
161.5735	0.075	323147	keystroke_i	i	n/a
162.1285	0.03	324257	keystroke_d	d	n/a
162.624	0.045	325248	keystroke_s	s	n/a
162.684	0.06	325368	keystroke_o	o	n/a
162.729	0.09	325458	keystroke_n	n	n/a
163.538	0.09	327076	keystroke_Key.enter	Key.enter	n/a
163.6345	9.746	327269	prompt	n/a	highlighted acquisitions join road\n
164.454	0.075	328908	keystroke_h	h	n/a
164.633	0.1055	329266	keystroke_i	i	n/a
164.8885	0.075	329777	keystroke_g	g	n/a
165.0235	0.105	330047	keystroke_h	h	n/a
165.2935	0.165	330587	keystroke_l	l	n/a
165.4285	0.106	330857	keystroke_i	i	n/a
165.6535	0.105	331307	keystroke_g	g	n/a
165.8185	0.09	331637	keystroke_h	h	n/a
165.9835	0.075	331967	keystroke_t	t	n/a
166.1785	0.075	332357	keystroke_e	e	n/a
166.3735	0.09	332747	keystroke_d	d	n/a
166.6135	0.075	333227	keystroke_Key.space	Key.space	n/a
167.3635	0.045	334727	keystroke_q	q	n/a
167.8735	0.0755	335747	keystroke_Key.backspace	Key.backspace	n/a
168.0385	0.0905	336077	keystroke_a	a	n/a
168.7585	0.09	337517	keystroke_c	c	n/a
169.0735	0.105	338147	keystroke_q	q	n/a
169.2385	0.09	338477	keystroke_u	u	n/a
169.4035	0.09	338807	keystroke_i	i	n/a
169.854	0.09	339708	keystroke_s	s	n/a
170.378	0.09	340756	keystroke_i	i	n/a
170.543	0.075	341086	keystroke_t	t	n/a
170.648	0.165	341296	keystroke_i	i	n/a
170.754	0.15	341508	keystroke_o	o	n/a
170.843	0.15	341686	keystroke_n	n	n/a
171.008	0.12	342016	keystroke_s	s	n/a
171.113	0.1055	342226	keystroke_Key.space	Key.space	n/a
171.3385	0.09	342677	keystroke_j	j	n/a
171.519	0.1195	343038	keystroke_o	o	n/a
171.6685	0.12	343337	keystroke_i	i	n/a
171.774	0.1195	343548	keystroke_n	n	n/a
171.909	0.134	343818	keystroke_Key.space	Key.space	n/a
172.1035	0.045	344207	keystroke_o	o	n/a
172.5235	0.105	345047	keystroke_Key.backspace	Key.backspace	n/a
172.7035	0.09	345407	keystroke_r	r	n/a
172.8535	0.075	345707	keystroke_o	o	n/a
172.9435	0.1655	345887	keystroke_a	a	n/a
173.093	0.09	346186	keystroke_d	d	n/a
173.288	0.09	346576	keystroke_Key.enter	Key.enter	n/a
173.3835	7.9015	346767	prompt	n/a	watching obesity discrimination newton\n
174.039	0.089	348078	keystroke_w	w	n/a
174.1885	0.165	348377	keystroke_a	a	n/a
174.3385	0.09	348677	keystroke_t	t	n/a
174.563	0.075	349126	keystroke_c	c	n/a
174.653	0.1055	349306	keystroke_h	h	n/a
174.773	0.105	349546	keystroke_i	i	n/a
174.879	0.1195	349758	keystroke_n	n	n/a
174.999	0.0895	349998	keystroke_g	g	n/a
175.0435	0.1195	350087	keystroke_Key.space	Key.space	n/a
175.2235	0.105	350447	keystroke_o	o	n/a
175.343	0.0905	350686	keystroke_b	b	n/a
175.539	0.1345	351078	keystroke_e	e	n/a
175.6585	0.15	351317	keystroke_s	s	n/a
175.8835	0.09	351767	keystroke_i	i	n/a
176.0335	0.105	352067	keystroke_t	t	n/a
176.2285	0.06	352457	keystroke_y	y	n/a
176.3035	0.09	352607	keystroke_Key.space	Key.space	n/a
176.5435	0.075	353087	keystroke_d	d	n/a
176.7385	0.09	353477	keystroke_i	i	n/a
176.8435	0.0905	353687	keystroke_s	s	n/a
177.068	0.075	354136	keystroke_c	c	n/a
177.263	0.075	354526	keystroke_r	r	n/a
177.368	0.12	354736	keystroke_i	i	n/a
177.473	0.121	354946	keystroke_m	m	n/a
177.608	0.1205	355216	keystroke_i	i	n/a
177.7135	0.105	355427	keystroke_n	n	n/a
177.7885	0.165	355577	keystroke_a	a	n/a
177.9235	0.1045	355847	keystroke_t	t	n/a
178.043	0.211	356086	keystroke_i	i	n/a
178.149	0.134	356298	keystroke_o	o	n/a
178.223	0.18	356446	keystroke_n	n	n/a
178.388	0.12	356776	keystroke_Key.space	Key.space	n/a
178.538	0.1055	357076	keystroke_n	n	n/a
178.6285	0.135	357257	keystroke_e	e	n/a
178.7185	0.135	357437	keystroke_w	w	n/a
179.0485	0.06	358097	keystroke_t	t	n/a
179.1235	0.135	358247	keystroke_o	o	n/a
179.2435	0.12	358487	keystroke_n	n	n/a
181.208	0.076	362416	keystroke_Key.enter	Key.enter	n/a
181.291	10.405	362582	prompt	n/a	swedish forum networking smell\n
181.8985	0.105	363797	keystroke_s	s	n/a
182.1235	0.06	364247	keystroke_w	w	n/a
182.1985	0.03	364397	keystroke_w	w	n/a
182.5285	0.09	365057	keystroke_e	e	n/a
182.9335	0.09	365867	keystroke_Key.backspace	Key.backspace	n/a
183.1585	0.014	366317	keystroke_Key.backspace	Key.backspace	n/a
183.533	0.075	367066	keystroke_e	e	n/a
183.759	0.074	367518	keystroke_d	d	n/a
183.864	0.09	367728	keystroke_i	i	n/a
184.073	0.075	368146	keystroke_s	s	n/a
184.224	0.1045	368448	keystroke_h	h	n/a
184.3435	0.075	368687	keystroke_Key.space	Key.space	n/a
184.5235	0.09	369047	keystroke_f	f	n/a
184.6435	0.105	369287	keystroke_o	o	n/a
184.7635	0.09	369527	keystroke_r	r	n/a
185.0335	0.09	370067	keystroke_u	u	n/a
185.3485	0.09	370697	keystroke_m	m	n/a
185.4975	0.1055	370995	keystroke_Key.space	Key.space	n/a
186.428	0.12	372856	keystroke_n	n	n/a
186.503	0.151	373006	keystroke_e	e	n/a
186.638	0.091	373276	keystroke_t	t	n/a
186.878	0.075	373756	keystroke_r	r	n/a
187.9285	0.09	375857	keystroke_Key.backspace	Key.backspace	n/a
188.0485	0.075	376097	keystroke_w	w	n/a
188.1385	0.105	376277	keystroke_o	o	n/a
188.2735	0.075	376547	keystroke_r	r	n/a
188.4085	0.09	376817	keystroke_k	k	n/a
188.6035	0.105	377207	keystroke_i	i	n/a
188.7085	0.135	377417	keystroke_n	n	n/a
188.8735	0.135	377747	keystroke_g	g	n/a
188.9935	0.12	377987	keystroke_Key.space	Key.space	n/a
189.4585	0.075	378917	keystroke_s	s	n/a
189.668	0.105	379336	keystroke_m	m	n/a
189.818	0.09	379636	keystroke_e	e	n/a
189.998	0.09	379996	keystroke_l	l	n/a
190.209	0.0895	380418	keystroke_l	l	n/a
191.6035	0.09	383207	keystroke_Key.enter	Key.enter	n/a
191.699	6.581	383398	prompt	n/a	lottery lookup harold mailed\n
192.2635	0.09	384527	keystroke_l	l	n/a
192.4735	0.075	384947	keystroke_o	o	n/a
192.5785	0.075	385157	keystroke_t	t	n/a
192.7585	0.06	385517	keystroke_t	t	n/a
193.0585	0.135	386117	keystroke_e	e	n/a
193.1635	0.105	386327	keystroke_r	r	n/a
193.3585	0.06	386717	keystroke_y	y	n/a
193.5985	0.09	387197	keystroke_Key.space	Key.space	n/a
194.2435	0.12	388487	keystroke_l	l	n/a
194.5435	0.06	389087	keystroke_o	o	n/a
194.7235	0.09	389447	keystroke_o	o	n/a
194.9335	0.105	389867	keystroke_k	k	n/a
195.2485	0.09	390497	keystroke_u	u	n/a
195.5035	0.105	391007	keystroke_p	p	n/a
195.7285	0.1045	391457	keystroke_Key.space	Key.space	n/a
196.0135	0.075	392027	keystroke_h	h	n/a
196.0735	0.165	392147	keystroke_a	a	n/a
196.1785	0.105	392357	keystroke_r	r	n/a
196.3135	0.105	392627	keystroke_o	o	n/a
196.5385	0.09	393077	keystroke_l	l	n/a
196.6585	0.12	393317	keystroke_d	d	n/a
196.7635	0.12	393527	keystroke_Key.space	Key.space	n/a
196.9285	0.09	393857	keystroke_m	m	n/a
197.0335	0.15	394067	keystroke_a	a	n/a
197.1535	0.09	394307	keystroke_i	i	n/a
197.3035	0.105	394607	keystroke_l	l	n/a
197.4385	0.06	394877	keystroke_e	e	n/a
197.6335	0.075	395267	keystroke_d	d	n/a
198.1885	0.09	396377	keystroke_Key.enter	Key.enter	n/a
198.2825	6.4925	396565	prompt	n/a	socket spirit unto come\n
198.8635	0.09	397727	keystroke_s	s	n/a
198.9985	0.06	397997	keystroke_o	o	n/a
199.1185	0.075	398237	keystroke_c	c	n/a
199.253	0.135	398506	keystroke_k	k	n/a
199.403	0.15	398806	keystroke_e	e	n/a
199.508	0.135	399016	keystroke_t	t	n/a
199.658	0.075	399316	keystroke_Key.space	Key.space	n/a
199.868	0.075	399736	keystroke_s	s	n/a
200.138	0.1205	400276	keystroke_p	p	n/a
200.4085	0.09	400817	keystroke_i	i	n/a
200.7235	0.09	401447	keystroke_r	r	n/a
201.0385	0.12	402077	keystroke_i	i	n/a
201.2185	0.105	402437	keystroke_t	t	n/a
202.133	0.09	404266	keystroke_Key.space	Key.space	n/a
202.703	0.09	405406	keystroke_u	u	n/a
202.913	0.105	405826	keystroke_n	n	n/a
202.988	0.09	405976	keystroke_t	t	n/a
203.108	0.106	406216	keystroke_o	o	n/a
203.243	0.09	406486	keystroke_Key.space	Key.space	n/a
203.468	0.09	406936	keystroke_c	c	n/a
203.603	0.15	407206	keystroke_o	o	n/a
203.738	0.105	407476	keystroke_m	m	n/a
203.993	0.12	407986	keystroke_e	e	n/a
204.6685	0.105	409337	keystroke_Key.enter	Key.enter	n/a
204.778	9.7015	409556	prompt	n/a	highest trader refinance reliable\n
205.3885	0.09	410777	keystroke_h	h	n/a
205.5235	0.075	411047	keystroke_i	i	n/a
205.6885	0.09	411377	keystroke_g	g	n/a
205.7935	0.09	411587	keystroke_h	h	n/a
205.9885	0.12	411977	keystroke_e	e	n/a
206.2135	0.135	412427	keystroke_s	s	n/a
206.4085	0.105	412817	keystroke_t	t	n/a
206.5435	0.105	413087	keystroke_Key.space	Key.space	n/a
206.7385	0.075	413477	keystroke_t	t	n/a
206.9035	0.1045	413807	keystroke_r	r	n/a
207.203	0.12	414406	keystroke_a	a	n/a
207.413	0.09	414826	keystroke_d	d	n/a
207.6535	0.12	415307	keystroke_e	e	n/a
207.8935	0.06	415787	keystroke_r	r	n/a
207.9235	0.0895	415847	keystroke_Key.space	Key.space	n/a
208.9885	0.105	417977	keystroke_r	r	n/a
209.0635	0.105	418127	keystroke_e	e	n/a
209.3335	0.105	418667	keystroke_f	f	n/a
209.6185	0.09	419237	keystroke_i	i	n/a
209.6935	0.12	419387	keystroke_n	n	n/a
209.8285	0.12	419657	keystroke_a	a	n/a
209.9635	0.105	419927	keystroke_n	n	n/a
210.2185	0.075	420437	keystroke_c	c	n/a
210.5485	0.075	421097	keystroke_e	e	n/a
211.4185	0.09	422837	keystroke_Key.space	Key.space	n/a
211.8985	0.09	423797	keystroke_r	r	n/a
212.0485	0.075	424097	keystroke_e	e	n/a
212.2135	0.134	424427	keystroke_l	l	n/a
212.3935	0.089	424787	keystroke_i	i	n/a
212.4685	0.134	424937	keystroke_a	a	n/a
212.6925	0.075	425385	keystroke_b	b	n/a
212.8725	0.061	425745	keystroke_e	e	n/a
213.0385	0.134	426077	keystroke_l	l	n/a
213.6525	0.076	427305	keystroke_Key.backspace	Key.backspace	n/a
213.8035	0.075	427607	keystroke_Key.backspace	Key.backspace	n/a
214.0135	0.105	428027	keystroke_l	l	n/a
214.1485	0.075	428297	keystroke_e	e	n/a
214.4185	0.06	428837	keystroke_Key.enter	Key.enter	n/a
214.4835	7.9315	428967	prompt	n/a	vector logos relates pentium\n
215.2435	0.075	430487	keystroke_v	v	n/a
215.4385	0.06	430877	keystroke_e	e	n/a
215.6785	0.075	431357	keystroke_c	c	n/a
215.8885	0.075	431777	keystroke_t	t	n/a
216.0525	0.09	432105	keystroke_o	o	n/a
216.1875	0.106	432375	keystroke_r	r	n/a
216.3075	0.12	432615	keystroke_Key.space	Key.space	n/a
216.489	0.104	432978	keystroke_l	l	n/a
216.698	0.09	433396	keystroke_o	o	n/a
216.818	0.075	433636	keystroke_g	g	n/a
216.968	0.12	433936	keystroke_o	o	n/a
217.208	0.075	434416	keystroke_s	s	n/a
217.419	0.074	434838	keystroke_Key.space	Key.space	n/a
217.778	0.0905	435556	keystroke_l	l	n/a
218.2735	0.09	436547	keystroke_Key.backspace	Key.backspace	n/a
218.4085	0.0895	436817	keystroke_r	r	n/a
218.468	0.09	436936	keystroke_e	e	n/a
218.618	0.105	437236	keystroke_l	l	n/a
218.753	0.1505	437506	keystroke_a	a	n/a
218.8885	0.09	437777	keystroke_t	t	n/a
219.0235	0.09	438047	keystroke_e	e	n/a
219.279	0.074	438558	keystroke_s	s	n/a
219.488	0.105	438976	keystroke_Key.space	Key.space	n/a
220.178	0.1055	440356	keystroke_p	p	n/a
220.3585	0.09	440717	keystroke_e	e	n/a
220.4935	0.105	440987	keystroke_n	n	n/a
220.6435	0.089	441287	keystroke_t	t	n/a
220.8685	0.12	441737	keystroke_i	i	n/a
221.0785	0.135	442157	keystroke_a	a	n/a
221.6025	0.105	443205	keystroke_Key.backspace	Key.backspace	n/a
221.8135	0.074	443627	keystroke_u	u	n/a
222.023	0.09	444046	keystroke_m	m	n/a
222.3235	0.09	444647	keystroke_Key.enter	Key.enter	n/a
222.4185	10.016	444837	prompt	n/a	saver camera including grade\n
223.1185	0.105	446237	keystroke_s	s	n/a
223.298	0.15	446596	keystroke_a	a	n/a
223.463	0.06	446926	keystroke_v	v	n/a
223.568	0.165	447136	keystroke_e	e	n/a
223.718	0.105	447436	keystroke_r	r	n/a
223.838	0.09	447676	keystroke_Key.space	Key.space	n/a
224.123	0.06	448246	keystroke_c	c	n/a
224.303	0.136	448606	keystroke_a	a	n/a
224.468	0.09	448936	keystroke_m	m	n/a
224.588	0.15	449176	keystroke_e	e	n/a
224.663	0.12	449326	keystroke_r	r	n/a
224.873	0.15	449746	keystroke_a	a	n/a
225.053	0.105	450106	keystroke_Key.space	Key.space	n/a
225.323	0.09	450646	keystroke_i	i	n/a
225.383	0.12	450766	keystroke_n	n	n/a
225.593	0.09	451186	keystroke_c	c	n/a
225.758	0.165	451516	keystroke_l	l	n/a
225.908	0.12	451816	keystroke_u	u	n/a
226.148	0.075	452296	keystroke_i	i	n/a
226.283	0.105	452566	keystroke_d	d	n/a
226.463	0.15	452926	keystroke_i	i	n/a
226.584	0.149	453168	keystroke_n	n	n/a
226.734	0.119	453468	keystroke_g	g	n/a
226.823	0.12	453646	keystroke_Key.space	Key.space	n/a
227.063	0.09	454126	keystroke_g	g	n/a
227.7535	0.075	455507	keystroke_Key.backspace	Key.backspace	n/a
227.9185	0.075	455837	keystroke_Key.backspace	Key.backspace	n/a
228.0535	0.075	456107	keystroke_Key.backspace	Key.backspace	n/a
228.2185	0.06	456437	keystroke_Key.backspace	Key.backspace	n/a
228.3825	0.061	456765	keystroke_Key.backspace	Key.backspace	n/a
228.5325	0.09	457065	keystroke_Key.backspace	Key.backspace	n/a
228.8485	0.09	457697	keystroke_Key.backspace	Key.backspace	n/a
229.1335	0.075	458267	keystroke_d	d	n/a
229.3135	0.09	458627	keystroke_i	i	n/a
229.5685	0.075	459137	keystroke_u	u	n/a
230.1985	0.0895	460397	keystroke_Key.backspace	Key.backspace	n/a
230.393	0.105	460786	keystroke_n	n	n/a
230.513	0.075	461026	keystroke_g	g	n/a
231.188	0.0905	462376	keystroke_Key.space	Key.space	n/a
231.4135	0.075	462827	keystroke_g	g	n/a
231.6085	0.075	463217	keystroke_r	r	n/a
231.6985	0.18	463397	keystroke_a	a	n/a
231.8485	0.075	463697	keystroke_d	d	n/a
232.0435	0.075	464087	keystroke_e	e	n/a
232.3575	0.075	464715	keystroke_Key.enter	Key.enter	n/a
232.4385	9.1915	464877	prompt	n/a	springfield sacred resolved bless\n
233.0635	0.105	466127	keystroke_s	s	n/a
233.1835	0.06	466367	keystroke_p	p	n/a
233.3335	0.075	466667	keystroke_r	r	n/a
233.4235	0.075	466847	keystroke_i	i	n/a
233.4835	0.105	466967	keystroke_n	n	n/a
233.6335	0.075	467267	keystroke_g	g	n/a
234.0685	0.105	468137	keystroke_f	f	n/a
234.2185	0.0895	468437	keystroke_i	i	n/a
234.368	0.075	468736	keystroke_e	e	n/a
234.548	0.09	469096	keystroke_l	l	n/a
234.698	0.075	469396	keystroke_d	d	n/a
235.6135	0.09	471227	keystroke_Key.space	Key.space	n/a
235.9585	0.075	471917	keystroke_s	s	n/a
236.2435	0.105	472487	keystroke_a	a	n/a
237.1435	0.075	474287	keystroke_c	c	n/a
237.4285	0.09	474857	keystroke_r	r	n/a
237.8325	0.075	475665	keystroke_e	e	n/a
238.1175	0.075	476235	keystroke_d	d	n/a
238.3135	0.09	476627	keystroke_Key.space	Key.space	n/a
238.5235	0.135	477047	keystroke_r	r	n/a
238.5835	0.15	477167	keystroke_e	e	n/a
238.6885	0.135	477377	keystroke_s	s	n/a
238.9585	0.09	477917	keystroke_o	o	n/a
239.1685	0.135	478337	keystroke_l	l	n/a
239.6925	0.076	479385	keystroke_v	v	n/a
239.8875	0.076	479775	keystroke_e	e	n/a
240.0975	0.09	480195	keystroke_d	d	n/a
240.248	0.105	480496	keystroke_Key.space	Key.space	n/a
240.548	0.075	481096	keystroke_b	b	n/a
240.773	0.105	481546	keystroke_l	l	n/a
240.908	0.15	481816	keystroke_e	e	n/a
241.028	0.09	482056	keystroke_s	s	n/a
241.208	0.09	482416	keystroke_s	s	n/a
241.523	0.105	483046	keystroke_Key.enter	Key.enter	n/a
241.6335	7.886	483267	prompt	n/a	seats excitement scales traffic\n
242.228	0.0755	484456	keystroke_s	s	n/a
242.4235	0.12	484847	keystroke_e	e	n/a
242.5585	0.18	485117	keystroke_a	a	n/a
242.7235	0.105	485447	keystroke_t	t	n/a
242.9785	0.105	485957	keystroke_s	s	n/a
243.1135	0.1345	486227	keystroke_Key.space	Key.space	n/a
243.398	0.075	486796	keystroke_e	e	n/a
243.653	0.0895	487306	keystroke_x	x	n/a
243.8475	0.09	487695	keystroke_c	c	n/a
244.0285	0.09	488057	keystroke_i	i	n/a
244.1635	0.09	488327	keystroke_t	t	n/a
244.3285	0.12	488657	keystroke_e	e	n/a
244.5085	0.09	489017	keystroke_m	m	n/a
244.6435	0.09	489287	keystroke_e	e	n/a
244.7485	0.09	489497	keystroke_n	n	n/a
244.8685	0.09	489737	keystroke_t	t	n/a
245.618	0.105	491236	keystroke_Key.space	Key.space	n/a
246.0075	0.075	492015	keystroke_s	s	n/a
246.2185	0.09	492437	keystroke_c	c	n/a
246.3385	0.135	492677	keystroke_a	a	n/a
246.4885	0.105	492977	keystroke_l	l	n/a
246.6685	0.135	493337	keystroke_e	e	n/a
246.7735	0.15	493547	keystroke_s	s	n/a
246.9385	0.09	493877	keystroke_Key.space	Key.space	n/a
247.1335	0.075	494267	keystroke_t	t	n/a
247.3285	0.06	494657	keystroke_r	r	n/a
247.3735	0.18	494747	keystroke_a	a	n/a
247.5685	0.09	495137	keystroke_f	f	n/a
247.7785	0.0895	495557	keystroke_f	f	n/a
248.6775	0.09	497355	keystroke_i	i	n/a
248.9175	0.075	497835	keystroke_c	c	n/a
249.4425	0.075	498885	keystroke_Key.enter	Key.enter	n/a
249.523	10.332	499046	prompt	n/a	basename accept barcelona acids\n
250.343	0.075	500686	keystroke_b	b	n/a
250.493	0.18	500986	keystroke_a	a	n/a
250.643	0.12	501286	keystroke_s	s	n/a
250.808	0.09	501616	keystroke_e	e	n/a
251.018	0.105	502036	keystroke_n	n	n/a
251.2735	0.0745	502547	keystroke_e	e	n/a
251.9175	0.09	503835	keystroke_Key.backspace	Key.backspace	n/a
252.0225	0.105	504045	keystroke_a	a	n/a
252.1575	0.09	504315	keystroke_m	m	n/a
252.2625	0.0755	504525	keystroke_e	e	n/a
253.0125	0.12	506025	keystroke_Key.space	Key.space	n/a
253.343	0.105	506686	keystroke_a	a	n/a
253.553	0.075	507106	keystroke_c	c	n/a
253.703	0.09	507406	keystroke_c	c	n/a
253.898	0.09	507796	keystroke_e	e	n/a
254.198	0.1345	508396	keystroke_p	p	n/a
254.3485	0.09	508697	keystroke_t	t	n/a
255.8485	0.119	511697	keystroke_Key.space	Key.space	n/a
256.4185	0.09	512837	keystroke_b	b	n/a
256.5985	0.18	513197	keystroke_a	a	n/a
256.7175	0.09	513435	keystroke_r	r	n/a
257.2435	0.015	514487	keystroke_c	c	n/a
257.363	0.09	514726	keystroke_e	e	n/a
257.483	0.12	514966	keystroke_l	l	n/a
257.813	0.135	515626	keystroke_o	o	n/a
257.963	0.135	515926	keystroke_n	n	n/a
258.128	0.15	516256	keystroke_a	a	n/a
258.323	0.105	516646	keystroke_Key.space	Key.space	n/a
258.503	0.075	517006	keystroke_a	a	n/a
258.713	0.075	517426	keystroke_c	c	n/a
258.863	0.105	517726	keystroke_i	i	n/a
258.998	0.09	517996	keystroke_d	d	n/a
259.193	0.09	518386	keystroke_s	s	n/a
259.7475	0.105	519495	keystroke_Key.enter	Key.enter	n/a
259.858	8.4565	519716	prompt	n/a	meals females computed download\n
260.9775	0.106	521955	keystroke_m	m	n/a
261.1425	0.135	522285	keystroke_e	e	n/a
261.2635	0.149	522527	keystroke_a	a	n/a
261.4135	0.089	522827	keystroke_l	l	n/a
261.5625	0.105	523125	keystroke_s	s	n/a
261.7425	0.105	523485	keystroke_Key.space	Key.space	n/a
262.268	0.0745	524536	keystroke_f	f	n/a
262.4625	0.06	524925	keystroke_e	e	n/a
262.5675	0.12	525135	keystroke_m	m	n/a
262.6575	0.15	525315	keystroke_a	a	n/a
263.1385	0.134	526277	keystroke_l	l	n/a
263.2875	0.165	526575	keystroke_e	e	n/a
263.4075	0.135	526815	keystroke_s	s	n/a
263.5725	0.09	527145	keystroke_Key.space	Key.space	n/a
263.8885	0.074	527777	keystroke_c	c	n/a
263.9635	0.119	527927	keystroke_o	o	n/a
264.0975	0.12	528195	keystroke_m	m	n/a
264.2325	0.18	528465	keystroke_p	p	n/a
264.3975	0.09	528795	keystroke_u	u	n/a
264.5625	0.09	529125	keystroke_t	t	n/a
264.7125	0.075	529425	keystroke_e	e	n/a
264.9225	0.09	529845	keystroke_d	d	n/a
265.0425	0.105	530085	keystroke_Key.space	Key.space	n/a
265.2375	0.09	530475	keystroke_d	d	n/a
265.3725	0.1505	530745	keystroke_o	o	n/a
265.4925	0.0755	530985	keystroke_u	u	n/a
265.613	0.09	531226	keystroke_w	w	n/a
266.093	0.09	532186	keystroke_Key.backspace	Key.backspace	n/a
266.258	0.105	532516	keystroke_Key.backspace	Key.backspace	n/a
266.348	0.075	532696	keystroke_w	w	n/a
266.483	0.105	532966	keystroke_n	n	n/a
266.618	0.09	533236	keystroke_Key.space	Key.space	n/a
267.023	0.12	534046	keystroke_Key.backspace	Key.backspace	n/a
267.338	0.09	534676	keystroke_l	l	n/a
267.548	0.09	535096	keystroke_o	o	n/a
267.653	0.18	535306	keystroke_a	a	n/a
267.803	0.1055	535606	keystroke_d	d	n/a
268.223	0.09	536446	keystroke_Key.enter	Key.enter	n/a
268.3175	7.0765	536635	prompt	n/a	tolerance holy laden better\n
269.228	0.075	538456	keystroke_t	t	n/a
269.633	0.09	539266	keystroke_o	o	n/a
269.828	0.105	539656	keystroke_l	l	n/a
270.023	0.18	540046	keystroke_e	e	n/a
270.143	0.075	540286	keystroke_r	r	n/a
270.308	0.135	540616	keystroke_a	a	n/a
270.443	0.09	540886	keystroke_n	n	n/a
270.608	0.09	541216	keystroke_c	c	n/a
270.818	0.12	541636	keystroke_e	e	n/a
270.9675	0.105	541935	keystroke_Key.space	Key.space	n/a
271.583	0.075	543166	keystroke_h	h	n/a
271.733	0.09	543466	keystroke_o	o	n/a
271.958	0.105	543916	keystroke_l	l	n/a
272.273	0.09	544546	keystroke_y	y	n/a
272.588	0.105	545176	keystroke_Key.space	Key.space	n/a
272.978	0.105	545956	keystroke_l	l	n/a
273.098	0.165	546196	keystroke_a	a	n/a
273.248	0.075	546496	keystroke_d	d	n/a
273.428	0.105	546856	keystroke_e	e	n/a
273.608	0.135	547216	keystroke_n	n	n/a
273.758	0.0895	547516	keystroke_Key.space	Key.space	n/a
274.0125	0.075	548025	keystroke_b	b	n/a
274.2225	0.105	548445	keystroke_e	e	n/a
274.3425	0.075	548685	keystroke_t	t	n/a
274.5225	0.09	549045	keystroke_t	t	n/a
274.7325	0.091	549465	keystroke_e	e	n/a
274.7925	0.105	549585	keystroke_r	r	n/a
275.3325	0.06	550665	keystroke_Key.enter	Key.enter	n/a
275.3995	8.3055	550799	prompt	n/a	launches partition shipment operator\n
276.0675	0.091	552135	keystroke_l	l	n/a
276.2475	0.135	552495	keystroke_a	a	n/a
276.413	0.0745	552826	keystroke_u	u	n/a
276.6075	0.105	553215	keystroke_n	n	n/a
276.7725	0.075	553545	keystroke_c	c	n/a
276.9225	0.091	553845	keystroke_h	h	n/a
277.2975	0.135	554595	keystroke_e	e	n/a
277.3875	0.15	554775	keystroke_s	s	n/a
277.6425	0.1055	555285	keystroke_Key.space	Key.space	n/a
278.183	0.0895	556366	keystroke_p	p	n/a
278.258	0.1645	556516	keystroke_a	a	n/a
278.3625	0.09	556725	keystroke_r	r	n/a
278.5725	0.09	557145	keystroke_t	t	n/a
278.7225	0.09	557445	keystroke_i	i	n/a
278.902	0.091	557804	keystroke_t	t	n/a
279.008	0.105	558016	keystroke_i	i	n/a
279.1585	0.179	558317	keystroke_o	o	n/a
279.3235	0.149	558647	keystroke_n	n	n/a
279.4875	0.106	558975	keystroke_Key.space	Key.space	n/a
279.7735	0.09	559547	keystroke_s	s	n/a
279.8775	0.135	559755	keystroke_h	h	n/a
279.9975	0.18	559995	keystroke_i	i	n/a
280.1485	0.119	560297	keystroke_p	p	n/a
280.4625	0.105	560925	keystroke_m	m	n/a
280.5975	0.0895	561195	keystroke_e	e	n/a
280.703	0.105	561406	keystroke_n	n	n/a
280.838	0.105	561676	keystroke_t	t	n/a
280.958	0.09	561916	keystroke_Key.space	Key.space	n/a
281.258	0.15	562516	keystroke_o	o	n/a
281.393	0.0895	562786	keystroke_p	p	n/a
281.4975	0.12	562995	keystroke_e	e	n/a
281.5585	0.119	563117	keystroke_r	r	n/a
281.7225	0.225	563445	keystroke_a	a	n/a
281.9335	0.09	563867	keystroke_t	t	n/a
282.1425	0.12	564285	keystroke_o	o	n/a
282.323	0.12	564646	keystroke_r	r	n/a
283.643	0.06	567286	keystroke_Key.enter	Key.enter	n/a
283.7075	11.0225	567415	prompt	n/a	investigated configured frequent keen\n
284.3775	0.09	568755	keystroke_i	i	n/a
284.4825	0.1355	568965	keystroke_n	n	n/a
284.663	0.075	569326	keystroke_v	v	n/a
284.783	0.165	569566	keystroke_e	e	n/a
284.903	0.165	569806	keystroke_s	s	n/a
285.023	0.105	570046	keystroke_t	t	n/a
285.188	0.074	570376	keystroke_i	i	n/a
285.323	0.075	570646	keystroke_g	g	n/a
285.518	0.165	571036	keystroke_a	a	n/a
285.653	0.09	571306	keystroke_t	t	n/a
285.788	0.09	571576	keystroke_e	e	n/a
285.9985	0.105	571997	keystroke_d	d	n/a
286.0725	0.105	572145	keystroke_Key.space	Key.space	n/a
286.4785	0.0895	572957	keystroke_o	o	n/a
286.553	0.12	573106	keystroke_n	n	n/a
286.658	0.09	573316	keystroke_f	f	n/a
286.868	0.075	573736	keystroke_i	i	n/a
287.078	0.0595	574156	keystroke_g	g	n/a
287.3025	0.075	574605	keystroke_u	u	n/a
287.4375	0.135	574875	keystroke_r	r	n/a
287.4975	0.18	574995	keystroke_e	e	n/a
287.6175	0.09	575235	keystroke_s	s	n/a
288.1125	0.076	576225	keystroke_Key.backspace	Key.backspace	n/a
288.293	0.045	576586	keystroke_Key.backspace	Key.backspace	n/a
288.413	0.075	576826	keystroke_Key.backspace	Key.backspace	n/a
288.578	0.06	577156	keystroke_Key.backspace	Key.backspace	n/a
288.743	0.045	577486	keystroke_Key.backspace	Key.backspace	n/a
288.893	0.06	577786	keystroke_Key.backspace	Key.backspace	n/a
289.043	0.06	578086	keystroke_Key.backspace	Key.backspace	n/a
289.208	0.06	578416	keystroke_Key.backspace	Key.backspace	n/a
289.358	0.075	578716	keystroke_Key.backspace	Key.backspace	n/a
289.778	0.09	579556	keystroke_c	c	n/a
289.853	0.135	579706	keystroke_o	o	n/a
289.973	0.1055	579946	keystroke_n	n	n/a
290.0935	0.104	580187	keystroke_f	f	n/a
290.2585	0.09	580517	keystroke_i	i	n/a
290.5135	0.075	581027	keystroke_g	g	n/a
290.6485	0.075	581297	keystroke_u	u	n/a
290.7835	0.12	581567	keystroke_r	r	n/a
290.8575	0.12	581715	keystroke_e	e	n/a
291.0985	0.09	582197	keystroke_d	d	n/a
291.3225	0.09	582645	keystroke_Key.space	Key.space	n/a
291.803	0.105	583606	keystroke_f	f	n/a
292.013	0.12	584026	keystroke_r	r	n/a
292.088	0.105	584176	keystroke_e	e	n/a
292.283	0.12	584566	keystroke_q	q	n/a
292.508	0.09	585016	keystroke_u	u	n/a
292.703	0.1205	585406	keystroke_e	e	n/a
292.9285	0.104	585857	keystroke_n	n	n/a
293.3635	0.075	586727	keystroke_t	t	n/a
293.5285	0.0895	587057	keystroke_Key.space	Key.space	n/a
293.858	0.105	587716	keystroke_k	k	n/a
294.008	0.045	588016	keystroke_e	e	n/a
294.1425	0.09	588285	keystroke_e	e	n/a
294.308	0.12	588616	keystroke_n	n	n/a
294.653	0.075	589306	keystroke_Key.enter	Key.enter	n/a
294.733	8.7715	589466	prompt	n/a	decades appliances unknown ghost\n
295.358	0.075	590716	keystroke_d	d	n/a
295.538	0.0595	591076	keystroke_e	e	n/a
295.7325	0.0605	591465	keystroke_c	c	n/a
295.883	0.1495	591766	keystroke_a	a	n/a
296.0775	0.09	592155	keystroke_d	d	n/a
296.303	0.135	592606	keystroke_e	e	n/a
296.393	0.15	592786	keystroke_s	s	n/a
296.558	0.09	593116	keystroke_Key.space	Key.space	n/a
296.693	0.12	593386	keystroke_a	a	n/a
296.858	0.105	593716	keystroke_p	p	n/a
297.053	0.105	594106	keystroke_p	p	n/a
297.323	0.15	594646	keystroke_l	l	n/a
297.443	0.105	594886	keystroke_i	i	n/a
297.623	0.135	595246	keystroke_a	a	n/a
297.908	0.105	595816	keystroke_n	n	n/a
298.103	0.06	596206	keystroke_c	c	n/a
298.313	0.105	596626	keystroke_e	e	n/a
298.583	0.06	597166	keystroke_s	s	n/a
298.763	0.105	597526	keystroke_Key.space	Key.space	n/a
299.0175	0.09	598035	keystroke_u	u	n/a
299.2425	0.135	598485	keystroke_n	n	n/a
299.4675	0.105	598935	keystroke_k	k	n/a
299.8125	0.135	599625	keystroke_n	n	n/a
300.0975	0.105	600195	keystroke_o	o	n/a
300.2475	0.0755	600495	keystroke_w	w	n/a
300.428	0.12	600856	keystroke_n	n	n/a
300.9675	0.075	601935	keystroke_Key.space	Key.space	n/a
301.4635	0.074	602927	keystroke_g	g	n/a
301.5975	0.061	603195	keystroke_o	o	n/a
301.9875	0.105	603975	keystroke_Key.backspace	Key.backspace	n/a
302.1825	0.12	604365	keystroke_h	h	n/a
302.3475	0.105	604695	keystroke_o	o	n/a
302.9775	0.105	605955	keystroke_s	s	n/a
303.0975	0.09	606195	keystroke_t	t	n/a
303.4575	0.045	606915	keystroke_Key.enter	Key.enter	n/a
303.508	8.2015	607016	prompt	n/a	window conclude downloading dublin\n
304.1485	0.074	608297	keystroke_w	w	n/a
304.2385	0.0895	608477	keystroke_o	o	n/a
304.673	0.105	609346	keystroke_Key.backspace	Key.backspace	n/a
304.898	0.105	609796	keystroke_i	i	n/a
304.988	0.105	609976	keystroke_n	n	n/a
305.123	0.075	610246	keystroke_d	d	n/a
305.273	0.09	610546	keystroke_o	o	n/a
305.393	0.09	610786	keystroke_w	w	n/a
305.723	0.09	611446	keystroke_Key.space	Key.space	n/a
306.0075	0.091	612015	keystroke_c	c	n/a
306.0835	0.089	612167	keystroke_o	o	n/a
306.1885	0.089	612377	keystroke_n	n	n/a
306.3375	0.091	612675	keystroke_c	c	n/a
306.6525	0.135	613305	keystroke_l	l	n/a
306.8175	0.105	613635	keystroke_u	u	n/a
307.3125	0.06	614625	keystroke_d	d	n/a
307.5225	0.09	615045	keystroke_e	e	n/a
307.7025	0.09	615405	keystroke_Key.space	Key.space	n/a
307.9875	0.06	615975	keystroke_d	d	n/a
308.0625	0.09	616125	keystroke_o	o	n/a
308.2275	0.075	616455	keystroke_w	w	n/a
308.3175	0.12	616635	keystroke_n	n	n/a
308.5875	0.105	617175	keystroke_l	l	n/a
308.8275	0.09	617655	keystroke_o	o	n/a
308.9325	0.15	617865	keystroke_a	a	n/a
309.1275	0.075	618255	keystroke_d	d	n/a
309.2775	0.136	618555	keystroke_i	i	n/a
309.3825	0.12	618765	keystroke_n	n	n/a
309.5175	0.105	619035	keystroke_g	g	n/a
309.6075	0.135	619215	keystroke_Key.space	Key.space	n/a
309.8325	0.075	619665	keystroke_d	d	n/a
310.2975	0.09	620595	keystroke_u	u	n/a
310.508	0.075	621016	keystroke_b	b	n/a
310.823	0.195	621646	keystroke_l	l	n/a
310.988	0.15	621976	keystroke_i	i	n/a
311.108	0.135	622216	keystroke_n	n	n/a
311.6185	0.09	623237	keystroke_Key.enter	Key.enter	n/a
311.7125	8.652	623425	prompt	n/a	asks five panama institutes\n
312.278	0.135	624556	keystroke_a	a	n/a
312.488	0.075	624976	keystroke_s	s	n/a
312.623	0.12	625246	keystroke_k	k	n/a
312.773	0.075	625546	keystroke_s	s	n/a
312.893	0.12	625786	keystroke_Key.space	Key.space	n/a
313.133	0.09	626266	keystroke_f	f	n/a
313.283	0.06	626566	keystroke_i	i	n/a
313.433	0.045	626866	keystroke_v	v	n/a
313.553	0.09	627106	keystroke_e	e	n/a
313.658	0.09	627316	keystroke_Key.space	Key.space	n/a
314.033	0.12	628066	keystroke_p	p	n/a
314.2885	0.119	628577	keystroke_a	a	n/a
314.5275	0.121	629055	keystroke_n	n	n/a
314.8725	0.105	629745	keystroke_a	a	n/a
315.1135	0.119	630227	keystroke_m	m	n/a
315.3375	0.12	630675	keystroke_a	a	n/a
315.7275	0.135	631455	keystroke_Key.space	Key.space	n/a
315.8925	0.1055	631785	keystroke_i	i	n/a
315.983	0.105	631966	keystroke_n	n	n/a
316.9725	0.09	633945	keystroke_s	s	n/a
317.378	0.075	634756	keystroke_t	t	n/a
318.0075	0.09	636015	keystroke_i	i	n/a
318.2325	0.1055	636465	keystroke_t	t	n/a
319.163	0.09	638326	keystroke_u	u	n/a
319.433	0.075	638866	keystroke_t	t	n/a
319.568	0.18	639136	keystroke_e	e	n/a
319.688	0.1355	639376	keystroke_s	s	n/a
320.273	0.09	640546	keystroke_Key.enter	Key.enter	n/a
320.368	14.0815	640736	prompt	n/a	liechtenstein fabrics calvin religion\n
321.098	0.105	642196	keystroke_l	l	n/a
321.8625	0.105	643725	keystroke_i	i	n/a
322.1775	0.075	644355	keystroke_e	e	n/a
322.4925	0.075	644985	keystroke_c	c	n/a
322.7175	0.0905	645435	keystroke_h	h	n/a
323.003	0.06	646006	keystroke_t	t	n/a
323.153	0.075	646306	keystroke_e	e	n/a
323.393	0.075	646786	keystroke_n	n	n/a
323.558	0.075	647116	keystroke_s	s	n/a
323.873	0.06	647746	keystroke_t	t	n/a
324.428	0.0755	648856	keystroke_e	e	n/a
324.833	0.135	649666	keystroke_i	i	n/a
324.953	0.105	649906	keystroke_n	n	n/a
325.583	0.09	651166	keystroke_Key.space	Key.space	n/a
326.168	0.09	652336	keystroke_f	f	n/a
326.3025	0.12	652605	keystroke_a	a	n/a
326.5125	0.106	653025	keystroke_b	b	n/a
326.7985	0.089	653597	keystroke_r	r	n/a
327.0685	0.089	654137	keystroke_i	i	n/a
327.2635	0.074	654527	keystroke_c	c	n/a
327.5775	0.09	655155	keystroke_s	s	n/a
327.8925	0.09	655785	keystroke_Key.space	Key.space	n/a
329.633	0.075	659266	keystroke_c	c	n/a
329.753	0.15	659506	keystroke_a	a	n/a
329.888	0.09	659776	keystroke_l	l	n/a
330.038	0.09	660076	keystroke_v	v	n/a
330.218	0.0895	660436	keystroke_i	i	n/a
330.4125	0.105	660825	keystroke_n	n	n/a
330.5625	0.105	661125	keystroke_Key.space	Key.space	n/a
330.7425	0.105	661485	keystroke_r	r	n/a
330.8025	0.105	661605	keystroke_e	e	n/a
330.9525	0.135	661905	keystroke_l	l	n/a
331.0575	0.075	662115	keystroke_i	i	n/a
331.1475	0.046	662295	keystroke_g	g	n/a
332.2585	0.06	664517	keystroke_g	g	n/a
332.737	0.091	665474	keystroke_Key.backspace	Key.backspace	n/a
332.963	0.075	665926	keystroke_i	i	n/a
333.1585	0.1645	666317	keystroke_o	o	n/a
333.293	0.135	666586	keystroke_n	n	n/a
334.373	0.075	668746	keystroke_Key.enter	Key.enter	n/a
334.4525	9.7915	668905	prompt	n/a	clocks implications zone freeze\n
335.213	0.075	670426	keystroke_c	c	n/a
335.288	0.09	670576	keystroke_l	l	n/a
335.483	0.09	670966	keystroke_o	o	n/a
335.633	0.075	671266	keystroke_c	c	n/a
335.768	0.105	671536	keystroke_k	k	n/a
335.903	0.09	671806	keystroke_s	s	n/a
336.053	0.09	672106	keystroke_Key.space	Key.space	n/a
336.908	0.105	673816	keystroke_i	i	n/a
337.058	0.135	674116	keystroke_m	m	n/a
337.238	0.12	674476	keystroke_p	p	n/a
337.403	0.135	674806	keystroke_l	l	n/a
337.658	0.105	675316	keystroke_i	i	n/a
337.898	0.075	675796	keystroke_c	c	n/a
338.003	0.165	676006	keystroke_a	a	n/a
338.124	0.089	676248	keystroke_t	t	n/a
338.183	0.195	676366	keystroke_i	i	n/a
338.288	0.12	676576	keystroke_o	o	n/a
338.348	0.15	676696	keystroke_n	n	n/a
338.528	0.12	677056	keystroke_s	s	n/a
338.603	0.135	677206	keystroke_Key.space	Key.space	n/a
339.008	0.06	678016	keystroke_x	x	n/a
339.098	0.12	678196	keystroke_o	o	n/a
339.233	0.09	678466	keystroke_n	n	n/a
339.338	0.12	678676	keystroke_e	e	n/a
339.473	0.105	678946	keystroke_Key.space	Key.space	n/a
340.178	0.075	680356	keystroke_Key.backspace	Key.backspace	n/a
340.358	0.06	680716	keystroke_Key.backspace	Key.backspace	n/a
340.508	0.06	681016	keystroke_Key.backspace	Key.backspace	n/a
340.658	0.075	681316	keystroke_Key.backspace	Key.backspace	n/a
340.973	0.105	681946	keystroke_Key.backspace	Key.backspace	n/a
341.498	0.12	682996	keystroke_z	z	n/a
341.723	0.12	683446	keystroke_o	o	n/a
341.858	0.105	683716	keystroke_n	n	n/a
341.948	0.12	683896	keystroke_e	e	n/a
342.053	0.12	684106	keystroke_Key.space	Key.space	n/a
342.293	0.075	684586	keystroke_f	f	n/a
342.473	0.09	684946	keystroke_r	r	n/a
342.533	0.09	685066	keystroke_e	e	n/a
342.728	0.09	685456	keystroke_e	e	n/a
343.043	0.105	686086	keystroke_z	z	n/a
343.253	0.09	686506	keystroke_e	e	n/a
344.1375	0.105	688275	keystroke_Key.enter	Key.enter	n/a
344.2485	9.8205	688497	prompt	n/a	notify plenty exhibition adam\n
345.0525	0.105	690105	keystroke_n	n	n/a
345.1875	0.09	690375	keystroke_o	o	n/a
345.3085	0.089	690617	keystroke_t	t	n/a
345.4275	0.076	690855	keystroke_i	i	n/a
345.5625	0.105	691125	keystroke_f	f	n/a
345.8785	0.0745	691757	keystroke_y	y	n/a
346.028	0.12	692056	keystroke_Key.space	Key.space	n/a
346.388	0.135	692776	keystroke_p	p	n/a
346.583	0.09	693166	keystroke_l	l	n/a
346.928	0.089	693856	keystroke_e	e	n/a
347.032	0.091	694064	keystroke_n	n	n/a
347.183	0.09	694366	keystroke_t	t	n/a
347.407	0.061	694814	keystroke_y	y	n/a
347.558	0.09	695116	keystroke_Key.space	Key.space	n/a
347.843	0.06	695686	keystroke_e	e	n/a
348.083	0.09	696166	keystroke_x	x	n/a
348.3075	0.06	696615	keystroke_c	c	n/a
348.4575	0.09	696915	keystroke_h	h	n/a
348.548	0.119	697096	keystroke_i	i	n/a
348.9075	0.075	697815	keystroke_b	b	n/a
349.1175	0.09	698235	keystroke_i	i	n/a
349.2375	0.091	698475	keystroke_t	t	n/a
349.3425	0.15	698685	keystroke_i	i	n/a
349.8075	0.03	699615	keystroke_Key.backspace	Key.backspace	n/a
349.9575	0.06	699915	keystroke_Key.backspace	Key.backspace	n/a
350.1075	0.06	700215	keystroke_Key.backspace	Key.backspace	n/a
350.2575	0.0605	700515	keystroke_Key.backspace	Key.backspace	n/a
350.423	0.06	700846	keystroke_Key.backspace	Key.backspace	n/a
350.573	0.105	701146	keystroke_Key.backspace	Key.backspace	n/a
350.813	0.075	701626	keystroke_Key.backspace	Key.backspace	n/a
351.128	0.09	702256	keystroke_h	h	n/a
351.278	0.105	702556	keystroke_i	i	n/a
351.713	0.06	703426	keystroke_b	b	n/a
351.877	0.09	703754	keystroke_i	i	n/a
352.057	0.075	704114	keystroke_t	t	n/a
352.177	0.2105	704354	keystroke_i	i	n/a
352.3425	0.18	704685	keystroke_o	o	n/a
352.4925	0.15	704985	keystroke_n	n	n/a
352.6875	0.105	705375	keystroke_Key.space	Key.space	n/a
353.1675	0.12	706335	keystroke_a	a	n/a
353.3635	0.074	706727	keystroke_d	d	n/a
353.5125	0.12	707025	keystroke_a	a	n/a
353.6475	0.09	707295	keystroke_m	m	n/a
353.9775	0.09	707955	keystroke_Key.enter	Key.enter	n/a
354.073	7.751	708146	prompt	n/a	trivia composite grab tackle\n
354.7425	0.06	709485	keystroke_t	t	n/a
354.9375	0.075	709875	keystroke_r	r	n/a
355.1325	0.075	710265	keystroke_i	i	n/a
355.2975	0.075	710595	keystroke_v	v	n/a
355.5075	0.09	711015	keystroke_a	a	n/a
355.942	0.105	711884	keystroke_Key.backspace	Key.backspace	n/a
356.153	0.075	712306	keystroke_i	i	n/a
356.288	0.119	712576	keystroke_a	a	n/a
356.528	0.089	713056	keystroke_Key.space	Key.space	n/a
356.767	0.0755	713534	keystroke_c	c	n/a
356.8875	0.21	713775	keystroke_o	o	n/a
357.0525	0.165	714105	keystroke_m	m	n/a
357.2925	0.15	714585	keystroke_p	p	n/a
357.4725	0.12	714945	keystroke_o	o	n/a
357.6975	0.09	715395	keystroke_s	s	n/a
357.8325	0.09	715665	keystroke_i	i	n/a
358.0425	0.09	716085	keystroke_t	t	n/a
358.358	0.09	716716	keystroke_e	e	n/a
358.583	0.09	717166	keystroke_Key.space	Key.space	n/a
358.838	0.075	717676	keystroke_g	g	n/a
359.018	0.09	718036	keystroke_r	r	n/a
359.123	0.135	718246	keystroke_a	a	n/a
359.378	0.075	718756	keystroke_b	b	n/a
359.692	0.09	719384	keystroke_Key.space	Key.space	n/a
360.458	0.074	720916	keystroke_t	t	n/a
360.577	0.1055	721154	keystroke_a	a	n/a
360.7275	0.09	721455	keystroke_c	c	n/a
360.8925	0.0755	721785	keystroke_k	k	n/a
361.133	0.12	722266	keystroke_l	l	n/a
361.328	0.075	722656	keystroke_e	e	n/a
361.732	0.09	723464	keystroke_Key.enter	Key.enter	n/a
361.829	8.785	723658	prompt	n/a	montgomery one junior saver\n
362.453	0.15	724906	keystroke_m	m	n/a
362.693	0.135	725386	keystroke_o	o	n/a
362.948	0.105	725896	keystroke_n	n	n/a
363.188	0.075	726376	keystroke_t	t	n/a
363.712	0.075	727424	keystroke_g	g	n/a
363.907	0.075	727814	keystroke_e	e	n/a
364.402	0.1055	728804	keystroke_Key.backspace	Key.backspace	n/a
364.6735	0.089	729347	keystroke_o	o	n/a
364.8825	0.075	729765	keystroke_m	m	n/a
365.1075	0.1655	730215	keystroke_e	e	n/a
365.228	0.135	730456	keystroke_r	r	n/a
365.498	0.105	730996	keystroke_y	y	n/a
365.663	0.1495	731326	keystroke_Key.space	Key.space	n/a
366.007	0.105	732014	keystroke_o	o	n/a
366.127	0.12	732254	keystroke_n	n	n/a
366.3525	0.15	732705	keystroke_e	e	n/a
366.4725	0.105	732945	keystroke_Key.space	Key.space	n/a
367.5525	0.12	735105	keystroke_j	j	n/a
367.972	0.0905	735944	keystroke_u	u	n/a
368.2135	0.1645	736427	keystroke_n	n	n/a
368.603	0.09	737206	keystroke_i	i	n/a
368.813	0.105	737626	keystroke_o	o	n/a
369.038	0.1195	738076	keystroke_r	r	n/a
369.1725	0.105	738345	keystroke_Key.space	Key.space	n/a
369.3825	0.075	738765	keystroke_s	s	n/a
369.5325	0.165	739065	keystroke_a	a	n/a
369.6825	0.09	739365	keystroke_v	v	n/a
369.8175	0.12	739635	keystroke_e	e	n/a
369.9225	0.105	739845	keystroke_r	r	n/a
370.5225	0.09	741045	keystroke_Key.enter	Key.enter	n/a
370.618	7.4215	741236	prompt	n/a	scheduling feeding pattern peers\n
371.2425	0.09	742485	keystroke_s	s	n/a
371.4525	0.136	742905	keystroke_c	c	n/a
371.6175	0.09	743235	keystroke_h	h	n/a
371.7685	0.074	743537	keystroke_e	e	n/a
371.9775	0.09	743955	keystroke_d	d	n/a
372.293	0.105	744586	keystroke_u	u	n/a
372.503	0.105	745006	keystroke_l	l	n/a
372.713	0.135	745426	keystroke_i	i	n/a
372.833	0.135	745666	keystroke_n	n	n/a
373.013	0.135	746026	keystroke_g	g	n/a
373.103	0.1045	746206	keystroke_Key.space	Key.space	n/a
373.3275	0.09	746655	keystroke_f	f	n/a
373.5525	0.0595	747105	keystroke_e	e	n/a
373.718	0.059	747436	keystroke_e	e	n/a
373.913	0.074	747826	keystroke_d	d	n/a
374.032	0.12	748064	keystroke_i	i	n/a
374.137	0.12	748274	keystroke_n	n	n/a
374.288	0.105	748576	keystroke_g	g	n/a
374.377	0.09	748754	keystroke_Key.space	Key.space	n/a
374.782	0.105	749564	keystroke_p	p	n/a
374.888	0.15	749776	keystroke_a	a	n/a
375.007	0.0755	750014	keystroke_t	t	n/a
375.1575	0.075	750315	keystroke_t	t	n/a
375.3375	0.105	750675	keystroke_e	e	n/a
375.3825	0.135	750765	keystroke_r	r	n/a
375.8625	0.105	751725	keystroke_n	n	n/a
376.3425	0.105	752685	keystroke_Key.space	Key.space	n/a
377.0175	0.135	754035	keystroke_p	p	n/a
377.1975	0.075	754395	keystroke_e	e	n/a
377.3475	0.12	754695	keystroke_e	e	n/a
377.5575	0.105	755115	keystroke_r	r	n/a
377.7675	0.075	755535	keystroke_s	s	n/a
377.9475	0.09	755895	keystroke_Key.enter	Key.enter	n/a
378.046	11.273	756092	prompt	n/a	tattoo bush bufing switching\n
378.7575	0.075	757515	keystroke_t	t	n/a
378.9075	0.165	757815	keystroke_a	a	n/a
379.0875	0.06	758175	keystroke_t	t	n/a
379.2675	0.075	758535	keystroke_t	t	n/a
379.4475	0.075	758895	keystroke_o	o	n/a
379.6275	0.105	759255	keystroke_o	o	n/a
379.8075	0.075	759615	keystroke_Key.space	Key.space	n/a
380.0025	0.09	760005	keystroke_b	b	n/a
380.2275	0.09	760455	keystroke_u	u	n/a
380.3925	0.075	760785	keystroke_s	s	n/a
380.5725	0.09	761145	keystroke_h	h	n/a
380.7075	0.105	761415	keystroke_Key.space	Key.space	n/a
381.413	0.09	762826	keystroke_b	b	n/a
381.713	0.075	763426	keystroke_u	u	n/a
381.953	0.105	763906	keystroke_f	f	n/a
382.163	0.1645	764326	keystroke_i	i	n/a
383.3175	0.135	766635	keystroke_n	n	n/a
383.6025	0.12	767205	keystroke_g	g	n/a
383.7975	0.105	767595	keystroke_Key.space	Key.space	n/a
383.9475	0.15	767895	keystroke_Key.space	Key.space	n/a
384.1575	0.09	768315	keystroke_Key.space	Key.space	n/a
384.7725	0.12	769545	keystroke_Key.backspace	Key.backspace	n/a
385.7775	0.0745	771555	keystroke_Key.backspace	Key.backspace	n/a
386.963	0.075	773926	keystroke_s	s	n/a
387.173	0.075	774346	keystroke_w	w	n/a
387.308	0.075	774616	keystroke_i	i	n/a
387.428	0.075	774856	keystroke_t	t	n/a
387.833	0.075	775666	keystroke_c	c	n/a
387.923	0.09	775846	keystroke_h	h	n/a
388.028	0.135	776056	keystroke_i	i	n/a
388.148	0.12	776296	keystroke_n	n	n/a
388.252	0.106	776504	keystroke_g	g	n/a
388.402	0.045	776804	keystroke_Key.space	Key.space	n/a
388.912	0.105	777824	keystroke_Key.backspace	Key.backspace	n/a
389.242	0.075	778484	keystroke_Key.enter	Key.enter	n/a
389.3225	8.4425	778645	prompt	n/a	ranked ferrari iceland celebrities\n
390.157	0.075	780314	keystroke_r	r	n/a
390.278	0.104	780556	keystroke_a	a	n/a
390.367	0.106	780734	keystroke_n	n	n/a
390.637	0.091	781274	keystroke_k	k	n/a
390.743	0.074	781486	keystroke_e	e	n/a
390.938	0.074	781876	keystroke_d	d	n/a
391.057	0.12	782114	keystroke_Key.space	Key.space	n/a
391.252	0.075	782504	keystroke_f	f	n/a
391.432	0.12	782864	keystroke_e	e	n/a
391.537	0.09	783074	keystroke_r	r	n/a
391.732	0.075	783464	keystroke_r	r	n/a
391.912	0.18	783824	keystroke_a	a	n/a
392.047	0.106	784094	keystroke_r	r	n/a
392.557	0.045	785114	keystroke_i	i	n/a
392.632	0.105	785264	keystroke_Key.space	Key.space	n/a
393.022	0.075	786044	keystroke_i	i	n/a
393.142	0.06	786284	keystroke_c	c	n/a
393.337	0.075	786674	keystroke_e	e	n/a
393.458	0.105	786916	keystroke_l	l	n/a
393.622	0.1355	787244	keystroke_a	a	n/a
393.7275	0.105	787455	keystroke_n	n	n/a
393.8775	0.09	787755	keystroke_d	d	n/a
394.0125	0.135	788025	keystroke_Key.space	Key.space	n/a
394.3875	0.075	788775	keystroke_c	c	n/a
394.6575	0.105	789315	keystroke_e	e	n/a
395.3025	0.12	790605	keystroke_l	l	n/a
395.5125	0.09	791025	keystroke_e	e	n/a
395.7375	0.075	791475	keystroke_b	b	n/a
395.9775	0.075	791955	keystroke_r	r	n/a
396.1275	0.075	792255	keystroke_i	i	n/a
396.263	0.09	792526	keystroke_t	t	n/a
396.398	0.075	792796	keystroke_i	i	n/a
396.518	0.149	793036	keystroke_e	e	n/a
396.622	0.106	793244	keystroke_s	s	n/a
397.6875	0.075	795375	keystroke_Key.enter	Key.enter	n/a
397.768	5.8015	795536	prompt	n/a	organize mats blogging phantom\n
398.4075	0.09	796815	keystroke_o	o	n/a
398.4975	0.06	796995	keystroke_r	r	n/a
398.6935	0.074	797387	keystroke_g	g	n/a
398.7525	0.12	797505	keystroke_a	a	n/a
398.8275	0.135	797655	keystroke_n	n	n/a
398.9475	0.105	797895	keystroke_i	i	n/a
399.113	0.105	798226	keystroke_z	z	n/a
399.338	0.09	798676	keystroke_e	e	n/a
399.473	0.12	798946	keystroke_Key.space	Key.space	n/a
399.728	0.119	799456	keystroke_m	m	n/a
399.803	0.164	799606	keystroke_a	a	n/a
399.982	0.09	799964	keystroke_t	t	n/a
400.372	0.09	800744	keystroke_s	s	n/a
400.522	0.12	801044	keystroke_Key.space	Key.space	n/a
400.837	0.06	801674	keystroke_b	b	n/a
400.927	0.09	801854	keystroke_l	l	n/a
401.137	0.075	802274	keystroke_o	o	n/a
401.257	0.061	802514	keystroke_g	g	n/a
401.422	0.075	802844	keystroke_g	g	n/a
401.512	0.135	803024	keystroke_i	i	n/a
401.617	0.12	803234	keystroke_n	n	n/a
401.752	0.076	803504	keystroke_g	g	n/a
401.828	0.12	803656	keystroke_Key.space	Key.space	n/a
402.038	0.12	804076	keystroke_p	p	n/a
402.233	0.1195	804466	keystroke_h	h	n/a
402.4275	0.12	804855	keystroke_a	a	n/a
402.5775	0.105	805155	keystroke_n	n	n/a
402.9225	0.09	805845	keystroke_t	t	n/a
403.1025	0.135	806205	keystroke_o	o	n/a
403.1925	0.135	806385	keystroke_m	m	n/a
403.4775	0.09	806955	keystroke_Key.enter	Key.enter	n/a
403.5735	11.1555	807147	prompt	n/a	validity difficulties over besides\n
404.273	0.09	808546	keystroke_v	v	n/a
404.393	0.135	808786	keystroke_a	a	n/a
404.468	0.15	808936	keystroke_l	l	n/a
404.633	0.09	809266	keystroke_i	i	n/a
404.753	0.09	809506	keystroke_d	d	n/a
404.917	0.121	809834	keystroke_i	i	n/a
405.2175	0.075	810435	keystroke_t	t	n/a
405.3525	0.075	810705	keystroke_y	y	n/a
405.8325	0.09	811665	keystroke_Key.space	Key.space	n/a
406.1325	0.075	812265	keystroke_d	d	n/a
406.297	0.09	812594	keystroke_i	i	n/a
406.463	0.059	812926	keystroke_f	f	n/a
406.643	0.09	813286	keystroke_f	f	n/a
406.777	0.075	813554	keystroke_i	i	n/a
406.957	0.061	813914	keystroke_c	c	n/a
407.092	0.09	814184	keystroke_u	u	n/a
407.317	0.12	814634	keystroke_l	l	n/a
407.483	0.09	814966	keystroke_t	t	n/a
407.8425	0.1045	815685	keystroke_i	i	n/a
407.9625	0.1495	815925	keystroke_e	e	n/a
408.052	0.1355	816104	keystroke_s	s	n/a
408.6075	0.075	817215	keystroke_Key.space	Key.space	n/a
408.8475	0.09	817695	keystroke_o	o	n/a
408.9825	0.045	817965	keystroke_v	v	n/a
409.0875	0.15	818175	keystroke_e	e	n/a
409.1775	0.15	818355	keystroke_r	r	n/a
409.2825	0.12	818565	keystroke_Key.space	Key.space	n/a
410.0025	0.15	820005	keystroke_e	e	n/a
410.1225	0.12	820245	keystroke_s	s	n/a
410.678	0.075	821356	keystroke_Key.backspace	Key.backspace	n/a
410.827	0.09	821654	keystroke_Key.backspace	Key.backspace	n/a
411.083	0.03	822166	keystroke_v	v	n/a
411.217	0.106	822434	keystroke_e	e	n/a
411.337	0.105	822674	keystroke_s	s	n/a
411.548	0.089	823096	keystroke_i	i	n/a
411.847	0.06	823694	keystroke_Key.backspace	Key.backspace	n/a
412.012	0.075	824024	keystroke_Key.backspace	Key.backspace	n/a
412.177	0.06	824354	keystroke_Key.backspace	Key.backspace	n/a
412.327	0.06	824654	keystroke_Key.backspace	Key.backspace	n/a
413.0475	0.075	826095	keystroke_b	b	n/a
413.2425	0.09	826485	keystroke_e	e	n/a
413.8425	0.09	827685	keystroke_s	s	n/a
414.0075	0.09	828015	keystroke_i	i	n/a
414.1125	0.06	828225	keystroke_d	d	n/a
414.2925	0.12	828585	keystroke_e	e	n/a
414.3825	0.105	828765	keystroke_s	s	n/a
414.6375	0.09	829275	keystroke_Key.enter	Key.enter	n/a
414.7335	5.5755	829467	prompt	n/a	adopted amount internet peas\n
415.462	0.135	830924	keystroke_a	a	n/a
415.627	0.075	831254	keystroke_d	d	n/a
415.882	0.15	831764	keystroke_o	o	n/a
416.002	0.135	832004	keystroke_p	p	n/a
416.167	0.075	832334	keystroke_t	t	n/a
416.377	0.076	832754	keystroke_e	e	n/a
416.587	0.105	833174	keystroke_d	d	n/a
416.782	0.09	833564	keystroke_Key.space	Key.space	n/a
416.992	0.121	833984	keystroke_a	a	n/a
417.128	0.074	834256	keystroke_m	m	n/a
417.262	0.12	834524	keystroke_o	o	n/a
417.398	0.09	834796	keystroke_u	u	n/a
417.607	0.12	835214	keystroke_n	n	n/a
417.757	0.09	835514	keystroke_t	t	n/a
417.862	0.09	835724	keystroke_Key.space	Key.space	n/a
418.162	0.1055	836324	keystroke_i	i	n/a
418.2375	0.12	836475	keystroke_n	n	n/a
418.3725	0.0895	836745	keystroke_t	t	n/a
418.507	0.135	837014	keystroke_e	e	n/a
418.597	0.1055	837194	keystroke_r	r	n/a
418.7175	0.105	837435	keystroke_n	n	n/a
418.8525	0.1495	837705	keystroke_e	e	n/a
418.9725	0.1045	837945	keystroke_t	t	n/a
419.107	0.1055	838214	keystroke_Key.space	Key.space	n/a
419.3625	0.12	838725	keystroke_p	p	n/a
419.4975	0.105	838995	keystroke_e	e	n/a
419.5725	0.135	839145	keystroke_a	a	n/a
419.7825	0.09	839565	keystroke_s	s	n/a
420.217	0.09	840434	keystroke_Key.enter	Key.enter	n/a
420.313	10.391	840626	prompt	n/a	measures fascinating dangerous compensation\n
421.207	0.075	842414	keystroke_m	m	n/a
421.297	0.105	842594	keystroke_e	e	n/a
421.462	0.165	842924	keystroke_a	a	n/a
421.672	0.105	843344	keystroke_s	s	n/a
421.912	0.075	843824	keystroke_u	u	n/a
422.032	0.12	844064	keystroke_r	r	n/a
422.092	0.18	844184	keystroke_e	e	n/a
422.242	0.12	844484	keystroke_s	s	n/a
422.467	0.105	844934	keystroke_Key.space	Key.space	n/a
422.692	0.105	845384	keystroke_f	f	n/a
422.813	0.134	845626	keystroke_a	a	n/a
423.247	0.075	846494	keystroke_s	s	n/a
423.517	0.061	847034	keystroke_c	c	n/a
423.727	0.045	847454	keystroke_Key.space	Key.space	n/a
424.627	0.09	849254	keystroke_Key.backspace	Key.backspace	n/a
424.973	0.1045	849946	keystroke_i	i	n/a
425.0625	0.09	850125	keystroke_n	n	n/a
425.4975	0.165	850995	keystroke_a	a	n/a
425.6175	0.12	851235	keystroke_t	t	n/a
425.7675	0.12	851535	keystroke_i	i	n/a
425.9025	0.12	851805	keystroke_n	n	n/a
426.0375	0.105	852075	keystroke_g	g	n/a
426.1275	0.12	852255	keystroke_Key.space	Key.space	n/a
426.9075	0.12	853815	keystroke_d	d	n/a
427.0875	0.18	854175	keystroke_a	a	n/a
427.2075	0.12	854415	keystroke_n	n	n/a
427.3125	0.06	854625	keystroke_g	g	n/a
427.4475	0.135	854895	keystroke_e	e	n/a
427.5525	0.105	855105	keystroke_r	r	n/a
427.778	0.134	855556	keystroke_o	o	n/a
427.882	0.105	855764	keystroke_u	u	n/a
428.077	0.105	856154	keystroke_s	s	n/a
428.212	0.1055	856424	keystroke_Key.space	Key.space	n/a
428.4975	0.075	856995	keystroke_c	c	n/a
428.5875	0.195	857175	keystroke_o	o	n/a
428.7375	0.135	857475	keystroke_m	m	n/a
428.8425	0.105	857685	keystroke_p	p	n/a
429.0225	0.1045	858045	keystroke_e	e	n/a
429.233	0.104	858466	keystroke_n	n	n/a
429.383	0.075	858766	keystroke_s	s	n/a
429.622	0.18	859244	keystroke_a	a	n/a
429.787	0.105	859574	keystroke_t	t	n/a
429.877	0.18	859754	keystroke_i	i	n/a
429.952	0.12	859904	keystroke_o	o	n/a
430.027	0.135	860054	keystroke_n	n	n/a
430.6125	0.09	861225	keystroke_Key.enter	Key.enter	n/a
430.7085	7.84	861417	prompt	n/a	easier binary rebates paintball\n
431.4225	0.09	862845	keystroke_e	e	n/a
431.5425	0.1795	863085	keystroke_a	a	n/a
431.677	0.121	863354	keystroke_s	s	n/a
431.827	0.075	863654	keystroke_i	i	n/a
431.947	0.165	863894	keystroke_e	e	n/a
432.083	0.119	864166	keystroke_r	r	n/a
432.247	0.075	864494	keystroke_Key.space	Key.space	n/a
432.517	0.075	865034	keystroke_b	b	n/a
432.713	0.105	865426	keystroke_i	i	n/a
432.818	0.12	865636	keystroke_n	n	n/a
432.938	0.165	865876	keystroke_a	a	n/a
433.117	0.0905	866234	keystroke_r	r	n/a
433.3425	0.075	866685	keystroke_y	y	n/a
433.4625	0.135	866925	keystroke_Key.space	Key.space	n/a
433.6875	0.105	867375	keystroke_r	r	n/a
433.7625	0.105	867525	keystroke_e	e	n/a
434.0025	0.09	868005	keystroke_b	b	n/a
434.1975	0.1645	868395	keystroke_a	a	n/a
434.347	0.105	868694	keystroke_t	t	n/a
434.467	0.1805	868934	keystroke_e	e	n/a
434.6025	0.135	869205	keystroke_s	s	n/a
434.7675	0.12	869535	keystroke_Key.space	Key.space	n/a
435.2325	0.105	870465	keystroke_p	p	n/a
435.3525	0.15	870705	keystroke_a	a	n/a
435.4725	0.105	870945	keystroke_i	i	n/a
435.5475	0.15	871095	keystroke_n	n	n/a
435.7125	0.09	871425	keystroke_t	t	n/a
436.7475	0.09	873495	keystroke_b	b	n/a
436.9725	0.135	873945	keystroke_a	a	n/a
437.3325	0.09	874665	keystroke_l	l	n/a
437.7375	0.135	875475	keystroke_l	l	n/a
438.457	0.09	876914	keystroke_Key.enter	Key.enter	n/a
438.5515	6.703	877103	prompt	n/a	imports powerpoint pottery see\n
439.1775	0.09	878355	keystroke_i	i	n/a
439.3125	0.165	878625	keystroke_m	m	n/a
439.4625	0.105	878925	keystroke_p	p	n/a
439.5525	0.135	879105	keystroke_o	o	n/a
439.7175	0.075	879435	keystroke_r	r	n/a
439.8975	0.075	879795	keystroke_t	t	n/a
440.1075	0.105	880215	keystroke_s	s	n/a
440.2275	0.0895	880455	keystroke_Key.space	Key.space	n/a
440.557	0.09	881114	keystroke_p	p	n/a
440.707	0.12	881414	keystroke_o	o	n/a
440.812	0.165	881624	keystroke_w	w	n/a
440.948	0.149	881896	keystroke_e	e	n/a
441.022	0.1355	882044	keystroke_r	r	n/a
441.3525	0.15	882705	keystroke_p	p	n/a
441.4425	0.225	882885	keystroke_o	o	n/a
441.6075	0.1795	883215	keystroke_i	i	n/a
441.7425	0.1505	883485	keystroke_n	n	n/a
441.907	0.135	883814	keystroke_t	t	n/a
442.087	0.15	884174	keystroke_Key.space	Key.space	n/a
442.657	0.12	885314	keystroke_p	p	n/a
442.762	0.15	885524	keystroke_o	o	n/a
443.062	0.09	886124	keystroke_t	t	n/a
443.272	0.075	886544	keystroke_t	t	n/a
443.527	0.165	887054	keystroke_e	e	n/a
443.632	0.12	887264	keystroke_r	r	n/a
443.812	0.09	887624	keystroke_y	y	n/a
444.3825	0.135	888765	keystroke_Key.space	Key.space	n/a
444.6675	0.105	889335	keystroke_s	s	n/a
444.8325	0.075	889665	keystroke_e	e	n/a
444.9975	0.09	889995	keystroke_e	e	n/a
445.1475	0.105	890295	keystroke_Key.enter	Key.enter	n/a
445.258	6.611	890516	prompt	n/a	sequence screens though nikon\n
445.8675	0.105	891735	keystroke_s	s	n/a
446.0475	0.135	892095	keystroke_e	e	n/a
446.5275	0.135	893055	keystroke_q	q	n/a
446.6775	0.105	893355	keystroke_u	u	n/a
446.843	0.105	893686	keystroke_e	e	n/a
446.992	0.076	893984	keystroke_n	n	n/a
447.2925	0.075	894585	keystroke_c	c	n/a
447.5325	0.09	895065	keystroke_e	e	n/a
447.6825	0.12	895365	keystroke_Key.space	Key.space	n/a
448.2675	0.075	896535	keystroke_s	s	n/a
448.4775	0.075	896955	keystroke_c	c	n/a
448.7025	0.12	897405	keystroke_r	r	n/a
448.7925	0.105	897585	keystroke_e	e	n/a
449.0025	0.075	898005	keystroke_e	e	n/a
449.1525	0.105	898305	keystroke_n	n	n/a
449.2725	0.09	898545	keystroke_s	s	n/a
449.407	0.105	898814	keystroke_Key.space	Key.space	n/a
449.572	0.105	899144	keystroke_t	t	n/a
449.692	0.075	899384	keystroke_h	h	n/a
449.827	0.105	899654	keystroke_o	o	n/a
449.917	0.075	899834	keystroke_u	u	n/a
450.052	0.075	900104	keystroke_g	g	n/a
450.187	0.0905	900374	keystroke_h	h	n/a
450.2925	0.12	900585	keystroke_Key.space	Key.space	n/a
450.5925	0.12	901185	keystroke_n	n	n/a
450.7125	0.105	901425	keystroke_i	i	n/a
450.968	0.134	901936	keystroke_k	k	n/a
451.297	0.15	902594	keystroke_o	o	n/a
451.433	0.134	902866	keystroke_n	n	n/a
451.777	0.09	903554	keystroke_Key.enter	Key.enter	n/a
451.873	7.526	903746	prompt	n/a	broadway burst deviation alto\n
452.602	0.045	905204	keystroke_b	b	n/a
452.767	0.0755	905534	keystroke_r	r	n/a
452.8865	0.0905	905773	keystroke_o	o	n/a
452.992	0.15	905984	keystroke_a	a	n/a
453.202	0.06	906404	keystroke_d	d	n/a
453.592	0.076	907184	keystroke_w	w	n/a
453.772	0.135	907544	keystroke_a	a	n/a
453.952	0.075	907904	keystroke_y	y	n/a
454.477	0.09	908954	keystroke_Key.space	Key.space	n/a
454.6725	0.075	909345	keystroke_b	b	n/a
454.8675	0.075	909735	keystroke_u	u	n/a
455.093	0.089	910186	keystroke_r	r	n/a
455.318	0.119	910636	keystroke_s	s	n/a
455.6625	0.1045	911325	keystroke_t	t	n/a
455.857	0.075	911714	keystroke_Key.space	Key.space	n/a
456.2775	0.045	912555	keystroke_d	d	n/a
456.4425	0.06	912885	keystroke_e	e	n/a
456.5925	0.105	913185	keystroke_v	v	n/a
456.7275	0.075	913455	keystroke_i	i	n/a
456.8325	0.135	913665	keystroke_a	a	n/a
456.9525	0.105	913905	keystroke_t	t	n/a
457.1025	0.255	914205	keystroke_i	i	n/a
457.2225	0.15	914445	keystroke_o	o	n/a
457.3275	0.1495	914655	keystroke_n	n	n/a
457.4325	0.1195	914865	keystroke_Key.space	Key.space	n/a
457.567	0.135	915134	keystroke_a	a	n/a
457.7175	0.1195	915435	keystroke_l	l	n/a
457.882	0.12	915764	keystroke_t	t	n/a
458.092	0.12	916184	keystroke_o	o	n/a
459.277	0.12	918554	keystroke_Key.enter	Key.enter	n/a
459.4025	7.5565	918805	prompt	n/a	compressed seats cycling savannah\n
460.012	0.135	920024	keystroke_c	c	n/a
460.102	0.18	920204	keystroke_o	o	n/a
460.237	0.135	920474	keystroke_m	m	n/a
460.327	0.09	920654	keystroke_p	p	n/a
460.4475	0.135	920895	keystroke_r	r	n/a
460.5075	0.15	921015	keystroke_e	e	n/a
460.5975	0.105	921195	keystroke_s	s	n/a
460.8075	0.075	921615	keystroke_s	s	n/a
461.0025	0.06	922005	keystroke_e	e	n/a
461.2125	0.075	922425	keystroke_d	d	n/a
461.3325	0.135	922665	keystroke_Key.space	Key.space	n/a
461.5125	0.165	923025	keystroke_s	s	n/a
461.6625	0.15	923325	keystroke_e	e	n/a
461.7825	0.195	923565	keystroke_a	a	n/a
461.9625	0.105	923925	keystroke_t	t	n/a
462.1875	0.1045	924375	keystroke_s	s	n/a
462.337	0.12	924674	keystroke_Key.space	Key.space	n/a
463.3275	0.075	926655	keystroke_c	c	n/a
463.5975	0.06	927195	keystroke_y	y	n/a
463.7175	0.06	927435	keystroke_c	c	n/a
463.9275	0.09	927855	keystroke_l	l	n/a
464.1375	0.135	928275	keystroke_i	i	n/a
464.2425	0.12	928485	keystroke_n	n	n/a
464.3775	0.12	928755	keystroke_g	g	n/a
464.4825	0.135	928965	keystroke_Key.space	Key.space	n/a
464.7075	0.075	929415	keystroke_s	s	n/a
465.0975	0.12	930195	keystroke_a	a	n/a
465.2325	0.105	930465	keystroke_v	v	n/a
465.4425	0.12	930885	keystroke_a	a	n/a
465.9975	0.09	931995	keystroke_n	n	n/a
466.1925	0.0895	932385	keystroke_n	n	n/a
466.327	0.135	932654	keystroke_a	a	n/a
466.507	0.075	933014	keystroke_h	h	n/a
466.882	0.075	933764	keystroke_Key.enter	Key.enter	n/a
466.967	9.622	933934	prompt	n/a	laptop remarkable trash inherited\n
467.752	0.016	935504	keystroke_l	l	n/a
467.783	0.029	935566	keystroke_a	a	n/a
467.9775	0.075	935955	keystroke_p	p	n/a
468.2025	0.075	936405	keystroke_t	t	n/a
468.3975	0.15	936795	keystroke_o	o	n/a
468.5325	0.135	937065	keystroke_p	p	n/a
469.042	0.1055	938084	keystroke_Key.space	Key.space	n/a
469.3875	0.1195	938775	keystroke_r	r	n/a
469.477	0.12	938954	keystroke_e	e	n/a
469.747	0.105	939494	keystroke_m	m	n/a
469.867	0.15	939734	keystroke_a	a	n/a
469.943	0.119	939886	keystroke_r	r	n/a
470.137	0.135	940274	keystroke_k	k	n/a
470.2875	0.12	940575	keystroke_e	e	n/a
470.9015	0.075	941803	keystroke_Key.backspace	Key.backspace	n/a
471.0675	0.15	942135	keystroke_a	a	n/a
471.2475	0.0905	942495	keystroke_b	b	n/a
471.397	0.121	942794	keystroke_l	l	n/a
471.547	0.105	943094	keystroke_e	e	n/a
471.667	0.105	943334	keystroke_Key.space	Key.space	n/a
472.463	0.059	944926	keystroke_t	t	n/a
472.627	0.1055	945254	keystroke_r	r	n/a
472.7475	0.165	945495	keystroke_a	a	n/a
473.4375	0.09	946875	keystroke_s	s	n/a
473.5725	0.09	947145	keystroke_h	h	n/a
473.7375	0.09	947475	keystroke_Key.space	Key.space	n/a
474.352	0.09	948704	keystroke_i	i	n/a
474.457	0.105	948914	keystroke_n	n	n/a
474.712	0.075	949424	keystroke_h	h	n/a
474.832	0.151	949664	keystroke_e	e	n/a
474.937	0.105	949874	keystroke_r	r	n/a
475.072	0.106	950144	keystroke_i	i	n/a
475.252	0.075	950504	keystroke_t	t	n/a
475.387	0.09	950774	keystroke_e	e	n/a
475.597	0.09	951194	keystroke_d	d	n/a
476.4975	0.09	952995	keystroke_Key.enter	Key.enter	n/a
476.5925	7.5865	953185	prompt	n/a	who'll chapters badge href\n
477.3075	0.105	954615	keystroke_w	w	n/a
477.4425	0.105	954885	keystroke_h	h	n/a
477.5625	0.12	955125	keystroke_o	o	n/a
478.0125	0.03	956025	keystroke_'	'	n/a
478.537	0.12	957074	keystroke_l	l	n/a
478.732	0.105	957464	keystroke_l	l	n/a
479.227	0.1055	958454	keystroke_Key.space	Key.space	n/a
479.632	0.06	959264	keystroke_c	c	n/a
479.738	0.059	959476	keystroke_h	h	n/a
479.827	0.166	959654	keystroke_a	a	n/a
480.038	0.075	960076	keystroke_p	p	n/a
480.187	0.121	960374	keystroke_t	t	n/a
480.427	0.271	960854	keystroke_e	e	n/a
480.503	0.18	961006	keystroke_r	r	n/a
480.637	0.151	961274	keystroke_s	s	n/a
480.772	0.106	961544	keystroke_Key.space	Key.space	n/a
481.027	0.06	962054	keystroke_b	b	n/a
481.117	0.226	962234	keystroke_a	a	n/a
481.297	0.105	962594	keystroke_d	d	n/a
481.552	0.105	963104	keystroke_e	e	n/a
481.972	0.09	963944	keystroke_Key.backspace	Key.backspace	n/a
482.122	0.105	964244	keystroke_g	g	n/a
482.242	0.06	964484	keystroke_e	e	n/a
482.392	0.105	964784	keystroke_Key.space	Key.space	n/a
483.1875	0.075	966375	keystroke_h	h	n/a
483.5025	0.09	967005	keystroke_r	r	n/a
483.697	0.09	967394	keystroke_e	e	n/a
483.863	0.09	967726	keystroke_f	f	n/a
484.0875	0.0895	968175	keystroke_Key.enter	Key.enter	n/a
484.183	8.7115	968366	prompt	n/a	ontario dietary antenna ebay\n
484.882	0.106	969764	keystroke_o	o	n/a
485.032	0.15	970064	keystroke_n	n	n/a
485.167	0.09	970334	keystroke_t	t	n/a
485.332	0.165	970664	keystroke_a	a	n/a
485.453	0.1045	970906	keystroke_r	r	n/a
485.6625	0.09	971325	keystroke_i	i	n/a
485.8425	0.12	971685	keystroke_o	o	n/a
486.0065	0.106	972013	keystroke_Key.space	Key.space	n/a
486.292	0.1355	972584	keystroke_d	d	n/a
486.5175	0.105	973035	keystroke_i	i	n/a
486.6075	0.165	973215	keystroke_e	e	n/a
486.7575	0.105	973515	keystroke_t	t	n/a
486.9825	0.075	973965	keystroke_r	r	n/a
487.4175	0.105	974835	keystroke_Key.backspace	Key.backspace	n/a
488.6765	0.1655	977353	keystroke_a	a	n/a
488.812	0.1055	977624	keystroke_r	r	n/a
488.992	0.0755	977984	keystroke_y	y	n/a
489.4725	0.0895	978945	keystroke_Key.space	Key.space	n/a
489.758	0.149	979516	keystroke_a	a	n/a
489.862	0.12	979724	keystroke_n	n	n/a
489.997	0.09	979994	keystroke_t	t	n/a
490.117	0.106	980234	keystroke_e	e	n/a
490.3275	0.09	980655	keystroke_n	n	n/a
490.5375	0.075	981075	keystroke_n	n	n/a
490.8975	0.135	981795	keystroke_a	a	n/a
491.1375	0.09	982275	keystroke_Key.space	Key.space	n/a
491.4525	0.075	982905	keystroke_e	e	n/a
491.6625	0.075	983325	keystroke_b	b	n/a
491.827	0.165	983654	keystroke_a	a	n/a
492.472	0.075	984944	keystroke_y	y	n/a
492.802	0.09	985604	keystroke_Key.enter	Key.enter	n/a
492.899	11.156	985798	prompt	n/a	service tunisia chairman turns\n
493.657	0.075	987314	keystroke_s	s	n/a
493.837	0.12	987674	keystroke_e	e	n/a
493.912	0.09	987824	keystroke_r	r	n/a
494.137	0.075	988274	keystroke_v	v	n/a
494.243	0.09	988486	keystroke_i	i	n/a
494.392	0.06	988784	keystroke_c	c	n/a
494.602	0.075	989204	keystroke_e	e	n/a
494.692	0.09	989384	keystroke_Key.space	Key.space	n/a
494.947	0.09	989894	keystroke_t	t	n/a
495.097	0.076	990194	keystroke_u	u	n/a
495.322	0.15	990644	keystroke_n	n	n/a
495.458	0.104	990916	keystroke_i	i	n/a
495.712	0.09	991424	keystroke_s	s	n/a
495.9525	0.09	991905	keystroke_i	i	n/a
496.1025	0.12	992205	keystroke_a	a	n/a
496.6575	0.09	993315	keystroke_Key.space	Key.space	n/a
498.127	0.075	996254	keystroke_c	c	n/a
498.247	0.06	996494	keystroke_h	h	n/a
498.308	0.24	996616	keystroke_a	a	n/a
498.6375	0.105	997275	keystroke_i	i	n/a
498.8025	0.09	997605	keystroke_r	r	n/a
498.9375	0.105	997875	keystroke_m	m	n/a
499.1775	0.135	998355	keystroke_a	a	n/a
499.3275	0.09	998655	keystroke_n	n	n/a
499.3575	0.03	998715	keystroke_Key.space	Key.space	n/a
499.4475	0.105	998895	keystroke_Key.space	Key.space	n/a
499.7475	0.09	999495	keystroke_t	t	n/a
499.987	0.075	999974	keystroke_u	u	n/a
500.107	0.09	1000214	keystroke_r	r	n/a
500.257	0.105	1000514	keystroke_n	n	n/a
500.437	0.075	1000874	keystroke_s	s	n/a
501.157	0.075	1002314	keystroke_Key.backspace	Key.backspace	n/a
501.337	0.06	1002674	keystroke_Key.backspace	Key.backspace	n/a
501.472	0.075	1002944	keystroke_Key.backspace	Key.backspace	n/a
501.637	0.06	1003274	keystroke_Key.backspace	Key.backspace	n/a
501.787	0.09	1003574	keystroke_Key.backspace	Key.backspace	n/a
502.282	0.09	1004564	keystroke_Key.backspace	Key.backspace	n/a
502.972	0.061	1005944	keystroke_t	t	n/a
503.152	0.075	1006304	keystroke_u	u	n/a
503.3025	0.075	1006605	keystroke_r	r	n/a
503.3925	0.09	1006785	keystroke_n	n	n/a
503.5425	0.075	1007085	keystroke_s	s	n/a
503.9625	0.09	1007925	keystroke_Key.enter	Key.enter	n/a
504.0585	7.391	1008117	prompt	n/a	thanksgiving weblog collar jokes\n
504.9075	0.075	1009815	keystroke_t	t	n/a
504.9975	0.075	1009995	keystroke_h	h	n/a
505.0875	0.105	1010175	keystroke_a	a	n/a
505.2075	0.12	1010415	keystroke_n	n	n/a
505.5975	0.12	1011195	keystroke_k	k	n/a
505.8075	0.09	1011615	keystroke_s	s	n/a
506.2125	0.0895	1012425	keystroke_g	g	n/a
506.347	0.075	1012694	keystroke_i	i	n/a
506.452	0.0595	1012904	keystroke_v	v	n/a
506.5565	0.121	1013113	keystroke_i	i	n/a
506.6465	0.121	1013293	keystroke_n	n	n/a
506.8275	0.105	1013655	keystroke_g	g	n/a
506.9775	0.09	1013955	keystroke_Key.space	Key.space	n/a
507.4875	0.09	1014975	keystroke_w	w	n/a
507.637	0.09	1015274	keystroke_e	e	n/a
507.907	0.06	1015814	keystroke_b	b	n/a
508.1775	0.075	1016355	keystroke_l	l	n/a
508.3875	0.105	1016775	keystroke_o	o	n/a
508.5525	0.09	1017105	keystroke_g	g	n/a
508.717	0.09	1017434	keystroke_Key.space	Key.space	n/a
509.002	0.075	1018004	keystroke_c	c	n/a
509.092	0.09	1018184	keystroke_o	o	n/a
509.302	0.075	1018604	keystroke_l	l	n/a
509.452	0.105	1018904	keystroke_l	l	n/a
509.512	0.165	1019024	keystroke_a	a	n/a
509.632	0.12	1019264	keystroke_r	r	n/a
509.767	0.09	1019534	keystroke_Key.space	Key.space	n/a
509.962	0.12	1019924	keystroke_j	j	n/a
510.202	0.106	1020404	keystroke_o	o	n/a
510.472	0.105	1020944	keystroke_k	k	n/a
510.592	0.165	1021184	keystroke_e	e	n/a
510.712	0.105	1021424	keystroke_s	s	n/a
511.3575	0.09	1022715	keystroke_Key.enter	Key.enter	n/a
511.453	6.0565	1022906	prompt	n/a	seem contracts party dangerous\n
512.0625	0.09	1024125	keystroke_s	s	n/a
512.1975	0.09	1024395	keystroke_e	e	n/a
512.3925	0.075	1024785	keystroke_e	e	n/a
512.5275	0.09	1025055	keystroke_m	m	n/a
512.6475	0.09	1025295	keystroke_Key.space	Key.space	n/a
512.872	0.075	1025744	keystroke_c	c	n/a
513.067	0.135	1026134	keystroke_o	o	n/a
513.157	0.1505	1026314	keystroke_n	n	n/a
513.247	0.0895	1026494	keystroke_t	t	n/a
513.4125	0.119	1026825	keystroke_r	r	n/a
513.5325	0.1345	1027065	keystroke_a	a	n/a
513.788	0.059	1027576	keystroke_c	c	n/a
514.042	0.09	1028084	keystroke_t	t	n/a
514.5525	0.1045	1029105	keystroke_s	s	n/a
514.7775	0.1045	1029555	keystroke_Key.space	Key.space	n/a
515.0475	0.1045	1030095	keystroke_p	p	n/a
515.1375	0.15	1030275	keystroke_a	a	n/a
515.2275	0.075	1030455	keystroke_r	r	n/a
515.4075	0.105	1030815	keystroke_t	t	n/a
515.587	0.0755	1031174	keystroke_y	y	n/a
515.677	0.0905	1031354	keystroke_Key.space	Key.space	n/a
515.8875	0.075	1031775	keystroke_d	d	n/a
516.0375	0.1495	1032075	keystroke_a	a	n/a
516.262	0.1205	1032524	keystroke_n	n	n/a
516.4125	0.0745	1032825	keystroke_g	g	n/a
516.547	0.15	1033094	keystroke_e	e	n/a
516.652	0.12	1033304	keystroke_r	r	n/a
516.907	0.12	1033814	keystroke_o	o	n/a
516.997	0.12	1033994	keystroke_u	u	n/a
517.207	0.09	1034414	keystroke_s	s	n/a
517.417	0.09	1034834	keystroke_Key.enter	Key.enter	n/a
517.514	6.58	1035028	prompt	n/a	dell adults chemicals months\n
518.242	0.045	1036484	keystroke_d	d	n/a
518.407	0.09	1036814	keystroke_e	e	n/a
518.542	0.09	1037084	keystroke_l	l	n/a
518.737	0.12	1037474	keystroke_l	l	n/a
518.842	0.12	1037684	keystroke_Key.space	Key.space	n/a
518.992	0.15	1037984	keystroke_a	a	n/a
519.113	0.104	1038226	keystroke_d	d	n/a
519.2925	0.09	1038585	keystroke_u	u	n/a
519.4875	0.119	1038975	keystroke_l	l	n/a
519.6675	0.059	1039335	keystroke_t	t	n/a
519.8775	0.075	1039755	keystroke_s	s	n/a
519.9825	0.09	1039965	keystroke_Key.space	Key.space	n/a
520.1775	0.075	1040355	keystroke_c	c	n/a
520.3125	0.075	1040625	keystroke_h	h	n/a
520.4175	0.09	1040835	keystroke_e	e	n/a
520.5825	0.165	1041165	keystroke_m	m	n/a
520.7175	0.12	1041435	keystroke_i	i	n/a
520.9725	0.06	1041945	keystroke_c	c	n/a
521.1375	0.135	1042275	keystroke_a	a	n/a
521.3625	0.09	1042725	keystroke_l	l	n/a
521.5125	0.09	1043025	keystroke_s	s	n/a
521.6025	0.105	1043205	keystroke_Key.space	Key.space	n/a
521.8425	0.135	1043685	keystroke_m	m	n/a
521.9925	0.12	1043985	keystroke_o	o	n/a
522.2025	0.06	1044405	keystroke_t	t	n/a
522.2025	0.0895	1044405	keystroke_n	n	n/a
522.787	0.075	1045574	keystroke_Key.backspace	Key.backspace	n/a
522.952	0.075	1045904	keystroke_Key.backspace	Key.backspace	n/a
523.117	0.09	1046234	keystroke_n	n	n/a
523.237	0.09	1046474	keystroke_t	t	n/a
523.342	0.09	1046684	keystroke_h	h	n/a
523.717	0.075	1047434	keystroke_s	s	n/a
524.002	0.03	1048004	keystroke_Key.shift_r	Key.shift_r	n/a
524.017	0.075	1048034	keystroke_Key.enter	Key.enter	n/a
524.0965	8.967	1048193	prompt	n/a	institutes applicant naked attachments\n
524.767	0.105	1049534	keystroke_i	i	n/a
524.857	0.105	1049714	keystroke_n	n	n/a
525.022	0.12	1050044	keystroke_s	s	n/a
525.202	0.105	1050404	keystroke_t	t	n/a
525.397	0.09	1050794	keystroke_i	i	n/a
525.517	0.12	1051034	keystroke_t	t	n/a
525.653	0.104	1051306	keystroke_u	u	n/a
525.772	0.15	1051544	keystroke_t	t	n/a
525.877	0.15	1051754	keystroke_e	e	n/a
525.982	0.105	1051964	keystroke_s	s	n/a
526.147	0.105	1052294	keystroke_Key.space	Key.space	n/a
526.3425	0.12	1052685	keystroke_a	a	n/a
526.4775	0.09	1052955	keystroke_p	p	n/a
526.6725	0.075	1053345	keystroke_p	p	n/a
526.8525	0.15	1053705	keystroke_l	l	n/a
526.9725	0.12	1053945	keystroke_i	i	n/a
527.1075	0.09	1054215	keystroke_c	c	n/a
527.2125	0.1495	1054425	keystroke_a	a	n/a
527.422	0.12	1054844	keystroke_n	n	n/a
527.572	0.105	1055144	keystroke_t	t	n/a
527.752	0.09	1055504	keystroke_Key.space	Key.space	n/a
528.502	0.075	1057004	keystroke_f	f	n/a
528.8175	0.105	1057635	keystroke_Key.backspace	Key.backspace	n/a
529.0575	0.09	1058115	keystroke_n	n	n/a
529.1925	0.15	1058385	keystroke_a	a	n/a
529.4325	0.105	1058865	keystroke_k	k	n/a
529.5515	0.076	1059103	keystroke_e	e	n/a
529.7475	0.015	1059495	keystroke_e	e	n/a
530.4225	0.0895	1060845	keystroke_Key.backspace	Key.backspace	n/a
530.5875	0.0745	1061175	keystroke_d	d	n/a
530.722	0.105	1061444	keystroke_Key.space	Key.space	n/a
530.932	0.18	1061864	keystroke_a	a	n/a
531.097	0.06	1062194	keystroke_t	t	n/a
531.232	0.09	1062464	keystroke_t	t	n/a
531.382	0.12	1062764	keystroke_a	a	n/a
531.562	0.09	1063124	keystroke_c	c	n/a
531.697	0.06	1063394	keystroke_h	h	n/a
531.892	0.075	1063784	keystroke_m	m	n/a
531.982	0.1205	1063964	keystroke_e	e	n/a
532.1325	0.075	1064265	keystroke_n	n	n/a
532.2375	0.0895	1064475	keystroke_t	t	n/a
532.432	0.105	1064864	keystroke_s	s	n/a
532.9715	0.09	1065943	keystroke_Key.enter	Key.enter	n/a
533.0675	7.301	1066135	prompt	n/a	compliant remain no similarly\n
533.8415	0.075	1067683	keystroke_c	c	n/a
534.0365	0.12	1068073	keystroke_o	o	n/a
534.2915	0.151	1068583	keystroke_m	m	n/a
534.5325	0.119	1069065	keystroke_p	p	n/a
534.7415	0.12	1069483	keystroke_l	l	n/a
534.9665	0.105	1069933	keystroke_i	i	n/a
535.1025	0.134	1070205	keystroke_a	a	n/a
535.2965	0.12	1070593	keystroke_n	n	n/a
535.5815	0.09	1071163	keystroke_t	t	n/a
535.8215	0.105	1071643	keystroke_Key.space	Key.space	n/a
536.0465	0.091	1072093	keystroke_r	r	n/a
536.0915	0.1205	1072183	keystroke_e	e	n/a
536.2715	0.15	1072543	keystroke_m	m	n/a
536.3915	0.15	1072783	keystroke_a	a	n/a
536.5265	0.15	1073053	keystroke_i	i	n/a
536.6925	0.105	1073385	keystroke_n	n	n/a
536.8115	0.105	1073623	keystroke_Key.space	Key.space	n/a
537.0375	0.12	1074075	keystroke_n	n	n/a
537.1575	0.12	1074315	keystroke_o	o	n/a
537.3065	0.105	1074613	keystroke_Key.space	Key.space	n/a
538.0115	0.091	1076023	keystroke_s	s	n/a
538.207	0.105	1076414	keystroke_i	i	n/a
538.3865	0.1205	1076773	keystroke_m	m	n/a
538.9425	0.105	1077885	keystroke_i	i	n/a
539.1675	0.104	1078335	keystroke_l	l	n/a
539.2865	0.166	1078573	keystroke_a	a	n/a
539.4075	0.0895	1078815	keystroke_r	r	n/a
539.7065	0.18	1079413	keystroke_l	l	n/a
540.0065	0.105	1080013	keystroke_y	y	n/a
540.2475	0.1195	1080495	keystroke_Key.enter	Key.enter	n/a
540.3725	7.466	1080745	prompt	n/a	google ratios steven psychology\n
541.0565	0.076	1082113	keystroke_g	g	n/a
541.297	0.09	1082594	keystroke_o	o	n/a
541.4775	0.1045	1082955	keystroke_o	o	n/a
541.627	0.09	1083254	keystroke_g	g	n/a
541.7475	0.105	1083495	keystroke_l	l	n/a
541.8675	0.09	1083735	keystroke_e	e	n/a
541.9865	0.121	1083973	keystroke_Key.space	Key.space	n/a
542.1825	0.089	1084365	keystroke_r	r	n/a
542.3315	0.166	1084663	keystroke_a	a	n/a
542.5125	0.089	1085025	keystroke_t	t	n/a
542.7215	0.09	1085443	keystroke_i	i	n/a
542.9475	0.074	1085895	keystroke_o	o	n/a
543.1115	0.121	1086223	keystroke_s	s	n/a
543.2465	0.105	1086493	keystroke_Key.space	Key.space	n/a
543.4115	0.166	1086823	keystroke_s	s	n/a
543.5615	0.075	1087123	keystroke_t	t	n/a
543.6815	0.09	1087363	keystroke_e	e	n/a
543.922	0.075	1087844	keystroke_v	v	n/a
544.057	0.105	1088114	keystroke_e	e	n/a
544.2825	0.075	1088565	keystroke_n	n	n/a
544.4025	0.074	1088805	keystroke_Key.space	Key.space	n/a
544.7015	0.105	1089403	keystroke_p	p	n/a
544.972	0.09	1089944	keystroke_s	s	n/a
545.152	0.09	1090304	keystroke_y	y	n/a
545.497	0.075	1090994	keystroke_c	c	n/a
545.617	0.09	1091234	keystroke_h	h	n/a
545.812	0.105	1091624	keystroke_o	o	n/a
546.202	0.12	1092404	keystroke_l	l	n/a
546.472	0.105	1092944	keystroke_o	o	n/a
546.607	0.09	1093214	keystroke_g	g	n/a
546.772	0.09	1093544	keystroke_y	y	n/a
547.8075	0.03	1095615	keystroke_Key.enter	Key.enter	n/a
547.8415	7.287	1095683	prompt	n/a	target horn evans increase\n
548.422	0.09	1096844	keystroke_t	t	n/a
548.542	0.165	1097084	keystroke_a	a	n/a
548.662	0.09	1097324	keystroke_r	r	n/a
548.932	0.075	1097864	keystroke_g	g	n/a
549.022	0.15	1098044	keystroke_e	e	n/a
549.202	0.12	1098404	keystroke_t	t	n/a
549.352	0.09	1098704	keystroke_Key.space	Key.space	n/a
549.577	0.0745	1099154	keystroke_h	h	n/a
549.7115	0.091	1099423	keystroke_o	o	n/a
549.8175	0.089	1099635	keystroke_r	r	n/a
549.9525	0.135	1099905	keystroke_n	n	n/a
550.0715	0.106	1100143	keystroke_Key.space	Key.space	n/a
550.297	0.075	1100594	keystroke_e	e	n/a
