onset	duration	sample	value	key	prompt_text
19.7115	10.57	39423	prompt	n/a	the quick brown fox jumps over a lazy dog\n
21.6125	0.0265	43225	keystroke_t	t	n/a
21.744	0.135	43488	keystroke_h	h	n/a
21.894	0.09	43788	keystroke_e	e	n/a
22.029	0.1495	44058	keystroke_Key.space	Key.space	n/a
22.194	0.1205	44388	keystroke_q	q	n/a
22.3445	0.165	44689	keystroke_u	u	n/a
22.4645	0.15	44929	keystroke_i	i	n/a
22.9295	0.06	45859	keystroke_k	k	n/a
23.364	0.105	46728	keystroke_Key.backspace	Key.backspace	n/a
23.574	0.09	47148	keystroke_c	c	n/a
23.7995	0.12	47599	keystroke_k	k	n/a
23.9795	0.1045	47959	keystroke_Key.space	Key.space	n/a
24.204	0.12	48408	keystroke_b	b	n/a
24.354	0.03	48708	keystroke_r	r	n/a
24.489	0.135	48978	keystroke_o	o	n/a
25.3135	0.12	50627	keystroke_w	w	n/a
25.4485	0.135	50897	keystroke_n	n	n/a
25.5985	0.1205	51197	keystroke_Key.space	Key.space	n/a
26.0045	0.09	52009	keystroke_f	f	n/a
26.1545	0.135	52309	keystroke_o	o	n/a
26.3345	0.09	52669	keystroke_x	x	n/a
26.4845	0.105	52969	keystroke_Key.space	Key.space	n/a
26.6495	0.1045	53299	keystroke_j	j	n/a
26.859	0.09	53718	keystroke_u	u	n/a
27.099	0.135	54198	keystroke_m	m	n/a
27.369	0.135	54738	keystroke_p	p	n/a
27.489	0.135	54978	keystroke_s	s	n/a
27.609	0.12	55218	keystroke_Key.space	Key.space	n/a
27.744	0.135	55488	keystroke_o	o	n/a
27.834	0.105	55668	keystroke_v	v	n/a
28.044	0.15	56088	keystroke_e	e	n/a
28.149	0.12	56298	keystroke_r	r	n/a
28.284	0.12	56568	keystroke_Key.space	Key.space	n/a
28.479	0.09	56958	keystroke_a	a	n/a
28.584	0.1195	57168	keystroke_Key.space	Key.space	n/a
28.7485	0.15	57497	keystroke_l	l	n/a
28.869	0.0595	57738	keystroke_a	a	n/a
29.0785	0.105	58157	keystroke_z	z	n/a
29.3635	0.1205	58727	keystroke_y	y	n/a
29.559	0.1205	59118	keystroke_Key.space	Key.space	n/a
29.6945	0.135	59389	keystroke_d	d	n/a
29.8445	0.105	59689	keystroke_o	o	n/a
29.9645	0.1195	59929	keystroke_g	g	n/a
30.189	0.09	60378	keystroke_Key.enter	Key.enter	n/a
30.285	5.936	60570	prompt	n/a	bread business tears gods\n
31.089	0.135	62178	keystroke_b	b	n/a
31.209	0.105	62418	keystroke_r	r	n/a
31.284	0.105	62568	keystroke_e	e	n/a
31.554	0.105	63108	keystroke_a	a	n/a
31.674	0.105	63348	keystroke_d	d	n/a
31.824	0.12	63648	keystroke_Key.space	Key.space	n/a
31.974	0.165	63948	keystroke_b	b	n/a
32.1995	0.045	64399	keystroke_s	s	n/a
32.6345	0.075	65269	keystroke_Key.backspace	Key.backspace	n/a
32.9495	0.135	65899	keystroke_u	u	n/a
33.1745	0.06	66349	keystroke_s	s	n/a
33.2795	0.135	66559	keystroke_i	i	n/a
33.3995	0.15	66799	keystroke_n	n	n/a
33.5345	0.1345	67069	keystroke_e	e	n/a
33.714	0.06	67428	keystroke_s	s	n/a
33.879	0.09	67758	keystroke_s	s	n/a
33.999	0.135	67998	keystroke_Key.space	Key.space	n/a
34.1045	0.1045	68209	keystroke_t	t	n/a
34.194	0.09	68388	keystroke_e	e	n/a
34.434	0.12	68868	keystroke_a	a	n/a
34.509	0.12	69018	keystroke_r	r	n/a
34.704	0.15	69408	keystroke_s	s	n/a
34.929	0.1205	69858	keystroke_Key.space	Key.space	n/a
35.0635	0.09	70127	keystroke_g	g	n/a
35.2135	0.09	70427	keystroke_o	o	n/a
35.3185	0.12	70637	keystroke_d	d	n/a
35.7685	0.075	71537	keystroke_s	s	n/a
36.129	0.0905	72258	keystroke_Key.enter	Key.enter	n/a
36.224	7.332	72448	prompt	n/a	sage shakespeare blowing gonna\n
36.864	0.0755	73728	keystroke_s	s	n/a
37.0595	0.0895	74119	keystroke_a	a	n/a
37.269	0.12	74538	keystroke_g	g	n/a
37.434	0.06	74868	keystroke_e	e	n/a
37.749	0.135	75498	keystroke_Key.space	Key.space	n/a
38.079	0.09	76158	keystroke_s	s	n/a
38.229	0.12	76458	keystroke_h	h	n/a
38.409	0.105	76818	keystroke_a	a	n/a
38.529	0.135	77058	keystroke_k	k	n/a
38.649	0.09	77298	keystroke_e	e	n/a
38.964	0.09	77928	keystroke_s	s	n/a
39.909	0.09	79818	keystroke_p	p	n/a
40.059	0.09	80118	keystroke_e	e	n/a
40.284	0.12	80568	keystroke_a	a	n/a
40.524	0.15	81048	keystroke_r	r	n/a
40.689	0.105	81378	keystroke_e	e	n/a
40.854	0.1205	81708	keystroke_Key.space	Key.space	n/a
41.0795	0.105	82159	keystroke_b	b	n/a
41.3345	0.15	82669	keystroke_l	l	n/a
41.4695	0.1345	82939	keystroke_o	o	n/a
41.5745	0.0895	83149	keystroke_w	w	n/a
42.009	0.12	84018	keystroke_i	i	n/a
42.099	0.195	84198	keystroke_n	n	n/a
42.219	0.09	84438	keystroke_g	g	n/a
42.324	0.15	84648	keystroke_Key.space	Key.space	n/a
42.504	0.105	85008	keystroke_g	g	n/a
42.654	0.135	85308	keystroke_o	o	n/a
42.774	0.105	85548	keystroke_n	n	n/a
42.969	0.105	85938	keystroke_n	n	n/a
43.179	0.105	86358	keystroke_a	a	n/a
43.449	0.105	86898	keystroke_Key.enter	Key.enter	n/a
43.559	10.6915	87118	prompt	n/a	respiratory they're leaving grenada\n
44.214	0.12	88428	keystroke_r	r	n/a
44.334	0.18	88668	keystroke_e	e	n/a
44.589	0.12	89178	keystroke_s	s	n/a
45.01	0.0895	90020	keystroke_p	p	n/a
45.3545	0.135	90709	keystroke_i	i	n/a
45.5345	0.105	91069	keystroke_r	r	n/a
45.8045	0.09	91609	keystroke_a	a	n/a
45.9995	0.09	91999	keystroke_t	t	n/a
46.1045	0.12	92209	keystroke_o	o	n/a
46.2395	0.075	92479	keystroke_r	r	n/a
46.4345	0.105	92869	keystroke_y	y	n/a
46.5695	0.135	93139	keystroke_Key.space	Key.space	n/a
46.9295	0.135	93859	keystroke_t	t	n/a
47.1245	0.1345	94249	keystroke_h	h	n/a
47.244	0.09	94488	keystroke_e	e	n/a
47.409	0.135	94818	keystroke_y	y	n/a
50.006	0.013	100012	keystroke_'	'	n/a
50.244	0.12	100488	keystroke_r	r	n/a
50.5895	0.09	101179	keystroke_e	e	n/a
50.844	0.12	101688	keystroke_Key.space	Key.space	n/a
51.114	0.1655	102228	keystroke_l	l	n/a
51.204	0.0905	102408	keystroke_e	e	n/a
51.4295	0.09	102859	keystroke_a	a	n/a
51.6695	0.09	103339	keystroke_v	v	n/a
51.7895	0.12	103579	keystroke_i	i	n/a
51.8795	0.1945	103759	keystroke_n	n	n/a
51.9995	0.0895	103999	keystroke_g	g	n/a
52.104	0.15	104208	keystroke_Key.space	Key.space	n/a
52.299	0.1045	104598	keystroke_g	g	n/a
52.57	0.1045	105140	keystroke_r	r	n/a
52.8395	0.105	105679	keystroke_e	e	n/a
53.3045	0.12	106609	keystroke_n	n	n/a
53.4995	0.09	106999	keystroke_a	a	n/a
53.6495	0.12	107299	keystroke_d	d	n/a
53.9045	0.105	107809	keystroke_a	a	n/a
54.1445	0.105	108289	keystroke_Key.enter	Key.enter	n/a
54.2535	8.0825	108507	prompt	n/a	compilation insured suited happiness\n
54.8795	0.12	109759	keystroke_c	c	n/a
54.9395	0.1495	109879	keystroke_o	o	n/a
55.074	0.135	110148	keystroke_m	m	n/a
55.8095	0.195	111619	keystroke_p	p	n/a
56.379	0.105	112758	keystroke_i	i	n/a
56.604	0.15	113208	keystroke_l	l	n/a
56.694	0.075	113388	keystroke_a	a	n/a
56.874	0.105	113748	keystroke_t	t	n/a
56.964	0.18	113928	keystroke_i	i	n/a
57.084	0.195	114168	keystroke_o	o	n/a
57.204	0.1505	114408	keystroke_n	n	n/a
57.324	0.1505	114648	keystroke_Key.space	Key.space	n/a
57.4445	0.18	114889	keystroke_i	i	n/a
57.5795	0.135	115159	keystroke_n	n	n/a
57.7445	0.135	115489	keystroke_s	s	n/a
57.8645	0.12	115729	keystroke_u	u	n/a
58.0145	0.1195	116029	keystroke_r	r	n/a
58.194	0.106	116388	keystroke_e	e	n/a
58.434	0.09	116868	keystroke_d	d	n/a
58.584	0.1055	117168	keystroke_Key.space	Key.space	n/a
58.7045	0.12	117409	keystroke_s	s	n/a
58.8095	0.135	117619	keystroke_u	u	n/a
58.8995	0.15	117799	keystroke_i	i	n/a
59.0045	0.0745	118009	keystroke_t	t	n/a
59.199	0.06	118398	keystroke_e	e	n/a
59.394	0.06	118788	keystroke_d	d	n/a
59.4695	0.12	118939	keystroke_Key.space	Key.space	n/a
59.6045	0.135	119209	keystroke_h	h	n/a
59.7245	0.12	119449	keystroke_a	a	n/a
59.8595	0.105	119719	keystroke_p	p	n/a
60.0395	0.0745	120079	keystroke_p	p	n/a
60.174	0.09	120348	keystroke_e	e	n/a
60.294	0.135	120588	keystroke_n	n	n/a
60.894	0.09	121788	keystroke_Key.backspace	Key.backspace	n/a
61.059	0.075	122118	keystroke_Key.backspace	Key.backspace	n/a
61.314	0.15	122628	keystroke_i	i	n/a
61.465	0.149	122930	keystroke_n	n	n/a
61.599	0.15	123198	keystroke_e	e	n/a
61.719	0.075	123438	keystroke_s	s	n/a
61.914	0.075	123828	keystroke_s	s	n/a
62.229	0.105	124458	keystroke_Key.enter	Key.enter	n/a
62.3395	6.7165	124679	prompt	n/a	province physical spread allocated\n
63.039	0.12	126078	keystroke_p	p	n/a
63.204	0.09	126408	keystroke_r	r	n/a
63.354	0.105	126708	keystroke_o	o	n/a
63.519	0.105	127038	keystroke_v	v	n/a
63.654	0.09	127308	keystroke_i	i	n/a
63.834	0.12	127668	keystroke_n	n	n/a
64.074	0.1355	128148	keystroke_c	c	n/a
64.1945	0.105	128389	keystroke_e	e	n/a
64.3445	0.1195	128689	keystroke_Key.space	Key.space	n/a
64.494	0.105	128988	keystroke_p	p	n/a
64.719	0.12	129438	keystroke_h	h	n/a
64.824	0.0905	129648	keystroke_y	y	n/a
65.0645	0.135	130129	keystroke_s	s	n/a
65.1695	0.105	130339	keystroke_i	i	n/a
65.3345	0.105	130669	keystroke_c	c	n/a
65.4995	0.105	130999	keystroke_a	a	n/a
65.5895	0.135	131179	keystroke_l	l	n/a
65.7095	0.135	131419	keystroke_Key.space	Key.space	n/a
65.8595	0.075	131719	keystroke_s	s	n/a
65.9795	0.15	131959	keystroke_p	p	n/a
66.144	0.09	132288	keystroke_r	r	n/a
66.5945	0.09	133189	keystroke_e	e	n/a
66.8345	0.135	133669	keystroke_a	a	n/a
66.9545	0.09	133909	keystroke_d	d	n/a
67.0895	0.1195	134179	keystroke_Key.space	Key.space	n/a
67.3895	0.1045	134779	keystroke_a	a	n/a
67.5545	0.09	135109	keystroke_l	l	n/a
67.7195	0.12	135439	keystroke_l	l	n/a
67.8245	0.135	135649	keystroke_o	o	n/a
67.9145	0.12	135829	keystroke_c	c	n/a
68.0495	0.075	136099	keystroke_a	a	n/a
68.2445	0.09	136489	keystroke_t	t	n/a
68.4695	0.09	136939	keystroke_e	e	n/a
68.6945	0.105	137389	keystroke_d	d	n/a
68.9495	0.1045	137899	keystroke_Key.enter	Key.enter	n/a
69.062	7.2985	138124	prompt	n/a	clicks jeans mediawiki contamination\n
69.6845	0.104	139369	keystroke_c	c	n/a
69.8485	0.165	139697	keystroke_l	l	n/a
69.9535	0.12	139907	keystroke_i	i	n/a
70.1335	0.1205	140267	keystroke_c	c	n/a
70.2095	0.1345	140419	keystroke_k	k	n/a
70.404	0.0895	140808	keystroke_s	s	n/a
70.524	0.105	141048	keystroke_Key.space	Key.space	n/a
70.704	0.135	141408	keystroke_j	j	n/a
70.8235	0.0605	141647	keystroke_e	e	n/a
71.0035	0.105	142007	keystroke_a	a	n/a
71.2445	0.09	142489	keystroke_n	n	n/a
71.3485	0.12	142697	keystroke_s	s	n/a
71.5885	0.12	143177	keystroke_Key.space	Key.space	n/a
71.9495	0.12	143899	keystroke_m	m	n/a
72.0545	0.09	144109	keystroke_e	e	n/a
72.3395	0.105	144679	keystroke_d	d	n/a
72.5345	0.12	145069	keystroke_i	i	n/a
72.6845	0.075	145369	keystroke_a	a	n/a
72.9995	0.0745	145999	keystroke_w	w	n/a
73.134	0.075	146268	keystroke_i	i	n/a
73.479	0.09	146958	keystroke_k	k	n/a
73.689	0.135	147378	keystroke_i	i	n/a
73.869	0.1045	147738	keystroke_Key.space	Key.space	n/a
74.0345	0.12	148069	keystroke_c	c	n/a
74.1385	0.165	148277	keystroke_o	o	n/a
74.2735	0.121	148547	keystroke_n	n	n/a
74.4245	0.089	148849	keystroke_t	t	n/a
74.6335	0.135	149267	keystroke_a	a	n/a
74.7835	0.105	149567	keystroke_m	m	n/a
75.234	0.075	150468	keystroke_i	i	n/a
75.339	0.135	150678	keystroke_n	n	n/a
75.489	0.105	150978	keystroke_a	a	n/a
75.67	0.134	151340	keystroke_t	t	n/a
75.774	0.165	151548	keystroke_i	i	n/a
75.879	0.135	151758	keystroke_o	o	n/a
75.954	0.135	151908	keystroke_n	n	n/a
76.284	0.075	152568	keystroke_Key.enter	Key.enter	n/a
76.3675	5.708	152735	prompt	n/a	create adrian clinton miniature\n
76.9735	0.0755	153947	keystroke_c	c	n/a
77.229	0.12	154458	keystroke_r	r	n/a
77.289	0.09	154578	keystroke_e	e	n/a
77.529	0.09	155058	keystroke_a	a	n/a
77.664	0.12	155328	keystroke_t	t	n/a
77.769	0.135	155538	keystroke_e	e	n/a
78.009	0.12	156018	keystroke_Key.space	Key.space	n/a
78.099	0.12	156198	keystroke_a	a	n/a
78.22	0.104	156440	keystroke_d	d	n/a
78.444	0.1055	156888	keystroke_r	r	n/a
78.5645	0.12	157129	keystroke_i	i	n/a
78.7445	0.09	157489	keystroke_a	a	n/a
78.9095	0.149	157819	keystroke_n	n	n/a
79.0735	0.15	158147	keystroke_Key.space	Key.space	n/a
79.2685	0.165	158537	keystroke_c	c	n/a
79.4485	0.151	158897	keystroke_l	l	n/a
79.554	0.1805	159108	keystroke_i	i	n/a
79.7195	0.135	159439	keystroke_n	n	n/a
79.8845	0.0745	159769	keystroke_t	t	n/a
80.079	0.135	160158	keystroke_o	o	n/a
80.184	0.15	160368	keystroke_n	n	n/a
80.319	0.1045	160638	keystroke_Key.space	Key.space	n/a
80.499	0.135	160998	keystroke_m	m	n/a
80.694	0.165	161388	keystroke_i	i	n/a
80.784	0.165	161568	keystroke_n	n	n/a
80.979	0.105	161958	keystroke_i	i	n/a
81.219	0.09	162438	keystroke_a	a	n/a
81.369	0.09	162738	keystroke_t	t	n/a
81.489	0.105	162978	keystroke_u	u	n/a
81.579	0.135	163158	keystroke_r	r	n/a
81.699	0.105	163398	keystroke_e	e	n/a
81.984	0.09	163968	keystroke_Key.enter	Key.enter	n/a
82.0785	5.637	164157	prompt	n/a	last worldwide plugins fuzzy\n
82.689	0.135	165378	keystroke_l	l	n/a
82.794	0.06	165588	keystroke_a	a	n/a
82.974	0.105	165948	keystroke_s	s	n/a
83.184	0.105	166368	keystroke_t	t	n/a
83.274	0.105	166548	keystroke_Key.space	Key.space	n/a
83.409	0.12	166818	keystroke_w	w	n/a
83.574	0.105	167148	keystroke_o	o	n/a
83.664	0.09	167328	keystroke_r	r	n/a
83.814	0.135	167628	keystroke_l	l	n/a
83.934	0.105	167868	keystroke_d	d	n/a
84.189	0.09	168378	keystroke_w	w	n/a
84.294	0.105	168588	keystroke_i	i	n/a
84.414	0.09	168828	keystroke_d	d	n/a
84.624	0.105	169248	keystroke_e	e	n/a
84.759	0.075	169518	keystroke_Key.space	Key.space	n/a
84.879	0.105	169758	keystroke_p	p	n/a
85.254	0.12	170508	keystroke_l	l	n/a
85.749	0.105	171498	keystroke_u	u	n/a
85.899	0.1045	171798	keystroke_g	g	n/a
86.064	0.12	172128	keystroke_i	i	n/a
86.139	0.18	172278	keystroke_n	n	n/a
86.334	0.105	172668	keystroke_s	s	n/a
86.469	0.135	172938	keystroke_Key.space	Key.space	n/a
86.664	0.1055	173328	keystroke_f	f	n/a
86.8295	0.12	173659	keystroke_u	u	n/a
86.9645	0.075	173929	keystroke_z	z	n/a
87.1145	0.105	174229	keystroke_z	z	n/a
87.3845	0.105	174769	keystroke_y	y	n/a
87.6695	0.044	175339	keystroke_Key.enter	Key.enter	n/a
87.718	6.1025	175436	prompt	n/a	features cliff reprint long\n
88.3595	0.12	176719	keystroke_f	f	n/a
88.5985	0.0605	177197	keystroke_e	e	n/a
88.794	0.09	177588	keystroke_a	a	n/a
89.139	0.09	178278	keystroke_t	t	n/a
89.319	0.12	178638	keystroke_u	u	n/a
89.454	0.075	178908	keystroke_r	r	n/a
89.544	0.15	179088	keystroke_e	e	n/a
89.664	0.12	179328	keystroke_s	s	n/a
89.859	0.09	179718	keystroke_Key.space	Key.space	n/a
90.054	0.12	180108	keystroke_c	c	n/a
90.234	0.15	180468	keystroke_l	l	n/a
90.534	0.136	181068	keystroke_i	i	n/a
90.744	0.0745	181488	keystroke_f	f	n/a
90.9235	0.09	181847	keystroke_f	f	n/a
91.1785	0.12	182357	keystroke_Key.space	Key.space	n/a
91.419	0.12	182838	keystroke_r	r	n/a
91.554	0.15	183108	keystroke_e	e	n/a
92.034	0.105	184068	keystroke_p	p	n/a
92.244	0.09	184488	keystroke_r	r	n/a
92.319	0.135	184638	keystroke_i	i	n/a
92.409	0.165	184818	keystroke_n	n	n/a
92.559	0.075	185118	keystroke_t	t	n/a
92.814	0.12	185628	keystroke_Key.space	Key.space	n/a
93.084	0.15	186168	keystroke_l	l	n/a
93.204	0.15	186408	keystroke_o	o	n/a
93.339	0.15	186678	keystroke_n	n	n/a
93.474	0.0905	186948	keystroke_g	g	n/a
93.7285	0.09	187457	keystroke_Key.enter	Key.enter	n/a
93.8235	5.532	187647	prompt	n/a	heard cottage murder truth\n
94.404	0.135	188808	keystroke_h	h	n/a
94.494	0.075	188988	keystroke_e	e	n/a
94.719	0.135	189438	keystroke_a	a	n/a
94.824	0.1055	189648	keystroke_r	r	n/a
95.0495	0.105	190099	keystroke_d	d	n/a
95.1695	0.09	190339	keystroke_Key.space	Key.space	n/a
95.3195	0.105	190639	keystroke_c	c	n/a
95.3945	0.105	190789	keystroke_o	o	n/a
95.5895	0.075	191179	keystroke_t	t	n/a
95.7535	0.091	191507	keystroke_t	t	n/a
95.9795	0.09	191959	keystroke_a	a	n/a
96.189	0.0895	192378	keystroke_g	g	n/a
96.3235	0.12	192647	keystroke_e	e	n/a
96.4445	0.104	192889	keystroke_Key.space	Key.space	n/a
96.6695	0.104	193339	keystroke_m	m	n/a
96.9235	0.105	193847	keystroke_u	u	n/a
97.0585	0.075	194117	keystroke_r	r	n/a
97.2985	0.075	194597	keystroke_d	d	n/a
97.5085	0.1805	195017	keystroke_e	e	n/a
97.629	0.105	195258	keystroke_r	r	n/a
97.764	0.105	195528	keystroke_Key.space	Key.space	n/a
97.854	0.105	195708	keystroke_t	t	n/a
98.079	0.075	196158	keystroke_r	r	n/a
98.139	0.12	196278	keystroke_u	u	n/a
98.364	0.12	196728	keystroke_t	t	n/a
98.469	0.105	196938	keystroke_h	h	n/a
99.2795	0.075	198559	keystroke_Key.enter	Key.enter	n/a
99.3585	6.0875	198717	prompt	n/a	garden vital plenty demonstrates\n
99.9245	0.09	199849	keystroke_g	g	n/a
100.1495	0.1645	200299	keystroke_a	a	n/a
100.239	0.1055	200478	keystroke_r	r	n/a
100.4795	0.09	200959	keystroke_d	d	n/a
100.6895	0.089	201379	keystroke_e	e	n/a
100.7645	0.165	201529	keystroke_n	n	n/a
100.8995	0.12	201799	keystroke_Key.space	Key.space	n/a
100.9895	0.089	201979	keystroke_v	v	n/a
101.1245	0.134	202249	keystroke_i	i	n/a
101.2445	0.0745	202489	keystroke_t	t	n/a
101.409	0.15	202818	keystroke_a	a	n/a
101.544	0.135	203088	keystroke_l	l	n/a
101.664	0.15	203328	keystroke_Key.space	Key.space	n/a
101.829	0.09	203658	keystroke_p	p	n/a
102.039	0.1205	204078	keystroke_l	l	n/a
102.1895	0.12	204379	keystroke_e	e	n/a
102.3545	0.135	204709	keystroke_n	n	n/a
102.4595	0.09	204919	keystroke_t	t	n/a
102.6695	0.09	205339	keystroke_y	y	n/a
102.8195	0.105	205639	keystroke_Key.space	Key.space	n/a
102.9545	0.1195	205909	keystroke_d	d	n/a
103.1185	0.09	206237	keystroke_o	o	n/a
103.3735	0.12	206747	keystroke_m	m	n/a
103.7045	0.149	207409	keystroke_o	o	n/a
103.8835	0.151	207767	keystroke_n	n	n/a
104.0645	0.09	208129	keystroke_s	s	n/a
104.1845	0.09	208369	keystroke_t	t	n/a
104.3785	0.1205	208757	keystroke_r	r	n/a
104.619	0.12	209238	keystroke_a	a	n/a
104.829	0.12	209658	keystroke_t	t	n/a
104.934	0.1955	209868	keystroke_e	e	n/a
105.0395	0.18	210079	keystroke_s	s	n/a
105.3545	0.09	210709	keystroke_Key.enter	Key.enter	n/a
105.4485	8.0075	210897	prompt	n/a	delaware legislation hearts statutory\n
106.119	0.075	212238	keystroke_d	d	n/a
106.329	0.09	212658	keystroke_e	e	n/a
106.434	0.15	212868	keystroke_l	l	n/a
106.584	0.105	213168	keystroke_a	a	n/a
106.839	0.15	213678	keystroke_w	w	n/a
106.944	0.12	213888	keystroke_a	a	n/a
107.139	0.135	214278	keystroke_r	r	n/a
107.244	0.15	214488	keystroke_e	e	n/a
107.439	0.09	214878	keystroke_Key.space	Key.space	n/a
107.604	0.15	215208	keystroke_l	l	n/a
107.739	0.105	215478	keystroke_e	e	n/a
107.964	0.075	215928	keystroke_i	i	n/a
108.354	0.09	216708	keystroke_Key.backspace	Key.backspace	n/a
108.474	0.09	216948	keystroke_g	g	n/a
108.67	0.104	217340	keystroke_i	i	n/a
108.834	0.105	217668	keystroke_s	s	n/a
109.4195	0.135	218839	keystroke_l	l	n/a
109.5235	0.091	219047	keystroke_a	a	n/a
109.7345	0.105	219469	keystroke_t	t	n/a
109.8245	0.15	219649	keystroke_i	i	n/a
109.9145	0.18	219829	keystroke_o	o	n/a
110.0495	0.15	220099	keystroke_n	n	n/a
110.364	0.105	220728	keystroke_Key.space	Key.space	n/a
110.619	0.15	221238	keystroke_h	h	n/a
110.709	0.075	221418	keystroke_e	e	n/a
110.919	0.135	221838	keystroke_a	a	n/a
111.039	0.09	222078	keystroke_r	r	n/a
111.249	0.075	222498	keystroke_t	t	n/a
111.384	0.135	222768	keystroke_s	s	n/a
111.534	0.15	223068	keystroke_Key.space	Key.space	n/a
111.819	0.15	223638	keystroke_s	s	n/a
112.029	0.09	224058	keystroke_t	t	n/a
112.224	0.135	224448	keystroke_a	a	n/a
112.344	0.09	224688	keystroke_t	t	n/a
112.464	0.135	224928	keystroke_u	u	n/a
112.6295	0.105	225259	keystroke_t	t	n/a
112.7645	0.12	225529	keystroke_o	o	n/a
112.8845	0.0745	225769	keystroke_r	r	n/a
113.0935	0.09	226187	keystroke_y	y	n/a
113.3485	0.105	226697	keystroke_Key.enter	Key.enter	n/a
113.46	5.3655	226920	prompt	n/a	can't filled drink void\n
114.084	0.12	228168	keystroke_c	c	n/a
114.249	0.12	228498	keystroke_a	a	n/a
114.5945	0.165	229189	keystroke_n	n	n/a
115.2845	0.075	230569	keystroke_'	'	n/a
115.4645	0.09	230929	keystroke_t	t	n/a
115.6745	0.105	231349	keystroke_Key.space	Key.space	n/a
115.9295	0.1495	231859	keystroke_f	f	n/a
116.0645	0.074	232129	keystroke_i	i	n/a
116.229	0.105	232458	keystroke_l	l	n/a
116.394	0.1195	232788	keystroke_l	l	n/a
116.4835	0.0605	232967	keystroke_e	e	n/a
116.6785	0.1055	233357	keystroke_d	d	n/a
116.785	0.074	233570	keystroke_Key.space	Key.space	n/a
116.979	0.1205	233958	keystroke_d	d	n/a
117.2045	0.135	234409	keystroke_r	r	n/a
117.2795	0.12	234559	keystroke_i	i	n/a
117.4445	0.165	234889	keystroke_n	n	n/a
117.5945	0.195	235189	keystroke_k	k	n/a
117.7895	0.15	235579	keystroke_Key.space	Key.space	n/a
117.9845	0.09	235969	keystroke_v	v	n/a
118.1345	0.12	236269	keystroke_o	o	n/a
118.2245	0.18	236449	keystroke_i	i	n/a
118.3745	0.15	236749	keystroke_d	d	n/a
118.7645	0.06	237529	keystroke_Key.enter	Key.enter	n/a
118.8285	6.5075	237657	prompt	n/a	assigned actually chen occupied\n
119.4095	0.12	238819	keystroke_a	a	n/a
119.6345	0.075	239269	keystroke_s	s	n/a
119.8145	0.105	239629	keystroke_s	s	n/a
120.0095	0.105	240019	keystroke_i	i	n/a
120.1295	0.105	240259	keystroke_g	g	n/a
120.309	0.12	240618	keystroke_n	n	n/a
120.459	0.09	240918	keystroke_e	e	n/a
120.669	0.09	241338	keystroke_d	d	n/a
120.8195	0.105	241639	keystroke_Key.space	Key.space	n/a
120.9395	0.09	241879	keystroke_a	a	n/a
121.1785	0.12	242357	keystroke_c	c	n/a
121.4345	0.104	242869	keystroke_t	t	n/a
121.5095	0.105	243019	keystroke_u	u	n/a
121.6445	0.15	243289	keystroke_a	a	n/a
121.7795	0.09	243559	keystroke_l	l	n/a
122.3045	0.104	244609	keystroke_l	l	n/a
122.4695	0.089	244939	keystroke_y	y	n/a
122.6035	0.105	245207	keystroke_Key.space	Key.space	n/a
122.7685	0.105	245537	keystroke_c	c	n/a
122.8585	0.1055	245717	keystroke_h	h	n/a
122.979	0.135	245958	keystroke_e	e	n/a
123.099	0.12	246198	keystroke_n	n	n/a
123.234	0.12	246468	keystroke_Key.space	Key.space	n/a
123.384	0.135	246768	keystroke_o	o	n/a
123.549	0.06	247098	keystroke_c	c	n/a
123.729	0.105	247458	keystroke_c	c	n/a
124.014	0.09	248028	keystroke_u	u	n/a
124.164	0.105	248328	keystroke_p	p	n/a
124.389	0.12	248778	keystroke_i	i	n/a
124.809	0.0905	249618	keystroke_e	e	n/a
125.0335	0.1055	250067	keystroke_d	d	n/a
125.244	0.0895	250488	keystroke_Key.enter	Key.enter	n/a
125.339	7.122	250678	prompt	n/a	physicians warner begins compilation\n
125.9195	0.12	251839	keystroke_p	p	n/a
126.204	0.12	252408	keystroke_h	h	n/a
126.339	0.09	252678	keystroke_y	y	n/a
126.564	0.106	253128	keystroke_s	s	n/a
126.654	0.105	253308	keystroke_i	i	n/a
126.819	0.12	253638	keystroke_c	c	n/a
127.029	0.105	254058	keystroke_i	i	n/a
127.269	0.12	254538	keystroke_a	a	n/a
127.374	0.135	254748	keystroke_n	n	n/a
127.51	0.119	255020	keystroke_s	s	n/a
127.674	0.09	255348	keystroke_Key.space	Key.space	n/a
127.809	0.15	255618	keystroke_w	w	n/a
128.004	0.165	256008	keystroke_a	a	n/a
128.274	0.135	256548	keystroke_r	r	n/a
128.514	0.135	257028	keystroke_n	n	n/a
128.709	0.135	257418	keystroke_e	e	n/a
128.9795	0.12	257959	keystroke_r	r	n/a
129.1435	0.121	258287	keystroke_Key.space	Key.space	n/a
129.3695	0.12	258739	keystroke_b	b	n/a
129.4435	0.09	258887	keystroke_e	e	n/a
129.6845	0.089	259369	keystroke_g	g	n/a
129.9545	0.104	259909	keystroke_i	i	n/a
130.0435	0.136	260087	keystroke_n	n	n/a
130.1935	0.1205	260387	keystroke_s	s	n/a
130.329	0.12	260658	keystroke_Key.space	Key.space	n/a
130.5245	0.12	261049	keystroke_c	c	n/a
130.5995	0.135	261199	keystroke_o	o	n/a
130.7195	0.1645	261439	keystroke_m	m	n/a
130.914	0.1205	261828	keystroke_p	p	n/a
131.2295	0.105	262459	keystroke_i	i	n/a
131.4545	0.12	262909	keystroke_l	l	n/a
131.5745	0.09	263149	keystroke_a	a	n/a
131.7845	0.105	263569	keystroke_t	t	n/a
131.8595	0.135	263719	keystroke_i	i	n/a
131.9945	0.135	263989	keystroke_o	o	n/a
132.0545	0.12	264109	keystroke_n	n	n/a
132.3845	0.075	264769	keystroke_Key.enter	Key.enter	n/a
132.464	6.882	264928	prompt	n/a	protest disc celtic yang\n
133.2095	0.12	266419	keystroke_p	p	n/a
133.3445	0.075	266689	keystroke_r	r	n/a
133.4195	0.15	266839	keystroke_o	o	n/a
133.5545	0.09	267109	keystroke_t	t	n/a
133.6745	0.18	267349	keystroke_e	e	n/a
133.7495	0.21	267499	keystroke_s	s	n/a
133.9145	0.105	267829	keystroke_t	t	n/a
134.0945	0.12	268189	keystroke_Key.space	Key.space	n/a
134.1995	0.12	268399	keystroke_d	d	n/a
134.3345	0.12	268669	keystroke_i	i	n/a
134.5595	0.105	269119	keystroke_s	s	n/a
134.8445	0.105	269689	keystroke_c	c	n/a
135.0245	0.1045	270049	keystroke_Key.space	Key.space	n/a
135.174	0.09	270348	keystroke_c	c	n/a
135.3845	0.105	270769	keystroke_l	l	n/a
135.7745	0.09	271549	keystroke_t	t	n/a
135.9245	0.12	271849	keystroke_i	i	n/a
136.1195	0.105	272239	keystroke_c	c	n/a
136.2545	0.135	272509	keystroke_Key.space	Key.space	n/a
136.7195	0.075	273439	keystroke_y	y	n/a
136.9895	0.06	273979	keystroke_a	a	n/a
137.0495	0.15	274099	keystroke_n	n	n/a
137.2295	0.075	274459	keystroke_g	g	n/a
137.9645	0.045	275929	keystroke_Key.backspace	Key.backspace	n/a
138.8645	0.09	277729	keystroke_g	g	n/a
139.254	0.09	278508	keystroke_Key.enter	Key.enter	n/a
139.349	5.277	278698	prompt	n/a	wisdom places correction files\n
140.274	0.105	280548	keystroke_w	w	n/a
140.394	0.135	280788	keystroke_i	i	n/a
140.544	0.105	281088	keystroke_s	s	n/a
140.754	0.12	281508	keystroke_d	d	n/a
140.875	0.134	281750	keystroke_o	o	n/a
140.994	0.165	281988	keystroke_m	m	n/a
141.174	0.1205	282348	keystroke_Key.space	Key.space	n/a
141.3095	0.06	282619	keystroke_p	p	n/a
141.4745	0.135	282949	keystroke_l	l	n/a
141.5495	0.09	283099	keystroke_a	a	n/a
141.7145	0.18	283429	keystroke_c	c	n/a
141.8795	0.165	283759	keystroke_e	e	n/a
141.9695	0.135	283939	keystroke_s	s	n/a
142.1195	0.105	284239	keystroke_Key.space	Key.space	n/a
142.2695	0.12	284539	keystroke_c	c	n/a
142.4045	0.105	284809	keystroke_o	o	n/a
142.5395	0.09	285079	keystroke_r	r	n/a
142.6895	0.105	285379	keystroke_r	r	n/a
142.8545	0.105	285709	keystroke_e	e	n/a
143.1095	0.09	286219	keystroke_c	c	n/a
143.3345	0.105	286669	keystroke_t	t	n/a
143.4545	0.15	286909	keystroke_i	i	n/a
143.4995	0.24	286999	keystroke_o	o	n/a
143.6195	0.165	287239	keystroke_n	n	n/a
143.7545	0.105	287509	keystroke_Key.space	Key.space	n/a
143.8145	0.12	287629	keystroke_f	f	n/a
143.9495	0.1495	287899	keystroke_i	i	n/a
144.039	0.165	288078	keystroke_l	l	n/a
144.174	0.15	288348	keystroke_e	e	n/a
144.279	0.15	288558	keystroke_s	s	n/a
144.549	0.075	289098	keystroke_Key.enter	Key.enter	n/a
144.6285	8.562	289257	prompt	n/a	epson significance archives translations\n
145.3895	0.075	290779	keystroke_e	e	n/a
145.7345	0.165	291469	keystroke_p	p	n/a
146.0945	0.105	292189	keystroke_s	s	n/a
146.2895	0.12	292579	keystroke_o	o	n/a
146.3495	0.18	292699	keystroke_n	n	n/a
146.5145	0.135	293029	keystroke_Key.space	Key.space	n/a
146.6645	0.134	293329	keystroke_s	s	n/a
146.8145	0.1205	293629	keystroke_i	i	n/a
146.9495	0.0905	293899	keystroke_g	g	n/a
147.129	0.12	294258	keystroke_n	n	n/a
147.519	0.151	295038	keystroke_i	i	n/a
147.759	0.09	295518	keystroke_f	f	n/a
147.88	0.12	295760	keystroke_i	i	n/a
148.0745	0.105	296149	keystroke_c	c	n/a
148.2395	0.075	296479	keystroke_a	a	n/a
148.5995	0.15	297199	keystroke_n	n	n/a
148.81	0.105	297620	keystroke_c	c	n/a
149.005	0.105	298010	keystroke_e	e	n/a
149.154	0.135	298308	keystroke_Key.space	Key.space	n/a
149.304	0.076	298608	keystroke_a	a	n/a
149.665	0.089	299330	keystroke_r	r	n/a
149.964	0.09	299928	keystroke_c	c	n/a
150.025	0.12	300050	keystroke_h	h	n/a
150.13	0.179	300260	keystroke_i	i	n/a
150.294	0.091	300588	keystroke_v	v	n/a
150.489	0.165	300978	keystroke_e	e	n/a
150.624	0.135	301248	keystroke_s	s	n/a
150.774	0.1055	301548	keystroke_Key.space	Key.space	n/a
150.9395	0.075	301879	keystroke_t	t	n/a
151.1045	0.12	302209	keystroke_r	r	n/a
151.3595	0.135	302719	keystroke_a	a	n/a
151.4945	0.105	302989	keystroke_n	n	n/a
151.6145	0.075	303229	keystroke_s	s	n/a
152.0195	0.1195	304039	keystroke_l	l	n/a
152.1695	0.075	304339	keystroke_a	a	n/a
152.3495	0.12	304699	keystroke_t	t	n/a
152.4845	0.12	304969	keystroke_i	i	n/a
152.5445	0.165	305089	keystroke_o	o	n/a
152.6495	0.12	305299	keystroke_n	n	n/a
152.7695	0.15	305539	keystroke_s	s	n/a
153.1145	0.075	306229	keystroke_Key.enter	Key.enter	n/a
153.195	7.796	306390	prompt	n/a	protest added predict patients\n
153.8945	0.135	307789	keystroke_p	p	n/a
153.9995	0.0895	307999	keystroke_r	r	n/a
154.104	0.165	308208	keystroke_o	o	n/a
154.224	0.12	308448	keystroke_t	t	n/a
154.374	0.21	308748	keystroke_e	e	n/a
154.464	0.255	308928	keystroke_s	s	n/a
154.629	0.135	309258	keystroke_t	t	n/a
154.9895	0.12	309979	keystroke_Key.space	Key.space	n/a
155.2445	0.105	310489	keystroke_a	a	n/a
155.4095	0.0745	310819	keystroke_d	d	n/a
155.5895	0.0745	311179	keystroke_d	d	n/a
155.844	0.0155	311688	keystroke_e	e	n/a
155.979	0.1055	311958	keystroke_d	d	n/a
156.099	0.12	312198	keystroke_Key.space	Key.space	n/a
156.294	0.105	312588	keystroke_r	r	n/a
156.4745	0.09	312949	keystroke_e	e	n/a
156.8195	0.1045	313639	keystroke_d	d	n/a
157.5995	0.075	315199	keystroke_Key.backspace	Key.backspace	n/a
157.7645	0.105	315529	keystroke_Key.backspace	Key.backspace	n/a
157.9745	0.075	315949	keystroke_Key.backspace	Key.backspace	n/a
158.2445	0.15	316489	keystroke_p	p	n/a
158.3645	0.105	316729	keystroke_r	r	n/a
158.6045	0.09	317209	keystroke_e	e	n/a
158.8145	0.105	317629	keystroke_d	d	n/a
158.9045	0.1205	317809	keystroke_i	i	n/a
159.145	0.105	318290	keystroke_c	c	n/a
159.4	0.1045	318800	keystroke_t	t	n/a
159.5045	0.119	319009	keystroke_Key.space	Key.space	n/a
159.685	0.1345	319370	keystroke_p	p	n/a
159.79	0.0745	319580	keystroke_a	a	n/a
159.9695	0.105	319939	keystroke_t	t	n/a
160.09	0.1045	320180	keystroke_i	i	n/a
160.2095	0.105	320419	keystroke_e	e	n/a
160.3595	0.12	320719	keystroke_n	n	n/a
160.4645	0.09	320929	keystroke_t	t	n/a
160.6745	0.105	321349	keystroke_s	s	n/a
160.9145	0.075	321829	keystroke_Key.enter	Key.enter	n/a
160.994	6.7765	321988	prompt	n/a	interference glance hang coordinated\n
161.5595	0.105	323119	keystroke_i	i	n/a
161.754	0.151	323508	keystroke_n	n	n/a
162.114	0.09	324228	keystroke_t	t	n/a
162.339	0.18	324678	keystroke_e	e	n/a
162.475	0.119	324950	keystroke_r	r	n/a
162.759	0.105	325518	keystroke_f	f	n/a
162.909	0.165	325818	keystroke_e	e	n/a
163.089	0.135	326178	keystroke_r	r	n/a
163.209	0.12	326418	keystroke_e	e	n/a
163.359	0.15	326718	keystroke_n	n	n/a
163.524	0.135	327048	keystroke_c	c	n/a
163.644	0.12	327288	keystroke_e	e	n/a
163.749	0.12	327498	keystroke_Key.space	Key.space	n/a
163.884	0.12	327768	keystroke_g	g	n/a
164.049	0.12	328098	keystroke_l	l	n/a
164.124	0.135	328248	keystroke_a	a	n/a
164.289	0.15	328578	keystroke_n	n	n/a
164.424	0.12	328848	keystroke_c	c	n/a
164.529	0.12	329058	keystroke_e	e	n/a
164.664	0.15	329328	keystroke_Key.space	Key.space	n/a
164.844	0.12	329688	keystroke_h	h	n/a
165.024	0.09	330048	keystroke_a	a	n/a
165.144	0.135	330288	keystroke_n	n	n/a
165.264	0.12	330528	keystroke_g	g	n/a
165.4445	0.12	330889	keystroke_Key.space	Key.space	n/a
165.6395	0.12	331279	keystroke_c	c	n/a
165.7605	0.1185	331521	keystroke_o	o	n/a
166.029	0.09	332058	keystroke_o	o	n/a
166.149	0.09	332298	keystroke_r	r	n/a
166.404	0.135	332808	keystroke_d	d	n/a
166.554	0.135	333108	keystroke_i	i	n/a
166.659	0.165	333318	keystroke_n	n	n/a
166.809	0.1055	333618	keystroke_a	a	n/a
167.0345	0.09	334069	keystroke_t	t	n/a
167.2145	0.0745	334429	keystroke_e	e	n/a
167.424	0.105	334848	keystroke_d	d	n/a
167.694	0.0755	335388	keystroke_Key.enter	Key.enter	n/a
167.7735	4.4225	335547	prompt	n/a	heater intake minds social\n
168.459	0.15	336918	keystroke_h	h	n/a
168.594	0.075	337188	keystroke_e	e	n/a
168.804	0.09	337608	keystroke_a	a	n/a
168.969	0.105	337938	keystroke_t	t	n/a
169.194	0.135	338388	keystroke_e	e	n/a
169.314	0.12	338628	keystroke_r	r	n/a
169.449	0.12	338898	keystroke_Key.space	Key.space	n/a
169.599	0.12	339198	keystroke_i	i	n/a
169.659	0.165	339318	keystroke_n	n	n/a
169.779	0.0905	339558	keystroke_t	t	n/a
169.9445	0.15	339889	keystroke_a	a	n/a
170.0495	0.165	340099	keystroke_k	k	n/a
170.1995	0.15	340399	keystroke_e	e	n/a
170.3345	0.105	340669	keystroke_Key.space	Key.space	n/a
170.455	0.104	340910	keystroke_m	m	n/a
170.575	0.135	341150	keystroke_i	i	n/a
170.68	0.15	341360	keystroke_n	n	n/a
170.815	0.18	341630	keystroke_d	d	n/a
170.95	0.1195	341900	keystroke_s	s	n/a
171.1145	0.1345	342229	keystroke_Key.space	Key.space	n/a
171.2195	0.1345	342439	keystroke_s	s	n/a
171.369	0.105	342738	keystroke_o	o	n/a
171.489	0.12	342978	keystroke_c	c	n/a
171.579	0.105	343158	keystroke_i	i	n/a
171.729	0.15	343458	keystroke_a	a	n/a
171.834	0.136	343668	keystroke_l	l	n/a
172.119	0.075	344238	keystroke_Key.enter	Key.enter	n/a
172.1985	5.6225	344397	prompt	n/a	occasion sector loose programmers\n
172.8395	0.12	345679	keystroke_o	o	n/a
172.9745	0.0895	345949	keystroke_c	c	n/a
173.139	0.105	346278	keystroke_c	c	n/a
173.259	0.09	346518	keystroke_a	a	n/a
173.439	0.12	346878	keystroke_s	s	n/a
173.574	0.135	347148	keystroke_i	i	n/a
173.679	0.1955	347358	keystroke_o	o	n/a
173.814	0.1355	347628	keystroke_n	n	n/a
173.9195	0.15	347839	keystroke_Key.space	Key.space	n/a
174.0545	0.15	348109	keystroke_s	s	n/a
174.1745	0.12	348349	keystroke_e	e	n/a
174.4895	0.105	348979	keystroke_c	c	n/a
174.7295	0.09	349459	keystroke_t	t	n/a
174.7745	0.15	349549	keystroke_o	o	n/a
174.9395	0.105	349879	keystroke_r	r	n/a
175.0745	0.105	350149	keystroke_Key.space	Key.space	n/a
175.2095	0.12	350419	keystroke_l	l	n/a
175.4795	0.09	350959	keystroke_o	o	n/a
175.6445	0.09	351289	keystroke_o	o	n/a
175.7345	0.15	351469	keystroke_s	s	n/a
175.8545	0.105	351709	keystroke_e	e	n/a
176.0195	0.105	352039	keystroke_Key.space	Key.space	n/a
176.1695	0.135	352339	keystroke_p	p	n/a
176.2895	0.105	352579	keystroke_r	r	n/a
176.4095	0.105	352819	keystroke_o	o	n/a
176.5295	0.075	353059	keystroke_g	g	n/a
176.7245	0.09	353449	keystroke_r	r	n/a
176.9495	0.09	353899	keystroke_a	a	n/a
177.0245	0.105	354049	keystroke_m	m	n/a
177.2045	0.105	354409	keystroke_m	m	n/a
177.2645	0.15	354529	keystroke_e	e	n/a
177.3845	0.135	354769	keystroke_r	r	n/a
177.5345	0.135	355069	keystroke_s	s	n/a
177.7295	0.09	355459	keystroke_Key.enter	Key.enter	n/a
177.823	6.958	355646	prompt	n/a	announce robust investigated power\n
178.404	0.1205	356808	keystroke_a	a	n/a
178.5395	0.06	357079	keystroke_n	n	n/a
178.7045	0.12	357409	keystroke_n	n	n/a
178.8395	0.135	357679	keystroke_o	o	n/a
178.9595	0.165	357919	keystroke_u	u	n/a
179.0645	0.165	358129	keystroke_n	n	n/a
179.2895	0.105	358579	keystroke_c	c	n/a
179.6645	0.105	359329	keystroke_e	e	n/a
179.95	0.075	359900	keystroke_Key.space	Key.space	n/a
180.339	0.105	360678	keystroke_r	r	n/a
180.429	0.1055	360858	keystroke_o	o	n/a
180.6545	0.09	361309	keystroke_b	b	n/a
180.805	0.119	361610	keystroke_u	u	n/a
180.895	0.135	361790	keystroke_s	s	n/a
181.12	0.135	362240	keystroke_t	t	n/a
181.27	0.089	362540	keystroke_Key.space	Key.space	n/a
181.374	0.165	362748	keystroke_i	i	n/a
181.465	0.194	362930	keystroke_n	n	n/a
181.644	0.091	363288	keystroke_v	v	n/a
181.825	0.149	363650	keystroke_e	e	n/a
181.929	0.195	363858	keystroke_s	s	n/a
182.049	0.135	364098	keystroke_t	t	n/a
182.185	0.164	364370	keystroke_i	i	n/a
182.334	0.06	364668	keystroke_a	a	n/a
182.934	0.105	365868	keystroke_Key.backspace	Key.backspace	n/a
183.024	0.075	366048	keystroke_g	g	n/a
183.219	0.09	366438	keystroke_a	a	n/a
183.339	0.135	366678	keystroke_t	t	n/a
183.564	0.06	367128	keystroke_e	e	n/a
183.729	0.105	367458	keystroke_d	d	n/a
183.804	0.105	367608	keystroke_Key.space	Key.space	n/a
183.924	0.195	367848	keystroke_p	p	n/a
184.089	0.165	368178	keystroke_o	o	n/a
184.164	0.18	368328	keystroke_w	w	n/a
184.239	0.195	368478	keystroke_e	e	n/a
184.359	0.15	368718	keystroke_r	r	n/a
184.689	0.09	369378	keystroke_Key.enter	Key.enter	n/a
184.784	7.782	369568	prompt	n/a	invisible bookings motels village\n
185.3195	0.1045	370639	keystroke_i	i	n/a
185.439	0.135	370878	keystroke_n	n	n/a
185.589	0.105	371178	keystroke_v	v	n/a
185.724	0.12	371448	keystroke_i	i	n/a
185.859	0.0905	371718	keystroke_s	s	n/a
186.1595	0.105	372319	keystroke_t	t	n/a
186.7145	0.09	373429	keystroke_Key.backspace	Key.backspace	n/a
186.9995	0.1195	373999	keystroke_b	b	n/a
187.254	0.15	374508	keystroke_l	l	n/a
187.329	0.105	374658	keystroke_e	e	n/a
187.449	0.135	374898	keystroke_Key.space	Key.space	n/a
187.675	0.119	375350	keystroke_b	b	n/a
187.914	0.075	375828	keystroke_o	o	n/a
188.079	0.091	376158	keystroke_o	o	n/a
188.2895	0.105	376579	keystroke_k	k	n/a
188.4995	0.135	376999	keystroke_i	i	n/a
188.6195	0.15	377239	keystroke_n	n	n/a
188.7695	0.09	377539	keystroke_g	g	n/a
189.084	0.135	378168	keystroke_s	s	n/a
189.249	0.12	378498	keystroke_Key.space	Key.space	n/a
189.714	0.18	379428	keystroke_m	m	n/a
189.879	0.12	379758	keystroke_o	o	n/a
189.969	0.09	379938	keystroke_t	t	n/a
190.149	0.15	380298	keystroke_a	a	n/a
190.5545	0.09	381109	keystroke_Key.backspace	Key.backspace	n/a
190.6745	0.105	381349	keystroke_e	e	n/a
190.8395	0.165	381679	keystroke_l	l	n/a
190.9595	0.164	381919	keystroke_s	s	n/a
191.0945	0.165	382189	keystroke_Key.space	Key.space	n/a
191.394	0.1055	382788	keystroke_v	v	n/a
191.4845	0.12	382969	keystroke_i	i	n/a
191.6785	0.106	383357	keystroke_l	l	n/a
191.8595	0.105	383719	keystroke_l	l	n/a
191.9495	0.075	383899	keystroke_a	a	n/a
192.1285	0.0905	384257	keystroke_g	g	n/a
192.294	0.1205	384588	keystroke_e	e	n/a
192.4745	0.09	384949	keystroke_Key.enter	Key.enter	n/a
192.5695	5.666	385139	prompt	n/a	tutorial botswana sister tale\n
193.4195	0.105	386839	keystroke_t	t	n/a
193.5395	0.075	387079	keystroke_u	u	n/a
193.6445	0.105	387289	keystroke_t	t	n/a
193.7795	0.135	387559	keystroke_o	o	n/a
193.8995	0.09	387799	keystroke_r	r	n/a
194.0195	0.105	388039	keystroke_i	i	n/a
194.3345	0.03	388669	keystroke_a	a	n/a
194.3495	0.105	388699	keystroke_l	l	n/a
194.4845	0.105	388969	keystroke_Key.space	Key.space	n/a
194.7845	0.015	389569	keystroke_b	b	n/a
194.8745	0.1195	389749	keystroke_o	o	n/a
194.949	0.09	389898	keystroke_t	t	n/a
195.099	0.12	390198	keystroke_s	s	n/a
195.489	0.195	390978	keystroke_w	w	n/a
195.669	0.12	391338	keystroke_a	a	n/a
195.819	0.165	391638	keystroke_n	n	n/a
195.969	0.105	391938	keystroke_a	a	n/a
196.119	0.09	392238	keystroke_Key.space	Key.space	n/a
196.239	0.09	392478	keystroke_s	s	n/a
196.344	0.12	392688	keystroke_i	i	n/a
196.449	0.105	392898	keystroke_s	s	n/a
196.659	0.105	393318	keystroke_t	t	n/a
196.824	0.195	393648	keystroke_e	e	n/a
196.959	0.1205	393918	keystroke_r	r	n/a
197.1245	0.12	394249	keystroke_Key.space	Key.space	n/a
197.1845	0.105	394369	keystroke_t	t	n/a
197.3945	0.165	394789	keystroke_a	a	n/a
197.5295	0.165	395059	keystroke_l	l	n/a
197.7245	0.105	395449	keystroke_e	e	n/a
198.1445	0.09	396289	keystroke_Key.enter	Key.enter	n/a
198.239	9.6715	396478	prompt	n/a	around cathedral agricultural ways\n
198.8645	0.15	397729	keystroke_a	a	n/a
198.9845	0.105	397969	keystroke_r	r	n/a
199.1035	0.121	398207	keystroke_o	o	n/a
199.2395	0.09	398479	keystroke_u	u	n/a
199.2535	0.196	398507	keystroke_n	n	n/a
199.3895	0.09	398779	keystroke_d	d	n/a
199.5095	0.12	399019	keystroke_Key.space	Key.space	n/a
199.6445	0.12	399289	keystroke_c	c	n/a
199.7945	0.1045	399589	keystroke_a	a	n/a
200.034	0.12	400068	keystroke_t	t	n/a
200.169	0.105	400338	keystroke_h	h	n/a
200.289	0.15	400578	keystroke_e	e	n/a
200.739	0.135	401478	keystroke_d	d	n/a
201.129	0.105	402258	keystroke_r	r	n/a
201.339	0.105	402678	keystroke_a	a	n/a
201.414	0.165	402828	keystroke_l	l	n/a
201.564	0.495	403128	keystroke_Key.space	Key.space	n/a
202.689	0.075	405378	keystroke_Key.backspace	Key.backspace	n/a
203.244	0.09	406488	keystroke_Key.space	Key.space	n/a
203.439	0.105	406878	keystroke_a	a	n/a
203.619	0.12	407238	keystroke_r	r	n/a
204.774	0.075	409548	keystroke_Key.backspace	Key.backspace	n/a
204.85	0.074	409700	keystroke_g	g	n/a
205.089	0.105	410178	keystroke_r	r	n/a
205.269	0.12	410538	keystroke_i	i	n/a
205.5695	0.12	411139	keystroke_c	c	n/a
205.7345	0.105	411469	keystroke_u	u	n/a
205.9745	0.135	411949	keystroke_l	l	n/a
206.0945	0.075	412189	keystroke_t	t	n/a
206.2445	0.12	412489	keystroke_u	u	n/a
206.3345	0.12	412669	keystroke_r	r	n/a
206.5895	0.1645	413179	keystroke_a	a	n/a
206.799	0.135	413598	keystroke_l	l	n/a
206.964	0.15	413928	keystroke_Key.space	Key.space	n/a
207.144	0.136	414288	keystroke_w	w	n/a
207.219	0.105	414438	keystroke_a	a	n/a
207.429	0.12	414858	keystroke_y	y	n/a
207.579	0.136	415158	keystroke_s	s	n/a
207.849	0.06	415698	keystroke_Key.enter	Key.enter	n/a
207.9135	9.747	415827	prompt	n/a	composition category architectural worried\n
208.5545	0.135	417109	keystroke_c	c	n/a
208.6445	0.105	417289	keystroke_o	o	n/a
208.7345	0.12	417469	keystroke_m	m	n/a
208.8695	0.105	417739	keystroke_p	p	n/a
209.184	0.09	418368	keystroke_o	o	n/a
209.6495	0.12	419299	keystroke_s	s	n/a
209.9645	0.135	419929	keystroke_i	i	n/a
210.1295	0.105	420259	keystroke_t	t	n/a
210.2495	0.12	420499	keystroke_i	i	n/a
210.3095	0.21	420619	keystroke_o	o	n/a
210.4445	0.1795	420889	keystroke_n	n	n/a
210.594	0.135	421188	keystroke_Key.space	Key.space	n/a
210.744	0.1205	421488	keystroke_c	c	n/a
210.9095	0.09	421819	keystroke_a	a	n/a
211.0445	0.12	422089	keystroke_t	t	n/a
211.194	0.1205	422388	keystroke_o	o	n/a
211.629	0.1055	423258	keystroke_Key.backspace	Key.backspace	n/a
211.7495	0.105	423499	keystroke_e	e	n/a
211.9895	0.12	423979	keystroke_o	o	n/a
212.0945	0.075	424189	keystroke_r	r	n/a
212.6195	0.105	425239	keystroke_Key.backspace	Key.backspace	n/a
212.8295	0.06	425659	keystroke_Key.backspace	Key.backspace	n/a
212.9645	0.105	425929	keystroke_g	g	n/a
213.1445	0.15	426289	keystroke_o	o	n/a
213.3995	0.0905	426799	keystroke_r	r	n/a
213.6245	0.105	427249	keystroke_y	y	n/a
213.7745	0.135	427549	keystroke_Key.space	Key.space	n/a
213.9695	0.12	427939	keystroke_a	a	n/a
214.1345	0.105	428269	keystroke_r	r	n/a
214.4345	0.09	428869	keystroke_c	c	n/a
214.4945	0.12	428989	keystroke_h	h	n/a
214.6295	0.18	429259	keystroke_i	i	n/a
214.7645	0.075	429529	keystroke_t	t	n/a
214.9595	0.075	429919	keystroke_e	e	n/a
215.2295	0.1345	430459	keystroke_c	c	n/a
215.514	0.09	431028	keystroke_t	t	n/a
215.649	0.12	431298	keystroke_u	u	n/a
215.829	0.09	431658	keystroke_r	r	n/a
216.099	0.1205	432198	keystroke_a	a	n/a
216.2345	0.15	432469	keystroke_l	l	n/a
216.3385	0.15	432677	keystroke_Key.space	Key.space	n/a
216.4745	0.1045	432949	keystroke_w	w	n/a
216.594	0.12	433188	keystroke_o	o	n/a
216.699	0.09	433398	keystroke_r	r	n/a
216.879	0.075	433758	keystroke_r	r	n/a
216.984	0.1355	433968	keystroke_i	i	n/a
217.0895	0.09	434179	keystroke_e	e	n/a
217.2995	0.12	434599	keystroke_d	d	n/a
217.5845	0.075	435169	keystroke_Key.enter	Key.enter	n/a
217.6635	7.242	435327	prompt	n/a	neighbor belkin adolescent wonder\n
218.379	0.12	436758	keystroke_n	n	n/a
218.484	0.12	436968	keystroke_e	e	n/a
218.7245	0.105	437449	keystroke_i	i	n/a
218.8595	0.135	437719	keystroke_g	g	n/a
219.0095	0.12	438019	keystroke_h	h	n/a
219.3695	0.12	438739	keystroke_b	b	n/a
219.5795	0.135	439159	keystroke_o	o	n/a
219.9395	0.12	439879	keystroke_r	r	n/a
220.1795	0.09	440359	keystroke_Key.space	Key.space	n/a
220.419	0.105	440838	keystroke_b	b	n/a
220.509	0.135	441018	keystroke_e	e	n/a
220.914	0.1505	441828	keystroke_l	l	n/a
221.034	0.1205	442068	keystroke_k	k	n/a
221.2595	0.135	442519	keystroke_i	i	n/a
221.3495	0.21	442699	keystroke_n	n	n/a
221.5595	0.12	443119	keystroke_Key.space	Key.space	n/a
221.6945	0.135	443389	keystroke_a	a	n/a
221.8595	0.12	443719	keystroke_d	d	n/a
222.0095	0.135	444019	keystroke_o	o	n/a
222.4295	0.15	444859	keystroke_l	l	n/a
222.6995	0.135	445399	keystroke_e	e	n/a
222.8645	0.135	445729	keystroke_s	s	n/a
223.119	0.12	446238	keystroke_c	c	n/a
223.269	0.12	446538	keystroke_e	e	n/a
223.39	0.179	446780	keystroke_n	n	n/a
223.539	0.09	447078	keystroke_t	t	n/a
223.644	0.135	447288	keystroke_Key.space	Key.space	n/a
223.794	0.105	447588	keystroke_w	w	n/a
223.929	0.165	447858	keystroke_o	o	n/a
224.049	0.15	448098	keystroke_n	n	n/a
224.139	0.105	448278	keystroke_d	d	n/a
224.364	0.1805	448728	keystroke_e	e	n/a
224.5145	0.1345	449029	keystroke_r	r	n/a
224.799	0.105	449598	keystroke_Key.enter	Key.enter	n/a
224.9085	9.837	449817	prompt	n/a	participated lightning turner thinkpad\n
225.639	0.1505	451278	keystroke_p	p	n/a
225.8045	0.21	451609	keystroke_a	a	n/a
225.9695	0.09	451939	keystroke_r	r	n/a
226.1645	0.105	452329	keystroke_t	t	n/a
226.2845	0.1045	452569	keystroke_i	i	n/a
226.539	0.105	453078	keystroke_c	c	n/a
226.899	0.105	453798	keystroke_i	i	n/a
227.169	0.135	454338	keystroke_p	p	n/a
227.349	0.09	454698	keystroke_a	a	n/a
227.499	0.105	454998	keystroke_t	t	n/a
227.6635	0.09	455327	keystroke_e	e	n/a
227.8735	0.12	455747	keystroke_d	d	n/a
227.9785	0.12	455957	keystroke_Key.space	Key.space	n/a
228.1135	0.24	456227	keystroke_l	l	n/a
228.2935	0.15	456587	keystroke_i	i	n/a
228.5185	0.106	457037	keystroke_g	g	n/a
229.0295	0.1045	458059	keystroke_t	t	n/a
230.079	0.105	460158	keystroke_Key.backspace	Key.backspace	n/a
230.379	0.15	460758	keystroke_h	h	n/a
230.694	0.075	461388	keystroke_t	t	n/a
231.2645	0.165	462529	keystroke_n	n	n/a
231.5345	0.164	463069	keystroke_i	i	n/a
231.6695	0.1795	463339	keystroke_n	n	n/a
231.8345	0.1045	463669	keystroke_g	g	n/a
231.999	0.165	463998	keystroke_Key.space	Key.space	n/a
232.344	0.09	464688	keystroke_t	t	n/a
232.449	0.105	464898	keystroke_u	u	n/a
232.569	0.12	465138	keystroke_r	r	n/a
232.734	0.135	465468	keystroke_n	n	n/a
232.8995	0.18	465799	keystroke_e	e	n/a
233.019	0.1205	466038	keystroke_r	r	n/a
233.154	0.1355	466308	keystroke_Key.space	Key.space	n/a
233.3045	0.135	466609	keystroke_t	t	n/a
233.4545	0.12	466909	keystroke_h	h	n/a
233.5595	0.1495	467119	keystroke_i	i	n/a
233.694	0.195	467388	keystroke_n	n	n/a
233.859	0.1205	467718	keystroke_k	k	n/a
234.0845	0.15	468169	keystroke_p	p	n/a
234.2045	0.105	468409	keystroke_a	a	n/a
234.3845	0.165	468769	keystroke_d	d	n/a
234.6545	0.09	469309	keystroke_Key.enter	Key.enter	n/a
234.75	7.3455	469500	prompt	n/a	crime deposits newest firewall\n
235.599	0.105	471198	keystroke_c	c	n/a
235.854	0.105	471708	keystroke_r	r	n/a
235.974	0.15	471948	keystroke_i	i	n/a
236.094	0.12	472188	keystroke_m	m	n/a
236.199	0.105	472398	keystroke_e	e	n/a
236.304	0.135	472608	keystroke_Key.space	Key.space	n/a
236.44	0.104	472880	keystroke_d	d	n/a
236.649	0.1055	473298	keystroke_e	e	n/a
236.7695	0.164	473539	keystroke_p	p	n/a
236.8735	0.151	473747	keystroke_o	o	n/a
237.0545	0.105	474109	keystroke_s	s	n/a
237.1895	0.135	474379	keystroke_i	i	n/a
237.3395	0.12	474679	keystroke_t	t	n/a
237.5495	0.075	475099	keystroke_i	i	n/a
238.0745	0.09	476149	keystroke_Key.backspace	Key.backspace	n/a
238.3145	0.135	476629	keystroke_s	s	n/a
238.5995	0.12	477199	keystroke_Key.space	Key.space	n/a
238.9895	0.09	477979	keystroke_n	n	n/a
239.0195	0.18	478039	keystroke_e	e	n/a
239.1695	0.075	478339	keystroke_w	w	n/a
239.4095	0.045	478819	keystroke_s	s	n/a
239.7995	0.075	479599	keystroke_Key.backspace	Key.backspace	n/a
239.8445	0.135	479689	keystroke_e	e	n/a
239.9945	0.1795	479989	keystroke_s	s	n/a
240.159	0.105	480318	keystroke_t	t	n/a
240.324	0.135	480648	keystroke_Key.space	Key.space	n/a
240.549	0.105	481098	keystroke_f	f	n/a
240.654	0.135	481308	keystroke_i	i	n/a
240.834	0.15	481668	keystroke_r	r	n/a
240.954	0.09	481908	keystroke_e	e	n/a
241.344	0.15	482688	keystroke_w	w	n/a
241.419	0.18	482838	keystroke_a	a	n/a
241.569	0.075	483138	keystroke_l	l	n/a
241.719	0.105	483438	keystroke_l	l	n/a
242.019	0.075	484038	keystroke_Key.enter	Key.enter	n/a
242.0985	6.357	484197	prompt	n/a	workstation keyboard extensive no\n
242.709	0.09	485418	keystroke_w	w	n/a
242.829	0.12	485658	keystroke_o	o	n/a
242.934	0.105	485868	keystroke_r	r	n/a
243.0695	0.15	486139	keystroke_k	k	n/a
243.2045	0.119	486409	keystroke_s	s	n/a
243.3545	0.1195	486709	keystroke_t	t	n/a
243.5195	0.15	487039	keystroke_a	a	n/a
243.6235	0.12	487247	keystroke_t	t	n/a
243.7585	0.195	487517	keystroke_i	i	n/a
243.9085	0.1505	487817	keystroke_o	o	n/a
243.9685	0.2105	487937	keystroke_n	n	n/a
244.134	0.165	488268	keystroke_Key.space	Key.space	n/a
244.284	0.2105	488568	keystroke_k	k	n/a
244.4345	0.12	488869	keystroke_e	e	n/a
244.6595	0.105	489319	keystroke_y	y	n/a
244.8845	0.105	489769	keystroke_b	b	n/a
245.0945	0.12	490189	keystroke_o	o	n/a
245.3495	0.09	490699	keystroke_r	r	n/a
245.784	0.09	491568	keystroke_Key.backspace	Key.backspace	n/a
245.859	0.15	491718	keystroke_a	a	n/a
245.934	0.105	491868	keystroke_r	r	n/a
246.144	0.165	492288	keystroke_d	d	n/a
246.294	0.12	492588	keystroke_Key.space	Key.space	n/a
246.444	0.09	492888	keystroke_e	e	n/a
246.699	0.12	493398	keystroke_x	x	n/a
246.954	0.09	493908	keystroke_t	t	n/a
247.1195	0.104	494239	keystroke_e	e	n/a
247.2395	0.104	494479	keystroke_n	n	n/a
247.3595	0.135	494719	keystroke_s	s	n/a
247.4795	0.165	494959	keystroke_i	i	n/a
247.6295	0.09	495259	keystroke_v	v	n/a
247.7945	0.105	495589	keystroke_e	e	n/a
247.8545	0.135	495709	keystroke_Key.space	Key.space	n/a
248.0045	0.135	496009	keystroke_n	n	n/a
248.0945	0.105	496189	keystroke_o	o	n/a
248.3945	0.06	496789	keystroke_Key.enter	Key.enter	n/a
248.4585	7.737	496917	prompt	n/a	caution beauty restoration brochures\n
249.0545	0.1795	498109	keystroke_c	c	n/a
249.249	0.12	498498	keystroke_a	a	n/a
249.384	0.0755	498768	keystroke_u	u	n/a
249.5045	0.12	499009	keystroke_t	t	n/a
249.6245	0.18	499249	keystroke_i	i	n/a
249.7895	0.195	499579	keystroke_o	o	n/a
249.8795	0.12	499759	keystroke_n	n	n/a
249.9695	0.135	499939	keystroke_Key.space	Key.space	n/a
250.1345	0.1645	500269	keystroke_b	b	n/a
250.2395	0.1045	500479	keystroke_e	e	n/a
250.464	0.09	500928	keystroke_a	a	n/a
250.584	0.12	501168	keystroke_u	u	n/a
250.794	0.075	501588	keystroke_t	t	n/a
251.019	0.1055	502038	keystroke_y	y	n/a
251.2445	0.075	502489	keystroke_Key.space	Key.space	n/a
251.3795	0.09	502759	keystroke_r	r	n/a
251.6045	0.1195	503209	keystroke_e	e	n/a
251.874	0.135	503748	keystroke_s	s	n/a
252.159	0.105	504318	keystroke_t	t	n/a
252.399	0.135	504798	keystroke_o	o	n/a
252.549	0.0755	505098	keystroke_r	r	n/a
252.9245	0.075	505849	keystroke_a	a	n/a
253.0745	0.135	506149	keystroke_t	t	n/a
253.1795	0.12	506359	keystroke_i	i	n/a
253.2695	0.18	506539	keystroke_o	o	n/a
253.3445	0.165	506689	keystroke_n	n	n/a
253.4945	0.12	506989	keystroke_Key.space	Key.space	n/a
253.6445	0.15	507289	keystroke_b	b	n/a
253.8245	0.105	507649	keystroke_r	r	n/a
254.1995	0.09	508399	keystroke_o	o	n/a
254.499	0.105	508998	keystroke_c	c	n/a
254.619	0.135	509238	keystroke_h	h	n/a
254.814	0.03	509628	keystroke_e	e	n/a
255.219	0.075	510438	keystroke_Key.backspace	Key.backspace	n/a
255.504	0.105	511008	keystroke_u	u	n/a
255.564	0.09	511128	keystroke_r	r	n/a
255.7585	0.1655	511517	keystroke_e	e	n/a
255.8635	0.1505	511727	keystroke_s	s	n/a
256.134	0.06	512268	keystroke_Key.enter	Key.enter	n/a
256.1985	8.982	512397	prompt	n/a	downloads institutions entirely establishment\n
256.7635	0.136	513527	keystroke_d	d	n/a
256.929	0.12	513858	keystroke_o	o	n/a
257.064	0.1055	514128	keystroke_w	w	n/a
257.1995	0.105	514399	keystroke_n	n	n/a
257.3945	0.165	514789	keystroke_l	l	n/a
257.5145	0.15	515029	keystroke_o	o	n/a
257.6195	0.1345	515239	keystroke_a	a	n/a
257.7395	0.1195	515479	keystroke_d	d	n/a
258.024	0.12	516048	keystroke_s	s	n/a
258.174	0.12	516348	keystroke_Key.space	Key.space	n/a
258.324	0.135	516648	keystroke_i	i	n/a
258.429	0.1505	516858	keystroke_n	n	n/a
258.5645	0.15	517129	keystroke_s	s	n/a
258.8195	0.105	517639	keystroke_t	t	n/a
258.9095	0.1195	517819	keystroke_i	i	n/a
259.044	0.12	518088	keystroke_t	t	n/a
259.179	0.12	518358	keystroke_u	u	n/a
259.404	0.0895	518808	keystroke_t	t	n/a
259.5095	0.149	519019	keystroke_i	i	n/a
259.6435	0.1365	519287	keystroke_o	o	n/a
259.719	0.15	519438	keystroke_n	n	n/a
259.854	0.105	519708	keystroke_s	s	n/a
259.974	0.135	519948	keystroke_Key.space	Key.space	n/a
260.124	0.105	520248	keystroke_e	e	n/a
260.244	0.33	520488	keystroke_n	n	n/a
260.394	0.075	520788	keystroke_t	t	n/a
261.4445	0.12	522889	keystroke_i	i	n/a
261.6095	0.105	523219	keystroke_r	r	n/a
261.7895	0.12	523579	keystroke_e	e	n/a
262.1795	0.15	524359	keystroke_l	l	n/a
262.3145	0.105	524629	keystroke_y	y	n/a
262.4795	0.1345	524959	keystroke_Key.space	Key.space	n/a
262.674	0.09	525348	keystroke_e	e	n/a
262.899	0.09	525798	keystroke_s	s	n/a
263.0495	0.105	526099	keystroke_t	t	n/a
263.2595	0.105	526519	keystroke_a	a	n/a
263.5595	0.105	527119	keystroke_b	b	n/a
263.8145	0.1795	527629	keystroke_l	l	n/a
263.979	0.135	527958	keystroke_i	i	n/a
264.115	0.089	528230	keystroke_s	s	n/a
264.234	0.105	528468	keystroke_h	h	n/a
264.474	0.165	528948	keystroke_m	m	n/a
264.594	0.105	529188	keystroke_e	e	n/a
264.684	0.15	529368	keystroke_n	n	n/a
264.849	0.105	529698	keystroke_t	t	n/a
265.089	0.09	530178	keystroke_Key.enter	Key.enter	n/a
265.1845	5.231	530369	prompt	n/a	camp milton now accepts\n
265.8695	0.15	531739	keystroke_c	c	n/a
266.0345	0.135	532069	keystroke_a	a	n/a
266.1395	0.15	532279	keystroke_m	m	n/a
266.3195	0.135	532639	keystroke_p	p	n/a
266.4395	0.15	532879	keystroke_Key.space	Key.space	n/a
266.665	0.164	533330	keystroke_m	m	n/a
266.83	0.1195	533660	keystroke_i	i	n/a
267.0245	0.105	534049	keystroke_l	l	n/a
267.1595	0.135	534319	keystroke_t	t	n/a
267.3395	0.12	534679	keystroke_o	o	n/a
267.4145	0.21	534829	keystroke_n	n	n/a
267.8045	0.105	535609	keystroke_Key.space	Key.space	n/a
268.359	0.165	536718	keystroke_n	n	n/a
268.539	0.135	537078	keystroke_o	o	n/a
268.659	0.12	537318	keystroke_w	w	n/a
268.854	0.09	537708	keystroke_Key.space	Key.space	n/a
269.199	0.105	538398	keystroke_a	a	n/a
269.364	0.1195	538728	keystroke_c	c	n/a
269.5435	0.105	539087	keystroke_c	c	n/a
269.7685	0.136	539537	keystroke_e	e	n/a
269.8895	0.1045	539779	keystroke_p	p	n/a
269.9495	0.1195	539899	keystroke_t	t	n/a
270.114	0.135	540228	keystroke_s	s	n/a
270.339	0.075	540678	keystroke_Key.enter	Key.enter	n/a
270.4195	10.526	540839	prompt	n/a	audio how'll bacteria tribal\n
271.0295	0.089	542059	keystroke_a	a	n/a
271.1935	0.106	542387	keystroke_u	u	n/a
271.3445	0.104	542689	keystroke_d	d	n/a
271.4795	0.18	542959	keystroke_i	i	n/a
271.6295	0.165	543259	keystroke_o	o	n/a
271.8385	0.136	543677	keystroke_Key.space	Key.space	n/a
272.0495	0.135	544099	keystroke_h	h	n/a
272.3645	0.135	544729	keystroke_o	o	n/a
272.4695	0.135	544939	keystroke_w	w	n/a
273.0995	0.09	546199	keystroke_'	'	n/a
273.5795	0.09	547159	keystroke_;	;	n/a
273.7745	0.09	547549	keystroke_;	;	n/a
274.3445	0.059	548689	keystroke_Key.backspace	Key.backspace	n/a
274.5095	0.0595	549019	keystroke_Key.backspace	Key.backspace	n/a
274.809	0.0305	549618	keystroke_l	l	n/a
274.9295	0.09	549859	keystroke_l	l	n/a
275.3795	0.12	550759	keystroke_Key.space	Key.space	n/a
275.904	0.12	551808	keystroke_b	b	n/a
275.979	0.09	551958	keystroke_a	a	n/a
276.144	0.1355	552288	keystroke_c	c	n/a
276.3995	0.015	552799	keystroke_r	r	n/a
277.1345	0.105	554269	keystroke_Key.backspace	Key.backspace	n/a
277.2235	0.121	554447	keystroke_t	t	n/a
277.5095	0.1495	555019	keystroke_e	e	n/a
277.629	0.105	555258	keystroke_r	r	n/a
278.0645	0.135	556129	keystroke_a	a	n/a
278.1545	0.105	556309	keystroke_i	i	n/a
278.5745	0.09	557149	keystroke_Key.backspace	Key.backspace	n/a
278.6945	0.09	557389	keystroke_Key.backspace	Key.backspace	n/a
279.0395	0.1345	558079	keystroke_i	i	n/a
279.189	0.12	558378	keystroke_a	a	n/a
279.369	0.105	558738	keystroke_Key.space	Key.space	n/a
279.564	0.09	559128	keystroke_t	t	n/a
279.744	0.12	559488	keystroke_r	r	n/a
279.879	0.09	559758	keystroke_i	i	n/a
280.165	0.104	560330	keystroke_b	b	n/a
280.464	0.105	560928	keystroke_a	a	n/a
280.554	0.135	561108	keystroke_l	l	n/a
280.854	0.09	561708	keystroke_Key.enter	Key.enter	n/a
280.948	8.4575	561896	prompt	n/a	inspiration bangladesh valentine relatively\n
281.664	0.165	563328	keystroke_i	i	n/a
281.859	0.12	563718	keystroke_n	n	n/a
281.919	0.12	563838	keystroke_s	s	n/a
282.504	0.09	565008	keystroke_p	p	n/a
282.759	0.12	565518	keystroke_i	i	n/a
282.864	0.09	565728	keystroke_r	r	n/a
283.089	0.135	566178	keystroke_a	a	n/a
283.284	0.1355	566568	keystroke_t	t	n/a
283.359	0.1505	566718	keystroke_i	i	n/a
283.4645	0.195	566929	keystroke_o	o	n/a
283.5395	0.1645	567079	keystroke_n	n	n/a
283.689	0.15	567378	keystroke_Key.space	Key.space	n/a
283.824	0.15	567648	keystroke_b	b	n/a
283.959	0.105	567918	keystroke_a	a	n/a
284.094	0.1355	568188	keystroke_n	n	n/a
284.2445	0.075	568489	keystroke_g	g	n/a
284.4995	0.135	568999	keystroke_l	l	n/a
284.6795	0.105	569359	keystroke_a	a	n/a
285.084	0.1055	570168	keystroke_d	d	n/a
285.3395	0.135	570679	keystroke_e	e	n/a
285.4295	0.1645	570859	keystroke_s	s	n/a
285.609	0.1805	571218	keystroke_h	h	n/a
285.7895	0.135	571579	keystroke_Key.space	Key.space	n/a
285.9395	0.105	571879	keystroke_v	v	n/a
286.1645	0.12	572329	keystroke_a	a	n/a
286.3145	0.135	572629	keystroke_l	l	n/a
286.9145	0.105	573829	keystroke_e	e	n/a
287.079	0.105	574158	keystroke_n	n	n/a
287.199	0.105	574398	keystroke_t	t	n/a
287.334	0.135	574668	keystroke_i	i	n/a
287.424	0.18	574848	keystroke_n	n	n/a
287.559	0.12	575118	keystroke_e	e	n/a
287.634	0.195	575268	keystroke_Key.space	Key.space	n/a
287.844	0.165	575688	keystroke_r	r	n/a
287.949	0.12	575898	keystroke_e	e	n/a
288.099	0.12	576198	keystroke_l	l	n/a
288.234	0.12	576468	keystroke_a	a	n/a
288.369	0.09	576738	keystroke_t	t	n/a
288.4745	0.15	576949	keystroke_i	i	n/a
288.6395	0.105	577279	keystroke_v	v	n/a
288.7895	0.12	577579	keystroke_e	e	n/a
288.8945	0.15	577789	keystroke_l	l	n/a
289.0745	0.105	578149	keystroke_y	y	n/a
289.3445	0.06	578689	keystroke_Key.enter	Key.enter	n/a
289.4085	9.4625	578817	prompt	n/a	aggregate handy uncertainty conservative\n
289.9745	0.105	579949	keystroke_a	a	n/a
290.1835	0.105	580367	keystroke_g	g	n/a
290.3485	0.091	580697	keystroke_g	g	n/a
290.6045	0.105	581209	keystroke_r	r	n/a
290.6785	0.12	581357	keystroke_e	e	n/a
290.949	0.09	581898	keystroke_g	g	n/a
291.159	0.105	582318	keystroke_a	a	n/a
291.369	0.03	582738	keystroke_t	t	n/a
291.429	0.09	582858	keystroke_t	t	n/a
292.059	0.09	584118	keystroke_Key.backspace	Key.backspace	n/a
292.179	0.105	584358	keystroke_e	e	n/a
292.419	0.12	584838	keystroke_Key.space	Key.space	n/a
292.6895	0.09	585379	keystroke_h	h	n/a
292.7645	0.09	585529	keystroke_a	a	n/a
292.8845	0.15	585769	keystroke_n	n	n/a
292.9895	0.15	585979	keystroke_d	d	n/a
293.1245	0.15	586249	keystroke_l	l	n/a
293.6045	0.09	587209	keystroke_Key.backspace	Key.backspace	n/a
293.7085	0.106	587417	keystroke_y	y	n/a
293.9045	0.1195	587809	keystroke_Key.space	Key.space	n/a
294.189	0.09	588378	keystroke_u	u	n/a
294.369	0.15	588738	keystroke_n	n	n/a
294.534	0.1055	589068	keystroke_c	c	n/a
294.684	0.151	589368	keystroke_e	e	n/a
294.864	0.12	589728	keystroke_r	r	n/a
295.1045	0.075	590209	keystroke_t	t	n/a
295.2845	0.15	590569	keystroke_a	a	n/a
295.464	0.105	590928	keystroke_i	i	n/a
296.0645	0.1205	592129	keystroke_n	n	n/a
296.349	0.0905	592698	keystroke_t	t	n/a
296.5595	0.1045	593119	keystroke_y	y	n/a
296.784	0.105	593568	keystroke_Key.space	Key.space	n/a
296.934	0.105	593868	keystroke_c	c	n/a
297.024	0.1505	594048	keystroke_o	o	n/a
297.1295	0.15	594259	keystroke_n	n	n/a
297.2645	0.12	594529	keystroke_s	s	n/a
297.3695	0.105	594739	keystroke_e	e	n/a
297.6545	0.105	595309	keystroke_v	v	n/a
297.8795	0.09	595759	keystroke_a	a	n/a
298.074	0.105	596148	keystroke_t	t	n/a
298.2245	0.134	596449	keystroke_i	i	n/a
298.3885	0.106	596777	keystroke_v	v	n/a
298.5845	0.105	597169	keystroke_e	e	n/a
298.7795	0.09	597559	keystroke_Key.enter	Key.enter	n/a
298.8735	5.937	597747	prompt	n/a	mental airplane nothing extends\n
299.5745	0.135	599149	keystroke_m	m	n/a
299.6795	0.06	599359	keystroke_e	e	n/a
299.8595	0.135	599719	keystroke_n	n	n/a
300.2345	0.12	600469	keystroke_t	t	n/a
300.4295	0.12	600859	keystroke_a	a	n/a
300.5495	0.12	601099	keystroke_l	l	n/a
300.6395	0.1495	601279	keystroke_Key.space	Key.space	n/a
300.819	0.1205	601638	keystroke_a	a	n/a
300.9395	0.12	601879	keystroke_i	i	n/a
301.0745	0.105	602149	keystroke_r	r	n/a
301.3295	0.105	602659	keystroke_p	p	n/a
301.5545	0.12	603109	keystroke_l	l	n/a
301.7045	0.09	603409	keystroke_a	a	n/a
301.8245	0.15	603649	keystroke_n	n	n/a
302.0645	0.1045	604129	keystroke_e	e	n/a
302.214	0.135	604428	keystroke_Key.space	Key.space	n/a
302.334	0.165	604668	keystroke_n	n	n/a
302.514	0.105	605028	keystroke_o	o	n/a
302.634	0.09	605268	keystroke_t	t	n/a
302.709	0.135	605418	keystroke_h	h	n/a
302.874	0.15	605748	keystroke_i	i	n/a
302.994	0.165	605988	keystroke_n	n	n/a
303.099	0.105	606198	keystroke_g	g	n/a
303.219	0.1355	606438	keystroke_Key.space	Key.space	n/a
303.3845	0.06	606769	keystroke_e	e	n/a
303.5945	0.12	607189	keystroke_x	x	n/a
303.8945	0.09	607789	keystroke_t	t	n/a
304.0895	0.09	608179	keystroke_e	e	n/a
304.1945	0.12	608389	keystroke_n	n	n/a
304.299	0.1805	608598	keystroke_d	d	n/a
304.4645	0.15	608929	keystroke_s	s	n/a
304.7345	0.075	609469	keystroke_Key.enter	Key.enter	n/a
304.8135	6.537	609627	prompt	n/a	indirect castle avoiding marks\n
305.3645	0.105	610729	keystroke_i	i	n/a
305.4845	0.15	610969	keystroke_n	n	n/a
305.6345	0.105	611269	keystroke_d	d	n/a
306.939	0.12	613878	keystroke_i	i	n/a
307.074	0.105	614148	keystroke_r	r	n/a
307.284	0.105	614568	keystroke_e	e	n/a
307.524	0.0905	615048	keystroke_c	c	n/a
307.7495	0.105	615499	keystroke_t	t	n/a
307.8845	0.12	615769	keystroke_Key.space	Key.space	n/a
308.0345	0.15	616069	keystroke_c	c	n/a
308.1995	0.09	616399	keystroke_a	a	n/a
308.4095	0.1045	616819	keystroke_s	s	n/a
308.694	0.09	617388	keystroke_t	t	n/a
308.814	0.15	617628	keystroke_l	l	n/a
308.934	0.105	617868	keystroke_e	e	n/a
309.069	0.165	618138	keystroke_Key.space	Key.space	n/a
309.219	0.09	618438	keystroke_a	a	n/a
309.444	0.09	618888	keystroke_v	v	n/a
309.549	0.135	619098	keystroke_o	o	n/a
309.654	0.15	619308	keystroke_i	i	n/a
309.819	0.105	619638	keystroke_d	d	n/a
309.954	0.15	619908	keystroke_i	i	n/a
310.059	0.21	620118	keystroke_n	n	n/a
310.2395	0.09	620479	keystroke_g	g	n/a
310.3295	0.135	620659	keystroke_Key.space	Key.space	n/a
310.5245	0.15	621049	keystroke_m	m	n/a
310.6595	0.135	621319	keystroke_a	a	n/a
310.779	0.105	621558	keystroke_r	r	n/a
310.914	0.135	621828	keystroke_k	k	n/a
311.019	0.12	622038	keystroke_s	s	n/a
311.259	0.09	622518	keystroke_Key.enter	Key.enter	n/a
311.3535	6.447	622707	prompt	n/a	orders carrier booking authentic\n
311.889	0.135	623778	keystroke_o	o	n/a
312.025	0.089	624050	keystroke_r	r	n/a
312.234	0.105	624468	keystroke_d	d	n/a
312.474	0.165	624948	keystroke_e	e	n/a
312.564	0.135	625128	keystroke_r	r	n/a
312.804	0.12	625608	keystroke_s	s	n/a
312.939	0.1355	625878	keystroke_Key.space	Key.space	n/a
313.1195	0.12	626239	keystroke_c	c	n/a
313.2545	0.09	626509	keystroke_o	o	n/a
313.7045	0.09	627409	keystroke_Key.backspace	Key.backspace	n/a
313.8095	0.09	627619	keystroke_a	a	n/a
313.9445	0.105	627889	keystroke_r	r	n/a
314.1095	0.09	628219	keystroke_r	r	n/a
314.2895	0.15	628579	keystroke_i	i	n/a
314.4995	0.18	628999	keystroke_e	e	n/a
314.6185	0.121	629237	keystroke_r	r	n/a
314.7545	0.089	629509	keystroke_Key.space	Key.space	n/a
314.9195	0.104	629839	keystroke_b	b	n/a
315.1145	0.075	630229	keystroke_o	o	n/a
315.2645	0.09	630529	keystroke_o	o	n/a
315.414	0.1205	630828	keystroke_k	k	n/a
315.609	0.1355	631218	keystroke_i	i	n/a
315.6995	0.225	631399	keystroke_n	n	n/a
315.8345	0.105	631669	keystroke_g	g	n/a
315.9695	0.164	631939	keystroke_Key.space	Key.space	n/a
316.1495	0.105	632299	keystroke_a	a	n/a
316.3145	0.12	632629	keystroke_u	u	n/a
316.4645	0.105	632929	keystroke_t	t	n/a
316.5845	0.15	633169	keystroke_h	h	n/a
316.8395	0.09	633679	keystroke_e	e	n/a
317.0635	0.136	634127	keystroke_n	n	n/a
317.2145	0.075	634429	keystroke_t	t	n/a
317.3195	0.12	634639	keystroke_i	i	n/a
317.4995	0.135	634999	keystroke_c	c	n/a
317.7245	0.075	635449	keystroke_Key.enter	Key.enter	n/a
317.806	6.7745	635612	prompt	n/a	machine indicator expects intended\n
318.444	0.1195	636888	keystroke_m	m	n/a
318.5495	0.104	637099	keystroke_a	a	n/a
318.7435	0.15	637487	keystroke_c	c	n/a
318.8485	0.12	637697	keystroke_h	h	n/a
318.9535	0.1805	637907	keystroke_i	i	n/a
319.104	0.18	638208	keystroke_n	n	n/a
319.224	0.105	638448	keystroke_e	e	n/a
319.359	0.165	638718	keystroke_Key.space	Key.space	n/a
319.539	0.135	639078	keystroke_i	i	n/a
319.629	0.165	639258	keystroke_n	n	n/a
319.824	0.105	639648	keystroke_d	d	n/a
319.959	0.135	639918	keystroke_i	i	n/a
320.109	0.12	640218	keystroke_c	c	n/a
320.274	0.105	640548	keystroke_a	a	n/a
320.484	0.12	640968	keystroke_t	t	n/a
320.619	0.12	641238	keystroke_o	o	n/a
320.724	0.12	641448	keystroke_r	r	n/a
320.934	0.135	641868	keystroke_Key.space	Key.space	n/a
321.084	0.09	642168	keystroke_e	e	n/a
321.324	0.12	642648	keystroke_x	x	n/a
321.459	0.09	642918	keystroke_p	p	n/a
321.594	0.12	643188	keystroke_e	e	n/a
321.894	0.105	643788	keystroke_c	c	n/a
322.134	0.09	644268	keystroke_t	t	n/a
322.284	0.165	644568	keystroke_s	s	n/a
322.434	0.1495	644868	keystroke_Key.space	Key.space	n/a
322.5995	0.15	645199	keystroke_i	i	n/a
322.7045	0.165	645409	keystroke_n	n	n/a
322.8395	0.075	645679	keystroke_t	t	n/a
323.0345	0.075	646069	keystroke_e	e	n/a
323.3035	0.135	646607	keystroke_n	n	n/a
323.6195	0.12	647239	keystroke_d	d	n/a
323.9945	0.09	647989	keystroke_e	e	n/a
324.219	0.1055	648438	keystroke_d	d	n/a
324.5045	0.075	649009	keystroke_Key.enter	Key.enter	n/a
324.5835	9.207	649167	prompt	n/a	poly reception their chemicals\n
325.194	0.075	650388	keystroke_p	p	n/a
325.4045	0.075	650809	keystroke_l	l	n/a
325.7945	0.09	651589	keystroke_Key.backspace	Key.backspace	n/a
326.064	0.075	652128	keystroke_o	o	n/a
326.259	0.181	652518	keystroke_l	l	n/a
326.424	0.09	652848	keystroke_t	t	n/a
326.634	0.12	653268	keystroke_Key.space	Key.space	n/a
326.904	0.105	653808	keystroke_r	r	n/a
327.369	0.09	654738	keystroke_Key.backspace	Key.backspace	n/a
327.549	0.075	655098	keystroke_Key.backspace	Key.backspace	n/a
328.089	0.075	656178	keystroke_Key.backspace	Key.backspace	n/a
328.344	0.075	656688	keystroke_y	y	n/a
328.764	0.12	657528	keystroke_Key.space	Key.space	n/a
329.4695	0.09	658939	keystroke_r	r	n/a
329.5895	0.12	659179	keystroke_e	e	n/a
329.8295	0.135	659659	keystroke_c	c	n/a
329.9795	0.135	659959	keystroke_e	e	n/a
330.2195	0.135	660439	keystroke_p	p	n/a
330.4445	0.12	660889	keystroke_t	t	n/a
330.7145	0.105	661429	keystroke_i	i	n/a
330.8345	0.15	661669	keystroke_o	o	n/a
330.9095	0.225	661819	keystroke_n	n	n/a
331.2845	0.12	662569	keystroke_Key.space	Key.space	n/a
331.5395	0.09	663079	keystroke_t	t	n/a
331.6595	0.09	663319	keystroke_h	h	n/a
331.7945	0.105	663589	keystroke_e	e	n/a
331.8845	0.18	663769	keystroke_i	i	n/a
332.0345	0.1045	664069	keystroke_r	r	n/a
332.154	0.135	664308	keystroke_Key.space	Key.space	n/a
332.334	0.135	664668	keystroke_c	c	n/a
332.454	0.09	664908	keystroke_h	h	n/a
332.574	0.12	665148	keystroke_e	e	n/a
332.724	0.105	665448	keystroke_m	m	n/a
332.949	0.12	665898	keystroke_i	i	n/a
333.039	0.12	666078	keystroke_c	c	n/a
333.189	0.12	666378	keystroke_a	a	n/a
333.279	0.135	666558	keystroke_l	l	n/a
333.4445	0.12	666889	keystroke_s	s	n/a
333.7145	0.075	667429	keystroke_Key.enter	Key.enter	n/a
333.794	6.5515	667588	prompt	n/a	nurse prerequisite trap announces\n
334.4345	0.105	668869	keystroke_n	n	n/a
334.6595	0.105	669319	keystroke_u	u	n/a
334.7195	0.105	669439	keystroke_r	r	n/a
334.9595	0.1655	669919	keystroke_s	s	n/a
335.094	0.1205	670188	keystroke_e	e	n/a
335.2585	0.1205	670517	keystroke_Key.space	Key.space	n/a
335.409	0.15	670818	keystroke_p	p	n/a
335.544	0.1805	671088	keystroke_r	r	n/a
335.6945	0.1345	671389	keystroke_e	e	n/a
336.009	0.1505	672018	keystroke_r	r	n/a
336.129	0.0755	672258	keystroke_e	e	n/a
336.3545	0.105	672709	keystroke_q	q	n/a
336.5645	0.12	673129	keystroke_u	u	n/a
336.6845	0.15	673369	keystroke_i	i	n/a
337.0295	0.165	674059	keystroke_s	s	n/a
337.2245	0.165	674449	keystroke_i	i	n/a
337.4195	0.105	674839	keystroke_t	t	n/a
337.569	0.12	675138	keystroke_e	e	n/a
337.734	0.105	675468	keystroke_Key.space	Key.space	n/a
337.854	0.075	675708	keystroke_t	t	n/a
338.064	0.105	676128	keystroke_r	r	n/a
338.184	0.165	676368	keystroke_a	a	n/a
338.454	0.12	676908	keystroke_p	p	n/a
338.634	0.135	677268	keystroke_Key.space	Key.space	n/a
338.829	0.15	677658	keystroke_a	a	n/a
339.009	0.0895	678018	keystroke_n	n	n/a
339.1435	0.15	678287	keystroke_n	n	n/a
339.2785	0.166	678557	keystroke_o	o	n/a
339.4285	0.181	678857	keystroke_u	u	n/a
339.5935	0.136	679187	keystroke_n	n	n/a
339.7585	0.121	679517	keystroke_c	c	n/a
339.9245	0.165	679849	keystroke_e	e	n/a
340.0585	0.151	680117	keystroke_s	s	n/a
340.2395	0.104	680479	keystroke_Key.enter	Key.enter	n/a
340.3485	4.7075	680697	prompt	n/a	inspired spies lies trek\n
341.019	0.1205	682038	keystroke_i	i	n/a
341.184	0.18	682368	keystroke_n	n	n/a
341.409	0.135	682818	keystroke_s	s	n/a
341.559	0.1055	683118	keystroke_p	p	n/a
341.7845	0.15	683569	keystroke_i	i	n/a
341.8745	0.105	683749	keystroke_r	r	n/a
342.0545	0.105	684109	keystroke_e	e	n/a
342.2945	0.09	684589	keystroke_d	d	n/a
342.3995	0.12	684799	keystroke_Key.space	Key.space	n/a
342.5645	0.12	685129	keystroke_s	s	n/a
342.6695	0.075	685339	keystroke_p	p	n/a
342.8795	0.1195	685759	keystroke_i	i	n/a
343.059	0.15	686118	keystroke_e	e	n/a
343.224	0.135	686448	keystroke_s	s	n/a
343.344	0.12	686688	keystroke_Key.space	Key.space	n/a
343.509	0.1805	687018	keystroke_l	l	n/a
343.6145	0.15	687229	keystroke_i	i	n/a
343.7945	0.18	687589	keystroke_e	e	n/a
343.8995	0.12	687799	keystroke_s	s	n/a
344.0795	0.119	688159	keystroke_Key.space	Key.space	n/a
344.2145	0.12	688429	keystroke_t	t	n/a
344.3945	0.135	688789	keystroke_r	r	n/a
344.5445	0.135	689089	keystroke_e	e	n/a
344.6635	0.136	689327	keystroke_k	k	n/a
344.9945	0.06	689989	keystroke_Key.enter	Key.enter	n/a
345.059	6.6115	690118	prompt	n/a	attorneys unnecessary same probably\n
345.8345	0.09	691669	keystroke_a	a	n/a
346.044	0.075	692088	keystroke_t	t	n/a
346.194	0.105	692388	keystroke_t	t	n/a
346.329	0.105	692658	keystroke_o	o	n/a
346.419	0.12	692838	keystroke_r	r	n/a
346.584	0.135	693168	keystroke_n	n	n/a
346.734	0.105	693468	keystroke_e	e	n/a
346.959	0.105	693918	keystroke_y	y	n/a
347.1995	0.135	694399	keystroke_s	s	n/a
347.3185	0.105	694637	keystroke_Key.space	Key.space	n/a
347.4535	0.1505	694907	keystroke_u	u	n/a
347.619	0.1055	695238	keystroke_n	n	n/a
347.8145	0.105	695629	keystroke_n	n	n/a
348.0845	0.09	696169	keystroke_e	e	n/a
348.324	0.09	696648	keystroke_c	c	n/a
348.624	0.105	697248	keystroke_e	e	n/a
348.819	0.09	697638	keystroke_s	s	n/a
348.999	0.061	697998	keystroke_s	s	n/a
349.179	0.12	698358	keystroke_a	a	n/a
349.255	0.105	698510	keystroke_r	r	n/a
349.465	0.089	698930	keystroke_y	y	n/a
349.584	0.12	699168	keystroke_Key.space	Key.space	n/a
349.689	0.1205	699378	keystroke_s	s	n/a
349.9145	0.105	699829	keystroke_a	a	n/a
349.9895	0.15	699979	keystroke_m	m	n/a
350.1245	0.135	700249	keystroke_e	e	n/a
350.2295	0.18	700459	keystroke_Key.space	Key.space	n/a
350.3945	0.15	700789	keystroke_p	p	n/a
350.5145	0.12	701029	keystroke_r	r	n/a
350.5895	0.12	701179	keystroke_o	o	n/a
350.8445	0.105	701689	keystroke_b	b	n/a
350.9345	0.135	701869	keystroke_a	a	n/a
351.0395	0.09	702079	keystroke_b	b	n/a
351.249	0.15	702498	keystroke_l	l	n/a
351.324	0.09	702648	keystroke_y	y	n/a
351.594	0.075	703188	keystroke_Key.enter	Key.enter	n/a
351.6735	10.1525	703347	prompt	n/a	absorption instructional korea chronicles\n
352.239	0.12	704478	keystroke_a	a	n/a
352.6735	0.105	705347	keystroke_b	b	n/a
352.8835	0.12	705767	keystroke_s	s	n/a
353.0185	0.1355	706037	keystroke_o	o	n/a
353.169	0.12	706338	keystroke_r	r	n/a
353.5145	0.1045	707029	keystroke_p	p	n/a
353.7695	0.09	707539	keystroke_t	t	n/a
353.889	0.135	707778	keystroke_i	i	n/a
353.994	0.21	707988	keystroke_o	o	n/a
354.144	0.18	708288	keystroke_n	n	n/a
354.309	0.165	708618	keystroke_Key.space	Key.space	n/a
354.444	0.18	708888	keystroke_i	i	n/a
354.579	0.165	709158	keystroke_n	n	n/a
354.774	0.105	709548	keystroke_s	s	n/a
354.954	0.1195	709908	keystroke_t	t	n/a
355.0885	0.105	710177	keystroke_u	u	n/a
355.2085	0.091	710417	keystroke_r	r	n/a
355.8995	0.045	711799	keystroke_Key.backspace	Key.backspace	n/a
356.0335	0.076	712067	keystroke_Key.backspace	Key.backspace	n/a
356.1545	0.105	712309	keystroke_r	r	n/a
356.334	0.12	712668	keystroke_u	u	n/a
356.514	0.105	713028	keystroke_c	c	n/a
356.784	0.105	713568	keystroke_t	t	n/a
356.874	0.1645	713748	keystroke_i	i	n/a
356.994	0.15	713988	keystroke_o	o	n/a
357.054	0.1645	714108	keystroke_n	n	n/a
357.3235	0.075	714647	keystroke_a	a	n/a
357.474	0.1945	714948	keystroke_l	l	n/a
357.699	0.1345	715398	keystroke_Key.space	Key.space	n/a
357.9385	0.1205	715877	keystroke_k	k	n/a
358.164	0.15	716328	keystroke_o	o	n/a
358.299	0.12	716598	keystroke_r	r	n/a
358.434	0.09	716868	keystroke_e	e	n/a
358.6435	0.105	717287	keystroke_a	a	n/a
358.7785	0.1055	717557	keystroke_Key.space	Key.space	n/a
358.959	0.15	717918	keystroke_c	c	n/a
359.124	0.12	718248	keystroke_h	h	n/a
359.289	0.12	718578	keystroke_r	r	n/a
359.484	0.15	718968	keystroke_o	o	n/a
359.694	0.1205	719388	keystroke_n	n	n/a
360.879	0.12	721758	keystroke_i	i	n/a
361.074	0.12	722148	keystroke_c	c	n/a
361.254	0.135	722508	keystroke_l	l	n/a
361.374	0.136	722748	keystroke_e	e	n/a
361.479	0.135	722958	keystroke_s	s	n/a
361.734	0.09	723468	keystroke_Key.enter	Key.enter	n/a
361.8285	6.102	723657	prompt	n/a	fort questionnaire ballot finals\n
362.484	0.12	724968	keystroke_f	f	n/a
362.619	0.135	725238	keystroke_o	o	n/a
362.739	0.075	725478	keystroke_r	r	n/a
362.934	0.0905	725868	keystroke_t	t	n/a
363.0695	0.105	726139	keystroke_Key.space	Key.space	n/a
363.3095	0.12	726619	keystroke_q	q	n/a
363.4445	0.135	726889	keystroke_u	u	n/a
363.5935	0.091	727187	keystroke_e	e	n/a
364.0435	0.091	728087	keystroke_s	s	n/a
364.2385	0.136	728477	keystroke_t	t	n/a
364.3895	0.12	728779	keystroke_i	i	n/a
364.4495	0.18	728899	keystroke_o	o	n/a
364.5995	0.0895	729199	keystroke_n	n	n/a
364.794	0.1345	729588	keystroke_n	n	n/a
365.14	0.104	730280	keystroke_a	a	n/a
365.304	0.135	730608	keystroke_i	i	n/a
365.409	0.15	730818	keystroke_r	r	n/a
365.574	0.136	731148	keystroke_e	e	n/a
365.724	0.09	731448	keystroke_Key.space	Key.space	n/a
365.949	0.105	731898	keystroke_b	b	n/a
366.099	0.1355	732198	keystroke_a	a	n/a
366.2195	0.105	732439	keystroke_l	l	n/a
366.3845	0.135	732769	keystroke_l	l	n/a
366.5345	0.1495	733069	keystroke_o	o	n/a
366.6395	0.1195	733279	keystroke_t	t	n/a
366.774	0.12	733548	keystroke_Key.space	Key.space	n/a
366.924	0.105	733848	keystroke_f	f	n/a
367.014	0.105	734028	keystroke_i	i	n/a
367.059	0.15	734118	keystroke_n	n	n/a
367.21	0.119	734420	keystroke_a	a	n/a
367.374	0.15	734748	keystroke_l	l	n/a
367.629	0.105	735258	keystroke_s	s	n/a
367.854	0.075	735708	keystroke_Key.enter	Key.enter	n/a
367.9335	6.057	735867	prompt	n/a	lesbian carrying lighter expects\n
368.529	0.15	737058	keystroke_l	l	n/a
368.664	0.135	737328	keystroke_e	e	n/a
368.814	0.1655	737628	keystroke_s	s	n/a
369.0395	0.1045	738079	keystroke_b	b	n/a
369.2635	0.1205	738527	keystroke_i	i	n/a
369.3685	0.1205	738737	keystroke_a	a	n/a
369.5345	0.119	739069	keystroke_n	n	n/a
369.6685	0.15	739337	keystroke_Key.space	Key.space	n/a
369.849	0.135	739698	keystroke_c	c	n/a
370.0145	0.1495	740029	keystroke_a	a	n/a
370.179	0.075	740358	keystroke_r	r	n/a
370.329	0.09	740658	keystroke_r	r	n/a
370.539	0.12	741078	keystroke_y	y	n/a
370.719	0.12	741438	keystroke_i	i	n/a
370.809	0.21	741618	keystroke_n	n	n/a
370.914	0.135	741828	keystroke_g	g	n/a
371.05	0.1345	742100	keystroke_Key.space	Key.space	n/a
371.1995	0.18	742399	keystroke_l	l	n/a
371.3195	0.135	742639	keystroke_i	i	n/a
371.4545	0.075	742909	keystroke_g	g	n/a
371.754	0.09	743508	keystroke_h	h	n/a
371.889	0.12	743778	keystroke_t	t	n/a
372.144	0.165	744288	keystroke_e	e	n/a
372.249	0.15	744498	keystroke_r	r	n/a
372.444	0.12	744888	keystroke_Key.space	Key.space	n/a
372.654	0.105	745308	keystroke_e	e	n/a
372.894	0.105	745788	keystroke_x	x	n/a
372.984	0.105	745968	keystroke_p	p	n/a
373.134	0.076	746268	keystroke_e	e	n/a
373.329	0.09	746658	keystroke_c	c	n/a
373.539	0.09	747078	keystroke_t	t	n/a
373.689	0.1345	747378	keystroke_s	s	n/a
373.9145	0.075	747829	keystroke_Key.enter	Key.enter	n/a
373.994	6.9865	747988	prompt	n/a	conspiracy groove buddy burden\n
374.6195	0.135	749239	keystroke_c	c	n/a
374.7395	0.1345	749479	keystroke_o	o	n/a
374.859	0.15	749718	keystroke_n	n	n/a
374.994	0.12	749988	keystroke_s	s	n/a
375.204	0.12	750408	keystroke_p	p	n/a
375.489	0.12	750978	keystroke_i	i	n/a
375.624	0.105	751248	keystroke_r	r	n/a
375.879	0.135	751758	keystroke_a	a	n/a
376.149	0.09	752298	keystroke_c	c	n/a
376.389	0.0905	752778	keystroke_y	y	n/a
376.5095	0.12	753019	keystroke_Key.space	Key.space	n/a
376.7495	0.09	753499	keystroke_g	g	n/a
377.2895	0.09	754579	keystroke_r	r	n/a
377.4095	0.06	754819	keystroke_o	o	n/a
377.5745	0.105	755149	keystroke_o	o	n/a
377.7545	0.12	755509	keystroke_v	v	n/a
377.9195	0.12	755839	keystroke_e	e	n/a
378.0695	0.105	756139	keystroke_Key.space	Key.space	n/a
378.2345	0.15	756469	keystroke_b	b	n/a
378.3995	0.09	756799	keystroke_u	u	n/a
378.4895	0.09	756979	keystroke_d	d	n/a
378.6545	0.105	757309	keystroke_d	d	n/a
378.8495	0.135	757699	keystroke_y	y	n/a
378.9995	0.1345	757999	keystroke_Key.space	Key.space	n/a
379.164	0.15	758328	keystroke_b	b	n/a
379.284	0.135	758568	keystroke_u	u	n/a
379.344	0.12	758688	keystroke_r	r	n/a
379.584	0.075	759168	keystroke_d	d	n/a
379.794	0.165	759588	keystroke_e	e	n/a
379.869	0.18	759738	keystroke_r	r	n/a
380.334	0.075	760668	keystroke_Key.backspace	Key.backspace	n/a
380.589	0.105	761178	keystroke_n	n	n/a
380.904	0.075	761808	keystroke_Key.enter	Key.enter	n/a
380.983	7.5875	761966	prompt	n/a	verizon ground stones legendary\n
381.594	0.12	763188	keystroke_v	v	n/a
381.804	0.105	763608	keystroke_e	e	n/a
381.864	0.12	763728	keystroke_r	r	n/a
382.299	0.09	764598	keystroke_s	s	n/a
382.959	0.075	765918	keystroke_Key.backspace	Key.backspace	n/a
383.109	0.12	766218	keystroke_z	z	n/a
383.604	0.075	767208	keystroke_Key.backspace	Key.backspace	n/a
383.844	0.15	767688	keystroke_i	i	n/a
383.9485	0.12	767897	keystroke_z	z	n/a
384.3535	0.135	768707	keystroke_o	o	n/a
384.444	0.1945	768888	keystroke_n	n	n/a
384.6085	0.15	769217	keystroke_Key.space	Key.space	n/a
384.729	0.1055	769458	keystroke_g	g	n/a
384.9235	0.1365	769847	keystroke_r	r	n/a
385.0135	0.1655	770027	keystroke_o	o	n/a
385.119	0.1505	770238	keystroke_u	u	n/a
385.194	0.2255	770388	keystroke_n	n	n/a
385.3295	0.15	770659	keystroke_d	d	n/a
385.4645	0.165	770929	keystroke_Key.space	Key.space	n/a
385.6445	0.12	771289	keystroke_s	s	n/a
385.8395	0.12	771679	keystroke_t	t	n/a
385.9745	0.135	771949	keystroke_o	o	n/a
386.0345	0.18	772069	keystroke_n	n	n/a
386.2295	0.1495	772459	keystroke_e	e	n/a
386.3195	0.1495	772639	keystroke_s	s	n/a
386.499	0.135	772998	keystroke_Key.space	Key.space	n/a
386.724	0.165	773448	keystroke_l	l	n/a
386.829	0.12	773658	keystroke_e	e	n/a
387.054	0.12	774108	keystroke_g	g	n/a
387.234	0.12	774468	keystroke_e	e	n/a
387.369	0.1355	774738	keystroke_n	n	n/a
387.6395	0.09	775279	keystroke_d	d	n/a
387.8795	0.105	775759	keystroke_a	a	n/a
388.0145	0.09	776029	keystroke_r	r	n/a
388.2395	0.135	776479	keystroke_y	y	n/a
388.4945	0.075	776989	keystroke_Key.enter	Key.enter	n/a
388.5735	6.282	777147	prompt	n/a	either troops gamespot generation\n
389.094	0.135	778188	keystroke_e	e	n/a
389.244	0.1355	778488	keystroke_i	i	n/a
389.3645	0.105	778729	keystroke_t	t	n/a
389.5145	0.15	779029	keystroke_h	h	n/a
389.6045	0.165	779209	keystroke_e	e	n/a
389.6945	0.135	779389	keystroke_r	r	n/a
389.8445	0.105	779689	keystroke_Key.space	Key.space	n/a
389.9645	0.105	779929	keystroke_t	t	n/a
390.1895	0.12	780379	keystroke_r	r	n/a
390.3545	0.09	780709	keystroke_o	o	n/a
390.6545	0.03	781309	keystroke_o	o	n/a
390.6695	0.12	781339	keystroke_p	p	n/a
390.7905	0.134	781581	keystroke_s	s	n/a
390.9095	0.135	781819	keystroke_Key.space	Key.space	n/a
391.0895	0.12	782179	keystroke_g	g	n/a
391.3145	0.105	782629	keystroke_a	a	n/a
391.4045	0.15	782809	keystroke_m	m	n/a
391.5845	0.1495	783169	keystroke_e	e	n/a
391.6895	0.1495	783379	keystroke_s	s	n/a
391.929	0.135	783858	keystroke_p	p	n/a
391.989	0.18	783978	keystroke_o	o	n/a
392.199	0.105	784398	keystroke_t	t	n/a
392.394	0.1055	784788	keystroke_Key.space	Key.space	n/a
392.6495	0.12	785299	keystroke_g	g	n/a
392.8445	0.165	785689	keystroke_e	e	n/a
393.2795	0.12	786559	keystroke_n	n	n/a
393.519	0.165	787038	keystroke_e	e	n/a
393.669	0.09	787338	keystroke_r	r	n/a
393.804	0.165	787608	keystroke_a	a	n/a
393.954	0.135	787908	keystroke_t	t	n/a
394.104	0.15	788208	keystroke_i	i	n/a
394.179	0.195	788358	keystroke_o	o	n/a
394.299	0.165	788598	keystroke_n	n	n/a
394.779	0.075	789558	keystroke_Key.enter	Key.enter	n/a
394.8605	6.2505	789721	prompt	n/a	realtors dragon allocation staffing\n
395.484	0.105	790968	keystroke_r	r	n/a
395.59	0.104	791180	keystroke_e	e	n/a
395.814	0.09	791628	keystroke_a	a	n/a
395.889	0.12	791778	keystroke_l	l	n/a
396.024	0.12	792048	keystroke_t	t	n/a
396.174	0.135	792348	keystroke_o	o	n/a
396.31	0.089	792620	keystroke_r	r	n/a
396.504	0.15	793008	keystroke_s	s	n/a
396.669	0.1205	793338	keystroke_Key.space	Key.space	n/a
396.8045	0.15	793609	keystroke_d	d	n/a
397.1045	0.0755	794209	keystroke_r	r	n/a
397.2845	0.135	794569	keystroke_a	a	n/a
397.54	0.104	795080	keystroke_g	g	n/a
397.78	0.149	795560	keystroke_o	o	n/a
397.884	0.211	795768	keystroke_n	n	n/a
398.064	0.165	796128	keystroke_Key.space	Key.space	n/a
398.23	0.12	796460	keystroke_a	a	n/a
398.335	0.075	796670	keystroke_l	l	n/a
398.484	0.151	796968	keystroke_l	l	n/a
398.62	0.119	797240	keystroke_o	o	n/a
398.725	0.105	797450	keystroke_c	c	n/a
398.845	0.09	797690	keystroke_a	a	n/a
399.025	0.134	798050	keystroke_t	t	n/a
399.084	0.165	798168	keystroke_i	i	n/a
399.189	0.165	798378	keystroke_o	o	n/a
399.28	0.1795	798560	keystroke_n	n	n/a
399.414	0.1655	798828	keystroke_Key.space	Key.space	n/a
399.5645	0.105	799129	keystroke_s	s	n/a
399.6995	0.12	799399	keystroke_t	t	n/a
399.9095	0.09	799819	keystroke_a	a	n/a
400.2395	0.09	800479	keystroke_f	f	n/a
400.4495	0.06	800899	keystroke_f	f	n/a
400.5245	0.135	801049	keystroke_i	i	n/a
400.6145	0.15	801229	keystroke_n	n	n/a
400.7795	0.09	801559	keystroke_g	g	n/a
401.0045	0.105	802009	keystroke_Key.enter	Key.enter	n/a
401.114	6.252	802228	prompt	n/a	mistress speak child apple\n
401.8445	0.15	803689	keystroke_m	m	n/a
402.0245	0.105	804049	keystroke_i	i	n/a
402.0995	0.135	804199	keystroke_s	s	n/a
402.3695	0.09	804739	keystroke_t	t	n/a
402.6095	0.165	805219	keystroke_r	r	n/a
402.8045	0.135	805609	keystroke_e	e	n/a
402.984	0.105	805968	keystroke_s	s	n/a
403.18	0.0895	806360	keystroke_s	s	n/a
403.2845	0.135	806569	keystroke_Key.space	Key.space	n/a
403.4345	0.105	806869	keystroke_s	s	n/a
403.5545	0.12	807109	keystroke_p	p	n/a
403.6295	0.105	807259	keystroke_e	e	n/a
403.9295	0.15	807859	keystroke_c	c	n/a
404.2745	0.0905	808549	keystroke_Key.backspace	Key.backspace	n/a
404.395	0.105	808790	keystroke_a	a	n/a
404.575	0.15	809150	keystroke_k	k	n/a
404.77	0.15	809540	keystroke_Key.space	Key.space	n/a
405.0395	0.1045	810079	keystroke_c	c	n/a
405.174	0.12	810348	keystroke_h	h	n/a
405.264	0.12	810528	keystroke_i	i	n/a
405.489	0.165	810978	keystroke_l	l	n/a
405.549	0.1655	811098	keystroke_d	d	n/a
405.6995	0.165	811399	keystroke_Key.space	Key.space	n/a
405.8645	0.135	811729	keystroke_a	a	n/a
406.1045	0.075	812209	keystroke_p	p	n/a
406.4645	0.075	812929	keystroke_p	p	n/a
406.6595	0.15	813319	keystroke_l	l	n/a
406.7945	0.075	813589	keystroke_e	e	n/a
407.289	0.0755	814578	keystroke_Key.enter	Key.enter	n/a
407.3685	7.9475	814737	prompt	n/a	designing belkin disposition ongoing\n
407.9345	0.09	815869	keystroke_d	d	n/a
408.2645	0.03	816529	keystroke_e	e	n/a
408.2795	0.135	816559	keystroke_s	s	n/a
408.4295	0.105	816859	keystroke_i	i	n/a
408.5495	0.12	817099	keystroke_g	g	n/a
408.7145	0.12	817429	keystroke_n	n	n/a
408.9545	0.12	817909	keystroke_i	i	n/a
409.0595	0.165	818119	keystroke_n	n	n/a
409.2395	0.09	818479	keystroke_g	g	n/a
409.3445	0.15	818689	keystroke_Key.space	Key.space	n/a
409.5845	0.12	819169	keystroke_b	b	n/a
409.81	0.12	819620	keystroke_e	e	n/a
409.915	0.12	819830	keystroke_l	l	n/a
410.245	0.15	820490	keystroke_k	k	n/a
410.5	0.12	821000	keystroke_i	i	n/a
410.59	0.195	821180	keystroke_n	n	n/a
410.799	0.18	821598	keystroke_Key.space	Key.space	n/a
411.099	0.165	822198	keystroke_d	d	n/a
411.249	0.12	822498	keystroke_i	i	n/a
411.414	0.166	822828	keystroke_s	s	n/a
411.564	0.165	823128	keystroke_p	p	n/a
411.714	0.12	823428	keystroke_o	o	n/a
412.374	0.12	824748	keystroke_s	s	n/a
412.509	0.135	825018	keystroke_i	i	n/a
412.659	0.135	825318	keystroke_t	t	n/a
412.795	0.134	825590	keystroke_i	i	n/a
412.899	0.165	825798	keystroke_o	o	n/a
412.989	0.18	825978	keystroke_n	n	n/a
413.139	0.1805	826278	keystroke_Key.space	Key.space	n/a
413.3345	0.09	826669	keystroke_g	g	n/a
413.4545	0.09	826909	keystroke_o	o	n/a
413.8	0.074	827600	keystroke_Key.backspace	Key.backspace	n/a
413.9795	0.045	827959	keystroke_Key.backspace	Key.backspace	n/a
414.2345	0.12	828469	keystroke_o	o	n/a
414.3995	0.135	828799	keystroke_n	n	n/a
414.5645	0.12	829129	keystroke_g	g	n/a
414.6995	0.12	829399	keystroke_o	o	n/a
414.8045	0.165	829609	keystroke_i	i	n/a
414.8795	0.165	829759	keystroke_n	n	n/a
414.9995	0.105	829999	keystroke_g	g	n/a
415.239	0.075	830478	keystroke_Key.enter	Key.enter	n/a
415.319	7.962	830638	prompt	n/a	strings session furnishings permitted\n
416.2145	0.105	832429	keystroke_s	s	n/a
416.3945	0.105	832789	keystroke_t	t	n/a
416.59	0.12	833180	keystroke_r	r	n/a
416.89	0.12	833780	keystroke_i	i	n/a
416.98	0.1795	833960	keystroke_n	n	n/a
417.0995	0.12	834199	keystroke_g	g	n/a
417.2645	0.18	834529	keystroke_s	s	n/a
417.4295	0.12	834859	keystroke_Key.space	Key.space	n/a
417.5945	0.105	835189	keystroke_s	s	n/a
417.7295	0.135	835459	keystroke_e	e	n/a
417.9545	0.09	835909	keystroke_s	s	n/a
418.1195	0.105	836239	keystroke_s	s	n/a
418.2395	0.165	836479	keystroke_i	i	n/a
418.3895	0.135	836779	keystroke_o	o	n/a
418.4495	0.195	836899	keystroke_n	n	n/a
418.8695	0.12	837739	keystroke_Key.space	Key.space	n/a
419.0645	0.105	838129	keystroke_f	f	n/a
419.2745	0.105	838549	keystroke_u	u	n/a
419.6045	0.105	839209	keystroke_r	r	n/a
420.009	0.105	840018	keystroke_n	n	n/a
420.264	0.12	840528	keystroke_i	i	n/a
420.444	0.12	840888	keystroke_s	s	n/a
420.565	0.104	841130	keystroke_h	h	n/a
420.73	0.119	841460	keystroke_i	i	n/a
420.79	0.18	841580	keystroke_n	n	n/a
420.985	0.089	841970	keystroke_g	g	n/a
421.284	0.136	842568	keystroke_s	s	n/a
421.434	0.135	842868	keystroke_Key.space	Key.space	n/a
421.599	0.15	843198	keystroke_p	p	n/a
421.794	0.135	843588	keystroke_e	e	n/a
421.959	0.105	843918	keystroke_r	r	n/a
422.199	0.12	844398	keystroke_m	m	n/a
422.32	0.119	844640	keystroke_i	i	n/a
422.455	0.09	844910	keystroke_t	t	n/a
422.604	0.09	845208	keystroke_t	t	n/a
422.889	0.015	845778	keystroke_e	e	n/a
423.009	0.09	846018	keystroke_d	d	n/a
423.189	0.09	846378	keystroke_Key.enter	Key.enter	n/a
423.284	5.577	846568	prompt	n/a	remix flood dear husband\n
424.194	0.105	848388	keystroke_r	r	n/a
424.344	0.135	848688	keystroke_e	e	n/a
424.495	0.149	848990	keystroke_m	m	n/a
424.63	0.135	849260	keystroke_i	i	n/a
424.839	0.12	849678	keystroke_x	x	n/a
425.064	0.12	850128	keystroke_Key.space	Key.space	n/a
425.244	0.135	850488	keystroke_f	f	n/a
425.514	0.121	851028	keystroke_l	l	n/a
425.799	0.091	851598	keystroke_o	o	n/a
425.965	0.1345	851930	keystroke_o	o	n/a
426.1145	0.12	852229	keystroke_d	d	n/a
426.2495	0.135	852499	keystroke_Key.space	Key.space	n/a
426.3545	0.1045	852709	keystroke_d	d	n/a
426.579	0.09	853158	keystroke_e	e	n/a
426.804	0.09	853608	keystroke_a	a	n/a
426.939	0.15	853878	keystroke_r	r	n/a
427.074	0.09	854148	keystroke_Key.space	Key.space	n/a
427.314	0.165	854628	keystroke_h	h	n/a
427.614	0.12	855228	keystroke_u	u	n/a
427.809	0.105	855618	keystroke_s	s	n/a
428.154	0.105	856308	keystroke_b	b	n/a
428.26	0.104	856520	keystroke_a	a	n/a
428.379	0.135	856758	keystroke_n	n	n/a
428.529	0.12	857058	keystroke_d	d	n/a
428.769	0.09	857538	keystroke_Key.enter	Key.enter	n/a
428.864	6.3115	857728	prompt	n/a	stocks evaluating stages spread\n
429.4295	0.12	858859	keystroke_s	s	n/a
429.5645	0.1205	859129	keystroke_t	t	n/a
429.6695	0.12	859339	keystroke_o	o	n/a
429.9095	0.105	859819	keystroke_c	c	n/a
429.9845	0.15	859969	keystroke_k	k	n/a
430.1645	0.1495	860329	keystroke_s	s	n/a
430.299	0.15	860598	keystroke_Key.space	Key.space	n/a
430.464	0.091	860928	keystroke_e	e	n/a
430.704	0.09	861408	keystroke_v	v	n/a
430.929	0.135	861858	keystroke_a	a	n/a
431.079	0.09	862158	keystroke_l	l	n/a
431.289	0.12	862578	keystroke_u	u	n/a
431.394	0.075	862788	keystroke_t	t	n/a
431.7845	0.075	863569	keystroke_Key.backspace	Key.backspace	n/a
431.8895	0.09	863779	keystroke_a	a	n/a
432.0695	0.105	864139	keystroke_t	t	n/a
432.1895	0.12	864379	keystroke_i	i	n/a
432.4595	0.15	864919	keystroke_n	n	n/a
432.6245	0.12	865249	keystroke_g	g	n/a
432.7595	0.12	865519	keystroke_Key.space	Key.space	n/a
432.9095	0.105	865819	keystroke_s	s	n/a
433.2095	0.105	866419	keystroke_t	t	n/a
433.3895	0.135	866779	keystroke_a	a	n/a
433.6295	0.09	867259	keystroke_g	g	n/a
433.7345	0.18	867469	keystroke_e	e	n/a
433.8395	0.18	867679	keystroke_s	s	n/a
434.0345	0.12	868069	keystroke_Key.space	Key.space	n/a
434.1685	0.121	868337	keystroke_s	s	n/a
434.3045	0.105	868609	keystroke_p	p	n/a
434.4245	0.12	868849	keystroke_r	r	n/a
434.5295	0.09	869059	keystroke_e	e	n/a
434.7545	0.12	869509	keystroke_a	a	n/a
434.8295	0.12	869659	keystroke_d	d	n/a
435.1145	0.06	870229	keystroke_Key.enter	Key.enter	n/a
435.1785	11.697	870357	prompt	n/a	significantly abandoned afghanistan borough\n
435.7745	0.105	871549	keystroke_s	s	n/a
435.8945	0.105	871789	keystroke_i	i	n/a
436.0745	0.12	872149	keystroke_g	g	n/a
436.2095	0.12	872419	keystroke_n	n	n/a
436.4645	0.105	872929	keystroke_i	i	n/a
436.7645	0.09	873529	keystroke_f	f	n/a
436.8845	0.105	873769	keystroke_i	i	n/a
437.064	0.165	874128	keystroke_c	c	n/a
437.259	0.075	874518	keystroke_a	a	n/a
437.4395	0.1045	874879	keystroke_t	t	n/a
437.574	0.105	875148	keystroke_n	n	n/a
438.054	0.075	876108	keystroke_Key.backspace	Key.backspace	n/a
438.684	0.09	877368	keystroke_Key.backspace	Key.backspace	n/a
438.969	0.12	877938	keystroke_n	n	n/a
439.329	0.135	878658	keystroke_t	t	n/a
439.644	0.105	879288	keystroke_l	l	n/a
439.734	0.105	879468	keystroke_y	y	n/a
439.944	0.12	879888	keystroke_Key.space	Key.space	n/a
440.079	0.135	880158	keystroke_a	a	n/a
440.319	0.09	880638	keystroke_b	b	n/a
440.829	0.12	881658	keystroke_a	a	n/a
440.994	0.12	881988	keystroke_n	n	n/a
441.129	0.12	882258	keystroke_d	d	n/a
441.309	0.15	882618	keystroke_o	o	n/a
441.384	0.195	882768	keystroke_n	n	n/a
441.609	0.09	883218	keystroke_e	e	n/a
441.834	0.105	883668	keystroke_d	d	n/a
441.999	0.12	883998	keystroke_Key.space	Key.space	n/a
442.164	0.06	884328	keystroke_a	a	n/a
442.344	0.09	884688	keystroke_f	f	n/a
442.884	0.105	885768	keystroke_g	g	n/a
443.034	0.1205	886068	keystroke_h	h	n/a
443.4845	0.135	886969	keystroke_a	a	n/a
443.6795	0.105	887359	keystroke_n	n	n/a
444.354	0.12	888708	keystroke_i	i	n/a
444.579	0.12	889158	keystroke_s	s	n/a
444.834	0.09	889668	keystroke_t	t	n/a
444.984	0.165	889968	keystroke_a	a	n/a
445.164	0.1205	890328	keystroke_n	n	n/a
445.2995	0.12	890599	keystroke_Key.space	Key.space	n/a
445.4795	0.12	890959	keystroke_b	b	n/a
445.7495	0.135	891499	keystroke_o	o	n/a
445.9595	0.09	891919	keystroke_r	r	n/a
446.124	0.12	892248	keystroke_o	o	n/a
446.23	0.104	892460	keystroke_u	u	n/a
446.364	0.12	892728	keystroke_g	g	n/a
446.439	0.135	892878	keystroke_h	h	n/a
446.7845	0.09	893569	keystroke_Key.enter	Key.enter	n/a
446.878	5.338	893756	prompt	n/a	flashers machinery leader see\n
447.5345	0.105	895069	keystroke_f	f	n/a
447.7145	0.135	895429	keystroke_l	l	n/a
447.8195	0.09	895639	keystroke_a	a	n/a
448.029	0.09	896058	keystroke_s	s	n/a
448.179	0.12	896358	keystroke_h	h	n/a
448.344	0.15	896688	keystroke_e	e	n/a
448.464	0.12	896928	keystroke_r	r	n/a
448.659	0.135	897318	keystroke_s	s	n/a
448.824	0.105	897648	keystroke_Key.space	Key.space	n/a
449.0645	0.12	898129	keystroke_m	m	n/a
449.1395	0.09	898279	keystroke_a	a	n/a
449.3485	0.121	898697	keystroke_c	c	n/a
449.4385	0.1055	898877	keystroke_h	h	n/a
449.529	0.1495	899058	keystroke_i	i	n/a
449.649	0.18	899298	keystroke_n	n	n/a
449.7545	0.104	899509	keystroke_e	e	n/a
449.9345	0.105	899869	keystroke_r	r	n/a
450.1595	0.12	900319	keystroke_y	y	n/a
450.3395	0.12	900679	keystroke_Key.space	Key.space	n/a
450.5345	0.1505	901069	keystroke_l	l	n/a
450.6245	0.0895	901249	keystroke_e	e	n/a
450.8345	0.135	901669	keystroke_a	a	n/a
450.9245	0.135	901849	keystroke_d	d	n/a
451.1195	0.195	902239	keystroke_e	e	n/a
451.2695	0.135	902539	keystroke_r	r	n/a
451.4795	0.105	902959	keystroke_Key.space	Key.space	n/a
451.6145	0.135	903229	keystroke_s	s	n/a
451.7195	0.09	903439	keystroke_e	e	n/a
451.8995	0.105	903799	keystroke_e	e	n/a
452.1095	0.105	904219	keystroke_Key.enter	Key.enter	n/a
452.22	8.5615	904440	prompt	n/a	trouble scholar thank hazard\n
452.919	0.12	905838	keystroke_t	t	n/a
453.129	0.135	906258	keystroke_r	r	n/a
453.234	0.105	906468	keystroke_o	o	n/a
453.4295	0.12	906859	keystroke_b	b	n/a
453.6845	0.165	907369	keystroke_l	l	n/a
453.8045	0.105	907609	keystroke_e	e	n/a
454.0445	0.0895	908089	keystroke_Key.space	Key.space	n/a
454.269	0.105	908538	keystroke_s	s	n/a
455.0495	0.045	910099	keystroke_Key.backspace	Key.backspace	n/a
455.1845	0.075	910369	keystroke_Key.backspace	Key.backspace	n/a
455.3645	0.075	910729	keystroke_Key.backspace	Key.backspace	n/a
455.515	0.0745	911030	keystroke_Key.backspace	Key.backspace	n/a
455.8145	0.075	911629	keystroke_Key.backspace	Key.backspace	n/a
456.1745	0.12	912349	keystroke_u	u	n/a
456.4145	0.105	912829	keystroke_b	b	n/a
456.6395	0.15	913279	keystroke_l	l	n/a
456.7145	0.0895	913429	keystroke_e	e	n/a
456.894	0.12	913788	keystroke_Key.space	Key.space	n/a
456.9695	0.12	913939	keystroke_s	s	n/a
457.1795	0.165	914359	keystroke_c	c	n/a
457.3595	0.105	914719	keystroke_h	h	n/a
457.5245	0.09	915049	keystroke_o	o	n/a
457.7495	0.15	915499	keystroke_l	l	n/a
457.8695	0.18	915739	keystroke_a	a	n/a
458.0195	0.12	916039	keystroke_r	r	n/a
458.1845	0.105	916369	keystroke_Key.space	Key.space	n/a
458.3945	0.12	916789	keystroke_t	t	n/a
458.4845	0.12	916969	keystroke_h	h	n/a
458.7545	0.12	917509	keystroke_a	a	n/a
458.8595	0.15	917719	keystroke_n	n	n/a
458.9945	0.15	917989	keystroke_k	k	n/a
459.1745	0.165	918349	keystroke_Key.space	Key.space	n/a
459.4595	0.135	918919	keystroke_h	h	n/a
459.5645	0.09	919129	keystroke_a	a	n/a
459.789	0.075	919578	keystroke_z	z	n/a
459.984	0.12	919968	keystroke_a	a	n/a
460.21	0.1045	920420	keystroke_r	r	n/a
460.4495	0.12	920899	keystroke_d	d	n/a
460.6895	0.09	921379	keystroke_Key.enter	Key.enter	n/a
460.784	6.207	921568	prompt	n/a	dept plenty memories julie\n
461.304	0.105	922608	keystroke_d	d	n/a
461.514	0.1055	923028	keystroke_e	e	n/a
461.59	0.1495	923180	keystroke_p	p	n/a
461.7545	0.135	923509	keystroke_t	t	n/a
461.9345	0.12	923869	keystroke_Key.space	Key.space	n/a
462.3395	0.075	924679	keystroke_p	p	n/a
462.6095	0.135	925219	keystroke_l	l	n/a
463.5245	0.12	927049	keystroke_e	e	n/a
463.6445	0.15	927289	keystroke_n	n	n/a
463.7795	0.09	927559	keystroke_t	t	n/a
463.9595	0.105	927919	keystroke_y	y	n/a
464.1395	0.12	928279	keystroke_Key.space	Key.space	n/a
464.364	0.15	928728	keystroke_m	m	n/a
464.454	0.12	928908	keystroke_e	e	n/a
464.544	0.135	929088	keystroke_m	m	n/a
465.145	0.0895	930290	keystroke_o	o	n/a
465.2495	0.12	930499	keystroke_r	r	n/a
465.4295	0.135	930859	keystroke_i	i	n/a
465.5795	0.15	931159	keystroke_e	e	n/a
465.6845	0.15	931369	keystroke_s	s	n/a
465.8495	0.075	931699	keystroke_Key.space	Key.space	n/a
466.0445	0.09	932089	keystroke_j	j	n/a
466.2395	0.075	932479	keystroke_u	u	n/a
466.4495	0.18	932899	keystroke_l	l	n/a
466.5695	0.135	933139	keystroke_i	i	n/a
466.6745	0.105	933349	keystroke_e	e	n/a
466.8995	0.09	933799	keystroke_Key.enter	Key.enter	n/a
466.995	8.876	933990	prompt	n/a	poetry pharmaceutical activity task\n
467.605	0.105	935210	keystroke_p	p	n/a
467.995	0.1045	935990	keystroke_o	o	n/a
468.2945	0.1055	936589	keystroke_e	e	n/a
468.52	0.12	937040	keystroke_t	t	n/a
468.895	0.075	937790	keystroke_r	r	n/a
469.1045	0.09	938209	keystroke_y	y	n/a
469.3145	0.09	938629	keystroke_Key.space	Key.space	n/a
469.4645	0.12	938929	keystroke_p	p	n/a
469.7195	0.12	939439	keystroke_h	h	n/a
469.8245	0.165	939649	keystroke_a	a	n/a
469.9595	0.12	939919	keystroke_r	r	n/a
470.1545	0.165	940309	keystroke_m	m	n/a
470.4995	0.105	940999	keystroke_a	a	n/a
470.7395	0.12	941479	keystroke_c	c	n/a
471.355	0.105	942710	keystroke_e	e	n/a
471.49	0.1345	942980	keystroke_u	u	n/a
471.6695	0.105	943339	keystroke_t	t	n/a
472.0895	0.135	944179	keystroke_i	i	n/a
472.2695	0.09	944539	keystroke_a	a	n/a
472.6745	0.075	945349	keystroke_Key.backspace	Key.backspace	n/a
472.7795	0.12	945559	keystroke_c	c	n/a
472.9745	0.12	945949	keystroke_a	a	n/a
473.0795	0.15	946159	keystroke_l	l	n/a
473.2595	0.135	946519	keystroke_Key.space	Key.space	n/a
473.4395	0.12	946879	keystroke_a	a	n/a
473.6645	0.12	947329	keystroke_c	c	n/a
473.935	0.1045	947870	keystroke_t	t	n/a
474.0095	0.135	948019	keystroke_i	i	n/a
474.2195	0.12	948439	keystroke_v	v	n/a
474.2645	0.135	948529	keystroke_i	i	n/a
474.4595	0.0905	948919	keystroke_t	t	n/a
474.6545	0.09	949309	keystroke_y	y	n/a
474.8495	0.105	949699	keystroke_Key.space	Key.space	n/a
474.9545	0.1055	949909	keystroke_t	t	n/a
475.12	0.135	950240	keystroke_a	a	n/a
475.359	0.105	950718	keystroke_s	s	n/a
475.42	0.12	950840	keystroke_k	k	n/a
475.795	0.074	951590	keystroke_Key.enter	Key.enter	n/a
475.8735	9.3725	951747	prompt	n/a	replies contamination specification unwrap\n
476.5295	0.1205	953059	keystroke_r	r	n/a
476.665	0.135	953330	keystroke_e	e	n/a
476.815	0.105	953630	keystroke_p	p	n/a
477.0545	0.135	954109	keystroke_l	l	n/a
477.4145	0.1195	954829	keystroke_i	i	n/a
477.639	0.166	955278	keystroke_e	e	n/a
477.745	0.135	955490	keystroke_s	s	n/a
477.939	0.105	955878	keystroke_Key.space	Key.space	n/a
478.149	0.12	956298	keystroke_c	c	n/a
478.239	0.15	956478	keystroke_o	o	n/a
478.344	0.165	956688	keystroke_n	n	n/a
478.494	0.09	956988	keystroke_t	t	n/a
478.644	0.165	957288	keystroke_a	a	n/a
478.779	0.09	957558	keystroke_m	m	n/a
479.019	0.165	958038	keystroke_i	i	n/a
479.124	0.1805	958248	keystroke_n	n	n/a
479.29	0.0895	958580	keystroke_a	a	n/a
479.4845	0.135	958969	keystroke_t	t	n/a
479.6345	0.135	959269	keystroke_i	i	n/a
479.7095	0.195	959419	keystroke_o	o	n/a
479.8445	0.18	959689	keystroke_n	n	n/a
479.9945	0.135	959989	keystroke_Key.space	Key.space	n/a
480.1305	0.089	960261	keystroke_s	s	n/a
480.2495	0.12	960499	keystroke_p	p	n/a
480.3845	0.09	960769	keystroke_e	e	n/a
480.6245	0.0895	961249	keystroke_c	c	n/a
480.744	0.105	961488	keystroke_i	i	n/a
480.864	0.12	961728	keystroke_f	f	n/a
481.014	0.136	962028	keystroke_i	i	n/a
481.165	0.12	962330	keystroke_c	c	n/a
481.33	0.135	962660	keystroke_a	a	n/a
481.45	0.15	962900	keystroke_t	t	n/a
481.57	0.195	963140	keystroke_i	i	n/a
481.69	0.165	963380	keystroke_o	o	n/a
481.75	0.21	963500	keystroke_n	n	n/a
481.915	0.195	963830	keystroke_Key.space	Key.space	n/a
482.1395	0.18	964279	keystroke_u	u	n/a
482.3045	0.225	964609	keystroke_n	n	n/a
482.5145	0.18	965029	keystroke_Key.space	Key.space	n/a
482.6795	0.105	965359	keystroke_w	w	n/a
482.9795	0.135	965959	keystroke_r	r	n/a
483.3695	0.09	966739	keystroke_Key.backspace	Key.backspace	n/a
483.5645	0.075	967129	keystroke_Key.backspace	Key.backspace	n/a
483.6995	0.105	967399	keystroke_Key.backspace	Key.backspace	n/a
484.0145	0.12	968029	keystroke_w	w	n/a
484.2545	0.03	968509	keystroke_r	r	n/a
484.749	0.12	969498	keystroke_a	a	n/a
484.824	0.12	969648	keystroke_p	p	n/a
485.169	0.075	970338	keystroke_Key.enter	Key.enter	n/a
485.249	5.427	970498	prompt	n/a	automation formal trek ashley\n
485.889	0.09	971778	keystroke_a	a	n/a
486.084	0.106	972168	keystroke_u	u	n/a
486.22	0.105	972440	keystroke_t	t	n/a
486.3845	0.1055	972769	keystroke_o	o	n/a
486.5945	0.105	973189	keystroke_m	m	n/a
486.7595	0.09	973519	keystroke_a	a	n/a
486.9695	0.105	973939	keystroke_t	t	n/a
487.0445	0.165	974089	keystroke_i	i	n/a
487.1495	0.165	974299	keystroke_o	o	n/a
487.2245	0.195	974449	keystroke_n	n	n/a
487.3895	0.1505	974779	keystroke_Key.space	Key.space	n/a
487.495	0.12	974990	keystroke_f	f	n/a
487.63	0.09	975260	keystroke_o	o	n/a
487.75	0.105	975500	keystroke_r	r	n/a
487.9	0.105	975800	keystroke_m	m	n/a
488.02	0.135	976040	keystroke_a	a	n/a
488.14	0.15	976280	keystroke_l	l	n/a
488.26	0.179	976520	keystroke_Key.space	Key.space	n/a
488.395	0.075	976790	keystroke_t	t	n/a
488.62	0.12	977240	keystroke_r	r	n/a
488.964	0.105	977928	keystroke_e	e	n/a
489.129	0.15	978258	keystroke_k	k	n/a
489.324	0.1655	978648	keystroke_Key.space	Key.space	n/a
489.5045	0.105	979009	keystroke_a	a	n/a
489.7445	0.075	979489	keystroke_s	s	n/a
489.8495	0.12	979699	keystroke_h	h	n/a
490.1045	0.1505	980209	keystroke_l	l	n/a
490.1645	0.1055	980329	keystroke_e	e	n/a
490.375	0.135	980750	keystroke_y	y	n/a
490.585	0.09	981170	keystroke_Key.enter	Key.enter	n/a
490.679	7.137	981358	prompt	n/a	popularity charleston ministries suite\n
491.2745	0.12	982549	keystroke_p	p	n/a
491.4095	0.1955	982819	keystroke_o	o	n/a
491.575	0.09	983150	keystroke_p	p	n/a
491.785	0.105	983570	keystroke_u	u	n/a
492.025	0.1045	984050	keystroke_l	l	n/a
492.0995	0.12	984199	keystroke_a	a	n/a
492.2045	0.105	984409	keystroke_r	r	n/a
492.3395	0.135	984679	keystroke_i	i	n/a
492.4445	0.0905	984889	keystroke_t	t	n/a
492.655	0.075	985310	keystroke_y	y	n/a
492.775	0.12	985550	keystroke_Key.space	Key.space	n/a
492.97	0.104	985940	keystroke_c	c	n/a
493.119	0.105	986238	keystroke_h	h	n/a
493.284	0.105	986568	keystroke_a	a	n/a
493.434	0.12	986868	keystroke_r	r	n/a
493.599	0.15	987198	keystroke_l	l	n/a
