onset	duration	sample	value	key	prompt_text
6.2205	7.2835	12441	prompt	n/a	the quick brown fox jumps over a lazy dog\n
7.278	0.043	14556	keystroke_t	t	n/a
7.279	0.087	14558	keystroke_h	h	n/a
7.426	0.165	14852	keystroke_e	e	n/a
7.576	0.0905	15152	keystroke_Key.space	Key.space	n/a
7.7415	0.0895	15483	keystroke_q	q	n/a
7.906	0.09	15812	keystroke_u	u	n/a
8.086	0.075	16172	keystroke_i	i	n/a
8.1765	0.09	16353	keystroke_c	c	n/a
8.2815	0.105	16563	keystroke_k	k	n/a
8.3415	0.075	16683	keystroke_Key.space	Key.space	n/a
8.4765	0.09	16953	keystroke_b	b	n/a
8.5815	0.12	17163	keystroke_r	r	n/a
8.6865	0.075	17373	keystroke_o	o	n/a
8.7915	0.1205	17583	keystroke_w	w	n/a
8.8515	0.0755	17703	keystroke_n	n	n/a
9.017	0.06	18034	keystroke_Key.space	Key.space	n/a
9.122	0.09	18244	keystroke_f	f	n/a
9.197	0.075	18394	keystroke_o	o	n/a
9.302	0.1495	18604	keystroke_x	x	n/a
9.4365	0.09	18873	keystroke_Key.space	Key.space	n/a
9.5715	0.09	19143	keystroke_j	j	n/a
9.7515	0.06	19503	keystroke_u	u	n/a
9.8865	0.09	19773	keystroke_m	m	n/a
10.0665	0.06	20133	keystroke_p	p	n/a
10.1415	0.09	20283	keystroke_s	s	n/a
10.2015	0.075	20403	keystroke_Key.space	Key.space	n/a
10.3065	0.09	20613	keystroke_o	o	n/a
10.3815	0.09	20763	keystroke_v	v	n/a
10.5015	0.18	21003	keystroke_r	r	n/a
10.6965	0.06	21393	keystroke_Key.space	Key.space	n/a
10.9815	0.06	21963	keystroke_Key.backspace	Key.backspace	n/a
11.1015	0.09	22203	keystroke_Key.backspace	Key.backspace	n/a
11.2065	0.105	22413	keystroke_e	e	n/a
11.2665	0.105	22533	keystroke_r	r	n/a
11.3565	0.075	22713	keystroke_Key.space	Key.space	n/a
11.4615	0.09	22923	keystroke_a	a	n/a
11.5215	0.06	23043	keystroke_Key.space	Key.space	n/a
11.7015	0.0745	23403	keystroke_l	l	n/a
11.821	0.045	23642	keystroke_a	a	n/a
12.031	0.12	24062	keystroke_z	z	n/a
12.286	0.075	24572	keystroke_y	y	n/a
12.436	0.0755	24872	keystroke_Key.space	Key.space	n/a
12.5265	0.135	25053	keystroke_d	d	n/a
12.6165	0.075	25233	keystroke_o	o	n/a
12.7215	0.09	25443	keystroke_g	g	n/a
13.427	0.075	26854	keystroke_Key.enter	Key.enter	n/a
13.508	4.45	27016	prompt	n/a	no slots modern wrapped\n
14.177	0.09	28354	keystroke_n	n	n/a
14.222	0.09	28444	keystroke_o	o	n/a
14.3565	0.0755	28713	keystroke_Key.space	Key.space	n/a
14.402	0.135	28804	keystroke_s	s	n/a
14.537	0.06	29074	keystroke_l	l	n/a
14.687	0.06	29374	keystroke_o	o	n/a
14.837	0.12	29674	keystroke_t	t	n/a
14.912	0.15	29824	keystroke_s	s	n/a
15.032	0.075	30064	keystroke_Key.space	Key.space	n/a
15.197	0.09	30394	keystroke_m	m	n/a
15.227	0.0895	30454	keystroke_o	o	n/a
15.3015	0.0755	30603	keystroke_d	d	n/a
15.6015	0.1045	31203	keystroke_e	e	n/a
15.6615	0.135	31323	keystroke_r	r	n/a
15.767	0.0595	31534	keystroke_n	n	n/a
15.9015	0.075	31803	keystroke_Key.space	Key.space	n/a
15.9915	0.12	31983	keystroke_w	w	n/a
16.2915	0.105	32583	keystroke_r	r	n/a
16.4265	0.15	32853	keystroke_a	a	n/a
16.5315	0.06	33063	keystroke_p	p	n/a
16.6515	0.075	33303	keystroke_p	p	n/a
16.7415	0.075	33483	keystroke_e	e	n/a
16.9075	0.089	33815	keystroke_d	d	n/a
17.9415	0.015	35883	keystroke_Key.enter	Key.enter	n/a
17.961	9.1625	35922	prompt	n/a	then laughing recognized anthropology\n
18.6015	0.12	37203	keystroke_t	t	n/a
18.6465	0.105	37293	keystroke_h	h	n/a
18.8265	0.105	37653	keystroke_e	e	n/a
18.9015	0.06	37803	keystroke_n	n	n/a
19.0365	0.09	38073	keystroke_Key.space	Key.space	n/a
19.2015	0.105	38403	keystroke_l	l	n/a
19.3215	0.12	38643	keystroke_a	a	n/a
19.4865	0.075	38973	keystroke_u	u	n/a
19.6065	0.1055	39213	keystroke_g	g	n/a
19.6815	0.0605	39363	keystroke_h	h	n/a
19.787	0.135	39574	keystroke_i	i	n/a
19.862	0.105	39724	keystroke_n	n	n/a
19.982	0.105	39964	keystroke_g	g	n/a
20.387	0.09	40774	keystroke_Key.space	Key.space	n/a
20.642	0.12	41284	keystroke_r	r	n/a
20.717	0.09	41434	keystroke_e	e	n/a
21.227	0.0895	42454	keystroke_c	c	n/a
21.3465	0.075	42693	keystroke_o	o	n/a
21.5565	0.09	43113	keystroke_g	g	n/a
21.692	0.12	43384	keystroke_n	n	n/a
22.007	0.075	44014	keystroke_i	i	n/a
22.097	0.1345	44194	keystroke_z	z	n/a
22.3365	0.075	44673	keystroke_e	e	n/a
22.487	0.12	44974	keystroke_d	d	n/a
22.6215	0.0905	45243	keystroke_Key.space	Key.space	n/a
22.757	0.0895	45514	keystroke_a	a	n/a
22.8325	0.059	45665	keystroke_n	n	n/a
22.9965	0.12	45993	keystroke_t	t	n/a
23.0715	0.09	46143	keystroke_h	h	n/a
23.2665	0.09	46533	keystroke_e	e	n/a
23.7165	0.0755	47433	keystroke_Key.backspace	Key.backspace	n/a
23.807	0.06	47614	keystroke_r	r	n/a
23.927	0.09	47854	keystroke_o	o	n/a
24.302	0.09	48604	keystroke_p	p	n/a
24.5265	0.075	49053	keystroke_o	o	n/a
24.7365	0.09	49473	keystroke_l	l	n/a
24.8715	0.075	49743	keystroke_o	o	n/a
25.0065	0.09	50013	keystroke_g	g	n/a
25.2015	0.061	50403	keystroke_y	y	n/a
27.047	0.075	54094	keystroke_Key.enter	Key.enter	n/a
27.126	9.4625	54252	prompt	n/a	spice distributors pioneer duke\n
27.767	0.09	55534	keystroke_s	s	n/a
27.812	0.09	55624	keystroke_p	p	n/a
27.962	0.105	55924	keystroke_i	i	n/a
28.082	0.0745	56164	keystroke_r	r	n/a
28.2615	0.1055	56523	keystroke_c	c	n/a
28.307	0.135	56614	keystroke_e	e	n/a
28.757	0.06	57514	keystroke_Key.backspace	Key.backspace	n/a
28.892	0.06	57784	keystroke_Key.backspace	Key.backspace	n/a
29.012	0.09	58024	keystroke_Key.backspace	Key.backspace	n/a
29.132	0.105	58264	keystroke_c	c	n/a
29.177	0.135	58354	keystroke_e	e	n/a
29.4915	0.09	58983	keystroke_Key.space	Key.space	n/a
29.7315	0.105	59463	keystroke_d	d	n/a
29.8515	0.075	59703	keystroke_i	i	n/a
29.9715	0.09	59943	keystroke_s	s	n/a
30.1665	0.075	60333	keystroke_t	t	n/a
30.1965	0.105	60393	keystroke_r	r	n/a
31.457	0.0745	62914	keystroke_u	u	n/a
31.577	0.0745	63154	keystroke_b	b	n/a
32.4615	0.0905	64923	keystroke_Key.backspace	Key.backspace	n/a
32.612	0.075	65224	keystroke_Key.backspace	Key.backspace	n/a
33.287	0.075	66574	keystroke_i	i	n/a
33.422	0.09	66844	keystroke_b	b	n/a
33.542	0.06	67084	keystroke_u	u	n/a
33.662	0.09	67324	keystroke_t	t	n/a
33.782	0.075	67564	keystroke_o	o	n/a
33.887	0.09	67774	keystroke_r	r	n/a
34.052	0.15	68104	keystroke_s	s	n/a
34.187	0.09	68374	keystroke_Key.space	Key.space	n/a
34.397	0.075	68794	keystroke_p	p	n/a
34.592	0.06	69184	keystroke_i	i	n/a
34.727	0.09	69454	keystroke_o	o	n/a
34.802	0.06	69604	keystroke_n	n	n/a
34.952	0.075	69904	keystroke_e	e	n/a
35.1015	0.12	70203	keystroke_e	e	n/a
35.2065	0.105	70413	keystroke_r	r	n/a
35.4465	0.06	70893	keystroke_Key.space	Key.space	n/a
35.5215	0.12	71043	keystroke_d	d	n/a
35.7465	0.075	71493	keystroke_u	u	n/a
35.9115	0.075	71823	keystroke_k	k	n/a
36.0165	0.075	72033	keystroke_e	e	n/a
36.527	0.06	73054	keystroke_Key.enter	Key.enter	n/a
36.5935	5.305	73187	prompt	n/a	teddy reductions soon lovers\n
37.2315	0.1205	74463	keystroke_t	t	n/a
37.307	0.12	74614	keystroke_e	e	n/a
37.577	0.0745	75154	keystroke_d	d	n/a
37.7115	0.1205	75423	keystroke_d	d	n/a
37.862	0.0895	75724	keystroke_y	y	n/a
37.967	0.0895	75934	keystroke_Key.space	Key.space	n/a
38.192	0.1355	76384	keystroke_r	r	n/a
38.2525	0.105	76505	keystroke_e	e	n/a
38.5075	0.12	77015	keystroke_d	d	n/a
38.7625	0.075	77525	keystroke_u	u	n/a
38.8675	0.105	77735	keystroke_c	c	n/a
39.0925	0.0895	78185	keystroke_t	t	n/a
39.183	0.0895	78366	keystroke_i	i	n/a
39.3325	0.1045	78665	keystroke_o	o	n/a
39.392	0.105	78784	keystroke_n	n	n/a
39.482	0.09	78964	keystroke_s	s	n/a
39.617	0.09	79234	keystroke_Key.space	Key.space	n/a
39.782	0.09	79564	keystroke_s	s	n/a
39.842	0.0745	79684	keystroke_o	o	n/a
39.9615	0.105	79923	keystroke_o	o	n/a
40.0365	0.12	80073	keystroke_n	n	n/a
40.2915	0.06	80583	keystroke_Key.space	Key.space	n/a
40.442	0.075	80884	keystroke_l	l	n/a
40.577	0.075	81154	keystroke_o	o	n/a
40.667	0.1195	81334	keystroke_v	v	n/a
40.8315	0.1505	81663	keystroke_e	e	n/a
40.922	0.12	81844	keystroke_r	r	n/a
41.102	0.135	82204	keystroke_s	s	n/a
41.8525	0.045	83705	keystroke_Key.enter	Key.enter	n/a
41.9015	5.577	83803	prompt	n/a	tutorial one anymore fuzzy\n
42.4375	0.1495	84875	keystroke_t	t	n/a
42.707	0.075	85414	keystroke_u	u	n/a
42.812	0.105	85624	keystroke_t	t	n/a
43.172	0.09	86344	keystroke_o	o	n/a
43.277	0.105	86554	keystroke_r	r	n/a
43.367	0.09	86734	keystroke_i	i	n/a
43.442	0.135	86884	keystroke_a	a	n/a
43.562	0.075	87124	keystroke_l	l	n/a
43.712	0.075	87424	keystroke_Key.space	Key.space	n/a
43.862	0.105	87724	keystroke_o	o	n/a
43.907	0.09	87814	keystroke_n	n	n/a
43.982	0.09	87964	keystroke_e	e	n/a
44.087	0.075	88174	keystroke_Key.space	Key.space	n/a
44.207	0.12	88414	keystroke_a	a	n/a
44.312	0.09	88624	keystroke_n	n	n/a
44.432	0.0895	88864	keystroke_y	y	n/a
44.5375	0.134	89075	keystroke_m	m	n/a
44.6275	0.089	89255	keystroke_o	o	n/a
44.6875	0.149	89375	keystroke_r	r	n/a
44.7765	0.136	89553	keystroke_e	e	n/a
44.9865	0.075	89973	keystroke_Key.space	Key.space	n/a
45.2265	0.09	90453	keystroke_f	f	n/a
45.3625	0.075	90725	keystroke_u	u	n/a
45.7075	0.089	91415	keystroke_x	x	n/a
45.947	0.045	91894	keystroke_z	z	n/a
46.202	0.0755	92404	keystroke_Key.backspace	Key.backspace	n/a
46.3375	0.075	92675	keystroke_Key.backspace	Key.backspace	n/a
46.4275	0.09	92855	keystroke_z	z	n/a
46.5925	0.105	93185	keystroke_z	z	n/a
46.9825	0.1045	93965	keystroke_y	y	n/a
47.402	0.075	94804	keystroke_Key.enter	Key.enter	n/a
47.483	7.751	94966	prompt	n/a	francis toronto violin massive\n
48.122	0.105	96244	keystroke_f	f	n/a
48.347	0.135	96694	keystroke_r	r	n/a
48.483	0.089	96966	keystroke_a	a	n/a
48.602	0.09	97204	keystroke_n	n	n/a
48.722	0.105	97444	keystroke_c	c	n/a
48.812	0.09	97624	keystroke_i	i	n/a
48.917	0.105	97834	keystroke_s	s	n/a
49.052	0.09	98104	keystroke_Key.space	Key.space	n/a
49.367	0.09	98734	keystroke_t	t	n/a
49.442	0.09	98884	keystroke_o	o	n/a
49.562	0.09	99124	keystroke_r	r	n/a
50.102	0.09	100204	keystroke_o	o	n/a
50.252	0.075	100504	keystroke_n	n	n/a
50.492	0.075	100984	keystroke_t	t	n/a
50.882	0.06	101764	keystroke_o	o	n/a
51.107	0.09	102214	keystroke_Key.space	Key.space	n/a
51.317	0.075	102634	keystroke_v	v	n/a
51.377	0.075	102754	keystroke_i	i	n/a
51.8425	0.09	103685	keystroke_o	o	n/a
52.0225	0.09	104045	keystroke_l	l	n/a
52.1725	0.105	104345	keystroke_i	i	n/a
52.2325	0.09	104465	keystroke_n	n	n/a
52.5625	0.075	105125	keystroke_Key.space	Key.space	n/a
52.7275	0.0745	105455	keystroke_m	m	n/a
52.817	0.105	105634	keystroke_a	a	n/a
52.937	0.09	105874	keystroke_s	s	n/a
53.102	0.12	106204	keystroke_s	s	n/a
53.267	0.06	106534	keystroke_i	i	n/a
53.417	0.09	106834	keystroke_v	v	n/a
53.447	0.12	106894	keystroke_e	e	n/a
55.172	0.06	110344	keystroke_Key.enter	Key.enter	n/a
55.2385	6.76	110477	prompt	n/a	clothing neutral cement interest\n
55.847	0.105	111694	keystroke_c	c	n/a
55.922	0.09	111844	keystroke_l	l	n/a
56.072	0.09	112144	keystroke_o	o	n/a
56.222	0.12	112444	keystroke_t	t	n/a
56.282	0.105	112564	keystroke_h	h	n/a
56.357	0.09	112714	keystroke_i	i	n/a
56.402	0.1055	112804	keystroke_n	n	n/a
56.4925	0.09	112985	keystroke_g	g	n/a
56.6275	0.09	113255	keystroke_Key.space	Key.space	n/a
56.852	0.09	113704	keystroke_n	n	n/a
56.987	0.0895	113974	keystroke_e	e	n/a
57.1515	0.076	114303	keystroke_u	u	n/a
57.2565	0.105	114513	keystroke_t	t	n/a
57.3175	0.105	114635	keystroke_r	r	n/a
57.5125	0.15	115025	keystroke_a	a	n/a
57.6775	0.105	115355	keystroke_l	l	n/a
57.8565	0.075	115713	keystroke_Key.space	Key.space	n/a
58.3065	0.136	116613	keystroke_c	c	n/a
58.3815	0.1055	116763	keystroke_e	e	n/a
58.4715	0.0755	116943	keystroke_m	m	n/a
58.577	0.09	117154	keystroke_e	e	n/a
58.787	0.075	117574	keystroke_n	n	n/a
58.892	0.105	117784	keystroke_t	t	n/a
59.582	0.015	119164	keystroke_Key.space	Key.space	n/a
59.837	0.105	119674	keystroke_i	i	n/a
59.927	0.09	119854	keystroke_n	n	n/a
60.002	0.12	120004	keystroke_t	t	n/a
60.167	0.12	120334	keystroke_e	e	n/a
60.362	0.105	120724	keystroke_r	r	n/a
60.437	0.06	120874	keystroke_e	e	n/a
60.8115	0.1355	121623	keystroke_s	s	n/a
60.932	0.105	121864	keystroke_t	t	n/a
61.907	0.09	123814	keystroke_Key.enter	Key.enter	n/a
62.003	6.8955	124006	prompt	n/a	fancy appropriate involves note\n
62.552	0.15	125104	keystroke_f	f	n/a
62.642	0.135	125284	keystroke_a	a	n/a
62.762	0.0895	125524	keystroke_n	n	n/a
62.8665	0.12	125733	keystroke_c	c	n/a
63.0915	0.09	126183	keystroke_y	y	n/a
63.1965	0.09	126393	keystroke_Key.space	Key.space	n/a
63.542	0.12	127084	keystroke_a	a	n/a
63.647	0.06	127294	keystroke_p	p	n/a
63.752	0.09	127504	keystroke_p	p	n/a
63.917	0.105	127834	keystroke_r	r	n/a
64.007	0.075	128014	keystroke_o	o	n/a
64.1865	0.075	128373	keystroke_p	p	n/a
64.3965	0.045	128793	keystroke_r	r	n/a
64.937	0.105	129874	keystroke_i	i	n/a
65.072	0.06	130144	keystroke_a	a	n/a
65.177	0.045	130354	keystroke_e	e	n/a
65.627	0.12	131254	keystroke_Key.backspace	Key.backspace	n/a
65.792	0.12	131584	keystroke_t	t	n/a
65.867	0.12	131734	keystroke_e	e	n/a
66.242	0.09	132484	keystroke_Key.space	Key.space	n/a
66.527	0.0745	133054	keystroke_i	i	n/a
66.572	0.0895	133144	keystroke_n	n	n/a
66.7365	0.12	133473	keystroke_v	v	n/a
66.8415	0.06	133683	keystroke_o	o	n/a
66.9915	0.09	133983	keystroke_l	l	n/a
67.0665	0.09	134133	keystroke_v	v	n/a
67.1415	0.12	134283	keystroke_e	e	n/a
67.352	0.135	134704	keystroke_s	s	n/a
67.667	0.075	135334	keystroke_Key.space	Key.space	n/a
67.847	0.105	135694	keystroke_n	n	n/a
67.907	0.12	135814	keystroke_o	o	n/a
68.042	0.12	136084	keystroke_t	t	n/a
68.102	0.12	136204	keystroke_e	e	n/a
68.8515	0.045	137703	keystroke_Key.enter	Key.enter	n/a
68.9015	5.157	137803	prompt	n/a	future evident intro lovers\n
69.467	0.12	138934	keystroke_f	f	n/a
69.602	0.06	139204	keystroke_u	u	n/a
69.737	0.105	139474	keystroke_t	t	n/a
70.0215	0.075	140043	keystroke_u	u	n/a
70.3215	0.1355	140643	keystroke_r	r	n/a
70.3965	0.12	140793	keystroke_e	e	n/a
70.5915	0.105	141183	keystroke_Key.space	Key.space	n/a
70.7415	0.09	141483	keystroke_e	e	n/a
70.9665	0.0905	141933	keystroke_v	v	n/a
71.0715	0.0755	142143	keystroke_i	i	n/a
71.2365	0.075	142473	keystroke_d	d	n/a
71.3865	0.0905	142773	keystroke_e	e	n/a
71.4615	0.075	142923	keystroke_n	n	n/a
71.6115	0.0755	143223	keystroke_t	t	n/a
71.852	0.0905	143704	keystroke_Key.space	Key.space	n/a
72.002	0.105	144004	keystroke_i	i	n/a
72.077	0.06	144154	keystroke_n	n	n/a
72.197	0.12	144394	keystroke_t	t	n/a
72.257	0.135	144514	keystroke_r	r	n/a
72.347	0.09	144694	keystroke_o	o	n/a
72.602	0.075	145204	keystroke_Key.space	Key.space	n/a
72.947	0.075	145894	keystroke_l	l	n/a
73.082	0.075	146164	keystroke_o	o	n/a
73.187	0.1055	146374	keystroke_v	v	n/a
73.2775	0.1195	146555	keystroke_e	e	n/a
73.352	0.12	146704	keystroke_r	r	n/a
73.5475	0.1195	147095	keystroke_s	s	n/a
73.9815	0.075	147963	keystroke_Key.enter	Key.enter	n/a
74.061	9.3425	148122	prompt	n/a	packages photographers order mortgages\n
74.882	0.105	149764	keystroke_p	p	n/a
75.002	0.15	150004	keystroke_a	a	n/a
75.122	0.135	150244	keystroke_c	c	n/a
75.212	0.075	150424	keystroke_k	k	n/a
75.332	0.12	150664	keystroke_a	a	n/a
75.512	0.12	151024	keystroke_g	g	n/a
75.587	0.105	151174	keystroke_e	e	n/a
75.797	0.105	151594	keystroke_s	s	n/a
75.992	0.09	151984	keystroke_Key.space	Key.space	n/a
76.187	0.09	152374	keystroke_o	o	n/a
76.562	0.0755	153124	keystroke_Key.backspace	Key.backspace	n/a
76.7425	0.09	153485	keystroke_p	p	n/a
76.8625	0.105	153725	keystroke_h	h	n/a
76.9825	0.09	153965	keystroke_o	o	n/a
77.4025	0.06	154805	keystroke_t	t	n/a
77.7475	0.09	155495	keystroke_o	o	n/a
77.8825	0.1195	155765	keystroke_g	g	n/a
77.9425	0.1195	155885	keystroke_r	r	n/a
78.152	0.12	156304	keystroke_a	a	n/a
78.587	0.09	157174	keystroke_p	p	n/a
78.782	0.105	157564	keystroke_h	h	n/a
78.932	0.15	157864	keystroke_e	e	n/a
79.022	0.105	158044	keystroke_r	r	n/a
79.202	0.12	158404	keystroke_s	s	n/a
79.6065	0.075	159213	keystroke_Key.space	Key.space	n/a
79.7415	0.09	159483	keystroke_o	o	n/a
79.8465	0.09	159693	keystroke_r	r	n/a
80.0265	0.12	160053	keystroke_d	d	n/a
80.2215	0.1505	160443	keystroke_e	e	n/a
80.282	0.15	160564	keystroke_r	r	n/a
80.747	0.06	161494	keystroke_Key.space	Key.space	n/a
80.912	0.135	161824	keystroke_m	m	n/a
80.987	0.105	161974	keystroke_o	o	n/a
81.107	0.135	162214	keystroke_r	r	n/a
81.182	0.135	162364	keystroke_t	t	n/a
81.6315	0.1355	163263	keystroke_g	g	n/a
81.7815	0.1205	163563	keystroke_a	a	n/a
81.9025	0.164	163805	keystroke_g	g	n/a
82.0215	0.1055	164043	keystroke_e	e	n/a
82.2475	0.12	164495	keystroke_s	s	n/a
83.327	0.075	166654	keystroke_Key.enter	Key.enter	n/a
83.4085	8.35	166817	prompt	n/a	essex experienced binary biographies\n
84.047	0.075	168094	keystroke_e	e	n/a
84.6775	0.074	169355	keystroke_s	s	n/a
84.7675	0.119	169535	keystroke_s	s	n/a
85.0075	0.075	170015	keystroke_e	e	n/a
85.1875	0.104	170375	keystroke_x	x	n/a
85.4265	0.075	170853	keystroke_y	y	n/a
85.5615	0.09	171123	keystroke_Key.space	Key.space	n/a
85.9365	0.06	171873	keystroke_Key.backspace	Key.backspace	n/a
86.0715	0.06	172143	keystroke_Key.backspace	Key.backspace	n/a
86.2515	0.09	172503	keystroke_Key.space	Key.space	n/a
86.3265	0.06	172653	keystroke_e	e	n/a
86.7915	0.075	173583	keystroke_x	x	n/a
86.9715	0.09	173943	keystroke_p	p	n/a
87.1365	0.09	174273	keystroke_e	e	n/a
87.1665	0.12	174333	keystroke_r	r	n/a
87.2875	0.104	174575	keystroke_i	i	n/a
87.3765	0.075	174753	keystroke_e	e	n/a
87.4525	0.089	174905	keystroke_n	n	n/a
87.6015	0.1505	175203	keystroke_c	c	n/a
87.7065	0.1205	175413	keystroke_e	e	n/a
87.917	0.105	175834	keystroke_d	d	n/a
88.0825	0.0895	176165	keystroke_Key.space	Key.space	n/a
88.247	0.09	176494	keystroke_b	b	n/a
88.352	0.1045	176704	keystroke_i	i	n/a
88.4115	0.09	176823	keystroke_n	n	n/a
88.5615	0.12	177123	keystroke_a	a	n/a
88.8015	0.1205	177603	keystroke_r	r	n/a
88.877	0.12	177754	keystroke_y	y	n/a
89.162	0.105	178324	keystroke_Key.space	Key.space	n/a
89.402	0.135	178804	keystroke_b	b	n/a
89.552	0.075	179104	keystroke_i	i	n/a
89.732	0.075	179464	keystroke_o	o	n/a
89.8965	0.135	179793	keystroke_g	g	n/a
89.9715	0.1055	179943	keystroke_r	r	n/a
90.122	0.135	180244	keystroke_a	a	n/a
90.242	0.09	180484	keystroke_p	p	n/a
90.437	0.0895	180874	keystroke_h	h	n/a
90.8125	0.09	181625	keystroke_i	i	n/a
90.9175	0.075	181835	keystroke_e	e	n/a
90.9925	0.18	181985	keystroke_s	s	n/a
91.667	0.0905	183334	keystroke_Key.enter	Key.enter	n/a
91.7665	6.353	183533	prompt	n/a	filing everywhere streaming freight\n
92.372	0.135	184744	keystroke_f	f	n/a
92.477	0.075	184954	keystroke_i	i	n/a
92.642	0.09	185284	keystroke_l	l	n/a
92.777	0.135	185554	keystroke_i	i	n/a
92.897	0.105	185794	keystroke_n	n	n/a
92.957	0.09	185914	keystroke_g	g	n/a
93.4515	0.046	186903	keystroke_Key.space	Key.space	n/a
93.5115	0.0755	187023	keystroke_e	e	n/a
93.632	0.135	187264	keystroke_v	v	n/a
93.722	0.09	187444	keystroke_e	e	n/a
93.782	0.15	187564	keystroke_r	r	n/a
93.902	0.09	187804	keystroke_y	y	n/a
94.082	0.105	188164	keystroke_w	w	n/a
94.202	0.075	188404	keystroke_h	h	n/a
94.292	0.105	188584	keystroke_e	e	n/a
94.352	0.2095	188704	keystroke_r	r	n/a
94.472	0.1205	188944	keystroke_e	e	n/a
94.7575	0.09	189515	keystroke_Key.space	Key.space	n/a
94.8625	0.1045	189725	keystroke_s	s	n/a
94.937	0.12	189874	keystroke_t	t	n/a
95.1315	0.12	190263	keystroke_r	r	n/a
95.1765	0.12	190353	keystroke_e	e	n/a
95.2815	0.136	190563	keystroke_a	a	n/a
95.4465	0.075	190893	keystroke_m	m	n/a
95.5665	0.12	191133	keystroke_i	i	n/a
95.6265	0.12	191253	keystroke_n	n	n/a
95.7475	0.104	191495	keystroke_g	g	n/a
96.227	0.0895	192454	keystroke_Key.space	Key.space	n/a
96.512	0.12	193024	keystroke_f	f	n/a
96.737	0.09	193474	keystroke_r	r	n/a
96.977	0.09	193954	keystroke_e	e	n/a
97.082	0.09	194164	keystroke_i	i	n/a
97.217	0.105	194434	keystroke_g	g	n/a
97.292	0.105	194584	keystroke_h	h	n/a
97.427	0.075	194854	keystroke_t	t	n/a
98.042	0.075	196084	keystroke_Key.enter	Key.enter	n/a
98.122	8.6215	196244	prompt	n/a	pants integrating surprised deep\n
98.672	0.09	197344	keystroke_p	p	n/a
98.807	0.12	197614	keystroke_a	a	n/a
98.897	0.075	197794	keystroke_n	n	n/a
98.987	0.12	197974	keystroke_t	t	n/a
99.092	0.12	198184	keystroke_s	s	n/a
99.557	0.075	199114	keystroke_Key.space	Key.space	n/a
99.737	0.075	199474	keystroke_i	i	n/a
99.767	0.105	199534	keystroke_n	n	n/a
99.842	0.12	199684	keystroke_t	t	n/a
99.902	0.105	199804	keystroke_e	e	n/a
100.127	0.0905	200254	keystroke_g	g	n/a
100.157	0.1205	200314	keystroke_r	r	n/a
100.3825	0.1495	200765	keystroke_a	a	n/a
100.517	0.12	201034	keystroke_t	t	n/a
100.638	0.104	201276	keystroke_i	i	n/a
100.682	0.105	201364	keystroke_n	n	n/a
100.772	0.105	201544	keystroke_g	g	n/a
100.907	0.09	201814	keystroke_Key.space	Key.space	n/a
101.057	0.15	202114	keystroke_s	s	n/a
101.162	0.075	202324	keystroke_u	u	n/a
101.402	0.105	202804	keystroke_p	p	n/a
102.0025	0.105	204005	keystroke_r	r	n/a
102.1225	0.105	204245	keystroke_i	i	n/a
102.2425	0.15	204485	keystroke_s	s	n/a
102.3625	0.12	204725	keystroke_e	e	n/a
102.5415	0.121	205083	keystroke_d	d	n/a
102.6465	0.105	205293	keystroke_Key.space	Key.space	n/a
102.7675	0.059	205535	keystroke_d	d	n/a
102.9315	0.06	205863	keystroke_e	e	n/a
103.0675	0.074	206135	keystroke_e	e	n/a
103.1865	0.075	206373	keystroke_p	p	n/a
106.729	0.013	213458	keystroke_Key.enter	Key.enter	n/a
106.747	6.1915	213494	prompt	n/a	doctor existed watch academic\n
107.342	0.09	214684	keystroke_d	d	n/a
107.447	0.075	214894	keystroke_o	o	n/a
107.8975	0.09	215795	keystroke_c	c	n/a
108.1075	0.075	216215	keystroke_t	t	n/a
108.1975	0.09	216395	keystroke_o	o	n/a
108.2875	0.075	216575	keystroke_r	r	n/a
108.4675	0.0895	216935	keystroke_Key.space	Key.space	n/a
108.572	0.09	217144	keystroke_e	e	n/a
108.812	0.12	217624	keystroke_x	x	n/a
109.097	0.075	218194	keystroke_i	i	n/a
109.292	0.12	218584	keystroke_s	s	n/a
109.472	0.135	218944	keystroke_t	t	n/a
109.577	0.09	219154	keystroke_e	e	n/a
109.757	0.1355	219514	keystroke_d	d	n/a
109.877	0.1045	219754	keystroke_Key.space	Key.space	n/a
110.0715	0.106	220143	keystroke_w	w	n/a
110.1475	0.1345	220295	keystroke_a	a	n/a
110.312	0.075	220624	keystroke_t	t	n/a
110.552	0.105	221104	keystroke_c	c	n/a
110.672	0.09	221344	keystroke_h	h	n/a
110.852	0.09	221704	keystroke_Key.space	Key.space	n/a
111.122	0.12	222244	keystroke_a	a	n/a
111.302	0.15	222604	keystroke_c	c	n/a
111.407	0.135	222814	keystroke_a	a	n/a
111.587	0.09	223174	keystroke_d	d	n/a
111.752	0.09	223504	keystroke_e	e	n/a
111.872	0.135	223744	keystroke_m	m	n/a
111.992	0.0905	223984	keystroke_i	i	n/a
112.127	0.105	224254	keystroke_c	c	n/a
112.877	0.06	225754	keystroke_Key.enter	Key.enter	n/a
112.941	7.4375	225882	prompt	n/a	basics ampland morgan fruit\n
113.5815	0.105	227163	keystroke_b	b	n/a
113.7015	0.135	227403	keystroke_a	a	n/a
113.7765	0.18	227553	keystroke_s	s	n/a
114.017	0.075	228034	keystroke_i	i	n/a
114.152	0.12	228304	keystroke_c	c	n/a
114.437	0.12	228874	keystroke_s	s	n/a
114.7075	0.0895	229415	keystroke_Key.space	Key.space	n/a
114.812	0.15	229624	keystroke_a	a	n/a
114.977	0.075	229954	keystroke_m	m	n/a
115.1565	0.12	230313	keystroke_p	p	n/a
115.2015	0.1205	230403	keystroke_l	l	n/a
115.3975	0.135	230795	keystroke_a	a	n/a
115.5175	0.09	231035	keystroke_n	n	n/a
115.6375	0.105	231275	keystroke_d	d	n/a
116.0275	0.105	232055	keystroke_Key.space	Key.space	n/a
116.522	0.105	233044	keystroke_m	m	n/a
116.582	0.105	233164	keystroke_o	o	n/a
116.672	0.105	233344	keystroke_r	r	n/a
116.747	0.1505	233494	keystroke_g	g	n/a
117.2265	0.135	234453	keystroke_a	a	n/a
117.3765	0.016	234753	keystroke_n	n	n/a
117.4965	0.09	234993	keystroke_Key.space	Key.space	n/a
117.6915	0.135	235383	keystroke_f	f	n/a
118.3215	0.12	236643	keystroke_r	r	n/a
118.4715	0.09	236943	keystroke_u	u	n/a
118.6515	0.0755	237303	keystroke_i	i	n/a
118.772	0.0905	237544	keystroke_t	t	n/a
120.317	0.06	240634	keystroke_Key.enter	Key.enter	n/a
120.385	5.9185	240770	prompt	n/a	warehouse drag approve connect\n
120.9325	0.15	241865	keystroke_w	w	n/a
121.0665	0.136	242133	keystroke_a	a	n/a
121.1865	0.12	242373	keystroke_r	r	n/a
121.2625	0.119	242525	keystroke_e	e	n/a
121.5775	0.075	243155	keystroke_h	h	n/a
121.7425	0.119	243485	keystroke_o	o	n/a
121.9815	0.09	243963	keystroke_u	u	n/a
122.1025	0.1345	244205	keystroke_s	s	n/a
122.207	0.12	244414	keystroke_e	e	n/a
122.5825	0.105	245165	keystroke_Key.space	Key.space	n/a
122.8665	0.075	245733	keystroke_d	d	n/a
123.0175	0.09	246035	keystroke_r	r	n/a
123.1225	0.105	246245	keystroke_a	a	n/a
123.1825	0.12	246365	keystroke_g	g	n/a
123.3175	0.105	246635	keystroke_Key.space	Key.space	n/a
123.857	0.12	247714	keystroke_a	a	n/a
123.917	0.075	247834	keystroke_p	p	n/a
124.022	0.09	248044	keystroke_p	p	n/a
124.142	0.09	248284	keystroke_r	r	n/a
124.217	0.075	248434	keystroke_o	o	n/a
124.337	0.09	248674	keystroke_v	v	n/a
124.382	0.135	248764	keystroke_e	e	n/a
124.8175	0.075	249635	keystroke_Key.space	Key.space	n/a
125.0275	0.09	250055	keystroke_c	c	n/a
125.0575	0.1045	250115	keystroke_o	o	n/a
125.147	0.09	250294	keystroke_n	n	n/a
125.282	0.075	250564	keystroke_n	n	n/a
125.387	0.105	250774	keystroke_e	e	n/a
125.447	0.12	250894	keystroke_c	c	n/a
125.687	0.075	251374	keystroke_t	t	n/a
126.242	0.06	252484	keystroke_Key.enter	Key.enter	n/a
126.309	7.0145	252618	prompt	n/a	duke eternal pets hepatitis\n
126.9175	0.12	253835	keystroke_d	d	n/a
127.0075	0.075	254015	keystroke_u	u	n/a
127.247	0.09	254494	keystroke_k	k	n/a
127.382	0.09	254764	keystroke_e	e	n/a
127.517	0.09	255034	keystroke_Key.space	Key.space	n/a
127.727	0.075	255454	keystroke_e	e	n/a
127.892	0.075	255784	keystroke_n	n	n/a
127.982	0.165	255964	keystroke_t	t	n/a
128.342	0.06	256684	keystroke_Key.backspace	Key.backspace	n/a
128.447	0.09	256894	keystroke_Key.backspace	Key.backspace	n/a
128.522	0.105	257044	keystroke_t	t	n/a
128.702	0.135	257404	keystroke_e	e	n/a
128.957	0.09	257914	keystroke_r	r	n/a
129.257	0.075	258514	keystroke_n	n	n/a
129.347	0.15	258694	keystroke_a	a	n/a
129.482	0.075	258964	keystroke_l	l	n/a
129.602	0.09	259204	keystroke_Key.space	Key.space	n/a
129.782	0.075	259564	keystroke_p	p	n/a
129.887	0.15	259774	keystroke_e	e	n/a
129.992	0.105	259984	keystroke_t	t	n/a
130.1425	0.135	260285	keystroke_s	s	n/a
130.2625	0.09	260525	keystroke_Key.space	Key.space	n/a
130.4575	0.075	260915	keystroke_h	h	n/a
130.772	0.075	261544	keystroke_e	e	n/a
131.102	0.075	262204	keystroke_p	p	n/a
131.252	0.1205	262504	keystroke_a	a	n/a
131.9125	0.12	263825	keystroke_t	t	n/a
132.0175	0.06	264035	keystroke_i	i	n/a
132.1075	0.105	264215	keystroke_t	t	n/a
132.1975	0.06	264395	keystroke_i	i	n/a
132.587	0.12	265174	keystroke_s	s	n/a
133.2475	0.074	266495	keystroke_Key.enter	Key.enter	n/a
133.326	6.402	266652	prompt	n/a	diff shapes prescription valium\n
133.8175	0.0895	267635	keystroke_d	d	n/a
133.937	0.075	267874	keystroke_i	i	n/a
134.057	0.09	268114	keystroke_f	f	n/a
134.207	0.12	268414	keystroke_f	f	n/a
134.402	0.105	268804	keystroke_Key.space	Key.space	n/a
134.537	0.105	269074	keystroke_s	s	n/a
134.687	0.09	269374	keystroke_h	h	n/a
134.822	0.135	269644	keystroke_a	a	n/a
134.942	0.075	269884	keystroke_p	p	n/a
135.032	0.09	270064	keystroke_e	e	n/a
135.152	0.135	270304	keystroke_s	s	n/a
135.842	0.09	271684	keystroke_Key.space	Key.space	n/a
136.082	0.06	272164	keystroke_p	p	n/a
136.157	0.12	272314	keystroke_r	r	n/a
136.217	0.09	272434	keystroke_e	e	n/a
136.382	0.1345	272764	keystroke_s	s	n/a
136.5925	0.12	273185	keystroke_c	c	n/a
136.6965	0.105	273393	keystroke_r	r	n/a
136.8615	0.09	273723	keystroke_i	i	n/a
137.057	0.06	274114	keystroke_p	p	n/a
137.132	0.105	274264	keystroke_t	t	n/a
137.252	0.06	274504	keystroke_i	i	n/a
137.372	0.1045	274744	keystroke_o	o	n/a
137.417	0.1045	274834	keystroke_n	n	n/a
137.5965	0.105	275193	keystroke_Key.space	Key.space	n/a
138.0915	0.045	276183	keystroke_v	v	n/a
138.1515	0.15	276303	keystroke_a	a	n/a
138.4065	0.06	276813	keystroke_l	l	n/a
138.557	0.075	277114	keystroke_i	i	n/a
138.722	0.06	277444	keystroke_u	u	n/a
138.887	0.09	277774	keystroke_m	m	n/a
139.667	0.06	279334	keystroke_Key.enter	Key.enter	n/a
139.733	5.3055	279466	prompt	n/a	delivers dicke feat bleeding\n
140.192	0.09	280384	keystroke_d	d	n/a
140.507	0.09	281014	keystroke_e	e	n/a
140.627	0.075	281254	keystroke_l	l	n/a
140.777	0.09	281554	keystroke_i	i	n/a
140.852	0.105	281704	keystroke_v	v	n/a
140.897	0.18	281794	keystroke_e	e	n/a
141.002	0.105	282004	keystroke_r	r	n/a
141.197	0.1045	282394	keystroke_s	s	n/a
141.3315	0.09	282663	keystroke_Key.space	Key.space	n/a
141.4365	0.075	282873	keystroke_d	d	n/a
141.5265	0.075	283053	keystroke_i	i	n/a
141.6165	0.09	283233	keystroke_c	c	n/a
141.7215	0.075	283443	keystroke_k	k	n/a
141.8565	0.105	283713	keystroke_e	e	n/a
142.1865	0.09	284373	keystroke_Key.space	Key.space	n/a
142.2915	0.15	284583	keystroke_f	f	n/a
142.5765	0.105	285153	keystroke_e	e	n/a
142.8165	0.12	285633	keystroke_a	a	n/a
142.9065	0.12	285813	keystroke_t	t	n/a
143.2065	0.09	286413	keystroke_Key.space	Key.space	n/a
143.5515	0.09	287103	keystroke_b	b	n/a
143.6565	0.075	287313	keystroke_l	l	n/a
143.7615	0.0755	287523	keystroke_e	e	n/a
143.912	0.0745	287824	keystroke_e	e	n/a
144.047	0.1195	288094	keystroke_d	d	n/a
144.1515	0.105	288303	keystroke_i	i	n/a
144.2115	0.09	288423	keystroke_n	n	n/a
144.332	0.0745	288664	keystroke_g	g	n/a
144.977	0.06	289954	keystroke_Key.enter	Key.enter	n/a
145.0445	4.104	290089	prompt	n/a	slot fund skins major\n
145.607	0.105	291214	keystroke_s	s	n/a
145.832	0.075	291664	keystroke_l	l	n/a
145.967	0.075	291934	keystroke_o	o	n/a
146.057	0.09	292114	keystroke_t	t	n/a
146.162	0.09	292324	keystroke_Key.space	Key.space	n/a
146.267	0.105	292534	keystroke_f	f	n/a
146.417	0.105	292834	keystroke_u	u	n/a
146.477	0.09	292954	keystroke_n	n	n/a
146.987	0.075	293974	keystroke_d	d	n/a
147.122	0.12	294244	keystroke_Key.space	Key.space	n/a
147.497	0.105	294994	keystroke_s	s	n/a
147.722	0.06	295444	keystroke_k	k	n/a
147.827	0.105	295654	keystroke_i	i	n/a
147.902	0.09	295804	keystroke_n	n	n/a
147.962	0.12	295924	keystroke_s	s	n/a
148.097	0.075	296194	keystroke_Key.space	Key.space	n/a
148.2615	0.09	296523	keystroke_m	m	n/a
148.3525	0.119	296705	keystroke_a	a	n/a
148.5015	0.06	297003	keystroke_j	j	n/a
148.6515	0.075	297303	keystroke_o	o	n/a
148.7865	0.09	297573	keystroke_r	r	n/a
149.0715	0.075	298143	keystroke_Key.enter	Key.enter	n/a
149.153	8.5455	298306	prompt	n/a	poverty controversial twenty kernel\n
149.732	0.105	299464	keystroke_p	p	n/a
149.882	0.06	299764	keystroke_r	r	n/a
150.152	0.0745	300304	keystroke_Key.backspace	Key.backspace	n/a
150.3165	0.09	300633	keystroke_o	o	n/a
150.4515	0.105	300903	keystroke_v	v	n/a
150.5265	0.135	301053	keystroke_e	e	n/a
150.617	0.1345	301234	keystroke_r	r	n/a
152.102	0.1055	304204	keystroke_t	t	n/a
152.2825	0.075	304565	keystroke_y	y	n/a
152.4775	0.104	304955	keystroke_Key.space	Key.space	n/a
152.6115	0.121	305223	keystroke_c	c	n/a
152.7465	0.09	305493	keystroke_o	o	n/a
152.8065	0.09	305613	keystroke_n	n	n/a
153.1665	0.1055	306333	keystroke_t	t	n/a
153.227	0.09	306454	keystroke_r	r	n/a
153.362	0.06	306724	keystroke_o	o	n/a
153.6475	0.105	307295	keystroke_v	v	n/a
153.7225	0.15	307445	keystroke_e	e	n/a
153.8125	0.09	307625	keystroke_r	r	n/a
153.9925	0.135	307985	keystroke_s	s	n/a
154.1575	0.06	308315	keystroke_i	i	n/a
154.3525	0.1345	308705	keystroke_a	a	n/a
154.532	0.075	309064	keystroke_l	l	n/a
154.787	0.075	309574	keystroke_Key.space	Key.space	n/a
154.9825	0.105	309965	keystroke_t	t	n/a
155.0575	0.119	310115	keystroke_w	w	n/a
155.2825	0.105	310565	keystroke_e	e	n/a
155.4465	0.06	310893	keystroke_n	n	n/a
155.657	0.105	311314	keystroke_t	t	n/a
155.852	0.06	311704	keystroke_y	y	n/a
156.002	0.09	312004	keystroke_Key.space	Key.space	n/a
156.212	0.09	312424	keystroke_k	k	n/a
156.317	0.135	312634	keystroke_e	e	n/a
156.392	0.12	312784	keystroke_r	r	n/a
156.6765	0.075	313353	keystroke_n	n	n/a
156.8865	0.09	313773	keystroke_e	e	n/a
157.0815	0.076	314163	keystroke_l	l	n/a
157.622	0.075	315244	keystroke_Key.enter	Key.enter	n/a
157.7015	9.825	315403	prompt	n/a	quantity dock ipaq gained\n
158.6725	0.105	317345	keystroke_q	q	n/a
158.8075	0.075	317615	keystroke_u	u	n/a
158.9125	0.149	317825	keystroke_a	a	n/a
159.0015	0.09	318003	keystroke_n	n	n/a
159.2415	0.09	318483	keystroke_i	i	n/a
159.572	0.0745	319144	keystroke_Key.backspace	Key.backspace	n/a
159.6465	0.0905	319293	keystroke_t	t	n/a
159.752	0.09	319504	keystroke_i	i	n/a
159.857	0.0745	319714	keystroke_t	t	n/a
160.0815	0.075	320163	keystroke_y	y	n/a
160.4415	0.091	320883	keystroke_Key.space	Key.space	n/a
160.6375	0.06	321275	keystroke_d	d	n/a
160.7125	0.075	321425	keystroke_o	o	n/a
160.817	0.105	321634	keystroke_c	c	n/a
160.937	0.075	321874	keystroke_k	k	n/a
161.507	0.075	323014	keystroke_Key.space	Key.space	n/a
162.0615	0.06	324123	keystroke_i	i	n/a
162.9465	0.045	325893	keystroke_p	p	n/a
163.547	0.12	327094	keystroke_a	a	n/a
163.832	0.105	327664	keystroke_q	q	n/a
164.357	0.12	328714	keystroke_Key.space	Key.space	n/a
164.702	0.09	329404	keystroke_g	g	n/a
164.807	0.12	329614	keystroke_a	a	n/a
164.897	0.105	329794	keystroke_i	i	n/a
164.942	0.09	329884	keystroke_n	n	n/a
165.047	0.105	330094	keystroke_e	e	n/a
165.242	0.105	330484	keystroke_d	d	n/a
167.524	0.001	335048	keystroke_Key.enter	Key.enter	n/a
167.529	5.9345	335058	prompt	n/a	gravity weighted recover it's\n
168.092	0.12	336184	keystroke_g	g	n/a
168.182	0.075	336364	keystroke_r	r	n/a
168.272	0.18	336544	keystroke_a	a	n/a
168.467	0.12	336934	keystroke_v	v	n/a
168.662	0.075	337324	keystroke_i	i	n/a
168.812	0.105	337624	keystroke_t	t	n/a
169.352	0.045	338704	keystroke_y	y	n/a
169.472	0.105	338944	keystroke_Key.space	Key.space	n/a
169.622	0.105	339244	keystroke_w	w	n/a
169.697	0.12	339394	keystroke_e	e	n/a
169.847	0.075	339694	keystroke_i	i	n/a
169.952	0.12	339904	keystroke_g	g	n/a
170.012	0.135	340024	keystroke_h	h	n/a
170.267	0.15	340534	keystroke_t	t	n/a
170.357	0.135	340714	keystroke_e	e	n/a
170.5965	0.121	341193	keystroke_d	d	n/a
170.9715	0.075	341943	keystroke_Key.space	Key.space	n/a
171.092	0.12	342184	keystroke_r	r	n/a
171.152	0.1045	342304	keystroke_e	e	n/a
171.3615	0.09	342723	keystroke_c	c	n/a
171.5865	0.076	343173	keystroke_o	o	n/a
171.962	0.105	343924	keystroke_v	v	n/a
172.022	0.15	344044	keystroke_e	e	n/a
172.097	0.18	344194	keystroke_r	r	n/a
172.292	0.045	344584	keystroke_Key.space	Key.space	n/a
172.382	0.09	344764	keystroke_i	i	n/a
172.5165	0.0905	345033	keystroke_t	t	n/a
172.712	0.105	345424	keystroke_'	'	n/a
172.832	0.135	345664	keystroke_s	s	n/a
173.417	0.045	346834	keystroke_Key.enter	Key.enter	n/a
173.466	5.9225	346932	prompt	n/a	shaped samba select horizontal\n
174.0315	0.0905	348063	keystroke_s	s	n/a
174.227	0.075	348454	keystroke_h	h	n/a
174.332	0.15	348664	keystroke_a	a	n/a
174.467	0.1045	348934	keystroke_p	p	n/a
174.6015	0.09	349203	keystroke_e	e	n/a
174.7815	0.105	349563	keystroke_d	d	n/a
174.9465	0.1055	349893	keystroke_Key.space	Key.space	n/a
175.067	0.09	350134	keystroke_s	s	n/a
175.232	0.135	350464	keystroke_a	a	n/a
175.352	0.075	350704	keystroke_m	m	n/a
175.502	0.09	351004	keystroke_b	b	n/a
175.637	0.105	351274	keystroke_a	a	n/a
176.0415	0.105	352083	keystroke_Key.space	Key.space	n/a
176.3115	0.18	352623	keystroke_s	s	n/a
176.4765	0.09	352953	keystroke_e	e	n/a
176.5515	0.075	353103	keystroke_l	l	n/a
176.6415	0.12	353283	keystroke_e	e	n/a
176.7465	0.12	353493	keystroke_c	c	n/a
176.9715	0.075	353943	keystroke_t	t	n/a
177.0615	0.105	354123	keystroke_Key.space	Key.space	n/a
177.3015	0.075	354603	keystroke_h	h	n/a
177.3915	0.075	354783	keystroke_o	o	n/a
177.5415	0.105	355083	keystroke_r	r	n/a
177.692	0.075	355384	keystroke_i	i	n/a
177.872	0.15	355744	keystroke_z	z	n/a
178.007	0.09	356014	keystroke_o	o	n/a
178.052	0.09	356104	keystroke_n	n	n/a
178.187	0.09	356374	keystroke_t	t	n/a
178.682	0.12	357364	keystroke_a	a	n/a
178.907	0.06	357814	keystroke_l	l	n/a
179.357	0.03	358714	keystroke_Key.enter	Key.enter	n/a
179.391	6.9275	358782	prompt	n/a	devon gordon violence picking\n
179.9415	0.105	359883	keystroke_d	d	n/a
180.0915	0.076	360183	keystroke_e	e	n/a
180.2415	0.105	360483	keystroke_v	v	n/a
180.3615	0.135	360723	keystroke_o	o	n/a
180.4365	0.105	360873	keystroke_n	n	n/a
180.7365	0.12	361473	keystroke_Key.space	Key.space	n/a
181.0825	0.119	362165	keystroke_g	g	n/a
181.2165	0.075	362433	keystroke_o	o	n/a
181.3515	0.045	362703	keystroke_r	r	n/a
181.5165	0.12	363033	keystroke_d	d	n/a
181.6215	0.106	363243	keystroke_o	o	n/a
181.6815	0.075	363363	keystroke_n	n	n/a
181.8765	0.105	363753	keystroke_Key.space	Key.space	n/a
182.0715	0.09	364143	keystroke_v	v	n/a
182.1475	0.075	364295	keystroke_i	i	n/a
182.2965	0.075	364593	keystroke_o	o	n/a
182.4615	0.0905	364923	keystroke_l	l	n/a
182.582	0.09	365164	keystroke_e	e	n/a
182.687	0.075	365374	keystroke_n	n	n/a
182.777	0.12	365554	keystroke_c	c	n/a
182.852	0.12	365704	keystroke_e	e	n/a
183.3465	0.09	366693	keystroke_Key.space	Key.space	n/a
183.572	0.03	367144	keystroke_p	p	n/a
183.677	0.09	367354	keystroke_i	i	n/a
183.797	0.105	367594	keystroke_c	c	n/a
183.917	0.105	367834	keystroke_k	k	n/a
184.067	0.105	368134	keystroke_i	i	n/a
184.112	0.105	368224	keystroke_n	n	n/a
184.232	0.075	368464	keystroke_g	g	n/a
186.2415	0.075	372483	keystroke_Key.enter	Key.enter	n/a
186.321	5.2175	372642	prompt	n/a	artist cuts romantic berlin\n
186.8875	0.089	373775	keystroke_a	a	n/a
187.2615	0.12	374523	keystroke_r	r	n/a
187.4865	0.106	374973	keystroke_t	t	n/a
187.7115	0.09	375423	keystroke_i	i	n/a
187.8315	0.135	375663	keystroke_s	s	n/a
187.9365	0.105	375873	keystroke_t	t	n/a
188.3715	0.1205	376743	keystroke_Key.space	Key.space	n/a
188.6415	0.12	377283	keystroke_c	c	n/a
188.7465	0.06	377493	keystroke_u	u	n/a
188.9415	0.1055	377883	keystroke_t	t	n/a
189.017	0.1345	378034	keystroke_s	s	n/a
189.182	0.105	378364	keystroke_Key.space	Key.space	n/a
189.3315	0.105	378663	keystroke_r	r	n/a
189.4065	0.0905	378813	keystroke_o	o	n/a
189.482	0.0895	378964	keystroke_m	m	n/a
189.6165	0.12	379233	keystroke_a	a	n/a
189.6915	0.09	379383	keystroke_n	n	n/a
190.1565	0.0905	380313	keystroke_t	t	n/a
190.2315	0.076	380463	keystroke_i	i	n/a
190.3525	0.12	380705	keystroke_c	c	n/a
190.4575	0.075	380915	keystroke_Key.space	Key.space	n/a
190.6075	0.105	381215	keystroke_b	b	n/a
190.7125	0.15	381425	keystroke_e	e	n/a
190.8025	0.1345	381605	keystroke_r	r	n/a
190.922	0.075	381844	keystroke_l	l	n/a
191.057	0.09	382114	keystroke_i	i	n/a
191.102	0.09	382204	keystroke_n	n	n/a
191.447	0.09	382894	keystroke_Key.enter	Key.enter	n/a
191.5415	7.992	383083	prompt	n/a	radiation communication carbon mediterranean\n
192.272	0.12	384544	keystroke_r	r	n/a
192.407	0.15	384814	keystroke_a	a	n/a
192.572	0.12	385144	keystroke_d	d	n/a
192.722	0.075	385444	keystroke_i	i	n/a
192.812	0.135	385624	keystroke_a	a	n/a
193.022	0.12	386044	keystroke_t	t	n/a
193.127	0.06	386254	keystroke_i	i	n/a
193.217	0.105	386434	keystroke_o	o	n/a
193.277	0.075	386554	keystroke_n	n	n/a
193.427	0.105	386854	keystroke_Key.space	Key.space	n/a
193.577	0.135	387154	keystroke_c	c	n/a
193.667	0.09	387334	keystroke_o	o	n/a
193.727	0.075	387454	keystroke_m	m	n/a
193.847	0.105	387694	keystroke_m	m	n/a
194.012	0.09	388024	keystroke_u	u	n/a
194.072	0.075	388144	keystroke_n	n	n/a
194.177	0.09	388354	keystroke_i	i	n/a
194.282	0.12	388564	keystroke_c	c	n/a
194.312	0.12	388624	keystroke_a	a	n/a
194.522	0.09	389044	keystroke_t	t	n/a
194.567	0.06	389134	keystroke_i	i	n/a
194.702	0.105	389404	keystroke_o	o	n/a
194.747	0.09	389494	keystroke_n	n	n/a
194.927	0.105	389854	keystroke_Key.space	Key.space	n/a
195.227	0.135	390454	keystroke_c	c	n/a
195.272	0.105	390544	keystroke_a	a	n/a
195.467	0.075	390934	keystroke_r	r	n/a
195.647	0.105	391294	keystroke_b	b	n/a
195.767	0.12	391534	keystroke_o	o	n/a
195.812	0.09	391624	keystroke_n	n	n/a
195.9915	0.09	391983	keystroke_Key.space	Key.space	n/a
196.3065	0.09	392613	keystroke_m	m	n/a
196.4265	0.045	392853	keystroke_e	e	n/a
196.727	0.075	393454	keystroke_d	d	n/a
196.9365	0.075	393873	keystroke_i	i	n/a
197.1765	0.12	394353	keystroke_t	t	n/a
197.3715	0.1055	394743	keystroke_e	e	n/a
197.522	0.075	395044	keystroke_r	r	n/a
197.6565	0.091	395313	keystroke_r	r	n/a
198.557	0.105	397114	keystroke_a	a	n/a
198.707	0.06	397414	keystroke_n	n	n/a
198.842	0.09	397684	keystroke_e	e	n/a
198.887	0.15	397774	keystroke_a	a	n/a
199.022	0.075	398044	keystroke_n	n	n/a
199.472	0.06	398944	keystroke_Key.enter	Key.enter	n/a
199.536	4.2275	399072	prompt	n/a	magic elections employ mesa\n
200.072	0.09	400144	keystroke_m	m	n/a
200.132	0.105	400264	keystroke_a	a	n/a
200.282	0.09	400564	keystroke_g	g	n/a
200.387	0.075	400774	keystroke_i	i	n/a
200.507	0.105	401014	keystroke_c	c	n/a
200.627	0.075	401254	keystroke_Key.space	Key.space	n/a
200.807	0.075	401614	keystroke_e	e	n/a
200.957	0.06	401914	keystroke_l	l	n/a
201.047	0.075	402094	keystroke_e	e	n/a
201.3025	0.12	402605	keystroke_c	c	n/a
201.5275	0.075	403055	keystroke_t	t	n/a
201.6165	0.061	403233	keystroke_i	i	n/a
201.737	0.075	403474	keystroke_o	o	n/a
201.767	0.105	403534	keystroke_n	n	n/a
201.857	0.09	403714	keystroke_s	s	n/a
201.932	0.09	403864	keystroke_Key.space	Key.space	n/a
202.082	0.075	404164	keystroke_e	e	n/a
202.172	0.075	404344	keystroke_m	m	n/a
202.322	0.105	404644	keystroke_p	p	n/a
202.367	0.075	404734	keystroke_l	l	n/a
202.5025	0.075	405005	keystroke_o	o	n/a
202.667	0.075	405334	keystroke_y	y	n/a
202.772	0.075	405544	keystroke_Key.space	Key.space	n/a
202.937	0.075	405874	keystroke_m	m	n/a
202.997	0.105	405994	keystroke_e	e	n/a
203.192	0.105	406384	keystroke_s	s	n/a
203.297	0.105	406594	keystroke_a	a	n/a
203.687	0.075	407374	keystroke_Key.enter	Key.enter	n/a
203.7655	8.518	407531	prompt	n/a	customize gazette licensed pichunter\n
204.467	0.0895	408934	keystroke_c	c	n/a
204.5715	0.045	409143	keystroke_u	u	n/a
204.6615	0.045	409323	keystroke_s	s	n/a
204.7515	0.09	409503	keystroke_t	t	n/a
204.8425	0.089	409685	keystroke_o	o	n/a
204.9015	0.09	409803	keystroke_m	m	n/a
205.0815	0.09	410163	keystroke_i	i	n/a
205.2315	0.136	410463	keystroke_Key.shift	Key.shift	n/a
205.4275	0.1045	410855	keystroke_e	e	n/a
205.5475	0.075	411095	keystroke_Key.space	Key.space	n/a
205.7125	0.089	411425	keystroke_g	g	n/a
205.8765	0.1355	411753	keystroke_a	a	n/a
206.6275	0.1195	413255	keystroke_z	z	n/a
206.912	0.09	413824	keystroke_e	e	n/a
207.152	0.06	414304	keystroke_t	t	n/a
207.272	0.105	414544	keystroke_t	t	n/a
207.347	0.105	414694	keystroke_e	e	n/a
207.527	0.075	415054	keystroke_Key.space	Key.space	n/a
207.7375	0.074	415475	keystroke_l	l	n/a
207.8575	0.09	415715	keystroke_i	i	n/a
207.9475	0.12	415895	keystroke_c	c	n/a
208.0225	0.164	416045	keystroke_e	e	n/a
208.1565	0.075	416313	keystroke_n	n	n/a
208.2615	0.105	416523	keystroke_s	s	n/a
208.3365	0.105	416673	keystroke_e	e	n/a
208.532	0.09	417064	keystroke_d	d	n/a
208.847	0.0745	417694	keystroke_Key.space	Key.space	n/a
209.1165	0.075	418233	keystroke_p	p	n/a
210.482	0.075	420964	keystroke_i	i	n/a
210.7965	0.1205	421593	keystroke_c	c	n/a
211.067	0.12	422134	keystroke_h	h	n/a
211.142	0.135	422284	keystroke_u	u	n/a
211.262	0.105	422524	keystroke_n	n	n/a
211.3825	0.09	422765	keystroke_t	t	n/a
211.4575	0.18	422915	keystroke_e	e	n/a
211.5475	0.105	423095	keystroke_r	r	n/a
212.2225	0.06	424445	keystroke_Key.enter	Key.enter	n/a
212.288	5.9655	424576	prompt	n/a	morris searching radius syndicate\n
212.8675	0.12	425735	keystroke_m	m	n/a
212.9275	0.12	425855	keystroke_o	o	n/a
213.1075	0.075	426215	keystroke_r	r	n/a
213.557	0.045	427114	keystroke_r	r	n/a
213.647	0.105	427294	keystroke_i	i	n/a
213.767	0.105	427534	keystroke_s	s	n/a
213.902	0.09	427804	keystroke_Key.space	Key.space	n/a
214.202	0.105	428404	keystroke_s	s	n/a
214.337	0.12	428674	keystroke_e	e	n/a
214.442	0.1055	428884	keystroke_a	a	n/a
214.5175	0.105	429035	keystroke_r	r	n/a
214.7275	0.1195	429455	keystroke_c	c	n/a
214.7725	0.0895	429545	keystroke_h	h	n/a
214.863	0.164	429726	keystroke_i	i	n/a
214.952	0.105	429904	keystroke_n	n	n/a
215.042	0.06	430084	keystroke_g	g	n/a
215.162	0.105	430324	keystroke_Key.space	Key.space	n/a
215.492	0.09	430984	keystroke_r	r	n/a
215.597	0.12	431194	keystroke_a	a	n/a
215.687	0.165	431374	keystroke_d	d	n/a
215.897	0.075	431794	keystroke_i	i	n/a
216.122	0.075	432244	keystroke_u	u	n/a
216.227	0.12	432454	keystroke_s	s	n/a
216.392	0.105	432784	keystroke_Key.space	Key.space	n/a
216.542	0.105	433084	keystroke_s	s	n/a
216.707	0.075	433414	keystroke_y	y	n/a
216.812	0.075	433624	keystroke_n	n	n/a
217.322	0.105	434644	keystroke_d	d	n/a
217.412	0.06	434824	keystroke_i	i	n/a
217.517	0.15	435034	keystroke_c	c	n/a
217.577	0.15	435154	keystroke_a	a	n/a
217.787	0.1055	435574	keystroke_t	t	n/a
217.8475	0.12	435695	keystroke_e	e	n/a
218.1775	0.075	436355	keystroke_Key.enter	Key.enter	n/a
218.256	6.897	436512	prompt	n/a	resist profiles this's antarctica\n
218.8525	0.1345	437705	keystroke_r	r	n/a
218.9275	0.0745	437855	keystroke_e	e	n/a
219.062	0.12	438124	keystroke_s	s	n/a
219.167	0.075	438334	keystroke_i	i	n/a
219.257	0.135	438514	keystroke_s	s	n/a
219.362	0.12	438724	keystroke_t	t	n/a
219.917	0.09	439834	keystroke_Key.space	Key.space	n/a
220.187	0.09	440374	keystroke_p	p	n/a
220.292	0.075	440584	keystroke_r	r	n/a
220.382	0.075	440764	keystroke_o	o	n/a
220.487	0.12	440974	keystroke_f	f	n/a
220.577	0.06	441154	keystroke_i	i	n/a
220.712	0.105	441424	keystroke_l	l	n/a
220.832	0.06	441664	keystroke_e	e	n/a
220.9965	0.12	441993	keystroke_s	s	n/a
221.0715	0.09	442143	keystroke_Key.space	Key.space	n/a
221.2225	0.104	442445	keystroke_t	t	n/a
221.2665	0.135	442533	keystroke_h	h	n/a
221.3875	0.074	442775	keystroke_i	i	n/a
221.5965	0.09	443193	keystroke_s	s	n/a
221.8065	0.106	443613	keystroke_'	'	n/a
221.9725	0.105	443945	keystroke_s	s	n/a
222.2275	0.105	444455	keystroke_Key.space	Key.space	n/a
222.4675	0.12	444935	keystroke_a	a	n/a
222.6175	0.075	445235	keystroke_n	n	n/a
222.8275	0.12	445655	keystroke_t	t	n/a
222.9325	0.1645	445865	keystroke_a	a	n/a
223.082	0.105	446164	keystroke_r	r	n/a
223.697	0.06	447394	keystroke_t	t	n/a
223.787	0.075	447574	keystroke_i	i	n/a
224.057	0.105	448114	keystroke_c	c	n/a
224.087	0.165	448174	keystroke_a	a	n/a
225.077	0.075	450154	keystroke_Key.enter	Key.enter	n/a
225.157	7.4215	450314	prompt	n/a	wider supplements roommate think\n
225.707	0.1055	451414	keystroke_w	w	n/a
225.8275	0.059	451655	keystroke_i	i	n/a
225.9465	0.106	451893	keystroke_d	d	n/a
226.1265	0.106	452253	keystroke_e	e	n/a
226.2015	0.12	452403	keystroke_r	r	n/a
226.3225	0.089	452645	keystroke_Key.space	Key.space	n/a
226.4425	0.1195	452885	keystroke_s	s	n/a
226.547	0.06	453094	keystroke_u	u	n/a
226.727	0.075	453454	keystroke_p	p	n/a
226.862	0.075	453724	keystroke_p	p	n/a
227.5065	0.075	455013	keystroke_l	l	n/a
227.807	0.105	455614	keystroke_e	e	n/a
227.957	0.075	455914	keystroke_m	m	n/a
228.047	0.105	456094	keystroke_e	e	n/a
228.122	0.09	456244	keystroke_n	n	n/a
228.257	0.09	456514	keystroke_t	t	n/a
228.497	0.12	456994	keystroke_s	s	n/a
228.632	0.12	457264	keystroke_Key.space	Key.space	n/a
228.797	0.09	457594	keystroke_r	r	n/a
228.872	0.0745	457744	keystroke_o	o	n/a
228.9915	0.105	457983	keystroke_o	o	n/a
229.0665	0.09	458133	keystroke_m	m	n/a
229.2015	0.12	458403	keystroke_a	a	n/a
229.3515	0.12	458703	keystroke_t	t	n/a
229.4265	0.105	458853	keystroke_e	e	n/a
230.657	0.075	461314	keystroke_Key.backspace	Key.backspace	n/a
230.792	0.06	461584	keystroke_Key.backspace	Key.backspace	n/a
230.912	0.0755	461824	keystroke_Key.backspace	Key.backspace	n/a
231.2575	0.06	462515	keystroke_m	m	n/a
231.3925	0.135	462785	keystroke_a	a	n/a
231.5125	0.135	463025	keystroke_t	t	n/a
231.6025	0.09	463205	keystroke_e	e	n/a
231.722	0.075	463444	keystroke_Key.space	Key.space	n/a
231.8275	0.1195	463655	keystroke_t	t	n/a
231.887	0.105	463774	keystroke_h	h	n/a
231.932	0.075	463864	keystroke_i	i	n/a
231.977	0.075	463954	keystroke_n	n	n/a
232.097	0.0905	464194	keystroke_k	k	n/a
232.502	0.0755	465004	keystroke_Key.enter	Key.enter	n/a
232.581	15.073	465162	prompt	n/a	summer coming lithuania consultation\n
233.2225	0.09	466445	keystroke_s	s	n/a
233.2675	0.075	466535	keystroke_u	u	n/a
233.402	0.075	466804	keystroke_m	m	n/a
233.522	0.09	467044	keystroke_m	m	n/a
233.612	0.135	467224	keystroke_e	e	n/a
233.687	0.12	467374	keystroke_r	r	n/a
233.792	0.075	467584	keystroke_Key.space	Key.space	n/a
233.912	0.135	467824	keystroke_c	c	n/a
233.942	0.106	467884	keystroke_o	o	n/a
234.002	0.06	468004	keystroke_m	m	n/a
234.107	0.09	468214	keystroke_i	i	n/a
234.137	0.09	468274	keystroke_n	n	n/a
234.227	0.0905	468454	keystroke_g	g	n/a
234.527	0.105	469054	keystroke_Key.space	Key.space	n/a
234.8275	0.075	469655	keystroke_l	l	n/a
234.977	0.0745	469954	keystroke_i	i	n/a
235.0975	0.105	470195	keystroke_t	t	n/a
235.1575	0.089	470315	keystroke_h	h	n/a
235.562	0.075	471124	keystroke_u	u	n/a
236.147	0.12	472294	keystroke_a	a	n/a
236.3425	0.134	472685	keystroke_n	n	n/a
236.4615	0.076	472923	keystroke_i	i	n/a
236.6125	0.12	473225	keystroke_a	a	n/a
236.822	0.09	473644	keystroke_Key.space	Key.space	n/a
237.017	0.105	474034	keystroke_c	c	n/a
237.092	0.105	474184	keystroke_o	o	n/a
237.152	0.075	474304	keystroke_n	n	n/a
237.257	0.135	474514	keystroke_s	s	n/a
237.677	0.0895	475354	keystroke_u	u	n/a
237.9325	0.0895	475865	keystroke_l	l	n/a
238.2015	0.105	476403	keystroke_t	t	n/a
238.4115	0.12	476823	keystroke_a	a	n/a
238.5015	0.135	477003	keystroke_t	t	n/a
238.6215	0.06	477243	keystroke_i	i	n/a
238.7565	0.09	477513	keystroke_o	o	n/a
238.8015	0.075	477603	keystroke_n	n	n/a
247.64	0.012	495280	keystroke_Key.enter	Key.enter	n/a
247.657	8.592	495314	prompt	n/a	veterans scout australian camcorder\n
248.3875	0.045	496775	keystroke_g	g	n/a
248.4475	0.015	496895	keystroke_g	g	n/a
248.4775	0.12	496955	keystroke_e	e	n/a
248.837	0.075	497674	keystroke_Key.backspace	Key.backspace	n/a
248.9575	0.09	497915	keystroke_Key.backspace	Key.backspace	n/a
249.1075	0.09	498215	keystroke_Key.backspace	Key.backspace	n/a
249.1675	0.135	498335	keystroke_v	v	n/a
249.2575	0.135	498515	keystroke_e	e	n/a
249.5275	0.09	499055	keystroke_t	t	n/a
249.6775	0.135	499355	keystroke_e	e	n/a
249.7525	0.12	499505	keystroke_r	r	n/a
249.9325	0.15	499865	keystroke_a	a	n/a
250.0675	0.105	500135	keystroke_n	n	n/a
250.1575	0.105	500315	keystroke_s	s	n/a
250.2775	0.09	500555	keystroke_Key.space	Key.space	n/a
250.3675	0.105	500735	keystroke_s	s	n/a
250.5325	0.12	501065	keystroke_c	c	n/a
250.6375	0.075	501275	keystroke_o	o	n/a
250.7875	0.075	501575	keystroke_u	u	n/a
250.8775	0.09	501755	keystroke_t	t	n/a
251.1025	0.09	502205	keystroke_Key.space	Key.space	n/a
251.3725	0.135	502745	keystroke_a	a	n/a
251.702	0.061	503404	keystroke_u	u	n/a
251.852	0.135	503704	keystroke_s	s	n/a
251.957	0.15	503914	keystroke_t	t	n/a
252.048	0.074	504096	keystroke_r	r	n/a
252.333	0.134	504666	keystroke_a	a	n/a
252.617	0.045	505234	keystroke_l	l	n/a
252.752	0.075	505504	keystroke_i	i	n/a
252.842	0.12	505684	keystroke_a	a	n/a
253.022	0.09	506044	keystroke_n	n	n/a
253.517	0.045	507034	keystroke_Key.space	Key.space	n/a
253.623	0.134	507246	keystroke_c	c	n/a
253.758	0.075	507516	keystroke_m	m	n/a
254.057	0.06	508114	keystroke_Key.backspace	Key.backspace	n/a
254.118	0.12	508236	keystroke_a	a	n/a
254.252	0.091	508504	keystroke_m	m	n/a
254.462	0.121	508924	keystroke_c	c	n/a
254.552	0.09	509104	keystroke_o	o	n/a
254.673	0.075	509346	keystroke_r	r	n/a
254.687	0.045	509374	keystroke_t	t	n/a
254.852	0.105	509704	keystroke_d	d	n/a
255.137	0.06	510274	keystroke_Key.backspace	Key.backspace	n/a
255.272	0.075	510544	keystroke_Key.backspace	Key.backspace	n/a
255.572	0.09	511144	keystroke_d	d	n/a
255.737	0.1505	511474	keystroke_e	e	n/a
255.8275	0.12	511655	keystroke_r	r	n/a
256.1725	0.075	512345	keystroke_Key.enter	Key.enter	n/a
256.2545	6.8345	512509	prompt	n/a	crop broadband subcommittee power\n
256.9825	0.12	513965	keystroke_c	c	n/a
257.147	0.105	514294	keystroke_r	r	n/a
257.267	0.06	514534	keystroke_o	o	n/a
257.372	0.09	514744	keystroke_p	p	n/a
257.522	0.105	515044	keystroke_Key.space	Key.space	n/a
257.657	0.105	515314	keystroke_b	b	n/a
257.807	0.105	515614	keystroke_r	r	n/a
257.882	0.06	515764	keystroke_o	o	n/a
258.003	0.134	516006	keystroke_a	a	n/a
258.092	0.135	516184	keystroke_d	d	n/a
258.452	0.0455	516904	keystroke_b	b	n/a
258.5425	0.12	517085	keystroke_a	a	n/a
258.6475	0.09	517295	keystroke_n	n	n/a
258.7525	0.075	517505	keystroke_d	d	n/a
258.9625	0.09	517925	keystroke_Key.space	Key.space	n/a
259.1725	0.09	518345	keystroke_s	s	n/a
259.2775	0.06	518555	keystroke_u	u	n/a
259.3975	0.09	518795	keystroke_b	b	n/a
259.8775	0.12	519755	keystroke_c	c	n/a
259.9675	0.15	519935	keystroke_o	o	n/a
260.4175	0.06	520835	keystroke_m	m	n/a
260.5375	0.1045	521075	keystroke_m	m	n/a
260.852	0.075	521704	keystroke_i	i	n/a
261.032	0.105	522064	keystroke_t	t	n/a
261.167	0.1055	522334	keystroke_t	t	n/a
261.392	0.105	522784	keystroke_e	e	n/a
261.572	0.105	523144	keystroke_e	e	n/a
261.9625	0.09	523925	keystroke_Key.space	Key.space	n/a
262.1575	0.075	524315	keystroke_p	p	n/a
262.2775	0.09	524555	keystroke_o	o	n/a
262.3525	0.09	524705	keystroke_w	w	n/a
262.5175	0.135	525035	keystroke_e	e	n/a
262.5925	0.15	525185	keystroke_r	r	n/a
263.0275	0.06	526055	keystroke_Key.enter	Key.enter	n/a
263.0915	7.782	526183	prompt	n/a	years connectivity regions editorial\n
263.852	0.0905	527704	keystroke_h	h	n/a
263.9725	0.15	527945	keystroke_e	e	n/a
264.4075	0.075	528815	keystroke_Key.backspace	Key.backspace	n/a
264.5425	0.105	529085	keystroke_Key.backspace	Key.backspace	n/a
264.6325	0.09	529265	keystroke_y	y	n/a
264.7975	0.075	529595	keystroke_e	e	n/a
265.1575	0.105	530315	keystroke_a	a	n/a
265.3675	0.12	530735	keystroke_r	r	n/a
265.4725	0.12	530945	keystroke_s	s	n/a
265.6075	0.0895	531215	keystroke_Key.space	Key.space	n/a
265.743	0.104	531486	keystroke_c	c	n/a
265.817	0.09	531634	keystroke_o	o	n/a
265.877	0.075	531754	keystroke_n	n	n/a
265.997	0.105	531994	keystroke_n	n	n/a
266.087	0.135	532174	keystroke_e	e	n/a
266.177	0.09	532354	keystroke_c	c	n/a
266.387	0.075	532774	keystroke_t	t	n/a
266.4925	0.06	532985	keystroke_i	i	n/a
266.6425	0.12	533285	keystroke_v	v	n/a
266.8225	0.075	533645	keystroke_i	i	n/a
267.0175	0.135	534035	keystroke_t	t	n/a
267.0775	0.12	534155	keystroke_y	y	n/a
267.5575	0.105	535115	keystroke_Key.space	Key.space	n/a
267.887	0.12	535774	keystroke_r	r	n/a
267.947	0.105	535894	keystroke_e	e	n/a
268.142	0.135	536284	keystroke_g	g	n/a
268.262	0.075	536524	keystroke_i	i	n/a
268.397	0.105	536794	keystroke_o	o	n/a
268.457	0.09	536914	keystroke_n	n	n/a
268.532	0.12	537064	keystroke_s	s	n/a
268.667	0.1055	537334	keystroke_Key.space	Key.space	n/a
268.907	0.075	537814	keystroke_e	e	n/a
269.057	0.105	538114	keystroke_d	d	n/a
269.207	0.075	538414	keystroke_i	i	n/a
269.612	0.09	539224	keystroke_t	t	n/a
269.717	0.06	539434	keystroke_o	o	n/a
269.807	0.105	539614	keystroke_r	r	n/a
269.897	0.075	539794	keystroke_i	i	n/a
269.9875	0.12	539975	keystroke_a	a	n/a
270.0925	0.075	540185	keystroke_l	l	n/a
270.812	0.06	541624	keystroke_Key.enter	Key.enter	n/a
270.876	9.976	541752	prompt	n/a	charlie foods leslie certified\n
271.442	0.15	542884	keystroke_c	c	n/a
271.607	0.015	543214	keystroke_h	h	n/a
271.652	0.15	543304	keystroke_a	a	n/a
271.757	0.12	543514	keystroke_r	r	n/a
271.937	0.09	543874	keystroke_l	l	n/a
272.1625	0.075	544325	keystroke_i	i	n/a
272.2525	0.0745	544505	keystroke_e	e	n/a
272.672	0.075	545344	keystroke_Key.space	Key.space	n/a
272.837	0.15	545674	keystroke_f	f	n/a
272.927	0.075	545854	keystroke_o	o	n/a
273.047	0.075	546094	keystroke_o	o	n/a
273.152	0.135	546304	keystroke_d	d	n/a
273.227	0.15	546454	keystroke_s	s	n/a
273.8725	0.075	547745	keystroke_Key.space	Key.space	n/a
274.0375	0.0895	548075	keystroke_l	l	n/a
274.142	0.06	548284	keystroke_e	e	n/a
274.532	0.09	549064	keystroke_s	s	n/a
274.712	0.075	549424	keystroke_l	l	n/a
274.8475	0.075	549695	keystroke_i	i	n/a
274.9525	0.09	549905	keystroke_e	e	n/a
275.0725	0.105	550145	keystroke_Key.space	Key.space	n/a
275.4325	0.135	550865	keystroke_c	c	n/a
275.5525	0.165	551105	keystroke_e	e	n/a
275.7775	0.105	551555	keystroke_r	r	n/a
276.0025	0.0895	552005	keystroke_t	t	n/a
276.1975	0.074	552395	keystroke_i	i	n/a
276.3025	0.1195	552605	keystroke_f	f	n/a
276.423	0.0595	552846	keystroke_i	i	n/a
276.4975	0.09	552995	keystroke_e	e	n/a
276.6475	0.12	553295	keystroke_d	d	n/a
280.8495	0	561699	keystroke_Key.enter	Key.enter	n/a
280.855	7.584	561710	prompt	n/a	flexibility drinks foundation forgotten\n
281.462	0.045	562924	keystroke_f	f	n/a
281.567	0.075	563134	keystroke_l	l	n/a
281.6575	0.09	563315	keystroke_e	e	n/a
281.8675	0.09	563735	keystroke_x	x	n/a
281.9875	0.075	563975	keystroke_i	i	n/a
282.2125	0.105	564425	keystroke_b	b	n/a
282.3025	0.075	564605	keystroke_i	i	n/a
282.482	0.06	564964	keystroke_l	l	n/a
282.587	0.09	565174	keystroke_i	i	n/a
282.692	0.105	565384	keystroke_t	t	n/a
282.737	0.135	565474	keystroke_y	y	n/a
282.902	0.105	565804	keystroke_Key.space	Key.space	n/a
283.172	0.105	566344	keystroke_d	d	n/a
283.367	0.06	566734	keystroke_r	r	n/a
283.368	0.074	566736	keystroke_t	t	n/a
283.457	0.06	566914	keystroke_i	i	n/a
283.487	0.09	566974	keystroke_n	n	n/a
283.622	0.09	567244	keystroke_k	k	n/a
283.982	0.075	567964	keystroke_Key.backspace	Key.backspace	n/a
284.132	0.075	568264	keystroke_Key.backspace	Key.backspace	n/a
284.267	0.06	568534	keystroke_Key.backspace	Key.backspace	n/a
284.3875	0.06	568775	keystroke_Key.backspace	Key.backspace	n/a
284.627	0.075	569254	keystroke_i	i	n/a
284.672	0.09	569344	keystroke_n	n	n/a
284.807	0.075	569614	keystroke_k	k	n/a
284.897	0.12	569794	keystroke_s	s	n/a
285.1675	0.09	570335	keystroke_Key.space	Key.space	n/a
285.3025	0.135	570605	keystroke_f	f	n/a
285.4525	0.06	570905	keystroke_o	o	n/a
285.5875	0.09	571175	keystroke_u	u	n/a
285.6175	0.105	571235	keystroke_n	n	n/a
285.6925	0.09	571385	keystroke_d	d	n/a
285.7675	0.15	571535	keystroke_a	a	n/a
285.8875	0.12	571775	keystroke_t	t	n/a
285.9775	0.075	571955	keystroke_i	i	n/a
286.6675	0.12	573335	keystroke_o	o	n/a
286.7425	0.09	573485	keystroke_n	n	n/a
286.9225	0.09	573845	keystroke_Key.space	Key.space	n/a
287.0275	0.1195	574055	keystroke_f	f	n/a
287.102	0.075	574204	keystroke_o	o	n/a
287.207	0.075	574414	keystroke_r	r	n/a
287.402	0.09	574804	keystroke_g	g	n/a
287.507	0.045	575014	keystroke_o	o	n/a
287.612	0.0905	575224	keystroke_t	t	n/a
287.8075	0.06	575615	keystroke_t	t	n/a
287.8375	0.105	575675	keystroke_e	e	n/a
287.9875	0.075	575975	keystroke_n	n	n/a
288.3625	0.075	576725	keystroke_Key.enter	Key.enter	n/a
288.4415	8.3825	576883	prompt	n/a	portuguese sage devel newcastle\n
289.007	0.09	578014	keystroke_p	p	n/a
289.157	0.09	578314	keystroke_o	o	n/a
289.262	0.12	578524	keystroke_r	r	n/a
289.352	0.105	578704	keystroke_t	t	n/a
289.592	0.075	579184	keystroke_u	u	n/a
289.7575	0.09	579515	keystroke_g	g	n/a
290.582	0.075	581164	keystroke_u	u	n/a
290.717	0.075	581434	keystroke_e	e	n/a
290.897	0.15	581794	keystroke_s	s	n/a
291.077	0.09	582154	keystroke_e	e	n/a
291.467	0.06	582934	keystroke_Key.space	Key.space	n/a
291.632	0.135	583264	keystroke_s	s	n/a
291.812	0.15	583624	keystroke_a	a	n/a
291.977	0.12	583954	keystroke_f	f	n/a
292.037	0.12	584074	keystroke_e	e	n/a
292.622	0.06	585244	keystroke_Key.backspace	Key.backspace	n/a
292.727	0.09	585454	keystroke_Key.backspace	Key.backspace	n/a
292.787	0.09	585574	keystroke_g	g	n/a
292.832	0.135	585664	keystroke_e	e	n/a
293.7925	0.105	587585	keystroke_Key.space	Key.space	n/a
294.0325	0.105	588065	keystroke_d	d	n/a
294.2125	0.06	588425	keystroke_e	e	n/a
294.3325	0.12	588665	keystroke_v	v	n/a
294.4075	0.1195	588815	keystroke_e	e	n/a
294.497	0.075	588994	keystroke_l	l	n/a
294.662	0.09	589324	keystroke_Key.space	Key.space	n/a
294.887	0.061	589774	keystroke_n	n	n/a
294.978	0.149	589956	keystroke_e	e	n/a
295.068	0.12	590136	keystroke_w	w	n/a
295.322	0.135	590644	keystroke_c	c	n/a
295.367	0.18	590734	keystroke_a	a	n/a
295.502	0.105	591004	keystroke_s	s	n/a
295.592	0.1505	591184	keystroke_t	t	n/a
295.8175	0.105	591635	keystroke_l	l	n/a
296.342	0.105	592684	keystroke_e	e	n/a
296.7475	0.075	593495	keystroke_Key.enter	Key.enter	n/a
296.828	6.7905	593656	prompt	n/a	blocks princeton complaint border\n
297.422	0.105	594844	keystroke_b	b	n/a
297.512	0.06	595024	keystroke_l	l	n/a
297.632	0.075	595264	keystroke_o	o	n/a
297.692	0.09	595384	keystroke_c	c	n/a
297.797	0.075	595594	keystroke_k	k	n/a
297.873	0.104	595746	keystroke_s	s	n/a
297.947	0.075	595894	keystroke_Key.space	Key.space	n/a
298.128	0.059	596256	keystroke_p	p	n/a
298.217	0.09	596434	keystroke_r	r	n/a
298.323	0.164	596646	keystroke_i	i	n/a
298.457	0.105	596914	keystroke_n	n	n/a
298.608	0.119	597216	keystroke_c	c	n/a
298.983	0.074	597966	keystroke_e	e	n/a
299.177	0.076	598354	keystroke_t	t	n/a
299.237	0.121	598474	keystroke_o	o	n/a
299.282	0.106	598564	keystroke_n	n	n/a
299.462	0.09	598924	keystroke_Key.space	Key.space	n/a
299.672	0.12	599344	keystroke_c	c	n/a
299.718	0.09	599436	keystroke_o	o	n/a
299.778	0.089	599556	keystroke_m	m	n/a
299.927	0.105	599854	keystroke_p	p	n/a
299.958	0.104	599916	keystroke_l	l	n/a
300.063	0.134	600126	keystroke_a	a	n/a
300.212	0.105	600424	keystroke_i	i	n/a
300.242	0.105	600484	keystroke_n	n	n/a
300.362	0.075	600724	keystroke_t	t	n/a
300.8725	0.105	601745	keystroke_Key.space	Key.space	n/a
301.1125	0.09	602225	keystroke_b	b	n/a
301.2175	0.06	602435	keystroke_o	o	n/a
301.3225	0.075	602645	keystroke_r	r	n/a
301.5025	0.09	603005	keystroke_d	d	n/a
301.6525	0.135	603305	keystroke_e	e	n/a
301.7125	0.135	603425	keystroke_r	r	n/a
303.5275	0.09	607055	keystroke_Key.enter	Key.enter	n/a
303.621	7.153	607242	prompt	n/a	layout provincial upload guatemala\n
304.2025	0.075	608405	keystroke_l	l	n/a
304.2625	0.09	608525	keystroke_a	a	n/a
304.4275	0.09	608855	keystroke_y	y	n/a
304.5025	0.0745	609005	keystroke_o	o	n/a
304.667	0.06	609334	keystroke_u	u	n/a
304.742	0.09	609484	keystroke_t	t	n/a
304.847	0.075	609694	keystroke_Key.space	Key.space	n/a
305.027	0.075	610054	keystroke_p	p	n/a
305.147	0.09	610294	keystroke_r	r	n/a
305.6275	0.105	611255	keystroke_o	o	n/a
306.1525	0.1045	612305	keystroke_v	v	n/a
306.242	0.09	612484	keystroke_i	i	n/a
306.287	0.09	612574	keystroke_n	n	n/a
306.452	0.105	612904	keystroke_c	c	n/a
306.542	0.09	613084	keystroke_i	i	n/a
306.648	0.104	613296	keystroke_a	a	n/a
306.753	0.09	613506	keystroke_l	l	n/a
307.022	0.09	614044	keystroke_Key.space	Key.space	n/a
307.382	0.045	614764	keystroke_u	u	n/a
307.6825	0.09	615365	keystroke_p	p	n/a
307.9225	0.075	615845	keystroke_l	l	n/a
308.0575	0.075	616115	keystroke_o	o	n/a
308.1025	0.12	616205	keystroke_a	a	n/a
308.1775	0.135	616355	keystroke_d	d	n/a
308.4925	0.105	616985	keystroke_Key.space	Key.space	n/a
308.8825	0.12	617765	keystroke_g	g	n/a
309.0325	0.06	618065	keystroke_u	u	n/a
309.1225	0.135	618245	keystroke_a	a	n/a
309.3025	0.105	618605	keystroke_t	t	n/a
309.4975	0.105	618995	keystroke_e	e	n/a
309.707	0.075	619414	keystroke_m	m	n/a
309.812	0.135	619624	keystroke_a	a	n/a
309.932	0.06	619864	keystroke_l	l	n/a
310.007	0.105	620014	keystroke_a	a	n/a
310.712	0.06	621424	keystroke_Key.enter	Key.enter	n/a
310.7765	9.0575	621553	prompt	n/a	mask colony robert partnership\n
311.312	0.09	622624	keystroke_m	m	n/a
311.387	0.09	622774	keystroke_a	a	n/a
311.462	0.105	622924	keystroke_r	r	n/a
311.7775	0.09	623555	keystroke_Key.backspace	Key.backspace	n/a
311.8825	0.105	623765	keystroke_s	s	n/a
312.0025	0.075	624005	keystroke_k	k	n/a
312.527	0.09	625054	keystroke_Key.space	Key.space	n/a
312.692	0.1355	625384	keystroke_c	c	n/a
312.767	0.075	625534	keystroke_o	o	n/a
312.932	0.0605	625864	keystroke_l	l	n/a
313.0375	0.135	626075	keystroke_o	o	n/a
313.1275	0.09	626255	keystroke_n	n	n/a
313.5475	0.0745	627095	keystroke_y	y	n/a
313.922	0.09	627844	keystroke_Key.space	Key.space	n/a
314.268	0.075	628536	keystroke_r	r	n/a
314.358	0.06	628716	keystroke_o	o	n/a
314.463	0.09	628926	keystroke_b	b	n/a
314.538	0.255	629076	keystroke_r	r	n/a
314.568	0.03	629136	keystroke_e	e	n/a
314.778	0.12	629556	keystroke_t	t	n/a
315.078	0.074	630156	keystroke_Key.backspace	Key.backspace	n/a
315.227	0.061	630454	keystroke_Key.backspace	Key.backspace	n/a
315.347	0.105	630694	keystroke_Key.backspace	Key.backspace	n/a
315.438	0.09	630876	keystroke_e	e	n/a
315.467	0.121	630934	keystroke_r	r	n/a
315.513	0.15	631026	keystroke_t	t	n/a
316.067	0.0905	632134	keystroke_Key.space	Key.space	n/a
316.2925	0.075	632585	keystroke_p	p	n/a
316.3525	0.135	632705	keystroke_a	a	n/a
316.5475	0.15	633095	keystroke_r	r	n/a
316.6225	0.165	633245	keystroke_t	t	n/a
316.9075	0.075	633815	keystroke_n	n	n/a
317.0575	0.1345	634115	keystroke_e	e	n/a
317.117	0.12	634234	keystroke_r	r	n/a
317.372	0.105	634744	keystroke_s	s	n/a
317.492	0.12	634984	keystroke_h	h	n/a
317.597	0.0905	635194	keystroke_i	i	n/a
317.7925	0.09	635585	keystroke_p	p	n/a
319.7575	0.0745	639515	keystroke_Key.enter	Key.enter	n/a
319.8365	5.9225	639673	prompt	n/a	controllers thong rows richardson\n
320.477	0.09	640954	keystroke_c	c	n/a
320.4925	0.105	640985	keystroke_o	o	n/a
320.552	0.09	641104	keystroke_n	n	n/a
320.702	0.12	641404	keystroke_t	t	n/a
320.777	0.105	641554	keystroke_r	r	n/a
320.867	0.0755	641734	keystroke_o	o	n/a
321.017	0.06	642034	keystroke_l	l	n/a
321.137	0.075	642274	keystroke_l	l	n/a
321.197	0.135	642394	keystroke_e	e	n/a
321.227	0.15	642454	keystroke_r	r	n/a
321.467	0.12	642934	keystroke_s	s	n/a
321.602	0.1055	643204	keystroke_Key.space	Key.space	n/a
321.7825	0.105	643565	keystroke_t	t	n/a
321.8425	0.09	643685	keystroke_h	h	n/a
321.8725	0.105	643745	keystroke_i	i	n/a
321.9175	0.12	643835	keystroke_n	n	n/a
322.0225	0.105	644045	keystroke_g	g	n/a
322.3075	0.075	644615	keystroke_Key.backspace	Key.backspace	n/a
322.4575	0.045	644915	keystroke_Key.backspace	Key.backspace	n/a
322.5475	0.075	645095	keystroke_Key.backspace	Key.backspace	n/a
322.7125	0.105	645425	keystroke_o	o	n/a
322.7575	0.075	645515	keystroke_n	n	n/a
322.8025	0.075	645605	keystroke_g	g	n/a
322.9675	0.105	645935	keystroke_Key.space	Key.space	n/a
323.1925	0.09	646385	keystroke_r	r	n/a
323.2675	0.075	646535	keystroke_o	o	n/a
323.3725	0.09	646745	keystroke_w	w	n/a
323.5525	0.12	647105	keystroke_s	s	n/a
323.882	0.105	647764	keystroke_Key.space	Key.space	n/a
324.332	0.06	648664	keystroke_r	r	n/a
324.377	0.03	648754	keystroke_i	i	n/a
324.422	0.0755	648844	keystroke_c	c	n/a
324.4825	0.06	648965	keystroke_h	h	n/a
324.5575	0.12	649115	keystroke_a	a	n/a
324.6925	0.09	649385	keystroke_r	r	n/a
324.8275	0.09	649655	keystroke_d	d	n/a
324.9775	0.12	649955	keystroke_s	s	n/a
325.1125	0.105	650225	keystroke_o	o	n/a
325.1575	0.09	650315	keystroke_n	n	n/a
325.6825	0.0745	651365	keystroke_Key.enter	Key.enter	n/a
325.762	8.5915	651524	prompt	n/a	knife priority looksmart bufing\n
326.3425	0.12	652685	keystroke_k	k	n/a
326.4325	0.0595	652865	keystroke_n	n	n/a
326.537	0.06	653074	keystroke_i	i	n/a
326.612	0.105	653224	keystroke_f	f	n/a
326.672	0.105	653344	keystroke_e	e	n/a
327.047	0.105	654094	keystroke_Key.space	Key.space	n/a
327.287	0.09	654574	keystroke_p	p	n/a
327.392	0.105	654784	keystroke_r	r	n/a
327.512	0.09	655024	keystroke_i	i	n/a
327.692	0.091	655384	keystroke_o	o	n/a
328.188	0.09	656376	keystroke_r	r	n/a
328.293	0.06	656586	keystroke_i	i	n/a
328.398	0.1345	656796	keystroke_t	t	n/a
328.473	0.1195	656946	keystroke_y	y	n/a
328.9225	0.075	657845	keystroke_Key.space	Key.space	n/a
329.1175	0.075	658235	keystroke_l	l	n/a
329.2675	0.06	658535	keystroke_o	o	n/a
329.3875	0.09	658775	keystroke_o	o	n/a
329.6125	0.075	659225	keystroke_k	k	n/a
329.7325	0.105	659465	keystroke_s	s	n/a
329.8675	0.045	659735	keystroke_m	m	n/a
329.9275	0.105	659855	keystroke_a	a	n/a
330.0625	0.12	660125	keystroke_r	r	n/a
330.1225	0.135	660245	keystroke_t	t	n/a
330.6325	0.105	661265	keystroke_Key.space	Key.space	n/a
330.8875	0.12	661775	keystroke_b	b	n/a
331.0225	0.09	662045	keystroke_u	u	n/a
332.147	0.12	664294	keystroke_f	f	n/a
332.207	0.121	664414	keystroke_i	i	n/a
332.268	0.075	664536	keystroke_n	n	n/a
332.343	0.105	664686	keystroke_g	g	n/a
334.277	0.075	668554	keystroke_Key.enter	Key.enter	n/a
334.356	8.473	668712	prompt	n/a	intervals insulin aggregate angels\n
334.982	0.12	669964	keystroke_i	i	n/a
335.043	0.105	670086	keystroke_n	n	n/a
335.148	0.075	670296	keystroke_t	t	n/a
335.207	0.15	670414	keystroke_e	e	n/a
335.283	0.134	670566	keystroke_r	r	n/a
335.552	0.165	671104	keystroke_a	a	n/a
335.987	0.075	671974	keystroke_Key.backspace	Key.backspace	n/a
336.047	0.12	672094	keystroke_v	v	n/a
336.092	0.15	672184	keystroke_a	a	n/a
336.227	0.09	672454	keystroke_l	l	n/a
336.332	0.12	672664	keystroke_s	s	n/a
336.4825	0.075	672965	keystroke_Key.space	Key.space	n/a
336.6325	0.09	673265	keystroke_i	i	n/a
336.7075	0.075	673415	keystroke_n	n	n/a
336.9475	0.135	673895	keystroke_s	s	n/a
337.0975	0.06	674195	keystroke_u	u	n/a
337.2925	0.09	674585	keystroke_l	l	n/a
337.4275	0.105	674855	keystroke_i	i	n/a
337.5025	0.0745	675005	keystroke_n	n	n/a
337.652	0.105	675304	keystroke_Key.space	Key.space	n/a
337.847	0.12	675694	keystroke_a	a	n/a
338.027	0.09	676054	keystroke_g	g	n/a
338.162	0.105	676324	keystroke_g	g	n/a
338.327	0.09	676654	keystroke_r	r	n/a
338.582	0.0755	677164	keystroke_e	e	n/a
338.778	0.134	677556	keystroke_g	g	n/a
339.4525	0.06	678905	keystroke_r	r	n/a
339.5875	0.105	679175	keystroke_a	a	n/a
339.8725	0.075	679745	keystroke_Key.backspace	Key.backspace	n/a
340.0075	0.105	680015	keystroke_Key.backspace	Key.backspace	n/a
340.0975	0.135	680195	keystroke_a	a	n/a
340.2475	0.105	680495	keystroke_t	t	n/a
340.3075	0.135	680615	keystroke_e	e	n/a
340.742	0.105	681484	keystroke_Key.space	Key.space	n/a
341.117	0.135	682234	keystroke_a	a	n/a
341.207	0.075	682414	keystroke_n	n	n/a
341.327	0.091	682654	keystroke_g	g	n/a
341.372	0.12	682744	keystroke_e	e	n/a
341.493	0.074	682986	keystroke_l	l	n/a
341.642	0.12	683284	keystroke_s	s	n/a
342.752	0.075	685504	keystroke_Key.enter	Key.enter	n/a
342.8385	4.685	685677	prompt	n/a	searching atomic sheer spoke\n
343.412	0.12	686824	keystroke_s	s	n/a
343.547	0.09	687094	keystroke_e	e	n/a
343.607	0.135	687214	keystroke_a	a	n/a
343.697	0.105	687394	keystroke_r	r	n/a
343.907	0.1205	687814	keystroke_c	c	n/a
343.9825	0.075	687965	keystroke_h	h	n/a
344.0725	0.165	688145	keystroke_i	i	n/a
344.1475	0.105	688295	keystroke_n	n	n/a
344.2225	0.075	688445	keystroke_g	g	n/a
344.3575	0.105	688715	keystroke_Key.space	Key.space	n/a
344.7925	0.15	689585	keystroke_a	a	n/a
344.9275	0.105	689855	keystroke_t	t	n/a
344.9875	0.12	689975	keystroke_o	o	n/a
345.0625	0.15	690125	keystroke_m	m	n/a
345.1975	0.09	690395	keystroke_i	i	n/a
345.3175	0.12	690635	keystroke_c	c	n/a
345.5875	0.09	691175	keystroke_Key.space	Key.space	n/a
345.752	0.135	691504	keystroke_s	s	n/a
345.902	0.06	691804	keystroke_h	h	n/a
346.037	0.06	692074	keystroke_e	e	n/a
346.157	0.12	692314	keystroke_e	e	n/a
346.247	0.135	692494	keystroke_r	r	n/a
346.517	0.105	693034	keystroke_Key.space	Key.space	n/a
346.667	0.12	693334	keystroke_s	s	n/a
346.772	0.09	693544	keystroke_p	p	n/a
346.922	0.075	693844	keystroke_o	o	n/a
347.0875	0.075	694175	keystroke_k	k	n/a
347.1475	0.09	694295	keystroke_e	e	n/a
347.4475	0.075	694895	keystroke_Key.enter	Key.enter	n/a
347.5285	10.9455	695057	prompt	n/a	memory feedback beverly showtimes\n
348.032	0.045	696064	keystroke_s	s	n/a
348.062	0.075	696124	keystroke_m	m	n/a
348.362	0.075	696724	keystroke_Key.backspace	Key.backspace	n/a
348.482	0.09	696964	keystroke_Key.backspace	Key.backspace	n/a
348.632	0.075	697264	keystroke_m	m	n/a
348.677	0.105	697354	keystroke_e	e	n/a
348.797	0.06	697594	keystroke_m	m	n/a
348.947	0.075	697894	keystroke_o	o	n/a
349.052	0.135	698104	keystroke_r	r	n/a
349.127	0.12	698254	keystroke_y	y	n/a
349.292	0.105	698584	keystroke_Key.space	Key.space	n/a
349.487	0.105	698974	keystroke_f	f	n/a
349.622	0.091	699244	keystroke_e	e	n/a
349.788	0.0895	699576	keystroke_e	e	n/a
349.9525	0.105	699905	keystroke_d	d	n/a
350.1175	0.09	700235	keystroke_b	b	n/a
350.3125	0.12	700625	keystroke_a	a	n/a
350.3425	0.18	700685	keystroke_c	c	n/a
350.4475	0.09	700895	keystroke_k	k	n/a
350.5075	0.1045	701015	keystroke_Key.space	Key.space	n/a
350.687	0.105	701374	keystroke_v	v	n/a
350.807	0.165	701614	keystroke_e	e	n/a
350.912	0.135	701824	keystroke_r	r	n/a
351.317	0.0605	702634	keystroke_Key.backspace	Key.backspace	n/a
351.452	0.075	702904	keystroke_Key.backspace	Key.backspace	n/a
351.632	0.0905	703264	keystroke_b	b	n/a
351.9175	0.045	703835	keystroke_Key.backspace	Key.backspace	n/a
352.0375	0.06	704075	keystroke_Key.backspace	Key.backspace	n/a
352.0675	0.09	704135	keystroke_b	b	n/a
352.2025	0.12	704405	keystroke_e	e	n/a
352.4125	0.1495	704825	keystroke_v	v	n/a
352.532	0.165	705064	keystroke_e	e	n/a
352.637	0.15	705274	keystroke_r	r	n/a
352.997	0.075	705994	keystroke_l	l	n/a
353.177	0.045	706354	keystroke_y	y	n/a
353.192	0.015	706384	keystroke_t	t	n/a
353.627	0.06	707254	keystroke_Key.backspace	Key.backspace	n/a
353.9425	0.075	707885	keystroke_Key.space	Key.space	n/a
354.0325	0.09	708065	keystroke_s	s	n/a
354.1825	0.06	708365	keystroke_h	h	n/a
354.2725	0.06	708545	keystroke_o	o	n/a
354.3925	0.09	708785	keystroke_w	w	n/a
354.5575	0.105	709115	keystroke_t	t	n/a
354.6325	0.12	709265	keystroke_i	i	n/a
354.6925	0.09	709385	keystroke_m	m	n/a
354.7675	0.105	709535	keystroke_e	e	n/a
354.9625	0.12	709925	keystroke_s	s	n/a
358.4595	0.013	716919	keystroke_Key.enter	Key.enter	n/a
358.4765	5.787	716953	prompt	n/a	argue months challenges doom\n
358.9975	0.105	717995	keystroke_a	a	n/a
359.1175	0.0895	718235	keystroke_r	r	n/a
359.267	0.1055	718534	keystroke_g	g	n/a
359.3425	0.075	718685	keystroke_u	u	n/a
359.4475	0.105	718895	keystroke_e	e	n/a
359.5525	0.09	719105	keystroke_Key.space	Key.space	n/a
359.7175	0.12	719435	keystroke_m	m	n/a
359.7925	0.135	719585	keystroke_o	o	n/a
359.8975	0.09	719795	keystroke_n	n	n/a
360.0175	0.12	720035	keystroke_t	t	n/a
360.0775	0.09	720155	keystroke_h	h	n/a
360.2725	0.12	720545	keystroke_s	s	n/a
360.6475	0.09	721295	keystroke_Key.space	Key.space	n/a
360.8725	0.12	721745	keystroke_c	c	n/a
361.0075	0.06	722015	keystroke_h	h	n/a
361.0825	0.15	722165	keystroke_a	a	n/a
361.4875	0.075	722975	keystroke_l	l	n/a
361.6075	0.075	723215	keystroke_l	l	n/a
361.6975	0.135	723395	keystroke_e	e	n/a
361.8475	0.06	723695	keystroke_g	g	n/a
362.3275	0.06	724655	keystroke_Key.backspace	Key.backspace	n/a
362.4775	0.09	724955	keystroke_n	n	n/a
362.5525	0.0895	725105	keystroke_g	g	n/a
362.6125	0.1045	725225	keystroke_e	e	n/a
362.807	0.135	725614	keystroke_s	s	n/a
362.957	0.075	725914	keystroke_Key.space	Key.space	n/a
363.077	0.105	726154	keystroke_d	d	n/a
363.152	0.075	726304	keystroke_o	o	n/a
363.272	0.15	726544	keystroke_o	o	n/a
363.377	0.09	726754	keystroke_m	m	n/a
364.1875	0.075	728375	keystroke_Key.enter	Key.enter	n/a
364.2665	6.5375	728533	prompt	n/a	brakes who'd screening regarding\n
364.923	0.0895	729846	keystroke_b	b	n/a
365.0875	0.075	730175	keystroke_r	r	n/a
365.2225	0.15	730445	keystroke_a	a	n/a
365.3575	0.105	730715	keystroke_k	k	n/a
365.4775	0.09	730955	keystroke_e	e	n/a
365.7775	0.0905	731555	keystroke_s	s	n/a
366.0175	0.105	732035	keystroke_Key.space	Key.space	n/a
366.1375	0.075	732275	keystroke_w	w	n/a
366.3175	0.075	732635	keystroke_h	h	n/a
366.5725	0.075	733145	keystroke_o	o	n/a
366.9175	0.105	733835	keystroke_'	'	n/a
367.0375	0.09	734075	keystroke_d	d	n/a
367.2175	0.075	734435	keystroke_Key.space	Key.space	n/a
367.2775	0.165	734555	keystroke_s	s	n/a
367.4125	0.105	734825	keystroke_c	c	n/a
367.6525	0.105	735305	keystroke_r	r	n/a
367.6975	0.105	735395	keystroke_e	e	n/a
367.9675	0.075	735935	keystroke_e	e	n/a
368.1775	0.075	736355	keystroke_n	n	n/a
368.2675	0.135	736535	keystroke_i	i	n/a
368.3425	0.09	736685	keystroke_n	n	n/a
368.4475	0.09	736895	keystroke_g	g	n/a
368.8975	0.09	737795	keystroke_Key.space	Key.space	n/a
369.1075	0.12	738215	keystroke_a	a	n/a
369.4075	0.09	738815	keystroke_Key.backspace	Key.backspace	n/a
369.4525	0.135	738905	keystroke_r	r	n/a
369.5125	0.12	739025	keystroke_e	e	n/a
369.7525	0.135	739505	keystroke_g	g	n/a
369.9025	0.135	739805	keystroke_a	a	n/a
370.0525	0.06	740105	keystroke_r	r	n/a
370.1725	0.0895	740345	keystroke_d	d	n/a
370.2175	0.1205	740435	keystroke_i	i	n/a
370.277	0.091	740554	keystroke_n	n	n/a
370.353	0.089	740706	keystroke_g	g	n/a
370.7275	0.075	741455	keystroke_Key.enter	Key.enter	n/a
370.8075	6.5365	741615	prompt	n/a	instructional recovered vary hunter\n
371.3575	0.09	742715	keystroke_i	i	n/a
371.4025	0.105	742805	keystroke_n	n	n/a
371.4925	0.15	742985	keystroke_s	s	n/a
371.6125	0.12	743225	keystroke_t	t	n/a
371.6875	0.09	743375	keystroke_r	r	n/a
371.7625	0.06	743525	keystroke_u	u	n/a
371.8675	0.12	743735	keystroke_c	c	n/a
372.1075	0.0745	744215	keystroke_t	t	n/a
372.482	0.09	744964	keystroke_i	i	n/a
372.647	0.135	745294	keystroke_o	o	n/a
372.707	0.09	745414	keystroke_n	n	n/a
372.798	0.149	745596	keystroke_a	a	n/a
372.887	0.121	745774	keystroke_l	l	n/a
372.977	0.09	745954	keystroke_Key.space	Key.space	n/a
373.157	0.12	746314	keystroke_r	r	n/a
373.232	0.06	746464	keystroke_e	e	n/a
373.412	0.12	746824	keystroke_c	c	n/a
373.517	0.045	747034	keystroke_o	o	n/a
373.637	0.06	747274	keystroke_v	v	n/a
373.652	0.135	747304	keystroke_e	e	n/a
373.757	0.12	747514	keystroke_r	r	n/a
373.922	0.09	747844	keystroke_y	y	n/a
374.3575	0.09	748715	keystroke_Key.space	Key.space	n/a
374.7625	0.165	749525	keystroke_a	a	n/a
375.1975	0.09	750395	keystroke_Key.backspace	Key.backspace	n/a
375.3025	0.15	750605	keystroke_v	v	n/a
375.3925	0.165	750785	keystroke_a	a	n/a
375.5875	0.12	751175	keystroke_r	r	n/a
375.6625	0.105	751325	keystroke_y	y	n/a
375.7825	0.09	751565	keystroke_Key.space	Key.space	n/a
375.9925	0.075	751985	keystroke_h	h	n/a
376.1125	0.135	752225	keystroke_u	u	n/a
376.1725	0.105	752345	keystroke_n	n	n/a
376.5325	0.135	753065	keystroke_t	t	n/a
376.6225	0.18	753245	keystroke_e	e	n/a
376.7425	0.12	753485	keystroke_r	r	n/a
377.267	0.075	754534	keystroke_Key.enter	Key.enter	n/a
377.348	6.9105	754696	prompt	n/a	ministry rolled march characteristic\n
377.9425	0.105	755885	keystroke_m	m	n/a
378.0775	0.09	756155	keystroke_i	i	n/a
378.1825	0.12	756365	keystroke_n	n	n/a
378.2725	0.105	756545	keystroke_i	i	n/a
378.662	0.136	757324	keystroke_s	s	n/a
378.752	0.165	757504	keystroke_t	t	n/a
378.843	0.15	757686	keystroke_r	r	n/a
378.978	0.12	757956	keystroke_y	y	n/a
379.488	0.074	758976	keystroke_Key.space	Key.space	n/a
379.622	0.1055	759244	keystroke_r	r	n/a
379.7125	0.075	759425	keystroke_o	o	n/a
379.848	0.074	759696	keystroke_l	l	n/a
379.967	0.075	759934	keystroke_l	l	n/a
380.057	0.075	760114	keystroke_e	e	n/a
380.192	0.12	760384	keystroke_d	d	n/a
380.297	0.075	760594	keystroke_Key.space	Key.space	n/a
380.4325	0.075	760865	keystroke_m	m	n/a
380.4925	0.105	760985	keystroke_a	a	n/a
380.5675	0.09	761135	keystroke_r	r	n/a
380.7775	0.09	761555	keystroke_c	c	n/a
380.8525	0.075	761705	keystroke_h	h	n/a
381.3025	0.09	762605	keystroke_Key.space	Key.space	n/a
381.587	0.105	763174	keystroke_c	c	n/a
381.6625	0.0745	763325	keystroke_h	h	n/a
381.782	0.075	763564	keystroke_a	a	n/a
381.872	0.15	763744	keystroke_r	r	n/a
382.007	0.135	764014	keystroke_a	a	n/a
382.143	0.149	764286	keystroke_c	c	n/a
382.6375	0.12	765275	keystroke_t	t	n/a
382.7725	0.135	765545	keystroke_e	e	n/a
382.8325	0.15	765665	keystroke_r	r	n/a
383.0725	0.075	766145	keystroke_i	i	n/a
383.2075	0.135	766415	keystroke_s	s	n/a
383.3125	0.12	766625	keystroke_t	t	n/a
383.4625	0.09	766925	keystroke_i	i	n/a
383.6125	0.1045	767225	keystroke_c	c	n/a
384.212	0.0455	768424	keystroke_Key.enter	Key.enter	n/a
384.2635	6.805	768527	prompt	n/a	dirty bulk rocky literally\n
384.828	0.1195	769656	keystroke_d	d	n/a
384.9325	0.075	769865	keystroke_i	i	n/a
385.397	0.075	770794	keystroke_r	r	n/a
385.698	0.1195	771396	keystroke_t	t	n/a
385.8925	0.105	771785	keystroke_y	y	n/a
386.2525	0.105	772505	keystroke_Key.space	Key.space	n/a
386.4475	0.0895	772895	keystroke_b	b	n/a
386.582	0.09	773164	keystroke_u	u	n/a
386.762	0.105	773524	keystroke_c	c	n/a
387.167	0.075	774334	keystroke_Key.backspace	Key.backspace	n/a
387.362	0.09	774724	keystroke_l	l	n/a
387.498	0.089	774996	keystroke_k	k	n/a
387.632	0.09	775264	keystroke_Key.space	Key.space	n/a
387.8425	0.06	775685	keystroke_r	r	n/a
387.9025	0.075	775805	keystroke_o	o	n/a
388.0075	0.1195	776015	keystroke_c	c	n/a
388.097	0.075	776194	keystroke_k	k	n/a
388.412	0.0755	776824	keystroke_y	y	n/a
388.622	0.075	777244	keystroke_Key.space	Key.space	n/a
388.832	0.06	777664	keystroke_l	l	n/a
388.967	0.0755	777934	keystroke_i	i	n/a
389.072	0.21	778144	keystroke_e	e	n/a
389.177	0.09	778354	keystroke_r	r	n/a
389.5675	0.0305	779135	keystroke_Key.backspace	Key.backspace	n/a
389.6575	0.09	779315	keystroke_Key.backspace	Key.backspace	n/a
389.7625	0.105	779525	keystroke_t	t	n/a
389.9875	0.12	779975	keystroke_e	e	n/a
390.0475	0.105	780095	keystroke_r	r	n/a
390.2275	0.165	780455	keystroke_a	a	n/a
390.3025	0.075	780605	keystroke_l	l	n/a
390.4375	0.0755	780875	keystroke_l	l	n/a
390.528	0.09	781056	keystroke_y	y	n/a
390.993	0.074	781986	keystroke_Key.enter	Key.enter	n/a
391.074	6.52	782148	prompt	n/a	hierarchy treatment used farmer\n
391.773	0.09	783546	keystroke_h	h	n/a
391.953	0.075	783906	keystroke_i	i	n/a
392.1175	0.105	784235	keystroke_e	e	n/a
392.2975	0.075	784595	keystroke_r	r	n/a
392.703	0.105	785406	keystroke_a	a	n/a
392.883	0.06	785766	keystroke_r	r	n/a
393.063	0.105	786126	keystroke_c	c	n/a
393.183	0.06	786366	keystroke_h	h	n/a
393.453	0.045	786906	keystroke_y	y	n/a
393.708	0.089	787416	keystroke_Key.space	Key.space	n/a
393.813	0.135	787626	keystroke_t	t	n/a
394.158	0.105	788316	keystroke_r	r	n/a
394.398	0.0895	788796	keystroke_e	e	n/a
394.5475	0.12	789095	keystroke_a	a	n/a
394.6525	0.12	789305	keystroke_t	t	n/a
394.7875	0.105	789575	keystroke_m	m	n/a
394.9075	0.075	789815	keystroke_e	e	n/a
394.9675	0.09	789935	keystroke_n	n	n/a
395.0725	0.09	790145	keystroke_t	t	n/a
395.2075	0.09	790415	keystroke_Key.space	Key.space	n/a
395.418	0.075	790836	keystroke_u	u	n/a
395.508	0.09	791016	keystroke_s	s	n/a
395.568	0.12	791136	keystroke_e	e	n/a
395.853	0.09	791706	keystroke_Key.space	Key.space	n/a
396.2575	0.12	792515	keystroke_Key.backspace	Key.backspace	n/a
396.3625	0.075	792725	keystroke_d	d	n/a
396.4975	0.075	792995	keystroke_Key.space	Key.space	n/a
396.5425	0.105	793085	keystroke_f	f	n/a
396.6625	0.09	793325	keystroke_a	a	n/a
396.7225	0.12	793445	keystroke_r	r	n/a
396.8575	0.075	793715	keystroke_m	m	n/a
397.0825	0.15	794165	keystroke_e	e	n/a
397.1725	0.12	794345	keystroke_r	r	n/a
397.518	0.075	795036	keystroke_Key.enter	Key.enter	n/a
397.597	9.057	795194	prompt	n/a	analyzed rural suggested encouraged\n
398.1925	0.12	796385	keystroke_a	a	n/a
398.2975	0.075	796595	keystroke_n	n	n/a
398.4325	0.135	796865	keystroke_a	a	n/a
398.6875	0.075	797375	keystroke_y	y	n/a
399.168	0.075	798336	keystroke_l	l	n/a
399.6475	0.06	799295	keystroke_Key.backspace	Key.backspace	n/a
399.7825	0.075	799565	keystroke_Key.backspace	Key.backspace	n/a
400.0225	0.09	800045	keystroke_l	l	n/a
400.533	0.075	801066	keystroke_y	y	n/a
400.863	0.09	801726	keystroke_z	z	n/a
401.103	0.06	802206	keystroke_e	e	n/a
401.493	0.044	802986	keystroke_Key.space	Key.space	n/a
401.6875	0.105	803375	keystroke_Key.backspace	Key.backspace	n/a
401.7775	0.1055	803555	keystroke_d	d	n/a
401.913	0.105	803826	keystroke_Key.space	Key.space	n/a
402.033	0.105	804066	keystroke_r	r	n/a
402.123	0.075	804246	keystroke_u	u	n/a
402.288	0.075	804576	keystroke_r	r	n/a
402.408	0.15	804816	keystroke_a	a	n/a
402.603	0.075	805206	keystroke_l	l	n/a
403.053	0.09	806106	keystroke_Key.space	Key.space	n/a
403.203	0.045	806406	keystroke_c	c	n/a
403.5625	0.075	807125	keystroke_Key.backspace	Key.backspace	n/a
403.6525	0.135	807305	keystroke_s	s	n/a
403.7575	0.075	807515	keystroke_u	u	n/a
403.8475	0.09	807695	keystroke_g	g	n/a
403.9975	0.12	807995	keystroke_g	g	n/a
404.1025	0.105	808205	keystroke_e	e	n/a
404.2825	0.1355	808565	keystroke_s	s	n/a
404.373	0.15	808746	keystroke_t	t	n/a
404.493	0.09	808986	keystroke_e	e	n/a
404.703	0.09	809406	keystroke_d	d	n/a
404.883	0.09	809766	keystroke_Key.space	Key.space	n/a
405.078	0.09	810156	keystroke_e	e	n/a
405.168	0.075	810336	keystroke_n	n	n/a
405.303	0.105	810606	keystroke_c	c	n/a
405.393	0.06	810786	keystroke_o	o	n/a
405.528	0.09	811056	keystroke_u	u	n/a
405.603	0.0895	811206	keystroke_r	r	n/a
405.7375	0.12	811475	keystroke_a	a	n/a
405.8425	0.135	811685	keystroke_g	g	n/a
405.9325	0.105	811865	keystroke_e	e	n/a
406.1125	0.12	812225	keystroke_d	d	n/a
406.577	0.076	813154	keystroke_Key.enter	Key.enter	n/a
406.657	5.367	813314	prompt	n/a	flush flour coaches collector\n
407.2225	0.105	814445	keystroke_f	f	n/a
407.3125	0.09	814625	keystroke_l	l	n/a
407.4775	0.075	814955	keystroke_u	u	n/a
407.5375	0.12	815075	keystroke_s	s	n/a
407.6425	0.075	815285	keystroke_h	h	n/a
407.807	0.09	815614	keystroke_Key.space	Key.space	n/a
407.927	0.106	815854	keystroke_f	f	n/a
408.017	0.09	816034	keystroke_l	l	n/a
408.197	0.075	816394	keystroke_o	o	n/a
408.347	0.06	816694	keystroke_u	u	n/a
408.422	0.0905	816844	keystroke_r	r	n/a
408.9175	0.09	817835	keystroke_Key.space	Key.space	n/a
409.0525	0.105	818105	keystroke_c	c	n/a
409.1425	0.06	818285	keystroke_o	o	n/a
409.2175	0.15	818435	keystroke_a	a	n/a
409.3375	0.105	818675	keystroke_c	c	n/a
409.3975	0.075	818795	keystroke_h	h	n/a
409.5325	0.09	819065	keystroke_e	e	n/a
409.7575	0.0755	819515	keystroke_s	s	n/a
410.342	0.091	820684	keystroke_Key.space	Key.space	n/a
410.493	0.135	820986	keystroke_c	c	n/a
410.597	0.061	821194	keystroke_o	o	n/a
410.748	0.06	821496	keystroke_l	l	n/a
410.868	0.075	821736	keystroke_l	l	n/a
410.928	0.09	821856	keystroke_e	e	n/a
410.973	0.12	821946	keystroke_c	c	n/a
411.213	0.09	822426	keystroke_t	t	n/a
411.318	0.06	822636	keystroke_o	o	n/a
411.393	0.075	822786	keystroke_r	r	n/a
411.9625	0.06	823925	keystroke_Key.enter	Key.enter	n/a
412.0265	6.8975	824053	prompt	n/a	frontier obligation mails helicopter\n
412.637	0.105	825274	keystroke_f	f	n/a
412.757	0.045	825514	keystroke_o	o	n/a
412.817	0.105	825634	keystroke_r	r	n/a
413.102	0.06	826204	keystroke_Key.backspace	Key.backspace	n/a
413.222	0.06	826444	keystroke_Key.backspace	Key.backspace	n/a
413.297	0.09	826594	keystroke_r	r	n/a
413.402	0.105	826804	keystroke_o	o	n/a
413.432	0.105	826864	keystroke_n	n	n/a
413.552	0.075	827104	keystroke_t	t	n/a
414.0025	0.075	828005	keystroke_i	i	n/a
414.0925	0.0895	828185	keystroke_e	e	n/a
414.273	0.074	828546	keystroke_r	r	n/a
414.6325	0.12	829265	keystroke_Key.space	Key.space	n/a
415.0075	0.075	830015	keystroke_o	o	n/a
415.0835	0.119	830167	keystroke_b	b	n/a
415.2175	0.09	830435	keystroke_l	l	n/a
415.3675	0.09	830735	keystroke_i	i	n/a
415.5925	0.09	831185	keystroke_g	g	n/a
415.712	0.1505	831424	keystroke_a	a	n/a
415.8775	0.09	831755	keystroke_t	t	n/a
415.9525	0.06	831905	keystroke_i	i	n/a
416.0875	0.09	832175	keystroke_o	o	n/a
416.1325	0.075	832265	keystroke_n	n	n/a
416.2525	0.09	832505	keystroke_Key.space	Key.space	n/a
416.4025	0.09	832805	keystroke_m	m	n/a
416.4625	0.15	832925	keystroke_a	a	n/a
416.5675	0.06	833135	keystroke_i	i	n/a
416.7175	0.09	833435	keystroke_l	l	n/a
416.7925	0.105	833585	keystroke_s	s	n/a
417.0625	0.09	834125	keystroke_Key.space	Key.space	n/a
417.3625	0.075	834725	keystroke_h	h	n/a
417.513	0.1195	835026	keystroke_e	e	n/a
417.6025	0.09	835205	keystroke_l	l	n/a
417.7525	0.075	835505	keystroke_i	i	n/a
417.8425	0.12	835685	keystroke_c	c	n/a
418.113	0.06	836226	keystroke_o	o	n/a
418.263	0.075	836526	keystroke_p	p	n/a
418.353	0.075	836706	keystroke_t	t	n/a
418.4725	0.15	836945	keystroke_e	e	n/a
418.5325	0.15	837065	keystroke_r	r	n/a
418.8475	0.075	837695	keystroke_Key.enter	Key.enter	n/a
418.9265	13.9775	837853	prompt	n/a	secretariat represent jewellery funny\n
419.4925	0.135	838985	keystroke_s	s	n/a
419.943	0.045	839886	keystroke_e	e	n/a
420.273	0.12	840546	keystroke_c	c	n/a
420.707	0.1505	841414	keystroke_r	r	n/a
420.7825	0.12	841565	keystroke_e	e	n/a
422.6875	0.12	845375	keystroke_t	t	n/a
422.8375	0.165	845675	keystroke_a	a	n/a
422.9725	0.15	845945	keystroke_r	r	n/a
423.1075	0.075	846215	keystroke_i	i	n/a
423.1975	0.135	846395	keystroke_a	a	n/a
423.647	0.105	847294	keystroke_t	t	n/a
423.947	0.12	847894	keystroke_Key.space	Key.space	n/a
424.052	0.15	848104	keystroke_r	r	n/a
424.128	0.149	848256	keystroke_e	e	n/a
424.262	0.105	848524	keystroke_p	p	n/a
424.382	0.165	848764	keystroke_r	r	n/a
424.457	0.105	848914	keystroke_e	e	n/a
424.697	0.1055	849394	keystroke_s	s	n/a
424.8775	0.09	849755	keystroke_e	e	n/a
424.9825	0.09	849965	keystroke_n	n	n/a
425.1025	0.09	850205	keystroke_t	t	n/a
425.3575	0.09	850715	keystroke_Key.space	Key.space	n/a
425.5975	0.09	851195	keystroke_j	j	n/a
425.7025	0.1805	851405	keystroke_e	e	n/a
425.8075	0.1355	851615	keystroke_w	w	n/a
427.0525	0.12	854105	keystroke_e	e	n/a
427.5925	0.06	855185	keystroke_l	l	n/a
427.6975	0.0895	855395	keystroke_l	l	n/a
427.983	0.105	855966	keystroke_e	e	n/a
428.253	0.09	856506	keystroke_r	r	n/a
428.448	0.09	856896	keystroke_y	y	n/a
428.628	0.09	857256	keystroke_Key.space	Key.space	n/a
428.748	0.1345	857496	keystroke_f	f	n/a
428.8675	0.06	857735	keystroke_u	u	n/a
428.9425	0.06	857885	keystroke_n	n	n/a
429.0325	0.09	858065	keystroke_n	n	n/a
429.2425	0.06	858485	keystroke_y	y	n/a
432.875	0.028	865750	keystroke_Key.enter	Key.enter	n/a
432.9075	7.5265	865815	prompt	n/a	planner zoning floyd founded\n
433.713	0.12	867426	keystroke_p	p	n/a
433.743	0.075	867486	keystroke_o	o	n/a
433.773	0.12	867546	keystroke_l	l	n/a
434.013	0.12	868026	keystroke_a	a	n/a
434.088	0.075	868176	keystroke_n	n	n/a
434.3275	0.075	868655	keystroke_Key.backspace	Key.backspace	n/a
434.4625	0.075	868925	keystroke_Key.backspace	Key.backspace	n/a
434.6275	0.045	869255	keystroke_Key.backspace	Key.backspace	n/a
434.6875	0.075	869375	keystroke_Key.backspace	Key.backspace	n/a
435.1075	0.09	870215	keystroke_l	l	n/a
435.2725	0.105	870545	keystroke_a	a	n/a
435.3175	0.075	870635	keystroke_n	n	n/a
435.4375	0.09	870875	keystroke_n	n	n/a
435.5285	0.134	871057	keystroke_e	e	n/a
435.6175	0.15	871235	keystroke_r	r	n/a
435.7525	0.12	871505	keystroke_Key.space	Key.space	n/a
436.0975	0.075	872195	keystroke_o	o	n/a
436.3825	0.075	872765	keystroke_Key.backspace	Key.backspace	n/a
436.4725	0.105	872945	keystroke_z	z	n/a
436.5625	0.105	873125	keystroke_o	o	n/a
436.6375	0.075	873275	keystroke_n	n	n/a
436.802	0.06	873604	keystroke_i	i	n/a
437.3125	0.0755	874625	keystroke_n	n	n/a
437.448	0.09	874896	keystroke_g	g	n/a
437.568	0.09	875136	keystroke_Key.space	Key.space	n/a
437.7325	0.135	875465	keystroke_f	f	n/a
437.8525	0.06	875705	keystroke_l	l	n/a
438.0175	0.06	876035	keystroke_o	o	n/a
438.3475	0.075	876695	keystroke_y	y	n/a
438.543	0.135	877086	keystroke_d	d	n/a
439.023	0.075	878046	keystroke_Key.space	Key.space	n/a
439.398	0.135	878796	keystroke_f	f	n/a
439.488	0.06	878976	keystroke_o	o	n/a
439.623	0.0895	879246	keystroke_u	u	n/a
439.653	0.1045	879306	keystroke_n	n	n/a
439.7275	0.0895	879455	keystroke_d	d	n/a
439.893	0.074	879786	keystroke_e	e	n/a
440.0425	0.105	880085	keystroke_d	d	n/a
440.3575	0.075	880715	keystroke_Key.enter	Key.enter	n/a
440.4385	4.8855	880877	prompt	n/a	ever shorts functional treated\n
440.9875	0.075	881975	keystroke_e	e	n/a
441.378	0.09	882756	keystroke_v	v	n/a
441.513	0.12	883026	keystroke_e	e	n/a
441.573	0.1345	883146	keystroke_r	r	n/a
441.7225	0.09	883445	keystroke_Key.space	Key.space	n/a
441.8275	0.09	883655	keystroke_s	s	n/a
441.9325	0.09	883865	keystroke_h	h	n/a
442.0075	0.075	884015	keystroke_o	o	n/a
442.0975	0.12	884195	keystroke_r	r	n/a
442.1575	0.12	884315	keystroke_t	t	n/a
442.3675	0.12	884735	keystroke_s	s	n/a
442.7275	0.105	885455	keystroke_Key.space	Key.space	n/a
443.0575	0.1045	886115	keystroke_f	f	n/a
443.147	0.09	886294	keystroke_u	u	n/a
443.282	0.03	886564	keystroke_n	n	n/a
443.297	0.09	886594	keystroke_c	c	n/a
443.477	0.105	886954	keystroke_t	t	n/a
443.567	0.075	887134	keystroke_i	i	n/a
443.687	0.106	887374	keystroke_o	o	n/a
443.733	0.075	887466	keystroke_n	n	n/a
443.823	0.135	887646	keystroke_a	a	n/a
443.913	0.075	887826	keystroke_l	l	n/a
444.003	0.06	888006	keystroke_Key.space	Key.space	n/a
444.213	0.105	888426	keystroke_t	t	n/a
444.393	0.15	888786	keystroke_r	r	n/a
444.423	0.09	888846	keystroke_e	e	n/a
444.603	0.195	889206	keystroke_a	a	n/a
444.783	0.12	889566	keystroke_t	t	n/a
444.858	0.075	889716	keystroke_e	e	n/a
445.023	0.105	890046	keystroke_d	d	n/a
445.248	0.075	890496	keystroke_Key.enter	Key.enter	n/a
445.327	5.727	890654	prompt	n/a	statement diameter projected breast\n
445.9075	0.135	891815	keystroke_s	s	n/a
446.0125	0.12	892025	keystroke_t	t	n/a
446.1025	0.12	892205	keystroke_a	a	n/a
446.2075	0.105	892415	keystroke_t	t	n/a
446.2675	0.12	892535	keystroke_e	e	n/a
446.3725	0.06	892745	keystroke_m	m	n/a
446.4335	0.089	892867	keystroke_e	e	n/a
446.5075	0.09	893015	keystroke_n	n	n/a
446.5825	0.105	893165	keystroke_t	t	n/a
446.9125	0.075	893825	keystroke_Key.space	Key.space	n/a
447.3175	0.09	894635	keystroke_d	d	n/a
447.3925	0.075	894785	keystroke_i	i	n/a
447.4825	0.105	894965	keystroke_a	a	n/a
447.6025	0.06	895205	keystroke_m	m	n/a
447.7375	0.09	895475	keystroke_e	e	n/a
447.8575	0.1355	895715	keystroke_t	t	n/a
447.962	0.136	895924	keystroke_e	e	n/a
448.037	0.135	896074	keystroke_r	r	n/a
448.232	0.12	896464	keystroke_Key.space	Key.space	n/a
448.457	0.0755	896914	keystroke_p	p	n/a
448.5775	0.09	897155	keystroke_r	r	n/a
448.6825	0.075	897365	keystroke_o	o	n/a
448.8625	0.075	897725	keystroke_j	j	n/a
448.9225	0.135	897845	keystroke_e	e	n/a
449.0125	0.12	898025	keystroke_c	c	n/a
449.2375	0.135	898475	keystroke_t	t	n/a
449.3125	0.12	898625	keystroke_e	e	n/a
449.4775	0.1345	898955	keystroke_d	d	n/a
449.642	0.105	899284	keystroke_Key.space	Key.space	n/a
450.047	0.091	900094	keystroke_b	b	n/a
450.257	0.166	900514	keystroke_r	r	n/a
450.317	0.106	900634	keystroke_e	e	n/a
450.407	0.166	900814	keystroke_a	a	n/a
450.513	0.135	901026	keystroke_s	s	n/a
450.588	0.12	901176	keystroke_t	t	n/a
450.978	0.075	901956	keystroke_Key.enter	Key.enter	n/a
451.0605	7.1635	902121	prompt	n/a	stretch optical greene quotes\n
451.6525	0.135	903305	keystroke_s	s	n/a
451.7725	0.1505	903545	keystroke_t	t	n/a
451.863	0.09	903726	keystroke_r	r	n/a
452.013	0.105	904026	keystroke_e	e	n/a
452.3725	0.06	904745	keystroke_t	t	n/a
452.5525	0.12	905105	keystroke_c	c	n/a
452.6875	0.105	905375	keystroke_h	h	n/a
452.9425	0.09	905885	keystroke_Key.space	Key.space	n/a
453.167	0.106	906334	keystroke_o	o	n/a
453.347	0.091	906694	keystroke_p	p	n/a
453.453	0.06	906906	keystroke_t	t	n/a
453.527	0.09	907054	keystroke_i	i	n/a
453.633	0.09	907266	keystroke_c	c	n/a
453.647	0.136	907294	keystroke_a	a	n/a
453.768	0.075	907536	keystroke_l	l	n/a
454.352	0.091	908704	keystroke_Key.space	Key.space	n/a
454.6975	0.1055	909395	keystroke_g	g	n/a
454.878	0.12	909756	keystroke_r	r	n/a
454.953	0.104	909906	keystroke_e	e	n/a
455.118	0.1045	910236	keystroke_e	e	n/a
455.2525	0.075	910505	keystroke_n	n	n/a
455.4025	0.105	910805	keystroke_Key.space	Key.space	n/a
455.7175	0.075	911435	keystroke_Key.backspace	Key.backspace	n/a
455.8525	0.12	911705	keystroke_e	e	n/a
456.1075	0.105	912215	keystroke_Key.space	Key.space	n/a
456.2425	0.105	912485	keystroke_q	q	n/a
456.4225	0.09	912845	keystroke_u	u	n/a
456.6175	0.075	913235	keystroke_o	o	n/a
456.6625	0.12	913325	keystroke_t	t	n/a
456.7225	0.105	913445	keystroke_e	e	n/a
456.8875	0.135	913775	keystroke_s	s	n/a
458.1475	0.075	916295	keystroke_Key.enter	Key.enter	n/a
458.2285	8.3055	916457	prompt	n/a	he've involve coleman presentation\n
458.8375	0.09	917675	keystroke_g	g	n/a
458.9425	0.105	917885	keystroke_e	e	n/a
459.2125	0.06	918425	keystroke_Key.backspace	Key.backspace	n/a
459.3325	0.09	918665	keystroke_Key.backspace	Key.backspace	n/a
459.3775	0.09	918755	keystroke_h	h	n/a
459.4375	0.12	918875	keystroke_e	e	n/a
459.6775	0.09	919355	keystroke_'	'	n/a
459.8575	0.105	919715	keystroke_v	v	n/a
459.9025	0.12	919805	keystroke_e	e	n/a
460.458	0.105	920916	keystroke_Key.space	Key.space	n/a
460.653	0.075	921306	keystroke_i	i	n/a
460.698	0.105	921396	keystroke_n	n	n/a
460.818	0.105	921636	keystroke_v	v	n/a
460.968	0.075	921936	keystroke_o	o	n/a
461.117	0.105	922234	keystroke_l	l	n/a
461.237	0.09	922474	keystroke_v	v	n/a
461.298	0.12	922596	keystroke_e	e	n/a
461.9125	0.09	923825	keystroke_Key.space	Key.space	n/a
462.1975	0.1205	924395	keystroke_c	c	n/a
462.258	0.075	924516	keystroke_o	o	n/a
462.408	0.09	924816	keystroke_l	l	n/a
462.468	0.09	924936	keystroke_e	e	n/a
462.858	0.09	925716	keystroke_m	m	n/a
463.3075	0.135	926615	keystroke_a	a	n/a
463.4275	0.075	926855	keystroke_n	n	n/a
463.7725	0.09	927545	keystroke_Key.space	Key.space	n/a
464.0725	0.06	928145	keystroke_p	p	n/a
464.2225	0.1355	928445	keystroke_r	r	n/a
464.2975	0.1055	928595	keystroke_e	e	n/a
464.8375	0.1505	929675	keystroke_s	s	n/a
464.943	0.15	929886	keystroke_e	e	n/a
465.078	0.09	930156	keystroke_n	n	n/a
465.288	0.12	930576	keystroke_t	t	n/a
465.393	0.135	930786	keystroke_a	a	n/a
465.468	0.15	930936	keystroke_t	t	n/a
465.543	0.09	931086	keystroke_i	i	n/a
465.6775	0.09	931355	keystroke_o	o	n/a
465.7375	0.09	931475	keystroke_n	n	n/a
466.4575	0.0755	932915	keystroke_Key.enter	Key.enter	n/a
466.5365	9.1025	933073	prompt	n/a	thorough dvds directly carlos\n
467.238	0.06	934476	keystroke_t	t	n/a
467.283	0.06	934566	keystroke_h	h	n/a
467.6425	0.09	935285	keystroke_o	o	n/a
467.7775	0.12	935555	keystroke_r	r	n/a
467.9125	0.06	935825	keystroke_o	o	n/a
468.0475	0.09	936095	keystroke_u	u	n/a
468.1825	0.09	936365	keystroke_g	g	n/a
468.2125	0.15	936425	keystroke_h	h	n/a
468.677	0.105	937354	keystroke_Key.space	Key.space	n/a
468.887	0.075	937774	keystroke_d	d	n/a
469.308	0.105	938616	keystroke_v	v	n/a
469.457	0.136	938914	keystroke_s	s	n/a
470.0725	0.075	940145	keystroke_Key.backspace	Key.backspace	n/a
470.3275	0.09	940655	keystroke_d	d	n/a
470.493	0.1195	940986	keystroke_s	s	n/a
470.8525	0.075	941705	keystroke_Key.space	Key.space	n/a
470.9875	0.105	941975	keystroke_d	d	n/a
471.0625	0.075	942125	keystroke_i	i	n/a
471.1975	0.0745	942395	keystroke_r	r	n/a
471.212	0.15	942424	keystroke_e	e	n/a
471.452	0.135	942904	keystroke_c	c	n/a
471.707	0.105	943414	keystroke_t	t	n/a
471.813	0.074	943626	keystroke_l	l	n/a
471.918	0.104	943836	keystroke_y	y	n/a
472.097	0.09	944194	keystroke_Key.space	Key.space	n/a
472.247	0.1505	944494	keystroke_c	c	n/a
472.3075	0.165	944615	keystroke_a	a	n/a
472.5025	0.09	945005	keystroke_r	r	n/a
472.5625	0.105	945125	keystroke_l	l	n/a
472.7125	0.075	945425	keystroke_o	o	n/a
472.7885	0.104	945577	keystroke_s	s	n/a
475.6255	0.012	951251	keystroke_Key.enter	Key.enter	n/a
475.644	7.645	951288	prompt	n/a	returned united subaru vietnam\n
476.297	0.15	952594	keystroke_r	r	n/a
476.387	0.12	952774	keystroke_e	e	n/a
476.5825	0.135	953165	keystroke_t	t	n/a
476.7775	0.0895	953555	keystroke_u	u	n/a
476.882	0.0905	953764	keystroke_r	r	n/a
476.987	0.09	953974	keystroke_n	n	n/a
477.078	0.089	954156	keystroke_e	e	n/a
477.227	0.15	954454	keystroke_d	d	n/a
477.6625	0.09	955325	keystroke_Key.space	Key.space	n/a
478.068	0.09	956136	keystroke_u	u	n/a
478.128	0.075	956256	keystroke_n	n	n/a
478.233	0.105	956466	keystroke_i	i	n/a
478.323	0.105	956646	keystroke_t	t	n/a
478.368	0.119	956736	keystroke_e	e	n/a
478.547	0.135	957094	keystroke_d	d	n/a
478.757	0.12	957514	keystroke_Key.space	Key.space	n/a
479.057	0.12	958114	keystroke_s	s	n/a
479.192	0.06	958384	keystroke_u	u	n/a
479.297	0.1055	958594	keystroke_b	b	n/a
479.508	0.135	959016	keystroke_a	a	n/a
479.793	0.09	959586	keystroke_r	r	n/a
479.9425	0.09	959885	keystroke_u	u	n/a
480.4225	0.09	960845	keystroke_Key.space	Key.space	n/a
480.6925	0.09	961385	keystroke_v	v	n/a
480.7675	0.075	961535	keystroke_i	i	n/a
480.9625	0.135	961925	keystroke_e	e	n/a
481.1425	0.1495	962285	keystroke_t	t	n/a
481.5475	0.06	963095	keystroke_n	n	n/a
481.6375	0.135	963275	keystroke_a	a	n/a
481.7125	0.09	963425	keystroke_m	m	n/a
483.2125	0.075	966425	keystroke_Key.enter	Key.enter	n/a
483.312	9.7275	966624	prompt	n/a	serves psychological gonna jefferson\n
483.8875	0.09	967775	keystroke_s	s	n/a
483.9925	0.105	967985	keystroke_e	e	n/a
484.0525	0.105	968105	keystroke_r	r	n/a
484.2175	0.12	968435	keystroke_v	v	n/a
484.2925	0.135	968585	keystroke_e	e	n/a
484.6975	0.105	969395	keystroke_s	s	n/a
484.8475	0.075	969695	keystroke_Key.space	Key.space	n/a
485.0275	0.075	970055	keystroke_p	p	n/a
485.2075	0.105	970415	keystroke_s	s	n/a
485.4025	0.09	970805	keystroke_y	y	n/a
485.6575	0.075	971315	keystroke_c	c	n/a
485.8525	0.09	971705	keystroke_h	h	n/a
485.9275	0.075	971855	keystroke_o	o	n/a
486.1075	0.0755	972215	keystroke_l	l	n/a
486.213	0.075	972426	keystroke_o	o	n/a
486.738	0.12	973476	keystroke_g	g	n/a
486.873	0.075	973746	keystroke_i	i	n/a
487.068	0.105	974136	keystroke_c	c	n/a
487.083	0.18	974166	keystroke_a	a	n/a
487.758	0.06	975516	keystroke_l	l	n/a
488.2825	0.105	976565	keystroke_g	g	n/a
488.4025	0.09	976805	keystroke_o	o	n/a
488.8075	0.075	977615	keystroke_Key.backspace	Key.backspace	n/a
488.9425	0.045	977885	keystroke_Key.backspace	Key.backspace	n/a
489.1075	0.06	978215	keystroke_Key.space	Key.space	n/a
489.1825	0.075	978365	keystroke_g	g	n/a
489.2425	0.09	978485	keystroke_o	o	n/a
489.3175	0.15	978635	keystroke_n	n	n/a
489.5125	0.09	979025	keystroke_n	n	n/a
489.7825	0.135	979565	keystroke_a	a	n/a
490.0675	0.09	980135	keystroke_Key.space	Key.space	n/a
490.503	0.045	981006	keystroke_j	j	n/a
