onset	duration	sample	value	key	prompt_text
1.2265	5.643	2453	prompt	n/a	the quick brown fox jumps over a lazy dog\n
2.6855	0.028	5371	keystroke_t	t	n/a
2.7585	0.0745	5517	keystroke_h	h	n/a
3.2985	0.075	6597	keystroke_e	e	n/a
3.3885	0.0895	6777	keystroke_Key.space	Key.space	n/a
3.493	0.106	6986	keystroke_q	q	n/a
3.584	0.1045	7168	keystroke_u	u	n/a
3.629	0.0895	7258	keystroke_i	i	n/a
3.7635	0.075	7527	keystroke_c	c	n/a
3.8235	0.105	7647	keystroke_k	k	n/a
3.8835	0.06	7767	keystroke_Key.space	Key.space	n/a
4.003	0.075	8006	keystroke_b	b	n/a
4.063	0.105	8126	keystroke_r	r	n/a
4.153	0.075	8306	keystroke_o	o	n/a
4.243	0.075	8486	keystroke_w	w	n/a
4.303	0.075	8606	keystroke_n	n	n/a
4.363	0.105	8726	keystroke_Key.space	Key.space	n/a
4.423	0.061	8846	keystroke_f	f	n/a
4.513	0.0755	9026	keystroke_o	o	n/a
4.618	0.0755	9236	keystroke_x	x	n/a
4.708	0.0605	9416	keystroke_Key.space	Key.space	n/a
4.7695	0.059	9539	keystroke_j	j	n/a
4.9335	0.075	9867	keystroke_u	u	n/a
5.1135	0.03	10227	keystroke_m	m	n/a
5.2485	0.09	10497	keystroke_p	p	n/a
5.3385	0.0905	10677	keystroke_s	s	n/a
5.3985	0.105	10797	keystroke_Key.space	Key.space	n/a
5.4435	0.105	10887	keystroke_o	o	n/a
5.5185	0.0755	11037	keystroke_v	v	n/a
5.654	0.116	11308	keystroke_e	e	n/a
5.755	0.0895	11510	keystroke_r	r	n/a
5.8295	0.09	11659	keystroke_Key.space	Key.space	n/a
5.9345	0.09	11869	keystroke_a	a	n/a
6.0095	0.09	12019	keystroke_Key.space	Key.space	n/a
6.0395	0.121	12079	keystroke_l	l	n/a
6.1295	0.075	12259	keystroke_a	a	n/a
6.312	0.0905	12624	keystroke_z	z	n/a
6.3875	0.09	12775	keystroke_y	y	n/a
6.4475	0.09	12895	keystroke_Key.space	Key.space	n/a
6.5225	0.075	13045	keystroke_d	d	n/a
6.6125	0.09	13225	keystroke_o	o	n/a
6.6875	0.1045	13375	keystroke_g	g	n/a
6.807	0.06	13614	keystroke_Key.enter	Key.enter	n/a
6.874	4.5855	13748	prompt	n/a	pursuant lens growth rated\n
7.7675	0.075	15535	keystroke_p	p	n/a
7.9475	0.075	15895	keystroke_u	u	n/a
8.548	0.03	17096	keystroke_r	r	n/a
8.713	0.0895	17426	keystroke_s	s	n/a
8.7875	0.075	17575	keystroke_u	u	n/a
8.9225	0.0895	17845	keystroke_a	a	n/a
9.027	0.0455	18054	keystroke_n	n	n/a
9.1325	0.075	18265	keystroke_t	t	n/a
9.1925	0.1205	18385	keystroke_Key.space	Key.space	n/a
9.2675	0.1205	18535	keystroke_l	l	n/a
9.343	0.06	18686	keystroke_e	e	n/a
9.4475	0.06	18895	keystroke_n	n	n/a
9.4925	0.105	18985	keystroke_s	s	n/a
9.6125	0.0895	19225	keystroke_Key.space	Key.space	n/a
9.6725	0.0445	19345	keystroke_g	g	n/a
9.807	0.075	19614	keystroke_r	r	n/a
9.897	0.075	19794	keystroke_o	o	n/a
9.957	0.075	19914	keystroke_w	w	n/a
10.092	0.075	20184	keystroke_t	t	n/a
10.137	0.0905	20274	keystroke_h	h	n/a
10.1975	0.09	20395	keystroke_Key.space	Key.space	n/a
10.2885	0.104	20577	keystroke_r	r	n/a
10.3775	0.09	20755	keystroke_a	a	n/a
10.5125	0.105	21025	keystroke_t	t	n/a
10.6325	0.105	21265	keystroke_e	e	n/a
11.157	0.06	22314	keystroke_d	d	n/a
11.292	0.165	22584	keystroke_Key.enter	Key.enter	n/a
11.463	4.6915	22926	prompt	n/a	kelkoo faces berkeley deadly\n
12.1175	0.06	24235	keystroke_k	k	n/a
12.2075	0.076	24415	keystroke_e	e	n/a
12.3425	0.075	24685	keystroke_l	l	n/a
12.5385	0.059	25077	keystroke_k	k	n/a
12.703	0.0455	25406	keystroke_o	o	n/a
12.8235	0.09	25647	keystroke_o	o	n/a
12.8825	0.12	25765	keystroke_Key.space	Key.space	n/a
12.9725	0.0905	25945	keystroke_f	f	n/a
13.033	0.12	26066	keystroke_a	a	n/a
13.2285	0.104	26457	keystroke_c	c	n/a
13.2875	0.09	26575	keystroke_e	e	n/a
13.4975	0.09	26995	keystroke_s	s	n/a
13.5575	0.061	27115	keystroke_Key.space	Key.space	n/a
13.7385	0.075	27477	keystroke_b	b	n/a
13.8735	0.075	27747	keystroke_e	e	n/a
13.9335	0.075	27867	keystroke_r	r	n/a
14.0385	0.0745	28077	keystroke_k	k	n/a
14.143	0.0755	28286	keystroke_e	e	n/a
14.2635	0.105	28527	keystroke_l	l	n/a
14.8335	0.074	29667	keystroke_e	e	n/a
14.9385	0.06	29877	keystroke_y	y	n/a
14.9835	0.0895	29967	keystroke_Key.space	Key.space	n/a
15.133	0.03	30266	keystroke_d	d	n/a
15.268	0.09	30536	keystroke_e	e	n/a
15.3875	0.165	30775	keystroke_a	a	n/a
15.5375	0.06	31075	keystroke_d	d	n/a
15.6435	0.059	31287	keystroke_l	l	n/a
15.8685	0.074	31737	keystroke_y	y	n/a
16.0925	0.06	32185	keystroke_Key.enter	Key.enter	n/a
16.158	5.757	32316	prompt	n/a	frontier olympics highlight computational\n
16.888	0.06	33776	keystroke_f	f	n/a
17.023	0.075	34046	keystroke_r	r	n/a
17.083	0.0455	34166	keystroke_o	o	n/a
17.2335	0.06	34467	keystroke_n	n	n/a
17.2935	0.075	34587	keystroke_t	t	n/a
17.4285	0.075	34857	keystroke_i	i	n/a
17.5185	0.0595	35037	keystroke_e	e	n/a
17.5335	0.0895	35067	keystroke_r	r	n/a
17.653	0.09	35306	keystroke_Key.space	Key.space	n/a
17.788	0.06	35576	keystroke_o	o	n/a
17.938	0.06	35876	keystroke_l	l	n/a
18.133	0.06	36266	keystroke_y	y	n/a
18.343	0.075	36686	keystroke_m	m	n/a
18.523	0.105	37046	keystroke_p	p	n/a
18.598	0.09	37196	keystroke_i	i	n/a
18.733	0.09	37466	keystroke_c	c	n/a
18.778	0.105	37556	keystroke_s	s	n/a
18.853	0.12	37706	keystroke_Key.space	Key.space	n/a
19.003	0.12	38006	keystroke_h	h	n/a
19.063	0.105	38126	keystroke_i	i	n/a
19.183	0.075	38366	keystroke_g	g	n/a
19.243	0.06	38486	keystroke_h	h	n/a
19.453	0.075	38906	keystroke_l	l	n/a
19.633	0.06	39266	keystroke_i	i	n/a
19.738	0.045	39476	keystroke_g	g	n/a
19.798	0.06	39596	keystroke_h	h	n/a
19.873	0.06	39746	keystroke_t	t	n/a
19.978	0.09	39956	keystroke_Key.space	Key.space	n/a
20.158	0.075	40316	keystroke_c	c	n/a
20.248	0.045	40496	keystroke_o	o	n/a
20.4275	0.075	40855	keystroke_m	m	n/a
20.6225	0.045	41245	keystroke_p	p	n/a
20.7575	0.075	41515	keystroke_u	u	n/a
20.9375	0.075	41875	keystroke_t	t	n/a
21.0135	0.105	42027	keystroke_a	a	n/a
21.1035	0.09	42207	keystroke_t	t	n/a
21.1785	0.075	42357	keystroke_i	i	n/a
21.2235	0.06	42447	keystroke_o	o	n/a
21.3885	0.0745	42777	keystroke_n	n	n/a
21.493	0.075	42986	keystroke_a	a	n/a
21.598	0.06	43196	keystroke_l	l	n/a
21.8375	0.076	43675	keystroke_Key.enter	Key.enter	n/a
21.9185	5.112	43837	prompt	n/a	accommodation undertake francisco spend\n
22.513	0.06	45026	keystroke_a	a	n/a
22.693	0.045	45386	keystroke_c	c	n/a
22.798	0.075	45596	keystroke_c	c	n/a
22.888	0.0305	45776	keystroke_o	o	n/a
23.0535	0.03	46107	keystroke_m	m	n/a
23.1735	0.06	46347	keystroke_m	m	n/a
23.3235	0.06	46647	keystroke_o	o	n/a
23.4135	0.105	46827	keystroke_d	d	n/a
23.5035	0.09	47007	keystroke_a	a	n/a
23.6835	0.06	47367	keystroke_t	t	n/a
23.7285	0.09	47457	keystroke_i	i	n/a
23.8035	0.075	47607	keystroke_o	o	n/a
23.9685	0.075	47937	keystroke_n	n	n/a
24.0275	0.106	48055	keystroke_Key.space	Key.space	n/a
24.2085	0.059	48417	keystroke_u	u	n/a
24.4035	0.074	48807	keystroke_n	n	n/a
24.4935	0.044	48987	keystroke_d	d	n/a
24.6575	0.0905	49315	keystroke_e	e	n/a
24.748	0.0755	49496	keystroke_r	r	n/a
24.958	0.1045	49916	keystroke_t	t	n/a
25.018	0.09	50036	keystroke_a	a	n/a
25.1385	0.0595	50277	keystroke_k	k	n/a
25.213	0.075	50426	keystroke_e	e	n/a
25.318	0.075	50636	keystroke_Key.space	Key.space	n/a
25.4835	0.045	50967	keystroke_f	f	n/a
25.6485	0.0595	51297	keystroke_r	r	n/a
25.6935	0.075	51387	keystroke_a	a	n/a
25.7835	0.0895	51567	keystroke_n	n	n/a
25.918	0.0905	51836	keystroke_c	c	n/a
26.0535	0.045	52107	keystroke_i	i	n/a
26.0985	0.1045	52197	keystroke_s	s	n/a
26.263	0.105	52526	keystroke_c	c	n/a
26.353	0.075	52706	keystroke_o	o	n/a
26.398	0.09	52796	keystroke_Key.space	Key.space	n/a
26.518	0.075	53036	keystroke_s	s	n/a
26.578	0.075	53156	keystroke_p	p	n/a
26.683	0.06	53366	keystroke_e	e	n/a
26.758	0.06	53516	keystroke_n	n	n/a
26.848	0.09	53696	keystroke_d	d	n/a
26.968	0.06	53936	keystroke_Key.enter	Key.enter	n/a
27.0335	9.822	54067	prompt	n/a	interactions rwanda grams yeast\n
27.6285	0.045	55257	keystroke_i	i	n/a
27.7785	0.075	55557	keystroke_n	n	n/a
27.8235	0.06	55647	keystroke_t	t	n/a
27.9585	0.075	55917	keystroke_e	e	n/a
28.0035	0.075	56007	keystroke_r	r	n/a
28.198	0.105	56396	keystroke_a	a	n/a
28.243	0.105	56486	keystroke_c	c	n/a
28.4535	0.075	56907	keystroke_t	t	n/a
28.4835	0.12	56967	keystroke_i	i	n/a
28.5585	0.09	57117	keystroke_o	o	n/a
28.7085	0.075	57417	keystroke_n	n	n/a
28.7685	0.045	57537	keystroke_s	s	n/a
28.8435	0.105	57687	keystroke_Key.space	Key.space	n/a
28.9635	0.045	57927	keystroke_r	r	n/a
29.2635	0.045	58527	keystroke_a	a	n/a
29.6235	0.045	59247	keystroke_Key.backspace	Key.backspace	n/a
29.7435	0.06	59487	keystroke_w	w	n/a
30.328	0.09	60656	keystroke_a	a	n/a
31.873	0.06	63746	keystroke_d	d	n/a
32.203	0.03	64406	keystroke_Key.backspace	Key.backspace	n/a
32.428	0.0305	64856	keystroke_n	n	n/a
32.5035	0.09	65007	keystroke_d	d	n/a
32.563	0.1055	65126	keystroke_a	a	n/a
33.5085	0.075	67017	keystroke_Key.space	Key.space	n/a
33.7785	0.09	67557	keystroke_r	r	n/a
33.8235	0.105	67647	keystroke_a	a	n/a
33.9585	0.06	67917	keystroke_m	m	n/a
34.5885	0.0595	69177	keystroke_Key.backspace	Key.backspace	n/a
34.828	0.0605	69656	keystroke_Key.backspace	Key.backspace	n/a
35.143	0.045	70286	keystroke_Key.backspace	Key.backspace	n/a
35.3385	0.03	70677	keystroke_g	g	n/a
35.4885	0.105	70977	keystroke_r	r	n/a
35.5485	0.09	71097	keystroke_a	a	n/a
35.6535	0.06	71307	keystroke_m	m	n/a
35.7885	0.075	71577	keystroke_s	s	n/a
35.9085	0.12	71817	keystroke_Key.space	Key.space	n/a
36.0135	0.075	72027	keystroke_y	y	n/a
36.1035	0.12	72207	keystroke_e	e	n/a
36.1635	0.075	72327	keystroke_a	a	n/a
36.3735	0.06	72747	keystroke_s	s	n/a
36.5685	0.045	73137	keystroke_t	t	n/a
36.7785	0.075	73557	keystroke_Key.enter	Key.enter	n/a
36.8595	6.2655	73719	prompt	n/a	audience liechtenstein particles remind\n
37.4535	0.075	74907	keystroke_a	a	n/a
37.5885	0.06	75177	keystroke_u	u	n/a
37.6785	0.075	75357	keystroke_d	d	n/a
37.7685	0.075	75537	keystroke_i	i	n/a
37.8885	0.06	75777	keystroke_e	e	n/a
37.9635	0.045	75927	keystroke_n	n	n/a
38.068	0.105	76136	keystroke_c	c	n/a
38.128	0.105	76256	keystroke_e	e	n/a
38.263	0.045	76526	keystroke_Key.space	Key.space	n/a
38.278	0.09	76556	keystroke_l	l	n/a
38.534	0.1195	77068	keystroke_i	i	n/a
38.6685	0.075	77337	keystroke_e	e	n/a
38.8635	0.075	77727	keystroke_c	c	n/a
38.9535	0.0595	77907	keystroke_h	h	n/a
39.6585	0.06	79317	keystroke_t	t	n/a
39.8235	0.045	79647	keystroke_e	e	n/a
39.8985	0.075	79797	keystroke_n	n	n/a
40.0185	0.06	80037	keystroke_s	s	n/a
40.2135	0.045	80427	keystroke_t	t	n/a
40.3185	0.09	80637	keystroke_e	e	n/a
40.4235	0.045	80847	keystroke_i	i	n/a
40.5885	0.075	81177	keystroke_n	n	n/a
40.6485	0.09	81297	keystroke_Key.space	Key.space	n/a
40.814	0.06	81628	keystroke_p	p	n/a
40.889	0.09	81778	keystroke_a	a	n/a
40.949	0.089	81898	keystroke_r	r	n/a
41.128	0.06	82256	keystroke_t	t	n/a
41.218	0.061	82436	keystroke_i	i	n/a
41.369	0.074	82738	keystroke_c	c	n/a
41.804	0.059	83608	keystroke_l	l	n/a
41.878	0.046	83756	keystroke_e	e	n/a
42.058	0.0605	84116	keystroke_s	s	n/a
42.1335	0.075	84267	keystroke_Key.space	Key.space	n/a
42.2385	0.105	84477	keystroke_r	r	n/a
42.3135	0.09	84627	keystroke_e	e	n/a
42.3885	0.06	84777	keystroke_m	m	n/a
42.5835	0.045	85167	keystroke_i	i	n/a
42.7335	0.09	85467	keystroke_n	n	n/a
42.8085	0.06	85617	keystroke_d	d	n/a
43.048	0.075	86096	keystroke_Key.enter	Key.enter	n/a
43.13	5.9655	86260	prompt	n/a	subsection found senate artistic\n
43.723	0.06	87446	keystroke_a	a	n/a
44.143	0.06	88286	keystroke_Key.backspace	Key.backspace	n/a
44.428	0.075	88856	keystroke_s	s	n/a
44.518	0.045	89036	keystroke_u	u	n/a
44.683	0.075	89366	keystroke_b	b	n/a
44.788	0.061	89576	keystroke_s	s	n/a
44.954	0.06	89908	keystroke_e	e	n/a
45.164	0.09	90328	keystroke_c	c	n/a
45.404	0.06	90808	keystroke_t	t	n/a
45.479	0.105	90958	keystroke_i	i	n/a
45.554	0.06	91108	keystroke_o	o	n/a
45.719	0.105	91438	keystroke_n	n	n/a
45.764	0.15	91528	keystroke_Key.space	Key.space	n/a
45.959	0.045	91918	keystroke_f	f	n/a
46.139	0.0595	92278	keystroke_o	o	n/a
46.169	0.0895	92338	keystroke_u	u	n/a
46.9485	0.075	93897	keystroke_n	n	n/a
47.0385	0.015	94077	keystroke_d	d	n/a
47.0685	0.015	94137	keystroke_Key.space	Key.space	n/a
47.0845	0.059	94169	keystroke_s	s	n/a
47.2335	0.06	94467	keystroke_e	e	n/a
47.3235	0.06	94647	keystroke_n	n	n/a
47.4285	0.12	94857	keystroke_a	a	n/a
47.579	0.09	95158	keystroke_t	t	n/a
47.624	0.105	95248	keystroke_e	e	n/a
47.8185	0.075	95637	keystroke_Key.space	Key.space	n/a
47.9235	0.09	95847	keystroke_a	a	n/a
47.9985	0.06	95997	keystroke_r	r	n/a
48.1785	0.06	96357	keystroke_t	t	n/a
48.2985	0.075	96597	keystroke_i	i	n/a
48.4035	0.075	96807	keystroke_s	s	n/a
48.6285	0.03	97257	keystroke_t	t	n/a
48.7335	0.075	97467	keystroke_i	i	n/a
48.8685	0.09	97737	keystroke_c	c	n/a
49.0185	0.0745	98037	keystroke_Key.enter	Key.enter	n/a
49.1	5.86	98200	prompt	n/a	trial contractor ethernet printable\n
49.754	0.044	99508	keystroke_t	t	n/a
50.203	0.061	100406	keystroke_r	r	n/a
50.354	0.06	100708	keystroke_i	i	n/a
50.518	0.045	101036	keystroke_a	a	n/a
50.608	0.076	101216	keystroke_l	l	n/a
50.698	0.075	101396	keystroke_Key.space	Key.space	n/a
50.848	0.06	101696	keystroke_c	c	n/a
50.924	0.045	101848	keystroke_o	o	n/a
51.0585	0.09	102117	keystroke_n	n	n/a
51.1035	0.06	102207	keystroke_t	t	n/a
51.2985	0.09	102597	keystroke_r	r	n/a
51.3585	0.075	102717	keystroke_a	a	n/a
51.584	0.059	103168	keystroke_c	c	n/a
51.7935	0.045	103587	keystroke_t	t	n/a
51.8985	0.0755	103797	keystroke_o	o	n/a
52.004	0.059	104008	keystroke_r	r	n/a
52.169	0.074	104338	keystroke_Key.space	Key.space	n/a
52.274	0.075	104548	keystroke_e	e	n/a
52.859	0.06	105718	keystroke_t	t	n/a
52.994	0.075	105988	keystroke_h	h	n/a
53.144	0.09	106288	keystroke_e	e	n/a
53.189	0.075	106378	keystroke_r	r	n/a
53.324	0.0745	106648	keystroke_n	n	n/a
53.4135	0.075	106827	keystroke_e	e	n/a
53.6085	0.045	107217	keystroke_t	t	n/a
53.6685	0.1355	107337	keystroke_Key.space	Key.space	n/a
53.774	0.075	107548	keystroke_p	p	n/a
53.879	0.06	107758	keystroke_r	r	n/a
53.984	0.03	107968	keystroke_i	i	n/a
54.119	0.075	108238	keystroke_n	n	n/a
54.224	0.075	108448	keystroke_t	t	n/a
54.269	0.075	108538	keystroke_a	a	n/a
54.3885	0.045	108777	keystroke_b	b	n/a
54.5835	0.075	109167	keystroke_l	l	n/a
54.6885	0.06	109377	keystroke_e	e	n/a
54.8835	0.075	109767	keystroke_Key.enter	Key.enter	n/a
54.9635	6.462	109927	prompt	n/a	recipient trademark instruction height\n
55.6935	0.1205	111387	keystroke_r	r	n/a
55.799	0.06	111598	keystroke_e	e	n/a
56.069	0.075	112138	keystroke_c	c	n/a
56.279	0.015	112558	keystroke_i	i	n/a
56.7135	0.105	113427	keystroke_p	p	n/a
57.4035	0.075	114807	keystroke_i	i	n/a
57.7335	0.06	115467	keystroke_e	e	n/a
57.8685	0.06	115737	keystroke_n	n	n/a
57.9735	0.06	115947	keystroke_t	t	n/a
58.0785	0.105	116157	keystroke_Key.space	Key.space	n/a
58.3335	0.06	116667	keystroke_t	t	n/a
58.468	0.0755	116936	keystroke_r	r	n/a
58.4985	0.075	116997	keystroke_a	a	n/a
58.6935	0.045	117387	keystroke_d	d	n/a
58.8285	0.06	117657	keystroke_e	e	n/a
58.9335	0.075	117867	keystroke_m	m	n/a
58.9935	0.0905	117987	keystroke_a	a	n/a
59.0385	0.0905	118077	keystroke_r	r	n/a
59.144	0.105	118288	keystroke_k	k	n/a
59.204	0.09	118408	keystroke_Key.space	Key.space	n/a
59.3685	0.06	118737	keystroke_i	i	n/a
59.5185	0.09	119037	keystroke_n	n	n/a
59.5785	0.06	119157	keystroke_s	s	n/a
59.7435	0.045	119487	keystroke_t	t	n/a
59.879	0.075	119758	keystroke_r	r	n/a
59.984	0.075	119968	keystroke_u	u	n/a
60.104	0.075	120208	keystroke_c	c	n/a
60.344	0.06	120688	keystroke_t	t	n/a
60.389	0.075	120778	keystroke_i	i	n/a
60.449	0.045	120898	keystroke_o	o	n/a
60.614	0.06	121228	keystroke_n	n	n/a
60.689	0.075	121378	keystroke_Key.space	Key.space	n/a
60.824	0.06	121648	keystroke_h	h	n/a
60.899	0.045	121798	keystroke_e	e	n/a
60.974	0.075	121948	keystroke_i	i	n/a
61.064	0.06	122128	keystroke_g	g	n/a
61.139	0.06	122278	keystroke_h	h	n/a
61.229	0.06	122458	keystroke_t	t	n/a
61.349	0.075	122698	keystroke_Key.enter	Key.enter	n/a
61.4285	4.3615	122857	prompt	n/a	magazine equity shows stud\n
62.069	0.09	124138	keystroke_m	m	n/a
62.144	0.075	124288	keystroke_a	a	n/a
62.234	0.12	124468	keystroke_g	g	n/a
62.324	0.075	124648	keystroke_a	a	n/a
62.564	0.09	125128	keystroke_z	z	n/a
62.623	0.045	125246	keystroke_i	i	n/a
62.788	0.03	125576	keystroke_n	n	n/a
62.849	0.029	125698	keystroke_e	e	n/a
62.938	0.075	125876	keystroke_Key.space	Key.space	n/a
62.983	0.0605	125966	keystroke_e	e	n/a
63.1635	0.06	126327	keystroke_q	q	n/a
63.2385	0.0595	126477	keystroke_u	u	n/a
63.6885	0.075	127377	keystroke_i	i	n/a
63.7935	0.06	127587	keystroke_t	t	n/a
63.8845	0.0585	127769	keystroke_y	y	n/a
64.003	0.0905	128006	keystroke_Key.space	Key.space	n/a
64.123	0.1055	128246	keystroke_s	s	n/a
64.1985	0.091	128397	keystroke_h	h	n/a
64.2895	0.089	128579	keystroke_o	o	n/a
64.424	0.075	128848	keystroke_w	w	n/a
64.814	0.0745	129628	keystroke_s	s	n/a
64.9485	0.09	129897	keystroke_Key.space	Key.space	n/a
65.0535	0.075	130107	keystroke_s	s	n/a
65.2635	0.06	130527	keystroke_t	t	n/a
65.3535	0.09	130707	keystroke_u	u	n/a
65.4885	0.09	130977	keystroke_d	d	n/a
65.713	0.075	131426	keystroke_Key.enter	Key.enter	n/a
65.7935	4.7375	131587	prompt	n/a	hispanic gary msgid cabinets\n
66.4485	0.045	132897	keystroke_h	h	n/a
66.5385	0.09	133077	keystroke_i	i	n/a
66.644	0.0595	133288	keystroke_s	s	n/a
66.7485	0.06	133497	keystroke_p	p	n/a
66.8385	0.075	133677	keystroke_a	a	n/a
66.9435	0.06	133887	keystroke_n	n	n/a
67.079	0.0595	134158	keystroke_i	i	n/a
67.183	0.061	134366	keystroke_c	c	n/a
67.2885	0.0905	134577	keystroke_Key.space	Key.space	n/a
67.484	0.075	134968	keystroke_g	g	n/a
67.544	0.09	135088	keystroke_a	a	n/a
67.679	0.0745	135358	keystroke_r	r	n/a
67.7835	0.1195	135567	keystroke_y	y	n/a
67.8585	0.075	135717	keystroke_Key.space	Key.space	n/a
68.113	0.075	136226	keystroke_m	m	n/a
68.2935	0.0745	136587	keystroke_s	s	n/a
68.773	0.045	137546	keystroke_g	g	n/a
68.8935	0.09	137787	keystroke_i	i	n/a
69.0435	0.0745	138087	keystroke_d	d	n/a
69.193	0.075	138386	keystroke_Key.space	Key.space	n/a
69.464	0.1195	138928	keystroke_c	c	n/a
69.569	0.09	139138	keystroke_a	a	n/a
69.629	0.06	139258	keystroke_b	b	n/a
69.7935	0.06	139587	keystroke_i	i	n/a
69.929	0.09	139858	keystroke_n	n	n/a
70.004	0.0595	140008	keystroke_e	e	n/a
70.1385	0.09	140277	keystroke_t	t	n/a
70.3485	0.09	140697	keystroke_s	s	n/a
70.4535	0.075	140907	keystroke_Key.enter	Key.enter	n/a
70.5345	4.2855	141069	prompt	n/a	attempted sally guam trouble\n
71.174	0.045	142348	keystroke_a	a	n/a
71.219	0.015	142438	keystroke_t	t	n/a
71.324	0.06	142648	keystroke_t	t	n/a
71.399	0.12	142798	keystroke_e	e	n/a
71.504	0.06	143008	keystroke_m	m	n/a
71.639	0.09	143278	keystroke_p	p	n/a
71.699	0.12	143398	keystroke_t	t	n/a
71.804	0.075	143608	keystroke_e	e	n/a
71.999	0.075	143998	keystroke_d	d	n/a
72.089	0.075	144178	keystroke_Key.space	Key.space	n/a
72.4335	0.06	144867	keystroke_s	s	n/a
72.8235	0.045	145647	keystroke_a	a	n/a
72.9585	0.045	145917	keystroke_l	l	n/a
73.078	0.061	146156	keystroke_l	l	n/a
73.333	0.076	146666	keystroke_y	y	n/a
73.394	0.1045	146788	keystroke_Key.space	Key.space	n/a
73.5585	0.09	147117	keystroke_g	g	n/a
73.6335	0.045	147267	keystroke_u	u	n/a
73.7535	0.06	147507	keystroke_a	a	n/a
73.8435	0.075	147687	keystroke_m	m	n/a
73.8885	0.105	147777	keystroke_Key.space	Key.space	n/a
74.0085	0.06	148017	keystroke_t	t	n/a
74.1435	0.06	148287	keystroke_r	r	n/a
74.2635	0.09	148527	keystroke_o	o	n/a
74.3085	0.075	148617	keystroke_u	u	n/a
74.3685	0.0905	148737	keystroke_b	b	n/a
74.519	0.09	149038	keystroke_l	l	n/a
74.564	0.075	149128	keystroke_e	e	n/a
74.744	0.075	149488	keystroke_Key.enter	Key.enter	n/a
74.823	4.6025	149646	prompt	n/a	documented relying feeling seat\n
75.448	0.06	150896	keystroke_d	d	n/a
75.523	0.075	151046	keystroke_o	o	n/a
75.613	0.09	151226	keystroke_c	c	n/a
75.718	0.045	151436	keystroke_u	u	n/a
75.898	0.045	151796	keystroke_m	m	n/a
75.958	0.061	151916	keystroke_e	e	n/a
76.063	0.06	152126	keystroke_n	n	n/a
76.168	0.0755	152336	keystroke_t	t	n/a
76.2585	0.06	152517	keystroke_e	e	n/a
76.4235	0.075	152847	keystroke_d	d	n/a
76.5135	0.0755	153027	keystroke_Key.space	Key.space	n/a
76.619	0.105	153238	keystroke_r	r	n/a
76.709	0.09	153418	keystroke_e	e	n/a
76.769	0.06	153538	keystroke_l	l	n/a
76.964	0.075	153928	keystroke_y	y	n/a
77.1285	0.075	154257	keystroke_i	i	n/a
77.2935	0.06	154587	keystroke_n	n	n/a
77.3685	0.075	154737	keystroke_g	g	n/a
77.4885	0.06	154977	keystroke_Key.space	Key.space	n/a
77.5635	0.0905	155127	keystroke_f	f	n/a
77.639	0.06	155278	keystroke_e	e	n/a
77.804	0.075	155608	keystroke_e	e	n/a
77.864	0.03	155728	keystroke_l	l	n/a
77.999	0.045	155998	keystroke_i	i	n/a
78.149	0.06	156298	keystroke_n	n	n/a
78.224	0.045	156448	keystroke_g	g	n/a
78.299	0.105	156598	keystroke_Key.space	Key.space	n/a
78.764	0.045	157528	keystroke_s	s	n/a
78.9285	0.06	157857	keystroke_e	e	n/a
79.094	0.074	158188	keystroke_a	a	n/a
79.169	0.059	158338	keystroke_t	t	n/a
79.348	0.076	158696	keystroke_Key.enter	Key.enter	n/a
79.429	3.986	158858	prompt	n/a	sheer settlement completion code\n
79.994	0.06	159988	keystroke_s	s	n/a
80.098	0.061	160196	keystroke_h	h	n/a
80.173	0.046	160346	keystroke_e	e	n/a
80.294	0.059	160588	keystroke_e	e	n/a
80.368	0.076	160736	keystroke_r	r	n/a
80.473	0.061	160946	keystroke_Key.space	Key.space	n/a
80.549	0.075	161098	keystroke_s	s	n/a
80.729	0.045	161458	keystroke_e	e	n/a
80.864	0.045	161728	keystroke_t	t	n/a
80.969	0.074	161938	keystroke_t	t	n/a
81.0585	0.06	162117	keystroke_l	l	n/a
81.1335	0.06	162267	keystroke_e	e	n/a
81.2085	0.075	162417	keystroke_m	m	n/a
81.2985	0.06	162597	keystroke_e	e	n/a
81.3735	0.06	162747	keystroke_n	n	n/a
81.4635	0.045	162927	keystroke_t	t	n/a
81.5235	0.12	163047	keystroke_Key.space	Key.space	n/a
81.6885	0.105	163377	keystroke_c	c	n/a
81.7635	0.06	163527	keystroke_o	o	n/a
81.8985	0.06	163797	keystroke_m	m	n/a
82.0485	0.06	164097	keystroke_p	p	n/a
82.1985	0.075	164397	keystroke_l	l	n/a
82.2885	0.06	164577	keystroke_e	e	n/a
82.4385	0.0755	164877	keystroke_t	t	n/a
82.514	0.105	165028	keystroke_i	i	n/a
82.604	0.045	165208	keystroke_o	o	n/a
82.769	0.075	165538	keystroke_n	n	n/a
82.814	0.09	165628	keystroke_Key.space	Key.space	n/a
82.919	0.06	165838	keystroke_c	c	n/a
82.994	0.0595	165988	keystroke_o	o	n/a
83.0835	0.075	166167	keystroke_d	d	n/a
83.2185	0.06	166437	keystroke_e	e	n/a
83.3535	0.06	166707	keystroke_Key.enter	Key.enter	n/a
83.418	3.837	166836	prompt	n/a	used minus twisted isaac\n
84.0585	0.285	168117	keystroke_u	u	n/a
84.3285	0.03	168657	keystroke_s	s	n/a
84.3735	0.015	168747	keystroke_e	e	n/a
84.4035	0.0595	168807	keystroke_d	d	n/a
84.448	0.091	168896	keystroke_Key.space	Key.space	n/a
84.554	0.06	169108	keystroke_m	m	n/a
84.704	0.06	169408	keystroke_i	i	n/a
84.869	0.03	169738	keystroke_n	n	n/a
84.9885	0.06	169977	keystroke_u	u	n/a
85.0935	0.075	170187	keystroke_s	s	n/a
85.1985	0.075	170397	keystroke_Key.space	Key.space	n/a
85.3185	0.06	170637	keystroke_t	t	n/a
85.4535	0.06	170907	keystroke_w	w	n/a
85.5145	0.059	171029	keystroke_i	i	n/a
85.6485	0.06	171297	keystroke_s	s	n/a
85.844	0.015	171688	keystroke_t	t	n/a
85.934	0.06	171868	keystroke_e	e	n/a
86.324	0.015	172648	keystroke_d	d	n/a
86.384	0.09	172768	keystroke_Key.space	Key.space	n/a
86.489	0.0895	172978	keystroke_i	i	n/a
86.5635	0.06	173127	keystroke_s	s	n/a
86.7435	0.075	173487	keystroke_a	a	n/a
86.8935	0.09	173787	keystroke_a	a	n/a
87.1035	0.06	174207	keystroke_c	c	n/a
87.1785	0.075	174357	keystroke_Key.enter	Key.enter	n/a
87.2575	5.203	174515	prompt	n/a	alternatively scene expedia brown\n
87.8385	0.075	175677	keystroke_a	a	n/a
87.9735	0.105	175947	keystroke_l	l	n/a
88.0635	0.06	176127	keystroke_t	t	n/a
88.1835	0.12	176367	keystroke_e	e	n/a
88.2585	0.075	176517	keystroke_r	r	n/a
88.3185	0.075	176637	keystroke_n	n	n/a
88.4085	0.0595	176817	keystroke_a	a	n/a
88.454	0.074	176908	keystroke_t	t	n/a
88.543	0.075	177086	keystroke_i	i	n/a
88.678	0.09	177356	keystroke_v	v	n/a
88.738	0.09	177476	keystroke_e	e	n/a
88.798	0.045	177596	keystroke_l	l	n/a
90.404	0.09	180808	keystroke_y	y	n/a
90.449	0.089	180898	keystroke_Key.space	Key.space	n/a
90.599	0.075	181198	keystroke_s	s	n/a
90.719	0.12	181438	keystroke_c	c	n/a
90.794	0.09	181588	keystroke_e	e	n/a
90.899	0.045	181798	keystroke_n	n	n/a
90.974	0.075	181948	keystroke_e	e	n/a
91.034	0.105	182068	keystroke_Key.space	Key.space	n/a
91.124	0.06	182248	keystroke_e	e	n/a
91.334	0.045	182668	keystroke_x	x	n/a
91.424	0.135	182848	keystroke_p	p	n/a
91.544	0.045	183088	keystroke_e	e	n/a
91.694	0.045	183388	keystroke_d	d	n/a
91.724	0.06	183448	keystroke_i	i	n/a
91.844	0.09	183688	keystroke_a	a	n/a
91.874	0.09	183748	keystroke_Key.space	Key.space	n/a
92.024	0.03	184048	keystroke_b	b	n/a
92.069	0.075	184138	keystroke_r	r	n/a
92.159	0.09	184318	keystroke_o	o	n/a
92.234	0.075	184468	keystroke_w	w	n/a
92.294	0.06	184588	keystroke_n	n	n/a
92.369	0.09	184738	keystroke_Key.enter	Key.enter	n/a
92.4635	5.4865	184927	prompt	n/a	releases federation proved sells\n
93.089	0.089	186178	keystroke_r	r	n/a
93.134	0.09	186268	keystroke_e	e	n/a
93.238	0.075	186476	keystroke_l	l	n/a
93.328	0.075	186656	keystroke_e	e	n/a
93.433	0.076	186866	keystroke_a	a	n/a
93.598	0.03	187196	keystroke_s	s	n/a
93.748	0.045	187496	keystroke_e	e	n/a
93.898	0.0605	187796	keystroke_s	s	n/a
93.9885	0.09	187977	keystroke_Key.space	Key.space	n/a
94.2735	0.045	188547	keystroke_d	d	n/a
94.8885	0.09	189777	keystroke_Key.backspace	Key.backspace	n/a
95.113	0.076	190226	keystroke_f	f	n/a
95.203	0.076	190406	keystroke_e	e	n/a
95.384	0.044	190768	keystroke_d	d	n/a
95.549	0.09	191098	keystroke_e	e	n/a
95.623	0.09	191246	keystroke_r	r	n/a
95.744	0.135	191488	keystroke_a	a	n/a
95.834	0.074	191668	keystroke_t	t	n/a
95.894	0.09	191788	keystroke_i	i	n/a
95.969	0.029	191938	keystroke_o	o	n/a
96.103	0.045	192206	keystroke_n	n	n/a
96.163	0.105	192326	keystroke_Key.space	Key.space	n/a
96.269	0.0745	192538	keystroke_p	p	n/a
96.3285	0.045	192657	keystroke_r	r	n/a
96.4485	0.06	192897	keystroke_o	o	n/a
96.5235	0.075	193047	keystroke_v	v	n/a
97.0485	0.105	194097	keystroke_e	e	n/a
97.2285	0.03	194457	keystroke_d	d	n/a
97.3035	0.105	194607	keystroke_Key.space	Key.space	n/a
97.3785	0.075	194757	keystroke_s	s	n/a
97.4835	0.09	194967	keystroke_e	e	n/a
97.5885	0.045	195177	keystroke_l	l	n/a
97.6935	0.06	195387	keystroke_l	l	n/a
97.7835	0.03	195567	keystroke_s	s	n/a
97.8735	0.075	195747	keystroke_Key.enter	Key.enter	n/a
97.9545	6.9705	195909	prompt	n/a	participate relax strengthening rental\n
98.6235	0.105	197247	keystroke_p	p	n/a
98.6985	0.09	197397	keystroke_a	a	n/a
98.8035	0.015	197607	keystroke_r	r	n/a
98.9235	0.06	197847	keystroke_t	t	n/a
98.9685	0.09	197937	keystroke_i	i	n/a
99.1635	0.03	198327	keystroke_i	i	n/a
99.2835	0.075	198567	keystroke_p	p	n/a
99.764	0.045	199528	keystroke_Key.backspace	Key.backspace	n/a
99.884	0.09	199768	keystroke_Key.backspace	Key.backspace	n/a
100.034	0.0895	200068	keystroke_c	c	n/a
100.1085	0.06	200217	keystroke_i	i	n/a
100.6635	0.075	201327	keystroke_p	p	n/a
100.7835	0.09	201567	keystroke_a	a	n/a
100.8585	0.075	201717	keystroke_t	t	n/a
100.9635	0.06	201927	keystroke_e	e	n/a
101.294	0.06	202588	keystroke_Key.space	Key.space	n/a
101.339	0.12	202678	keystroke_r	r	n/a
101.429	0.075	202858	keystroke_e	e	n/a
101.489	0.075	202978	keystroke_l	l	n/a
101.609	0.06	203218	keystroke_a	a	n/a
101.789	0.09	203578	keystroke_x	x	n/a
101.924	0.12	203848	keystroke_Key.space	Key.space	n/a
102.089	0.075	204178	keystroke_s	s	n/a
102.329	0.06	204658	keystroke_t	t	n/a
102.539	0.075	205078	keystroke_r	r	n/a
102.569	0.105	205138	keystroke_e	e	n/a
102.719	0.075	205438	keystroke_n	n	n/a
102.839	0.045	205678	keystroke_g	g	n/a
103.049	0.06	206098	keystroke_t	t	n/a
103.619	0.06	207238	keystroke_h	h	n/a
103.694	0.09	207388	keystroke_e	e	n/a
103.799	0.0745	207598	keystroke_n	n	n/a
103.9335	0.06	207867	keystroke_i	i	n/a
104.0685	0.06	208137	keystroke_n	n	n/a
104.1295	0.044	208259	keystroke_g	g	n/a
104.2185	0.09	208437	keystroke_Key.space	Key.space	n/a
104.3235	0.06	208647	keystroke_r	r	n/a
104.3385	0.09	208677	keystroke_e	e	n/a
104.4585	0.06	208917	keystroke_n	n	n/a
104.5485	0.045	209097	keystroke_t	t	n/a
104.6085	0.075	209217	keystroke_a	a	n/a
104.6835	0.06	209367	keystroke_l	l	n/a
104.878	0.045	209756	keystroke_Key.enter	Key.enter	n/a
104.9285	3.927	209857	prompt	n/a	excessive encourage fees dare\n
105.524	0.045	211048	keystroke_e	e	n/a
105.764	0.075	211528	keystroke_x	x	n/a
105.989	0.105	211978	keystroke_c	c	n/a
106.034	0.09	212068	keystroke_e	e	n/a
106.259	0.045	212518	keystroke_s	s	n/a
106.364	0.074	212728	keystroke_s	s	n/a
106.454	0.0745	212908	keystroke_i	i	n/a
106.5585	0.03	213117	keystroke_v	v	n/a
106.5735	0.105	213147	keystroke_e	e	n/a
106.6935	0.075	213387	keystroke_Key.space	Key.space	n/a
106.7985	0.075	213597	keystroke_e	e	n/a
106.8885	0.045	213777	keystroke_n	n	n/a
106.9935	0.06	213987	keystroke_c	c	n/a
107.0835	0.075	214167	keystroke_o	o	n/a
107.1285	0.075	214257	keystroke_u	u	n/a
107.2335	0.09	214467	keystroke_r	r	n/a
107.2935	0.12	214587	keystroke_a	a	n/a
107.4885	0.0455	214977	keystroke_g	g	n/a
107.5035	0.12	215007	keystroke_e	e	n/a
107.7285	0.09	215457	keystroke_Key.space	Key.space	n/a
107.8185	0.06	215637	keystroke_f	f	n/a
107.9235	0.075	215847	keystroke_e	e	n/a
108.0735	0.06	216147	keystroke_e	e	n/a
108.224	0.075	216448	keystroke_s	s	n/a
108.314	0.075	216628	keystroke_Key.space	Key.space	n/a
108.389	0.06	216778	keystroke_d	d	n/a
108.539	0.075	217078	keystroke_a	a	n/a
108.584	0.09	217168	keystroke_r	r	n/a
108.659	0.105	217318	keystroke_e	e	n/a
108.779	0.075	217558	keystroke_Key.enter	Key.enter	n/a
108.858	12.567	217716	prompt	n/a	boards result chance identity\n
109.529	0.074	219058	keystroke_b	b	n/a
109.693	0.105	219386	keystroke_o	o	n/a
109.753	0.091	219506	keystroke_a	a	n/a
109.784	0.074	219568	keystroke_r	r	n/a
110.008	0.105	220016	keystroke_d	d	n/a
110.054	0.09	220108	keystroke_s	s	n/a
110.158	0.121	220316	keystroke_Key.space	Key.space	n/a
110.2935	0.0905	220587	keystroke_r	r	n/a
110.354	0.0595	220708	keystroke_e	e	n/a
110.6085	0.03	221217	keystroke_s	s	n/a
110.6235	0.03	221247	keystroke_u	u	n/a
110.7735	0.09	221547	keystroke_l	l	n/a
110.8485	0.045	221697	keystroke_e	e	n/a
110.9235	0.1055	221847	keystroke_Key.space	Key.space	n/a
111.0435	0.06	222087	keystroke_c	c	n/a
111.1185	0.045	222237	keystroke_h	h	n/a
111.1785	0.09	222357	keystroke_a	a	n/a
111.3135	0.015	222627	keystroke_n	n	n/a
111.4485	0.105	222897	keystroke_e	e	n/a
111.5835	0.105	223167	keystroke_Key.space	Key.space	n/a
112.0785	0.045	224157	keystroke_Key.backspace	Key.backspace	n/a
112.2135	0.075	224427	keystroke_Key.backspace	Key.backspace	n/a
112.3185	0.105	224637	keystroke_c	c	n/a
112.3785	0.105	224757	keystroke_e	e	n/a
112.4685	0.09	224937	keystroke_Key.space	Key.space	n/a
112.5735	0.09	225147	keystroke_i	i	n/a
112.6485	0.0455	225297	keystroke_d	d	n/a
112.829	0.045	225658	keystroke_e	e	n/a
112.889	0.06	225778	keystroke_n	n	n/a
112.964	0.075	225928	keystroke_t	t	n/a
113.084	0.09	226168	keystroke_i	i	n/a
113.189	0.09	226378	keystroke_t	t	n/a
113.879	0.045	227758	keystroke_y	y	n/a
115.094	0.075	230188	keystroke_Key.backspace	Key.backspace	n/a
115.394	0.105	230788	keystroke_Key.backspace	Key.backspace	n/a
115.604	0.075	231208	keystroke_Key.backspace	Key.backspace	n/a
116.0085	0.105	232017	keystroke_Key.backspace	Key.backspace	n/a
116.3385	0.0755	232677	keystroke_Key.backspace	Key.backspace	n/a
116.729	0.0745	233458	keystroke_Key.backspace	Key.backspace	n/a
117.0285	0.06	234057	keystroke_Key.backspace	Key.backspace	n/a
117.2985	0.09	234597	keystroke_Key.backspace	Key.backspace	n/a
117.6135	0.045	235227	keystroke_Key.backspace	Key.backspace	n/a
117.8235	0.06	235647	keystroke_Key.backspace	Key.backspace	n/a
118.0335	0.045	236067	keystroke_Key.backspace	Key.backspace	n/a
118.2435	0.045	236487	keystroke_Key.backspace	Key.backspace	n/a
118.4235	0.0605	236847	keystroke_Key.backspace	Key.backspace	n/a
118.6185	0.045	237237	keystroke_Key.backspace	Key.backspace	n/a
118.799	0.045	237598	keystroke_Key.backspace	Key.backspace	n/a
118.964	0.045	237928	keystroke_Key.backspace	Key.backspace	n/a
119.1585	0.06	238317	keystroke_Key.backspace	Key.backspace	n/a
119.8485	0.075	239697	keystroke_t	t	n/a
119.9385	0.09	239877	keystroke_Key.space	Key.space	n/a
120.0885	0.09	240177	keystroke_c	c	n/a
120.1935	0.06	240387	keystroke_h	h	n/a
120.2835	0.075	240567	keystroke_a	a	n/a
120.3735	0.045	240747	keystroke_n	n	n/a
120.4485	0.075	240897	keystroke_c	c	n/a
120.4785	0.09	240957	keystroke_e	e	n/a
120.5535	0.105	241107	keystroke_Key.space	Key.space	n/a
120.5985	0.09	241197	keystroke_i	i	n/a
120.6895	0.029	241379	keystroke_d	d	n/a
120.8235	0.06	241647	keystroke_e	e	n/a
120.8685	0.06	241737	keystroke_n	n	n/a
120.9735	0.0745	241947	keystroke_t	t	n/a
121.063	0.061	242126	keystroke_i	i	n/a
121.138	0.075	242276	keystroke_t	t	n/a
121.198	0.09	242396	keystroke_y	y	n/a
121.348	0.075	242696	keystroke_Key.enter	Key.enter	n/a
121.4285	4.4965	242857	prompt	n/a	apple mandate contrary battery\n
121.9935	0.075	243987	keystroke_a	a	n/a
122.0835	0.03	244167	keystroke_p	p	n/a
122.1885	0.075	244377	keystroke_p	p	n/a
122.3235	0.09	244647	keystroke_l	l	n/a
122.3985	0.06	244797	keystroke_e	e	n/a
122.4885	0.09	244977	keystroke_Key.space	Key.space	n/a
122.609	0.09	245218	keystroke_m	m	n/a
122.744	0.105	245488	keystroke_a	a	n/a
122.8935	0.06	245787	keystroke_n	n	n/a
122.9985	0.06	245997	keystroke_d	d	n/a
123.1785	0.0455	246357	keystroke_a	a	n/a
123.3285	0.0605	246657	keystroke_t	t	n/a
123.839	0.0895	247678	keystroke_e	e	n/a
123.9295	0.104	247859	keystroke_Key.space	Key.space	n/a
124.0485	0.06	248097	keystroke_c	c	n/a
124.1235	0.06	248247	keystroke_o	o	n/a
124.2435	0.06	248487	keystroke_n	n	n/a
124.2885	0.075	248577	keystroke_t	t	n/a
124.4535	0.06	248907	keystroke_r	r	n/a
124.4835	0.09	248967	keystroke_a	a	n/a
124.949	0.06	249898	keystroke_r	r	n/a
125.024	0.06	250048	keystroke_y	y	n/a
125.069	0.075	250138	keystroke_Key.space	Key.space	n/a
125.219	0.045	250438	keystroke_b	b	n/a
125.264	0.09	250528	keystroke_a	a	n/a
125.399	0.06	250798	keystroke_t	t	n/a
125.504	0.075	251008	keystroke_t	t	n/a
125.639	0.075	251278	keystroke_e	e	n/a
125.699	0.075	251398	keystroke_r	r	n/a
125.744	0.075	251488	keystroke_y	y	n/a
125.849	0.075	251698	keystroke_Key.enter	Key.enter	n/a
125.929	5.0815	251858	prompt	n/a	belfast besides valuable verification\n
126.6285	0.015	253257	keystroke_b	b	n/a
126.6585	0.075	253317	keystroke_e	e	n/a
126.7935	0.045	253587	keystroke_l	l	n/a
126.8395	0.074	253679	keystroke_f	f	n/a
126.9585	0.0905	253917	keystroke_a	a	n/a
127.139	0.06	254278	keystroke_s	s	n/a
127.289	0.075	254578	keystroke_t	t	n/a
127.364	0.045	254728	keystroke_Key.space	Key.space	n/a
127.469	0.0745	254938	keystroke_b	b	n/a
127.529	0.0595	255058	keystroke_e	e	n/a
127.6935	0.075	255387	keystroke_s	s	n/a
127.7695	0.074	255539	keystroke_i	i	n/a
127.8585	0.06	255717	keystroke_d	d	n/a
127.994	0.075	255988	keystroke_e	e	n/a
128.174	0.06	256348	keystroke_s	s	n/a
128.248	0.075	256496	keystroke_Key.space	Key.space	n/a
128.384	0.09	256768	keystroke_v	v	n/a
128.459	0.135	256918	keystroke_a	a	n/a
128.579	0.045	257158	keystroke_l	l	n/a
128.759	0.06	257518	keystroke_u	u	n/a
128.864	0.1045	257728	keystroke_a	a	n/a
128.9835	0.06	257967	keystroke_b	b	n/a
129.148	0.0905	258296	keystroke_l	l	n/a
129.2235	0.075	258447	keystroke_e	e	n/a
129.3735	0.0905	258747	keystroke_Key.space	Key.space	n/a
129.5245	0.074	259049	keystroke_v	v	n/a
129.7185	0.075	259437	keystroke_e	e	n/a
129.7635	0.09	259527	keystroke_r	r	n/a
129.8985	0.09	259797	keystroke_i	i	n/a
129.973	0.06	259946	keystroke_f	f	n/a
130.048	0.0905	260096	keystroke_i	i	n/a
130.2135	0.105	260427	keystroke_c	c	n/a
130.3035	0.075	260607	keystroke_a	a	n/a
130.4985	0.075	260997	keystroke_t	t	n/a
130.5435	0.06	261087	keystroke_i	i	n/a
130.5745	0.104	261149	keystroke_o	o	n/a
130.738	0.091	261476	keystroke_n	n	n/a
130.918	0.09	261836	keystroke_Key.enter	Key.enter	n/a
131.0135	4.392	262027	prompt	n/a	choir terrorism spyware postage\n
131.6535	0.06	263307	keystroke_c	c	n/a
131.7585	0.075	263517	keystroke_h	h	n/a
132.0135	0.12	264027	keystroke_o	o	n/a
132.0585	0.09	264117	keystroke_i	i	n/a
132.4335	0.06	264867	keystroke_r	r	n/a
132.5385	0.075	265077	keystroke_Key.space	Key.space	n/a
132.6135	0.045	265227	keystroke_t	t	n/a
132.7485	0.075	265497	keystroke_e	e	n/a
132.8385	0.045	265677	keystroke_r	r	n/a
132.9585	0.06	265917	keystroke_r	r	n/a
133.049	0.104	266098	keystroke_o	o	n/a
133.108	0.0605	266216	keystroke_r	r	n/a
133.6635	0.06	267327	keystroke_i	i	n/a
133.7685	0.06	267537	keystroke_s	s	n/a
133.8745	0.044	267749	keystroke_m	m	n/a
134.0235	0.09	268047	keystroke_Key.space	Key.space	n/a
134.0985	0.105	268197	keystroke_s	s	n/a
134.1885	0.06	268377	keystroke_p	p	n/a
134.3535	0.06	268707	keystroke_y	y	n/a
134.609	0.12	269218	keystroke_w	w	n/a
134.714	0.09	269428	keystroke_a	a	n/a
134.789	0.09	269578	keystroke_r	r	n/a
134.894	0.045	269788	keystroke_e	e	n/a
135.3135	0.09	270627	keystroke_Key.enter	Key.enter	n/a
135.408	4.8875	270816	prompt	n/a	find cornell japan basket\n
136.4835	0.075	272967	keystroke_f	f	n/a
136.5285	0.045	273057	keystroke_i	i	n/a
136.6485	0.075	273297	keystroke_n	n	n/a
136.7385	0.045	273477	keystroke_d	d	n/a
136.8135	0.09	273627	keystroke_Key.space	Key.space	n/a
136.9185	0.09	273837	keystroke_c	c	n/a
136.9935	0.0755	273987	keystroke_o	o	n/a
137.504	0.06	275008	keystroke_r	r	n/a
137.594	0.06	275188	keystroke_n	n	n/a
137.669	0.075	275338	keystroke_e	e	n/a
137.774	0.045	275548	keystroke_l	l	n/a
137.879	0.075	275758	keystroke_l	l	n/a
137.939	0.09	275878	keystroke_Key.space	Key.space	n/a
138.059	0.075	276118	keystroke_j	j	n/a
138.119	0.09	276238	keystroke_a	a	n/a
138.239	0.075	276478	keystroke_p	p	n/a
138.329	0.045	276658	keystroke_a	a	n/a
138.839	0.09	277678	keystroke_n	n	n/a
138.944	0.09	277888	keystroke_Key.space	Key.space	n/a
139.1235	0.105	278247	keystroke_b	b	n/a
139.2735	0.075	278547	keystroke_a	a	n/a
139.4235	0.105	278847	keystroke_s	s	n/a
139.5135	0.06	279027	keystroke_k	k	n/a
139.6035	0.09	279207	keystroke_e	e	n/a
139.7835	0.075	279567	keystroke_t	t	n/a
140.2035	0.0905	280407	keystroke_Key.enter	Key.enter	n/a
140.299	5.9065	280598	prompt	n/a	mentioned devel volumes motorcycle\n
140.954	0.045	281908	keystroke_m	m	n/a
141.074	0.09	282148	keystroke_e	e	n/a
141.149	0.06	282298	keystroke_n	n	n/a
141.269	0.075	282538	keystroke_t	t	n/a
141.374	0.105	282748	keystroke_i	i	n/a
141.449	0.075	282898	keystroke_o	o	n/a
141.584	0.06	283168	keystroke_n	n	n/a
141.629	0.06	283258	keystroke_e	e	n/a
141.764	0.0745	283528	keystroke_d	d	n/a
141.8685	0.09	283737	keystroke_Key.space	Key.space	n/a
141.9285	0.075	283857	keystroke_d	d	n/a
142.124	0.045	284248	keystroke_e	e	n/a
142.304	0.075	284608	keystroke_v	v	n/a
142.364	0.075	284728	keystroke_e	e	n/a
142.424	0.075	284848	keystroke_l	l	n/a
142.484	0.12	284968	keystroke_Key.space	Key.space	n/a
142.904	0.075	285808	keystroke_v	v	n/a
142.994	0.09	285988	keystroke_o	o	n/a
143.549	0.105	287098	keystroke_l	l	n/a
143.759	0.06	287518	keystroke_u	u	n/a
143.954	0.045	287908	keystroke_m	m	n/a
144.044	0.045	288088	keystroke_e	e	n/a
144.194	0.075	288388	keystroke_s	s	n/a
144.329	0.105	288658	keystroke_Key.space	Key.space	n/a
144.404	0.06	288808	keystroke_m	m	n/a
144.614	0.06	289228	keystroke_o	o	n/a
145.229	0.06	290458	keystroke_t	t	n/a
145.349	0.15	290698	keystroke_o	o	n/a
145.454	0.09	290908	keystroke_r	r	n/a
145.679	0.06	291358	keystroke_c	c	n/a
145.754	0.06	291508	keystroke_y	y	n/a
145.859	0.03	291718	keystroke_c	c	n/a
145.919	0.075	291838	keystroke_l	l	n/a
145.994	0.075	291988	keystroke_e	e	n/a
146.114	0.09	292228	keystroke_Key.enter	Key.enter	n/a
146.2095	3.386	292419	prompt	n/a	goods cult nations weeks\n
146.834	0.0895	293668	keystroke_g	g	n/a
146.969	0.06	293938	keystroke_o	o	n/a
147.089	0.1055	294178	keystroke_o	o	n/a
147.164	0.1195	294328	keystroke_d	d	n/a
147.2385	0.1055	294477	keystroke_s	s	n/a
147.329	0.105	294658	keystroke_Key.space	Key.space	n/a
147.449	0.105	294898	keystroke_c	c	n/a
147.524	0.045	295048	keystroke_u	u	n/a
147.659	0.09	295318	keystroke_l	l	n/a
147.779	0.06	295558	keystroke_t	t	n/a
147.854	0.06	295708	keystroke_Key.space	Key.space	n/a
147.9735	0.045	295947	keystroke_n	n	n/a
148.0635	0.075	296127	keystroke_a	a	n/a
148.1235	0.075	296247	keystroke_t	t	n/a
148.2585	0.12	296517	keystroke_i	i	n/a
148.3185	0.09	296637	keystroke_o	o	n/a
148.544	0.045	297088	keystroke_n	n	n/a
148.904	0.06	297808	keystroke_s	s	n/a
148.979	0.105	297958	keystroke_Key.space	Key.space	n/a
149.099	0.06	298198	keystroke_w	w	n/a
149.144	0.075	298288	keystroke_e	e	n/a
149.279	0.06	298558	keystroke_e	e	n/a
149.324	0.075	298648	keystroke_k	k	n/a
149.429	0.09	298858	keystroke_s	s	n/a
149.519	0.075	299038	keystroke_Key.enter	Key.enter	n/a
149.599	7.361	299198	prompt	n/a	jacksonville gentleman bedrooms compatible\n
150.3285	0.0605	300657	keystroke_j	j	n/a
150.4185	0.09	300837	keystroke_a	a	n/a
150.4795	0.104	300959	keystroke_c	c	n/a
150.5685	0.075	301137	keystroke_k	k	n/a
150.6735	0.075	301347	keystroke_s	s	n/a
150.7785	0.075	301557	keystroke_o	o	n/a
150.9285	0.045	301857	keystroke_n	n	n/a
151.0185	0.0605	302037	keystroke_v	v	n/a
151.169	0.015	302338	keystroke_i	i	n/a
151.334	0.014	302668	keystroke_l	l	n/a
151.409	0.0595	302818	keystroke_l	l	n/a
151.4985	0.075	302997	keystroke_e	e	n/a
151.6035	0.105	303207	keystroke_Key.space	Key.space	n/a
151.7685	0.061	303537	keystroke_g	g	n/a
151.9945	0.074	303989	keystroke_e	e	n/a
152.3835	0.061	304767	keystroke_n	n	n/a
152.744	0.015	305488	keystroke_t	t	n/a
152.834	0.06	305668	keystroke_l	l	n/a
152.984	0.0895	305968	keystroke_e	e	n/a
153.3885	0.075	306777	keystroke_m	m	n/a
153.5235	0.105	307047	keystroke_a	a	n/a
153.7485	0.075	307497	keystroke_n	n	n/a
153.9135	0.045	307827	keystroke_Key.space	Key.space	n/a
154.0185	0.09	308037	keystroke_b	b	n/a
154.0785	0.045	308157	keystroke_e	e	n/a
154.2435	0.045	308487	keystroke_d	d	n/a
154.409	0.0595	308818	keystroke_r	r	n/a
154.4985	0.045	308997	keystroke_o	o	n/a
154.6185	0.03	309237	keystroke_o	o	n/a
154.754	0.045	309508	keystroke_m	m	n/a
154.814	0.06	309628	keystroke_s	s	n/a
154.9195	0.0895	309839	keystroke_Key.space	Key.space	n/a
155.009	0.075	310018	keystroke_c	c	n/a
155.099	0.03	310198	keystroke_o	o	n/a
155.234	0.045	310468	keystroke_m	m	n/a
155.414	0.06	310828	keystroke_p	p	n/a
156.059	0.074	312118	keystroke_a	a	n/a
156.284	0.06	312568	keystroke_t	t	n/a
156.404	0.045	312808	keystroke_i	i	n/a
156.509	0.075	313018	keystroke_b	b	n/a
156.689	0.0605	313378	keystroke_l	l	n/a
156.7345	0.0895	313469	keystroke_e	e	n/a
156.884	0.074	313768	keystroke_Key.enter	Key.enter	n/a
156.964	3.9865	313928	prompt	n/a	symptoms learners meal nutrition\n
157.7245	0.075	315449	keystroke_s	s	n/a
157.7835	0.0745	315567	keystroke_y	y	n/a
157.9795	0.045	315959	keystroke_m	m	n/a
158.1445	0.06	316289	keystroke_p	p	n/a
158.2195	0.075	316439	keystroke_t	t	n/a
158.3095	0.03	316619	keystroke_o	o	n/a
158.4295	0.06	316859	keystroke_m	m	n/a
158.5035	0.061	317007	keystroke_s	s	n/a
158.5645	0.119	317129	keystroke_Key.space	Key.space	n/a
158.6395	0.104	317279	keystroke_l	l	n/a
158.7135	0.105	317427	keystroke_e	e	n/a
158.7885	0.105	317577	keystroke_a	a	n/a
158.9085	0.061	317817	keystroke_r	r	n/a
158.9395	0.075	317879	keystroke_n	n	n/a
159.0285	0.09	318057	keystroke_e	e	n/a
159.1045	0.06	318209	keystroke_r	r	n/a
159.2545	0.09	318509	keystroke_s	s	n/a
159.2985	0.135	318597	keystroke_Key.space	Key.space	n/a
159.3885	0.106	318777	keystroke_m	m	n/a
159.4795	0.074	318959	keystroke_e	e	n/a
159.5235	0.106	319047	keystroke_a	a	n/a
159.6145	0.075	319229	keystroke_l	l	n/a
159.6735	0.06	319347	keystroke_Key.space	Key.space	n/a
159.8545	0.06	319709	keystroke_n	n	n/a
160.0485	0.061	320097	keystroke_u	u	n/a
160.1245	0.0595	320249	keystroke_t	t	n/a
160.289	0.06	320578	keystroke_r	r	n/a
160.364	0.075	320728	keystroke_i	i	n/a
160.454	0.075	320908	keystroke_t	t	n/a
160.544	0.105	321088	keystroke_i	i	n/a
160.604	0.075	321208	keystroke_o	o	n/a
160.754	0.06	321508	keystroke_n	n	n/a
160.904	0.045	321808	keystroke_Key.enter	Key.enter	n/a
160.9555	5.47	321911	prompt	n/a	corporation vertex dimension blogger\n
161.6385	0.06	323277	keystroke_c	c	n/a
161.6835	0.105	323367	keystroke_o	o	n/a
161.8635	0.075	323727	keystroke_r	r	n/a
161.9535	0.06	323907	keystroke_p	p	n/a
161.9985	0.135	323997	keystroke_o	o	n/a
162.0885	0.06	324177	keystroke_r	r	n/a
162.4795	0.044	324959	keystroke_a	a	n/a
162.5395	0.089	325079	keystroke_t	t	n/a
162.6145	0.09	325229	keystroke_i	i	n/a
162.6595	0.09	325319	keystroke_o	o	n/a
162.8385	0.076	325677	keystroke_n	n	n/a
162.8985	0.105	325797	keystroke_Key.space	Key.space	n/a
163.0045	0.06	326009	keystroke_v	v	n/a
163.1845	0.075	326369	keystroke_e	e	n/a
163.2445	0.045	326489	keystroke_r	r	n/a
163.4085	0.06	326817	keystroke_t	t	n/a
163.5435	0.076	327087	keystroke_e	e	n/a
163.7985	0.09	327597	keystroke_x	x	n/a
163.9785	0.135	327957	keystroke_Key.space	Key.space	n/a
164.1435	0.061	328287	keystroke_d	d	n/a
164.2185	0.06	328437	keystroke_i	i	n/a
164.3985	0.045	328797	keystroke_m	m	n/a
164.4745	0.059	328949	keystroke_e	e	n/a
164.5645	0.06	329129	keystroke_n	n	n/a
164.7295	0.0745	329459	keystroke_s	s	n/a
164.819	0.105	329638	keystroke_i	i	n/a
164.879	0.09	329758	keystroke_o	o	n/a
165.044	0.0905	330088	keystroke_n	n	n/a
165.119	0.0605	330238	keystroke_Key.space	Key.space	n/a
165.2695	0.03	330539	keystroke_b	b	n/a
165.4195	0.075	330839	keystroke_l	l	n/a
165.5545	0.105	331109	keystroke_o	o	n/a
165.6145	0.075	331229	keystroke_g	g	n/a
165.7645	0.045	331529	keystroke_g	g	n/a
165.9145	0.09	331829	keystroke_e	e	n/a
165.9745	0.09	331949	keystroke_r	r	n/a
166.364	0.06	332728	keystroke_Key.enter	Key.enter	n/a
166.4285	4.437	332857	prompt	n/a	combat principle banks sponsorship\n
167.084	0.06	334168	keystroke_c	c	n/a
167.129	0.045	334258	keystroke_o	o	n/a
167.279	0.075	334558	keystroke_m	m	n/a
167.444	0.045	334888	keystroke_b	b	n/a
167.504	0.105	335008	keystroke_a	a	n/a
167.564	0.1045	335128	keystroke_t	t	n/a
167.6835	0.075	335367	keystroke_Key.space	Key.space	n/a
167.7885	0.106	335577	keystroke_p	p	n/a
167.9095	0.059	335819	keystroke_r	r	n/a
167.9835	0.046	335967	keystroke_i	i	n/a
168.119	0.06	336238	keystroke_n	n	n/a
168.224	0.045	336448	keystroke_c	c	n/a
168.314	0.06	336628	keystroke_i	i	n/a
168.434	0.075	336868	keystroke_p	p	n/a
168.5985	0.06	337197	keystroke_l	l	n/a
168.6735	0.075	337347	keystroke_e	e	n/a
168.7785	0.045	337557	keystroke_Key.space	Key.space	n/a
168.899	0.075	337798	keystroke_b	b	n/a
169.004	0.09	338008	keystroke_a	a	n/a
169.109	0.105	338218	keystroke_n	n	n/a
169.184	0.105	338368	keystroke_k	k	n/a
169.274	0.09	338548	keystroke_s	s	n/a
169.379	0.09	338758	keystroke_Key.space	Key.space	n/a
169.499	0.03	338998	keystroke_s	s	n/a
169.544	0.0895	339088	keystroke_p	p	n/a
169.6185	0.06	339237	keystroke_o	o	n/a
169.8135	0.03	339627	keystroke_n	n	n/a
169.8885	0.09	339777	keystroke_s	s	n/a
169.9935	0.075	339987	keystroke_o	o	n/a
170.1135	0.075	340227	keystroke_r	r	n/a
170.3085	0.075	340617	keystroke_s	s	n/a
170.3535	0.06	340707	keystroke_h	h	n/a
170.5335	0.09	341067	keystroke_i	i	n/a
170.5785	0.105	341157	keystroke_p	p	n/a
170.7585	0.105	341517	keystroke_Key.enter	Key.enter	n/a
170.8685	2.967	341737	prompt	n/a	beta actions hist piece\n
171.5385	0.06	343077	keystroke_b	b	n/a
171.614	0.075	343228	keystroke_e	e	n/a
171.749	0.105	343498	keystroke_t	t	n/a
171.839	0.075	343678	keystroke_a	a	n/a
171.899	0.1345	343798	keystroke_Key.space	Key.space	n/a
172.0185	0.105	344037	keystroke_a	a	n/a
172.1085	0.075	344217	keystroke_c	c	n/a
172.3185	0.105	344637	keystroke_t	t	n/a
172.4085	0.045	344817	keystroke_i	i	n/a
172.4385	0.045	344877	keystroke_o	o	n/a
172.5735	0.045	345147	keystroke_n	n	n/a
172.6335	0.075	345267	keystroke_s	s	n/a
172.7095	0.134	345419	keystroke_Key.space	Key.space	n/a
172.8285	0.105	345657	keystroke_h	h	n/a
172.8585	0.12	345717	keystroke_i	i	n/a
172.9485	0.045	345897	keystroke_s	s	n/a
173.0985	0.075	346197	keystroke_t	t	n/a
173.1585	0.12	346317	keystroke_Key.space	Key.space	n/a
173.2485	0.12	346497	keystroke_p	p	n/a
173.3835	0.09	346767	keystroke_i	i	n/a
173.4435	0.105	346887	keystroke_e	e	n/a
173.6085	0.09	347217	keystroke_c	c	n/a
173.6535	0.105	347307	keystroke_e	e	n/a
173.7435	0.09	347487	keystroke_Key.enter	Key.enter	n/a
173.8385	4.7075	347677	prompt	n/a	zones analyze private tires\n
174.5535	0.075	349107	keystroke_z	z	n/a
174.6135	0.06	349227	keystroke_o	o	n/a
174.7485	0.075	349497	keystroke_n	n	n/a
174.7935	0.045	349587	keystroke_e	e	n/a
174.9435	0.06	349887	keystroke_s	s	n/a
175.0185	0.105	350037	keystroke_Key.space	Key.space	n/a
175.139	0.06	350278	keystroke_a	a	n/a
175.244	0.045	350488	keystroke_l	l	n/a
175.664	0.06	351328	keystroke_Key.backspace	Key.backspace	n/a
175.874	0.06	351748	keystroke_n	n	n/a
175.979	0.075	351958	keystroke_a	a	n/a
176.084	0.045	352168	keystroke_l	l	n/a
176.264	0.06	352528	keystroke_y	y	n/a
176.339	0.075	352678	keystroke_z	z	n/a
176.5485	0.061	353097	keystroke_e	e	n/a
176.6685	0.06	353337	keystroke_Key.space	Key.space	n/a
176.7885	0.09	353577	keystroke_p	p	n/a
176.9235	0.031	353847	keystroke_r	r	n/a
176.9845	0.0895	353969	keystroke_i	i	n/a
177.104	0.075	354208	keystroke_v	v	n/a
177.299	0.09	354598	keystroke_a	a	n/a
177.449	0.09	354898	keystroke_t	t	n/a
177.569	0.09	355138	keystroke_e	e	n/a
177.674	0.105	355348	keystroke_Key.space	Key.space	n/a
177.764	0.045	355528	keystroke_t	t	n/a
177.839	0.105	355678	keystroke_i	i	n/a
177.914	0.075	355828	keystroke_r	r	n/a
177.929	0.09	355858	keystroke_e	e	n/a
178.184	0.075	356368	keystroke_s	s	n/a
178.484	0.06	356968	keystroke_Key.enter	Key.enter	n/a
178.5495	3.806	357099	prompt	n/a	selling nova herald marion\n
179.114	0.105	358228	keystroke_s	s	n/a
179.279	0.06	358558	keystroke_e	e	n/a
179.3545	0.045	358709	keystroke_l	l	n/a
179.4745	0.0445	358949	keystroke_l	l	n/a
179.609	0.075	359218	keystroke_i	i	n/a
179.744	0.0905	359488	keystroke_n	n	n/a
179.8345	0.0745	359669	keystroke_g	g	n/a
179.894	0.0755	359788	keystroke_Key.space	Key.space	n/a
179.939	0.1055	359878	keystroke_n	n	n/a
179.9995	0.1045	359999	keystroke_o	o	n/a
180.119	0.105	360238	keystroke_v	v	n/a
180.179	0.105	360358	keystroke_a	a	n/a
180.299	0.09	360598	keystroke_Key.space	Key.space	n/a
180.539	0.0755	361078	keystroke_h	h	n/a
180.6745	0.0895	361349	keystroke_e	e	n/a
180.749	0.0455	361498	keystroke_r	r	n/a
180.899	0.075	361798	keystroke_a	a	n/a
181.109	0.075	362218	keystroke_l	l	n/a
181.4245	0.045	362849	keystroke_d	d	n/a
181.4995	0.075	362999	keystroke_Key.space	Key.space	n/a
181.6045	0.09	363209	keystroke_m	m	n/a
181.7095	0.0895	363419	keystroke_a	a	n/a
181.7545	0.0895	363509	keystroke_r	r	n/a
181.889	0.12	363778	keystroke_i	i	n/a
181.994	0.075	363988	keystroke_o	o	n/a
182.129	0.105	364258	keystroke_n	n	n/a
182.249	0.105	364498	keystroke_Key.enter	Key.enter	n/a
182.3585	5.922	364717	prompt	n/a	affiliates infections strictly wifi\n
183.014	0.06	366028	keystroke_a	a	n/a
183.179	0.045	366358	keystroke_f	f	n/a
183.269	0.09	366538	keystroke_f	f	n/a
183.344	0.06	366688	keystroke_i	i	n/a
183.524	0.06	367048	keystroke_l	l	n/a
183.674	0.06	367348	keystroke_i	i	n/a
183.749	0.075	367498	keystroke_a	a	n/a
183.809	0.135	367618	keystroke_t	t	n/a
183.899	0.09	367798	keystroke_e	e	n/a
184.079	0.105	368158	keystroke_s	s	n/a
184.169	0.12	368338	keystroke_Key.space	Key.space	n/a
184.244	0.075	368488	keystroke_i	i	n/a
184.409	0.075	368818	keystroke_n	n	n/a
184.499	0.105	368998	keystroke_f	f	n/a
184.574	0.09	369148	keystroke_e	e	n/a
184.754	0.075	369508	keystroke_c	c	n/a
184.964	0.09	369928	keystroke_t	t	n/a
185.009	0.09	370018	keystroke_i	i	n/a
185.084	0.075	370168	keystroke_o	o	n/a
185.219	0.09	370438	keystroke_n	n	n/a
185.294	0.06	370588	keystroke_s	s	n/a
185.369	0.105	370738	keystroke_Key.space	Key.space	n/a
185.594	0.075	371188	keystroke_t	t	n/a
186.059	0.015	372118	keystroke_Key.backspace	Key.backspace	n/a
186.224	0.075	372448	keystroke_s	s	n/a
186.404	0.075	372808	keystroke_t	t	n/a
186.569	0.06	373138	keystroke_r	r	n/a
186.659	0.075	373318	keystroke_i	i	n/a
186.824	0.09	373648	keystroke_c	c	n/a
187.154	0.045	374308	keystroke_t	t	n/a
187.259	0.075	374518	keystroke_l	l	n/a
187.469	0.075	374938	keystroke_y	y	n/a
187.649	0.105	375298	keystroke_Key.space	Key.space	n/a
187.784	0.06	375568	keystroke_w	w	n/a
187.889	0.06	375778	keystroke_i	i	n/a
187.95	0.089	375900	keystroke_f	f	n/a
188.039	0.06	376078	keystroke_i	i	n/a
188.204	0.075	376408	keystroke_Key.enter	Key.enter	n/a
188.2835	5.472	376567	prompt	n/a	read detected believed ultimately\n
188.939	0.1045	377878	keystroke_r	r	n/a
188.999	0.09	377998	keystroke_e	e	n/a
189.164	0.135	378328	keystroke_a	a	n/a
189.314	0.075	378628	keystroke_d	d	n/a
189.389	0.12	378778	keystroke_Key.space	Key.space	n/a
189.524	0.045	379048	keystroke_d	d	n/a
189.704	0.045	379408	keystroke_e	e	n/a
189.854	0.075	379708	keystroke_t	t	n/a
189.944	0.09	379888	keystroke_e	e	n/a
190.1695	0.075	380339	keystroke_c	c	n/a
190.3795	0.06	380759	keystroke_t	t	n/a
190.4695	0.09	380939	keystroke_e	e	n/a
190.6645	0.075	381329	keystroke_d	d	n/a
190.7545	0.06	381509	keystroke_Key.space	Key.space	n/a
190.9345	0.06	381869	keystroke_b	b	n/a
191.0245	0.06	382049	keystroke_e	e	n/a
191.1595	0.06	382319	keystroke_l	l	n/a
191.3095	0.075	382619	keystroke_i	i	n/a
191.6545	0.075	383309	keystroke_e	e	n/a
191.8945	0.09	383789	keystroke_v	v	n/a
191.9545	0.075	383909	keystroke_e	e	n/a
192.1645	0.075	384329	keystroke_d	d	n/a
192.2995	0.09	384599	keystroke_Key.space	Key.space	n/a
192.4195	0.06	384839	keystroke_u	u	n/a
192.6135	0.076	385227	keystroke_l	l	n/a
192.7185	0.076	385437	keystroke_t	t	n/a
192.8085	0.046	385617	keystroke_i	i	n/a
192.9595	0.075	385919	keystroke_m	m	n/a
193.0345	0.089	386069	keystroke_a	a	n/a
193.1085	0.09	386217	keystroke_t	t	n/a
193.1845	0.075	386369	keystroke_e	e	n/a
193.2435	0.076	386487	keystroke_l	l	n/a
193.4545	0.0295	386909	keystroke_y	y	n/a
193.6785	0.075	387357	keystroke_Key.enter	Key.enter	n/a
193.76	4.1205	387520	prompt	n/a	cardiac reflection kyle camps\n
194.489	0.06	388978	keystroke_c	c	n/a
194.564	0.075	389128	keystroke_a	a	n/a
194.684	0.075	389368	keystroke_r	r	n/a
194.864	0.075	389728	keystroke_d	d	n/a
194.924	0.06	389848	keystroke_i	i	n/a
195.0895	0.105	390179	keystroke_a	a	n/a
195.1345	0.09	390269	keystroke_c	c	n/a
195.2845	0.09	390569	keystroke_Key.space	Key.space	n/a
195.5695	0.0895	391139	keystroke_r	r	n/a
195.629	0.075	391258	keystroke_e	e	n/a
195.854	0.03	391708	keystroke_f	f	n/a
195.869	0.045	391738	keystroke_l	l	n/a
195.959	0.105	391918	keystroke_e	e	n/a
196.124	0.075	392248	keystroke_c	c	n/a
196.319	0.075	392638	keystroke_t	t	n/a
196.379	0.09	392758	keystroke_i	i	n/a
196.439	0.06	392878	keystroke_o	o	n/a
196.589	0.09	393178	keystroke_n	n	n/a
196.664	0.135	393328	keystroke_Key.space	Key.space	n/a
196.769	0.075	393538	keystroke_k	k	n/a
196.979	0.03	393958	keystroke_y	y	n/a
197.1295	0.075	394259	keystroke_l	l	n/a
197.2045	0.06	394409	keystroke_e	e	n/a
197.3095	0.075	394619	keystroke_Key.space	Key.space	n/a
197.3995	0.06	394799	keystroke_c	c	n/a
197.4295	0.1195	394859	keystroke_a	a	n/a
197.4895	0.0745	394979	keystroke_m	m	n/a
197.624	0.09	395248	keystroke_p	p	n/a
197.684	0.09	395368	keystroke_s	s	n/a
197.819	0.06	395638	keystroke_Key.enter	Key.enter	n/a
197.8835	8.052	395767	prompt	n/a	preliminary correctly constitution convenience\n
198.539	0.06	397078	keystroke_p	p	n/a
198.719	0.075	397438	keystroke_e	e	n/a
199.229	0.03	398458	keystroke_Key.backspace	Key.backspace	n/a
199.394	0.09	398788	keystroke_r	r	n/a
199.454	0.09	398908	keystroke_e	e	n/a
199.559	0.09	399118	keystroke_l	l	n/a
199.739	0.03	399478	keystroke_i	i	n/a
199.904	0.045	399808	keystroke_m	m	n/a
200.054	0.045	400108	keystroke_i	i	n/a
200.174	0.0755	400348	keystroke_n	n	n/a
200.2945	0.0895	400589	keystroke_a	a	n/a
200.3245	0.09	400649	keystroke_r	r	n/a
200.4445	0.0595	400889	keystroke_y	y	n/a
200.459	0.105	400918	keystroke_Key.space	Key.space	n/a
200.654	0.0755	401308	keystroke_c	c	n/a
200.7445	0.06	401489	keystroke_o	o	n/a
200.8645	0.045	401729	keystroke_r	r	n/a
200.9845	0.09	401969	keystroke_r	r	n/a
201.0445	0.09	402089	keystroke_e	e	n/a
201.2395	0.06	402479	keystroke_c	c	n/a
201.4345	0.075	402869	keystroke_t	t	n/a
201.4945	0.045	402989	keystroke_l	l	n/a
201.704	0.0455	403408	keystroke_y	y	n/a
201.7645	0.06	403529	keystroke_Key.space	Key.space	n/a
202.0345	0.09	404069	keystroke_c	c	n/a
202.0945	0.045	404189	keystroke_o	o	n/a
202.2285	0.075	404457	keystroke_n	n	n/a
202.2885	0.09	404577	keystroke_s	s	n/a
202.6935	0.075	405387	keystroke_t	t	n/a
202.8135	0.075	405627	keystroke_i	i	n/a
202.9485	0.09	405897	keystroke_t	t	n/a
203.0235	0.06	406047	keystroke_u	u	n/a
203.1435	0.075	406287	keystroke_t	t	n/a
203.2195	0.104	406439	keystroke_i	i	n/a
203.2795	0.075	406559	keystroke_o	o	n/a
203.4585	0.06	406917	keystroke_n	n	n/a
203.5635	0.105	407127	keystroke_Key.space	Key.space	n/a
203.7435	0.076	407487	keystroke_c	c	n/a
203.8335	0.031	407667	keystroke_o	o	n/a
204.539	0.075	409078	keystroke_n	n	n/a
204.764	0.09	409528	keystroke_v	v	n/a
204.809	0.09	409618	keystroke_e	e	n/a
204.914	0.06	409828	keystroke_n	n	n/a
205.2435	0.075	410487	keystroke_i	i	n/a
205.3335	0.0905	410667	keystroke_e	e	n/a
205.439	0.06	410878	keystroke_n	n	n/a
205.529	0.09	411058	keystroke_c	c	n/a
205.574	0.105	411148	keystroke_e	e	n/a
205.859	0.075	411718	keystroke_Key.enter	Key.enter	n/a
205.9395	4.4965	411879	prompt	n/a	ma'am theology obligations warren\n
206.6245	0.045	413249	keystroke_m	m	n/a
206.7145	0.075	413429	keystroke_a	a	n/a
206.8195	0.0895	413639	keystroke_'	'	n/a
207.314	0.075	414628	keystroke_a	a	n/a
207.374	0.075	414748	keystroke_m	m	n/a
207.434	0.105	414868	keystroke_Key.space	Key.space	n/a
207.614	0.075	415228	keystroke_t	t	n/a
207.7035	0.06	415407	keystroke_h	h	n/a
207.779	0.0745	415558	keystroke_e	e	n/a
207.884	0.0595	415768	keystroke_o	o	n/a
208.0485	0.06	416097	keystroke_l	l	n/a
208.1685	0.075	416337	keystroke_o	o	n/a
208.2585	0.075	416517	keystroke_g	g	n/a
208.3485	0.076	416697	keystroke_y	y	n/a
208.4095	0.09	416819	keystroke_Key.space	Key.space	n/a
208.544	0.075	417088	keystroke_o	o	n/a
208.709	0.06	417418	keystroke_b	b	n/a
208.874	0.06	417748	keystroke_l	l	n/a
209.039	0.075	418078	keystroke_i	i	n/a
209.129	0.075	418258	keystroke_g	g	n/a
209.174	0.105	418348	keystroke_a	a	n/a
209.369	0.075	418738	keystroke_t	t	n/a
209.429	0.075	418858	keystroke_i	i	n/a
209.489	0.045	418978	keystroke_o	o	n/a
209.609	0.045	419218	keystroke_n	n	n/a
209.669	0.06	419338	keystroke_s	s	n/a
209.744	0.0745	419488	keystroke_Key.space	Key.space	n/a
209.8335	0.135	419667	keystroke_w	w	n/a
209.9385	0.09	419877	keystroke_a	a	n/a
210.0135	0.06	420027	keystroke_r	r	n/a
210.1335	0.105	420267	keystroke_r	r	n/a
210.2245	0.089	420449	keystroke_e	e	n/a
210.2835	0.09	420567	keystroke_n	n	n/a
210.3585	0.075	420717	keystroke_Key.enter	Key.enter	n/a
210.439	4.2115	420878	prompt	n/a	mall makeup recognized preference\n
211.049	0.075	422098	keystroke_m	m	n/a
211.1385	0.12	422277	keystroke_a	a	n/a
211.2435	0.03	422487	keystroke_l	l	n/a
211.3485	0.06	422697	keystroke_l	l	n/a
211.3785	0.15	422757	keystroke_Key.space	Key.space	n/a
211.4835	0.09	422967	keystroke_m	m	n/a
211.5745	0.074	423149	keystroke_a	a	n/a
211.6335	0.075	423267	keystroke_k	k	n/a
211.7095	0.074	423419	keystroke_e	e	n/a
211.8135	0.105	423627	keystroke_u	u	n/a
211.9035	0.09	423807	keystroke_p	p	n/a
212.0085	0.105	424017	keystroke_Key.space	Key.space	n/a
212.0835	0.105	424167	keystroke_r	r	n/a
212.1585	0.09	424317	keystroke_e	e	n/a
212.3535	0.045	424707	keystroke_c	c	n/a
212.4285	0.06	424857	keystroke_o	o	n/a
212.5485	0.076	425097	keystroke_g	g	n/a
212.6545	0.06	425309	keystroke_n	n	n/a
213.1035	0.061	426207	keystroke_i	i	n/a
213.1485	0.061	426297	keystroke_z	z	n/a
213.3135	0.046	426627	keystroke_e	e	n/a
213.4635	0.075	426927	keystroke_d	d	n/a
213.5235	0.105	427047	keystroke_Key.space	Key.space	n/a
213.6135	0.09	427227	keystroke_p	p	n/a
213.6585	0.091	427317	keystroke_r	r	n/a
213.7345	0.074	427469	keystroke_e	e	n/a
213.869	0.06	427738	keystroke_f	f	n/a
214.019	0.09	428038	keystroke_e	e	n/a
214.064	0.135	428128	keystroke_r	r	n/a
214.184	0.105	428368	keystroke_e	e	n/a
214.274	0.06	428548	keystroke_n	n	n/a
214.394	0.09	428788	keystroke_c	c	n/a
214.439	0.105	428878	keystroke_e	e	n/a
214.559	0.0895	429118	keystroke_Key.enter	Key.enter	n/a
214.655	4.6905	429310	prompt	n/a	blackberry readers speaker striking\n
215.2345	0.09	430469	keystroke_b	b	n/a
215.4445	0.075	430889	keystroke_l	l	n/a
215.5345	0.105	431069	keystroke_a	a	n/a
215.6095	0.105	431219	keystroke_c	c	n/a
215.6695	0.075	431339	keystroke_k	k	n/a
215.8495	0.0445	431699	keystroke_b	b	n/a
215.909	0.06	431818	keystroke_e	e	n/a
215.984	0.03	431968	keystroke_r	r	n/a
216.074	0.0895	432148	keystroke_r	r	n/a
216.149	0.075	432298	keystroke_y	y	n/a
216.1785	0.1055	432357	keystroke_Key.space	Key.space	n/a
216.2685	0.09	432537	keystroke_r	r	n/a
216.329	0.09	432658	keystroke_e	e	n/a
216.4335	0.0455	432867	keystroke_a	a	n/a
216.7195	0.075	433439	keystroke_d	d	n/a
216.9145	0.09	433829	keystroke_e	e	n/a
216.9895	0.045	433979	keystroke_r	r	n/a
217.139	0.075	434278	keystroke_s	s	n/a
217.199	0.105	434398	keystroke_Key.space	Key.space	n/a
217.319	0.045	434638	keystroke_s	s	n/a
217.334	0.09	434668	keystroke_p	p	n/a
217.484	0.09	434968	keystroke_e	e	n/a
217.529	0.09	435058	keystroke_a	a	n/a
217.619	0.09	435238	keystroke_k	k	n/a
217.724	0.0905	435448	keystroke_e	e	n/a
217.799	0.0605	435598	keystroke_r	r	n/a
217.9485	0.12	435897	keystroke_Key.space	Key.space	n/a
218.0835	0.06	436167	keystroke_s	s	n/a
218.2495	0.029	436499	keystroke_t	t	n/a
218.3685	0.09	436737	keystroke_r	r	n/a
218.4435	0.03	436887	keystroke_i	i	n/a
218.6085	0.031	437217	keystroke_k	k	n/a
218.6845	0.06	437369	keystroke_i	i	n/a
218.8185	0.061	437637	keystroke_n	n	n/a
218.8795	0.075	437759	keystroke_g	g	n/a
219.2685	0.075	438537	keystroke_Key.enter	Key.enter	n/a
219.349	4.6765	438698	prompt	n/a	tions perfectly editor refused\n
220.079	0.075	440158	keystroke_t	t	n/a
220.199	0.135	440398	keystroke_i	i	n/a
220.319	0.09	440638	keystroke_o	o	n/a
220.484	0.045	440968	keystroke_n	n	n/a
220.544	0.09	441088	keystroke_s	s	n/a
220.619	0.09	441238	keystroke_Key.space	Key.space	n/a
220.679	0.105	441358	keystroke_p	p	n/a
220.754	0.06	441508	keystroke_e	e	n/a
220.769	0.075	441538	keystroke_r	r	n/a
220.934	0.075	441868	keystroke_f	f	n/a
221.024	0.0745	442048	keystroke_e	e	n/a
221.1885	0.06	442377	keystroke_c	c	n/a
221.3835	0.075	442767	keystroke_t	t	n/a
221.4285	0.075	442857	keystroke_l	l	n/a
221.6685	0.06	443337	keystroke_y	y	n/a
221.7135	0.06	443427	keystroke_Key.space	Key.space	n/a
221.8935	0.06	443787	keystroke_e	e	n/a
222.044	0.12	444088	keystroke_d	d	n/a
222.119	0.075	444238	keystroke_i	i	n/a
222.2535	0.075	444507	keystroke_t	t	n/a
222.3135	0.075	444627	keystroke_o	o	n/a
222.4935	0.0905	444987	keystroke_Key.space	Key.space	n/a
223.0035	0.061	446007	keystroke_Key.backspace	Key.backspace	n/a
223.1245	0.06	446249	keystroke_r	r	n/a
223.1995	0.105	446399	keystroke_Key.space	Key.space	n/a
223.2895	0.075	446579	keystroke_r	r	n/a
223.3345	0.06	446669	keystroke_e	e	n/a
223.4845	0.045	446969	keystroke_f	f	n/a
223.5145	0.09	447029	keystroke_u	u	n/a
223.6195	0.075	447239	keystroke_s	s	n/a
223.724	0.09	447448	keystroke_e	e	n/a
223.874	0.105	447748	keystroke_d	d	n/a
223.964	0.06	447928	keystroke_Key.enter	Key.enter	n/a
224.0285	4.152	448057	prompt	n/a	so venues albania football\n
224.624	0.09	449248	keystroke_s	s	n/a
224.699	0.0905	449398	keystroke_o	o	n/a
224.7585	0.091	449517	keystroke_Key.space	Key.space	n/a
225.0285	0.09	450057	keystroke_e	e	n/a
225.0885	0.045	450177	keystroke_n	n	n/a
225.4035	0.06	450807	keystroke_Key.backspace	Key.backspace	n/a
225.5235	0.06	451047	keystroke_Key.backspace	Key.backspace	n/a
225.6435	0.09	451287	keystroke_v	v	n/a
225.7035	0.105	451407	keystroke_e	e	n/a
225.7785	0.06	451557	keystroke_n	n	n/a
225.959	0.075	451918	keystroke_u	u	n/a
226.019	0.06	452038	keystroke_e	e	n/a
226.199	0.045	452398	keystroke_s	s	n/a
226.259	0.09	452518	keystroke_Key.space	Key.space	n/a
226.379	0.09	452758	keystroke_a	a	n/a
226.454	0.045	452908	keystroke_l	l	n/a
226.589	0.06	453178	keystroke_b	b	n/a
226.754	0.0595	453508	keystroke_a	a	n/a
226.8285	0.0755	453657	keystroke_n	n	n/a
227.009	0.09	454018	keystroke_i	i	n/a
227.144	0.06	454288	keystroke_a	a	n/a
227.234	0.09	454468	keystroke_Key.space	Key.space	n/a
227.354	0.06	454708	keystroke_f	f	n/a
227.429	0.045	454858	keystroke_o	o	n/a
227.5335	0.075	455067	keystroke_o	o	n/a
227.6095	0.075	455219	keystroke_t	t	n/a
227.6985	0.061	455397	keystroke_b	b	n/a
227.7885	0.09	455577	keystroke_a	a	n/a
227.8635	0.061	455727	keystroke_l	l	n/a
227.9835	0.06	455967	keystroke_l	l	n/a
228.1185	0.06	456237	keystroke_Key.enter	Key.enter	n/a
228.185	4.8255	456370	prompt	n/a	voluntary seniors agencies medication\n
228.8535	0.075	457707	keystroke_v	v	n/a
228.9135	0.06	457827	keystroke_o	o	n/a
229.094	0.045	458188	keystroke_l	l	n/a
229.229	0.045	458458	keystroke_u	u	n/a
229.364	0.06	458728	keystroke_n	n	n/a
229.439	0.075	458878	keystroke_t	t	n/a
229.559	0.0905	459118	keystroke_a	a	n/a
229.6345	0.09	459269	keystroke_r	r	n/a
229.7095	0.075	459419	keystroke_y	y	n/a
229.7695	0.075	459539	keystroke_Key.space	Key.space	n/a
230.1145	0.03	460229	keystroke_s	s	n/a
230.2645	0.06	460529	keystroke_e	e	n/a
230.3095	0.06	460619	keystroke_n	n	n/a
230.489	0.12	460978	keystroke_i	i	n/a
230.564	0.12	461128	keystroke_o	o	n/a
230.624	0.075	461248	keystroke_r	r	n/a
230.789	0.09	461578	keystroke_s	s	n/a
230.924	0.045	461848	keystroke_Key.space	Key.space	n/a
231.089	0.09	462178	keystroke_a	a	n/a
231.209	0.12	462418	keystroke_g	g	n/a
231.269	0.105	462538	keystroke_e	e	n/a
231.344	0.075	462688	keystroke_n	n	n/a
231.479	0.1045	462958	keystroke_c	c	n/a
231.569	0.0745	463138	keystroke_i	i	n/a
231.6285	0.045	463257	keystroke_e	e	n/a
231.7935	0.09	463587	keystroke_s	s	n/a
231.8685	0.06	463737	keystroke_Key.space	Key.space	n/a
231.9885	0.09	463977	keystroke_m	m	n/a
232.0185	0.045	464037	keystroke_e	e	n/a
232.1985	0.0605	464397	keystroke_d	d	n/a
232.2435	0.06	464487	keystroke_i	i	n/a
232.334	0.0895	464668	keystroke_c	c	n/a
232.4085	0.09	464817	keystroke_a	a	n/a
232.5745	0.09	465149	keystroke_t	t	n/a
232.5895	0.09	465179	keystroke_i	i	n/a
232.6495	0.074	465299	keystroke_o	o	n/a
232.7685	0.0605	465537	keystroke_n	n	n/a
232.889	0.12	465778	keystroke_Key.enter	Key.enter	n/a
233.0135	3.582	466027	prompt	n/a	spelling cute sheets decisions\n
233.579	0.075	467158	keystroke_s	s	n/a
233.669	0.045	467338	keystroke_p	p	n/a
233.774	0.06	467548	keystroke_e	e	n/a
233.864	0.045	467728	keystroke_l	l	n/a
233.984	0.06	467968	keystroke_l	l	n/a
234.134	0.03	468268	keystroke_i	i	n/a
234.239	0.075	468478	keystroke_n	n	n/a
234.299	0.075	468598	keystroke_g	g	n/a
234.389	0.1055	468778	keystroke_Key.space	Key.space	n/a
234.5095	0.0595	469019	keystroke_c	c	n/a
234.614	0.06	469228	keystroke_u	u	n/a
234.719	0.045	469438	keystroke_t	t	n/a
234.779	0.075	469558	keystroke_e	e	n/a
234.884	0.09	469768	keystroke_Key.space	Key.space	n/a
234.959	0.075	469918	keystroke_s	s	n/a
235.0495	0.045	470099	keystroke_h	h	n/a
235.1095	0.045	470219	keystroke_e	e	n/a
235.2445	0.045	470489	keystroke_e	e	n/a
235.3345	0.09	470669	keystroke_t	t	n/a
235.4995	0.09	470999	keystroke_s	s	n/a
235.5895	0.1045	471179	keystroke_Key.space	Key.space	n/a
235.664	0.075	471328	keystroke_d	d	n/a
235.829	0.06	471658	keystroke_e	e	n/a
235.979	0.075	471958	keystroke_c	c	n/a
236.039	0.06	472078	keystroke_i	i	n/a
236.144	0.09	472288	keystroke_s	s	n/a
236.204	0.075	472408	keystroke_i	i	n/a
236.249	0.075	472498	keystroke_o	o	n/a
236.384	0.045	472768	keystroke_n	n	n/a
236.444	0.09	472888	keystroke_s	s	n/a
236.519	0.0755	473038	keystroke_Key.enter	Key.enter	n/a
236.5995	4.2115	473199	prompt	n/a	maintaining race magazine bench\n
237.179	0.06	474358	keystroke_m	m	n/a
237.269	0.105	474538	keystroke_a	a	n/a
237.464	0.06	474928	keystroke_i	i	n/a
237.614	0.045	475228	keystroke_n	n	n/a
238.0645	0.09	476129	keystroke_t	t	n/a
238.1395	0.105	476279	keystroke_a	a	n/a
238.2295	0.045	476459	keystroke_i	i	n/a
238.3795	0.045	476759	keystroke_n	n	n/a
238.4845	0.045	476969	keystroke_i	i	n/a
238.6045	0.06	477209	keystroke_n	n	n/a
238.6485	0.076	477297	keystroke_g	g	n/a
238.7385	0.12	477477	keystroke_Key.space	Key.space	n/a
238.8285	0.091	477657	keystroke_r	r	n/a
238.9045	0.09	477809	keystroke_a	a	n/a
239.054	0.105	478108	keystroke_c	c	n/a
239.114	0.0745	478228	keystroke_e	e	n/a
239.174	0.1045	478348	keystroke_Key.space	Key.space	n/a
239.2495	0.059	478499	keystroke_m	m	n/a
239.2945	0.089	478589	keystroke_a	a	n/a
239.3695	0.134	478739	keystroke_g	g	n/a
239.4585	0.076	478917	keystroke_a	a	n/a
239.6395	0.075	479279	keystroke_z	z	n/a
239.6985	0.031	479397	keystroke_i	i	n/a
239.8195	0.059	479639	keystroke_n	n	n/a
239.8935	0.075	479787	keystroke_e	e	n/a
239.9535	0.06	479907	keystroke_Key.space	Key.space	n/a
240.0435	0.075	480087	keystroke_b	b	n/a
240.1335	0.09	480267	keystroke_e	e	n/a
240.374	0.06	480748	keystroke_n	n	n/a
240.509	0.0905	481018	keystroke_c	c	n/a
240.6145	0.105	481229	keystroke_h	h	n/a
240.7045	0.105	481409	keystroke_Key.enter	Key.enter	n/a
240.8145	6.026	481629	prompt	n/a	finances railway quarterly debate\n
241.469	0.09	482938	keystroke_f	f	n/a
241.529	0.031	483058	keystroke_i	i	n/a
241.649	0.06	483298	keystroke_n	n	n/a
241.724	0.09	483448	keystroke_a	a	n/a
241.799	0.105	483598	keystroke_n	n	n/a
241.859	0.105	483718	keystroke_c	c	n/a
241.919	0.075	483838	keystroke_e	e	n/a
242.099	0.075	484198	keystroke_s	s	n/a
242.159	0.105	484318	keystroke_Key.space	Key.space	n/a
242.279	0.075	484558	keystroke_r	r	n/a
242.309	0.105	484618	keystroke_a	a	n/a
242.474	0.075	484948	keystroke_i	i	n/a
242.684	0.015	485368	keystroke_l	l	n/a
243.104	0.15	486208	keystroke_w	w	n/a
243.239	0.135	486478	keystroke_a	a	n/a
243.524	0.075	487048	keystroke_y	y	n/a
243.944	0.09	487888	keystroke_Key.space	Key.space	n/a
244.8745	0.0745	489749	keystroke_q	q	n/a
245.024	0.09	490048	keystroke_u	u	n/a
245.144	0.1205	490288	keystroke_a	a	n/a
245.2195	0.074	490439	keystroke_r	r	n/a
245.3995	0.059	490799	keystroke_t	t	n/a
245.549	0.075	491098	keystroke_e	e	n/a
245.624	0.06	491248	keystroke_r	r	n/a
245.699	0.06	491398	keystroke_l	l	n/a
245.924	0.075	491848	keystroke_y	y	n/a
245.984	0.0905	491968	keystroke_Key.space	Key.space	n/a
246.2695	0.06	492539	keystroke_d	d	n/a
246.4345	0.045	492869	keystroke_e	e	n/a
246.4645	0.075	492929	keystroke_b	b	n/a
246.5545	0.0745	493109	keystroke_a	a	n/a
246.614	0.09	493228	keystroke_t	t	n/a
246.689	0.09	493378	keystroke_e	e	n/a
246.764	0.075	493528	keystroke_Key.enter	Key.enter	n/a
246.8435	4.722	493687	prompt	n/a	eggs teaches violence inbox\n
247.454	0.045	494908	keystroke_e	e	n/a
247.589	0.045	495178	keystroke_g	g	n/a
247.754	0.075	495508	keystroke_g	g	n/a
247.9495	0.105	495899	keystroke_s	s	n/a
248.0995	0.09	496199	keystroke_Key.space	Key.space	n/a
248.1745	0.075	496349	keystroke_t	t	n/a
248.2945	0.09	496589	keystroke_e	e	n/a
248.3995	0.12	496799	keystroke_a	a	n/a
248.4895	0.105	496979	keystroke_c	c	n/a
248.6095	0.075	497219	keystroke_h	h	n/a
248.6395	0.06	497279	keystroke_e	e	n/a
248.8195	0.06	497639	keystroke_s	s	n/a
248.8945	0.09	497789	keystroke_Key.space	Key.space	n/a
249.089	0.12	498178	keystroke_i	i	n/a
249.164	0.046	498328	keystroke_o	o	n/a
249.569	0.06	499138	keystroke_Key.backspace	Key.backspace	n/a
249.7045	0.0595	499409	keystroke_Key.backspace	Key.backspace	n/a
249.869	0.075	499738	keystroke_v	v	n/a
249.959	0.105	499918	keystroke_i	i	n/a
250.049	0.06	500098	keystroke_o	o	n/a
250.184	0.06	500368	keystroke_l	l	n/a
250.274	0.06	500548	keystroke_e	e	n/a
250.364	0.075	500728	keystroke_n	n	n/a
250.454	0.09	500908	keystroke_c	c	n/a
250.499	0.105	500998	keystroke_e	e	n/a
250.619	0.0445	501238	keystroke_Key.space	Key.space	n/a
250.649	0.0595	501298	keystroke_i	i	n/a
250.7695	0.075	501539	keystroke_n	n	n/a
250.9345	0.045	501869	keystroke_b	b	n/a
251.0835	0.06	502167	keystroke_o	o	n/a
251.2345	0.105	502469	keystroke_x	x	n/a
251.4895	0.074	502979	keystroke_Key.enter	Key.enter	n/a
251.569	4.752	503138	prompt	n/a	cheaper transportation nearby resolutions\n
252.284	0.075	504568	keystroke_c	c	n/a
252.389	0.075	504778	keystroke_h	h	n/a
252.479	0.12	504958	keystroke_e	e	n/a
252.584	0.075	505168	keystroke_a	a	n/a
252.644	0.06	505288	keystroke_p	p	n/a
252.705	0.104	505410	keystroke_e	e	n/a
252.764	0.06	505528	keystroke_r	r	n/a
252.884	0.105	505768	keystroke_Key.space	Key.space	n/a
253.004	0.045	506008	keystroke_t	t	n/a
253.154	0.045	506308	keystroke_r	r	n/a
253.169	0.075	506338	keystroke_a	a	n/a
253.229	0.06	506458	keystroke_n	n	n/a
253.334	0.09	506668	keystroke_s	s	n/a
253.409	0.09	506818	keystroke_p	p	n/a
253.439	0.09	506878	keystroke_o	o	n/a
253.514	0.06	507028	keystroke_r	r	n/a
253.664	0.075	507328	keystroke_t	t	n/a
253.74	0.089	507480	keystroke_a	a	n/a
253.83	0.089	507660	keystroke_t	t	n/a
253.889	0.075	507778	keystroke_i	i	n/a
253.949	0.075	507898	keystroke_o	o	n/a
254.084	0.075	508168	keystroke_n	n	n/a
254.144	0.1205	508288	keystroke_Key.space	Key.space	n/a
254.234	0.0905	508468	keystroke_n	n	n/a
254.3095	0.09	508619	keystroke_e	e	n/a
254.3695	0.105	508739	keystroke_a	a	n/a
254.4595	0.105	508919	keystroke_r	r	n/a
254.5495	0.045	509099	keystroke_b	b	n/a
254.7445	0.105	509489	keystroke_y	y	n/a
254.8045	0.09	509609	keystroke_Key.space	Key.space	n/a
254.9995	0.105	509999	keystroke_r	r	n/a
255.0595	0.09	510119	keystroke_e	e	n/a
255.2545	0.09	510509	keystroke_s	s	n/a
255.3295	0.075	510659	keystroke_o	o	n/a
255.4945	0.075	510989	keystroke_l	l	n/a
255.6745	0.075	511349	keystroke_u	u	n/a
255.7795	0.075	511559	keystroke_t	t	n/a
255.8995	0.075	511799	keystroke_i	i	n/a
255.9445	0.075	511889	keystroke_o	o	n/a
256.0645	0.0745	512129	keystroke_n	n	n/a
256.14	0.074	512280	keystroke_s	s	n/a
256.244	0.075	512488	keystroke_Key.enter	Key.enter	n/a
256.3235	4.287	512647	prompt	n/a	wiley straight contained jelsoft\n
256.994	0.0755	513988	keystroke_w	w	n/a
257.0845	0.045	514169	keystroke_i	i	n/a
257.2495	0.06	514499	keystroke_l	l	n/a
257.3545	0.06	514709	keystroke_e	e	n/a
257.4445	0.089	514889	keystroke_y	y	n/a
257.5045	0.075	515009	keystroke_Key.space	Key.space	n/a
257.5645	0.03	515129	keystroke_s	s	n/a
257.6995	0.045	515399	keystroke_t	t	n/a
257.8495	0.06	515699	keystroke_r	r	n/a
257.8945	0.09	515789	keystroke_a	a	n/a
257.9995	0.0895	515999	keystroke_i	i	n/a
258.134	0.03	516268	keystroke_g	g	n/a
258.179	0.06	516358	keystroke_h	h	n/a
258.254	0.045	516508	keystroke_t	t	n/a
258.329	0.105	516658	keystroke_Key.space	Key.space	n/a
258.464	0.045	516928	keystroke_c	c	n/a
258.51	0.044	517020	keystroke_o	o	n/a
258.629	0.09	517258	keystroke_n	n	n/a
258.689	0.12	517378	keystroke_t	t	n/a
258.749	0.105	517498	keystroke_a	a	n/a
258.839	0.045	517678	keystroke_i	i	n/a
258.944	0.075	517888	keystroke_n	n	n/a
258.959	0.0755	517918	keystroke_e	e	n/a
259.1545	0.03	518309	keystroke_d	d	n/a
259.2595	0.015	518519	keystroke_Key.space	Key.space	n/a
259.4235	0.091	518847	keystroke_j	j	n/a
259.8595	0.045	519719	keystroke_e	e	n/a
259.9345	0.075	519869	keystroke_l	l	n/a
260.0845	0.075	520169	keystroke_s	s	n/a
260.1745	0.09	520349	keystroke_o	o	n/a
260.2345	0.06	520469	keystroke_f	f	n/a
260.4145	0.075	520829	keystroke_t	t	n/a
260.5185	0.091	521037	keystroke_Key.enter	Key.enter	n/a
260.6135	3.6575	521227	prompt	n/a	scan behavior blues getting\n
261.314	0.045	522628	keystroke_s	s	n/a
261.479	0.075	522958	keystroke_c	c	n/a
261.524	0.12	523048	keystroke_a	a	n/a
261.599	0.075	523198	keystroke_n	n	n/a
261.659	0.0445	523318	keystroke_Key.space	Key.space	n/a
261.7635	0.105	523527	keystroke_b	b	n/a
261.8535	0.06	523707	keystroke_e	e	n/a
261.9745	0.06	523949	keystroke_h	h	n/a
262.0495	0.09	524099	keystroke_a	a	n/a
262.1995	0.105	524399	keystroke_v	v	n/a
262.3345	0.105	524669	keystroke_i	i	n/a
262.4095	0.105	524819	keystroke_o	o	n/a
262.4995	0.09	524999	keystroke_r	r	n/a
262.6045	0.045	525209	keystroke_Key.space	Key.space	n/a
262.7245	0.06	525449	keystroke_b	b	n/a
262.9045	0.045	525809	keystroke_l	l	n/a
263.0545	0.075	526109	keystroke_u	u	n/a
263.0845	0.06	526169	keystroke_e	e	n/a
263.2345	0.075	526469	keystroke_s	s	n/a
263.3245	0.09	526649	keystroke_Key.space	Key.space	n/a
263.3995	0.06	526799	keystroke_g	g	n/a
263.5495	0.06	527099	keystroke_e	e	n/a
263.6245	0.105	527249	keystroke_t	t	n/a
263.8195	0.075	527639	keystroke_t	t	n/a
263.8645	0.06	527729	keystroke_i	i	n/a
263.9995	0.09	527999	keystroke_n	n	n/a
264.0745	0.075	528149	keystroke_g	g	n/a
264.1795	0.09	528359	keystroke_Key.enter	Key.enter	n/a
264.277	4.7035	528554	prompt	n/a	factory milton hopes overnight\n
264.929	0.075	529858	keystroke_f	f	n/a
264.974	0.105	529948	keystroke_a	a	n/a
265.289	0.075	530578	keystroke_t	t	n/a
265.7695	0.06	531539	keystroke_Key.backspace	Key.backspace	n/a
265.8595	0.075	531719	keystroke_c	c	n/a
266.0695	0.06	532139	keystroke_t	t	n/a
266.1445	0.045	532289	keystroke_o	o	n/a
266.2195	0.075	532439	keystroke_r	r	n/a
266.3095	0.09	532619	keystroke_y	y	n/a
266.3845	0.045	532769	keystroke_Key.space	Key.space	n/a
266.5335	0.061	533067	keystroke_m	m	n/a
266.729	0.045	533458	keystroke_i	i	n/a
266.879	0.0755	533758	keystroke_l	l	n/a
266.9845	0.045	533969	keystroke_t	t	n/a
267.059	0.06	534118	keystroke_o	o	n/a
267.2245	0.075	534449	keystroke_n	n	n/a
267.2545	0.105	534509	keystroke_Key.space	Key.space	n/a
267.4345	0.06	534869	keystroke_h	h	n/a
267.6595	0.09	535319	keystroke_o	o	n/a
267.7045	0.09	535409	keystroke_p	p	n/a
267.7645	0.03	535529	keystroke_e	e	n/a
267.9145	0.089	535829	keystroke_s	s	n/a
268.0195	0.075	536039	keystroke_Key.space	Key.space	n/a
268.0495	0.105	536099	keystroke_o	o	n/a
268.1095	0.075	536219	keystroke_v	v	n/a
268.3045	0.06	536609	keystroke_e	e	n/a
268.3495	0.075	536699	keystroke_r	r	n/a
268.4245	0.06	536849	keystroke_n	n	n/a
268.5745	0.12	537149	keystroke_i	i	n/a
268.6495	0.105	537299	keystroke_g	g	n/a
268.7095	0.09	537419	keystroke_h	h	n/a
268.8135	0.076	537627	keystroke_t	t	n/a
268.9035	0.076	537807	keystroke_Key.enter	Key.enter	n/a
268.9835	3.6575	537967	prompt	n/a	inspections certain bags whom\n
269.624	0.045	539248	keystroke_i	i	n/a
269.7595	0.06	539519	keystroke_n	n	n/a
269.804	0.06	539608	keystroke_s	s	n/a
269.939	0.075	539878	keystroke_p	p	n/a
269.9845	0.045	539969	keystroke_e	e	n/a
270.104	0.06	540208	keystroke_c	c	n/a
270.284	0.0905	540568	keystroke_t	t	n/a
270.359	0.045	540718	keystroke_i	i	n/a
270.389	0.0755	540778	keystroke_o	o	n/a
270.524	0.0605	541048	keystroke_n	n	n/a
270.5995	0.06	541199	keystroke_s	s	n/a
270.6745	0.105	541349	keystroke_Key.space	Key.space	n/a
270.7495	0.045	541499	keystroke_c	c	n/a
270.8995	0.09	541799	keystroke_e	e	n/a
270.9595	0.089	541919	keystroke_r	r	n/a
271.1395	0.06	542279	keystroke_t	t	n/a
271.1845	0.12	542369	keystroke_a	a	n/a
271.2595	0.06	542519	keystroke_i	i	n/a
271.4095	0.0895	542819	keystroke_n	n	n/a
271.469	0.06	542938	keystroke_Key.space	Key.space	n/a
271.604	0.0905	543208	keystroke_b	b	n/a
271.7095	0.075	543419	keystroke_a	a	n/a
271.7995	0.075	543599	keystroke_g	g	n/a
271.9495	0.09	543899	keystroke_s	s	n/a
272.0545	0.06	544109	keystroke_Key.space	Key.space	n/a
272.1295	0.09	544259	keystroke_w	w	n/a
272.2045	0.06	544409	keystroke_h	h	n/a
272.2495	0.09	544499	keystroke_o	o	n/a
272.4295	0.075	544859	keystroke_m	m	n/a
272.579	0.06	545158	keystroke_Key.enter	Key.enter	n/a
272.6435	4.662	545287	prompt	n/a	referral welsh descriptions innovation\n
273.2395	0.09	546479	keystroke_r	r	n/a
273.2995	0.09	546599	keystroke_e	e	n/a
273.4345	0.075	546869	keystroke_f	f	n/a
273.5845	0.06	547169	keystroke_e	e	n/a
273.6445	0.0595	547289	keystroke_r	r	n/a
273.779	0.09	547558	keystroke_r	r	n/a
273.839	0.105	547678	keystroke_a	a	n/a
273.914	0.12	547828	keystroke_l	l	n/a
273.974	0.12	547948	keystroke_Key.space	Key.space	n/a
274.109	0.09	548218	keystroke_w	w	n/a
274.154	0.105	548308	keystroke_e	e	n/a
274.274	0.09	548548	keystroke_l	l	n/a
274.349	0.09	548698	keystroke_s	s	n/a
274.5735	0.09	549147	keystroke_h	h	n/a
274.6185	0.105	549237	keystroke_Key.space	Key.space	n/a
274.8895	0.029	549779	keystroke_d	d	n/a
275.039	0.045	550078	keystroke_e	e	n/a
275.204	0.105	550408	keystroke_s	s	n/a
275.249	0.105	550498	keystroke_c	c	n/a
275.459	0.075	550918	keystroke_r	r	n/a
275.519	0.075	551038	keystroke_i	i	n/a
275.579	0.105	551158	keystroke_p	p	n/a
275.699	0.09	551398	keystroke_t	t	n/a
275.774	0.09	551548	keystroke_i	i	n/a
275.849	0.045	551698	keystroke_o	o	n/a
275.969	0.06	551938	keystroke_n	n	n/a
276.044	0.075	552088	keystroke_s	s	n/a
276.104	0.09	552208	keystroke_Key.space	Key.space	n/a
276.164	0.06	552328	keystroke_i	i	n/a
276.314	0.03	552628	keystroke_n	n	n/a
276.419	0.06	552838	keystroke_n	n	n/a
276.554	0.09	553108	keystroke_o	o	n/a
276.629	0.105	553258	keystroke_v	v	n/a
276.704	0.09	553408	keystroke_a	a	n/a
276.854	0.0905	553708	keystroke_t	t	n/a
276.9135	0.09	553827	keystroke_i	i	n/a
276.9745	0.075	553949	keystroke_o	o	n/a
277.1095	0.0595	554219	keystroke_n	n	n/a
277.2445	0.06	554489	keystroke_Key.enter	Key.enter	n/a
277.3105	3.7455	554621	prompt	n/a	inserted used death mime\n
277.934	0.075	555868	keystroke_i	i	n/a
278.069	0.09	556138	keystroke_n	n	n/a
278.129	0.075	556258	keystroke_s	s	n/a
278.7295	0.075	557459	keystroke_e	e	n/a
278.7595	0.09	557519	keystroke_r	r	n/a
278.9695	0.045	557939	keystroke_t	t	n/a
279.059	0.09	558118	keystroke_e	e	n/a
279.239	0.075	558478	keystroke_d	d	n/a
279.329	0.075	558658	keystroke_Key.space	Key.space	n/a
279.404	0.075	558808	keystroke_u	u	n/a
279.449	0.075	558898	keystroke_s	s	n/a
279.584	0.015	559168	keystroke_e	e	n/a
279.704	0.045	559408	keystroke_d	d	n/a
279.779	0.075	559558	keystroke_Key.space	Key.space	n/a
279.839	0.06	559678	keystroke_d	d	n/a
280.019	0.075	560038	keystroke_e	e	n/a
280.079	0.075	560158	keystroke_a	a	n/a
280.199	0.09	560398	keystroke_t	t	n/a
280.229	0.075	560458	keystroke_h	h	n/a
280.304	0.045	560608	keystroke_Key.space	Key.space	n/a
280.454	0.045	560908	keystroke_m	m	n/a
280.604	0.03	561208	keystroke_i	i	n/a
280.7395	0.089	561479	keystroke_m	m	n/a
280.7995	0.089	561599	keystroke_e	e	n/a
280.9485	0.106	561897	keystroke_Key.enter	Key.enter	n/a
281.06	5.756	562120	prompt	n/a	spectacular jonathan lyric closes\n
281.6845	0.06	563369	keystroke_s	s	n/a
281.7745	0.12	563549	keystroke_p	p	n/a
281.8345	0.075	563669	keystroke_e	e	n/a
282.029	0.045	564058	keystroke_c	c	n/a
282.7195	0.09	565439	keystroke_t	t	n/a
282.8545	0.105	565709	keystroke_a	a	n/a
283.0345	0.09	566069	keystroke_c	c	n/a
283.1095	0.06	566219	keystroke_u	u	n/a
283.2745	0.105	566549	keystroke_l	l	n/a
283.394	0.06	566788	keystroke_a	a	n/a
283.409	0.09	566818	keystroke_r	r	n/a
283.619	0.06	567238	keystroke_Key.space	Key.space	n/a
284.129	0.045	568258	keystroke_j	j	n/a
284.264	0.0605	568528	keystroke_o	o	n/a
284.4145	0.059	568829	keystroke_n	n	n/a
284.5045	0.06	569009	keystroke_a	a	n/a
284.5945	0.104	569189	keystroke_t	t	n/a
285.104	0.075	570208	keystroke_h	h	n/a
285.224	0.09	570448	keystroke_a	a	n/a
285.299	0.075	570598	keystroke_n	n	n/a
285.359	0.075	570718	keystroke_Key.space	Key.space	n/a
285.479	0.075	570958	keystroke_l	l	n/a
285.689	0.076	571378	keystroke_y	y	n/a
285.81	0.059	571620	keystroke_r	r	n/a
285.884	0.06	571768	keystroke_i	i	n/a
286.0035	0.0605	572007	keystroke_c	c	n/a
286.079	0.075	572158	keystroke_Key.space	Key.space	n/a
286.184	0.075	572368	keystroke_c	c	n/a
286.26	0.044	572520	keystroke_l	l	n/a
286.38	0.074	572760	keystroke_o	o	n/a
286.424	0.045	572848	keystroke_s	s	n/a
286.544	0.046	573088	keystroke_e	e	n/a
286.679	0.076	573358	keystroke_s	s	n/a
286.739	0.075	573478	keystroke_Key.enter	Key.enter	n/a
286.819	3.4015	573638	prompt	n/a	oasis writings soccer newly\n
287.4595	0.1045	574919	keystroke_o	o	n/a
287.549	0.075	575098	keystroke_a	a	n/a
287.714	0.06	575428	keystroke_s	s	n/a
287.789	0.06	575578	keystroke_i	i	n/a
287.85	0.134	575700	keystroke_s	s	n/a
287.939	0.12	575878	keystroke_Key.space	Key.space	n/a
288.074	0.165	576148	keystroke_w	w	n/a
288.194	0.09	576388	keystroke_r	r	n/a
288.269	0.075	576538	keystroke_i	i	n/a
288.359	0.12	576718	keystroke_t	t	n/a
288.419	0.045	576838	keystroke_i	i	n/a
288.539	0.09	577078	keystroke_n	n	n/a
288.599	0.075	577198	keystroke_g	g	n/a
288.764	0.045	577528	keystroke_s	s	n/a
288.794	0.1355	577588	keystroke_Key.space	Key.space	n/a
288.9145	0.075	577829	keystroke_s	s	n/a
289.0045	0.06	578009	keystroke_o	o	n/a
289.1095	0.015	578219	keystroke_c	c	n/a
289.1695	0.075	578339	keystroke_c	c	n/a
289.3345	0.09	578669	keystroke_e	e	n/a
289.4395	0.06	578879	keystroke_r	r	n/a
289.4845	0.045	578969	keystroke_Key.space	Key.space	n/a
289.5445	0.15	579089	keystroke_n	n	n/a
289.7245	0.075	579449	keystroke_e	e	n/a
289.7395	0.12	579479	keystroke_w	w	n/a
289.8595	0.06	579719	keystroke_l	l	n/a
290.0245	0.059	580049	keystroke_y	y	n/a
290.1285	0.0905	580257	keystroke_Key.enter	Key.enter	n/a
290.2235	4.5725	580447	prompt	n/a	mask cardiff boston subsidiary\n
290.834	0.0595	581668	keystroke_m	m	n/a
290.8945	0.119	581789	keystroke_a	a	n/a
290.939	0.0905	581878	keystroke_r	r	n/a
291.5395	0.0745	583079	keystroke_Key.backspace	Key.backspace	n/a
291.749	0.09	583498	keystroke_s	s	n/a
291.809	0.09	583618	keystroke_k	k	n/a
291.869	0.105	583738	keystroke_Key.space	Key.space	n/a
292.019	0.09	584038	keystroke_c	c	n/a
292.124	0.075	584248	keystroke_a	a	n/a
292.214	0.075	584428	keystroke_r	r	n/a
292.394	0.06	584788	keystroke_d	d	n/a
292.514	0.06	585028	keystroke_i	i	n/a
292.604	0.075	585208	keystroke_f	f	n/a
292.739	0.09	585478	keystroke_f	f	n/a
292.814	0.06	585628	keystroke_Key.space	Key.space	n/a
292.9345	0.075	585869	keystroke_b	b	n/a
293.084	0.12	586168	keystroke_o	o	n/a
293.159	0.075	586318	keystroke_s	s	n/a
293.309	0.09	586618	keystroke_t	t	n/a
293.354	0.03	586708	keystroke_o	o	n/a
293.474	0.12	586948	keystroke_n	n	n/a
293.549	0.075	587098	keystroke_Key.space	Key.space	n/a
293.625	0.104	587250	keystroke_s	s	n/a
293.744	0.06	587488	keystroke_u	u	n/a
293.909	0.045	587818	keystroke_b	b	n/a
294.059	0.075	588118	keystroke_s	s	n/a
294.135	0.104	588270	keystroke_i	i	n/a
294.269	0.09	588538	keystroke_d	d	n/a
294.344	0.09	588688	keystroke_i	i	n/a
294.494	0.09	588988	keystroke_a	a	n/a
294.554	0.09	589108	keystroke_r	r	n/a
294.614	0.06	589228	keystroke_y	y	n/a
294.704	0.09	589408	keystroke_Key.enter	Key.enter	n/a
294.7985	4.4075	589597	prompt	n/a	damage colleges auto respected\n
295.4695	0.075	590939	keystroke_d	d	n/a
295.6195	0.0745	591239	keystroke_a	a	n/a
295.709	0.06	591418	keystroke_m	m	n/a
295.784	0.075	591568	keystroke_a	a	n/a
295.874	0.105	591748	keystroke_g	g	n/a
295.949	0.105	591898	keystroke_e	e	n/a
296.069	0.076	592138	keystroke_Key.space	Key.space	n/a
296.204	0.075	592408	keystroke_c	c	n/a
296.294	0.06	592588	keystroke_o	o	n/a
296.474	0.03	592948	keystroke_l	l	n/a
296.55	0.0745	593100	keystroke_l	l	n/a
296.6395	0.075	593279	keystroke_e	e	n/a
296.7595	0.0895	593519	keystroke_g	g	n/a
296.804	0.105	593608	keystroke_e	e	n/a
297.029	0.075	594058	keystroke_s	s	n/a
297.149	0.075	594298	keystroke_Key.space	Key.space	n/a
297.434	0.075	594868	keystroke_a	a	n/a
297.494	0.075	594988	keystroke_u	u	n/a
297.614	0.075	595228	keystroke_t	t	n/a
297.674	0.105	595348	keystroke_o	o	n/a
297.734	0.105	595468	keystroke_Key.space	Key.space	n/a
297.914	0.135	595828	keystroke_r	r	n/a
298.019	0.06	596038	keystroke_e	e	n/a
298.199	0.06	596398	keystroke_s	s	n/a
298.29	0.104	596580	keystroke_p	p	n/a
298.364	0.06	596728	keystroke_e	e	n/a
298.5145	0.06	597029	keystroke_c	c	n/a
298.6945	0.09	597389	keystroke_t	t	n/a
298.7995	0.075	597599	keystroke_e	e	n/a
298.9645	0.075	597929	keystroke_d	d	n/a
299.114	0.09	598228	keystroke_Key.enter	Key.enter	n/a
299.21	3.6255	598420	prompt	n/a	andale donation volumes minds\n
299.8195	0.074	599639	keystroke_a	a	n/a
299.9245	0.06	599849	keystroke_n	n	n/a
300.0445	0.03	600089	keystroke_d	d	n/a
300.1335	0.12	600267	keystroke_a	a	n/a
300.2695	0.045	600539	keystroke_l	l	n/a
300.3295	0.09	600659	keystroke_e	e	n/a
300.4345	0.0895	600869	keystroke_Key.space	Key.space	n/a
300.5845	0.09	601169	keystroke_d	d	n/a
300.6445	0.045	601289	keystroke_o	o	n/a
300.7495	0.075	601499	keystroke_n	n	n/a
300.8095	0.075	601619	keystroke_a	a	n/a
300.8695	0.09	601739	keystroke_t	t	n/a
300.9895	0.09	601979	keystroke_i	i	n/a
301.0345	0.0745	602069	keystroke_o	o	n/a
301.169	0.105	602338	keystroke_n	n	n/a
301.259	0.105	602518	keystroke_Key.space	Key.space	n/a
301.349	0.045	602698	keystroke_v	v	n/a
301.424	0.06	602848	keystroke_o	o	n/a
301.559	0.075	603118	keystroke_l	l	n/a
301.7395	0.06	603479	keystroke_u	u	n/a
301.9195	0.074	603839	keystroke_m	m	n/a
301.9795	0.045	603959	keystroke_e	e	n/a
302.1285	0.1055	604257	keystroke_s	s	n/a
302.189	0.105	604378	keystroke_Key.space	Key.space	n/a
302.279	0.075	604558	keystroke_m	m	n/a
302.429	0.0455	604858	keystroke_i	i	n/a
302.5495	0.09	605099	keystroke_n	n	n/a
302.6095	0.105	605219	keystroke_d	d	n/a
302.6695	0.12	605339	keystroke_s	s	n/a
302.7595	0.075	605519	keystroke_Key.enter	Key.enter	n/a
302.839	4.6465	605678	prompt	n/a	amanda burke sublime adapter\n
302.9395	0.015	605879	keystroke_r	r	n/a
303.659	0.06	607318	keystroke_Key.backspace	Key.backspace	n/a
303.854	0.0905	607708	keystroke_a	a	n/a
303.959	0.09	607918	keystroke_m	m	n/a
304.064	0.105	608128	keystroke_a	a	n/a
304.214	0.075	608428	keystroke_n	n	n/a
304.289	0.105	608578	keystroke_d	d	n/a
304.364	0.135	608728	keystroke_a	a	n/a
304.469	0.075	608938	keystroke_Key.space	Key.space	n/a
304.604	0.06	609208	keystroke_b	b	n/a
304.814	0.045	609628	keystroke_u	u	n/a
305.2045	0.06	610409	keystroke_r	r	n/a
305.2795	0.045	610559	keystroke_k	k	n/a
305.3695	0.075	610739	keystroke_e	e	n/a
305.5045	0.0595	611009	keystroke_Key.space	Key.space	n/a
305.624	0.105	611248	keystroke_s	s	n/a
305.714	0.06	611428	keystroke_u	u	n/a
305.849	0.06	611698	keystroke_b	b	n/a
306.014	0.06	612028	keystroke_l	l	n/a
306.164	0.045	612328	keystroke_i	i	n/a
306.299	0.045	612598	keystroke_m	m	n/a
306.374	0.045	612748	keystroke_e	e	n/a
306.449	0.12	612898	keystroke_Key.space	Key.space	n/a
306.554	0.105	613108	keystroke_a	a	n/a
306.734	0.045	613468	keystroke_d	d	n/a
306.869	0.105	613738	keystroke_a	a	n/a
306.959	0.1055	613918	keystroke_p	p	n/a
307.0795	0.045	614159	keystroke_t	t	n/a
307.1845	0.09	614369	keystroke_e	e	n/a
307.2595	0.075	614519	keystroke_r	r	n/a
307.3795	0.105	614759	keystroke_Key.enter	Key.enter	n/a
307.493	10.118	614986	prompt	n/a	customers selecting representative observation\n
308.354	0.045	616708	keystroke_c	c	n/a
308.429	0.09	616858	keystroke_u	u	n/a
308.534	0.06	617068	keystroke_s	s	n/a
308.714	0.075	617428	keystroke_t	t	n/a
308.79	0.0445	617580	keystroke_o	o	n/a
309.014	0.0905	618028	keystroke_e	e	n/a
309.404	0.06	618808	keystroke_Key.backspace	Key.backspace	n/a
309.629	0.06	619258	keystroke_m	m	n/a
309.69	0.0895	619380	keystroke_e	e	n/a
309.7645	0.06	619529	keystroke_r	r	n/a
309.9295	0.075	619859	keystroke_s	s	n/a
309.9895	0.09	619979	keystroke_Key.space	Key.space	n/a
310.0945	0.075	620189	keystroke_s	s	n/a
310.2145	0.045	620429	keystroke_l	l	n/a
310.6645	0.075	621329	keystroke_Key.backspace	Key.backspace	n/a
310.8595	0.075	621719	keystroke_e	e	n/a
311.0095	0.015	622019	keystroke_l	l	n/a
311.0395	0.06	622079	keystroke_e	e	n/a
311.1745	0.06	622349	keystroke_c	c	n/a
311.3545	0.09	622709	keystroke_t	t	n/a
311.4145	0.045	622829	keystroke_i	i	n/a
311.5495	0.045	623099	keystroke_n	n	n/a
311.6095	0.06	623219	keystroke_g	g	n/a
311.7145	0.09	623429	keystroke_Key.space	Key.space	n/a
311.7895	0.12	623579	keystroke_r	r	n/a
311.8795	0.06	623759	keystroke_e	e	n/a
311.9545	0.075	623909	keystroke_p	p	n/a
312.0435	0.091	624087	keystroke_s	s	n/a
312.1935	0.076	624387	keystroke_e	e	n/a
312.3145	0.059	624629	keystroke_n	n	n/a
313.379	0.06	626758	keystroke_Key.backspace	Key.backspace	n/a
313.544	0.045	627088	keystroke_Key.backspace	Key.backspace	n/a
313.694	0.0445	627388	keystroke_Key.backspace	Key.backspace	n/a
313.829	0.1045	627658	keystroke_r	r	n/a
313.9045	0.06	627809	keystroke_e	e	n/a
314.0835	0.061	628167	keystroke_s	s	n/a
314.2335	0.061	628467	keystroke_e	e	n/a
314.2785	0.06	628557	keystroke_n	n	n/a
314.3835	0.105	628767	keystroke_t	t	n/a
314.5045	0.045	629009	keystroke_a	a	n/a
314.5785	0.06	629157	keystroke_t	t	n/a
314.6535	0.075	629307	keystroke_i	i	n/a
314.8035	0.091	629607	keystroke_v	v	n/a
314.8635	0.091	629727	keystroke_e	e	n/a
315.7035	0.09	631407	keystroke_Key.space	Key.space	n/a
315.8245	0.059	631649	keystroke_o	o	n/a
315.9735	0.046	631947	keystroke_b	b	n/a
316.0345	0.074	632069	keystroke_s	s	n/a
316.5585	0.091	633117	keystroke_e	e	n/a
316.6335	0.045	633267	keystroke_r	r	n/a
316.8285	0.0905	633657	keystroke_v	v	n/a
316.9935	0.091	633987	keystroke_a	a	n/a
317.129	0.09	634258	keystroke_t	t	n/a
317.2045	0.0745	634409	keystroke_i	i	n/a
317.234	0.09	634468	keystroke_o	o	n/a
317.384	0.075	634768	keystroke_n	n	n/a
317.519	0.09	635038	keystroke_Key.enter	Key.enter	n/a
317.614	5.2015	635228	prompt	n/a	tire supplemental ultram disaster\n
318.4945	0.075	636989	keystroke_t	t	n/a
318.5695	0.075	637139	keystroke_i	i	n/a
318.6895	0.075	637379	keystroke_r	r	n/a
318.7195	0.075	637439	keystroke_e	e	n/a
318.8095	0.09	637619	keystroke_Key.space	Key.space	n/a
318.9295	0.045	637859	keystroke_s	s	n/a
319.0495	0.075	638099	keystroke_u	u	n/a
319.2445	0.06	638489	keystroke_p	p	n/a
319.3645	0.06	638729	keystroke_p	p	n/a
319.514	0.045	639028	keystroke_l	l	n/a
319.619	0.075	639238	keystroke_e	e	n/a
319.739	0.045	639478	keystroke_m	m	n/a
319.814	0.075	639628	keystroke_e	e	n/a
319.919	0.0605	639838	keystroke_n	n	n/a
320.4295	0.06	640859	keystroke_t	t	n/a
320.4595	0.105	640919	keystroke_a	a	n/a
320.5345	0.105	641069	keystroke_l	l	n/a
320.6095	0.105	641219	keystroke_Key.space	Key.space	n/a
320.8195	0.03	641639	keystroke_u	u	n/a
320.9695	0.0895	641939	keystroke_l	l	n/a
321.044	0.09	642088	keystroke_t	t	n/a
321.269	0.06	642538	keystroke_r	r	n/a
321.314	0.06	642628	keystroke_a	a	n/a
321.344	0.06	642688	keystroke_m	m	n/a
321.389	0.105	642778	keystroke_Key.space	Key.space	n/a
321.524	0.06	643048	keystroke_d	d	n/a
321.629	0.075	643258	keystroke_i	i	n/a
321.8545	0.06	643709	keystroke_s	s	n/a
322.079	0.075	644158	keystroke_a	a	n/a
322.244	0.075	644488	keystroke_s	s	n/a
322.424	0.06	644848	keystroke_t	t	n/a
322.559	0.075	645118	keystroke_e	e	n/a
322.619	0.075	645238	keystroke_r	r	n/a
322.709	0.1055	645418	keystroke_Key.enter	Key.enter	n/a
322.821	6.715	645642	prompt	n/a	essentially transcripts projector practitioners\n
323.4595	0.27	646919	keystroke_e	e	n/a
323.7445	0.015	647489	keystroke_s	s	n/a
323.7745	0.0145	647549	keystroke_s	s	n/a
323.819	0.075	647638	keystroke_e	e	n/a
323.909	0.06	647818	keystroke_n	n	n/a
323.984	0.09	647968	keystroke_t	t	n/a
324.089	0.061	648178	keystroke_i	i	n/a
324.179	0.09	648358	keystroke_a	a	n/a
324.2845	0.045	648569	keystroke_l	l	n/a
324.3895	0.075	648779	keystroke_l	l	n/a
324.599	0.09	649198	keystroke_y	y	n/a
324.644	0.09	649288	keystroke_Key.space	Key.space	n/a
324.749	0.06	649498	keystroke_t	t	n/a
324.884	0.075	649768	keystroke_r	r	n/a
324.899	0.09	649798	keystroke_a	a	n/a
325.004	0.045	650008	keystroke_n	n	n/a
325.094	0.075	650188	keystroke_s	s	n/a
325.274	0.045	650548	keystroke_c	c	n/a
325.439	0.06	650878	keystroke_r	r	n/a
325.484	0.105	650968	keystroke_i	i	n/a
325.544	0.105	651088	keystroke_p	p	n/a
325.664	0.075	651328	keystroke_t	t	n/a
325.859	0.045	651718	keystroke_s	s	n/a
325.919	0.09	651838	keystroke_Key.space	Key.space	n/a
326.099	0.09	652198	keystroke_p	p	n/a
326.174	0.075	652348	keystroke_r	r	n/a
326.264	0.06	652528	keystroke_o	o	n/a
327.0745	0.075	654149	keystroke_j	j	n/a
327.1495	0.06	654299	keystroke_e	e	n/a
327.3295	0.03	654659	keystroke_c	c	n/a
327.4795	0.06	654959	keystroke_t	t	n/a
327.5695	0.06	655139	keystroke_o	o	n/a
327.6595	0.075	655319	keystroke_r	r	n/a
327.7495	0.06	655499	keystroke_Key.space	Key.space	n/a
327.8845	0.09	655769	keystroke_p	p	n/a
328.0045	0.075	656009	keystroke_r	r	n/a
328.0645	0.105	656129	keystroke_a	a	n/a
328.2745	0.06	656549	keystroke_c	c	n/a
328.559	0.045	657118	keystroke_t	t	n/a
328.679	0.075	657358	keystroke_i	i	n/a
328.784	0.09	657568	keystroke_t	t	n/a
328.859	0.12	657718	keystroke_i	i	n/a
328.934	0.075	657868	keystroke_o	o	n/a
329.099	0.075	658198	keystroke_n	n	n/a
329.159	0.105	658318	keystroke_e	e	n/a
329.249	0.03	658498	keystroke_r	r	n/a
329.384	0.075	658768	keystroke_s	s	n/a
329.489	0.045	658978	keystroke_Key.enter	Key.enter	n/a
329.539	4.4365	659078	prompt	n/a	mechanism specialists steal drink\n
330.164	0.045	660328	keystroke_m	m	n/a
330.194	0.06	660388	keystroke_e	e	n/a
330.374	0.09	660748	keystroke_c	c	n/a
330.48	0.029	660960	keystroke_h	h	n/a
330.525	0.1195	661050	keystroke_a	a	n/a
330.6595	0.03	661319	keystroke_n	n	n/a
330.8395	0.0595	661679	keystroke_i	i	n/a
330.974	0.105	661948	keystroke_s	s	n/a
331.064	0.105	662128	keystroke_m	m	n/a
331.124	0.105	662248	keystroke_Key.space	Key.space	n/a
331.409	0.075	662818	keystroke_s	s	n/a
331.469	0.12	662938	keystroke_p	p	n/a
331.604	0.015	663208	keystroke_e	e	n/a
331.724	0.06	663448	keystroke_c	c	n/a
331.769	0.06	663538	keystroke_i	i	n/a
331.83	0.104	663660	keystroke_a	a	n/a
331.964	0.075	663928	keystroke_l	l	n/a
332.129	0.075	664258	keystroke_i	i	n/a
332.159	0.0755	664318	keystroke_s	s	n/a
332.3395	0.06	664679	keystroke_t	t	n/a
332.5195	0.06	665039	keystroke_s	s	n/a
332.5945	0.09	665189	keystroke_Key.space	Key.space	n/a
332.7145	0.09	665429	keystroke_s	s	n/a
332.9095	0.09	665819	keystroke_t	t	n/a
332.9845	0.1055	665969	keystroke_e	e	n/a
333.059	0.105	666118	keystroke_a	a	n/a
333.149	0.105	666298	keystroke_l	l	n/a
333.194	0.12	666388	keystroke_Key.space	Key.space	n/a
333.299	0.06	666598	keystroke_d	d	n/a
333.464	0.075	666928	keystroke_r	r	n/a
333.494	0.06	666988	keystroke_i	i	n/a
333.659	0.09	667318	keystroke_n	n	n/a
333.704	0.105	667408	keystroke_k	k	n/a
333.8695	0.105	667739	keystroke_Key.enter	Key.enter	n/a
333.979	4.497	667958	prompt	n/a	envelope equation accurately equity\n
334.5295	0.0745	669059	keystroke_e	e	n/a
334.664	0.075	669328	keystroke_n	n	n/a
334.784	0.075	669568	keystroke_v	v	n/a
334.829	0.105	669658	keystroke_e	e	n/a
334.9195	0.0445	669839	keystroke_l	l	n/a
335.084	0.09	670168	keystroke_o	o	n/a
335.099	0.12	670198	keystroke_p	p	n/a
335.234	0.045	670468	keystroke_e	e	n/a
335.294	0.12	670588	keystroke_Key.space	Key.space	n/a
335.369	0.06	670738	keystroke_e	e	n/a
335.534	0.061	671068	keystroke_q	q	n/a
335.609	0.06	671218	keystroke_u	u	n/a
335.714	0.091	671428	keystroke_a	a	n/a
335.8645	0.0595	671729	keystroke_t	t	n/a
335.939	0.061	671878	keystroke_i	i	n/a
335.984	0.06	671968	keystroke_o	o	n/a
336.134	0.09	672268	keystroke_n	n	n/a
336.194	0.1205	672388	keystroke_Key.space	Key.space	n/a
336.2995	0.06	672599	keystroke_a	a	n/a
336.4645	0.03	672929	keystroke_c	c	n/a
336.569	0.09	673138	keystroke_c	c	n/a
336.674	0.075	673348	keystroke_u	u	n/a
336.764	0.15	673528	keystroke_r	r	n/a
336.869	0.105	673738	keystroke_a	a	n/a
336.989	0.09	673978	keystroke_t	t	n/a
337.094	0.075	674188	keystroke_e	e	n/a
337.154	0.045	674308	keystroke_l	l	n/a
337.319	0.09	674638	keystroke_y	y	n/a
337.379	0.09	674758	keystroke_Key.space	Key.space	n/a
337.484	0.06	674968	keystroke_e	e	n/a
337.649	0.06	675298	keystroke_q	q	n/a
337.724	0.105	675448	keystroke_u	u	n/a
337.814	0.09	675628	keystroke_i	i	n/a
338.189	0.06	676378	keystroke_t	t	n/a
338.264	0.075	676528	keystroke_y	y	n/a
338.369	0.105	676738	keystroke_Key.enter	Key.enter	n/a
338.479	4.587	676958	prompt	n/a	clone national published blessed\n
339.134	0.075	678268	keystroke_c	c	n/a
339.179	0.06	678358	keystroke_l	l	n/a
339.314	0.03	678628	keystroke_o	o	n/a
339.434	0.06	678868	keystroke_n	n	n/a
339.479	0.075	678958	keystroke_e	e	n/a
339.539	0.105	679078	keystroke_Key.space	Key.space	n/a
339.584	0.09	679168	keystroke_n	n	n/a
339.734	0.0905	679468	keystroke_t	t	n/a
340.139	0.075	680278	keystroke_Key.backspace	Key.backspace	n/a
340.289	0.0755	680578	keystroke_a	a	n/a
340.334	0.09	680668	keystroke_t	t	n/a
340.409	0.105	680818	keystroke_i	i	n/a
340.469	0.09	680938	keystroke_o	o	n/a
340.604	0.061	681208	keystroke_n	n	n/a
340.68	0.12	681360	keystroke_a	a	n/a
340.785	0.074	681570	keystroke_l	l	n/a
340.829	0.121	681658	keystroke_Key.space	Key.space	n/a
340.98	0.105	681960	keystroke_p	p	n/a
341.039	0.106	682078	keystroke_u	u	n/a
341.265	0.0295	682530	keystroke_b	b	n/a
341.4295	0.06	682859	keystroke_l	l	n/a
341.5645	0.105	683129	keystroke_i	i	n/a
341.6545	0.075	683309	keystroke_s	s	n/a
341.7445	0.09	683489	keystroke_h	h	n/a
341.8045	0.06	683609	keystroke_e	e	n/a
341.9845	0.0755	683969	keystroke_d	d	n/a
342.015	0.059	684030	keystroke_Key.space	Key.space	n/a
342.149	0.061	684298	keystroke_b	b	n/a
342.285	0.119	684570	keystroke_l	l	n/a
342.36	0.03	684720	keystroke_e	e	n/a
342.51	0.045	685020	keystroke_s	s	n/a
342.63	0.06	685260	keystroke_s	s	n/a
342.7495	0.045	685499	keystroke_e	e	n/a
342.8995	0.075	685799	keystroke_d	d	n/a
342.9895	0.075	685979	keystroke_Key.enter	Key.enter	n/a
343.0695	5.2915	686139	prompt	n/a	amended cottages steve reserve\n
343.6645	0.06	687329	keystroke_a	a	n/a
343.7545	0.045	687509	keystroke_m	m	n/a
343.8595	0.06	687719	keystroke_e	e	n/a
344.0095	0.03	688019	keystroke_n	n	n/a
344.0545	0.045	688109	keystroke_d	d	n/a
