onset	duration	sample	value	key	prompt_text
1.7905	0.003	3581	keystroke_Key.cmd	Key.cmd	n/a
1.7915	0.001	3583	keystroke_s	s	n/a
5.1825	12.048	10365	prompt	n/a	the quick brown fox jumps over a lazy dog\n
6.999	0.001	13998	keystroke_t	t	n/a
7.027	0.0605	14054	keystroke_h	h	n/a
7.1915	0.0755	14383	keystroke_i	i	n/a
7.777	0.06	15554	keystroke_Key.backspace	Key.backspace	n/a
7.8215	0.1055	15643	keystroke_e	e	n/a
8.077	0.075	16154	keystroke_Key.space	Key.space	n/a
8.4525	0.09	16905	keystroke_q	q	n/a
8.572	0.075	17144	keystroke_u	u	n/a
8.827	0.0905	17654	keystroke_i	i	n/a
9.0525	0.06	18105	keystroke_c	c	n/a
9.172	0.09	18344	keystroke_k	k	n/a
9.4125	0.09	18825	keystroke_Key.space	Key.space	n/a
9.6375	0.06	19275	keystroke_b	b	n/a
9.8465	0.0755	19693	keystroke_r	r	n/a
9.983	0.089	19966	keystroke_o	o	n/a
10.1775	0.075	20355	keystroke_w	w	n/a
10.3125	0.0745	20625	keystroke_n	n	n/a
10.6275	0.0895	21255	keystroke_Key.space	Key.space	n/a
10.9425	0.075	21885	keystroke_f	f	n/a
11.077	0.09	22154	keystroke_o	o	n/a
11.2575	0.09	22515	keystroke_x	x	n/a
11.4215	0.105	22843	keystroke_Key.space	Key.space	n/a
11.663	0.0895	23326	keystroke_j	j	n/a
11.917	0.0755	23834	keystroke_u	u	n/a
12.3075	0.135	24615	keystroke_p	p	n/a
12.7715	0.0755	25543	keystroke_Key.backspace	Key.backspace	n/a
12.9835	0.074	25967	keystroke_m	m	n/a
13.1325	0.12	26265	keystroke_p	p	n/a
13.3875	0.105	26775	keystroke_s	s	n/a
13.6875	0.075	27375	keystroke_Key.space	Key.space	n/a
13.8825	0.09	27765	keystroke_o	o	n/a
14.017	0.0755	28034	keystroke_v	v	n/a
14.2125	0.075	28425	keystroke_e	e	n/a
14.2725	0.075	28545	keystroke_r	r	n/a
14.392	0.09	28784	keystroke_Key.space	Key.space	n/a
14.587	0.09	29174	keystroke_a	a	n/a
14.767	0.1205	29534	keystroke_Key.space	Key.space	n/a
15.0225	0.09	30045	keystroke_l	l	n/a
15.3225	0.09	30645	keystroke_a	a	n/a
15.6525	0.09	31305	keystroke_z	z	n/a
15.8475	0.06	31695	keystroke_y	y	n/a
16.1175	0.09	32235	keystroke_Key.space	Key.space	n/a
16.2375	0.075	32475	keystroke_d	d	n/a
16.522	0.0755	33044	keystroke_o	o	n/a
16.7175	0.0595	33435	keystroke_g	g	n/a
17.1375	0.09	34275	keystroke_Key.enter	Key.enter	n/a
17.236	12.8325	34472	prompt	n/a	maximize campaign descending builders\n
17.977	0.075	35954	keystroke_m	m	n/a
18.142	0.075	36284	keystroke_a	a	n/a
18.3675	0.09	36735	keystroke_x	x	n/a
18.592	0.1205	37184	keystroke_i	i	n/a
18.818	0.0895	37636	keystroke_m	m	n/a
19.3575	0.075	38715	keystroke_i	i	n/a
19.8525	0.12	39705	keystroke_z	z	n/a
20.1675	0.045	40335	keystroke_e	e	n/a
20.3025	0.09	40605	keystroke_Key.space	Key.space	n/a
20.573	0.03	41146	keystroke_c	c	n/a
20.692	0.0905	41384	keystroke_a	a	n/a
20.842	0.091	41684	keystroke_m	m	n/a
21.6225	0.12	43245	keystroke_p	p	n/a
21.877	0.075	43754	keystroke_a	a	n/a
22.0575	0.075	44115	keystroke_i	i	n/a
22.4775	0.0445	44955	keystroke_g	g	n/a
22.672	0.06	45344	keystroke_n	n	n/a
23.2715	0.0605	46543	keystroke_Key.space	Key.space	n/a
23.557	0.0755	47114	keystroke_d	d	n/a
23.737	0.06	47474	keystroke_e	e	n/a
23.9775	0.06	47955	keystroke_c	c	n/a
24.4425	0.0595	48885	keystroke_Key.backspace	Key.backspace	n/a
24.518	0.0895	49036	keystroke_s	s	n/a
24.757	0.075	49514	keystroke_c	c	n/a
25.0275	0.06	50055	keystroke_e	e	n/a
25.2075	0.075	50415	keystroke_n	n	n/a
25.7475	0.059	51495	keystroke_d	d	n/a
25.9125	0.089	51825	keystroke_i	i	n/a
26.077	0.0905	52154	keystroke_n	n	n/a
26.198	0.075	52396	keystroke_g	g	n/a
26.3625	0.104	52725	keystroke_Key.space	Key.space	n/a
26.7225	0.075	53445	keystroke_b	b	n/a
26.858	0.0745	53716	keystroke_u	u	n/a
27.0225	0.105	54045	keystroke_i	i	n/a
27.1575	0.15	54315	keystroke_l	l	n/a
27.4125	0.06	54825	keystroke_d	d	n/a
27.6075	0.0595	55215	keystroke_e	e	n/a
27.728	0.0745	55456	keystroke_r	r	n/a
27.9975	0.0895	55995	keystroke_s	s	n/a
30.007	0.06	60014	keystroke_Key.enter	Key.enter	n/a
30.0725	8.982	60145	prompt	n/a	outcomes blue granted playstation\n
30.9225	0.06	61845	keystroke_o	o	n/a
31.1025	0.06	62205	keystroke_u	u	n/a
31.2975	0.06	62595	keystroke_t	t	n/a
31.9125	0.059	63825	keystroke_c	c	n/a
32.0025	0.105	64005	keystroke_o	o	n/a
32.1975	0.075	64395	keystroke_m	m	n/a
32.317	0.075	64634	keystroke_e	e	n/a
32.5275	0.075	65055	keystroke_s	s	n/a
32.6315	0.136	65263	keystroke_Key.space	Key.space	n/a
32.888	0.0595	65776	keystroke_b	b	n/a
32.9775	0.105	65955	keystroke_l	l	n/a
33.2325	0.06	66465	keystroke_u	u	n/a
33.3675	0.075	66735	keystroke_e	e	n/a
33.562	0.075	67124	keystroke_Key.space	Key.space	n/a
33.892	0.0755	67784	keystroke_g	g	n/a
34.0875	0.1055	68175	keystroke_r	r	n/a
34.252	0.105	68504	keystroke_a	a	n/a
34.3875	0.09	68775	keystroke_n	n	n/a
34.8525	0.0605	69705	keystroke_t	t	n/a
34.9875	0.0895	69975	keystroke_e	e	n/a
35.213	0.074	70426	keystroke_d	d	n/a
35.467	0.105	70934	keystroke_Key.space	Key.space	n/a
36.142	0.0755	72284	keystroke_p	p	n/a
36.367	0.105	72734	keystroke_l	l	n/a
36.5025	0.105	73005	keystroke_a	a	n/a
36.757	0.0605	73514	keystroke_y	y	n/a
37.088	0.1195	74176	keystroke_s	s	n/a
37.3425	0.075	74685	keystroke_t	t	n/a
37.4475	0.105	74895	keystroke_a	a	n/a
37.5975	0.09	75195	keystroke_t	t	n/a
37.7325	0.09	75465	keystroke_i	i	n/a
37.8075	0.165	75615	keystroke_o	o	n/a
37.987	0.075	75974	keystroke_n	n	n/a
38.9925	0.06	77985	keystroke_Key.enter	Key.enter	n/a
39.059	10.4085	78118	prompt	n/a	trademark click derby cathedral\n
40.5075	0.09	81015	keystroke_t	t	n/a
40.7325	0.075	81465	keystroke_r	r	n/a
40.9575	0.089	81915	keystroke_a	a	n/a
41.1975	0.0595	82395	keystroke_d	d	n/a
41.377	0.061	82754	keystroke_e	e	n/a
41.5875	0.075	83175	keystroke_m	m	n/a
41.737	0.0905	83474	keystroke_a	a	n/a
41.932	0.0755	83864	keystroke_r	r	n/a
42.172	0.075	84344	keystroke_k	k	n/a
42.4115	0.061	84823	keystroke_Key.space	Key.space	n/a
42.6525	0.075	85305	keystroke_c	c	n/a
42.7725	0.09	85545	keystroke_l	l	n/a
42.9675	0.0745	85935	keystroke_i	i	n/a
43.192	0.0605	86384	keystroke_c	c	n/a
43.312	0.075	86624	keystroke_k	k	n/a
43.5825	0.0745	87165	keystroke_Key.space	Key.space	n/a
43.8975	0.0595	87795	keystroke_d	d	n/a
44.0775	0.074	88155	keystroke_e	e	n/a
44.2415	0.075	88483	keystroke_r	r	n/a
44.5725	0.0445	89145	keystroke_b	b	n/a
44.738	0.045	89476	keystroke_y	y	n/a
44.9775	0.089	89955	keystroke_Key.space	Key.space	n/a
45.2775	0.075	90555	keystroke_c	c	n/a
45.4275	0.09	90855	keystroke_a	a	n/a
45.6525	0.075	91305	keystroke_t	t	n/a
45.907	0.06	91814	keystroke_h	h	n/a
46.133	0.06	92266	keystroke_e	e	n/a
46.5975	0.06	93195	keystroke_d	d	n/a
46.7775	0.09	93555	keystroke_r	r	n/a
47.003	0.0745	94006	keystroke_a	a	n/a
47.2125	0.075	94425	keystroke_l	l	n/a
49.464	0.001	98928	keystroke_Key.enter	Key.enter	n/a
49.4715	14.378	98943	prompt	n/a	backgrounds milwaukee fujitsu before\n
50.317	0.0605	100634	keystroke_b	b	n/a
50.4825	0.09	100965	keystroke_a	a	n/a
50.6925	0.06	101385	keystroke_c	c	n/a
50.8425	0.06	101685	keystroke_k	k	n/a
51.1125	0.06	102225	keystroke_g	g	n/a
51.3225	0.06	102645	keystroke_r	r	n/a
51.4275	0.075	102855	keystroke_o	o	n/a
51.5925	0.06	103185	keystroke_u	u	n/a
51.8475	0.075	103695	keystroke_n	n	n/a
52.1475	0.075	104295	keystroke_d	d	n/a
52.313	0.089	104626	keystroke_s	s	n/a
52.462	0.09	104924	keystroke_Key.space	Key.space	n/a
52.7775	0.0905	105555	keystroke_m	m	n/a
52.9875	0.105	105975	keystroke_i	i	n/a
53.1975	0.03	106395	keystroke_i	i	n/a
53.842	0.06	107684	keystroke_Key.backspace	Key.backspace	n/a
54.052	0.09	108104	keystroke_l	l	n/a
54.652	0.106	109304	keystroke_w	w	n/a
54.967	0.09	109934	keystroke_a	a	n/a
55.6125	0.075	111225	keystroke_u	u	n/a
56.2575	0.09	112515	keystroke_k	k	n/a
56.543	0.0595	113086	keystroke_e	e	n/a
56.692	0.0755	113384	keystroke_e	e	n/a
56.8415	0.121	113683	keystroke_Key.space	Key.space	n/a
57.4575	0.12	114915	keystroke_f	f	n/a
57.952	0.06	115904	keystroke_u	u	n/a
58.567	0.0755	117134	keystroke_j	j	n/a
58.7925	0.09	117585	keystroke_i	i	n/a
59.077	0.075	118154	keystroke_t	t	n/a
59.858	0.0895	119716	keystroke_s	s	n/a
59.9625	0.06	119925	keystroke_u	u	n/a
60.3225	0.1195	120645	keystroke_Key.space	Key.space	n/a
60.5915	0.0605	121183	keystroke_b	b	n/a
60.7865	0.061	121573	keystroke_e	e	n/a
61.0725	0.074	122145	keystroke_f	f	n/a
61.2525	0.06	122505	keystroke_o	o	n/a
61.3275	0.0895	122655	keystroke_r	r	n/a
61.403	0.0595	122806	keystroke_e	e	n/a
63.8335	0.014	127667	keystroke_Key.enter	Key.enter	n/a
63.854	14.456	127708	prompt	n/a	items unable relief regional\n
64.8675	0.075	129735	keystroke_i	i	n/a
65.1825	0.06	130365	keystroke_t	t	n/a
65.288	0.0745	130576	keystroke_e	e	n/a
65.4075	0.06	130815	keystroke_m	m	n/a
65.5725	0.09	131145	keystroke_s	s	n/a
65.6925	0.105	131385	keystroke_Key.space	Key.space	n/a
65.9625	0.06	131925	keystroke_u	u	n/a
66.1875	0.075	132375	keystroke_n	n	n/a
66.487	0.0905	132974	keystroke_a	a	n/a
66.6975	0.0595	133395	keystroke_b	b	n/a
66.847	0.0755	133694	keystroke_l	l	n/a
66.968	0.0745	133936	keystroke_e	e	n/a
67.1025	0.09	134205	keystroke_Key.space	Key.space	n/a
67.3575	0.0745	134715	keystroke_r	r	n/a
67.447	0.075	134894	keystroke_e	e	n/a
67.612	0.0755	135224	keystroke_l	l	n/a
67.8225	0.075	135645	keystroke_i	i	n/a
68.122	0.075	136244	keystroke_e	e	n/a
68.3625	0.0745	136725	keystroke_v	v	n/a
68.5275	0.06	137055	keystroke_e	e	n/a
68.677	0.09	137354	keystroke_Key.space	Key.space	n/a
69.8465	0.1065	139693	keystroke_r	r	n/a
69.968	0.0745	139936	keystroke_e	e	n/a
70.4475	0.075	140895	keystroke_g	g	n/a
70.7475	0.06	141495	keystroke_i	i	n/a
70.8525	0.1205	141705	keystroke_o	o	n/a
71.0475	0.09	142095	keystroke_n	n	n/a
71.2125	0.105	142425	keystroke_a	a	n/a
71.3475	0.075	142695	keystroke_l	l	n/a
73.689	0.1335	147378	keystroke_Key.left	Key.left	n/a
73.8975	0.1045	147795	keystroke_Key.left	Key.left	n/a
74.062	0.0895	148124	keystroke_Key.left	Key.left	n/a
74.2415	0.06	148483	keystroke_Key.left	Key.left	n/a
74.3925	0.0745	148785	keystroke_Key.left	Key.left	n/a
74.542	0.075	149084	keystroke_Key.left	Key.left	n/a
74.692	0.09	149384	keystroke_Key.left	Key.left	n/a
74.872	0.09	149744	keystroke_Key.left	Key.left	n/a
75.052	0.105	150104	keystroke_Key.left	Key.left	n/a
75.8025	0.045	151605	keystroke_Key.backspace	Key.backspace	n/a
76.0275	0.104	152055	keystroke_Key.backspace	Key.backspace	n/a
76.4325	0.075	152865	keystroke_f	f	n/a
78.232	0.0755	156464	keystroke_Key.enter	Key.enter	n/a
78.3155	9.3385	156631	prompt	n/a	like articles estimates heat\n
79.147	0.0905	158294	keystroke_l	l	n/a
79.3125	0.09	158625	keystroke_i	i	n/a
79.522	0.09	159044	keystroke_k	k	n/a
79.672	0.075	159344	keystroke_e	e	n/a
79.792	0.075	159584	keystroke_Key.space	Key.space	n/a
80.0925	0.0745	160185	keystroke_a	a	n/a
80.2265	0.09	160453	keystroke_r	r	n/a
80.4825	0.06	160965	keystroke_t	t	n/a
80.692	0.0155	161384	keystroke_i	i	n/a
80.887	0.075	161774	keystroke_c	c	n/a
81.142	0.075	162284	keystroke_l	l	n/a
81.3525	0.075	162705	keystroke_e	e	n/a
81.5775	0.075	163155	keystroke_s	s	n/a
81.7275	0.1045	163455	keystroke_Key.space	Key.space	n/a
82.1765	0.045	164353	keystroke_s	s	n/a
82.642	0.0605	165284	keystroke_Key.backspace	Key.backspace	n/a
82.7325	0.075	165465	keystroke_e	e	n/a
82.897	0.075	165794	keystroke_s	s	n/a
83.0475	0.0895	166095	keystroke_t	t	n/a
83.362	0.075	166724	keystroke_i	i	n/a
83.9625	0.0905	167925	keystroke_m	m	n/a
84.232	0.09	168464	keystroke_a	a	n/a
84.398	0.09	168796	keystroke_t	t	n/a
84.532	0.1065	169064	keystroke_e	e	n/a
84.892	0.075	169784	keystroke_s	s	n/a
85.162	0.075	170324	keystroke_Key.space	Key.space	n/a
85.567	0.06	171134	keystroke_h	h	n/a
85.702	0.06	171404	keystroke_e	e	n/a
85.837	0.09	171674	keystroke_a	a	n/a
86.062	0.06	172124	keystroke_t	t	n/a
87.5925	0.0595	175185	keystroke_Key.enter	Key.enter	n/a
87.659	9.354	175318	prompt	n/a	beds interest dressing lycos\n
88.402	0.06	176804	keystroke_b	b	n/a
88.5675	0.075	177135	keystroke_e	e	n/a
88.777	0.06	177554	keystroke_d	d	n/a
89.1815	0.0905	178363	keystroke_s	s	n/a
89.407	0.09	178814	keystroke_Key.space	Key.space	n/a
89.602	0.0755	179204	keystroke_i	i	n/a
89.7525	0.09	179505	keystroke_n	n	n/a
89.9325	0.06	179865	keystroke_t	t	n/a
90.0365	0.075	180073	keystroke_e	e	n/a
90.1425	0.0755	180285	keystroke_r	r	n/a
90.412	0.075	180824	keystroke_e	e	n/a
90.607	0.0455	181214	keystroke_s	s	n/a
90.7125	0.09	181425	keystroke_t	t	n/a
90.9065	0.09	181813	keystroke_Key.space	Key.space	n/a
91.1625	0.06	182325	keystroke_d	d	n/a
91.3425	0.075	182685	keystroke_r	r	n/a
91.7475	0.0595	183495	keystroke_e	e	n/a
92.002	0.0605	184004	keystroke_s	s	n/a
92.1675	0.0595	184335	keystroke_s	s	n/a
92.3025	0.059	184605	keystroke_i	i	n/a
92.4375	0.09	184875	keystroke_n	n	n/a
92.5875	0.0595	185175	keystroke_g	g	n/a
92.7075	0.09	185415	keystroke_Key.space	Key.space	n/a
92.932	0.09	185864	keystroke_l	l	n/a
93.217	0.0755	186434	keystroke_y	y	n/a
93.7125	0.06	187425	keystroke_c	c	n/a
93.8925	0.075	187785	keystroke_o	o	n/a
94.0725	0.075	188145	keystroke_s	s	n/a
97.01	0.001	194020	keystroke_Key.enter	Key.enter	n/a
97.018	8.726	194036	prompt	n/a	coding spokesman prince magnet\n
97.8365	0.075	195673	keystroke_c	c	n/a
97.9415	0.0605	195883	keystroke_o	o	n/a
98.1375	0.06	196275	keystroke_d	d	n/a
98.2875	0.074	196575	keystroke_i	i	n/a
98.4675	0.074	196935	keystroke_n	n	n/a
98.5575	0.074	197115	keystroke_g	g	n/a
98.7215	0.0905	197443	keystroke_Key.space	Key.space	n/a
98.8865	0.1055	197773	keystroke_s	s	n/a
99.0225	0.105	198045	keystroke_p	p	n/a
99.2615	0.061	198523	keystroke_o	o	n/a
99.5765	0.091	199153	keystroke_k	k	n/a
99.8165	0.061	199633	keystroke_e	e	n/a
100.6425	0.09	201285	keystroke_s	s	n/a
100.8815	0.106	201763	keystroke_m	m	n/a
101.0765	0.075	202153	keystroke_a	a	n/a
101.227	0.06	202454	keystroke_n	n	n/a
101.497	0.105	202994	keystroke_Key.space	Key.space	n/a
101.782	0.105	203564	keystroke_p	p	n/a
101.992	0.0755	203984	keystroke_r	r	n/a
102.0675	0.075	204135	keystroke_i	i	n/a
102.2615	0.076	204523	keystroke_n	n	n/a
102.4715	0.076	204943	keystroke_c	c	n/a
102.6825	0.045	205365	keystroke_e	e	n/a
102.7875	0.09	205575	keystroke_Key.space	Key.space	n/a
103.102	0.0755	206204	keystroke_m	m	n/a
103.282	0.076	206564	keystroke_a	a	n/a
103.4775	0.075	206955	keystroke_g	g	n/a
103.777	0.0755	207554	keystroke_n	n	n/a
104.0325	0.06	208065	keystroke_e	e	n/a
104.2575	0.0145	208515	keystroke_t	t	n/a
105.682	0.0595	211364	keystroke_Key.enter	Key.enter	n/a
105.7485	12.325	211497	prompt	n/a	prompt technician province blackberry\n
106.5225	0.0745	213045	keystroke_p	p	n/a
106.642	0.075	213284	keystroke_r	r	n/a
106.7925	0.105	213585	keystroke_o	o	n/a
106.9425	0.12	213885	keystroke_m	m	n/a
107.1525	0.0895	214305	keystroke_p	p	n/a
107.362	0.0755	214724	keystroke_t	t	n/a
107.587	0.045	215174	keystroke_Key.space	Key.space	n/a
108.082	0.0755	216164	keystroke_t	t	n/a
108.2175	0.09	216435	keystroke_e	e	n/a
108.4565	0.06	216913	keystroke_c	c	n/a
108.6525	0.074	217305	keystroke_h	h	n/a
109.1325	0.074	218265	keystroke_n	n	n/a
109.3875	0.0595	218775	keystroke_i	i	n/a
109.6115	0.0605	219223	keystroke_c	c	n/a
109.852	0.1055	219704	keystroke_i	i	n/a
110.122	0.075	220244	keystroke_a	a	n/a
110.242	0.075	220484	keystroke_n	n	n/a
110.5125	0.09	221025	keystroke_Key.space	Key.space	n/a
110.768	0.09	221536	keystroke_p	p	n/a
110.9025	0.09	221805	keystroke_r	r	n/a
111.0375	0.075	222075	keystroke_o	o	n/a
111.2775	0.0745	222555	keystroke_v	v	n/a
111.383	0.089	222766	keystroke_i	i	n/a
111.6225	0.075	223245	keystroke_n	n	n/a
112.2825	0.075	224565	keystroke_c	c	n/a
112.5375	0.06	225075	keystroke_e	e	n/a
112.717	0.105	225434	keystroke_Key.space	Key.space	n/a
113.347	0.0755	226694	keystroke_b	b	n/a
113.647	0.0905	227294	keystroke_l	l	n/a
113.8575	0.075	227715	keystroke_a	a	n/a
114.0675	0.06	228135	keystroke_c	c	n/a
114.1875	0.09	228375	keystroke_k	k	n/a
114.4875	0.06	228975	keystroke_g	g	n/a
114.5025	0.06	229005	keystroke_b	b	n/a
115.117	0.0445	230234	keystroke_Key.backspace	Key.backspace	n/a
115.297	0.0895	230594	keystroke_Key.backspace	Key.backspace	n/a
115.417	0.0755	230834	keystroke_b	b	n/a
115.5975	0.06	231195	keystroke_e	e	n/a
115.6725	0.075	231345	keystroke_r	r	n/a
116.3175	0.06	232635	keystroke_r	r	n/a
116.4815	0.0455	232963	keystroke_y	y	n/a
117.997	0.075	235994	keystroke_Key.enter	Key.enter	n/a
118.0775	11.5065	236155	prompt	n/a	attack fairfield linear passwords\n
119.107	0.09	238214	keystroke_a	a	n/a
119.3175	0.0595	238635	keystroke_t	t	n/a
119.5115	0.076	239023	keystroke_t	t	n/a
119.6925	0.074	239385	keystroke_a	a	n/a
119.8875	0.0745	239775	keystroke_c	c	n/a
120.037	0.075	240074	keystroke_k	k	n/a
120.292	0.075	240584	keystroke_Key.space	Key.space	n/a
120.623	0.0895	241246	keystroke_f	f	n/a
120.8175	0.1045	241635	keystroke_a	a	n/a
120.997	0.09	241994	keystroke_i	i	n/a
121.207	0.0755	242414	keystroke_r	r	n/a
121.5975	0.075	243195	keystroke_f	f	n/a
121.7175	0.075	243435	keystroke_i	i	n/a
121.927	0.061	243854	keystroke_e	e	n/a
122.092	0.06	244184	keystroke_l	l	n/a
122.167	0.0755	244334	keystroke_d	d	n/a
122.377	0.0895	244754	keystroke_Key.space	Key.space	n/a
122.5875	0.089	245175	keystroke_l	l	n/a
122.767	0.075	245534	keystroke_i	i	n/a
122.947	0.09	245894	keystroke_n	n	n/a
123.1575	0.075	246315	keystroke_a	a	n/a
123.7425	0.074	247485	keystroke_Key.backspace	Key.backspace	n/a
123.8625	0.06	247725	keystroke_e	e	n/a
123.9525	0.104	247905	keystroke_a	a	n/a
124.1475	0.075	248295	keystroke_r	r	n/a
124.3275	0.09	248655	keystroke_Key.space	Key.space	n/a
124.8975	0.105	249795	keystroke_p	p	n/a
125.092	0.0755	250184	keystroke_a	a	n/a
125.2875	0.0745	250575	keystroke_s	s	n/a
125.452	0.0905	250904	keystroke_s	s	n/a
125.7675	0.0745	251535	keystroke_w	w	n/a
125.9775	0.09	251955	keystroke_o	o	n/a
126.097	0.0905	252194	keystroke_r	r	n/a
126.427	0.0755	252854	keystroke_d	d	n/a
126.637	0.075	253274	keystroke_s	s	n/a
129.579	0.001	259158	keystroke_Key.enter	Key.enter	n/a
129.589	10.3845	259178	prompt	n/a	you'll particularly harmony exactly\n
130.4325	0.06	260865	keystroke_y	y	n/a
130.5825	0.105	261165	keystroke_o	o	n/a
130.7025	0.09	261405	keystroke_u	u	n/a
130.9125	0.105	261825	keystroke_'	'	n/a
131.3625	0.075	262725	keystroke_l	l	n/a
131.5575	0.0745	263115	keystroke_l	l	n/a
131.752	0.105	263504	keystroke_Key.space	Key.space	n/a
132.0225	0.105	264045	keystroke_p	p	n/a
132.2025	0.089	264405	keystroke_a	a	n/a
132.3375	0.0895	264675	keystroke_r	r	n/a
132.5615	0.076	265123	keystroke_t	t	n/a
132.697	0.0745	265394	keystroke_i	i	n/a
133.1925	0.075	266385	keystroke_c	c	n/a
133.3575	0.06	266715	keystroke_u	u	n/a
133.5975	0.09	267195	keystroke_l	l	n/a
133.8375	0.075	267675	keystroke_a	a	n/a
134.0475	0.0745	268095	keystroke_r	r	n/a
134.5265	0.106	269053	keystroke_l	l	n/a
134.8125	0.06	269625	keystroke_y	y	n/a
135.0215	0.106	270043	keystroke_Key.space	Key.space	n/a
135.2925	0.074	270585	keystroke_h	h	n/a
135.4575	0.075	270915	keystroke_a	a	n/a
135.6225	0.09	271245	keystroke_r	r	n/a
135.7575	0.0745	271515	keystroke_m	m	n/a
136.072	0.09	272144	keystroke_o	o	n/a
136.252	0.09	272504	keystroke_n	n	n/a
136.7475	0.059	273495	keystroke_y	y	n/a
137.032	0.075	274064	keystroke_Key.space	Key.space	n/a
137.3625	0.059	274725	keystroke_e	e	n/a
137.5715	0.075	275143	keystroke_x	x	n/a
137.8715	0.076	275743	keystroke_a	a	n/a
138.0965	0.075	276193	keystroke_c	c	n/a
138.322	0.076	276644	keystroke_t	t	n/a
138.517	0.06	277034	keystroke_l	l	n/a
138.727	0.045	277454	keystroke_y	y	n/a
139.912	0.06	279824	keystroke_Key.enter	Key.enter	n/a
139.9785	10.9005	279957	prompt	n/a	cigarette alot receive conducting\n
140.6925	0.075	281385	keystroke_c	c	n/a
140.8575	0.089	281715	keystroke_i	i	n/a
141.1575	0.09	282315	keystroke_g	g	n/a
141.4265	0.0905	282853	keystroke_a	a	n/a
141.623	0.074	283246	keystroke_r	r	n/a
141.952	0.0755	283904	keystroke_e	e	n/a
142.313	0.044	284626	keystroke_t	t	n/a
142.492	0.0755	284984	keystroke_t	t	n/a
142.643	0.0595	285286	keystroke_e	e	n/a
142.777	0.105	285554	keystroke_Key.space	Key.space	n/a
142.987	0.075	285974	keystroke_a	a	n/a
143.1365	0.106	286273	keystroke_l	l	n/a
143.3625	0.09	286725	keystroke_o	o	n/a
143.6165	0.0605	287233	keystroke_t	t	n/a
143.7965	0.0755	287593	keystroke_Key.space	Key.space	n/a
144.067	0.075	288134	keystroke_r	r	n/a
144.157	0.1045	288314	keystroke_e	e	n/a
144.442	0.0755	288884	keystroke_c	c	n/a
144.9675	0.105	289935	keystroke_i	i	n/a
145.747	0.075	291494	keystroke_Key.backspace	Key.backspace	n/a
145.8525	0.1045	291705	keystroke_e	e	n/a
146.062	0.075	292124	keystroke_i	i	n/a
146.212	0.075	292424	keystroke_v	v	n/a
146.407	0.06	292814	keystroke_e	e	n/a
146.737	0.075	293474	keystroke_Key.space	Key.space	n/a
147.5175	0.059	295035	keystroke_c	c	n/a
147.6215	0.09	295243	keystroke_o	o	n/a
147.8015	0.076	295603	keystroke_n	n	n/a
148.117	0.0745	296234	keystroke_d	d	n/a
148.2975	0.0595	296595	keystroke_u	u	n/a
148.4925	0.0895	296985	keystroke_c	c	n/a
148.7015	0.0755	297403	keystroke_t	t	n/a
148.8075	0.105	297615	keystroke_i	i	n/a
149.0165	0.0905	298033	keystroke_n	n	n/a
149.197	0.0755	298394	keystroke_g	g	n/a
150.8175	0.0595	301635	keystroke_Key.enter	Key.enter	n/a
150.8835	9.3415	301767	prompt	n/a	slowly conducting miniature cleaner\n
151.747	0.075	303494	keystroke_s	s	n/a
151.912	0.075	303824	keystroke_l	l	n/a
152.137	0.106	304274	keystroke_o	o	n/a
152.4225	0.0895	304845	keystroke_w	w	n/a
152.8875	0.12	305775	keystroke_l	l	n/a
153.1725	0.06	306345	keystroke_y	y	n/a
153.382	0.105	306764	keystroke_Key.space	Key.space	n/a
153.6825	0.06	307365	keystroke_c	c	n/a
153.7865	0.09	307573	keystroke_o	o	n/a
153.9515	0.09	307903	keystroke_n	n	n/a
154.1615	0.0755	308323	keystroke_d	d	n/a
154.3115	0.06	308623	keystroke_u	u	n/a
154.4925	0.074	308985	keystroke_c	c	n/a
154.7175	0.06	309435	keystroke_t	t	n/a
154.8375	0.12	309675	keystroke_i	i	n/a
155.047	0.09	310094	keystroke_n	n	n/a
155.2125	0.075	310425	keystroke_g	g	n/a
155.3465	0.09	310693	keystroke_Key.space	Key.space	n/a
155.5875	0.074	311175	keystroke_m	m	n/a
155.7975	0.0745	311595	keystroke_i	i	n/a
155.9465	0.1055	311893	keystroke_n	n	n/a
156.1725	0.074	312345	keystroke_i	i	n/a
156.5465	0.09	313093	keystroke_a	a	n/a
156.8025	0.089	313605	keystroke_t	t	n/a
157.027	0.0445	314054	keystroke_u	u	n/a
157.1175	0.0895	314235	keystroke_r	r	n/a
157.222	0.09	314444	keystroke_e	e	n/a
157.417	0.0905	314834	keystroke_Key.space	Key.space	n/a
157.717	0.06	315434	keystroke_c	c	n/a
157.8825	0.0745	315765	keystroke_l	l	n/a
158.0325	0.0745	316065	keystroke_e	e	n/a
158.1675	0.0895	316335	keystroke_a	a	n/a
158.5565	0.076	317113	keystroke_n	n	n/a
158.767	0.0605	317534	keystroke_e	e	n/a
158.8425	0.1045	317685	keystroke_r	r	n/a
160.192	0.03	320384	keystroke_Key.enter	Key.enter	n/a
160.2295	10.467	320459	prompt	n/a	letters bumper gratis hayes\n
160.9415	0.0755	321883	keystroke_l	l	n/a
161.0625	0.075	322125	keystroke_e	e	n/a
161.287	0.06	322574	keystroke_t	t	n/a
161.4675	0.0745	322935	keystroke_t	t	n/a
161.617	0.0445	323234	keystroke_e	e	n/a
161.6765	0.0755	323353	keystroke_r	r	n/a
161.9315	0.0605	323863	keystroke_s	s	n/a
162.0215	0.09	324043	keystroke_Key.space	Key.space	n/a
162.6815	0.075	325363	keystroke_b	b	n/a
162.8315	0.0615	325663	keystroke_u	u	n/a
163.072	0.075	326144	keystroke_m	m	n/a
163.702	0.12	327404	keystroke_p	p	n/a
163.912	0.06	327824	keystroke_e	e	n/a
163.987	0.09	327974	keystroke_r	r	n/a
164.227	0.075	328454	keystroke_Key.space	Key.space	n/a
164.497	0.0595	328994	keystroke_g	g	n/a
164.6925	0.0745	329385	keystroke_r	r	n/a
164.8275	0.0895	329655	keystroke_a	a	n/a
165.3225	0.0745	330645	keystroke_t	t	n/a
165.502	0.075	331004	keystroke_i	i	n/a
165.712	0.0905	331424	keystroke_s	s	n/a
165.9065	0.0755	331813	keystroke_Key.space	Key.space	n/a
166.192	0.06	332384	keystroke_h	h	n/a
166.2825	0.1045	332565	keystroke_a	a	n/a
166.582	0.06	333164	keystroke_y	y	n/a
166.807	0.075	333614	keystroke_s	s	n/a
167.5265	0.075	335053	keystroke_Key.backspace	Key.backspace	n/a
167.647	0.0745	335294	keystroke_e	e	n/a
167.842	0.0755	335684	keystroke_s	s	n/a
170.693	0.001	341386	keystroke_Key.enter	Key.enter	n/a
170.7005	6.683	341401	prompt	n/a	grant integer focus coating\n
171.5325	0.0595	343065	keystroke_g	g	n/a
171.7115	0.0905	343423	keystroke_r	r	n/a
171.8465	0.09	343693	keystroke_a	a	n/a
171.9215	0.0615	343843	keystroke_n	n	n/a
172.1315	0.075	344263	keystroke_t	t	n/a
172.282	0.0905	344564	keystroke_Key.space	Key.space	n/a
172.7765	0.045	345553	keystroke_i	i	n/a
172.9265	0.075	345853	keystroke_n	n	n/a
173.1515	0.0605	346303	keystroke_t	t	n/a
173.287	0.0895	346574	keystroke_e	e	n/a
173.6165	0.0755	347233	keystroke_g	g	n/a
173.977	0.075	347954	keystroke_e	e	n/a
174.067	0.09	348134	keystroke_r	r	n/a
174.292	0.12	348584	keystroke_Key.space	Key.space	n/a
174.577	0.0745	349154	keystroke_f	f	n/a
174.7415	0.06	349483	keystroke_o	o	n/a
174.9815	0.0605	349963	keystroke_c	c	n/a
175.1625	0.0745	350325	keystroke_u	u	n/a
175.342	0.09	350684	keystroke_s	s	n/a
175.522	0.09	351044	keystroke_Key.space	Key.space	n/a
175.8825	0.0595	351765	keystroke_c	c	n/a
176.032	0.075	352064	keystroke_o	o	n/a
176.212	0.09	352424	keystroke_a	a	n/a
176.4365	0.075	352873	keystroke_t	t	n/a
176.633	0.089	353266	keystroke_i	i	n/a
176.797	0.09	353594	keystroke_n	n	n/a
176.902	0.075	353804	keystroke_g	g	n/a
177.3225	0.059	354645	keystroke_Key.enter	Key.enter	n/a
177.389	7.8695	354778	prompt	n/a	linear contest cause instead\n
178.0565	0.045	356113	keystroke_i	i	n/a
178.492	0.0745	356984	keystroke_Key.backspace	Key.backspace	n/a
178.7165	0.0755	357433	keystroke_l	l	n/a
178.8965	0.0765	357793	keystroke_i	i	n/a
179.0765	0.0755	358153	keystroke_n	n	n/a
179.302	0.075	358604	keystroke_e	e	n/a
179.452	0.06	358904	keystroke_a	a	n/a
179.572	0.075	359144	keystroke_r	r	n/a
180.0665	0.12	360133	keystroke_Key.space	Key.space	n/a
180.3365	0.06	360673	keystroke_c	c	n/a
180.4265	0.091	360853	keystroke_o	o	n/a
180.6065	0.076	361213	keystroke_n	n	n/a
180.8015	0.075	361603	keystroke_t	t	n/a
180.9375	0.104	361875	keystroke_e	e	n/a
181.1765	0.076	362353	keystroke_s	s	n/a
181.3265	0.0765	362653	keystroke_t	t	n/a
181.4925	0.1045	362985	keystroke_Key.space	Key.space	n/a
182.107	0.045	364214	keystroke_c	c	n/a
182.227	0.12	364454	keystroke_a	a	n/a
182.467	0.075	364934	keystroke_u	u	n/a
182.7065	0.0905	365413	keystroke_s	s	n/a
182.8565	0.075	365713	keystroke_e	e	n/a
183.0815	0.09	366163	keystroke_Key.space	Key.space	n/a
183.322	0.0595	366644	keystroke_i	i	n/a
183.4865	0.091	366973	keystroke_n	n	n/a
183.6525	0.09	367305	keystroke_s	s	n/a
183.8325	0.105	367665	keystroke_t	t	n/a
184.0725	0.105	368145	keystroke_e	e	n/a
184.2675	0.09	368535	keystroke_a	a	n/a
184.507	0.075	369014	keystroke_d	d	n/a
185.1965	0.0605	370393	keystroke_Key.enter	Key.enter	n/a
185.2635	11.77	370527	prompt	n/a	factory subcommittee rings innovative\n
186.0225	0.075	372045	keystroke_f	f	n/a
186.1725	0.0895	372345	keystroke_a	a	n/a
186.3975	0.075	372795	keystroke_c	c	n/a
186.6075	0.075	373215	keystroke_t	t	n/a
186.7725	0.074	373545	keystroke_o	o	n/a
186.8625	0.09	373725	keystroke_r	r	n/a
187.0725	0.044	374145	keystroke_y	y	n/a
187.342	0.105	374684	keystroke_Key.space	Key.space	n/a
187.777	0.075	375554	keystroke_s	s	n/a
187.897	0.075	375794	keystroke_u	u	n/a
188.092	0.075	376184	keystroke_b	b	n/a
188.587	0.06	377174	keystroke_c	c	n/a
188.707	0.09	377414	keystroke_o	o	n/a
188.9025	0.0745	377805	keystroke_m	m	n/a
189.1125	0.09	378225	keystroke_m	m	n/a
189.3675	0.075	378735	keystroke_i	i	n/a
189.5465	0.09	379093	keystroke_t	t	n/a
189.952	0.06	379904	keystroke_t	t	n/a
190.4765	0.0755	380953	keystroke_e	e	n/a
190.7165	0.045	381433	keystroke_e	e	n/a
191.197	0.0895	382394	keystroke_Key.space	Key.space	n/a
191.437	0.0755	382874	keystroke_r	r	n/a
191.542	0.0895	383084	keystroke_i	i	n/a
191.902	0.075	383804	keystroke_n	n	n/a
192.172	0.075	384344	keystroke_g	g	n/a
192.3825	0.0735	384765	keystroke_s	s	n/a
192.5015	0.105	385003	keystroke_Key.space	Key.space	n/a
192.7415	0.09	385483	keystroke_i	i	n/a
192.922	0.0895	385844	keystroke_n	n	n/a
193.356	0.076	386712	keystroke_o	o	n/a
193.792	0.0595	387584	keystroke_Key.backspace	Key.backspace	n/a
194.0015	0.075	388003	keystroke_n	n	n/a
194.1665	0.09	388333	keystroke_o	o	n/a
194.392	0.06	388784	keystroke_v	v	n/a
194.542	0.091	389084	keystroke_a	a	n/a
194.7515	0.09	389503	keystroke_t	t	n/a
195.367	0.075	390734	keystroke_i	i	n/a
195.607	0.0595	391214	keystroke_v	v	n/a
195.7415	0.1055	391483	keystroke_e	e	n/a
196.957	0.075	393914	keystroke_Key.enter	Key.enter	n/a
197.04	8.4235	394080	prompt	n/a	activities wheel here coding\n
197.767	0.09	395534	keystroke_a	a	n/a
197.9765	0.0905	395953	keystroke_c	c	n/a
198.187	0.0595	396374	keystroke_t	t	n/a
198.3515	0.0605	396703	keystroke_i	i	n/a
198.547	0.0745	397094	keystroke_f	f	n/a
198.562	0.0445	397124	keystroke_v	v	n/a
198.682	0.0745	397364	keystroke_i	i	n/a
199.2365	0.06	398473	keystroke_Key.backspace	Key.backspace	n/a
199.4165	0.0755	398833	keystroke_Key.backspace	Key.backspace	n/a
199.6125	0.06	399225	keystroke_v	v	n/a
199.9115	0.045	399823	keystroke_Key.backspace	Key.backspace	n/a
200.092	0.0895	400184	keystroke_Key.backspace	Key.backspace	n/a
200.2265	0.091	400453	keystroke_v	v	n/a
200.3625	0.089	400725	keystroke_i	i	n/a
200.617	0.0595	401234	keystroke_t	t	n/a
200.752	0.0745	401504	keystroke_i	i	n/a
200.947	0.075	401894	keystroke_e	e	n/a
201.157	0.09	402314	keystroke_s	s	n/a
201.262	0.105	402524	keystroke_Key.space	Key.space	n/a
201.5325	0.0745	403065	keystroke_w	w	n/a
201.667	0.06	403334	keystroke_h	h	n/a
201.862	0.075	403724	keystroke_e	e	n/a
202.221	0.076	404442	keystroke_e	e	n/a
202.522	0.09	405044	keystroke_l	l	n/a
202.777	0.0895	405554	keystroke_Key.space	Key.space	n/a
203.017	0.0595	406034	keystroke_h	h	n/a
203.137	0.06	406274	keystroke_e	e	n/a
203.272	0.0595	406544	keystroke_r	r	n/a
203.3465	0.09	406693	keystroke_e	e	n/a
203.4665	0.1055	406933	keystroke_Key.space	Key.space	n/a
203.797	0.075	407594	keystroke_c	c	n/a
203.9775	0.074	407955	keystroke_o	o	n/a
204.367	0.06	408734	keystroke_d	d	n/a
204.547	0.075	409094	keystroke_i	i	n/a
204.697	0.0905	409394	keystroke_n	n	n/a
204.8175	0.0595	409635	keystroke_g	g	n/a
205.3865	0.075	410773	keystroke_Key.enter	Key.enter	n/a
205.468	12.161	410936	prompt	n/a	gambling labels royal acknowledged\n
206.212	0.075	412424	keystroke_g	g	n/a
206.377	0.09	412754	keystroke_a	a	n/a
206.482	0.0895	412964	keystroke_m	m	n/a
206.8415	0.075	413683	keystroke_b	b	n/a
207.022	0.0895	414044	keystroke_l	l	n/a
207.1875	0.0895	414375	keystroke_i	i	n/a
207.4865	0.0155	414973	keystroke_n	n	n/a
207.5465	0.061	415093	keystroke_g	g	n/a
207.7115	0.09	415423	keystroke_Key.space	Key.space	n/a
207.907	0.0905	415814	keystroke_l	l	n/a
208.0115	0.105	416023	keystroke_a	a	n/a
208.2065	0.0755	416413	keystroke_b	b	n/a
208.4915	0.075	416983	keystroke_l	l	n/a
208.6265	0.0905	417253	keystroke_e	e	n/a
209.032	0.06	418064	keystroke_Key.backspace	Key.backspace	n/a
209.2265	0.0755	418453	keystroke_Key.backspace	Key.backspace	n/a
209.3315	0.0905	418663	keystroke_e	e	n/a
209.4965	0.06	418993	keystroke_l	l	n/a
209.617	0.09	419234	keystroke_s	s	n/a
209.841	0.0755	419682	keystroke_Key.space	Key.space	n/a
210.3665	0.0755	420733	keystroke_r	r	n/a
210.532	0.075	421064	keystroke_o	o	n/a
211.0725	0.06	422145	keystroke_y	y	n/a
211.3875	0.089	422775	keystroke_a	a	n/a
211.5815	0.0905	423163	keystroke_l	l	n/a
211.851	0.09	423702	keystroke_Key.space	Key.space	n/a
212.092	0.1055	424184	keystroke_a	a	n/a
212.332	0.075	424664	keystroke_c	c	n/a
212.602	0.06	425204	keystroke_k	k	n/a
212.812	0.09	425624	keystroke_n	n	n/a
213.277	0.09	426554	keystroke_o	o	n/a
213.577	0.105	427154	keystroke_l	l	n/a
214.042	0.045	428084	keystroke_w	w	n/a
214.372	0.06	428744	keystroke_Key.backspace	Key.backspace	n/a
214.5665	0.105	429133	keystroke_Key.backspace	Key.backspace	n/a
214.6565	0.075	429313	keystroke_w	w	n/a
214.8665	0.0745	429733	keystroke_l	l	n/a
215.107	0.074	430214	keystroke_e	e	n/a
215.332	0.074	430664	keystroke_d	d	n/a
215.572	0.0745	431144	keystroke_g	g	n/a
215.6625	0.1185	431325	keystroke_e	e	n/a
215.961	0.09	431922	keystroke_d	d	n/a
217.5515	0.0755	435103	keystroke_Key.enter	Key.enter	n/a
217.6335	13.2265	435267	prompt	n/a	property convenient stomach essay\n
218.6165	0.09	437233	keystroke_p	p	n/a
218.812	0.0745	437624	keystroke_r	r	n/a
218.9015	0.0895	437803	keystroke_o	o	n/a
219.141	0.031	438282	keystroke_Key.left	Key.left	n/a
219.1565	0.105	438313	keystroke_p	p	n/a
219.352	0.0595	438704	keystroke_e	e	n/a
219.3965	0.0905	438793	keystroke_r	r	n/a
219.997	0.045	439994	keystroke_Key.backspace	Key.backspace	n/a
220.177	0.06	440354	keystroke_Key.backspace	Key.backspace	n/a
220.3565	0.075	440713	keystroke_Key.backspace	Key.backspace	n/a
221.2865	0.09	442573	keystroke_Key.right	Key.right	n/a
221.872	0.0745	443744	keystroke_p	p	n/a
222.337	0.0445	444674	keystroke_r	r	n/a
222.922	0.0745	445844	keystroke_Key.backspace	Key.backspace	n/a
223.042	0.06	446084	keystroke_e	e	n/a
223.147	0.105	446294	keystroke_r	r	n/a
223.597	0.06	447194	keystroke_t	t	n/a
223.792	0.045	447584	keystroke_y	y	n/a
224.092	0.09	448184	keystroke_Key.space	Key.space	n/a
224.3475	0.0605	448695	keystroke_c	c	n/a
224.467	0.09	448934	keystroke_o	o	n/a
224.647	0.09	449294	keystroke_n	n	n/a
224.872	0.06	449744	keystroke_v	v	n/a
225.037	0.076	450074	keystroke_e	e	n/a
225.172	0.06	450344	keystroke_n	n	n/a
225.442	0.074	450884	keystroke_i	i	n/a
225.652	0.06	451304	keystroke_e	e	n/a
225.816	0.061	451632	keystroke_n	n	n/a
225.907	0.075	451814	keystroke_t	t	n/a
226.192	0.074	452384	keystroke_Key.space	Key.space	n/a
226.5075	0.089	453015	keystroke_s	s	n/a
226.6415	0.09	453283	keystroke_o	o	n/a
227.1225	0.059	454245	keystroke_Key.backspace	Key.backspace	n/a
227.302	0.075	454604	keystroke_t	t	n/a
227.4215	0.09	454843	keystroke_o	o	n/a
227.6165	0.0905	455233	keystroke_m	m	n/a
227.797	0.09	455594	keystroke_a	a	n/a
228.0965	0.076	456193	keystroke_c	c	n/a
228.247	0.0595	456494	keystroke_h	h	n/a
228.4865	0.09	456973	keystroke_Key.space	Key.space	n/a
228.787	0.0755	457574	keystroke_e	e	n/a
229.057	0.0595	458114	keystroke_s	s	n/a
229.222	0.0895	458444	keystroke_s	s	n/a
229.507	0.0895	459014	keystroke_a	a	n/a
229.762	0.0445	459524	keystroke_y	y	n/a
230.797	0.06	461594	keystroke_Key.enter	Key.enter	n/a
230.8645	14.8745	461729	prompt	n/a	unlimited heritage morocco worn\n
231.6815	0.045	463363	keystroke_u	u	n/a
231.892	0.075	463784	keystroke_n	n	n/a
232.192	0.09	464384	keystroke_l	l	n/a
232.387	0.0895	464774	keystroke_i	i	n/a
232.551	0.091	465102	keystroke_m	m	n/a
232.837	0.1345	465674	keystroke_i	i	n/a
233.2265	0.075	466453	keystroke_t	t	n/a
233.3775	0.0895	466755	keystroke_e	e	n/a
233.542	0.09	467084	keystroke_d	d	n/a
233.752	0.105	467504	keystroke_Key.space	Key.space	n/a
234.112	0.0605	468224	keystroke_h	h	n/a
234.232	0.074	468464	keystroke_e	e	n/a
234.352	0.075	468704	keystroke_r	r	n/a
234.817	0.075	469634	keystroke_i	i	n/a
235.041	0.076	470082	keystroke_t	t	n/a
235.221	0.0905	470442	keystroke_a	a	n/a
236.001	0.075	472002	keystroke_g	g	n/a
236.512	0.075	473024	keystroke_e	e	n/a
236.6915	0.1055	473383	keystroke_Key.space	Key.space	n/a
237.3365	0.075	474673	keystroke_m	m	n/a
237.5465	0.075	475093	keystroke_o	o	n/a
237.832	0.0745	475664	keystroke_r	r	n/a
239.0625	0.014	478125	keystroke_o	o	n/a
239.5865	0.06	479173	keystroke_c	c	n/a
239.7515	0.076	479503	keystroke_c	c	n/a
239.8715	0.0755	479743	keystroke_o	o	n/a
240.2015	0.075	480403	keystroke_Key.space	Key.space	n/a
240.7415	0.0755	481483	keystroke_w	w	n/a
240.922	0.075	481844	keystroke_o	o	n/a
241.042	0.074	482084	keystroke_r	r	n/a
241.222	0.06	482444	keystroke_l	l	n/a
241.837	0.074	483674	keystroke_Key.backspace	Key.backspace	n/a
242.092	0.075	484184	keystroke_n	n	n/a
245.7235	0.013	491447	keystroke_Key.enter	Key.enter	n/a
245.7435	10.5695	491487	prompt	n/a	ballet airline potato major\n
246.787	0.075	493574	keystroke_b	b	n/a
246.937	0.105	493874	keystroke_a	a	n/a
247.147	0.044	494294	keystroke_l	l	n/a
247.3115	0.075	494623	keystroke_l	l	n/a
247.402	0.0595	494804	keystroke_e	e	n/a
247.582	0.0595	495164	keystroke_t	t	n/a
247.7315	0.075	495463	keystroke_Key.space	Key.space	n/a
248.871	0.091	497742	keystroke_a	a	n/a
249.0065	0.075	498013	keystroke_i	i	n/a
249.187	0.075	498374	keystroke_r	r	n/a
249.442	0.09	498884	keystroke_l	l	n/a
249.637	0.075	499274	keystroke_i	i	n/a
249.817	0.089	499634	keystroke_n	n	n/a
249.967	0.075	499934	keystroke_e	e	n/a
250.176	0.0755	500352	keystroke_Key.space	Key.space	n/a
250.717	0.105	501434	keystroke_p	p	n/a
250.912	0.12	501824	keystroke_o	o	n/a
251.392	0.09	502784	keystroke_t	t	n/a
251.572	0.09	503144	keystroke_a	a	n/a
251.901	0.076	503802	keystroke_t	t	n/a
252.052	0.074	504104	keystroke_o	o	n/a
252.7565	0.09	505513	keystroke_Key.space	Key.space	n/a
253.177	0.105	506354	keystroke_m	m	n/a
253.372	0.09	506744	keystroke_a	a	n/a
253.9715	0.0905	507943	keystroke_j	j	n/a
254.242	0.09	508484	keystroke_o	o	n/a
254.932	0.06	509864	keystroke_r	r	n/a
256.237	0.0745	512474	keystroke_Key.enter	Key.enter	n/a
256.318	7.4805	512636	prompt	n/a	films minister enclosed lecture\n
257.152	0.075	514304	keystroke_f	f	n/a
257.2565	0.0605	514513	keystroke_i	i	n/a
257.437	0.0745	514874	keystroke_l	l	n/a
257.6615	0.075	515323	keystroke_m	m	n/a
257.902	0.09	515804	keystroke_s	s	n/a
258.081	0.091	516162	keystroke_Key.space	Key.space	n/a
258.307	0.0745	516614	keystroke_m	m	n/a
258.517	0.075	517034	keystroke_i	i	n/a
258.667	0.1045	517334	keystroke_n	n	n/a
258.8925	0.0595	517785	keystroke_i	i	n/a
259.0415	0.0905	518083	keystroke_s	s	n/a
259.2365	0.06	518473	keystroke_t	t	n/a
259.537	0.105	519074	keystroke_e	e	n/a
259.687	0.0895	519374	keystroke_r	r	n/a
259.8965	0.0755	519793	keystroke_Key.space	Key.space	n/a
260.4365	0.06	520873	keystroke_e	e	n/a
260.5865	0.075	521173	keystroke_n	n	n/a
260.902	0.06	521804	keystroke_c	c	n/a
261.097	0.0895	522194	keystroke_l	l	n/a
261.3065	0.091	522613	keystroke_o	o	n/a
261.4715	0.075	522943	keystroke_s	s	n/a
261.6815	0.06	523363	keystroke_e	e	n/a
261.8765	0.06	523753	keystroke_d	d	n/a
261.9965	0.12	523993	keystroke_Key.space	Key.space	n/a
262.177	0.105	524354	keystroke_l	l	n/a
262.3565	0.0605	524713	keystroke_e	e	n/a
262.656	0.0605	525312	keystroke_c	c	n/a
262.882	0.06	525764	keystroke_t	t	n/a
263.062	0.06	526124	keystroke_u	u	n/a
263.197	0.09	526394	keystroke_r	r	n/a
263.302	0.075	526604	keystroke_e	e	n/a
263.7365	0.0605	527473	keystroke_Key.enter	Key.enter	n/a
263.8035	13.12	527607	prompt	n/a	stockings unit significantly collaboration\n
264.6675	0.074	529335	keystroke_s	s	n/a
264.8315	0.06	529663	keystroke_t	t	n/a
264.997	0.0895	529994	keystroke_o	o	n/a
265.222	0.06	530444	keystroke_c	c	n/a
265.326	0.0765	530652	keystroke_k	k	n/a
265.612	0.075	531224	keystroke_i	i	n/a
265.792	0.075	531584	keystroke_n	n	n/a
265.911	0.075	531822	keystroke_g	g	n/a
266.137	0.075	532274	keystroke_s	s	n/a
266.3015	0.1055	532603	keystroke_Key.space	Key.space	n/a
266.5415	0.0605	533083	keystroke_u	u	n/a
266.7665	0.076	533533	keystroke_n	n	n/a
266.9775	0.074	533955	keystroke_i	i	n/a
267.2015	0.076	534403	keystroke_t	t	n/a
267.3515	0.105	534703	keystroke_Key.space	Key.space	n/a
267.6665	0.1055	535333	keystroke_s	s	n/a
267.8165	0.0905	535633	keystroke_i	i	n/a
268.012	0.06	536024	keystroke_n	n	n/a
268.252	0.06	536504	keystroke_g	g	n/a
268.6115	0.045	537223	keystroke_Key.backspace	Key.backspace	n/a
268.7915	0.0605	537583	keystroke_Key.backspace	Key.backspace	n/a
268.927	0.075	537854	keystroke_g	g	n/a
269.032	0.075	538064	keystroke_n	n	n/a
269.2725	0.0895	538545	keystroke_i	i	n/a
269.5715	0.091	539143	keystroke_f	f	n/a
269.7065	0.075	539413	keystroke_i	i	n/a
269.947	0.0745	539894	keystroke_c	c	n/a
270.127	0.06	540254	keystroke_a	a	n/a
270.532	0.074	541064	keystroke_n	n	n/a
270.772	0.06	541544	keystroke_t	t	n/a
271.102	0.09	542204	keystroke_l	l	n/a
271.387	0.045	542774	keystroke_y	y	n/a
271.6415	0.09	543283	keystroke_Key.space	Key.space	n/a
271.8965	0.061	543793	keystroke_c	c	n/a
272.017	0.09	544034	keystroke_o	o	n/a
272.4225	0.104	544845	keystroke_l	l	n/a
272.7215	0.0895	545443	keystroke_l	l	n/a
272.887	0.075	545774	keystroke_a	a	n/a
273.112	0.09	546224	keystroke_b	b	n/a
273.397	0.0895	546794	keystroke_o	o	n/a
273.6225	0.074	547245	keystroke_r	r	n/a
273.8165	0.0905	547633	keystroke_a	a	n/a
273.9815	0.075	547963	keystroke_t	t	n/a
274.1315	0.075	548263	keystroke_i	i	n/a
274.1915	0.15	548383	keystroke_o	o	n/a
274.3725	0.089	548745	keystroke_n	n	n/a
276.909	0.012	553818	keystroke_Key.enter	Key.enter	n/a
276.928	9.657	553856	prompt	n/a	offline duplicate census preceding\n
277.896	0.06	555792	keystroke_o	o	n/a
278.1515	0.0595	556303	keystroke_f	f	n/a
278.331	0.075	556662	keystroke_f	f	n/a
278.4365	0.09	556873	keystroke_l	l	n/a
278.6165	0.075	557233	keystroke_i	i	n/a
278.7815	0.09	557563	keystroke_n	n	n/a
278.8415	0.0755	557683	keystroke_e	e	n/a
279.0665	0.09	558133	keystroke_Key.space	Key.space	n/a
279.202	0.0745	558404	keystroke_d	d	n/a
279.3515	0.075	558703	keystroke_u	u	n/a
279.607	0.1045	559214	keystroke_p	p	n/a
279.892	0.0895	559784	keystroke_l	l	n/a
280.1015	0.09	560203	keystroke_i	i	n/a
280.3415	0.0905	560683	keystroke_c	c	n/a
280.522	0.045	561044	keystroke_a	a	n/a
280.642	0.09	561284	keystroke_t	t	n/a
280.912	0.06	561824	keystroke_e	e	n/a
281.136	0.075	562272	keystroke_Key.space	Key.space	n/a
281.436	0.076	562872	keystroke_c	c	n/a
281.7515	0.09	563503	keystroke_e	e	n/a
281.9765	0.0605	563953	keystroke_n	n	n/a
282.366	0.121	564732	keystroke_s	s	n/a
282.621	0.046	565242	keystroke_u	u	n/a
282.7415	0.0905	565483	keystroke_s	s	n/a
282.9815	0.0905	565963	keystroke_Key.space	Key.space	n/a
283.296	0.1055	566592	keystroke_p	p	n/a
283.492	0.0895	566984	keystroke_r	r	n/a
283.5665	0.075	567133	keystroke_e	e	n/a
284.3915	0.076	568783	keystroke_c	c	n/a
284.6465	0.0455	569293	keystroke_e	e	n/a
284.962	0.045	569924	keystroke_d	d	n/a
285.156	0.06	570312	keystroke_i	i	n/a
285.307	0.075	570614	keystroke_n	n	n/a
285.427	0.075	570854	keystroke_g	g	n/a
286.507	0.075	573014	keystroke_Key.enter	Key.enter	n/a
286.5895	11.2885	573179	prompt	n/a	diverse transmission announcement prot\n
287.3325	0.0585	574665	keystroke_d	d	n/a
287.467	0.089	574934	keystroke_i	i	n/a
287.676	0.0755	575352	keystroke_v	v	n/a
287.872	0.06	575744	keystroke_e	e	n/a
287.917	0.0895	575834	keystroke_r	r	n/a
288.217	0.06	576434	keystroke_s	s	n/a
288.382	0.06	576764	keystroke_e	e	n/a
288.5465	0.0905	577093	keystroke_Key.space	Key.space	n/a
288.8625	0.059	577725	keystroke_t	t	n/a
289.0265	0.075	578053	keystroke_r	r	n/a
289.192	0.09	578384	keystroke_a	a	n/a
289.2965	0.06	578593	keystroke_n	n	n/a
289.536	0.091	579072	keystroke_s	s	n/a
289.912	0.104	579824	keystroke_m	m	n/a
290.226	0.1205	580452	keystroke_i	i	n/a
290.587	0.0745	581174	keystroke_s	s	n/a
290.7515	0.09	581503	keystroke_s	s	n/a
290.9015	0.0905	581803	keystroke_i	i	n/a
291.0065	0.1355	582013	keystroke_o	o	n/a
291.202	0.089	582404	keystroke_n	n	n/a
291.411	0.0905	582822	keystroke_Key.space	Key.space	n/a
291.5465	0.1045	583093	keystroke_a	a	n/a
292.222	0.074	584444	keystroke_n	n	n/a
292.402	0.1205	584804	keystroke_n	n	n/a
292.627	0.075	585254	keystroke_o	o	n/a
292.807	0.075	585614	keystroke_u	u	n/a
293.032	0.09	586064	keystroke_n	n	n/a
293.2715	0.075	586543	keystroke_c	c	n/a
293.497	0.0595	586994	keystroke_e	e	n/a
293.632	0.075	587264	keystroke_m	m	n/a
293.827	0.06	587654	keystroke_e	e	n/a
293.947	0.075	587894	keystroke_n	n	n/a
294.111	0.061	588222	keystroke_t	t	n/a
294.4115	0.0895	588823	keystroke_Key.space	Key.space	n/a
294.726	0.121	589452	keystroke_p	p	n/a
294.907	0.075	589814	keystroke_r	r	n/a
295.027	0.089	590054	keystroke_o	o	n/a
295.222	0.06	590444	keystroke_t	t	n/a
297.864	0.013	595728	keystroke_Key.enter	Key.enter	n/a
297.881	16.2015	595762	prompt	n/a	libraries tripadvisor runner optimization\n
298.8665	0.075	597733	keystroke_l	l	n/a
299.0615	0.0905	598123	keystroke_i	i	n/a
299.257	0.075	598514	keystroke_b	b	n/a
299.5415	0.0745	599083	keystroke_r	r	n/a
299.812	0.06	599624	keystroke_e	e	n/a
300.307	0.074	600614	keystroke_Key.backspace	Key.backspace	n/a
300.412	0.0895	600824	keystroke_a	a	n/a
300.5465	0.09	601093	keystroke_r	r	n/a
300.892	0.075	601784	keystroke_i	i	n/a
301.372	0.06	602744	keystroke_Key.backspace	Key.backspace	n/a
302.002	0.0895	604004	keystroke_i	i	n/a
302.227	0.075	604454	keystroke_e	e	n/a
302.422	0.09	604844	keystroke_s	s	n/a
302.601	0.0605	605202	keystroke_Key.space	Key.space	n/a
303.037	0.0745	606074	keystroke_t	t	n/a
303.247	0.0745	606494	keystroke_r	r	n/a
303.4415	0.0605	606883	keystroke_a	a	n/a
304.177	0.0605	608354	keystroke_Key.backspace	Key.backspace	n/a
304.432	0.045	608864	keystroke_i	i	n/a
304.807	0.1195	609614	keystroke_p	p	n/a
305.272	0.1045	610544	keystroke_a	a	n/a
305.512	0.09	611024	keystroke_d	d	n/a
306.277	0.075	612554	keystroke_v	v	n/a
306.4715	0.075	612943	keystroke_i	i	n/a
306.7565	0.09	613513	keystroke_s	s	n/a
306.9365	0.075	613873	keystroke_o	o	n/a
307.0875	0.0745	614175	keystroke_r	r	n/a
307.2365	0.12	614473	keystroke_Key.space	Key.space	n/a
307.522	0.0595	615044	keystroke_r	r	n/a
307.6565	0.0605	615313	keystroke_u	u	n/a
307.9715	0.0745	615943	keystroke_n	n	n/a
308.1815	0.075	616363	keystroke_n	n	n/a
308.3915	0.0605	616783	keystroke_e	e	n/a
308.4665	0.0755	616933	keystroke_r	r	n/a
309.246	0.0455	618492	keystroke_Key.space	Key.space	n/a
309.727	0.0895	619454	keystroke_o	o	n/a
309.892	0.12	619784	keystroke_p	p	n/a
310.087	0.0745	620174	keystroke_t	t	n/a
310.237	0.1045	620474	keystroke_i	i	n/a
310.477	0.09	620954	keystroke_m	m	n/a
310.702	0.09	621404	keystroke_i	i	n/a
311.062	0.075	622124	keystroke_z	z	n/a
311.347	0.0745	622694	keystroke_a	a	n/a
311.5565	0.06	623113	keystroke_t	t	n/a
311.6615	0.09	623323	keystroke_i	i	n/a
311.722	0.1505	623444	keystroke_o	o	n/a
311.9175	0.089	623835	keystroke_n	n	n/a
314.0795	0.001	628159	keystroke_Key.enter	Key.enter	n/a
314.0865	8.076	628173	prompt	n/a	flowers joyce template invite\n
314.8865	0.09	629773	keystroke_f	f	n/a
315.0065	0.075	630013	keystroke_l	l	n/a
315.2165	0.075	630433	keystroke_o	o	n/a
315.3515	0.09	630703	keystroke_w	w	n/a
315.5765	0.0905	631153	keystroke_e	e	n/a
315.952	0.09	631904	keystroke_r	r	n/a
316.267	0.0745	632534	keystroke_s	s	n/a
316.4915	0.0895	632983	keystroke_Key.space	Key.space	n/a
316.822	0.045	633644	keystroke_j	j	n/a
317.031	0.135	634062	keystroke_o	o	n/a
317.301	0.076	634602	keystroke_y	y	n/a
317.796	0.0605	635592	keystroke_c	c	n/a
318.037	0.0595	636074	keystroke_e	e	n/a
318.2465	0.105	636493	keystroke_Key.space	Key.space	n/a
318.6065	0.0605	637213	keystroke_t	t	n/a
318.7715	0.0755	637543	keystroke_e	e	n/a
318.922	0.0745	637844	keystroke_m	m	n/a
319.102	0.0895	638204	keystroke_p	p	n/a
319.3265	0.0905	638653	keystroke_l	l	n/a
319.5215	0.105	639043	keystroke_a	a	n/a
319.7015	0.135	639403	keystroke_t	t	n/a
319.8665	0.09	639733	keystroke_e	e	n/a
320.1965	0.105	640393	keystroke_Key.space	Key.space	n/a
320.4815	0.06	640963	keystroke_i	i	n/a
320.6465	0.09	641293	keystroke_n	n	n/a
320.842	0.1045	641684	keystroke_v	v	n/a
321.0215	0.09	642043	keystroke_i	i	n/a
321.3515	0.075	642703	keystroke_t	t	n/a
321.4415	0.1055	642883	keystroke_e	e	n/a
322.0865	0.075	644173	keystroke_Key.enter	Key.enter	n/a
322.1675	10.5255	644335	prompt	n/a	valley weird administrators capacity\n
323.002	0.0745	646004	keystroke_v	v	n/a
323.2115	0.09	646423	keystroke_a	a	n/a
323.467	0.045	646934	keystroke_l	l	n/a
323.632	0.1055	647264	keystroke_l	l	n/a
323.767	0.0745	647534	keystroke_e	e	n/a
323.977	0.06	647954	keystroke_y	y	n/a
324.202	0.075	648404	keystroke_Key.space	Key.space	n/a
324.532	0.09	649064	keystroke_w	w	n/a
324.786	0.061	649572	keystroke_e	e	n/a
325.027	0.06	650054	keystroke_i	i	n/a
325.5965	0.075	651193	keystroke_r	r	n/a
325.852	0.0595	651704	keystroke_d	d	n/a
326.0465	0.09	652093	keystroke_Key.space	Key.space	n/a
326.3165	0.1055	652633	keystroke_a	a	n/a
326.5415	0.06	653083	keystroke_d	d	n/a
326.7215	0.075	653443	keystroke_m	m	n/a
326.9315	0.091	653863	keystroke_i	i	n/a
327.097	0.104	654194	keystroke_n	n	n/a
327.306	0.09	654612	keystroke_i	i	n/a
327.471	0.0755	654942	keystroke_s	s	n/a
327.712	0.0595	655424	keystroke_t	t	n/a
328.522	0.075	657044	keystroke_r	r	n/a
328.7475	0.0895	657495	keystroke_a	a	n/a
329.107	0.075	658214	keystroke_t	t	n/a
329.287	0.06	658574	keystroke_o	o	n/a
329.376	0.075	658752	keystroke_r	r	n/a
329.617	0.089	659234	keystroke_s	s	n/a
329.811	0.1055	659622	keystroke_Key.space	Key.space	n/a
330.126	0.061	660252	keystroke_c	c	n/a
330.262	0.1045	660524	keystroke_a	a	n/a
330.4715	0.1045	660943	keystroke_p	p	n/a
330.727	0.09	661454	keystroke_a	a	n/a
331.252	0.075	662504	keystroke_c	c	n/a
331.402	0.1045	662804	keystroke_i	i	n/a
331.5965	0.045	663193	keystroke_t	t	n/a
331.7615	0.045	663523	keystroke_y	y	n/a
332.617	0.0745	665234	keystroke_Key.enter	Key.enter	n/a
332.698	9.8055	665396	prompt	n/a	dame tracking aboriginal intervals\n
333.457	0.06	666914	keystroke_d	d	n/a
333.6665	0.045	667333	keystroke_r	r	n/a
334.1015	0.045	668203	keystroke_Key.backspace	Key.backspace	n/a
334.1915	0.106	668383	keystroke_a	a	n/a
334.372	0.075	668744	keystroke_m	m	n/a
334.5665	0.0605	669133	keystroke_e	e	n/a
334.7765	0.0745	669553	keystroke_Key.space	Key.space	n/a
335.242	0.0745	670484	keystroke_t	t	n/a
335.422	0.0745	670844	keystroke_r	r	n/a
335.631	0.09	671262	keystroke_a	a	n/a
335.857	0.0745	671714	keystroke_k	k	n/a
336.2765	0.06	672553	keystroke_Key.backspace	Key.backspace	n/a
336.3665	0.0755	672733	keystroke_c	c	n/a
336.5315	0.09	673063	keystroke_k	k	n/a
336.772	0.09	673544	keystroke_i	i	n/a
336.9365	0.0895	673873	keystroke_n	n	n/a
337.057	0.075	674114	keystroke_g	g	n/a
337.191	0.106	674382	keystroke_Key.space	Key.space	n/a
337.5065	0.12	675013	keystroke_a	a	n/a
337.7915	0.075	675583	keystroke_b	b	n/a
338.062	0.0895	676124	keystroke_o	o	n/a
338.2575	0.074	676515	keystroke_r	r	n/a
338.4215	0.075	676843	keystroke_i	i	n/a
338.7665	0.075	677533	keystroke_g	g	n/a
338.917	0.075	677834	keystroke_i	i	n/a
339.082	0.09	678164	keystroke_n	n	n/a
339.217	0.105	678434	keystroke_a	a	n/a
339.382	0.09	678764	keystroke_l	l	n/a
339.652	0.1045	679304	keystroke_Key.space	Key.space	n/a
340.327	0.074	680654	keystroke_i	i	n/a
340.5065	0.09	681013	keystroke_n	n	n/a
340.6565	0.0755	681313	keystroke_t	t	n/a
340.7765	0.075	681553	keystroke_e	e	n/a
340.8665	0.0755	681733	keystroke_r	r	n/a
341.1515	0.09	682303	keystroke_v	v	n/a
341.3615	0.0905	682723	keystroke_a	a	n/a
341.587	0.0595	683174	keystroke_l	l	n/a
341.692	0.1045	683384	keystroke_s	s	n/a
342.4265	0.075	684853	keystroke_Key.enter	Key.enter	n/a
342.5085	7.675	685017	prompt	n/a	subscribe clean farm comfort\n
343.2815	0.09	686563	keystroke_s	s	n/a
343.4325	0.0595	686865	keystroke_u	u	n/a
343.612	0.074	687224	keystroke_b	b	n/a
343.866	0.075	687732	keystroke_s	s	n/a
344.227	0.06	688454	keystroke_c	c	n/a
344.482	0.0595	688964	keystroke_r	r	n/a
344.6465	0.06	689293	keystroke_i	i	n/a
344.8415	0.075	689683	keystroke_b	b	n/a
345.0215	0.0755	690043	keystroke_e	e	n/a
345.217	0.0295	690434	keystroke_Key.space	Key.space	n/a
345.4415	0.075	690883	keystroke_c	c	n/a
345.622	0.075	691244	keystroke_l	l	n/a
345.742	0.06	691484	keystroke_e	e	n/a
345.862	0.09	691724	keystroke_a	a	n/a
346.011	0.0615	692022	keystroke_n	n	n/a
346.2215	0.0595	692443	keystroke_Key.space	Key.space	n/a
346.566	0.0905	693132	keystroke_f	f	n/a
346.746	0.091	693492	keystroke_a	a	n/a
346.927	0.06	693854	keystroke_r	r	n/a
347.047	0.06	694094	keystroke_m	m	n/a
347.3015	0.076	694603	keystroke_Key.space	Key.space	n/a
347.7215	0.075	695443	keystroke_c	c	n/a
347.842	0.0895	695684	keystroke_o	o	n/a
347.9915	0.105	695983	keystroke_m	m	n/a
348.291	0.076	696582	keystroke_f	f	n/a
348.487	0.059	696974	keystroke_o	o	n/a
348.5615	0.0745	697123	keystroke_r	r	n/a
348.832	0.0595	697664	keystroke_t	t	n/a
350.121	0.06	700242	keystroke_Key.enter	Key.enter	n/a
350.189	9.928	700378	prompt	n/a	thesis duncan lighting implement\n
350.9475	0.059	701895	keystroke_t	t	n/a
351.0815	0.06	702163	keystroke_h	h	n/a
351.246	0.076	702492	keystroke_e	e	n/a
351.621	0.09	703242	keystroke_s	s	n/a
351.772	0.075	703544	keystroke_i	i	n/a
351.907	0.0745	703814	keystroke_s	s	n/a
352.1465	0.075	704293	keystroke_Key.space	Key.space	n/a
352.491	0.0605	704982	keystroke_d	d	n/a
352.6415	0.06	705283	keystroke_u	u	n/a
352.8515	0.075	705703	keystroke_n	n	n/a
353.137	0.0895	706274	keystroke_c	c	n/a
353.4065	0.0155	706813	keystroke_a	a	n/a
353.4515	0.0605	706903	keystroke_n	n	n/a
353.677	0.074	707354	keystroke_Key.space	Key.space	n/a
353.932	0.09	707864	keystroke_l	l	n/a
354.112	0.09	708224	keystroke_i	i	n/a
354.321	0.0605	708642	keystroke_g	g	n/a
354.456	0.0755	708912	keystroke_h	h	n/a
354.682	0.06	709364	keystroke_t	t	n/a
355.0265	0.09	710053	keystroke_i	i	n/a
355.207	0.0895	710414	keystroke_n	n	n/a
355.356	0.0755	710712	keystroke_g	g	n/a
355.4765	0.0895	710953	keystroke_Key.space	Key.space	n/a
355.971	0.075	711942	keystroke_i	i	n/a
356.121	0.121	712242	keystroke_m	m	n/a
356.3465	0.09	712693	keystroke_p	p	n/a
356.616	0.09	713232	keystroke_l	l	n/a
356.811	0.091	713622	keystroke_e	e	n/a
357.352	0.0895	714704	keystroke_m	m	n/a
357.562	0.06	715124	keystroke_e	e	n/a
357.667	0.075	715334	keystroke_n	n	n/a
357.832	0.0595	715664	keystroke_t	t	n/a
360.1135	0.001	720227	keystroke_Key.enter	Key.enter	n/a
360.1215	13.642	720243	prompt	n/a	compete daughter composite angola\n
360.832	0.075	721664	keystroke_c	c	n/a
360.952	0.075	721904	keystroke_o	o	n/a
361.1165	0.0905	722233	keystroke_m	m	n/a
361.3115	0.06	722623	keystroke_e	e	n/a
362.316	0.1055	724632	keystroke_p	p	n/a
362.7065	0.06	725413	keystroke_Key.backspace	Key.backspace	n/a
362.8865	0.075	725773	keystroke_Key.backspace	Key.backspace	n/a
363.1265	0.1205	726253	keystroke_p	p	n/a
363.352	0.0595	726704	keystroke_e	e	n/a
363.5465	0.0895	727093	keystroke_t	t	n/a
363.697	0.074	727394	keystroke_e	e	n/a
363.996	0.075	727992	keystroke_Key.space	Key.space	n/a
364.6115	0.06	729223	keystroke_d	d	n/a
364.777	0.0745	729554	keystroke_a	a	n/a
364.9415	0.06	729883	keystroke_u	u	n/a
365.1365	0.06	730273	keystroke_g	g	n/a
365.3015	0.045	730603	keystroke_h	h	n/a
365.7815	0.075	731563	keystroke_t	t	n/a
365.947	0.0595	731894	keystroke_e	e	n/a
365.9915	0.0745	731983	keystroke_r	r	n/a
366.261	0.105	732522	keystroke_Key.space	Key.space	n/a
366.4715	0.0605	732943	keystroke_c	c	n/a
366.5765	0.1055	733153	keystroke_o	o	n/a
366.7265	0.1055	733453	keystroke_m	m	n/a
366.9365	0.12	733873	keystroke_p	p	n/a
367.177	0.075	734354	keystroke_i	i	n/a
367.3715	0.0895	734743	keystroke_s	s	n/a
367.5965	0.0745	735193	keystroke_i	i	n/a
367.761	0.09	735522	keystroke_t	t	n/a
368.0765	0.045	736153	keystroke_Key.backspace	Key.backspace	n/a
368.2565	0.0755	736513	keystroke_Key.backspace	Key.backspace	n/a
368.4665	0.0595	736933	keystroke_Key.backspace	Key.backspace	n/a
368.6615	0.0745	737323	keystroke_Key.backspace	Key.backspace	n/a
369.352	0.105	738704	keystroke_o	o	n/a
369.6815	0.0905	739363	keystroke_s	s	n/a
369.847	0.075	739694	keystroke_i	i	n/a
370.0415	0.06	740083	keystroke_t	t	n/a
370.252	0.0745	740504	keystroke_e	e	n/a
370.506	0.0755	741012	keystroke_Key.space	Key.space	n/a
370.7615	0.075	741523	keystroke_a	a	n/a
370.8815	0.075	741763	keystroke_n	n	n/a
371.0765	0.075	742153	keystroke_g	g	n/a
371.5875	0.0745	743175	keystroke_o	o	n/a
371.872	0.075	743744	keystroke_l	l	n/a
372.217	0.074	744434	keystroke_a	a	n/a
373.686	0.0755	747372	keystroke_Key.enter	Key.enter	n/a
373.768	8.77	747536	prompt	n/a	stranger travel audi prime\n
374.5265	0.09	749053	keystroke_s	s	n/a
374.7065	0.06	749413	keystroke_t	t	n/a
374.8415	0.09	749683	keystroke_r	r	n/a
375.0815	0.0755	750163	keystroke_a	a	n/a
375.247	0.0445	750494	keystroke_n	n	n/a
375.5315	0.0605	751063	keystroke_g	g	n/a
375.7265	0.0455	751453	keystroke_e	e	n/a
375.7865	0.075	751573	keystroke_r	r	n/a
375.9965	0.09	751993	keystroke_Key.space	Key.space	n/a
376.2515	0.0745	752503	keystroke_t	t	n/a
376.4465	0.075	752893	keystroke_r	r	n/a
376.6115	0.09	753223	keystroke_a	a	n/a
376.9715	0.06	753943	keystroke_v	v	n/a
377.152	0.06	754304	keystroke_e	e	n/a
377.362	0.0895	754724	keystroke_l	l	n/a
377.6165	0.09	755233	keystroke_Key.space	Key.space	n/a
377.8865	0.09	755773	keystroke_a	a	n/a
378.097	0.0455	756194	keystroke_u	u	n/a
378.4265	0.0595	756853	keystroke_d	d	n/a
378.591	0.0755	757182	keystroke_i	i	n/a
379.056	0.09	758112	keystroke_Key.space	Key.space	n/a
379.7465	0.1205	759493	keystroke_p	p	n/a
379.941	0.076	759882	keystroke_r	r	n/a
380.091	0.091	760182	keystroke_i	i	n/a
380.347	0.1345	760694	keystroke_m	m	n/a
380.8715	0.075	761743	keystroke_e	e	n/a
382.476	0.0605	764952	keystroke_Key.enter	Key.enter	n/a
382.541	6.9565	765082	prompt	n/a	maple slots jackie station\n
383.3915	0.09	766783	keystroke_m	m	n/a
383.5115	0.105	767023	keystroke_a	a	n/a
383.6915	0.09	767383	keystroke_p	p	n/a
384.1415	0.12	768283	keystroke_l	l	n/a
384.3215	0.0605	768643	keystroke_e	e	n/a
384.5165	0.075	769033	keystroke_Key.space	Key.space	n/a
385.012	0.0895	770024	keystroke_s	s	n/a
385.1765	0.0755	770353	keystroke_l	l	n/a
385.3715	0.09	770743	keystroke_o	o	n/a
385.5215	0.09	771043	keystroke_t	t	n/a
385.7315	0.075	771463	keystroke_s	s	n/a
385.8365	0.105	771673	keystroke_Key.space	Key.space	n/a
386.167	0.0745	772334	keystroke_j	j	n/a
386.3165	0.105	772633	keystroke_a	a	n/a
386.6165	0.075	773233	keystroke_c	c	n/a
386.871	0.075	773742	keystroke_k	k	n/a
387.2015	0.075	774403	keystroke_i	i	n/a
387.3665	0.045	774733	keystroke_e	e	n/a
387.6065	0.075	775213	keystroke_Key.space	Key.space	n/a
387.7865	0.09	775573	keystroke_s	s	n/a
387.937	0.0895	775874	keystroke_t	t	n/a
388.0865	0.075	776173	keystroke_a	a	n/a
388.1915	0.09	776383	keystroke_t	t	n/a
388.3715	0.0745	776743	keystroke_i	i	n/a
388.461	0.1355	776922	keystroke_o	o	n/a
388.641	0.0755	777282	keystroke_n	n	n/a
389.4365	0.06	778873	keystroke_Key.enter	Key.enter	n/a
389.5005	8.247	779001	prompt	n/a	goto scout collectors providing\n
390.531	0.075	781062	keystroke_g	g	n/a
390.6665	0.09	781333	keystroke_o	o	n/a
390.9365	0.0595	781873	keystroke_t	t	n/a
391.0265	0.09	782053	keystroke_o	o	n/a
391.2365	0.09	782473	keystroke_Key.space	Key.space	n/a
391.4165	0.09	782833	keystroke_s	s	n/a
391.6565	0.0595	783313	keystroke_c	c	n/a
391.761	0.09	783522	keystroke_o	o	n/a
391.956	0.045	783912	keystroke_u	u	n/a
392.1665	0.075	784333	keystroke_t	t	n/a
393.0815	0.105	786163	keystroke_Key.space	Key.space	n/a
393.4565	0.0605	786913	keystroke_c	c	n/a
393.5615	0.075	787123	keystroke_o	o	n/a
393.8015	0.075	787603	keystroke_l	l	n/a
394.042	0.06	788084	keystroke_l	l	n/a
394.3565	0.075	788713	keystroke_e	e	n/a
394.582	0.074	789164	keystroke_c	c	n/a
394.822	0.06	789644	keystroke_t	t	n/a
394.986	0.075	789972	keystroke_o	o	n/a
395.152	0.06	790304	keystroke_r	r	n/a
395.361	0.076	790722	keystroke_s	s	n/a
395.481	0.121	790962	keystroke_Key.space	Key.space	n/a
395.707	0.119	791414	keystroke_p	p	n/a
395.872	0.0745	791744	keystroke_r	r	n/a
395.991	0.09	791982	keystroke_o	o	n/a
396.2615	0.075	792523	keystroke_v	v	n/a
396.4415	0.09	792883	keystroke_i	i	n/a
396.681	0.076	793362	keystroke_d	d	n/a
396.861	0.075	793722	keystroke_i	i	n/a
397.041	0.0895	794082	keystroke_n	n	n/a
397.1765	0.044	794353	keystroke_g	g	n/a
397.686	0.06	795372	keystroke_Key.enter	Key.enter	n/a
397.7515	7.481	795503	prompt	n/a	karen measure hollow gasoline\n
398.586	0.075	797172	keystroke_k	k	n/a
398.706	0.09	797412	keystroke_a	a	n/a
398.841	0.0905	797682	keystroke_r	r	n/a
399.1115	0.06	798223	keystroke_e	e	n/a
399.2465	0.06	798493	keystroke_n	n	n/a
399.4415	0.075	798883	keystroke_Key.space	Key.space	n/a
399.6965	0.105	799393	keystroke_m	m	n/a
399.9215	0.06	799843	keystroke_e	e	n/a
400.1015	0.0905	800203	keystroke_a	a	n/a
400.236	0.1055	800472	keystroke_s	s	n/a
400.461	0.0605	800922	keystroke_u	u	n/a
400.6115	0.09	801223	keystroke_r	r	n/a
400.7165	0.0895	801433	keystroke_e	e	n/a
400.956	0.075	801912	keystroke_Key.space	Key.space	n/a
401.4815	0.06	802963	keystroke_h	h	n/a
401.7205	0.075	803441	keystroke_o	o	n/a
402.096	0.1055	804192	keystroke_l	l	n/a
402.2765	0.105	804553	keystroke_l	l	n/a
402.502	0.075	805004	keystroke_o	o	n/a
402.6365	0.09	805273	keystroke_w	w	n/a
402.7865	0.12	805573	keystroke_Key.space	Key.space	n/a
403.041	0.0755	806082	keystroke_g	g	n/a
403.1915	0.0905	806383	keystroke_a	a	n/a
403.372	0.1195	806744	keystroke_s	s	n/a
403.987	0.1045	807974	keystroke_o	o	n/a
404.3315	0.0905	808663	keystroke_l	l	n/a
404.5265	0.0755	809053	keystroke_i	i	n/a
404.6915	0.0755	809383	keystroke_n	n	n/a
404.7815	0.075	809563	keystroke_e	e	n/a
405.1715	0.06	810343	keystroke_Key.enter	Key.enter	n/a
405.2365	9.881	810473	prompt	n/a	invest juvenile academics pakistan\n
406.192	0.06	812384	keystroke_i	i	n/a
406.3415	0.09	812683	keystroke_n	n	n/a
406.5215	0.0755	813043	keystroke_v	v	n/a
406.7165	0.074	813433	keystroke_e	e	n/a
406.8965	0.0745	813793	keystroke_s	s	n/a
407.002	0.075	814004	keystroke_t	t	n/a
407.1815	0.089	814363	keystroke_Key.space	Key.space	n/a
407.4515	0.075	814903	keystroke_j	j	n/a
407.692	0.0895	815384	keystroke_u	u	n/a
408.081	0.061	816162	keystroke_v	v	n/a
408.276	0.045	816552	keystroke_e	e	n/a
408.397	0.059	816794	keystroke_n	n	n/a
408.6815	0.06	817363	keystroke_i	i	n/a
409.0565	0.09	818113	keystroke_l	l	n/a
409.282	0.0595	818564	keystroke_e	e	n/a
409.4915	0.09	818983	keystroke_Key.space	Key.space	n/a
410.092	0.09	820184	keystroke_a	a	n/a
410.377	0.059	820754	keystroke_c	c	n/a
410.6765	0.0755	821353	keystroke_a	a	n/a
411.1265	0.0445	822253	keystroke_d	d	n/a
411.3815	0.0455	822763	keystroke_e	e	n/a
411.5015	0.06	823003	keystroke_m	m	n/a
411.682	0.0745	823364	keystroke_i	i	n/a
411.9065	0.075	823813	keystroke_c	c	n/a
412.1165	0.075	824233	keystroke_s	s	n/a
412.3115	0.075	824623	keystroke_Key.space	Key.space	n/a
412.7915	0.105	825583	keystroke_p	p	n/a
412.9715	0.075	825943	keystroke_a	a	n/a
413.3315	0.0905	826663	keystroke_k	k	n/a
413.5565	0.075	827113	keystroke_i	i	n/a
413.7215	0.0905	827443	keystroke_s	s	n/a
413.916	0.06	827832	keystroke_t	t	n/a
414.127	0.0895	828254	keystroke_a	a	n/a
414.306	0.045	828612	keystroke_n	n	n/a
415.0565	0.0595	830113	keystroke_Key.enter	Key.enter	n/a
415.123	9.1	830246	prompt	n/a	churches clip cotton printable\n
416.001	0.0605	832002	keystroke_c	c	n/a
416.107	0.0595	832214	keystroke_h	h	n/a
416.301	0.06	832602	keystroke_r	r	n/a
416.7065	0.09	833413	keystroke_Key.backspace	Key.backspace	n/a
416.961	0.06	833922	keystroke_u	u	n/a
417.141	0.0755	834282	keystroke_r	r	n/a
418.011	0.0605	836022	keystroke_c	c	n/a
418.1465	0.06	836293	keystroke_h	h	n/a
418.3115	0.0595	836623	keystroke_e	e	n/a
418.5365	0.06	837073	keystroke_s	s	n/a
418.671	0.105	837342	keystroke_Key.space	Key.space	n/a
419.0465	0.0595	838093	keystroke_c	c	n/a
419.166	0.076	838332	keystroke_l	l	n/a
419.362	0.089	838724	keystroke_i	i	n/a
419.632	0.105	839264	keystroke_p	p	n/a
419.946	0.09	839892	keystroke_Key.space	Key.space	n/a
420.306	0.0905	840612	keystroke_c	c	n/a
420.4715	0.0755	840943	keystroke_o	o	n/a
420.757	0.059	841514	keystroke_t	t	n/a
420.936	0.075	841872	keystroke_t	t	n/a
421.131	0.045	842262	keystroke_e	e	n/a
421.581	0.075	843162	keystroke_Key.backspace	Key.backspace	n/a
421.8065	0.09	843613	keystroke_o	o	n/a
422.017	0.0595	844034	keystroke_n	n	n/a
422.2265	0.0745	844453	keystroke_Key.space	Key.space	n/a
422.4665	0.1045	844933	keystroke_p	p	n/a
422.661	0.06	845322	keystroke_r	r	n/a
422.751	0.0905	845502	keystroke_i	i	n/a
422.9315	0.09	845863	keystroke_n	n	n/a
423.0965	0.075	846193	keystroke_t	t	n/a
423.4415	0.06	846883	keystroke_a	a	n/a
423.6365	0.075	847273	keystroke_b	b	n/a
423.7715	0.075	847543	keystroke_l	l	n/a
423.907	0.0595	847814	keystroke_e	e	n/a
424.1465	0.075	848293	keystroke_Key.enter	Key.enter	n/a
424.2275	11.0355	848455	prompt	n/a	computational groove degrees forge\n
425.047	0.059	850094	keystroke_c	c	n/a
425.1515	0.0905	850303	keystroke_o	o	n/a
425.3015	0.0895	850603	keystroke_m	m	n/a
425.452	0.104	850904	keystroke_p	p	n/a
425.646	0.076	851292	keystroke_u	u	n/a
425.827	0.0595	851654	keystroke_t	t	n/a
426.1865	0.0895	852373	keystroke_a	a	n/a
426.382	0.089	852764	keystroke_t	t	n/a
426.531	0.06	853062	keystroke_i	i	n/a
426.592	0.1795	853184	keystroke_o	o	n/a
426.786	0.09	853572	keystroke_n	n	n/a
427.7465	0.105	855493	keystroke_a	a	n/a
427.867	0.0595	855734	keystroke_l	l	n/a
428.2265	0.105	856453	keystroke_Key.space	Key.space	n/a
428.872	0.074	857744	keystroke_g	g	n/a
429.126	0.061	858252	keystroke_r	r	n/a
429.292	0.0745	858584	keystroke_o	o	n/a
429.7715	0.09	859543	keystroke_o	o	n/a
430.1165	0.06	860233	keystroke_v	v	n/a
430.3265	0.06	860653	keystroke_e	e	n/a
430.4465	0.09	860893	keystroke_Key.space	Key.space	n/a
430.6865	0.0595	861373	keystroke_d	d	n/a
430.867	0.0595	861734	keystroke_e	e	n/a
431.152	0.06	862304	keystroke_g	g	n/a
431.361	0.075	862722	keystroke_r	r	n/a
431.6915	0.0605	863383	keystroke_e	e	n/a
431.8405	0.076	863681	keystroke_e	e	n/a
432.441	0.0755	864882	keystroke_s	s	n/a
432.6365	0.105	865273	keystroke_Key.space	Key.space	n/a
433.0865	0.09	866173	keystroke_f	f	n/a
433.2365	0.09	866473	keystroke_o	o	n/a
433.342	0.0745	866684	keystroke_r	r	n/a
433.6715	0.0605	867343	keystroke_g	g	n/a
433.8365	0.06	867673	keystroke_e	e	n/a
435.186	0.0745	870372	keystroke_Key.enter	Key.enter	n/a
435.268	8.035	870536	prompt	n/a	lips hairy modifications trails\n
436.1165	0.09	872233	keystroke_l	l	n/a
436.2815	0.0905	872563	keystroke_i	i	n/a
436.4915	0.1045	872983	keystroke_p	p	n/a
436.7165	0.09	873433	keystroke_s	s	n/a
436.851	0.09	873702	keystroke_Key.space	Key.space	n/a
437.0915	0.0595	874183	keystroke_h	h	n/a
437.256	0.09	874512	keystroke_a	a	n/a
437.422	0.075	874844	keystroke_i	i	n/a
437.572	0.0895	875144	keystroke_r	r	n/a
437.9915	0.045	875983	keystroke_y	y	n/a
438.2165	0.074	876433	keystroke_Key.space	Key.space	n/a
438.502	0.1045	877004	keystroke_m	m	n/a
438.711	0.075	877422	keystroke_o	o	n/a
438.891	0.0755	877782	keystroke_d	d	n/a
439.041	0.075	878082	keystroke_i	i	n/a
439.311	0.061	878622	keystroke_f	f	n/a
439.5665	0.09	879133	keystroke_i	i	n/a
439.8215	0.09	879643	keystroke_c	c	n/a
440.0015	0.075	880003	keystroke_a	a	n/a
440.1515	0.075	880303	keystroke_t	t	n/a
440.2565	0.12	880513	keystroke_i	i	n/a
440.3915	0.135	880783	keystroke_o	o	n/a
440.5715	0.105	881143	keystroke_n	n	n/a
440.7665	0.09	881533	keystroke_s	s	n/a
440.9465	0.1045	881893	keystroke_Key.space	Key.space	n/a
441.157	0.075	882314	keystroke_t	t	n/a
441.3215	0.09	882643	keystroke_r	r	n/a
441.5015	0.075	883003	keystroke_a	a	n/a
441.5915	0.105	883183	keystroke_i	i	n/a
441.8615	0.075	883723	keystroke_l	l	n/a
442.0265	0.09	884053	keystroke_s	s	n/a
443.2415	0.06	886483	keystroke_Key.enter	Key.enter	n/a
443.308	9.175	886616	prompt	n/a	desirable homeless brian supervision\n
444.0055	0.076	888011	keystroke_d	d	n/a
444.771	0.0755	889542	keystroke_e	e	n/a
445.236	0.0755	890472	keystroke_s	s	n/a
445.4015	0.0745	890803	keystroke_i	i	n/a
445.581	0.0905	891162	keystroke_r	r	n/a
445.807	0.0895	891614	keystroke_a	a	n/a
446.0315	0.0755	892063	keystroke_b	b	n/a
446.1965	0.09	892393	keystroke_l	l	n/a
446.302	0.0585	892604	keystroke_e	e	n/a
446.4515	0.105	892903	keystroke_Key.space	Key.space	n/a
446.7215	0.0595	893443	keystroke_h	h	n/a
446.886	0.105	893772	keystroke_o	o	n/a
447.066	0.105	894132	keystroke_m	m	n/a
447.246	0.0755	894492	keystroke_e	e	n/a
447.592	0.09	895184	keystroke_l	l	n/a
447.8615	0.075	895723	keystroke_e	e	n/a
448.0865	0.075	896173	keystroke_s	s	n/a
448.267	0.074	896534	keystroke_s	s	n/a
448.356	0.1355	896712	keystroke_Key.space	Key.space	n/a
448.642	0.0445	897284	keystroke_b	b	n/a
448.8365	0.074	897673	keystroke_r	r	n/a
448.9865	0.0745	897973	keystroke_i	i	n/a
449.2115	0.09	898423	keystroke_a	a	n/a
449.3915	0.06	898783	keystroke_n	n	n/a
449.6165	0.09	899233	keystroke_Key.space	Key.space	n/a
449.887	0.0895	899774	keystroke_s	s	n/a
450.0665	0.0455	900133	keystroke_u	u	n/a
450.2015	0.1205	900403	keystroke_p	p	n/a
450.3815	0.0595	900763	keystroke_e	e	n/a
450.4565	0.0755	900913	keystroke_r	r	n/a
450.772	0.06	901544	keystroke_v	v	n/a
450.846	0.076	901692	keystroke_i	i	n/a
451.057	0.09	902114	keystroke_s	s	n/a
451.3715	0.105	902743	keystroke_i	i	n/a
451.551	0.105	903102	keystroke_o	o	n/a
451.792	0.059	903584	keystroke_n	n	n/a
452.4215	0.06	904843	keystroke_Key.enter	Key.enter	n/a
452.487	9.7605	904974	prompt	n/a	deferred hospitals album projection\n
453.292	0.0745	906584	keystroke_d	d	n/a
453.4865	0.06	906973	keystroke_e	e	n/a
453.8165	0.075	907633	keystroke_f	f	n/a
454.1165	0.105	908233	keystroke_e	e	n/a
454.2515	0.0895	908503	keystroke_r	r	n/a
454.551	0.09	909102	keystroke_r	r	n/a
454.8515	0.06	909703	keystroke_e	e	n/a
455.002	0.0745	910004	keystroke_d	d	n/a
455.1365	0.089	910273	keystroke_Key.space	Key.space	n/a
455.5565	0.06	911113	keystroke_h	h	n/a
455.7365	0.09	911473	keystroke_o	o	n/a
456.0515	0.105	912103	keystroke_s	s	n/a
456.441	0.105	912882	keystroke_p	p	n/a
456.652	0.0895	913304	keystroke_i	i	n/a
456.921	0.0755	913842	keystroke_t	t	n/a
457.0855	0.091	914171	keystroke_a	a	n/a
457.2365	0.09	914473	keystroke_l	l	n/a
457.4315	0.0745	914863	keystroke_s	s	n/a
457.5665	0.1045	915133	keystroke_Key.space	Key.space	n/a
457.8065	0.0755	915613	keystroke_a	a	n/a
457.911	0.105	915822	keystroke_l	l	n/a
458.376	0.061	916752	keystroke_b	b	n/a
458.512	0.059	917024	keystroke_u	u	n/a
458.751	0.0755	917502	keystroke_m	m	n/a
458.9765	0.09	917953	keystroke_Key.space	Key.space	n/a
459.4415	0.09	918883	keystroke_p	p	n/a
459.6215	0.075	919243	keystroke_r	r	n/a
459.7415	0.076	919483	keystroke_o	o	n/a
459.937	0.075	919874	keystroke_j	j	n/a
460.1315	0.06	920263	keystroke_e	e	n/a
460.3265	0.0745	920653	keystroke_c	c	n/a
460.5365	0.075	921073	keystroke_t	t	n/a
460.6415	0.06	921283	keystroke_i	i	n/a
460.687	0.1795	921374	keystroke_o	o	n/a
460.9115	0.0605	921823	keystroke_n	n	n/a
462.171	0.075	924342	keystroke_Key.enter	Key.enter	n/a
462.251	12.507	924502	prompt	n/a	nervous kingdom slovenia gross\n
463.2515	0.059	926503	keystroke_n	n	n/a
463.4165	0.0595	926833	keystroke_e	e	n/a
463.627	0.059	927254	keystroke_r	r	n/a
463.641	0.03	927282	keystroke_f	f	n/a
464.4365	0.075	928873	keystroke_Key.backspace	Key.backspace	n/a
464.7365	0.0755	929473	keystroke_Key.backspace	Key.backspace	n/a
465.2465	0.075	930493	keystroke_r	r	n/a
465.771	0.061	931542	keystroke_v	v	n/a
466.056	0.09	932112	keystroke_o	o	n/a
466.251	0.0605	932502	keystroke_u	u	n/a
466.4455	0.091	932891	keystroke_s	s	n/a
466.6705	0.105	933341	keystroke_Key.space	Key.space	n/a
467.2705	0.091	934541	keystroke_k	k	n/a
467.4815	0.089	934963	keystroke_i	i	n/a
467.6465	0.09	935293	keystroke_n	n	n/a
467.9615	0.075	935923	keystroke_g	g	n/a
468.4565	0.06	936913	keystroke_d	d	n/a
468.5765	0.075	937153	keystroke_o	o	n/a
468.742	0.09	937484	keystroke_m	m	n/a
469.4015	0.09	938803	keystroke_Key.space	Key.space	n/a
469.8815	0.075	939763	keystroke_s	s	n/a
470.0165	0.1055	940033	keystroke_l	l	n/a
470.2415	0.105	940483	keystroke_o	o	n/a
470.481	0.0755	940962	keystroke_v	v	n/a
470.692	0.0595	941384	keystroke_e	e	n/a
470.7965	0.075	941593	keystroke_n	n	n/a
471.0505	0.0755	942101	keystroke_i	i	n/a
471.3065	0.09	942613	keystroke_a	a	n/a
471.516	0.075	943032	keystroke_Key.space	Key.space	n/a
471.861	0.0605	943722	keystroke_g	g	n/a
472.041	0.075	944082	keystroke_r	r	n/a
472.1765	0.0745	944353	keystroke_o	o	n/a
472.5365	0.0745	945073	keystroke_s	s	n/a
472.7165	0.0595	945433	keystroke_s	s	n/a
474.6815	0.0745	949363	keystroke_Key.enter	Key.enter	n/a
474.763	10.285	949526	prompt	n/a	lighter mold expo botswana\n
475.747	0.059	951494	keystroke_l	l	n/a
475.897	0.0895	951794	keystroke_i	i	n/a
476.091	0.0755	952182	keystroke_g	g	n/a
476.212	0.06	952424	keystroke_h	h	n/a
476.407	0.0445	952814	keystroke_e	e	n/a
476.4815	0.0905	952963	keystroke_t	t	n/a
477.2915	0.045	954583	keystroke_Key.backspace	Key.backspace	n/a
477.4865	0.075	954973	keystroke_Key.backspace	Key.backspace	n/a
477.816	0.06	955632	keystroke_t	t	n/a
477.9515	0.0745	955903	keystroke_e	e	n/a
478.0415	0.09	956083	keystroke_r	r	n/a
478.476	0.1205	956952	keystroke_Key.space	Key.space	n/a
479.046	0.09	958092	keystroke_m	m	n/a
479.241	0.075	958482	keystroke_o	o	n/a
479.512	0.089	959024	keystroke_l	l	n/a
479.661	0.075	959322	keystroke_d	d	n/a
479.826	0.105	959652	keystroke_Key.space	Key.space	n/a
480.111	0.105	960222	keystroke_e	e	n/a
480.3215	0.09	960643	keystroke_x	x	n/a
480.5015	0.1045	961003	keystroke_p	p	n/a
480.892	0.075	961784	keystroke_o	o	n/a
481.281	0.09	962562	keystroke_Key.space	Key.space	n/a
481.5665	0.075	963133	keystroke_b	b	n/a
481.7165	0.06	963433	keystroke_o	o	n/a
482.211	0.0755	964422	keystroke_t	t	n/a
482.4815	0.0745	964963	keystroke_s	s	n/a
482.901	0.0905	965802	keystroke_w	w	n/a
483.112	0.089	966224	keystroke_a	a	n/a
483.502	0.0595	967004	keystroke_n	n	n/a
483.6965	0.0745	967393	keystroke_a	a	n/a
484.9715	0.075	969943	keystroke_Key.enter	Key.enter	n/a
485.0525	14.56	970105	prompt	n/a	pharmacology openings small representation\n
485.9315	0.1055	971863	keystroke_p	p	n/a
486.1415	0.075	972283	keystroke_a	a	n/a
486.3815	0.0895	972763	keystroke_r	r	n/a
486.981	0.075	973962	keystroke_Key.backspace	Key.backspace	n/a
487.2365	0.0895	974473	keystroke_h	h	n/a
487.6265	0.06	975253	keystroke_Key.backspace	Key.backspace	n/a
487.7915	0.075	975583	keystroke_Key.backspace	Key.backspace	n/a
488.031	0.0455	976062	keystroke_h	h	n/a
488.1815	0.105	976363	keystroke_a	a	n/a
488.332	0.074	976664	keystroke_r	r	n/a
488.5115	0.0895	977023	keystroke_m	m	n/a
489.336	0.075	978672	keystroke_a	a	n/a
489.862	0.0595	979724	keystroke_c	c	n/a
490.0115	0.0745	980023	keystroke_o	o	n/a
490.2365	0.075	980473	keystroke_l	l	n/a
490.4315	0.0895	980863	keystroke_o	o	n/a
490.626	0.0755	981252	keystroke_g	g	n/a
490.792	0.044	981584	keystroke_y	y	n/a
491.046	0.0905	982092	keystroke_Key.space	Key.space	n/a
491.331	0.0905	982662	keystroke_o	o	n/a
491.542	0.104	983084	keystroke_p	p	n/a
491.736	0.0905	983472	keystroke_e	e	n/a
492.1865	0.105	984373	keystroke_n	n	n/a
492.411	0.09	984822	keystroke_i	i	n/a
492.5765	0.1055	985153	keystroke_n	n	n/a
492.712	0.074	985424	keystroke_g	g	n/a
492.9515	0.09	985903	keystroke_s	s	n/a
493.1755	0.091	986351	keystroke_Key.space	Key.space	n/a
493.476	0.045	986952	keystroke_a	a	n/a
493.9265	0.0745	987853	keystroke_Key.backspace	Key.backspace	n/a
494.0315	0.1045	988063	keystroke_s	s	n/a
494.197	0.075	988394	keystroke_m	m	n/a
494.4515	0.12	988903	keystroke_a	a	n/a
494.6765	0.06	989353	keystroke_l	l	n/a
494.856	0.075	989712	keystroke_l	l	n/a
495.366	0.0605	990732	keystroke_Key.space	Key.space	n/a
496.3715	0.105	992743	keystroke_r	r	n/a
496.461	0.075	992922	keystroke_e	e	n/a
496.7315	0.1195	993463	keystroke_p	p	n/a
497.227	0.0895	994454	keystroke_r	r	n/a
497.331	0.105	994662	keystroke_e	e	n/a
497.676	0.075	995352	keystroke_s	s	n/a
497.916	0.0605	995832	keystroke_e	e	n/a
498.0665	0.0595	996133	keystroke_n	n	n/a
498.2465	0.06	996493	keystroke_t	t	n/a
498.4115	0.074	996823	keystroke_a	a	n/a
498.5915	0.06	997183	keystroke_t	t	n/a
498.6665	0.09	997333	keystroke_i	i	n/a
498.7415	0.165	997483	keystroke_o	o	n/a
498.9215	0.09	997843	keystroke_n	n	n/a
499.5365	0.074	999073	keystroke_Key.enter	Key.enter	n/a
499.617	10.7805	999234	prompt	n/a	bones jeffrey scan advised\n
500.3465	0.075	1000693	keystroke_b	b	n/a
500.451	0.0755	1000902	keystroke_o	o	n/a
500.6615	0.0745	1001323	keystroke_n	n	n/a
500.902	0.059	1001804	keystroke_e	e	n/a
501.096	0.076	1002192	keystroke_s	s	n/a
501.201	0.1055	1002402	keystroke_Key.space	Key.space	n/a
501.5465	0.0595	1003093	keystroke_j	j	n/a
501.756	0.061	1003512	keystroke_e	e	n/a
502.131	0.045	1004262	keystroke_f	f	n/a
502.311	0.0755	1004622	keystroke_f	f	n/a
502.8065	0.075	1005613	keystroke_r	r	n/a
503.0465	0.015	1006093	keystroke_y	y	n/a
503.481	0.0755	1006962	keystroke_Key.backspace	Key.backspace	n/a
503.5865	0.0745	1007173	keystroke_e	e	n/a
503.7515	0.0595	1007503	keystroke_y	y	n/a
504.096	0.105	1008192	keystroke_Key.space	Key.space	n/a
504.6365	0.075	1009273	keystroke_c	c	n/a
504.8005	0.0915	1009601	keystroke_a	a	n/a
505.1465	0.045	1010293	keystroke_Key.backspace	Key.backspace	n/a
505.3405	0.075	1010681	keystroke_Key.backspace	Key.backspace	n/a
505.4615	0.105	1010923	keystroke_s	s	n/a
505.8815	0.105	1011763	keystroke_c	c	n/a
506.0605	0.106	1012121	keystroke_a	a	n/a
506.2265	0.075	1012453	keystroke_n	n	n/a
506.451	0.09	1012902	keystroke_Key.space	Key.space	n/a
506.9765	0.09	1013953	keystroke_a	a	n/a
507.1865	0.075	1014373	keystroke_d	d	n/a
507.5305	0.076	1015061	keystroke_v	v	n/a
507.696	0.075	1015392	keystroke_i	i	n/a
507.906	0.0905	1015812	keystroke_s	s	n/a
508.1615	0.075	1016323	keystroke_e	e	n/a
508.3715	0.0745	1016743	keystroke_d	d	n/a
510.3215	0.074	1020643	keystroke_Key.enter	Key.enter	n/a
510.4015	7.7065	1020803	prompt	n/a	civilization help surely differ\n
511.1615	0.075	1022323	keystroke_c	c	n/a
511.3105	0.076	1022621	keystroke_i	i	n/a
511.5215	0.09	1023043	keystroke_v	v	n/a
511.6705	0.076	1023341	keystroke_i	i	n/a
511.8815	0.1205	1023763	keystroke_l	l	n/a
512.0765	0.105	1024153	keystroke_i	i	n/a
512.436	0.1055	1024872	keystroke_z	z	n/a
512.706	0.075	1025412	keystroke_a	a	n/a
512.946	0.06	1025892	keystroke_t	t	n/a
513.051	0.09	1026102	keystroke_i	i	n/a
513.1265	0.1345	1026253	keystroke_o	o	n/a
513.321	0.0755	1026642	keystroke_n	n	n/a
513.561	0.0905	1027122	keystroke_Key.space	Key.space	n/a
513.906	0.045	1027812	keystroke_h	h	n/a
514.042	0.074	1028084	keystroke_e	e	n/a
514.146	0.105	1028292	keystroke_l	l	n/a
514.356	0.09	1028712	keystroke_p	p	n/a
514.6115	0.0895	1029223	keystroke_Key.space	Key.space	n/a
514.9265	0.0895	1029853	keystroke_s	s	n/a
515.436	0.075	1030872	keystroke_u	u	n/a
515.767	0.089	1031534	keystroke_r	r	n/a
515.946	0.0755	1031892	keystroke_e	e	n/a
516.1115	0.075	1032223	keystroke_l	l	n/a
516.471	0.0455	1032942	keystroke_y	y	n/a
516.726	0.06	1033452	keystroke_Key.space	Key.space	n/a
516.8915	0.075	1033783	keystroke_d	d	n/a
517.011	0.075	1034022	keystroke_i	i	n/a
517.221	0.06	1034442	keystroke_f	f	n/a
517.4155	0.076	1034831	keystroke_f	f	n/a
517.5805	0.0605	1035161	keystroke_e	e	n/a
517.6555	0.076	1035311	keystroke_r	r	n/a
518.0305	0.076	1036061	keystroke_Key.enter	Key.enter	n/a
518.115	9.4125	1036230	prompt	n/a	categories same volt subdivision\n
519.381	0.0755	1038762	keystroke_c	c	n/a
519.561	0.075	1039122	keystroke_a	a	n/a
519.651	0.09	1039302	keystroke_t	t	n/a
519.891	0.075	1039782	keystroke_e	e	n/a
520.206	0.075	1040412	keystroke_g	g	n/a
520.416	0.0755	1040832	keystroke_o	o	n/a
520.5655	0.076	1041131	keystroke_r	r	n/a
520.7015	0.09	1041403	keystroke_i	i	n/a
520.9255	0.06	1041851	keystroke_e	e	n/a
521.1215	0.0745	1042243	keystroke_s	s	n/a
521.271	0.0895	1042542	keystroke_Key.space	Key.space	n/a
521.4665	0.0895	1042933	keystroke_s	s	n/a
521.661	0.0755	1043322	keystroke_a	a	n/a
521.796	0.076	1043592	keystroke_m	m	n/a
521.961	0.045	1043922	keystroke_e	e	n/a
522.141	0.09	1044282	keystroke_Key.space	Key.space	n/a
522.591	0.075	1045182	keystroke_v	v	n/a
522.771	0.0605	1045542	keystroke_o	o	n/a
522.981	0.0895	1045962	keystroke_l	l	n/a
523.6405	0.0755	1047281	keystroke_t	t	n/a
523.821	0.1045	1047642	keystroke_Key.space	Key.space	n/a
524.0005	0.0905	1048001	keystroke_s	s	n/a
524.196	0.075	1048392	keystroke_u	u	n/a
524.4355	0.061	1048871	keystroke_b	b	n/a
524.8715	0.06	1049743	keystroke_d	d	n/a
525.036	0.0605	1050072	keystroke_i	i	n/a
525.261	0.0605	1050522	keystroke_v	v	n/a
525.4415	0.1045	1050883	keystroke_i	i	n/a
525.6365	0.0895	1051273	keystroke_s	s	n/a
525.801	0.09	1051602	keystroke_i	i	n/a
525.9065	0.1495	1051813	keystroke_o	o	n/a
526.1015	0.0745	1052203	keystroke_n	n	n/a
527.4505	0.0755	1054901	keystroke_Key.enter	Key.enter	n/a
527.532	10.2405	1055064	prompt	n/a	customs moses possibility portfolio\n
528.3655	0.076	1056731	keystroke_c	c	n/a
528.5605	0.06	1057121	keystroke_u	u	n/a
528.7415	0.089	1057483	keystroke_s	s	n/a
528.9215	0.075	1057843	keystroke_t	t	n/a
529.0705	0.091	1058141	keystroke_o	o	n/a
529.2365	0.089	1058473	keystroke_m	m	n/a
529.4465	0.1045	1058893	keystroke_s	s	n/a
529.716	0.0755	1059432	keystroke_Key.space	Key.space	n/a
530.031	0.09	1060062	keystroke_m	m	n/a
530.226	0.0755	1060452	keystroke_o	o	n/a
530.406	0.09	1060812	keystroke_s	s	n/a
530.6605	0.0605	1061321	keystroke_e	e	n/a
530.9005	0.0755	1061801	keystroke_s	s	n/a
531.0805	0.0905	1062161	keystroke_Key.space	Key.space	n/a
531.5005	0.106	1063001	keystroke_p	p	n/a
531.7255	0.106	1063451	keystroke_o	o	n/a
532.011	0.0905	1064022	keystroke_s	s	n/a
532.191	0.075	1064382	keystroke_s	s	n/a
532.3105	0.076	1064621	keystroke_i	i	n/a
532.716	0.06	1065432	keystroke_b	b	n/a
533.076	0.105	1066152	keystroke_i	i	n/a
533.3315	0.0895	1066663	keystroke_l	l	n/a
533.466	0.15	1066932	keystroke_i	i	n/a
533.6765	0.074	1067353	keystroke_t	t	n/a
533.8405	0.046	1067681	keystroke_y	y	n/a
534.1255	0.075	1068251	keystroke_Key.space	Key.space	n/a
534.3955	0.1055	1068791	keystroke_p	p	n/a
534.696	0.1055	1069392	keystroke_o	o	n/a
534.906	0.06	1069812	keystroke_r	r	n/a
535.1165	0.0745	1070233	keystroke_t	t	n/a
535.4465	0.06	1070893	keystroke_f	f	n/a
535.5815	0.074	1071163	keystroke_o	o	n/a
535.8815	0.104	1071763	keystroke_l	l	n/a
536.286	0.09	1072572	keystroke_i	i	n/a
536.676	0.0755	1073352	keystroke_o	o	n/a
537.711	0.06	1075422	keystroke_Key.enter	Key.enter	n/a
537.7755	13.467	1075551	prompt	n/a	sight bulgarian moreover educational\n
538.491	0.09	1076982	keystroke_s	s	n/a
538.911	0.1195	1077822	keystroke_i	i	n/a
539.1655	0.06	1078331	keystroke_g	g	n/a
539.255	0.076	1078510	keystroke_h	h	n/a
539.436	0.0595	1078872	keystroke_t	t	n/a
539.5855	0.075	1079171	keystroke_Key.space	Key.space	n/a
539.946	0.0895	1079892	keystroke_b	b	n/a
540.0955	0.076	1080191	keystroke_u	u	n/a
541.1905	0.0905	1082381	keystroke_l	l	n/a
541.4455	0.0905	1082891	keystroke_g	g	n/a
541.641	0.0905	1083282	keystroke_a	a	n/a
541.791	0.09	1083582	keystroke_r	r	n/a
542.046	0.0755	1084092	keystroke_i	i	n/a
542.2865	0.075	1084573	keystroke_a	a	n/a
542.4355	0.0755	1084871	keystroke_n	n	n/a
542.7055	0.105	1085411	keystroke_Key.space	Key.space	n/a
543.156	0.0745	1086312	keystroke_m	m	n/a
543.336	0.09	1086672	keystroke_o	o	n/a
543.636	0.09	1087272	keystroke_r	r	n/a
543.696	0.1055	1087392	keystroke_e	e	n/a
544.251	0.0905	1088502	keystroke_o	o	n/a
544.446	0.0745	1088892	keystroke_v	v	n/a
544.6405	0.0605	1089281	keystroke_e	e	n/a
544.6715	0.0895	1089343	keystroke_r	r	n/a
545.466	0.105	1090932	keystroke_Key.space	Key.space	n/a
545.766	0.06	1091532	keystroke_d	d	n/a
545.9905	0.045	1091981	keystroke_e	e	n/a
546.7855	0.045	1093571	keystroke_Key.backspace	Key.backspace	n/a
546.9655	0.075	1093931	keystroke_Key.backspace	Key.backspace	n/a
547.161	0.0445	1094322	keystroke_e	e	n/a
547.3565	0.0295	1094713	keystroke_d	d	n/a
547.4615	0.059	1094923	keystroke_u	u	n/a
547.6865	0.074	1095373	keystroke_c	c	n/a
548.016	0.0745	1096032	keystroke_t	t	n/a
548.451	0.06	1096902	keystroke_Key.backspace	Key.backspace	n/a
548.586	0.105	1097172	keystroke_a	a	n/a
548.751	0.0905	1097502	keystroke_t	t	n/a
548.871	0.105	1097742	keystroke_i	i	n/a
549.006	0.1495	1098012	keystroke_o	o	n/a
549.2155	0.1205	1098431	keystroke_n	n	n/a
549.3955	0.045	1098791	keystroke_a	a	n/a
549.5015	0.09	1099003	keystroke_l	l	n/a
551.166	0.075	1102332	keystroke_Key.enter	Key.enter	n/a
551.247	9.7305	1102494	prompt	n/a	telecharger decision complexity taxes\n
552.126	0.075	1104252	keystroke_t	t	n/a
552.26	0.09	1104520	keystroke_e	e	n/a
552.456	0.075	1104912	keystroke_l	l	n/a
552.921	0.075	1105842	keystroke_e	e	n/a
553.6715	0.089	1107343	keystroke_c	c	n/a
553.8065	0.06	1107613	keystroke_h	h	n/a
553.926	0.0755	1107852	keystroke_a	a	n/a
554.031	0.1055	1108062	keystroke_r	r	n/a
554.3765	0.0595	1108753	keystroke_g	g	n/a
554.526	0.075	1109052	keystroke_e	e	n/a
554.616	0.0745	1109232	keystroke_r	r	n/a
554.811	0.09	1109622	keystroke_Key.space	Key.space	n/a
555.0365	0.0595	1110073	keystroke_d	d	n/a
555.231	0.0605	1110462	keystroke_e	e	n/a
555.5155	0.106	1111031	keystroke_c	c	n/a
555.906	0.0605	1111812	keystroke_i	i	n/a
556.0855	0.09	1112171	keystroke_s	s	n/a
556.251	0.0905	1112502	keystroke_i	i	n/a
556.3705	0.135	1112741	keystroke_o	o	n/a
556.5505	0.09	1113101	keystroke_n	n	n/a
556.7605	0.0905	1113521	keystroke_Key.space	Key.space	n/a
556.9105	0.0755	1113821	keystroke_c	c	n/a
557.031	0.1355	1114062	keystroke_o	o	n/a
557.196	0.104	1114392	keystroke_m	m	n/a
557.346	0.105	1114692	keystroke_p	p	n/a
557.586	0.105	1115172	keystroke_l	l	n/a
557.7815	0.0745	1115563	keystroke_e	e	n/a
558.0215	0.09	1116043	keystroke_x	x	n/a
558.246	0.075	1116492	keystroke_i	i	n/a
558.5005	0.076	1117001	keystroke_t	t	n/a
558.6955	0.045	1117391	keystroke_y	y	n/a
558.921	0.0895	1117842	keystroke_Key.space	Key.space	n/a
559.1755	0.075	1118351	keystroke_t	t	n/a
559.3255	0.091	1118651	keystroke_a	a	n/a
559.656	0.09	1119312	keystroke_x	x	n/a
559.911	0.075	1119822	keystroke_e	e	n/a
560.136	0.06	1120272	keystroke_s	s	n/a
560.916	0.06	1121832	keystroke_Key.enter	Key.enter	n/a
560.9825	7.735	1121965	prompt	n/a	playlist mazda insured faced\n
561.891	0.105	1123782	keystroke_p	p	n/a
562.1165	0.0895	1124233	keystroke_l	l	n/a
562.296	0.09	1124592	keystroke_a	a	n/a
562.611	0.045	1125222	keystroke_y	y	n/a
562.9565	0.0895	1125913	keystroke_l	l	n/a
563.1515	0.089	1126303	keystroke_i	i	n/a
563.2855	0.09	1126571	keystroke_s	s	n/a
563.4355	0.09	1126871	keystroke_t	t	n/a
563.5705	0.09	1127141	keystroke_Key.space	Key.space	n/a
563.796	0.105	1127592	keystroke_m	m	n/a
563.976	0.0905	1127952	keystroke_a	a	n/a
564.366	0.0905	1128732	keystroke_z	z	n/a
564.8015	0.0445	1129603	keystroke_d	d	n/a
565.026	0.0745	1130052	keystroke_a	a	n/a
565.416	0.09	1130832	keystroke_Key.space	Key.space	n/a
565.611	0.09	1131222	keystroke_i	i	n/a
566.091	0.12	1132182	keystroke_n	n	n/a
566.4505	0.09	1132901	keystroke_s	s	n/a
566.615	0.061	1133230	keystroke_u	u	n/a
566.796	0.1055	1133592	keystroke_r	r	n/a
566.9155	0.0905	1133831	keystroke_e	e	n/a
567.1715	0.074	1134343	keystroke_d	d	n/a
567.335	0.105	1134670	keystroke_Key.space	Key.space	n/a
567.5465	0.0745	1135093	keystroke_f	f	n/a
567.711	0.075	1135422	keystroke_a	a	n/a
567.936	0.06	1135872	keystroke_c	c	n/a
568.146	0.0605	1136292	keystroke_e	e	n/a
568.311	0.075	1136622	keystroke_d	d	n/a
568.641	0.0745	1137282	keystroke_Key.enter	Key.enter	n/a
568.7215	9.941	1137443	prompt	n/a	nelson beast cabinets illustrated\n
569.6165	0.0595	1139233	keystroke_n	n	n/a
569.751	0.06	1139502	keystroke_e	e	n/a
570.186	0.09	1140372	keystroke_l	l	n/a
570.456	0.075	1140912	keystroke_s	s	n/a
570.5755	0.0905	1141151	keystroke_o	o	n/a
570.756	0.09	1141512	keystroke_n	n	n/a
570.966	0.074	1141932	keystroke_Key.space	Key.space	n/a
571.326	0.0455	1142652	keystroke_b	b	n/a
571.491	0.075	1142982	keystroke_e	e	n/a
571.671	0.105	1143342	keystroke_a	a	n/a
571.791	0.105	1143582	keystroke_s	s	n/a
572.001	0.09	1144002	keystroke_t	t	n/a
572.286	0.09	1144572	keystroke_Key.space	Key.space	n/a
572.871	0.09	1145742	keystroke_c	c	n/a
573.066	0.045	1146132	keystroke_a	a	n/a
573.396	0.075	1146792	keystroke_b	b	n/a
573.591	0.09	1147182	keystroke_i	i	n/a
573.7555	0.09	1147511	keystroke_n	n	n/a
574.0715	0.044	1148143	keystroke_a	a	n/a
574.461	0.06	1148922	keystroke_Key.backspace	Key.backspace	n/a
574.581	0.0595	1149162	keystroke_e	e	n/a
574.7155	0.091	1149431	keystroke_t	t	n/a
574.9265	0.089	1149853	keystroke_s	s	n/a
575.0905	0.135	1150181	keystroke_Key.space	Key.space	n/a
575.601	0.0745	1151202	keystroke_i	i	n/a
576.081	0.105	1152162	keystroke_l	l	n/a
576.276	0.105	1152552	keystroke_l	l	n/a
576.516	0.074	1153032	keystroke_u	u	n/a
576.771	0.089	1153542	keystroke_s	s	n/a
576.995	0.0615	1153990	keystroke_t	t	n/a
577.176	0.075	1154352	keystroke_r	r	n/a
577.355	0.076	1154710	keystroke_a	a	n/a
577.536	0.09	1155072	keystroke_t	t	n/a
577.731	0.075	1155462	keystroke_e	e	n/a
577.881	0.09	1155762	keystroke_d	d	n/a
578.586	0.075	1157172	keystroke_Key.enter	Key.enter	n/a
578.6685	8.859	1157337	prompt	n/a	loving katie benefit judgment\n
579.561	0.0895	1159122	keystroke_l	l	n/a
579.7715	0.0745	1159543	keystroke_o	o	n/a
579.9815	0.0735	1159963	keystroke_v	v	n/a
580.191	0.135	1160382	keystroke_i	i	n/a
580.431	0.1045	1160862	keystroke_n	n	n/a
580.596	0.0745	1161192	keystroke_g	g	n/a
580.731	0.0745	1161462	keystroke_Key.space	Key.space	n/a
580.9405	0.076	1161881	keystroke_k	k	n/a
581.121	0.0745	1162242	keystroke_a	a	n/a
581.271	0.105	1162542	keystroke_t	t	n/a
581.436	0.09	1162872	keystroke_i	i	n/a
581.6	0.061	1163200	keystroke_e	e	n/a
581.751	0.075	1163502	keystroke_Key.space	Key.space	n/a
582.081	0.03	1164162	keystroke_b	b	n/a
582.246	0.0605	1164492	keystroke_e	e	n/a
582.426	0.06	1164852	keystroke_n	n	n/a
582.5765	0.0595	1165153	keystroke_e	e	n/a
582.9505	0.06	1165901	keystroke_f	f	n/a
583.131	0.075	1166262	keystroke_i	i	n/a
583.296	0.075	1166592	keystroke_t	t	n/a
583.461	0.075	1166922	keystroke_Key.space	Key.space	n/a
583.791	0.075	1167582	keystroke_j	j	n/a
584.016	0.0755	1168032	keystroke_u	u	n/a
584.736	0.0595	1169472	keystroke_d	d	n/a
585.216	0.0595	1170432	keystroke_g	g	n/a
585.696	0.1045	1171392	keystroke_m	m	n/a
585.8905	0.0455	1171781	keystroke_e	e	n/a
586.0105	0.075	1172021	keystroke_n	n	n/a
586.1305	0.0605	1172261	keystroke_t	t	n/a
587.451	0.075	1174902	keystroke_Key.enter	Key.enter	n/a
587.532	12.3555	1175064	prompt	n/a	destiny immigrants districts pumps\n
588.4415	0.0595	1176883	keystroke_d	d	n/a
588.6215	0.06	1177243	keystroke_e	e	n/a
588.8155	0.075	1177631	keystroke_s	s	n/a
589.0105	0.075	1178021	keystroke_t	t	n/a
589.1305	0.075	1178261	keystroke_i	i	n/a
589.296	0.0745	1178592	keystroke_n	n	n/a
589.986	0.06	1179972	keystroke_y	y	n/a
590.226	0.074	1180452	keystroke_Key.space	Key.space	n/a
590.6155	0.12	1181231	keystroke_i	i	n/a
590.856	0.0895	1181712	keystroke_m	m	n/a
591.051	0.0895	1182102	keystroke_m	m	n/a
591.2755	0.0755	1182551	keystroke_i	i	n/a
591.591	0.0755	1183182	keystroke_g	g	n/a
591.8	0.09	1183600	keystroke_r	r	n/a
592.131	0.06	1184262	keystroke_n	n	n/a
592.686	0.09	1185372	keystroke_Key.backspace	Key.backspace	n/a
592.866	0.075	1185732	keystroke_a	a	n/a
592.986	0.09	1185972	keystroke_n	n	n/a
593.136	0.0745	1186272	keystroke_t	t	n/a
593.3755	0.0755	1186751	keystroke_s	s	n/a
593.661	0.09	1187322	keystroke_Key.space	Key.space	n/a
593.871	0.045	1187742	keystroke_d	d	n/a
594.006	0.075	1188012	keystroke_i	i	n/a
594.186	0.075	1188372	keystroke_s	s	n/a
594.3805	0.0605	1188761	keystroke_t	t	n/a
594.561	0.059	1189122	keystroke_r	r	n/a
594.771	0.0745	1189542	keystroke_i	i	n/a
594.9655	0.06	1189931	keystroke_c	c	n/a
595.175	0.061	1190350	keystroke_t	t	n/a
595.8655	0.0755	1191731	keystroke_s	s	n/a
596.061	0.105	1192122	keystroke_Key.space	Key.space	n/a
596.841	0.12	1193682	keystroke_p	p	n/a
597.171	0.105	1194342	keystroke_u	u	n/a
597.441	0.075	1194882	keystroke_m	m	n/a
597.605	0.12	1195210	keystroke_p	p	n/a
597.7705	0.0755	1195541	keystroke_s	s	n/a
599.8105	0.0755	1199621	keystroke_Key.enter	Key.enter	n/a
599.892	12.1755	1199784	prompt	n/a	tobacco mercedes slots empire\n
600.7405	0.0605	1201481	keystroke_t	t	n/a
600.846	0.0905	1201692	keystroke_o	o	n/a
601.191	0.09	1202382	keystroke_b	b	n/a
601.596	0.1045	1203192	keystroke_a	a	n/a
602.0455	0.045	1204091	keystroke_c	c	n/a
602.1965	0.074	1204393	keystroke_c	c	n/a
602.331	0.09	1204662	keystroke_o	o	n/a
602.54	0.0905	1205080	keystroke_Key.space	Key.space	n/a
602.796	0.0745	1205592	keystroke_m	m	n/a
602.9615	0.075	1205923	keystroke_e	e	n/a
603.6355	0.105	1207271	keystroke_r	r	n/a
604.0405	0.0455	1208081	keystroke_c	c	n/a
604.2505	0.06	1208501	keystroke_e	e	n/a
604.5505	0.045	1209101	keystroke_d	d	n/a
604.821	0.06	1209642	keystroke_e	e	n/a
605.0605	0.0605	1210121	keystroke_s	s	n/a
605.285	0.075	1210570	keystroke_Key.space	Key.space	n/a
605.481	0.0895	1210962	keystroke_s	s	n/a
605.63	0.09	1211260	keystroke_l	l	n/a
605.841	0.089	1211682	keystroke_o	o	n/a
606.066	0.075	1212132	keystroke_t	t	n/a
606.276	0.09	1212552	keystroke_s	s	n/a
606.4705	0.09	1212941	keystroke_Key.space	Key.space	n/a
606.9205	0.0605	1213841	keystroke_e	e	n/a
607.086	0.0745	1214172	keystroke_m	m	n/a
607.2655	0.0905	1214531	keystroke_p	p	n/a
607.5055	0.0755	1215011	keystroke_o	o	n/a
607.7605	0.09	1215521	keystroke_i	i	n/a
608.1055	0.045	1216211	keystroke_Key.backspace	Key.backspace	n/a
608.2855	0.045	1216571	keystroke_Key.backspace	Key.backspace	n/a
608.496	0.06	1216992	keystroke_i	i	n/a
608.6615	0.0895	1217323	keystroke_r	r	n/a
608.736	0.0895	1217472	keystroke_e	e	n/a
612.052	0.014	1224104	keystroke_Key.enter	Key.enter	n/a
612.072	11.6505	1224144	prompt	n/a	quality alpha theaters jesse\n
612.861	0.075	1225722	keystroke_q	q	n/a
613.011	0.06	1226022	keystroke_u	u	n/a
613.251	0.045	1226502	keystroke_a	a	n/a
613.461	0.09	1226922	keystroke_l	l	n/a
613.656	0.09	1227312	keystroke_i	i	n/a
613.941	0.0745	1227882	keystroke_t	t	n/a
614.0905	0.0445	1228181	keystroke_y	y	n/a
614.316	0.09	1228632	keystroke_Key.space	Key.space	n/a
614.526	0.1055	1229052	keystroke_a	a	n/a
614.661	0.105	1229322	keystroke_p	p	n/a
615.275	0.075	1230550	keystroke_Key.backspace	Key.backspace	n/a
615.546	0.1195	1231092	keystroke_l	l	n/a
616.011	0.105	1232022	keystroke_p	p	n/a
616.206	0.09	1232412	keystroke_h	h	n/a
616.416	0.1045	1232832	keystroke_a	a	n/a
616.7155	0.09	1233431	keystroke_Key.space	Key.space	n/a
617.046	0.09	1234092	keystroke_t	t	n/a
617.226	0.06	1234452	keystroke_h	h	n/a
617.3915	0.0745	1234783	keystroke_e	e	n/a
617.916	0.1055	1235832	keystroke_a	a	n/a
618.291	0.09	1236582	keystroke_t	t	n/a
619.2205	0.06	1238441	keystroke_e	e	n/a
619.356	0.0745	1238712	keystroke_r	r	n/a
619.6105	0.0755	1239221	keystroke_s	s	n/a
619.8355	0.09	1239671	keystroke_Key.space	Key.space	n/a
620.331	0.075	1240662	keystroke_j	j	n/a
620.496	0.075	1240992	keystroke_e	e	n/a
620.7365	0.0145	1241473	keystroke_e	e	n/a
620.961	0.0755	1241922	keystroke_s	s	n/a
621.411	0.06	1242822	keystroke_Key.backspace	Key.backspace	n/a
621.6205	0.0755	1243241	keystroke_Key.backspace	Key.backspace	n/a
621.726	0.0905	1243452	keystroke_s	s	n/a
621.9055	0.1055	1243811	keystroke_s	s	n/a
622.2205	0.0755	1244441	keystroke_e	e	n/a
623.661	0.0595	1247322	keystroke_Key.enter	Key.enter	n/a
623.7295	18.578	1247459	prompt	n/a	biological publishers municipality expect\n
624.7105	0.075	1249421	keystroke_b	b	n/a
624.8305	0.075	1249661	keystroke_i	i	n/a
625.0555	0.06	1250111	keystroke_o	o	n/a
625.2805	0.0905	1250561	keystroke_l	l	n/a
625.5065	0.0745	1251013	keystroke_o	o	n/a
625.7605	0.075	1251521	keystroke_g	g	n/a
626.0765	0.1045	1252153	keystroke_o	o	n/a
627.906	0.045	1255812	keystroke_Key.backspace	Key.backspace	n/a
628.146	0.075	1256292	keystroke_i	i	n/a
628.4305	0.076	1256861	keystroke_c	c	n/a
628.5655	0.09	1257131	keystroke_a	a	n/a
628.6855	0.09	1257371	keystroke_l	l	n/a
628.896	0.1045	1257792	keystroke_Key.space	Key.space	n/a
629.136	0.0745	1258272	keystroke_p	p	n/a
629.3165	0.059	1258633	keystroke_u	u	n/a
629.5105	0.0605	1259021	keystroke_b	b	n/a
630.081	0.1055	1260162	keystroke_l	l	n/a
630.291	0.091	1260582	keystroke_i	i	n/a
630.4715	0.089	1260943	keystroke_s	s	n/a
630.6515	0.044	1261303	keystroke_h	h	n/a
630.8755	0.0755	1261751	keystroke_e	e	n/a
631.0405	0.0905	1262081	keystroke_r	r	n/a
631.2805	0.076	1262561	keystroke_s	s	n/a
631.371	0.1195	1262742	keystroke_Key.space	Key.space	n/a
631.626	0.075	1263252	keystroke_m	m	n/a
631.881	0.0755	1263762	keystroke_u	u	n/a
632.166	0.0745	1264332	keystroke_n	n	n/a
632.391	0.076	1264782	keystroke_i	i	n/a
632.631	0.075	1265262	keystroke_c	c	n/a
632.7805	0.06	1265561	keystroke_i	i	n/a
632.9755	0.0755	1265951	keystroke_p	p	n/a
633.216	0.09	1266432	keystroke_a	a	n/a
633.395	0.061	1266790	keystroke_l	l	n/a
633.59	0.061	1267180	keystroke_l	l	n/a
634.2215	0.1045	1268443	keystroke_i	i	n/a
634.746	0.06	1269492	keystroke_Key.backspace	Key.backspace	n/a
634.9255	0.06	1269851	keystroke_Key.backspace	Key.backspace	n/a
635.151	0.075	1270302	keystroke_i	i	n/a
635.211	0.135	1270422	keystroke_t	t	n/a
635.826	0.045	1271652	keystroke_y	y	n/a
636.3055	0.1055	1272611	keystroke_Key.space	Key.space	n/a
636.756	0.061	1273512	keystroke_e	e	n/a
636.9665	0.0745	1273933	keystroke_x	x	n/a
637.116	0.105	1274232	keystroke_p	p	n/a
637.371	0.0445	1274742	keystroke_3	3	n/a
638.301	0.09	1276602	keystroke_Key.backspace	Key.backspace	n/a
638.4665	0.089	1276933	keystroke_e	e	n/a
638.4805	0.0305	1276961	keystroke_3	3	n/a
638.661	0.0895	1277322	keystroke_c	c	n/a
638.886	0.075	1277772	keystroke_t	t	n/a
639.2755	0.0605	1278551	keystroke_Key.backspace	Key.backspace	n/a
639.47	0.061	1278940	keystroke_Key.backspace	Key.backspace	n/a
639.92	0.06	1279840	keystroke_Key.backspace	Key.backspace	n/a
640.191	0.09	1280382	keystroke_c	c	n/a
640.4465	0.0585	1280893	keystroke_t	t	n/a
642.2305	0.0755	1284461	keystroke_Key.enter	Key.enter	n/a
642.313	7.554	1284626	prompt	n/a	parking forming restore scheme\n
643.116	0.105	1286232	keystroke_p	p	n/a
643.281	0.0905	1286562	keystroke_a	a	n/a
643.386	0.09	1286772	keystroke_r	r	n/a
643.6255	0.06	1287251	keystroke_k	k	n/a
643.8355	0.0605	1287671	keystroke_i	i	n/a
644.0005	0.0755	1288001	keystroke_n	n	n/a
644.1365	0.06	1288273	keystroke_g	g	n/a
644.2555	0.0755	1288511	keystroke_Key.space	Key.space	n/a
644.436	0.075	1288872	keystroke_f	f	n/a
644.556	0.075	1289112	keystroke_o	o	n/a
644.6765	0.0595	1289353	keystroke_r	r	n/a
644.781	0.09	1289562	keystroke_m	m	n/a
645.081	0.0895	1290162	keystroke_i	i	n/a
645.276	0.089	1290552	keystroke_n	n	n/a
645.426	0.0755	1290852	keystroke_g	g	n/a
645.5605	0.0895	1291121	keystroke_Key.space	Key.space	n/a
645.891	0.09	1291782	keystroke_r	r	n/a
645.966	0.0905	1291932	keystroke_e	e	n/a
646.206	0.09	1292412	keystroke_s	s	n/a
646.4905	0.075	1292981	keystroke_t	t	n/a
646.6705	0.076	1293341	keystroke_o	o	n/a
646.8215	0.0895	1293643	keystroke_r	r	n/a
646.8955	0.0755	1293791	keystroke_e	e	n/a
647.031	0.0895	1294062	keystroke_Key.space	Key.space	n/a
647.3305	0.09	1294661	keystroke_s	s	n/a
647.5555	0.045	1295111	keystroke_c	c	n/a
647.7205	0.045	1295441	keystroke_h	h	n/a
647.8855	0.0605	1295771	keystroke_e	e	n/a
648.0955	0.075	1296191	keystroke_m	m	n/a
649.041	0.0595	1298082	keystroke_e	e	n/a
649.791	0.075	1299582	keystroke_Key.enter	Key.enter	n/a
649.872	9.34	1299744	prompt	n/a	innovations airline tend webcams\n
650.616	0.0745	1301232	keystroke_i	i	n/a
650.7815	0.0745	1301563	keystroke_n	n	n/a
651.0955	0.075	1302191	keystroke_n	n	n/a
651.3505	0.06	1302701	keystroke_o	o	n/a
651.695	0.06	1303390	keystroke_v	v	n/a
652.416	0.09	1304832	keystroke_a	a	n/a
652.641	0.075	1305282	keystroke_t	t	n/a
652.761	0.089	1305522	keystroke_i	i	n/a
652.866	0.15	1305732	keystroke_o	o	n/a
653.061	0.09	1306122	keystroke_n	n	n/a
653.2555	0.0905	1306511	keystroke_s	s	n/a
653.436	0.105	1306872	keystroke_Key.space	Key.space	n/a
653.75	0.0905	1307500	keystroke_a	a	n/a
653.946	0.075	1307892	keystroke_i	i	n/a
654.2	0.076	1308400	keystroke_r	r	n/a
654.6355	0.075	1309271	keystroke_l	l	n/a
654.8905	0.075	1309781	keystroke_i	i	n/a
655.0405	0.105	1310081	keystroke_n	n	n/a
655.1905	0.075	1310381	keystroke_e	e	n/a
655.3705	0.1055	1310741	keystroke_Key.space	Key.space	n/a
655.611	0.059	1311222	keystroke_t	t	n/a
655.746	0.089	1311492	keystroke_e	e	n/a
655.851	0.044	1311702	keystroke_n	n	n/a
656.12	0.0605	1312240	keystroke_d	d	n/a
656.345	0.091	1312690	keystroke_Key.space	Key.space	n/a
656.781	0.06	1313562	keystroke_w	w	n/a
656.9455	0.0755	1313891	keystroke_e	e	n/a
657.201	0.0745	1314402	keystroke_b	b	n/a
657.741	0.0895	1315482	keystroke_c	c	n/a
657.966	0.075	1315932	keystroke_a	a	n/a
658.1005	0.075	1316201	keystroke_m	m	n/a
658.3715	0.0895	1316743	keystroke_s	s	n/a
659.136	0.074	1318272	keystroke_Key.enter	Key.enter	n/a
659.217	13.3905	1318434	prompt	n/a	lebanon inspection flour dress\n
660.1405	0.09	1320281	keystroke_l	l	n/a
660.366	0.06	1320732	keystroke_e	e	n/a
660.861	0.075	1321722	keystroke_b	b	n/a
661.1005	0.1045	1322201	keystroke_o	o	n/a
661.295	0.09	1322590	keystroke_n	n	n/a
662.24	0.075	1324480	keystroke_Key.backspace	Key.backspace	n/a
662.376	0.089	1324752	keystroke_a	a	n/a
662.5555	0.0895	1325111	keystroke_Key.backspace	Key.backspace	n/a
662.766	0.0895	1325532	keystroke_Key.backspace	Key.backspace	n/a
662.9155	0.1195	1325831	keystroke_a	a	n/a
663.276	0.09	1326552	keystroke_n	n	n/a
663.6655	0.0755	1327331	keystroke_o	o	n/a
663.8755	0.0755	1327751	keystroke_n	n	n/a
664.2055	0.075	1328411	keystroke_Key.space	Key.space	n/a
664.4155	0.105	1328831	keystroke_i	i	n/a
664.6105	0.0905	1329221	keystroke_n	n	n/a
664.881	0.075	1329762	keystroke_s	s	n/a
665.046	0.105	1330092	keystroke_p	p	n/a
665.301	0.075	1330602	keystroke_e	e	n/a
665.526	0.06	1331052	keystroke_c	c	n/a
665.721	0.075	1331442	keystroke_t	t	n/a
665.826	0.09	1331652	keystroke_i	i	n/a
665.9	0.1505	1331800	keystroke_o	o	n/a
666.0805	0.09	1332161	keystroke_n	n	n/a
666.2605	0.12	1332521	keystroke_Key.space	Key.space	n/a
666.4705	0.075	1332941	keystroke_f	f	n/a
666.6355	0.075	1333271	keystroke_l	l	n/a
666.8755	0.075	1333751	keystroke_u	u	n/a
667.46	0.06	1334920	keystroke_Key.backspace	Key.backspace	n/a
667.671	0.0595	1335342	keystroke_o	o	n/a
667.851	0.059	1335702	keystroke_u	u	n/a
668.015	0.075	1336030	keystroke_r	r	n/a
668.211	0.074	1336422	keystroke_Key.space	Key.space	n/a
668.496	0.0595	1336992	keystroke_d	d	n/a
668.721	0.09	1337442	keystroke_r	r	n/a
668.886	0.09	1337772	keystroke_e	e	n/a
669.276	0.06	1338552	keystroke_s	s	n/a
