onset	duration	sample	value	key	prompt_text
14.291	10.019	28582	prompt	n/a	the quick brown fox jumps over a lazy dog\n
16.375	0.042	32750	keystroke	t	n/a
16.387	0.105	32774	keystroke	h	n/a
16.507	0.09	33014	keystroke	e	n/a
16.612	0.135	33224	keystroke	Key.space	n/a
16.777	0.135	33554	keystroke	q	n/a
16.897	0.1355	33794	keystroke	u	n/a
17.017	0.1045	34034	keystroke	i	n/a
17.2125	0.104	34425	keystroke	c	n/a
17.3315	0.135	34663	keystroke	k	n/a
17.4675	0.134	34935	keystroke	Key.space	n/a
17.6165	0.105	35233	keystroke	b	n/a
17.8415	0.105	35683	keystroke	r	n/a
17.9615	0.09	35923	keystroke	o	n/a
18.0665	0.105	36133	keystroke	w	n/a
18.1865	0.15	36373	keystroke	n	n/a
18.3515	0.135	36703	keystroke	Key.space	n/a
18.7715	0.09	37543	keystroke	f	n/a
18.8765	0.1055	37753	keystroke	o	n/a
18.9965	0.1205	37993	keystroke	x	n/a
19.132	0.105	38264	keystroke	Key.space	n/a
19.177	0.09	38354	keystroke	j	n/a
19.342	0.105	38684	keystroke	u	n/a
19.537	0.12	39074	keystroke	m	n/a
19.642	0.09	39284	keystroke	p	n/a
19.807	0.12	39614	keystroke	s	n/a
19.972	0.1505	39944	keystroke	Key.space	n/a
20.3615	0.0905	40723	keystroke	a	n/a
20.827	0.0895	41654	keystroke	Key.backspace	n/a
21.0815	0.091	42163	keystroke	o	n/a
21.2175	0.089	42435	keystroke	v	n/a
21.3225	0.134	42645	keystroke	e	n/a
21.4265	0.12	42853	keystroke	r	n/a
21.5615	0.12	43123	keystroke	Key.space	n/a
21.6975	0.134	43395	keystroke	a	n/a
21.8165	0.15	43633	keystroke	Key.space	n/a
22.1315	0.075	44263	keystroke	a	n/a
22.6415	0.09	45283	keystroke	Key.backspace	n/a
22.8825	0.1195	45765	keystroke	l	n/a
23.0315	0.105	46063	keystroke	a	n/a
23.2715	0.12	46543	keystroke	z	n/a
23.4065	0.1055	46813	keystroke	y	n/a
23.527	0.105	47054	keystroke	Key.space	n/a
23.782	0.105	47564	keystroke	d	n/a
23.872	0.12	47744	keystroke	o	n/a
24.022	0.12	48044	keystroke	g	n/a
24.217	0.09	48434	keystroke	Key.enter	n/a
24.314	6.805	48628	prompt	n/a	confidence protest merger starring\n
25.2075	0.089	50415	keystroke	c	n/a
25.2665	0.12	50533	keystroke	o	n/a
25.3715	0.12	50743	keystroke	n	n/a
25.4765	0.105	50953	keystroke	f	n/a
25.5965	0.075	51193	keystroke	i	n/a
25.7615	0.075	51523	keystroke	d	n/a
26.587	0.105	53174	keystroke	e	n/a
26.7075	0.135	53415	keystroke	n	n/a
26.9025	0.1045	53805	keystroke	c	n/a
27.142	0.09	54284	keystroke	e	n/a
27.2465	0.165	54493	keystroke	Key.space	n/a
27.4565	0.121	54913	keystroke	p	n/a
27.5915	0.15	55183	keystroke	r	n/a
27.7275	0.104	55455	keystroke	o	n/a
27.8625	0.104	55725	keystroke	t	n/a
27.9965	0.135	55993	keystroke	e	n/a
28.1325	0.164	56265	keystroke	s	n/a
28.2825	0.089	56565	keystroke	t	n/a
28.4165	0.15	56833	keystroke	Key.space	n/a
28.8525	0.135	57705	keystroke	m	n/a
28.9725	0.105	57945	keystroke	e	n/a
29.0625	0.105	58125	keystroke	r	n/a
29.2725	0.075	58545	keystroke	g	n/a
29.4075	0.09	58815	keystroke	e	n/a
29.4675	0.135	58935	keystroke	r	n/a
29.6175	0.12	59235	keystroke	Key.space	n/a
29.8125	0.1645	59625	keystroke	s	n/a
29.992	0.12	59984	keystroke	t	n/a
30.187	0.165	60374	keystroke	a	n/a
30.337	0.075	60674	keystroke	r	n/a
30.502	0.09	61004	keystroke	r	n/a
30.607	0.18	61214	keystroke	i	n/a
30.727	0.135	61454	keystroke	n	n/a
30.877	0.12	61754	keystroke	g	n/a
31.027	0.09	62054	keystroke	Key.enter	n/a
31.1225	6.9715	62245	prompt	n/a	boost workshops ease driven\n
31.867	0.105	63734	keystroke	b	n/a
31.987	0.09	63974	keystroke	o	n/a
32.182	0.075	64364	keystroke	o	n/a
32.302	0.15	64604	keystroke	s	n/a
32.467	0.09	64934	keystroke	t	n/a
32.572	0.1205	65144	keystroke	Key.space	n/a
32.8425	0.09	65685	keystroke	o	n/a
33.2625	0.12	66525	keystroke	Key.backspace	n/a
33.3975	0.075	66795	keystroke	w	n/a
33.5325	0.1195	67065	keystroke	o	n/a
33.6825	0.105	67365	keystroke	r	n/a
33.8175	0.12	67635	keystroke	k	n/a
34.0425	0.105	68085	keystroke	s	n/a
34.732	0.135	69464	keystroke	h	n/a
34.912	0.18	69824	keystroke	o	n/a
35.062	0.15	70124	keystroke	p	n/a
35.302	0.075	70604	keystroke	s	n/a
35.482	0.12	70964	keystroke	Key.space	n/a
35.707	0.135	71414	keystroke	e	n/a
35.902	0.165	71804	keystroke	a	n/a
36.052	0.12	72104	keystroke	s	n/a
36.157	0.12	72314	keystroke	e	n/a
36.262	0.1345	72524	keystroke	Key.space	n/a
36.697	0.0895	73394	keystroke	d	n/a
36.907	0.105	73814	keystroke	r	n/a
37.147	0.105	74294	keystroke	i	n/a
37.2825	0.15	74565	keystroke	v	n/a
37.3725	0.135	74745	keystroke	e	n/a
37.6725	0.12	75345	keystroke	n	n/a
38.0025	0.09	76005	keystroke	Key.enter	n/a
38.097	6.207	76194	prompt	n/a	peers madonna driver barriers\n
38.857	0.1055	77714	keystroke	p	n/a
39.0525	0.075	78105	keystroke	e	n/a
39.2325	0.075	78465	keystroke	e	n/a
39.3675	0.09	78735	keystroke	r	n/a
39.5625	0.105	79125	keystroke	s	n/a
39.6525	0.165	79305	keystroke	Key.space	n/a
39.8625	0.135	79725	keystroke	m	n/a
39.9825	0.12	79965	keystroke	a	n/a
40.1625	0.075	80325	keystroke	d	n/a
40.2525	0.12	80505	keystroke	o	n/a
40.4175	0.09	80835	keystroke	n	n/a
40.5975	0.09	81195	keystroke	n	n/a
40.7325	0.105	81465	keystroke	a	n/a
40.8825	0.105	81765	keystroke	Key.space	n/a
41.0325	0.105	82065	keystroke	d	n/a
41.2125	0.105	82425	keystroke	r	n/a
41.3625	0.105	82725	keystroke	i	n/a
41.4825	0.09	82965	keystroke	v	n/a
41.602	0.12	83204	keystroke	e	n/a
41.707	0.12	83414	keystroke	r	n/a
41.812	0.15	83624	keystroke	Key.space	n/a
42.112	0.09	84224	keystroke	b	n/a
42.7115	0.121	85423	keystroke	a	n/a
42.8915	0.091	85783	keystroke	r	n/a
43.1015	0.106	86203	keystroke	r	n/a
43.4315	0.12	86863	keystroke	i	n/a
43.597	0.12	87194	keystroke	e	n/a
43.792	0.105	87584	keystroke	r	n/a
44.017	0.105	88034	keystroke	s	n/a
44.212	0.09	88424	keystroke	Key.enter	n/a
44.307	5.412	88614	prompt	n/a	fashion exterior mess site\n
45.097	0.09	90194	keystroke	f	n/a
45.232	0.195	90464	keystroke	a	n/a
45.412	0.0905	90824	keystroke	s	n/a
45.5475	0.12	91095	keystroke	h	n/a
45.6375	0.1345	91275	keystroke	i	n/a
45.773	0.119	91546	keystroke	o	n/a
45.847	0.195	91694	keystroke	n	n/a
46.027	0.105	92054	keystroke	Key.space	n/a
46.192	0.075	92384	keystroke	e	n/a
46.402	0.15	92804	keystroke	x	n/a
46.672	0.105	93344	keystroke	t	n/a
46.8375	0.15	93675	keystroke	e	n/a
46.9725	0.12	93945	keystroke	r	n/a
47.1375	0.12	94275	keystroke	i	n/a
47.2725	0.135	94545	keystroke	o	n/a
47.707	0.09	95414	keystroke	r	n/a
47.887	0.15	95774	keystroke	Key.space	n/a
48.202	0.12	96404	keystroke	m	n/a
48.337	0.09	96674	keystroke	e	n/a
48.547	0.075	97094	keystroke	s	n/a
48.712	0.075	97424	keystroke	s	n/a
48.832	0.1055	97664	keystroke	Key.space	n/a
48.9525	0.09	97905	keystroke	s	n/a
49.0875	0.105	98175	keystroke	i	n/a
49.2525	0.105	98505	keystroke	t	n/a
49.4175	0.075	98835	keystroke	e	n/a
49.5975	0.12	99195	keystroke	Key.enter	n/a
49.7225	6.041	99445	prompt	n/a	lots mattress attack vital\n
50.4825	0.075	100965	keystroke	l	n/a
50.6475	0.1045	101295	keystroke	o	n/a
50.782	0.09	101564	keystroke	t	n/a
50.962	0.105	101924	keystroke	s	n/a
51.082	0.24	102164	keystroke	Key.space	n/a
51.337	0.105	102674	keystroke	m	n/a
51.742	0.105	103484	keystroke	a	n/a
51.937	0.09	103874	keystroke	t	n/a
52.102	0.105	104204	keystroke	t	n/a
52.327	0.09	104654	keystroke	r	n/a
52.687	0.09	105374	keystroke	e	n/a
52.927	0.0755	105854	keystroke	s	n/a
53.1075	0.075	106215	keystroke	s	n/a
53.2425	0.15	106485	keystroke	Key.space	n/a
53.3775	0.09	106755	keystroke	a	n/a
53.5875	0.09	107175	keystroke	t	n/a
53.7525	0.105	107505	keystroke	t	n/a
53.8875	0.15	107775	keystroke	a	n/a
54.0975	0.12	108195	keystroke	c	n/a
54.2775	0.15	108555	keystroke	k	n/a
54.4425	0.135	108885	keystroke	Key.space	n/a
54.6375	0.12	109275	keystroke	v	n/a
54.8025	0.12	109605	keystroke	i	n/a
55.0725	0.075	110145	keystroke	t	n/a
55.2075	0.12	110415	keystroke	a	n/a
55.402	0.12	110804	keystroke	l	n/a
55.657	0.105	111314	keystroke	Key.enter	n/a
55.768	6.896	111536	prompt	n/a	midnight tions caused captain\n
56.557	0.135	113114	keystroke	m	n/a
56.677	0.06	113354	keystroke	i	n/a
56.842	0.1055	113684	keystroke	d	n/a
57.127	0.075	114254	keystroke	n	n/a
57.202	0.12	114404	keystroke	i	n/a
57.337	0.09	114674	keystroke	g	n/a
57.487	0.09	114974	keystroke	h	n/a
57.562	0.12	115124	keystroke	t	n/a
57.727	0.12	115454	keystroke	Key.space	n/a
57.997	0.105	115994	keystroke	t	n/a
58.132	0.09	116264	keystroke	i	n/a
58.807	0.165	117614	keystroke	o	n/a
58.942	0.12	117884	keystroke	n	n/a
59.137	0.135	118274	keystroke	s	n/a
59.332	0.1345	118664	keystroke	Key.space	n/a
59.7525	0.149	119505	keystroke	c	n/a
59.8865	0.151	119773	keystroke	a	n/a
60.0225	0.135	120045	keystroke	u	n/a
60.1725	0.089	120345	keystroke	s	n/a
60.2475	0.06	120495	keystroke	e	n/a
60.3975	0.09	120795	keystroke	d	n/a
60.5025	0.15	121005	keystroke	Key.space	n/a
60.7425	0.075	121485	keystroke	c	n/a
60.8325	0.104	121665	keystroke	a	n/a
61.0265	0.105	122053	keystroke	p	n/a
61.2215	0.12	122443	keystroke	t	n/a
62.1065	0.105	124213	keystroke	a	n/a
62.2265	0.15	124453	keystroke	i	n/a
62.3315	0.136	124663	keystroke	n	n/a
62.5575	0.105	125115	keystroke	Key.enter	n/a
62.6695	8.229	125339	prompt	n/a	verification mines beneath console\n
64.1775	0.135	128355	keystroke	v	n/a
64.342	0.1505	128684	keystroke	e	n/a
64.4775	0.104	128955	keystroke	r	n/a
64.5965	0.075	129193	keystroke	i	n/a
64.7025	0.09	129405	keystroke	f	n/a
64.8215	0.105	129643	keystroke	i	n/a
64.9415	0.136	129883	keystroke	c	n/a
65.0915	0.135	130183	keystroke	a	n/a
65.2115	0.09	130423	keystroke	t	n/a
65.2415	0.09	130483	keystroke	i	n/a
65.3165	0.1355	130633	keystroke	o	n/a
65.407	0.18	130814	keystroke	n	n/a
65.602	0.15	131204	keystroke	Key.space	n/a
66.412	0.165	132824	keystroke	m	n/a
66.562	0.12	133124	keystroke	i	n/a
66.742	0.1505	133484	keystroke	n	n/a
66.9065	0.075	133813	keystroke	e	n/a
67.0415	0.105	134083	keystroke	s	n/a
67.1915	0.105	134383	keystroke	Key.space	n/a
67.4465	0.09	134893	keystroke	b	n/a
67.6415	0.105	135283	keystroke	e	n/a
67.7765	0.105	135553	keystroke	n	n/a
68.2415	0.1205	136483	keystroke	e	n/a
68.4525	0.12	136905	keystroke	a	n/a
68.677	0.12	137354	keystroke	t	n/a
68.812	0.1045	137624	keystroke	h	n/a
69.0215	0.12	138043	keystroke	Key.space	n/a
69.502	0.1355	139004	keystroke	c	n/a
69.6225	0.165	139245	keystroke	o	n/a
69.7275	0.135	139455	keystroke	n	n/a
69.8775	0.09	139755	keystroke	s	n/a
69.9825	0.075	139965	keystroke	o	n/a
70.1625	0.12	140325	keystroke	l	n/a
70.3125	0.105	140625	keystroke	e	n/a
70.8065	0.0905	141613	keystroke	Key.enter	n/a
70.9015	6.072	141803	prompt	n/a	insured thereby email glenn\n
71.602	0.165	143204	keystroke	i	n/a
71.707	0.12	143414	keystroke	n	n/a
71.827	0.105	143654	keystroke	s	n/a
71.992	0.1205	143984	keystroke	u	n/a
72.1275	0.09	144255	keystroke	r	n/a
72.2025	0.0895	144405	keystroke	e	n/a
72.427	0.09	144854	keystroke	d	n/a
72.607	0.135	145214	keystroke	Key.space	n/a
72.772	0.105	145544	keystroke	t	n/a
72.892	0.105	145784	keystroke	h	n/a
72.952	0.105	145904	keystroke	e	n/a
73.7625	0.105	147525	keystroke	r	n/a
73.8975	0.09	147795	keystroke	e	n/a
74.2575	0.105	148515	keystroke	b	n/a
74.4375	0.12	148875	keystroke	y	n/a
74.6615	0.091	149323	keystroke	Key.space	n/a
74.9025	0.0895	149805	keystroke	e	n/a
75.097	0.105	150194	keystroke	m	n/a
75.203	0.1335	150406	keystroke	a	n/a
75.3215	0.105	150643	keystroke	i	n/a
75.4575	0.149	150915	keystroke	l	n/a
75.5915	0.136	151183	keystroke	Key.space	n/a
75.8465	0.105	151693	keystroke	g	n/a
76.1765	0.121	152353	keystroke	l	n/a
76.342	0.09	152684	keystroke	e	n/a
76.477	0.09	152954	keystroke	n	n/a
76.657	0.09	153314	keystroke	n	n/a
76.882	0.0895	153764	keystroke	Key.enter	n/a
76.9765	6.972	153953	prompt	n/a	trucks interval savings doing\n
77.693	0.089	155386	keystroke	t	n/a
77.873	0.089	155746	keystroke	r	n/a
77.963	0.134	155926	keystroke	u	n/a
78.142	0.09	156284	keystroke	s	n/a
78.757	0.09	157514	keystroke	Key.backspace	n/a
78.9975	0.075	157995	keystroke	c	n/a
79.1625	0.105	158325	keystroke	k	n/a
79.7325	0.09	159465	keystroke	s	n/a
79.9425	0.135	159885	keystroke	Key.space	n/a
80.1975	0.15	160395	keystroke	i	n/a
80.2875	0.18	160575	keystroke	n	n/a
80.7825	0.105	161565	keystroke	t	n/a
80.9475	0.134	161895	keystroke	e	n/a
81.0665	0.061	162133	keystroke	r	n/a
81.2775	0.1045	162555	keystroke	v	n/a
81.397	0.135	162794	keystroke	a	n/a
81.547	0.135	163094	keystroke	l	n/a
81.652	0.1345	163304	keystroke	Key.space	n/a
82.0575	0.12	164115	keystroke	s	n/a
82.2815	0.135	164563	keystroke	a	n/a
82.4015	0.105	164803	keystroke	v	n/a
82.5515	0.135	165103	keystroke	i	n/a
82.6115	0.136	165223	keystroke	n	n/a
82.7615	0.06	165523	keystroke	g	n/a
82.9275	0.09	165855	keystroke	s	n/a
83.0325	0.1195	166065	keystroke	Key.space	n/a
83.212	0.105	166424	keystroke	d	n/a
83.287	0.165	166574	keystroke	o	n/a
83.422	0.165	166844	keystroke	i	n/a
83.527	0.15	167054	keystroke	n	n/a
83.647	0.075	167294	keystroke	g	n/a
83.827	0.1205	167654	keystroke	Key.enter	n/a
83.9515	10.647	167903	prompt	n/a	ceremony cigarettes retailer alarm\n
84.7715	0.09	169543	keystroke	c	n/a
84.9965	0.15	169993	keystroke	e	n/a
85.1315	0.135	170263	keystroke	r	n/a
85.3115	0.12	170623	keystroke	m	n/a
85.3575	0.045	170715	keystroke	e	n/a
86.182	0.09	172364	keystroke	Key.backspace	n/a
86.362	0.105	172724	keystroke	Key.backspace	n/a
86.512	0.105	173024	keystroke	e	n/a
86.752	0.135	173504	keystroke	m	n/a
86.872	0.15	173744	keystroke	o	n/a
87.112	0.12	174224	keystroke	n	n/a
87.802	0.075	175604	keystroke	y	n/a
87.982	0.12	175964	keystroke	Key.space	n/a
88.4015	0.1205	176803	keystroke	c	n/a
88.522	0.09	177044	keystroke	i	n/a
88.672	0.09	177344	keystroke	g	n/a
88.867	0.12	177734	keystroke	a	n/a
89.047	0.1045	178094	keystroke	r	n/a
89.3165	0.105	178633	keystroke	t	n/a
89.872	0.105	179744	keystroke	Key.backspace	n/a
89.992	0.105	179984	keystroke	e	n/a
90.4865	0.09	180973	keystroke	t	n/a
90.6815	0.105	181363	keystroke	t	n/a
90.8765	0.09	181753	keystroke	e	n/a
91.1015	0.09	182203	keystroke	s	n/a
91.3115	0.165	182623	keystroke	Key.space	n/a
91.7615	0.12	183523	keystroke	r	n/a
91.9865	0.075	183973	keystroke	e	n/a
92.242	0.105	184484	keystroke	t	n/a
92.392	0.15	184784	keystroke	a	n/a
92.557	0.1195	185114	keystroke	i	n/a
92.7075	0.134	185415	keystroke	l	n/a
92.8715	0.135	185743	keystroke	e	n/a
92.9615	0.135	185923	keystroke	r	n/a
93.1565	0.135	186313	keystroke	Key.space	n/a
93.5165	0.12	187033	keystroke	a	n/a
93.6515	0.105	187303	keystroke	l	n/a
93.8315	0.1955	187663	keystroke	a	n/a
94.012	0.0895	188024	keystroke	r	n/a
94.1615	0.15	188323	keystroke	m	n/a
94.4765	0.1205	188953	keystroke	Key.enter	n/a
94.6015	6.1775	189203	prompt	n/a	lamp religion margin sandwich\n
95.2265	0.1355	190453	keystroke	l	n/a
95.392	0.135	190784	keystroke	a	n/a
95.512	0.165	191024	keystroke	m	n/a
95.647	0.135	191294	keystroke	p	n/a
95.797	0.135	191594	keystroke	Key.space	n/a
96.127	0.105	192254	keystroke	r	n/a
96.277	0.09	192554	keystroke	e	n/a
96.427	0.105	192854	keystroke	l	n/a
96.547	0.15	193094	keystroke	i	n/a
96.9515	0.091	193903	keystroke	g	n/a
97.0565	0.165	194113	keystroke	i	n/a
97.1765	0.135	194353	keystroke	o	n/a
97.2665	0.165	194533	keystroke	n	n/a
97.807	0.09	195614	keystroke	Key.space	n/a
98.047	0.1195	196094	keystroke	m	n/a
98.197	0.18	196394	keystroke	a	n/a
98.3615	0.0755	196723	keystroke	r	n/a
98.572	0.06	197144	keystroke	g	n/a
98.767	0.1345	197534	keystroke	i	n/a
98.827	0.1795	197654	keystroke	n	n/a
98.9915	0.12	197983	keystroke	Key.space	n/a
99.3965	0.105	198793	keystroke	s	n/a
99.5465	0.12	199093	keystroke	a	n/a
99.6815	0.105	199363	keystroke	n	n/a
99.8015	0.09	199603	keystroke	d	n/a
99.9665	0.09	199933	keystroke	w	n/a
100.1015	0.12	200203	keystroke	i	n/a
100.2965	0.105	200593	keystroke	c	n/a
100.4165	0.105	200833	keystroke	h	n/a
100.6715	0.1055	201343	keystroke	Key.enter	n/a
100.7895	6.469	201579	prompt	n/a	drawn discussing montreal rick\n
101.4515	0.09	202903	keystroke	d	n/a
101.7065	0.106	203413	keystroke	r	n/a
102.097	0.1205	204194	keystroke	a	n/a
102.442	0.09	204884	keystroke	w	n/a
102.607	0.1955	205214	keystroke	n	n/a
102.7565	0.165	205513	keystroke	Key.space	n/a
102.997	0.105	205994	keystroke	d	n/a
103.162	0.135	206324	keystroke	i	n/a
103.312	0.075	206624	keystroke	s	n/a
103.507	0.12	207014	keystroke	c	n/a
103.657	0.12	207314	keystroke	u	n/a
103.822	0.0895	207644	keystroke	s	n/a
103.9865	0.105	207973	keystroke	s	n/a
104.1065	0.165	208213	keystroke	i	n/a
104.2415	0.165	208483	keystroke	n	n/a
104.437	0.12	208874	keystroke	g	n/a
104.572	0.075	209144	keystroke	Key.space	n/a
104.782	0.15	209564	keystroke	m	n/a
104.887	0.135	209774	keystroke	o	n/a
105.097	0.12	210194	keystroke	n	n/a
105.277	0.105	210554	keystroke	t	n/a
105.487	0.09	210974	keystroke	r	n/a
105.682	0.075	211364	keystroke	e	n/a
105.862	0.1045	211724	keystroke	a	n/a
105.9815	0.15	211963	keystroke	l	n/a
106.1015	0.135	212203	keystroke	Key.space	n/a
106.477	0.105	212954	keystroke	r	n/a
106.612	0.1195	213224	keystroke	i	n/a
106.7765	0.1055	213553	keystroke	c	n/a
106.897	0.105	213794	keystroke	k	n/a
107.167	0.09	214334	keystroke	Key.enter	n/a
107.2615	5.667	214523	prompt	n/a	drives diet ordinary creek\n
107.8565	0.105	215713	keystroke	d	n/a
108.0525	0.074	216105	keystroke	r	n/a
108.1575	0.135	216315	keystroke	i	n/a
108.2775	0.164	216555	keystroke	v	n/a
108.3975	0.09	216795	keystroke	e	n/a
108.5315	0.106	217063	keystroke	s	n/a
108.6515	0.15	217303	keystroke	Key.space	n/a
109.3265	0.105	218653	keystroke	d	n/a
109.4615	0.12	218923	keystroke	i	n/a
109.6565	0.105	219313	keystroke	e	n/a
109.8365	0.105	219673	keystroke	t	n/a
110.0165	0.12	220033	keystroke	Key.space	n/a
110.4365	0.105	220873	keystroke	o	n/a
110.5715	0.12	221143	keystroke	r	n/a
110.7515	0.105	221503	keystroke	d	n/a
110.8865	0.21	221773	keystroke	i	n/a
111.0215	0.12	222043	keystroke	n	n/a
111.1565	0.165	222313	keystroke	a	n/a
111.2915	0.135	222583	keystroke	r	n/a
111.4415	0.12	222883	keystroke	y	n/a
111.6065	0.15	223213	keystroke	Key.space	n/a
111.877	0.09	223754	keystroke	c	n/a
112.072	0.09	224144	keystroke	r	n/a
112.2365	0.061	224473	keystroke	e	n/a
112.4175	0.06	224835	keystroke	e	n/a
112.5525	0.105	225105	keystroke	k	n/a
112.8365	0.09	225673	keystroke	Key.enter	n/a
112.932	9.6415	225864	prompt	n/a	specific hormone tolerance molecular\n
113.6315	0.09	227263	keystroke	s	n/a
113.7665	0.12	227533	keystroke	p	n/a
113.9015	0.09	227803	keystroke	e	n/a
114.1115	0.105	228223	keystroke	c	n/a
114.2615	0.06	228523	keystroke	i	n/a
114.3815	0.075	228763	keystroke	f	n/a
114.5165	0.075	229033	keystroke	i	n/a
114.8165	0.09	229633	keystroke	c	n/a
114.9665	0.135	229933	keystroke	Key.space	n/a
115.3565	0.12	230713	keystroke	h	n/a
115.4915	0.15	230983	keystroke	o	n/a
115.7465	0.105	231493	keystroke	m	n/a
116.3465	0.105	232693	keystroke	Key.backspace	n/a
116.4965	0.09	232993	keystroke	r	n/a
116.6465	0.135	233293	keystroke	m	n/a
116.7825	0.134	233565	keystroke	o	n/a
117.547	0.165	235094	keystroke	n	n/a
117.892	0.09	235784	keystroke	e	n/a
118.057	0.135	236114	keystroke	Key.space	n/a
118.837	0.045	237674	keystroke	t	n/a
118.867	0.09	237734	keystroke	o	n/a
119.062	0.105	238124	keystroke	l	n/a
119.152	0.15	238304	keystroke	e	n/a
119.257	0.105	238514	keystroke	r	n/a
119.512	0.105	239024	keystroke	a	n/a
119.647	0.12	239294	keystroke	n	n/a
119.782	0.09	239564	keystroke	c	n/a
119.9915	0.075	239983	keystroke	e	n/a
120.0815	0.12	240163	keystroke	Key.space	n/a
120.6665	0.135	241333	keystroke	m	n/a
120.7715	0.12	241543	keystroke	o	n/a
121.2375	0.104	242475	keystroke	e	n/a
121.4615	0.105	242923	keystroke	l	n/a
121.7165	0.12	243433	keystroke	c	n/a
121.8515	0.12	243703	keystroke	u	n/a
122.0315	0.135	244063	keystroke	l	n/a
122.1515	0.15	244303	keystroke	a	n/a
122.2565	0.1355	244513	keystroke	r	n/a
122.467	0.1045	244934	keystroke	Key.enter	n/a
122.577	8.6215	245154	prompt	n/a	reporting parcel occupations automation\n
123.637	0.165	247274	keystroke	r	n/a
123.817	0.015	247634	keystroke	e	n/a
123.832	0.1195	247664	keystroke	p	n/a
123.9665	0.12	247933	keystroke	o	n/a
124.1165	0.09	248233	keystroke	r	n/a
124.7165	0.12	249433	keystroke	t	n/a
124.8215	0.1655	249643	keystroke	i	n/a
124.942	0.135	249884	keystroke	n	n/a
125.092	0.075	250184	keystroke	g	n/a
125.212	0.135	250424	keystroke	Key.space	n/a
125.497	0.12	250994	keystroke	p	n/a
125.692	0.15	251384	keystroke	a	n/a
125.827	0.105	251654	keystroke	r	n/a
126.112	0.105	252224	keystroke	c	n/a
126.322	0.075	252644	keystroke	e	n/a
126.472	0.15	252944	keystroke	l	n/a
126.592	0.135	253184	keystroke	Key.space	n/a
127.0565	0.09	254113	keystroke	o	n/a
127.642	0.12	255284	keystroke	c	n/a
127.8515	0.09	255703	keystroke	c	n/a
128.0015	0.165	256003	keystroke	u	n/a
128.1515	0.15	256303	keystroke	p	n/a
128.542	0.18	257084	keystroke	a	n/a
128.692	0.12	257384	keystroke	t	n/a
128.827	0.12	257654	keystroke	i	n/a
128.917	0.1195	257834	keystroke	o	n/a
128.9915	0.15	257983	keystroke	n	n/a
129.1565	0.105	258313	keystroke	s	n/a
129.2915	0.135	258583	keystroke	Key.space	n/a
129.547	0.105	259094	keystroke	a	n/a
129.682	0.135	259364	keystroke	u	n/a
129.832	0.105	259664	keystroke	t	n/a
130.042	0.15	260084	keystroke	o	n/a
130.237	0.135	260474	keystroke	m	n/a
130.462	0.15	260924	keystroke	a	n/a
130.582	0.12	261164	keystroke	t	n/a
130.687	0.135	261374	keystroke	i	n/a
130.777	0.12	261554	keystroke	o	n/a
130.852	0.12	261704	keystroke	n	n/a
131.077	0.12	262154	keystroke	Key.enter	n/a
131.201	7.7675	262402	prompt	n/a	concrete lopez cohen gabriel\n
132.067	0.1355	264134	keystroke	c	n/a
132.187	0.1355	264374	keystroke	o	n/a
132.2925	0.135	264585	keystroke	n	n/a
132.4425	0.09	264885	keystroke	c	n/a
132.7125	0.0745	265425	keystroke	r	n/a
132.877	0.045	265754	keystroke	e	n/a
133.717	0.09	267434	keystroke	t	n/a
133.837	0.105	267674	keystroke	e	n/a
134.032	0.12	268064	keystroke	Key.space	n/a
134.572	0.075	269144	keystroke	l	n/a
134.752	0.12	269504	keystroke	o	n/a
134.962	0.135	269924	keystroke	p	n/a
135.142	0.09	270284	keystroke	e	n/a
135.487	0.12	270974	keystroke	z	n/a
135.712	0.12	271424	keystroke	Key.space	n/a
136.0265	0.12	272053	keystroke	c	n/a
136.1015	0.12	272203	keystroke	o	n/a
136.3415	0.12	272683	keystroke	h	n/a
136.5365	0.09	273073	keystroke	e	n/a
136.6865	0.135	273373	keystroke	n	n/a
136.8065	0.12	273613	keystroke	Key.space	n/a
137.4815	0.09	274963	keystroke	g	n/a
137.677	0.15	275354	keystroke	a	n/a
137.947	0.09	275894	keystroke	b	n/a
138.232	0.075	276464	keystroke	r	n/a
138.322	0.135	276644	keystroke	i	n/a
138.517	0.075	277034	keystroke	e	n/a
138.637	0.105	277274	keystroke	l	n/a
138.862	0.105	277724	keystroke	Key.enter	n/a
138.971	7.6325	277942	prompt	n/a	paste drawings counsel variable\n
139.6865	0.12	279373	keystroke	p	n/a
139.8365	0.135	279673	keystroke	a	n/a
139.9865	0.135	279973	keystroke	s	n/a
140.1515	0.075	280303	keystroke	t	n/a
140.287	0.09	280574	keystroke	e	n/a
140.422	0.135	280844	keystroke	Key.space	n/a
140.572	0.12	281144	keystroke	d	n/a
140.737	0.03	281474	keystroke	d	n/a
140.752	0.09	281504	keystroke	r	n/a
140.902	0.1655	281804	keystroke	a	n/a
141.3665	0.09	282733	keystroke	Key.backspace	n/a
141.5615	0.0605	283123	keystroke	Key.backspace	n/a
141.712	0.0895	283424	keystroke	Key.backspace	n/a
141.7865	0.15	283573	keystroke	r	n/a
142.0115	0.12	284023	keystroke	a	n/a
142.2815	0.09	284563	keystroke	w	n/a
142.5515	0.15	285103	keystroke	i	n/a
142.6415	0.15	285283	keystroke	n	n/a
142.8065	0.09	285613	keystroke	g	n/a
142.9715	0.105	285943	keystroke	s	n/a
143.1215	0.15	286243	keystroke	Key.space	n/a
143.4815	0.12	286963	keystroke	c	n/a
143.5865	0.105	287173	keystroke	o	n/a
143.6615	0.105	287323	keystroke	u	n/a
143.8715	0.09	287743	keystroke	n	n/a
144.007	0.1055	288014	keystroke	s	n/a
144.1425	0.105	288285	keystroke	e	n/a
144.2925	0.1495	288585	keystroke	l	n/a
144.411	0.136	288822	keystroke	Key.space	n/a
144.727	0.15	289454	keystroke	v	n/a
144.937	0.135	289874	keystroke	a	n/a
145.2665	0.105	290533	keystroke	r	n/a
145.4465	0.15	290893	keystroke	i	n/a
145.7615	0.105	291523	keystroke	a	n/a
145.8965	0.135	291793	keystroke	b	n/a
146.0765	0.12	292153	keystroke	l	n/a
146.3015	0.09	292603	keystroke	e	n/a
146.4965	0.105	292993	keystroke	Key.enter	n/a
146.609	6.9245	293218	prompt	n/a	murder staffing prefer frames\n
147.517	0.105	295034	keystroke	m	n/a
147.742	0.09	295484	keystroke	u	n/a
148.222	0.09	296444	keystroke	r	n/a
148.402	0.0895	296804	keystroke	d	n/a
148.6115	0.12	297223	keystroke	e	n/a
148.7025	0.15	297405	keystroke	r	n/a
148.8665	0.15	297733	keystroke	Key.space	n/a
149.122	0.165	298244	keystroke	s	n/a
149.632	0.135	299264	keystroke	t	n/a
149.812	0.1195	299624	keystroke	a	n/a
150.1565	0.105	300313	keystroke	f	n/a
150.3665	0.09	300733	keystroke	f	n/a
150.5465	0.165	301093	keystroke	i	n/a
150.6365	0.151	301273	keystroke	n	n/a
150.8025	0.12	301605	keystroke	g	n/a
150.9365	0.105	301873	keystroke	Key.space	n/a
151.1315	0.136	302263	keystroke	p	n/a
151.4465	0.09	302893	keystroke	r	n/a
151.5825	0.089	303165	keystroke	e	n/a
151.8225	0.149	303645	keystroke	f	n/a
152.0325	0.134	304065	keystroke	e	n/a
152.1515	0.12	304303	keystroke	r	n/a
152.2865	0.12	304573	keystroke	Key.space	n/a
152.4665	0.06	304933	keystroke	f	n/a
152.677	0.12	305354	keystroke	r	n/a
152.842	0.15	305684	keystroke	a	n/a
152.977	0.135	305954	keystroke	m	n/a
153.097	0.09	306194	keystroke	e	n/a
153.277	0.045	306554	keystroke	s	n/a
153.412	0.12	306824	keystroke	Key.enter	n/a
153.536	7.3175	307072	prompt	n/a	basketball demands honor bridge\n
154.2815	0.09	308563	keystroke	b	n/a
154.4315	0.1355	308863	keystroke	a	n/a
154.597	0.105	309194	keystroke	s	n/a
154.762	0.12	309524	keystroke	k	n/a
154.927	0.0745	309854	keystroke	e	n/a
155.091	0.0755	310182	keystroke	t	n/a
155.3465	0.06	310693	keystroke	b	n/a
155.4515	0.12	310903	keystroke	a	n/a
155.6915	0.06	311383	keystroke	l	n/a
155.8565	0.12	311713	keystroke	l	n/a
155.9915	0.12	311983	keystroke	Key.space	n/a
156.1565	0.09	312313	keystroke	d	n/a
156.3665	0.06	312733	keystroke	e	n/a
156.4715	0.135	312943	keystroke	m	n/a
156.6365	0.135	313273	keystroke	a	n/a
156.8015	0.061	313603	keystroke	n	n/a
156.9065	0.06	313813	keystroke	d	n/a
158.017	0.045	316034	keystroke	s	n/a
158.077	0.09	316154	keystroke	Key.space	n/a
158.302	0.105	316604	keystroke	h	n/a
158.392	0.105	316784	keystroke	o	n/a
158.557	0.12	317114	keystroke	n	n/a
158.692	0.105	317384	keystroke	o	n/a
158.827	0.105	317654	keystroke	r	n/a
158.9915	0.105	317983	keystroke	Key.space	n/a
159.4115	0.105	318823	keystroke	b	n/a
159.8615	0.09	319723	keystroke	r	n/a
159.9965	0.12	319993	keystroke	i	n/a
160.1625	0.104	320325	keystroke	d	n/a
160.4015	0.15	320803	keystroke	g	n/a
160.5375	0.104	321075	keystroke	e	n/a
160.7465	0.105	321493	keystroke	Key.enter	n/a
160.8565	8.022	321713	prompt	n/a	placement hunt free three\n
161.662	0.12	323324	keystroke	;	n/a
161.827	0.105	323654	keystroke	a	n/a
162.457	0.089	324914	keystroke	Key.backspace	n/a
162.6515	0.075	325303	keystroke	Key.backspace	n/a
163.162	0.12	326324	keystroke	p	n/a
163.387	0.135	326774	keystroke	l	n/a
163.5675	0.1345	327135	keystroke	a	n/a
163.762	0.1055	327524	keystroke	c	n/a
164.317	0.0745	328634	keystroke	e	n/a
164.4815	0.12	328963	keystroke	m	n/a
164.6615	0.075	329323	keystroke	e	n/a
164.7665	0.12	329533	keystroke	n	n/a
164.9315	0.105	329863	keystroke	t	n/a
165.0815	0.12	330163	keystroke	Key.space	n/a
165.6365	0.105	331273	keystroke	h	n/a
165.8465	0.105	331693	keystroke	u	n/a
166.0565	0.105	332113	keystroke	n	n/a
166.252	0.1195	332504	keystroke	t	n/a
166.3865	0.1205	332773	keystroke	Key.space	n/a
166.5825	0.09	333165	keystroke	f	n/a
167.2265	0.075	334453	keystroke	r	n/a
167.4375	0.059	334875	keystroke	e	n/a
167.6325	0.059	335265	keystroke	e	n/a
167.7665	0.105	335533	keystroke	Key.space	n/a
167.8875	0.12	335775	keystroke	t	n/a
167.9925	0.134	335985	keystroke	h	n/a
168.1565	0.12	336313	keystroke	r	n/a
168.3665	0.06	336733	keystroke	e	n/a
168.5315	0.091	337063	keystroke	e	n/a
168.7865	0.09	337573	keystroke	Key.enter	n/a
168.8815	6.162	337763	prompt	n/a	newbie leaving make aspect\n
169.597	0.12	339194	keystroke	n	n/a
169.822	0.12	339644	keystroke	e	n/a
170.002	0.105	340004	keystroke	w	n/a
170.2865	0.09	340573	keystroke	b	n/a
170.4675	0.089	340935	keystroke	i	n/a
170.6465	0.105	341293	keystroke	e	n/a
170.7965	0.12	341593	keystroke	Key.space	n/a
171.0825	0.104	342165	keystroke	l	n/a
171.2015	0.076	342403	keystroke	e	n/a
171.3675	0.15	342735	keystroke	a	n/a
171.4875	0.135	342975	keystroke	v	n/a
171.6375	0.1345	343275	keystroke	i	n/a
171.6965	0.1505	343393	keystroke	n	n/a
171.862	0.09	343724	keystroke	g	n/a
171.967	0.105	343934	keystroke	Key.space	n/a
172.117	0.12	344234	keystroke	m	n/a
172.252	0.12	344504	keystroke	a	n/a
172.387	0.12	344774	keystroke	k	n/a
172.522	0.09	345044	keystroke	e	n/a
172.672	0.105	345344	keystroke	Key.space	n/a
173.362	0.345	346724	keystroke	a	n/a
173.977	0.1045	347954	keystroke	s	n/a
174.1565	0.1345	348313	keystroke	p	n/a
174.307	0.0745	348614	keystroke	e	n/a
174.5315	0.105	349063	keystroke	c	n/a
174.7565	0.091	349513	keystroke	t	n/a
174.937	0.105	349874	keystroke	Key.enter	n/a
175.0465	7.452	350093	prompt	n/a	weekend dropped fired seminars\n
175.747	0.0895	351494	keystroke	w	n/a
175.9415	0.06	351883	keystroke	e	n/a
176.1065	0.106	352213	keystroke	e	n/a
176.2265	0.12	352453	keystroke	k	n/a
176.6915	0.12	353383	keystroke	n	n/a
177.1715	0.1205	354343	keystroke	Key.backspace	n/a
177.412	0.09	354824	keystroke	e	n/a
177.592	0.105	355184	keystroke	n	n/a
177.802	0.09	355604	keystroke	d	n/a
177.952	0.15	355904	keystroke	Key.space	n/a
178.432	0.09	356864	keystroke	d	n/a
178.5965	0.12	357193	keystroke	r	n/a
178.7315	0.105	357463	keystroke	o	n/a
178.8815	0.105	357763	keystroke	p	n/a
179.0465	0.12	358093	keystroke	p	n/a
179.1815	0.06	358363	keystroke	e	n/a
179.3615	0.105	358723	keystroke	d	n/a
179.5265	0.105	359053	keystroke	Key.space	n/a
179.7515	0.075	359503	keystroke	f	n/a
179.8415	0.12	359683	keystroke	i	n/a
180.0065	0.09	360013	keystroke	r	n/a
180.1115	0.09	360223	keystroke	e	n/a
180.3365	0.09	360673	keystroke	d	n/a
180.4715	0.12	360943	keystroke	Key.space	n/a
180.937	0.12	361874	keystroke	s	n/a
181.132	0.075	362264	keystroke	e	n/a
181.3265	0.15	362653	keystroke	m	n/a
181.5065	0.12	363013	keystroke	i	n/a
181.6415	0.09	363283	keystroke	n	n/a
181.8215	0.15	363643	keystroke	a	n/a
181.9265	0.135	363853	keystroke	r	n/a
182.182	0.089	364364	keystroke	s	n/a
182.3915	0.105	364783	keystroke	Key.enter	n/a
182.5015	7.617	365003	prompt	n/a	sources lawn distinction beads\n
183.2915	0.12	366583	keystroke	s	n/a
183.4565	0.15	366913	keystroke	o	n/a
183.5615	0.136	367123	keystroke	u	n/a
183.6975	0.089	367395	keystroke	r	n/a
183.9215	0.105	367843	keystroke	c	n/a
184.1465	0.075	368293	keystroke	e	n/a
184.2815	0.105	368563	keystroke	s	n/a
184.4315	0.1345	368863	keystroke	Key.space	n/a
184.582	0.12	369164	keystroke	l	n/a
184.717	0.135	369434	keystroke	a	n/a
185.0165	0.1195	370033	keystroke	w	n/a
185.407	0.15	370814	keystroke	n	n/a
185.572	0.12	371144	keystroke	Key.space	n/a
186.067	0.105	372134	keystroke	d	n/a
186.397	0.135	372794	keystroke	i	n/a
186.562	0.105	373124	keystroke	s	n/a
186.877	0.12	373754	keystroke	t	n/a
187.027	0.135	374054	keystroke	i	n/a
187.117	0.165	374234	keystroke	n	n/a
187.402	0.09	374804	keystroke	c	n/a
187.597	0.075	375194	keystroke	t	n/a
187.687	0.135	375374	keystroke	i	n/a
187.792	0.12	375584	keystroke	o	n/a
187.867	0.15	375734	keystroke	n	n/a
187.987	0.1195	375974	keystroke	Key.space	n/a
188.347	0.105	376694	keystroke	b	n/a
188.602	0.135	377204	keystroke	a	n/a
189.037	0.12	378074	keystroke	Key.backspace	n/a
189.172	0.105	378344	keystroke	e	n/a
189.262	0.224	378524	keystroke	a	n/a
189.502	0.09	379004	keystroke	d	n/a
189.787	0.09	379574	keystroke	s	n/a
190.027	0.089	380054	keystroke	Key.enter	n/a
190.121	9.102	380242	prompt	n/a	retailers upgrades pants tracy\n
190.912	0.135	381824	keystroke	r	n/a
191.047	0.09	382094	keystroke	e	n/a
191.587	0.104	383174	keystroke	t	n/a
191.736	0.121	383472	keystroke	a	n/a
191.886	0.106	383772	keystroke	i	n/a
192.052	0.12	384104	keystroke	l	n/a
192.232	0.18	384464	keystroke	e	n/a
192.367	0.135	384734	keystroke	r	n/a
192.6665	0.105	385333	keystroke	s	n/a
192.8015	0.15	385603	keystroke	Key.space	n/a
193.0715	0.12	386143	keystroke	u	n/a
193.4315	0.1205	386863	keystroke	p	n/a
193.627	0.09	387254	keystroke	g	n/a
193.867	0.12	387734	keystroke	r	n/a
194.047	0.1195	388094	keystroke	a	n/a
194.2415	0.12	388483	keystroke	d	n/a
194.4665	0.0755	388933	keystroke	e	n/a
194.677	0.06	389354	keystroke	s	n/a
194.902	0.149	389804	keystroke	Key.space	n/a
195.757	0.015	391514	keystroke	p	n/a
195.787	0.105	391574	keystroke	a	n/a
195.952	0.12	391904	keystroke	n	n/a
196.132	0.12	392264	keystroke	t	n/a
196.432	0.09	392864	keystroke	s	n/a
196.597	0.135	393194	keystroke	Key.space	n/a
197.212	0.105	394424	keystroke	t	n/a
197.452	0.075	394904	keystroke	r	n/a
197.827	0.045	395654	keystroke	r	n/a
198.261	0.121	396522	keystroke	Key.backspace	n/a
198.397	0.105	396794	keystroke	a	n/a
198.651	0.106	397302	keystroke	c	n/a
198.862	0.09	397724	keystroke	y	n/a
199.132	0.089	398264	keystroke	Key.enter	n/a
199.2265	9.537	398453	prompt	n/a	heads reduces effects defence\n
200.152	0.135	400304	keystroke	h	n/a
200.4515	0.12	400903	keystroke	e	n/a
201.0215	0.135	402043	keystroke	a	n/a
201.2615	0.045	402523	keystroke	d	n/a
201.4715	0.105	402943	keystroke	s	n/a
201.6065	0.135	403213	keystroke	Key.space	n/a
201.9215	0.09	403843	keystroke	r	n/a
202.2665	0.075	404533	keystroke	e	n/a
202.5065	0.09	405013	keystroke	d	n/a
202.6415	0.135	405283	keystroke	u	n/a
203.0315	0.09	406063	keystroke	e	n/a
203.7215	0.1055	407443	keystroke	Key.backspace	n/a
203.871	0.121	407742	keystroke	c	n/a
204.127	0.0745	408254	keystroke	e	n/a
204.3065	0.09	408613	keystroke	s	n/a
204.4865	0.12	408973	keystroke	Key.space	n/a
204.921	0.0905	409842	keystroke	e	n/a
205.1165	0.09	410233	keystroke	f	n/a
205.2965	0.135	410593	keystroke	f	n/a
205.4465	0.105	410893	keystroke	e	n/a
205.6865	0.09	411373	keystroke	c	n/a
205.8665	0.09	411733	keystroke	t	n/a
206.0615	0.09	412123	keystroke	s	n/a
206.2115	0.135	412423	keystroke	Key.space	n/a
206.4215	0.105	412843	keystroke	d	n/a
206.6465	0.09	413293	keystroke	e	n/a
206.9015	0.105	413803	keystroke	f	n/a
207.5165	0.105	415033	keystroke	e	n/a
207.7865	0.135	415573	keystroke	n	n/a
208.0865	0.105	416173	keystroke	c	n/a
208.3265	0.075	416653	keystroke	e	n/a
208.672	0.09	417344	keystroke	Key.enter	n/a
208.7665	7.8865	417533	prompt	n/a	raising hart wednesday mechanics\n
209.407	0.135	418814	keystroke	r	n/a
209.647	0.105	419294	keystroke	a	n/a
209.797	0.12	419594	keystroke	i	n/a
209.962	0.075	419924	keystroke	s	n/a
210.082	0.135	420164	keystroke	i	n/a
210.172	0.135	420344	keystroke	n	n/a
210.322	0.09	420644	keystroke	g	n/a
210.442	0.09	420884	keystroke	Key.space	n/a
210.592	0.12	421184	keystroke	h	n/a
210.712	0.15	421424	keystroke	a	n/a
210.817	0.105	421634	keystroke	r	n/a
211.072	0.0745	422144	keystroke	t	n/a
211.1915	0.1205	422383	keystroke	Key.space	n/a
211.627	0.075	423254	keystroke	w	n/a
211.807	0.09	423614	keystroke	e	n/a
212.272	0.21	424544	keystroke	n	n/a
213.2165	0.105	426433	keystroke	Key.backspace	n/a
213.3815	0.09	426763	keystroke	d	n/a
213.5315	0.12	427063	keystroke	n	n/a
213.6365	0.09	427273	keystroke	e	n/a
213.8015	0.0905	427603	keystroke	s	n/a
214.042	0.134	428084	keystroke	d	n/a
214.221	0.121	428442	keystroke	a	n/a
214.371	0.135	428742	keystroke	y	n/a
214.521	0.165	429042	keystroke	Key.space	n/a
215.016	0.15	430032	keystroke	m	n/a
215.196	0.09	430392	keystroke	e	n/a
215.4815	0.105	430963	keystroke	c	n/a
215.6315	0.12	431263	keystroke	h	n/a
215.7965	0.09	431593	keystroke	a	n/a
215.9015	0.135	431803	keystroke	n	n/a
216.0215	0.105	432043	keystroke	i	n/a
216.1715	0.075	432343	keystroke	c	n/a
216.382	0.09	432764	keystroke	s	n/a
216.547	0.105	433094	keystroke	Key.enter	n/a
216.6555	10.888	433311	prompt	n/a	threat madness dies musician\n
217.5665	0.06	435133	keystroke	t	n/a
217.6115	0.045	435223	keystroke	h	n/a
217.7015	0.1355	435403	keystroke	r	n/a
217.8215	0.0895	435643	keystroke	e	n/a
217.971	0.105	435942	keystroke	a	n/a
218.046	0.121	436092	keystroke	t	n/a
218.182	0.12	436364	keystroke	Key.space	n/a
218.692	0.15	437384	keystroke	m	n/a
218.872	0.105	437744	keystroke	a	n/a
219.022	0.075	438044	keystroke	d	n/a
219.262	0.12	438524	keystroke	n	n/a
219.397	0.09	438794	keystroke	e	n/a
219.622	0.045	439244	keystroke	s	n/a
219.742	0.09	439484	keystroke	s	n/a
219.877	0.12	439754	keystroke	Key.space	n/a
220.147	0.09	440294	keystroke	d	n/a
220.252	0.09	440504	keystroke	i	n/a
220.387	0.075	440774	keystroke	e	n/a
220.537	0.105	441074	keystroke	s	n/a
220.687	0.105	441374	keystroke	Key.space	n/a
220.9265	0.09	441853	keystroke	m	n/a
221.1365	0.1205	442273	keystroke	u	n/a
221.272	0.105	442544	keystroke	s	n/a
221.556	0.091	443112	keystroke	c	n/a
221.707	0.119	443414	keystroke	i	n/a
222.2015	0.06	444403	keystroke	s	n/a
223.882	0.105	447764	keystroke	Key.backspace	n/a
224.0915	0.12	448183	keystroke	Key.backspace	n/a
224.8265	0.1055	449653	keystroke	Key.backspace	n/a
225.967	0.09	451934	keystroke	i	n/a
226.326	0.106	452652	keystroke	c	n/a
226.507	0.12	453014	keystroke	i	n/a
226.972	0.104	453944	keystroke	a	n/a
227.152	0.105	454304	keystroke	n	n/a
227.436	0.105	454872	keystroke	Key.enter	n/a
227.548	8.6355	455096	prompt	n/a	reducing hierarchy reliable amazing\n
228.337	0.12	456674	keystroke	r	n/a
228.472	0.075	456944	keystroke	e	n/a
228.667	0.09	457334	keystroke	d	n/a
228.802	0.09	457604	keystroke	u	n/a
228.937	0.075	457874	keystroke	c	n/a
229.027	0.1345	458054	keystroke	i	n/a
229.102	0.1495	458204	keystroke	n	n/a
229.2365	0.09	458473	keystroke	g	n/a
229.3415	0.15	458683	keystroke	Key.space	n/a
229.5215	0.135	459043	keystroke	h	n/a
229.9415	0.15	459883	keystroke	i	n/a
230.2715	0.09	460543	keystroke	e	n/a
230.5115	0.15	461023	keystroke	r	n/a
230.7515	0.12	461503	keystroke	a	n/a
231.426	0.105	462852	keystroke	r	n/a
231.696	0.105	463392	keystroke	c	n/a
231.861	0.09	463722	keystroke	h	n/a
232.071	0.135	464142	keystroke	y	n/a
232.191	0.15	464382	keystroke	Key.space	n/a
232.446	0.12	464892	keystroke	r	n/a
232.626	0.075	465252	keystroke	e	n/a
233.2415	0.105	466483	keystroke	l	n/a
233.4065	0.135	466813	keystroke	i	n/a
233.6165	0.195	467233	keystroke	a	n/a
233.7815	0.105	467563	keystroke	b	n/a
234.0065	0.105	468013	keystroke	l	n/a
234.1715	0.09	468343	keystroke	e	n/a
234.3215	0.1205	468643	keystroke	Key.space	n/a
234.861	0.135	469722	keystroke	a	n/a
235.026	0.1655	470052	keystroke	m	n/a
235.2215	0.105	470443	keystroke	a	n/a
235.4615	0.105	470923	keystroke	z	n/a
235.5815	0.18	471163	keystroke	i	n/a
235.6865	0.1505	471373	keystroke	n	n/a
235.867	0.105	471734	keystroke	g	n/a
236.077	0.105	472154	keystroke	Key.enter	n/a
236.1865	9.9415	472373	prompt	n/a	entered jeffrey vintage officials\n
236.842	0.09	473684	keystroke	e	n/a
236.962	0.18	473924	keystroke	n	n/a
237.3215	0.12	474643	keystroke	t	n/a
238.0115	0.225	476023	keystroke	e	n/a
238.2515	0.075	476503	keystroke	r	n/a
238.3865	0.12	476773	keystroke	e	n/a
238.717	0.105	477434	keystroke	d	n/a
239.0765	0.015	478153	keystroke	Key.space	n/a
239.1815	0.15	478363	keystroke	j	n/a
239.3615	0.105	478723	keystroke	e	n/a
239.9615	0.09	479923	keystroke	f	n/a
240.1265	0.135	480253	keystroke	f	n/a
240.4115	0.09	480823	keystroke	r	n/a
240.5765	0.09	481153	keystroke	e	n/a
240.7865	0.1355	481573	keystroke	y	n/a
240.8915	0.1795	481783	keystroke	Key.space	n/a
241.4915	0.15	482983	keystroke	v	n/a
241.6715	0.135	483343	keystroke	i	n/a
241.9265	0.135	483853	keystroke	n	n/a
242.1215	0.135	484243	keystroke	t	n/a
242.3165	0.165	484633	keystroke	a	n/a
242.4965	0.105	484993	keystroke	g	n/a
242.6165	0.09	485233	keystroke	e	n/a
242.7515	0.15	485503	keystroke	Key.space	n/a
244.431	0.12	488862	keystroke	o	n/a
244.611	0.075	489222	keystroke	f	n/a
244.761	0.105	489522	keystroke	f	n/a
244.896	0.12	489792	keystroke	i	n/a
245.121	0.106	490242	keystroke	c	n/a
245.242	0.119	490484	keystroke	i	n/a
245.451	0.105	490902	keystroke	a	n/a
245.616	0.135	491232	keystroke	l	n/a
245.812	0.0895	491624	keystroke	s	n/a
246.0365	0.09	492073	keystroke	Key.enter	n/a
246.1315	12.2065	492263	prompt	n/a	treaty implementing dimensions leonard\n
247.011	0.09	494022	keystroke	t	n/a
247.206	0.1055	494412	keystroke	r	n/a
247.3565	0.1045	494713	keystroke	e	n/a
247.476	0.1355	494952	keystroke	a	n/a
247.971	0.105	495942	keystroke	t	n/a
248.196	0.15	496392	keystroke	y	n/a
248.316	0.18	496632	keystroke	Key.space	n/a
248.796	0.1505	497592	keystroke	i	n/a
248.886	0.226	497772	keystroke	m	n/a
249.0365	0.1345	498073	keystroke	p	n/a
249.517	0.135	499034	keystroke	l	n/a
250.372	0.105	500744	keystroke	e	n/a
250.582	0.1195	501164	keystroke	m	n/a
250.7165	0.1045	501433	keystroke	e	n/a
250.851	0.135	501702	keystroke	n	n/a
251.016	0.105	502032	keystroke	t	n/a
251.226	0.135	502452	keystroke	a	n/a
251.346	0.105	502692	keystroke	t	n/a
251.466	0.15	502932	keystroke	i	n/a
251.571	0.15	503142	keystroke	o	n/a
251.722	0.089	503444	keystroke	n	n/a
252.111	0.106	504222	keystroke	Key.backspace	n/a
252.382	0.015	504764	keystroke	Key.backspace	n/a
252.457	0.06	504914	keystroke	Key.backspace	n/a
252.847	0.0895	505694	keystroke	n	n/a
253.1765	0.09	506353	keystroke	Key.backspace	n/a
253.4315	0.12	506863	keystroke	i	n/a
253.5365	0.12	507073	keystroke	n	n/a
253.7315	0.09	507463	keystroke	g	n/a
253.8665	0.12	507733	keystroke	Key.space	n/a
254.1365	0.06	508273	keystroke	d	n/a
254.6315	0.12	509263	keystroke	i	n/a
254.7965	0.15	509593	keystroke	m	n/a
255.0515	0.09	510103	keystroke	e	n/a
255.156	0.1205	510312	keystroke	n	n/a
255.336	0.091	510672	keystroke	s	n/a
255.441	0.1205	510882	keystroke	i	n/a
255.516	0.1505	511032	keystroke	o	n/a
255.6065	0.15	511213	keystroke	n	n/a
255.7715	0.105	511543	keystroke	s	n/a
255.936	0.1205	511872	keystroke	Key.space	n/a
256.6715	0.105	513343	keystroke	l	n/a
256.7915	0.09	513583	keystroke	e	n/a
257.1665	0.105	514333	keystroke	o	n/a
257.481	0.105	514962	keystroke	n	n/a
257.737	0.1645	515474	keystroke	a	n/a
257.872	0.1045	515744	keystroke	r	n/a
258.0365	0.0905	516073	keystroke	d	n/a
258.2315	0.105	516463	keystroke	Key.enter	n/a
258.341	11.412	516682	prompt	n/a	guitar lover adelaide central\n
259.3115	0.105	518623	keystroke	g	n/a
259.5065	0.135	519013	keystroke	u	n/a
259.7615	0.09	519523	keystroke	i	n/a
260.0615	0.09	520123	keystroke	t	n/a
260.3015	0.105	520603	keystroke	r	n/a
260.4515	0.15	520903	keystroke	a	n/a
260.6615	0.135	521323	keystroke	Key.space	n/a
261.5315	0.105	523063	keystroke	Key.backspace	n/a
261.711	0.09	523422	keystroke	Key.backspace	n/a
261.861	0.105	523722	keystroke	Key.backspace	n/a
261.951	0.135	523902	keystroke	a	n/a
262.116	0.12	524232	keystroke	r	n/a
262.356	0.135	524712	keystroke	Key.space	n/a
262.656	0.09	525312	keystroke	l	n/a
262.836	0.1055	525672	keystroke	o	n/a
262.986	0.12	525972	keystroke	v	n/a
263.121	0.1355	526242	keystroke	e	n/a
263.226	0.1205	526452	keystroke	r	n/a
263.3315	0.12	526663	keystroke	Key.space	n/a
263.6015	0.15	527203	keystroke	a	n/a
264.0815	0.1045	528163	keystroke	d	n/a
264.321	0.09	528642	keystroke	e	n/a
264.501	0.12	529002	keystroke	l	n/a
264.952	0.119	529904	keystroke	a	n/a
265.8665	0.105	531733	keystroke	Key.backspace	n/a
266.5415	0.15	533083	keystroke	a	n/a
266.8115	0.12	533623	keystroke	i	n/a
267.0065	0.105	534013	keystroke	d	n/a
267.231	0.075	534462	keystroke	e	n/a
267.381	0.12	534762	keystroke	Key.space	n/a
267.8915	0.12	535783	keystroke	c	n/a
268.1465	0.075	536293	keystroke	e	n/a
268.3415	0.12	536683	keystroke	n	n/a
268.4765	0.09	536953	keystroke	t	n/a
268.6715	0.09	537343	keystroke	r	n/a
269.152	0.12	538304	keystroke	a	n/a
269.376	0.12	538752	keystroke	l	n/a
269.646	0.105	539292	keystroke	Key.enter	n/a
269.7565	8.4265	539513	prompt	n/a	flower must've milan restored\n
270.561	0.106	541122	keystroke	f	n/a
270.756	0.075	541512	keystroke	l	n/a
270.936	0.105	541872	keystroke	o	n/a
271.0715	0.1345	542143	keystroke	w	n/a
271.1915	0.1655	542383	keystroke	e	n/a
271.327	0.135	542654	keystroke	r	n/a
271.491	0.165	542982	keystroke	Key.space	n/a
271.626	0.105	543252	keystroke	m	n/a
271.836	0.136	543672	keystroke	u	n/a
271.957	0.09	543914	keystroke	s	n/a
272.256	0.106	544512	keystroke	t	n/a
272.527	0.1195	545054	keystroke	'	n/a
272.7965	0.1495	545593	keystroke	v	n/a
272.992	0.104	545984	keystroke	e	n/a
273.171	0.135	546342	keystroke	Key.space	n/a
273.787	0.12	547574	keystroke	i	n/a
274.4465	0.09	548893	keystroke	Key.backspace	n/a
274.6265	0.12	549253	keystroke	m	n/a
274.7615	0.12	549523	keystroke	i	n/a
274.9265	0.135	549853	keystroke	l	n/a
275.1065	0.12	550213	keystroke	a	n/a
275.2115	0.1195	550423	keystroke	n	n/a
275.3165	0.15	550633	keystroke	Key.space	n/a
275.7365	0.15	551473	keystroke	r	n/a
275.8715	0.075	551743	keystroke	e	n/a
275.9615	0.03	551923	keystroke	e	n/a
275.9765	0.12	551953	keystroke	s	n/a
276.1115	0.105	552223	keystroke	t	n/a
276.6815	0.09	553363	keystroke	Key.backspace	n/a
276.876	0.075	553752	keystroke	Key.backspace	n/a
277.0265	0.105	554053	keystroke	Key.backspace	n/a
277.0865	0.1345	554173	keystroke	s	n/a
277.206	0.105	554412	keystroke	t	n/a
277.416	0.12	554832	keystroke	o	n/a
277.566	0.09	555132	keystroke	r	n/a
277.686	0.09	555372	keystroke	e	n/a
277.881	0.09	555762	keystroke	d	n/a
278.076	0.1055	556152	keystroke	Key.enter	n/a
278.1855	7.4525	556371	prompt	n/a	diana returns patch production\n
278.9165	0.105	557833	keystroke	d	n/a
279.0365	0.135	558073	keystroke	i	n/a
279.2165	0.135	558433	keystroke	a	n/a
279.3215	0.1355	558643	keystroke	n	n/a
279.472	0.105	558944	keystroke	a	n/a
279.637	0.105	559274	keystroke	Key.space	n/a
279.877	0.105	559754	keystroke	r	n/a
280.012	0.104	560024	keystroke	e	n/a
280.162	0.1345	560324	keystroke	t	n/a
280.3115	0.135	560623	keystroke	u	n/a
280.4465	0.09	560893	keystroke	r	n/a
280.6115	0.105	561223	keystroke	n	n/a
280.8065	0.1195	561613	keystroke	s	n/a
280.941	0.12	561882	keystroke	Key.space	n/a
281.182	0.12	562364	keystroke	p	n/a
281.331	0.135	562662	keystroke	a	n/a
281.481	0.121	562962	keystroke	t	n/a
281.827	0.104	563654	keystroke	c	n/a
282.036	0.1355	564072	keystroke	h	n/a
282.2465	0.15	564493	keystroke	Key.space	n/a
282.6065	0.135	565213	keystroke	p	n/a
282.7715	0.105	565543	keystroke	r	n/a
282.9065	0.135	565813	keystroke	o	n/a
283.2365	0.12	566473	keystroke	d	n/a
283.791	0.1205	567582	keystroke	u	n/a
283.9865	0.105	567973	keystroke	c	n/a
284.7065	0.09	569413	keystroke	t	n/a
284.9165	0.1645	569833	keystroke	i	n/a
285.021	0.135	570042	keystroke	o	n/a
285.096	0.135	570192	keystroke	n	n/a
285.5465	0.0895	571093	keystroke	Key.enter	n/a
285.642	9.866	571284	prompt	n/a	chapter counters wrestling thomson\n
286.4015	0.12	572803	keystroke	c	n/a
286.5665	0.12	573133	keystroke	h	n/a
286.7015	0.12	573403	keystroke	a	n/a
286.8215	0.12	573643	keystroke	p	n/a
287.5415	0.1045	575083	keystroke	t	n/a
287.7815	0.15	575563	keystroke	e	n/a
287.8865	0.12	575773	keystroke	r	n/a
288.0965	0.15	576193	keystroke	Key.space	n/a
288.5315	0.1495	577063	keystroke	c	n/a
288.666	0.1355	577332	keystroke	o	n/a
288.7565	0.12	577513	keystroke	u	n/a
288.9665	0.105	577933	keystroke	n	n/a
289.1015	0.12	578203	keystroke	t	n/a
289.2665	0.135	578533	keystroke	e	n/a
289.3865	0.09	578773	keystroke	r	n/a
289.8215	0.09	579643	keystroke	s	n/a
290.061	0.165	580122	keystroke	Key.space	n/a
290.572	0.105	581144	keystroke	w	n/a
290.857	0.105	581714	keystroke	r	n/a
290.962	0.135	581924	keystroke	e	n/a
291.217	0.105	582434	keystroke	s	n/a
291.307	0.105	582614	keystroke	t	n/a
291.487	0.105	582974	keystroke	l	n/a
291.771	0.075	583542	keystroke	i	n/a
292.296	0.12	584592	keystroke	n	n/a
292.851	0.06	585702	keystroke	g	n/a
293.2115	0.105	586423	keystroke	Key.space	n/a
293.7965	0.105	587593	keystroke	t	n/a
293.8565	0.15	587713	keystroke	h	n/a
294.0365	0.18	588073	keystroke	o	n/a
294.1865	0.1195	588373	keystroke	m	n/a
294.9665	0.105	589933	keystroke	s	n/a
295.0565	0.165	590113	keystroke	o	n/a
295.1765	0.105	590353	keystroke	n	n/a
295.4015	0.105	590803	keystroke	Key.enter	n/a
295.513	7.945	591026	prompt	n/a	jump colleges librarian exterior\n
296.1515	0.075	592303	keystroke	j	n/a
296.3165	0.1205	592633	keystroke	u	n/a
296.5565	0.135	593113	keystroke	m	n/a
296.6765	0.135	593353	keystroke	p	n/a
296.8265	0.135	593653	keystroke	Key.space	n/a
297.0665	0.105	594133	keystroke	c	n/a
297.142	0.1045	594284	keystroke	o	n/a
297.3815	0.06	594763	keystroke	l	n/a
297.5315	0.12	595063	keystroke	l	n/a
297.6365	0.0905	595273	keystroke	e	n/a
297.9215	0.06	595843	keystroke	g	n/a
298.0865	0.075	596173	keystroke	e	n/a
298.2815	0.09	596563	keystroke	s	n/a
298.4315	0.135	596863	keystroke	Key.space	n/a
298.897	0.089	597794	keystroke	l	n/a
299.106	0.076	598212	keystroke	i	n/a
299.316	0.12	598632	keystroke	b	n/a
299.706	0.12	599412	keystroke	r	n/a
299.9465	0.12	599893	keystroke	a	n/a
300.2165	0.12	600433	keystroke	r	n/a
300.5315	0.12	601063	keystroke	i	n/a
300.7415	0.135	601483	keystroke	a	n/a
300.9065	0.1795	601813	keystroke	n	n/a
301.071	0.135	602142	keystroke	Key.space	n/a
301.251	0.105	602502	keystroke	e	n/a
301.491	0.135	602982	keystroke	x	n/a
301.747	0.119	603494	keystroke	t	n/a
302.031	0.15	604062	keystroke	e	n/a
302.301	0.135	604602	keystroke	r	n/a
302.541	0.1505	605082	keystroke	i	n/a
302.8265	0.12	605653	keystroke	o	n/a
303.036	0.136	606072	keystroke	r	n/a
303.351	0.105	606702	keystroke	Key.enter	n/a
303.461	9.342	606922	prompt	n/a	bufing headquarters upper hughes\n
304.6715	0.12	609343	keystroke	b	n/a
304.8215	0.15	609643	keystroke	u	n/a
305.0315	0.075	610063	keystroke	f	n/a
305.3615	0.165	610723	keystroke	i	n/a
305.4515	0.15	610903	keystroke	n	n/a
305.6615	0.12	611323	keystroke	g	n/a
305.7815	0.15	611563	keystroke	Key.space	n/a
306.0815	0.135	612163	keystroke	h	n/a
306.2315	0.105	612463	keystroke	e	n/a
306.4565	0.15	612913	keystroke	a	n/a
306.7565	0.105	613513	keystroke	d	n/a
307.0415	0.12	614083	keystroke	q	n/a
307.3715	0.135	614743	keystroke	u	n/a
307.7465	0.165	615493	keystroke	a	n/a
307.9865	0.1195	615973	keystroke	r	n/a
308.286	0.1205	616572	keystroke	t	n/a
308.5265	0.135	617053	keystroke	e	n/a
308.6315	0.15	617263	keystroke	r	n/a
308.932	0.12	617864	keystroke	s	n/a
309.0965	0.119	618193	keystroke	Key.space	n/a
309.246	0.1505	618492	keystroke	u	n/a
309.3665	0.12	618733	keystroke	p	n/a
309.5615	0.12	619123	keystroke	p	n/a
309.7265	0.195	619453	keystroke	e	n/a
309.8765	0.12	619753	keystroke	r	n/a
310.0265	0.12	620053	keystroke	Key.space	n/a
310.2515	0.09	620503	keystroke	h	n/a
310.4465	0.12	620893	keystroke	u	n/a
310.986	0.135	621972	keystroke	g	n/a
311.197	0.134	622394	keystroke	h	n/a
311.511	0.105	623022	keystroke	e	n/a
311.6915	0.1195	623383	keystroke	s	n/a
311.9615	0.135	623923	keystroke	.	n/a
312.456	0.105	624912	keystroke	Key.backspace	n/a
312.696	0.105	625392	keystroke	Key.enter	n/a
312.806	6.807	625612	prompt	n/a	nerve start bedford bath\n
313.461	0.135	626922	keystroke	n	n/a
314.017	0.149	628034	keystroke	e	n/a
314.152	0.119	628304	keystroke	r	n/a
314.421	0.09	628842	keystroke	v	n/a
314.572	0.089	629144	keystroke	e	n/a
314.7515	0.12	629503	keystroke	Key.space	n/a
314.9765	0.12	629953	keystroke	s	n/a
315.1115	0.135	630223	keystroke	t	n/a
315.2915	0.15	630583	keystroke	a	n/a
315.4265	0.105	630853	keystroke	r	n/a
315.6365	0.09	631273	keystroke	t	n/a
315.7715	0.165	631543	keystroke	Key.space	n/a
316.1315	0.105	632263	keystroke	b	n/a
316.3415	0.105	632683	keystroke	e	n/a
316.6115	0.12	633223	keystroke	d	n/a
316.9865	0.105	633973	keystroke	f	n/a
317.1515	0.135	634303	keystroke	o	n/a
317.3165	0.105	634633	keystroke	r	n/a
317.5565	0.1195	635113	keystroke	d	n/a
317.751	0.15	635502	keystroke	Key.space	n/a
318.442	0.15	636884	keystroke	b	n/a
318.771	0.135	637542	keystroke	a	n/a
319.056	0.105	638112	keystroke	t	n/a
319.236	0.105	638472	keystroke	h	n/a
319.506	0.105	639012	keystroke	Key.enter	n/a
319.6165	10.9465	639233	prompt	n/a	make insulation august replies\n
320.286	0.12	640572	keystroke	m	n/a
320.421	0.135	640842	keystroke	a	n/a
320.526	0.12	641052	keystroke	k	n/a
320.661	0.09	641322	keystroke	e	n/a
320.811	0.105	641622	keystroke	Key.space	n/a
321.036	0.135	642072	keystroke	i	n/a
321.141	0.15	642282	keystroke	n	n/a
321.7115	0.09	643423	keystroke	s	n/a
321.8465	0.15	643693	keystroke	u	n/a
322.0115	0.1355	644023	keystroke	l	n/a
323.1815	0.18	646363	keystroke	a	n/a
323.4065	0.12	646813	keystroke	t	n/a
323.5865	0.12	647173	keystroke	i	n/a
323.6615	0.12	647323	keystroke	o	n/a
323.7515	0.15	647503	keystroke	n	n/a
323.8715	0.15	647743	keystroke	Key.space	n/a
324.186	0.1205	648372	keystroke	a	n/a
324.3815	0.0895	648763	keystroke	g	n/a
324.591	0.12	649182	keystroke	u	n/a
324.921	0.09	649842	keystroke	u	n/a
325.131	0.165	650262	keystroke	s	n/a
325.2515	0.135	650503	keystroke	t	n/a
325.6115	0.0745	651223	keystroke	Key.backspace	n/a
325.8065	0.075	651613	keystroke	Key.backspace	n/a
325.986	0.075	651972	keystroke	Key.backspace	n/a
326.1515	0.0895	652303	keystroke	Key.backspace	n/a
326.301	0.105	652602	keystroke	Key.backspace	n/a
326.6615	0.0895	653323	keystroke	u	n/a
327.0515	0.075	654103	keystroke	g	n/a
327.4865	0.09	654973	keystroke	u	n/a
327.7415	0.105	655483	keystroke	s	n/a
327.8915	0.105	655783	keystroke	t	n/a
328.0565	0.15	656113	keystroke	Key.space	n/a
328.4615	0.0895	656923	keystroke	r	n/a
328.581	0.105	657162	keystroke	e	n/a
328.716	0.1055	657432	keystroke	p	n/a
328.8665	0.0895	657733	keystroke	l	n/a
329.001	0.09	658002	keystroke	i	n/a
329.151	0.075	658302	keystroke	c	n/a
329.6315	0.09	659263	keystroke	Key.backspace	n/a
329.7665	0.075	659533	keystroke	e	n/a
330.2015	0.075	660403	keystroke	s	n/a
330.4865	0.075	660973	keystroke	Key.enter	n/a
330.5695	8.0485	661139	prompt	n/a	trinity buck moldova addressing\n
332.3015	0.0895	664603	keystroke	t	n/a
332.511	0.09	665022	keystroke	r	n/a
332.631	0.105	665262	keystroke	i	n/a
332.781	0.1355	665562	keystroke	n	n/a
332.9165	0.105	665833	keystroke	i	n/a
333.0515	0.135	666103	keystroke	t	n/a
333.2315	0.12	666463	keystroke	y	n/a
333.3815	0.15	666763	keystroke	Key.space	n/a
333.9815	0.09	667963	keystroke	b	n/a
334.0865	0.12	668173	keystroke	u	n/a
334.326	0.105	668652	keystroke	c	n/a
334.446	0.1505	668892	keystroke	k	n/a
334.551	0.1355	669102	keystroke	Key.space	n/a
334.8815	0.1795	669763	keystroke	m	n/a
335.121	0.09	670242	keystroke	o	n/a
335.316	0.135	670632	keystroke	l	n/a
335.511	0.09	671022	keystroke	d	n/a
335.8115	0.0895	671623	keystroke	o	n/a
336.1415	0.12	672283	keystroke	v	n/a
336.3515	0.135	672703	keystroke	a	n/a
336.5165	0.135	673033	keystroke	Key.space	n/a
336.8915	0.09	673783	keystroke	a	n/a
337.0715	0.075	674143	keystroke	d	n/a
337.2365	0.075	674473	keystroke	d	n/a
337.4315	0.105	674863	keystroke	r	n/a
337.5365	0.1195	675073	keystroke	e	n/a
337.777	0.06	675554	keystroke	s	n/a
337.941	0.091	675882	keystroke	s	n/a
338.076	0.165	676152	keystroke	i	n/a
338.181	0.12	676362	keystroke	n	n/a
338.302	0.089	676604	keystroke	g	n/a
338.526	0.09	677052	keystroke	Key.enter	n/a
338.6215	9.401	677243	prompt	n/a	challenging providing istanbul inkjet\n
339.531	0.12	679062	keystroke	c	n/a
339.652	0.134	679304	keystroke	h	n/a
339.801	0.105	679602	keystroke	a	n/a
339.936	0.09	679872	keystroke	l	n/a
340.701	0.0905	681402	keystroke	l	n/a
340.9415	0.105	681883	keystroke	e	n/a
341.0765	0.105	682153	keystroke	n	n/a
341.2415	0.09	682483	keystroke	g	n/a
341.4365	0.165	682873	keystroke	i	n/a
341.5565	0.135	683113	keystroke	n	n/a
341.7365	0.075	683473	keystroke	g	n/a
341.9015	0.105	683803	keystroke	Key.space	n/a
342.276	0.105	684552	keystroke	p	n/a
342.426	0.0755	684852	keystroke	r	n/a
342.5165	0.105	685033	keystroke	o	n/a
342.726	0.0905	685452	keystroke	v	n/a
342.8765	0.09	685753	keystroke	i	n/a
343.0715	0.0895	686143	keystroke	d	n/a
343.221	0.15	686442	keystroke	i	n/a
343.296	0.165	686592	keystroke	n	n/a
343.446	0.0895	686892	keystroke	g	n/a
343.5955	0.135	687191	keystroke	Key.space	n/a
343.8955	0.166	687791	keystroke	i	n/a
344.0165	0.09	688033	keystroke	n	n/a
344.6455	0.09	689291	keystroke	Key.backspace	n/a
344.7215	0.134	689443	keystroke	s	n/a
344.8265	0.1195	689653	keystroke	t	n/a
345.171	0.136	690342	keystroke	a	n/a
345.456	0.12	690912	keystroke	n	n/a
345.711	0.105	691422	keystroke	b	n/a
345.936	0.12	691872	keystroke	u	n/a
346.086	0.165	692172	keystroke	l	n/a
346.221	0.135	692442	keystroke	Key.space	n/a
346.581	0.03	693162	keystroke	i	n/a
346.596	0.09	693192	keystroke	n	n/a
346.836	0.1205	693672	keystroke	k	n/a
347.1515	0.165	694303	keystroke	j	n/a
347.4665	0.09	694933	keystroke	e	n/a
347.7215	0.09	695443	keystroke	t	n/a
347.9165	0.1045	695833	keystroke	Key.enter	n/a
348.026	9.2515	696052	prompt	n/a	myanmar beyond objects retailers\n
348.696	0.09	697392	keystroke	m	n/a
348.921	0.135	697842	keystroke	y	n/a
349.146	0.1205	698292	keystroke	a	n/a
349.311	0.105	698622	keystroke	n	n/a
349.941	0.15	699882	keystroke	m	n/a
350.166	0.2245	700332	keystroke	a	n/a
350.3465	0.135	700693	keystroke	r	n/a
350.5565	0.135	701113	keystroke	Key.space	n/a
350.916	0.09	701832	keystroke	b	n/a
351.126	0.09	702252	keystroke	e	n/a
351.336	0.135	702672	keystroke	y	n/a
351.546	0.15	703092	keystroke	o	n/a
351.726	0.135	703452	keystroke	n	n/a
351.996	0.091	703992	keystroke	d	n/a
352.146	0.18	704292	keystroke	Key.space	n/a
352.341	0.105	704682	keystroke	o	n/a
352.536	0.121	705072	keystroke	b	n/a
352.866	0.0905	705732	keystroke	j	n/a
353.121	0.12	706242	keystroke	u	n/a
353.256	0.12	706512	keystroke	e	n/a
353.6615	0.09	707323	keystroke	Key.backspace	n/a
353.8415	0.09	707683	keystroke	Key.backspace	n/a
353.9465	0.09	707893	keystroke	e	n/a
354.171	0.12	708342	keystroke	c	n/a
354.321	0.09	708642	keystroke	t	n/a
354.546	0.09	709092	keystroke	s	n/a
354.711	0.165	709422	keystroke	Key.space	n/a
355.1005	0.09	710201	keystroke	r	n/a
355.2065	0.104	710413	keystroke	e	n/a
355.3405	0.091	710681	keystroke	t	n/a
356.0755	0.136	712151	keystroke	a	n/a
356.2705	0.121	712541	keystroke	i	n/a
356.4655	0.121	712931	keystroke	l	n/a
356.6305	0.1805	713261	keystroke	e	n/a
356.7805	0.091	713561	keystroke	r	n/a
357.0065	0.09	714013	keystroke	s	n/a
357.1715	0.104	714343	keystroke	Key.enter	n/a
357.2805	7.3475	714561	prompt	n/a	star helpful arnold headed\n
357.951	0.135	715902	keystroke	s	n/a
358.2065	0.1195	716413	keystroke	t	n/a
358.461	0.195	716922	keystroke	a	n/a
358.671	0.09	717342	keystroke	r	n/a
359.211	0.1355	718422	keystroke	Key.space	n/a
359.4215	0.135	718843	keystroke	h	n/a
359.5865	0.09	719173	keystroke	e	n/a
359.6915	0.105	719383	keystroke	l	n/a
360.3365	0.105	720673	keystroke	p	n/a
360.9365	0.105	721873	keystroke	f	n/a
361.1165	0.1195	722233	keystroke	u	n/a
361.296	0.18	722592	keystroke	l	n/a
361.446	0.15	722892	keystroke	Key.space	n/a
361.776	0.15	723552	keystroke	a	n/a
362.046	0.09	724092	keystroke	r	n/a
362.256	0.135	724512	keystroke	n	n/a
362.376	0.09	724752	keystroke	o	n/a
362.586	0.105	725172	keystroke	l	n/a
362.721	0.12	725442	keystroke	d	n/a
362.886	0.105	725772	keystroke	Key.space	n/a
363.096	0.135	726192	keystroke	h	n/a
363.246	0.135	726492	keystroke	e	n/a
363.456	0.165	726912	keystroke	a	n/a
363.756	0.09	727512	keystroke	d	n/a
363.966	0.075	727932	keystroke	e	n/a
364.206	0.09	728412	keystroke	d	n/a
364.5215	0.105	729043	keystroke	Key.enter	n/a
364.631	7.182	729262	prompt	n/a	editions hobby geography duration\n
365.406	0.09	730812	keystroke	e	n/a
365.646	0.09	731292	keystroke	d	n/a
365.796	0.105	731592	keystroke	i	n/a
365.961	0.105	731922	keystroke	t	n/a
366.081	0.12	732162	keystroke	i	n/a
366.141	0.1505	732282	keystroke	o	n/a
366.2315	0.15	732463	keystroke	n	n/a
366.3965	0.09	732793	keystroke	s	n/a
366.5315	0.12	733063	keystroke	Key.space	n/a
366.8315	0.12	733663	keystroke	h	n/a
366.9665	0.135	733933	keystroke	o	n/a
367.1615	0.075	734323	keystroke	b	n/a
367.3265	0.1045	734653	keystroke	b	n/a
367.476	0.12	734952	keystroke	y	n/a
367.551	0.1645	735102	keystroke	Key.space	n/a
367.8365	0.104	735673	keystroke	g	n/a
368.031	0.09	736062	keystroke	e	n/a
368.196	0.135	736392	keystroke	o	n/a
368.511	0.09	737022	keystroke	g	n/a
368.721	0.12	737442	keystroke	r	n/a
368.946	0.09	737892	keystroke	a	n/a
369.051	0.135	738102	keystroke	p	n/a
369.231	0.12	738462	keystroke	h	n/a
369.8015	0.1195	739603	keystroke	y	n/a
370.1915	0.12	740383	keystroke	Key.space	n/a
370.6715	0.0895	741343	keystroke	d	n/a
370.806	0.15	741612	keystroke	u	n/a
370.9405	0.1505	741881	keystroke	r	n/a
371.151	0.135	742302	keystroke	a	n/a
371.256	0.12	742512	keystroke	t	n/a
371.346	0.1045	742692	keystroke	i	n/a
371.391	0.1645	742782	keystroke	o	n/a
371.4955	0.1055	742991	keystroke	n	n/a
371.7505	0.06	743501	keystroke	Key.enter	n/a
371.816	8.6665	743632	prompt	n/a	these're cotton fought waiver\n
372.6055	0.12	745211	keystroke	t	n/a
372.696	0.135	745392	keystroke	h	n/a
372.7705	0.1055	745541	keystroke	e	n/a
372.9355	0.105	745871	keystroke	s	n/a
373.011	0.09	746022	keystroke	e	n/a
373.6705	0.12	747341	keystroke	'	n/a
374.2555	0.1355	748511	keystroke	r	n/a
374.406	0.09	748812	keystroke	e	n/a
374.586	0.135	749172	keystroke	Key.space	n/a
374.9615	0.105	749923	keystroke	c	n/a
375.1115	0.09	750223	keystroke	o	n/a
375.3365	0.075	750673	keystroke	t	n/a
375.4865	0.075	750973	keystroke	t	n/a
375.6215	0.1645	751243	keystroke	o	n/a
375.787	0.164	751574	keystroke	n	n/a
375.936	0.12	751872	keystroke	Key.space	n/a
376.236	0.0755	752472	keystroke	f	n/a
376.3715	0.135	752743	keystroke	o	n/a
376.4465	0.135	752893	keystroke	u	n/a
376.5965	0.06	753193	keystroke	g	n/a
377.181	0.105	754362	keystroke	h	n/a
377.646	0.12	755292	keystroke	t	n/a
378.036	0.15	756072	keystroke	Key.space	n/a
379.086	0.105	758172	keystroke	w	n/a
379.4465	0.12	758893	keystroke	a	n/a
379.731	0.12	759462	keystroke	i	n/a
379.9115	0.12	759823	keystroke	v	n/a
380.0165	0.165	760033	keystroke	e	n/a
380.1665	0.09	760333	keystroke	r	n/a
380.3765	0.105	760753	keystroke	Key.enter	n/a
380.486	9.4315	760972	prompt	n/a	pontiac interior exchange disclose\n
381.276	0.12	762552	keystroke	p	n/a
381.486	0.1645	762972	keystroke	o	n/a
381.606	0.1505	763212	keystroke	n	n/a
381.8005	0.121	763601	keystroke	t	n/a
382.2365	0.09	764473	keystroke	i	n/a
382.5665	0.12	765133	keystroke	a	n/a
382.8365	0.0895	765673	keystroke	c	n/a
383.421	0.15	766842	keystroke	Key.space	n/a
383.766	0.165	767532	keystroke	i	n/a
383.856	0.18	767712	keystroke	n	n/a
384.756	0.18	769512	keystroke	t	n/a
385.101	0.165	770202	keystroke	e	n/a
385.221	0.135	770442	keystroke	r	n/a
385.476	0.12	770952	keystroke	i	n/a
385.7465	0.105	771493	keystroke	o	n/a
385.9115	0.105	771823	keystroke	r	n/a
386.1055	0.1055	772211	keystroke	Key.space	n/a
386.496	0.09	772992	keystroke	e	n/a
386.706	0.045	773412	keystroke	x	n/a
387.0065	0.1045	774013	keystroke	c	n/a
387.1715	0.12	774343	keystroke	h	n/a
387.336	0.12	774672	keystroke	a	n/a
387.426	0.12	774852	keystroke	n	n/a
387.5615	0.12	775123	keystroke	g	n/a
387.666	0.1205	775332	keystroke	e	n/a
387.8015	0.1195	775603	keystroke	Key.space	n/a
388.401	0.045	776802	keystroke	d	n/a
388.536	0.15	777072	keystroke	i	n/a
388.701	0.12	777402	keystroke	s	n/a
389.016	0.12	778032	keystroke	c	n/a
389.151	0.09	778302	keystroke	l	n/a
389.331	0.105	778662	keystroke	o	n/a
389.421	0.1045	778842	keystroke	s	n/a
389.481	0.1345	778962	keystroke	e	n/a
389.8115	0.1045	779623	keystroke	Key.enter	n/a
389.921	6.492	779842	prompt	n/a	assign comp barbie culture\n
390.546	0.12	781092	keystroke	a	n/a
390.771	0.06	781542	keystroke	s	n/a
390.9215	0.09	781843	keystroke	s	n/a
390.9965	0.1345	781993	keystroke	i	n/a
391.161	0.09	782322	keystroke	g	n/a
391.266	0.15	782532	keystroke	n	n/a
391.401	0.135	782802	keystroke	Key.space	n/a
391.596	0.105	783192	keystroke	c	n/a
391.701	0.12	783402	keystroke	o	n/a
391.956	0.015	783912	keystroke	o	n/a
392.4355	0.075	784871	keystroke	Key.backspace	n/a
392.6315	0.15	785263	keystroke	m	n/a
392.7515	0.135	785503	keystroke	p	n/a
392.8715	0.1495	785743	keystroke	Key.space	n/a
393.171	0.09	786342	keystroke	b	n/a
393.336	0.21	786672	keystroke	a	n/a
393.516	0.09	787032	keystroke	r	n/a
393.786	0.075	787572	keystroke	b	n/a
393.891	0.12	787782	keystroke	i	n/a
394.266	0.09	788532	keystroke	e	n/a
394.416	0.1345	788832	keystroke	Key.space	n/a
394.971	0.12	789942	keystroke	c	n/a
395.121	0.105	790242	keystroke	u	n/a
395.286	0.12	790572	keystroke	l	n/a
395.511	0.135	791022	keystroke	t	n/a
395.871	0.15	791742	keystroke	u	n/a
396.006	0.09	792012	keystroke	r	n/a
396.141	0.09	792282	keystroke	e	n/a
396.306	0.105	792612	keystroke	Key.enter	n/a
396.416	17.022	792832	prompt	n/a	keeps tasks satellite industrial\n
397.1905	0.135	794381	keystroke	k	n/a
397.3555	0.09	794711	keystroke	e	n/a
397.5055	0.105	795011	keystroke	e	n/a
397.6405	0.121	795281	keystroke	p	n/a
397.7905	0.09	795581	keystroke	s	n/a
397.9105	0.1205	795821	keystroke	Key.space	n/a
398.061	0.12	796122	keystroke	t	n/a
398.226	0.135	796452	keystroke	a	n/a
398.4065	0.105	796813	keystroke	k	n/a
398.5565	0.1345	797113	keystroke	s	n/a
399.156	0.09	798312	keystroke	Key.backspace	n/a
399.321	0.105	798642	keystroke	Key.backspace	n/a
399.531	0.075	799062	keystroke	s	n/a
399.786	0.12	799572	keystroke	k	n/a
399.921	0.135	799842	keystroke	Key.space	n/a
400.416	0.105	800832	keystroke	Key.backspace	n/a
400.551	0.09	801102	keystroke	s	n/a
400.686	0.12	801372	keystroke	Key.space	n/a
400.9115	0.105	801823	keystroke	s	n/a
401.5415	0.15	803083	keystroke	a	n/a
401.7065	0.12	803413	keystroke	t	n/a
401.976	0.09	803952	keystroke	e	n/a
402.2605	0.09	804521	keystroke	l	n/a
402.4705	0.121	804941	keystroke	i	n/a
402.6805	0.105	805361	keystroke	i	n/a
403.326	0.225	806652	keystroke	Key.backspace	n/a
403.911	0.105	807822	keystroke	t	n/a
404.091	0.12	808182	keystroke	t	n/a
405.456	0.075	810912	keystroke	Key.backspace	n/a
405.471	0.045	810942	keystroke	=	n/a
405.621	0.09	811242	keystroke	Key.backspace	n/a
406.1465	0.1045	812293	keystroke	=	n/a
406.431	0.06	812862	keystroke	=	n/a
407.136	0.075	814272	keystroke	Key.backspace	n/a
407.391	0.09	814782	keystroke	Key.backspace	n/a
407.6005	0.09	815201	keystroke	Key.backspace	n/a
407.8105	0.09	815621	keystroke	Key.backspace	n/a
408.5755	0.18	817151	keystroke	l	n/a
409.266	0.135	818532	keystroke	i	n/a
409.5215	0.105	819043	keystroke	t	n/a
409.6715	0.105	819343	keystroke	e	n/a
409.8365	0.135	819673	keystroke	Key.space	n/a
410.2415	0.18	820483	keystroke	i	n/a
410.3615	0.135	820723	keystroke	n	n/a
410.5565	0.105	821113	keystroke	d	n/a
410.7215	0.135	821443	keystroke	u	n/a
410.8715	0.075	821743	keystroke	s	n/a
411.1115	0.105	822223	keystroke	c	n/a
411.4715	0.12	822943	keystroke	t	n/a
411.7115	0.06	823423	keystroke	r	n/a
411.9815	0.075	823963	keystroke	Key.backspace	n/a
412.1615	0.0745	824323	keystroke	Key.backspace	n/a
412.311	0.105	824622	keystroke	Key.backspace	n/a
412.476	0.105	824952	keystroke	t	n/a
412.701	0.09	825402	keystroke	r	n/a
412.821	0.105	825642	keystroke	i	n/a
412.986	0.12	825972	keystroke	a	n/a
413.121	0.075	826242	keystroke	l	n/a
413.346	0.09	826692	keystroke	Key.enter	n/a
413.4405	8.307	826881	prompt	n/a	midwest basename moreover plot\n
414.3965	0.135	828793	keystroke	m	n/a
414.5015	0.135	829003	keystroke	i	n/a
414.6515	0.09	829303	keystroke	d	n/a
414.9215	0.105	829843	keystroke	w	n/a
415.1165	0.06	830233	keystroke	e	n/a
415.3715	0.03	830743	keystroke	s	n/a
415.4165	0.075	830833	keystroke	e	n/a
416.136	0.06	832272	keystroke	Key.backspace	n/a
416.181	0.075	832362	keystroke	t	n/a
416.331	0.135	832662	keystroke	Key.space	n/a
416.9305	0.136	833861	keystroke	b	n/a
417.1265	0.165	834253	keystroke	a	n/a
417.2465	0.134	834493	keystroke	s	n/a
417.3365	0.12	834673	keystroke	e	n/a
417.5155	0.136	835031	keystroke	m	n/a
417.9965	0.134	835993	keystroke	Key.backspace	n/a
418.2215	0.09	836443	keystroke	n	n/a
418.4305	0.121	836861	keystroke	a	n/a
418.4615	0.12	836923	keystroke	m	n/a
418.9255	0.09	837851	keystroke	e	n/a
419.106	0.12	838212	keystroke	Key.space	n/a
419.4655	0.165	838931	keystroke	m	n/a
419.5855	0.166	839171	keystroke	o	n/a
419.9615	0.089	839923	keystroke	r	n/a
420.0665	0.09	840133	keystroke	e	n/a
420.2305	0.12	840461	keystroke	o	n/a
420.3805	0.12	840761	keystroke	v	n/a
420.5165	0.12	841033	keystroke	e	n/a
420.6215	0.12	841243	keystroke	r	n/a
420.7255	0.1355	841451	keystroke	Key.space	n/a
420.9215	0.135	841843	keystroke	p	n/a
421.1615	0.0745	842323	keystroke	l	n/a
421.326	0.105	842652	keystroke	o	n/a
421.476	0.105	842952	keystroke	t	n/a
421.641	0.1045	843282	keystroke	Key.enter	n/a
421.7505	6.867	843501	prompt	n/a	moldova giant dept recipe\n
422.3755	0.181	844751	keystroke	m	n/a
422.6465	0.12	845293	keystroke	o	n/a
422.916	0.12	845832	keystroke	l	n/a
423.081	0.105	846162	keystroke	d	n/a
423.306	0.105	846612	keystroke	o	n/a
423.531	0.09	847062	keystroke	v	n/a
424.251	0.1495	848502	keystroke	a	n/a
424.431	0.1345	848862	keystroke	Key.space	n/a
424.8515	0.06	849703	keystroke	a	n/a
425.226	0.12	850452	keystroke	Key.backspace	n/a
425.376	0.105	850752	keystroke	g	n/a
425.526	0.12	851052	keystroke	i	n/a
425.691	0.135	851382	keystroke	a	n/a
425.841	0.105	851682	keystroke	n	n/a
426.096	0.105	852192	keystroke	t	n/a
426.261	0.135	852522	keystroke	Key.space	n/a
426.7405	0.09	853481	keystroke	d	n/a
426.9355	0.075	853871	keystroke	e	n/a
427.056	0.105	854112	keystroke	p	n/a
427.1905	0.1055	854381	keystroke	t	n/a
427.3105	0.12	854621	keystroke	Key.space	n/a
427.5505	0.09	855101	keystroke	r	n/a
427.6855	0.075	855371	keystroke	e	n/a
427.9405	0.105	855881	keystroke	c	n/a
428.0915	0.135	856183	keystroke	i	n/a
428.1955	0.136	856391	keystroke	p	n/a
428.3455	0.0905	856691	keystroke	e	n/a
428.526	0.09	857052	keystroke	Key.enter	n/a
428.622	6.9855	857244	prompt	n/a	runs laos thomson evolution\n
429.306	0.105	858612	keystroke	r	n/a
429.396	0.1055	858792	keystroke	u	n/a
429.6065	0.09	859213	keystroke	n	n/a
429.7405	0.091	859481	keystroke	s	n/a
429.8155	0.15	859631	keystroke	Key.space	n/a
429.9365	0.09	859873	keystroke	l	n/a
430.3565	0.105	860713	keystroke	o	n/a
430.8215	0.1045	861643	keystroke	Key.backspace	n/a
431.001	0.12	862002	keystroke	a	n/a
431.136	0.09	862272	keystroke	o	n/a
431.361	0.09	862722	keystroke	s	n/a
431.481	0.12	862962	keystroke	Key.space	n/a
431.646	0.105	863292	keystroke	t	n/a
431.706	0.1195	863412	keystroke	h	n/a
431.811	0.1045	863622	keystroke	o	n/a
432.5155	0.1055	865031	keystroke	m	n/a
432.786	0.075	865572	keystroke	s	n/a
432.876	0.165	865752	keystroke	o	n/a
433.011	0.165	866022	keystroke	n	n/a
433.206	0.135	866412	keystroke	Key.space	n/a
433.491	0.075	866982	keystroke	e	n/a
433.686	0.135	867372	keystroke	v	n/a
433.896	0.1055	867792	keystroke	o	n/a
434.091	0.1055	868182	keystroke	l	n/a
434.361	0.105	868722	keystroke	u	n/a
434.871	0.105	869742	keystroke	t	n/a
435.006	0.135	870012	keystroke	i	n/a
435.1255	0.12	870251	keystroke	o	n/a
435.186	0.1345	870372	keystroke	n	n/a
435.516	0.09	871032	keystroke	Key.enter	n/a
435.6105	7.422	871221	prompt	n/a	contest penny pocket puzzle\n
436.461	0.135	872922	keystroke	c	n/a
436.581	0.12	873162	keystroke	o	n/a
436.671	0.12	873342	keystroke	n	n/a
436.8965	0.104	873793	keystroke	t	n/a
437.1055	0.075	874211	keystroke	e	n/a
437.7355	0.091	875471	keystroke	s	n/a
437.9605	0.091	875921	keystroke	t	n/a
438.1555	0.135	876311	keystroke	Key.space	n/a
438.5305	0.105	877061	keystroke	p	n/a
438.6665	0.119	877333	keystroke	e	n/a
438.891	0.0605	877782	keystroke	n	n/a
439.0565	0.09	878113	keystroke	n	n/a
439.2665	0.105	878533	keystroke	y	n/a
439.4465	0.12	878893	keystroke	Key.space	n/a
439.6415	0.105	879283	keystroke	p	n/a
439.8215	0.105	879643	keystroke	o	n/a
440.0915	0.06	880183	keystroke	c	n/a
440.4965	0.09	880993	keystroke	k	n/a
440.7665	0.105	881533	keystroke	e	n/a
440.9915	0.09	881983	keystroke	t	n/a
441.2015	0.12	882403	keystroke	Key.space	n/a
441.576	0.09	883152	keystroke	p	n/a
441.741	0.105	883482	keystroke	u	n/a
441.921	0.1055	883842	keystroke	z	n/a
442.2515	0.105	884503	keystroke	z	n/a
442.4915	0.105	884983	keystroke	l	n/a
442.7315	0.075	885463	keystroke	e	n/a
442.9265	0.105	885853	keystroke	Key.enter	n/a
443.036	9.9265	886072	prompt	n/a	equipment aluminum dress settlement\n
444.0065	0.15	888013	keystroke	e	n/a
444.1715	0.135	888343	keystroke	q	n/a
444.3365	0.1195	888673	keystroke	u	n/a
444.5305	0.12	889061	keystroke	i	n/a
444.6655	0.12	889331	keystroke	p	n/a
444.9215	0.105	889843	keystroke	m	n/a
445.0855	0.091	890171	keystroke	e	n/a
445.3115	0.089	890623	keystroke	n	n/a
445.4915	0.089	890983	keystroke	t	n/a
445.7605	0.105	891521	keystroke	Key.space	n/a
446.1505	0.105	892301	keystroke	a	n/a
446.2865	0.119	892573	keystroke	l	n/a
446.5555	0.09	893111	keystroke	u	n/a
446.8105	0.105	893621	keystroke	m	n/a
447.1705	0.135	894341	keystroke	i	n/a
448.206	0.12	896412	keystroke	n	n/a
448.4755	0.12	896951	keystroke	u	n/a
448.7605	0.09	897521	keystroke	m	n/a
448.9405	0.12	897881	keystroke	Key.space	n/a
449.1655	0.105	898331	keystroke	d	n/a
449.3755	0.105	898751	keystroke	r	n/a
449.5405	0.105	899081	keystroke	e	n/a
449.7805	0.076	899561	keystroke	s	n/a
449.9615	0.09	899923	keystroke	s	n/a
450.1115	0.135	900223	keystroke	Key.space	n/a
450.3515	0.03	900703	keystroke	a	n/a
450.7405	0.121	901481	keystroke	Key.backspace	n/a
450.8765	0.1045	901753	keystroke	s	n/a
451.086	0.075	902172	keystroke	e	n/a
451.446	0.075	902892	keystroke	t	n/a
451.626	0.105	903252	keystroke	t	n/a
451.821	0.09	903642	keystroke	l	n/a
452.001	0.09	904002	keystroke	e	n/a
452.196	0.12	904392	keystroke	m	n/a
452.3605	0.09	904721	keystroke	e	n/a
452.4805	0.105	904961	keystroke	n	n/a
452.6905	0.09	905381	keystroke	t	n/a
452.8555	0.1055	905711	keystroke	Key.enter	n/a
452.9655	7.017	905931	prompt	n/a	worship traveler blogger summit\n
453.741	0.0895	907482	keystroke	w	n/a
453.8455	0.12	907691	keystroke	o	n/a
453.9805	0.06	907961	keystroke	r	n/a
454.1155	0.105	908231	keystroke	s	n/a
454.2355	0.1355	908471	keystroke	h	n/a
454.3555	0.1055	908711	keystroke	i	n/a
454.431	0.135	908862	keystroke	p	n/a
454.581	0.135	909162	keystroke	Key.space	n/a
454.9115	0.105	909823	keystroke	t	n/a
455.0905	0.12	910181	keystroke	r	n/a
455.2555	0.1205	910511	keystroke	a	n/a
455.406	0.18	910812	keystroke	v	n/a
455.6315	0.1045	911263	keystroke	e	n/a
456.081	0.105	912162	keystroke	l	n/a
456.351	0.225	912702	keystroke	e	n/a
456.531	0.15	913062	keystroke	r	n/a
456.756	0.1495	913512	keystroke	Key.space	n/a
457.401	0.09	914802	keystroke	b	n/a
457.521	0.09	915042	keystroke	l	n/a
457.701	0.09	915402	keystroke	o	n/a
457.821	0.09	915642	keystroke	g	n/a
458.016	0.105	916032	keystroke	g	n/a
458.211	0.12	916422	keystroke	e	n/a
458.301	0.12	916602	keystroke	r	n/a
458.466	0.12	916932	keystroke	Key.space	n/a
458.721	0.105	917442	keystroke	s	n/a
458.871	0.09	917742	keystroke	u	n/a
459.111	0.075	918222	keystroke	m	n/a
459.306	0.1045	918612	keystroke	m	n/a
459.5305	0.09	919061	keystroke	i	n/a
459.6955	0.09	919391	keystroke	t	n/a
459.8905	0.09	919781	keystroke	Key.enter	n/a
459.985	8.6825	919970	prompt	n/a	webmaster accident targets roof\n
460.881	0.1195	921762	keystroke	w	n/a
461.061	0.105	922122	keystroke	e	n/a
461.301	0.09	922602	keystroke	b	n/a
461.541	0.1655	923082	keystroke	m	n/a
461.7215	0.1945	923443	keystroke	a	n/a
461.856	0.2105	923712	keystroke	s	n/a
462.036	0.105	924072	keystroke	t	n/a
462.246	0.09	924492	keystroke	e	n/a
462.321	0.105	924642	keystroke	r	n/a
462.7715	0.164	925543	keystroke	Key.space	n/a
463.1755	0.135	926351	keystroke	a	n/a
463.446	0.075	926892	keystroke	c	n/a
463.611	0.0905	927222	keystroke	c	n/a
463.7615	0.12	927523	keystroke	i	n/a
463.8965	0.09	927793	keystroke	d	n/a
464.0765	0.075	928153	keystroke	e	n/a
464.1665	0.1495	928333	keystroke	n	n/a
464.331	0.105	928662	keystroke	t	n/a
464.346	0.12	928692	keystroke	Key.space	n/a
465.486	0.12	930972	keystroke	t	n/a
465.681	0.195	931362	keystroke	a	n/a
465.861	0.09	931722	keystroke	r	n/a
466.071	0.09	932142	keystroke	g	n/a
466.266	0.135	932532	keystroke	e	n/a
467.076	0.12	934152	keystroke	t	n/a
467.376	0.105	934752	keystroke	s	n/a
467.601	0.135	935202	keystroke	Key.space	n/a
467.916	0.105	935832	keystroke	r	n/a
468.0355	0.1055	936071	keystroke	o	n/a
468.2165	0.09	936433	keystroke	o	n/a
468.3515	0.09	936703	keystroke	f	n/a
468.5765	0.089	937153	keystroke	Key.enter	n/a
468.67	7.4075	937340	prompt	n/a	chevrolet wives chapel project\n
469.386	0.12	938772	keystroke	c	n/a
469.506	0.12	939012	keystroke	h	n/a
469.761	0.12	939522	keystroke	e	n/a
470.3005	0.105	940601	keystroke	v	n/a
471.0805	0.135	942161	keystroke	r	n/a
471.2305	0.105	942461	keystroke	o	n/a
471.4405	0.12	942881	keystroke	l	n/a
471.5905	0.1505	943181	keystroke	e	n/a
471.726	0.12	943452	keystroke	t	n/a
471.876	0.15	943752	keystroke	Key.space	n/a
472.236	0.09	944472	keystroke	w	n/a
472.356	0.12	944712	keystroke	i	n/a
472.536	0.21	945072	keystroke	v	n/a
472.731	0.12	945462	keystroke	e	n/a
472.986	0.105	945972	keystroke	s	n/a
473.121	0.15	946242	keystroke	Key.space	n/a
473.421	0.12	946842	keystroke	c	n/a
473.511	0.15	947022	keystroke	h	n/a
473.676	0.12	947352	keystroke	a	n/a
473.811	0.12	947622	keystroke	p	n/a
473.976	0.09	947952	keystroke	e	n/a
474.186	0.135	948372	keystroke	l	n/a
474.336	0.135	948672	keystroke	Key.space	n/a
474.7705	0.121	949541	keystroke	p	n/a
474.9205	0.1055	949841	keystroke	r	n/a
474.996	0.12	949992	keystroke	o	n/a
475.236	0.12	950472	keystroke	j	n/a
475.401	0.075	950802	keystroke	e	n/a
475.611	0.1795	951222	keystroke	c	n/a
475.7755	0.09	951551	keystroke	t	n/a
475.9855	0.09	951971	keystroke	Key.enter	n/a
476.08	7.3475	952160	prompt	n/a	radio germany permits olympic\n
476.871	0.1045	953742	keystroke	r	n/a
477.0355	0.1205	954071	keystroke	a	n/a
477.681	0.09	955362	keystroke	d	n/a
477.861	0.075	955722	keystroke	i	n/a
477.966	0.135	955932	keystroke	o	n/a
478.116	0.15	956232	keystroke	Key.space	n/a
478.596	0.045	957192	keystroke	g	n/a
478.701	0.15	957402	keystroke	e	n/a
478.806	0.1345	957612	keystroke	r	n/a
478.9855	0.135	957971	keystroke	m	n/a
479.1505	0.135	958301	keystroke	a	n/a
479.2865	0.059	958573	keystroke	n	n/a
479.4805	0.12	958961	keystroke	y	n/a
479.5555	0.18	959111	keystroke	Key.space	n/a
479.7505	0.135	959501	keystroke	p	n/a
479.9005	0.135	959801	keystroke	e	n/a
480.0055	0.1205	960011	keystroke	r	n/a
480.141	0.165	960282	keystroke	m	n/a
480.276	0.135	960552	keystroke	i	n/a
480.426	0.105	960852	keystroke	t	n/a
480.636	0.105	961272	keystroke	s	n/a
480.801	0.15	961602	keystroke	Key.space	n/a
481.026	0.105	962052	keystroke	o	n/a
481.2505	0.09	962501	keystroke	l	n/a
481.4305	0.105	962861	keystroke	y	n/a
481.716	0.135	963432	keystroke	m	n/a
482.031	0.12	964062	keystroke	p	n/a
482.271	0.06	964542	keystroke	o	n/a
482.346	0.09	964692	keystroke	i	n/a
482.736	0.075	965472	keystroke	Key.backspace	n/a
482.886	0.0595	965772	keystroke	Key.backspace	n/a
483.0665	0.089	966133	keystroke	i	n/a
483.1705	0.09	966341	keystroke	c	n/a
483.3505	0.075	966701	keystroke	Key.enter	n/a
483.431	4.286	966862	prompt	n/a	stan seem our catalyst\n
484.1455	0.075	968291	keystroke	s	n/a
484.3255	0.091	968651	keystroke	t	n/a
484.4615	0.1195	968923	keystroke	a	n/a
484.551	0.12	969102	keystroke	n	n/a
484.686	0.09	969372	keystroke	Key.space	n/a
484.777	0.104	969554	keystroke	s	n/a
484.911	0.09	969822	keystroke	e	n/a
485.106	0.06	970212	keystroke	e	n/a
485.196	0.15	970392	keystroke	m	n/a
485.331	0.09	970662	keystroke	Key.space	n/a
485.436	0.15	970872	keystroke	o	n/a
485.541	0.12	971082	keystroke	u	n/a
485.646	0.12	971292	keystroke	r	n/a
485.781	0.12	971562	keystroke	Key.space	n/a
486.156	0.075	972312	keystroke	c	n/a
486.291	0.15	972582	keystroke	a	n/a
486.471	0.09	972942	keystroke	t	n/a
486.7105	0.106	973421	keystroke	a	n/a
486.9505	0.105	973901	keystroke	l	n/a
487.1465	0.075	974293	keystroke	y	n/a
487.3555	0.135	974711	keystroke	s	n/a
487.4755	0.106	974951	keystroke	t	n/a
487.6255	0.09	975251	keystroke	Key.enter	n/a
487.72	7.183	975440	prompt	n/a	inserted provinces levitra wisdom\n
488.616	0.135	977232	keystroke	i	n/a
488.706	0.165	977412	keystroke	n	n/a
488.856	0.1795	977712	keystroke	s	n/a
489.0205	0.136	978041	keystroke	e	n/a
489.1105	0.121	978221	keystroke	r	n/a
489.3215	0.105	978643	keystroke	t	n/a
489.4715	0.074	978943	keystroke	e	n/a
489.6805	0.121	979361	keystroke	d	n/a
489.8455	0.165	979691	keystroke	Key.space	n/a
489.9805	0.15	979961	keystroke	p	n/a
490.1155	0.09	980231	keystroke	r	n/a
490.2355	0.121	980471	keystroke	o	n/a
490.4005	0.105	980801	keystroke	v	n/a
490.5655	0.075	981131	keystroke	i	n/a
490.7155	0.12	981431	keystroke	n	n/a
490.8955	0.09	981791	keystroke	c	n/a
491.121	0.0755	982242	keystroke	e	n/a
491.286	0.0745	982572	keystroke	s	n/a
491.42	0.1205	982840	keystroke	Key.space	n/a
491.5715	0.1045	983143	keystroke	l	n/a
491.6915	0.1045	983383	keystroke	e	n/a
491.931	0.0905	983862	keystroke	v	n/a
492.0815	0.12	984163	keystroke	i	n/a
492.606	0.105	985212	keystroke	t	n/a
492.8455	0.09	985691	keystroke	r	n/a
493.0555	0.105	986111	keystroke	a	n/a
493.2055	0.135	986411	keystroke	Key.space	n/a
493.551	0.09	987102	keystroke	w	n/a
493.701	0.12	987402	keystroke	i	n/a
493.866	0.15	987732	keystroke	s	n/a
494.241	0.09	988482	keystroke	d	n/a
494.421	0.135	988842	keystroke	o	n/a
494.541	0.12	989082	keystroke	m	n/a
494.811	0.09	989622	keystroke	Key.enter	n/a
494.9075	10.9	989815	prompt	n/a	hospitals accurately assets pharmacy\n
495.681	0.135	991362	keystroke	h	n/a
495.891	0.09	991782	keystroke	o	n/a
496.4455	0.09	992891	keystroke	s	n/a
496.5955	0.21	993191	keystroke	p	n/a
497.016	0.105	994032	keystroke	i	n/a
497.166	0.09	994332	keystroke	t	n/a
497.301	0.135	994602	keystroke	a	n/a
497.436	0.1205	994872	keystroke	l	n/a
498.0505	0.075	996101	keystroke	s	n/a
498.1705	0.15	996341	keystroke	Key.space	n/a
498.4705	0.105	996941	keystroke	a	n/a
498.7255	0.075	997451	keystroke	c	n/a
498.8905	0.09	997781	keystroke	c	n/a
499.0105	0.135	998021	keystroke	u	n/a
499.1155	0.12	998231	keystroke	r	n/a
499.2805	0.105	998561	keystroke	a	n/a
499.4005	0.135	998801	keystroke	t	n/a
499.4905	0.12	998981	keystroke	e	n/a
499.6255	0.135	999251	keystroke	l	n/a
499.7755	0.15	999551	keystroke	y	n/a
499.8955	0.15	999791	keystroke	Key.space	n/a
500.166	0.12	1000332	keystroke	a	n/a
500.376	0.075	1000752	keystroke	s	n/a
500.5555	0.1205	1001111	keystroke	s	n/a
501.096	0.09	1002192	keystroke	t	n/a
501.501	0.1045	1003002	keystroke	Key.backspace	n/a
501.6355	0.12	1003271	keystroke	e	n/a
501.7105	0.12	1003421	keystroke	t	n/a
501.9505	0.09	1003901	keystroke	s	n/a
502.0555	0.15	1004111	keystroke	Key.space	n/a
502.4155	0.135	1004831	keystroke	p	n/a
503.2405	0.09	1006481	keystroke	h	n/a
503.6155	0.18	1007231	keystroke	a	n/a
503.7655	0.12	1007531	keystroke	r	n/a
504.2755	0.1055	1008551	keystroke	m	n/a
504.621	0.12	1009242	keystroke	a	n/a
505.0115	0.105	1010023	keystroke	c	n/a
505.4015	0.105	1010803	keystroke	y	n/a
505.716	0.09	1011432	keystroke	Key.enter	n/a
505.8105	13.077	1011621	prompt	n/a	microwave computation tracker infringement\n
506.8405	0.166	1013681	keystroke	m	n/a
506.9755	0.1055	1013951	keystroke	i	n/a
507.111	0.105	1014222	keystroke	c	n/a
507.291	0.09	1014582	keystroke	r	n/a
507.396	0.105	1014792	keystroke	o	n/a
507.9655	0.09	1015931	keystroke	w	n/a
508.3705	0.18	1016741	keystroke	a	n/a
508.7455	0.15	1017491	keystroke	v	n/a
508.8205	0.165	1017641	keystroke	e	n/a
509.0455	0.12	1018091	keystroke	Key.space	n/a
509.7355	0.135	1019471	keystroke	c	n/a
509.9005	0.135	1019801	keystroke	o	n/a
510.7105	0.165	1021421	keystroke	m	n/a
510.9355	0.24	1021871	keystroke	p	n/a
511.161	0.12	1022322	keystroke	u	n/a
512.0455	0.135	1024091	keystroke	t	n/a
512.2255	0.1355	1024451	keystroke	a	n/a
512.3305	0.1055	1024661	keystroke	t	n/a
512.436	0.135	1024872	keystroke	i	n/a
512.526	0.12	1025052	keystroke	o	n/a
512.586	0.165	1025172	keystroke	n	n/a
512.736	0.135	1025472	keystroke	Key.space	n/a
513.021	0.09	1026042	keystroke	t	n/a
513.231	0.12	1026462	keystroke	r	n/a
513.426	0.135	1026852	keystroke	a	n/a
514.2205	0.105	1028441	keystroke	c	n/a
514.3855	0.1355	1028771	keystroke	k	n/a
514.551	0.165	1029102	keystroke	e	n/a
514.701	0.105	1029402	keystroke	r	n/a
514.896	0.12	1029792	keystroke	Key.space	n/a
515.226	0.1345	1030452	keystroke	i	n/a
515.3305	0.15	1030661	keystroke	n	n/a
515.6005	0.105	1031201	keystroke	f	n/a
515.8255	0.0905	1031651	keystroke	r	n/a
515.946	0.135	1031892	keystroke	i	n/a
516.1255	0.0905	1032251	keystroke	g	n/a
516.9955	0.09	1033991	keystroke	Key.backspace	n/a
517.2355	0.105	1034471	keystroke	n	n/a
517.4305	0.12	1034861	keystroke	g	n/a
517.9705	0.106	1035941	keystroke	e	n/a
518.2265	0.135	1036453	keystroke	m	n/a
518.4065	0.105	1036813	keystroke	e	n/a
518.5265	0.105	1037053	keystroke	n	n/a
518.6455	0.09	1037291	keystroke	t	n/a
518.7955	0.09	1037591	keystroke	Key.enter	n/a
518.892	6.8355	1037784	prompt	n/a	constantly divided asset scan\n
519.7405	0.09	1039481	keystroke	c	n/a
519.8165	0.119	1039633	keystroke	o	n/a
519.8905	0.12	1039781	keystroke	n	n/a
520.0405	0.105	1040081	keystroke	s	n/a
520.1615	0.09	1040323	keystroke	t	n/a
520.3105	0.1505	1040621	keystroke	a	n/a
520.431	0.12	1040862	keystroke	n	n/a
520.566	0.105	1041132	keystroke	t	n/a
520.731	0.18	1041462	keystroke	l	n/a
520.896	0.12	1041792	keystroke	y	n/a
521.076	0.12	1042152	keystroke	Key.space	n/a
521.7655	0.09	1043531	keystroke	d	n/a
521.9005	0.105	1043801	keystroke	i	n/a
522.0355	0.09	1044071	keystroke	v	n/a
522.546	0.12	1045092	keystroke	i	n/a
522.726	0.0745	1045452	keystroke	d	n/a
522.921	0.06	1045842	keystroke	e	n/a
523.131	0.09	1046262	keystroke	d	n/a
523.311	0.134	1046622	keystroke	Key.space	n/a
523.506	0.12	1047012	keystroke	a	n/a
523.701	0.075	1047402	keystroke	s	n/a
523.851	0.12	1047702	keystroke	s	n/a
524.046	0.075	1048092	keystroke	e	n/a
524.376	0.09	1048752	keystroke	t	n/a
524.556	0.105	1049112	keystroke	Key.space	n/a
524.961	0.12	1049922	keystroke	s	n/a
525.186	0.12	1050372	keystroke	c	n/a
525.291	0.12	1050582	keystroke	a	n/a
525.4255	0.09	1050851	keystroke	n	n/a
525.621	0.105	1051242	keystroke	Key.enter	n/a
525.73	7.6175	1051460	prompt	n/a	truth appointed haiti spending\n
526.5055	0.1055	1053011	keystroke	t	n/a
526.716	0.105	1053432	keystroke	r	n/a
526.836	0.1045	1053672	keystroke	u	n/a
526.9855	0.06	1053971	keystroke	t	n/a
527.0755	0.15	1054151	keystroke	h	n/a
527.2105	0.15	1054421	keystroke	Key.space	n/a
527.5405	0.12	1055081	keystroke	a	n/a
527.6755	0.09	1055351	keystroke	p	n/a
527.8405	0.135	1055681	keystroke	p	n/a
528.0505	0.12	1056101	keystroke	o	n/a
528.2305	0.195	1056461	keystroke	i	n/a
528.3655	0.15	1056731	keystroke	n	n/a
528.5005	0.105	1057001	keystroke	t	n/a
528.6505	0.075	1057301	keystroke	e	n/a
528.8305	0.09	1057661	keystroke	d	n/a
528.9655	0.12	1057931	keystroke	Key.space	n/a
529.1605	0.105	1058321	keystroke	h	n/a
529.3405	0.105	1058681	keystroke	a	n/a
529.8505	0.09	1059701	keystroke	l	n/a
530.0155	0.12	1060031	keystroke	t	n/a
530.1805	0.0905	1060361	keystroke	i	n/a
530.3605	0.1205	1060721	keystroke	Key.space	n/a
530.705	0.106	1061410	keystroke	s	n/a
530.841	0.1045	1061682	keystroke	p	n/a
531.2155	0.09	1062431	keystroke	e	n/a
531.4555	0.105	1062911	keystroke	d	n/a
531.7555	0.105	1063511	keystroke	n	n/a
532.2505	0.09	1064501	keystroke	Key.backspace	n/a
532.4155	0.09	1064831	keystroke	Key.backspace	n/a
532.6255	0.105	1065251	keystroke	n	n/a
532.7755	0.0905	1065551	keystroke	d	n/a
532.896	0.105	1065792	keystroke	i	n/a
532.971	0.12	1065942	keystroke	n	n/a
533.061	0.075	1066122	keystroke	g	n/a
533.271	0.075	1066542	keystroke	Key.enter	n/a
533.35	9.1175	1066700	prompt	n/a	distinguished pamela funk martial\n
534.336	0.075	1068672	keystroke	d	n/a
534.486	0.12	1068972	keystroke	i	n/a
534.636	0.18	1069272	keystroke	s	n/a
534.771	0.105	1069542	keystroke	t	n/a
535.0105	0.075	1070021	keystroke	i	n/a
535.1905	0.105	1070381	keystroke	n	n/a
535.3705	0.105	1070741	keystroke	g	n/a
535.6105	0.135	1071221	keystroke	u	n/a
535.851	0.105	1071702	keystroke	i	n/a
536.526	0.09	1073052	keystroke	s	n/a
536.631	0.135	1073262	keystroke	h	n/a
536.811	0.06	1073622	keystroke	e	n/a
536.9905	0.105	1073981	keystroke	d	n/a
537.1255	0.18	1074251	keystroke	Key.space	n/a
537.3205	0.12	1074641	keystroke	p	n/a
537.5005	0.135	1075001	keystroke	a	n/a
538.1905	0.09	1076381	keystroke	m	n/a
538.3105	0.1055	1076621	keystroke	e	n/a
538.476	0.105	1076952	keystroke	l	n/a
538.656	0.135	1077312	keystroke	a	n/a
538.791	0.1345	1077582	keystroke	Key.space	n/a
539.3305	0.105	1078661	keystroke	f	n/a
539.4805	0.09	1078961	keystroke	u	n/a
539.6755	0.1055	1079351	keystroke	n	n/a
539.811	0.135	1079622	keystroke	k	n/a
539.931	0.119	1079862	keystroke	Key.space	n/a
540.216	0.09	1080432	keystroke	m	n/a
540.621	0.255	1081242	keystroke	a	n/a
540.921	0.105	1081842	keystroke	r	n/a
541.1605	0.12	1082321	keystroke	t	n/a
541.3255	0.15	1082651	keystroke	i	n/a
541.5655	0.105	1083131	keystroke	a	n/a
542.0905	0.105	1084181	keystroke	l	n/a
542.376	0.09	1084752	keystroke	Key.enter	n/a
542.4705	6.477	1084941	prompt	n/a	cells suspect lectures activities\n
543.201	0.105	1086402	keystroke	c	n/a
543.426	0.075	1086852	keystroke	e	n/a
543.546	0.09	1087092	keystroke	l	n/a
543.726	0.105	1087452	keystroke	l	n/a
543.846	0.09	1087692	keystroke	s	n/a
543.996	0.105	1087992	keystroke	Key.space	n/a
544.116	0.09	1088232	keystroke	s	n/a
544.281	0.135	1088562	keystroke	u	n/a
544.476	0.09	1088952	keystroke	s	n/a
544.611	0.105	1089222	keystroke	p	n/a
544.776	0.075	1089552	keystroke	e	n/a
544.9855	0.09	1089971	keystroke	c	n/a
545.1805	0.091	1090361	keystroke	t	n/a
545.3005	0.136	1090601	keystroke	Key.space	n/a
545.5865	0.09	1091173	keystroke	l	n/a
545.6915	0.089	1091383	keystroke	e	n/a
545.9305	0.121	1091861	keystroke	c	n/a
546.0655	0.105	1092131	keystroke	t	n/a
546.2455	0.12	1092491	keystroke	u	n/a
546.3365	0.119	1092673	keystroke	r	n/a
546.4705	0.09	1092941	keystroke	e	n/a
546.6655	0.09	1093331	keystroke	s	n/a
546.8155	0.15	1093631	keystroke	Key.space	n/a
547.2055	0.105	1094411	keystroke	a	n/a
547.4605	0.06	1094921	keystroke	c	n/a
547.6405	0.09	1095281	keystroke	t	n/a
547.7605	0.09	1095521	keystroke	i	n/a
547.8955	0.1205	1095791	keystroke	v	n/a
548.031	0.105	1096062	keystroke	i	n/a
548.211	0.135	1096422	keystroke	t	n/a
548.346	0.1205	1096692	keystroke	i	n/a
548.4965	0.0895	1096993	keystroke	e	n/a
548.6605	0.1055	1097321	keystroke	s	n/a
548.856	0.09	1097712	keystroke	Key.enter	n/a
548.951	7.7965	1097902	prompt	n/a	modifications goals dialogue clients\n
549.771	0.165	1099542	keystroke	m	n/a
549.921	0.12	1099842	keystroke	o	n/a
550.086	0.09	1100172	keystroke	d	n/a
550.221	0.105	1100442	keystroke	i	n/a
550.4005	0.105	1100801	keystroke	f	n/a
550.5355	0.105	1101071	keystroke	i	n/a
550.791	0.09	1101582	keystroke	c	n/a
550.896	0.1195	1101792	keystroke	a	n/a
551.0305	0.09	1102061	keystroke	t	n/a
551.0755	0.105	1102151	keystroke	i	n/a
551.1505	0.135	1102301	keystroke	o	n/a
551.2555	0.12	1102511	keystroke	n	n/a
551.4955	0.105	1102991	keystroke	s	n/a
551.6605	0.12	1103321	keystroke	Key.space	n/a
551.976	0.075	1103952	keystroke	g	n/a
552.096	0.09	1104192	keystroke	o	n/a
552.246	0.1195	1104492	keystroke	a	n/a
552.441	0.105	1104882	keystroke	l	n/a
552.861	0.1045	1105722	keystroke	s	n/a
553.0855	0.105	1106171	keystroke	Key.space	n/a
553.4905	0.09	1106981	keystroke	d	n/a
553.5955	0.09	1107191	keystroke	i	n/a
554.061	0.0895	1108122	keystroke	a	n/a
554.2105	0.09	1108421	keystroke	l	n/a
554.4055	0.075	1108811	keystroke	o	n/a
554.6005	0.075	1109201	keystroke	g	n/a
554.796	0.1045	1109592	keystroke	u	n/a
555.0055	0.09	1110011	keystroke	e	n/a
555.2005	0.12	1110401	keystroke	Key.space	n/a
555.5155	0.12	1111031	keystroke	c	n/a
555.6805	0.105	1111361	keystroke	l	n/a
555.8005	0.135	1111601	keystroke	i	n/a
556.0405	0.075	1112081	keystroke	e	n/a
556.1755	0.12	1112351	keystroke	n	n/a
556.3105	0.0905	1112621	keystroke	t	n/a
556.476	0.0895	1112952	keystroke	s	n/a
556.6405	0.105	1113281	keystroke	Key.enter	n/a
556.75	5.8925	1113500	prompt	n/a	beth must machinery monitor\n
557.6455	0.09	1115291	keystroke	b	n/a
557.7955	0.135	1115591	keystroke	e	n/a
557.9155	0.105	1115831	keystroke	t	n/a
558.0355	0.135	1116071	keystroke	h	n/a
558.1555	0.105	1116311	keystroke	Key.space	n/a
558.6805	0.0755	1117361	keystroke	m	n/a
558.876	0.105	1117752	keystroke	u	n/a
558.966	0.1495	1117932	keystroke	s	n/a
559.0555	0.135	1118111	keystroke	t	n/a
559.2055	0.12	1118411	keystroke	Key.space	n/a
559.7605	0.15	1119521	keystroke	m	n/a
559.8955	0.105	1119791	keystroke	a	n/a
560.1055	0.121	1120211	keystroke	c	n/a
560.2105	0.105	1120421	keystroke	h	n/a
560.3165	0.149	1120633	keystroke	i	n/a
560.4505	0.135	1120901	keystroke	n	n/a
560.6605	0.15	1121321	keystroke	e	n/a
560.8255	0.1055	1121651	keystroke	r	n/a
561.006	0.135	1122012	keystroke	y	n/a
561.111	0.15	1122222	keystroke	Key.space	n/a
561.411	0.135	1122822	keystroke	m	n/a
561.531	0.12	1123062	keystroke	o	n/a
561.711	0.195	1123422	keystroke	n	n/a
561.861	0.12	1123722	keystroke	i	n/a
562.011	0.09	1124022	keystroke	t	n/a
562.206	0.09	1124412	keystroke	o	n/a
562.386	0.075	1124772	keystroke	r	n/a
562.551	0.09	1125102	keystroke	Key.enter	n/a
562.6455	9.282	1125291	prompt	n/a	identifies thereof answered just\n
563.391	0.1505	1126782	keystroke	i	n/a
563.556	0.015	1127112	keystroke	d	n/a
563.676	0.075	1127352	keystroke	e	n/a
563.7815	0.1045	1127563	keystroke	n	n/a
563.916	0.105	1127832	keystroke	t	n/a
564.066	0.105	1128132	keystroke	i	n/a
564.216	0.09	1128432	keystroke	t	n/a
564.3505	0.075	1128701	keystroke	i	n/a
564.4705	0.105	1128941	keystroke	f	n/a
564.6055	0.09	1129211	keystroke	e	n/a
564.8155	0.09	1129631	keystroke	s	n/a
564.9505	0.135	1129901	keystroke	Key.space	n/a
565.1305	0.105	1130261	keystroke	t	n/a
565.2505	0.09	1130501	keystroke	h	n/a
565.4005	0.105	1130801	keystroke	e	n/a
565.656	0.105	1131312	keystroke	r	n/a
566.256	0.075	1132512	keystroke	e	n/a
566.511	0.09	1133022	keystroke	o	n/a
566.646	0.105	1133292	keystroke	f	n/a
566.841	0.1045	1133682	keystroke	Key.space	n/a
567.141	0.105	1134282	keystroke	a	n/a
567.261	0.12	1134522	keystroke	n	n/a
567.486	0.1055	1134972	keystroke	s	n/a
567.7265	0.0895	1135453	keystroke	w	n/a
567.8615	0.1185	1135723	keystroke	e	n/a
567.9955	0.121	1135991	keystroke	r	n/a
568.161	0.104	1136322	keystroke	e	n/a
568.416	0.09	1136832	keystroke	d	n/a
568.581	0.105	1137162	keystroke	Key.space	n/a
571.4175	0.013	1142835	keystroke	j	n/a
571.5355	0.09	1143071	keystroke	u	n/a
571.5805	0.15	1143161	keystroke	s	n/a
571.7005	0.105	1143401	keystroke	t	n/a
571.8205	0.105	1143641	keystroke	Key.enter	n/a
571.9305	11.412	1143861	prompt	n/a	cardiovascular technique fundraising flyer\n
572.796	0.105	1145592	keystroke	a	n/a
573.171	0.105	1146342	keystroke	Key.backspace	n/a
573.306	0.135	1146612	keystroke	c	n/a
573.426	0.135	1146852	keystroke	a	n/a
574.1155	0.12	1148231	keystroke	r	n/a
574.3405	0.09	1148681	keystroke	d	n/a
574.4755	0.121	1148951	keystroke	i	n/a
575.166	0.12	1150332	keystroke	o	n/a
575.466	0.135	1150932	keystroke	v	n/a
575.676	0.165	1151352	keystroke	a	n/a
575.856	0.105	1151712	keystroke	s	n/a
576.186	0.105	1152372	keystroke	c	n/a
576.351	0.105	1152702	keystroke	u	n/a
576.516	0.12	1153032	keystroke	l	n/a
576.681	0.18	1153362	keystroke	a	n/a
576.816	0.12	1153632	keystroke	r	n/a
576.966	0.135	1153932	keystroke	Key.space	n/a
577.251	0.105	1154502	keystroke	t	n/a
577.386	0.09	1154772	keystroke	e	n/a
577.866	0.09	1155732	keystroke	c	n/a
578.09	0.106	1156180	keystroke	h	n/a
578.346	0.1795	1156692	keystroke	n	n/a
578.4955	0.12	1156991	keystroke	i	n/a
578.7355	0.1055	1157471	keystroke	q	n/a
578.9015	0.119	1157803	keystroke	u	n/a
579.0655	0.09	1158131	keystroke	e	n/a
579.2305	0.135	1158461	keystroke	Key.space	n/a
579.6505	0.09	1159301	keystroke	f	n/a
579.8455	0.09	1159691	keystroke	u	n/a
580.0405	0.105	1160081	keystroke	n	n/a
580.1605	0.105	1160321	keystroke	d	n/a
580.5055	0.12	1161011	keystroke	r	n/a
580.7455	0.09	1161491	keystroke	a	n/a
581.031	0.12	1162062	keystroke	i	n/a
581.556	0.105	1163112	keystroke	s	n/a
581.676	0.18	1163352	keystroke	i	n/a
581.781	0.135	1163562	keystroke	n	n/a
581.961	0.09	1163922	keystroke	g	n/a
582.171	0.15	1164342	keystroke	Key.space	n/a
582.5905	0.09	1165181	keystroke	f	n/a
582.7105	0.105	1165421	keystroke	l	n/a
582.8605	0.135	1165721	keystroke	y	n/a
583.0105	0.105	1166021	keystroke	e	n/a
583.0555	0.15	1166111	keystroke	r	n/a
583.2205	0.12	1166441	keystroke	Key.enter	n/a
583.3455	8.2625	1166691	prompt	n/a	actors quality execution feeding\n
584.1655	0.09	1168331	keystroke	a	n/a
584.3455	0.105	1168691	keystroke	c	n/a
584.4805	0.105	1168961	keystroke	t	n/a
584.6005	0.105	1169201	keystroke	o	n/a
584.7505	0.0755	1169501	keystroke	r	n/a
584.946	0.105	1169892	keystroke	s	n/a
585.111	0.12	1170222	keystroke	Key.space	n/a
585.7255	0.09	1171451	keystroke	q	n/a
586.266	0.135	1172532	keystroke	a	n/a
586.491	0.135	1172982	keystroke	u	n/a
586.971	0.09	1173942	keystroke	Key.backspace	n/a
587.136	0.09	1174272	keystroke	Key.backspace	n/a
587.346	0.105	1174692	keystroke	u	n/a
587.466	0.12	1174932	keystroke	a	n/a
587.556	0.18	1175112	keystroke	l	n/a
587.691	0.09	1175382	keystroke	i	n/a
587.781	0.12	1175562	keystroke	t	n/a
587.931	0.1195	1175862	keystroke	y	n/a
588.0355	0.165	1176071	keystroke	Key.space	n/a
588.7105	0.09	1177421	keystroke	e	n/a
588.951	0.105	1177902	keystroke	x	n/a
589.176	0.075	1178352	keystroke	e	n/a
589.4005	0.09	1178801	keystroke	c	n/a
589.5505	0.105	1179101	keystroke	u	n/a
589.6705	0.09	1179341	keystroke	t	n/a
589.8205	0.135	1179641	keystroke	i	n/a
589.9255	0.12	1179851	keystroke	o	n/a
590.0005	0.15	1180001	keystroke	n	n/a
590.1355	0.135	1180271	keystroke	Key.space	n/a
590.451	0.105	1180902	keystroke	f	n/a
590.661	0.075	1181322	keystroke	e	n/a
590.841	0.075	1181682	keystroke	e	n/a
591.035	0.136	1182070	keystroke	d	n/a
591.156	0.134	1182312	keystroke	i	n/a
591.215	0.136	1182430	keystroke	n	n/a
591.366	0.06	1182732	keystroke	g	n/a
591.5	0.1055	1183000	keystroke	Key.enter	n/a
591.612	6.88	1183224	prompt	n/a	picture distances dame boys\n
592.3705	0.09	1184741	keystroke	p	n/a
592.5055	0.1205	1185011	keystroke	i	n/a
592.686	0.105	1185372	keystroke	c	n/a
592.8955	0.075	1185791	keystroke	t	n/a
592.9855	0.105	1185971	keystroke	u	n/a
593.1205	0.135	1186241	keystroke	r	n/a
593.2405	0.105	1186481	keystroke	e	n/a
593.3755	0.12	1186751	keystroke	Key.space	n/a
593.6155	0.105	1187231	keystroke	d	n/a
593.7355	0.09	1187471	keystroke	i	n/a
593.8855	0.12	1187771	keystroke	s	n/a
594.1405	0.105	1188281	keystroke	t	n/a
594.3055	0.105	1188611	keystroke	a	n/a
594.4255	0.135	1188851	keystroke	n	n/a
594.6205	0.0905	1189241	keystroke	c	n/a
595.5805	0.09	1191161	keystroke	e	n/a
595.806	0.105	1191612	keystroke	s	n/a
596.03	0.135	1192060	keystroke	Key.space	n/a
596.301	0.09	1192602	keystroke	a	n/a
596.675	0.09	1193350	keystroke	Key.backspace	n/a
596.78	0.1205	1193560	keystroke	d	n/a
596.885	0.1055	1193770	keystroke	a	n/a
597.0205	0.1205	1194041	keystroke	m	n/a
597.306	0.09	1194612	keystroke	e	n/a
597.456	0.105	1194912	keystroke	Key.space	n/a
597.741	0.09	1195482	keystroke	b	n/a
597.786	0.105	1195572	keystroke	o	n/a
597.951	0.135	1195902	keystroke	y	n/a
598.146	0.09	1196292	keystroke	s	n/a
598.4005	0.09	1196801	keystroke	Key.enter	n/a
598.4955	12.5815	1196991	prompt	n/a	pharmaceuticals patrol some lime\n
599.42	0.12	1198840	keystroke	p	n/a
600.0655	0.12	1200131	keystroke	h	n/a
600.3355	0.135	1200671	keystroke	a	n/a
600.4855	0.135	1200971	keystroke	r	n/a
600.6655	0.135	1201331	keystroke	m	n/a
601.6255	0.165	1203251	keystroke	a	n/a
602.9005	0.105	1205801	keystroke	c	n/a
603.1555	0.09	1206311	keystroke	e	n/a
603.3805	0.105	1206761	keystroke	u	n/a
603.6055	0.075	1207211	keystroke	l	n/a
603.876	0.105	1207752	keystroke	t	n/a
604.011	0.12	1208022	keystroke	i	n/a
604.206	0.135	1208412	keystroke	c	n/a
604.491	0.075	1208982	keystroke	a	n/a
605.061	0.105	1210122	keystroke	l	n/a
605.436	0.135	1210872	keystroke	s	n/a
605.691	0.12	1211382	keystroke	Key.space	n/a
606.0205	0.075	1212041	keystroke	a	n/a
606.0355	0.105	1212071	keystroke	p	n/a
606.7705	0.075	1213541	keystroke	Key.backspace	n/a
606.9205	0.09	1213841	keystroke	Key.backspace	n/a
607.1455	0.105	1214291	keystroke	p	n/a
607.2205	0.12	1214441	keystroke	a	n/a
607.3255	0.09	1214651	keystroke	s	n/a
607.4155	0.075	1214831	keystroke	t	n/a
607.5955	0.075	1215191	keystroke	r	n/a
607.7155	0.105	1215431	keystroke	o	n/a
608.0755	0.09	1216151	keystroke	Key.backspace	n/a
608.2555	0.09	1216511	keystroke	Key.backspace	n/a
608.4355	0.075	1216871	keystroke	Key.backspace	n/a
608.6005	0.09	1217201	keystroke	Key.backspace	n/a
608.7205	0.09	1217441	keystroke	t	n/a
608.9155	0.09	1217831	keystroke	r	n/a
609.0505	0.09	1218101	keystroke	o	n/a
609.2755	0.12	1218551	keystroke	l	n/a
609.4255	0.135	1218851	keystroke	Key.space	n/a
609.6955	0.075	1219391	keystroke	s	n/a
609.7855	0.135	1219571	keystroke	o	n/a
609.8755	0.12	1219751	keystroke	m	n/a
610.0115	0.074	1220023	keystroke	e	n/a
610.0705	0.135	1220141	keystroke	Key.space	n/a
610.2065	0.089	1220413	keystroke	l	n/a
610.3255	0.165	1220651	keystroke	i	n/a
610.5055	0.21	1221011	keystroke	m	n/a
610.7905	0.09	1221581	keystroke	e	n/a
610.9855	0.09	1221971	keystroke	Key.enter	n/a
611.082	3.97	1222164	prompt	n/a	gays front amber thus\n
611.7955	0.09	1223591	keystroke	g	n/a
611.9755	0.075	1223951	keystroke	a	n/a
612.0805	0.135	1224161	keystroke	y	n/a
612.2605	0.105	1224521	keystroke	s	n/a
612.3665	0.1345	1224733	keystroke	Key.space	n/a
612.561	0.09	1225122	keystroke	f	n/a
612.741	0.105	1225482	keystroke	r	n/a
612.861	0.12	1225722	keystroke	o	n/a
612.936	0.135	1225872	keystroke	n	n/a
613.011	0.09	1226022	keystroke	t	n/a
613.191	0.105	1226382	keystroke	Key.space	n/a
613.386	0.1195	1226772	keystroke	a	n/a
