onset	duration	sample	value	key	prompt_text
4.8655	7.3915	9731	prompt	n/a	the quick brown fox jumps over a lazy dog\n
6.3785	0.057	12757	keystroke_t	t	n/a
6.3795	0.0855	12759	keystroke_h	h	n/a
6.795	0.0755	13590	keystroke_e	e	n/a
6.8855	0.1045	13771	keystroke_Key.space	Key.space	n/a
7.14	0.1505	14280	keystroke_q	q	n/a
7.3355	0.075	14671	keystroke_u	u	n/a
7.3505	0.09	14701	keystroke_i	i	n/a
7.575	0.075	15150	keystroke_c	c	n/a
7.665	0.105	15330	keystroke_k	k	n/a
7.785	0.075	15570	keystroke_Key.space	Key.space	n/a
7.9205	0.0895	15841	keystroke_b	b	n/a
8.04	0.0755	16080	keystroke_r	r	n/a
8.13	0.09	16260	keystroke_o	o	n/a
8.28	0.12	16560	keystroke_w	w	n/a
8.385	0.06	16770	keystroke_n	n	n/a
8.5505	0.06	17101	keystroke_Key.space	Key.space	n/a
8.6405	0.075	17281	keystroke_f	f	n/a
8.7455	0.1045	17491	keystroke_o	o	n/a
9.001	0.075	18002	keystroke_x	x	n/a
9.091	0.074	18182	keystroke_Key.space	Key.space	n/a
9.3305	0.0445	18661	keystroke_j	j	n/a
9.4805	0.06	18961	keystroke_u	u	n/a
9.7055	0.105	19411	keystroke_m	m	n/a
9.8115	0.089	19623	keystroke_p	p	n/a
9.9155	0.0895	19831	keystroke_s	s	n/a
10.02	0.075	20040	keystroke_Key.space	Key.space	n/a
10.155	0.0905	20310	keystroke_o	o	n/a
10.2605	0.0595	20521	keystroke_v	v	n/a
10.4395	0.09	20879	keystroke_e	e	n/a
10.4845	0.1055	20969	keystroke_r	r	n/a
10.605	0.06	21210	keystroke_Key.space	Key.space	n/a
10.665	0.1055	21330	keystroke_a	a	n/a
10.7855	0.0595	21571	keystroke_Key.space	Key.space	n/a
10.9195	0.09	21839	keystroke_l	l	n/a
11.0395	0.0905	22079	keystroke_a	a	n/a
11.2645	0.09	22529	keystroke_z	z	n/a
11.3845	0.075	22769	keystroke_y	y	n/a
11.505	0.075	23010	keystroke_Key.space	Key.space	n/a
11.7595	0.09	23519	keystroke_d	d	n/a
11.8795	0.1055	23759	keystroke_o	o	n/a
12.015	0.0895	24030	keystroke_g	g	n/a
12.1345	0.12	24269	keystroke_Key.enter	Key.enter	n/a
12.2615	9.189	24523	prompt	n/a	pavilion tapes colorado plugins\n
13.08	0.1055	26160	keystroke_p	p	n/a
13.17	0.12	26340	keystroke_a	a	n/a
13.395	0.09	26790	keystroke_v	v	n/a
13.6355	0.06	27271	keystroke_i	i	n/a
13.845	0.09	27690	keystroke_l	l	n/a
14.055	0.045	28110	keystroke_i	i	n/a
15.45	0.179	30900	keystroke_o	o	n/a
15.585	0.12	31170	keystroke_n	n	n/a
15.719	0.0905	31438	keystroke_Key.space	Key.space	n/a
16.1095	0.09	32219	keystroke_t	t	n/a
16.3045	0.1045	32609	keystroke_a	a	n/a
16.41	0.1045	32820	keystroke_p	p	n/a
16.5285	0.0755	33057	keystroke_e	e	n/a
16.709	0.09	33418	keystroke_s	s	n/a
16.814	0.0755	33628	keystroke_Key.space	Key.space	n/a
17.2945	0.0755	34589	keystroke_c	c	n/a
17.3545	0.0755	34709	keystroke_o	o	n/a
17.505	0.12	35010	keystroke_l	l	n/a
17.7295	0.0605	35459	keystroke_o	o	n/a
17.805	0.075	35610	keystroke_r	r	n/a
18.899	0.075	37798	keystroke_a	a	n/a
19.079	0.105	38158	keystroke_d	d	n/a
19.92	0.015	39840	keystroke_o	o	n/a
19.95	0.075	39900	keystroke_Key.space	Key.space	n/a
20.474	0.12	40948	keystroke_p	p	n/a
20.519	0.12	41038	keystroke_l	l	n/a
20.79	0.075	41580	keystroke_u	u	n/a
20.925	0.0895	41850	keystroke_g	g	n/a
21.0445	0.135	42089	keystroke_i	i	n/a
21.1195	0.089	42239	keystroke_n	n	n/a
21.2245	0.09	42449	keystroke_s	s	n/a
21.3595	0.09	42719	keystroke_Key.enter	Key.enter	n/a
21.454	9.1015	42908	prompt	n/a	success odds plymouth accountability\n
22.4385	0.0915	44877	keystroke_s	s	n/a
22.544	0.075	45088	keystroke_u	u	n/a
22.649	0.06	45298	keystroke_c	c	n/a
22.7985	0.09	45597	keystroke_c	c	n/a
22.9035	0.091	45807	keystroke_e	e	n/a
23.0995	0.045	46199	keystroke_s	s	n/a
23.2185	0.106	46437	keystroke_s	s	n/a
23.339	0.09	46678	keystroke_Key.space	Key.space	n/a
23.6985	0.091	47397	keystroke_o	o	n/a
23.8185	0.075	47637	keystroke_d	d	n/a
23.9685	0.075	47937	keystroke_d	d	n/a
24.0885	0.09	48177	keystroke_s	s	n/a
24.2085	0.09	48417	keystroke_Key.space	Key.space	n/a
24.4345	0.09	48869	keystroke_p	p	n/a
24.9435	0.0905	49887	keystroke_l	l	n/a
25.1545	0.059	50309	keystroke_y	y	n/a
25.2585	0.075	50517	keystroke_m	m	n/a
25.4685	0.0755	50937	keystroke_o	o	n/a
25.499	0.0895	50998	keystroke_u	u	n/a
25.6035	0.075	51207	keystroke_t	t	n/a
25.7235	0.06	51447	keystroke_h	h	n/a
25.859	0.0755	51718	keystroke_Key.space	Key.space	n/a
26.2635	0.12	52527	keystroke_a	a	n/a
26.4585	0.075	52917	keystroke_c	c	n/a
26.6085	0.075	53217	keystroke_c	c	n/a
26.6985	0.106	53397	keystroke_o	o	n/a
26.7595	0.06	53519	keystroke_u	u	n/a
26.939	0.075	53878	keystroke_n	n	n/a
26.999	0.075	53998	keystroke_t	t	n/a
27.149	0.075	54298	keystroke_a	a	n/a
27.359	0.06	54718	keystroke_b	b	n/a
27.434	0.075	54868	keystroke_i	i	n/a
27.869	0.09	55738	keystroke_l	l	n/a
28.094	0.045	56188	keystroke_i	i	n/a
29.114	0.0895	58228	keystroke_t	t	n/a
29.174	0.0595	58348	keystroke_y	y	n/a
30.4485	0.105	60897	keystroke_Key.enter	Key.enter	n/a
30.558	7.243	61116	prompt	n/a	graph experimental dairy serving\n
31.6045	0.1195	63209	keystroke_g	g	n/a
31.664	0.12	63328	keystroke_r	r	n/a
31.8595	0.1195	63719	keystroke_a	a	n/a
32.084	0.09	64168	keystroke_p	p	n/a
32.2795	0.09	64559	keystroke_h	h	n/a
32.3995	0.1045	64799	keystroke_Key.space	Key.space	n/a
32.7145	0.105	65429	keystroke_e	e	n/a
33.029	0.075	66058	keystroke_x	x	n/a
33.209	0.105	66418	keystroke_p	p	n/a
33.479	0.135	66958	keystroke_e	e	n/a
33.554	0.075	67108	keystroke_r	r	n/a
33.719	0.09	67438	keystroke_i	i	n/a
33.914	0.105	67828	keystroke_m	m	n/a
34.004	0.09	68008	keystroke_e	e	n/a
34.124	0.105	68248	keystroke_n	n	n/a
34.214	0.075	68428	keystroke_t	t	n/a
34.423	0.061	68846	keystroke_a	a	n/a
34.528	0.091	69056	keystroke_l	l	n/a
34.663	0.06	69326	keystroke_Key.space	Key.space	n/a
35.189	0.074	70378	keystroke_d	d	n/a
35.204	0.09	70408	keystroke_a	a	n/a
35.294	0.104	70588	keystroke_i	i	n/a
35.458	0.106	70916	keystroke_r	r	n/a
35.728	0.075	71456	keystroke_y	y	n/a
35.849	0.1195	71698	keystroke_Key.space	Key.space	n/a
36.4485	0.0905	72897	keystroke_s	s	n/a
36.704	0.09	73408	keystroke_e	e	n/a
36.749	0.075	73498	keystroke_r	r	n/a
36.959	0.075	73918	keystroke_v	v	n/a
37.064	0.15	74128	keystroke_i	i	n/a
37.229	0.09	74458	keystroke_n	n	n/a
37.289	0.09	74578	keystroke_g	g	n/a
37.529	0.12	75058	keystroke_s	s	n/a
37.694	0.105	75388	keystroke_Key.enter	Key.enter	n/a
37.805	7.12	75610	prompt	n/a	widespread you'd totally integrate\n
38.564	0.09	77128	keystroke_w	w	n/a
38.729	0.09	77458	keystroke_i	i	n/a
38.834	0.075	77668	keystroke_d	d	n/a
39.014	0.1045	78028	keystroke_e	e	n/a
39.1335	0.09	78267	keystroke_s	s	n/a
39.2685	0.075	78537	keystroke_p	p	n/a
39.3735	0.12	78747	keystroke_r	r	n/a
39.4485	0.105	78897	keystroke_e	e	n/a
39.613	0.165	79226	keystroke_a	a	n/a
39.733	0.105	79466	keystroke_d	d	n/a
39.9585	0.09	79917	keystroke_Key.space	Key.space	n/a
40.4535	0.06	80907	keystroke_y	y	n/a
40.5285	0.105	81057	keystroke_o	o	n/a
40.5735	0.09	81147	keystroke_u	u	n/a
41.204	0.165	82408	keystroke_'	'	n/a
41.473	0.076	82946	keystroke_d	d	n/a
41.578	0.075	83156	keystroke_Key.space	Key.space	n/a
42.284	0.06	84568	keystroke_t	t	n/a
42.374	0.105	84748	keystroke_o	o	n/a
42.463	0.0755	84926	keystroke_t	t	n/a
42.658	0.12	85316	keystroke_a	a	n/a
42.809	0.059	85618	keystroke_l	l	n/a
42.928	0.076	85856	keystroke_l	l	n/a
43.033	0.105	86066	keystroke_y	y	n/a
43.183	0.09	86366	keystroke_Key.space	Key.space	n/a
43.378	0.12	86756	keystroke_i	i	n/a
43.438	0.105	86876	keystroke_n	n	n/a
43.528	0.076	87056	keystroke_t	t	n/a
43.813	0.09	87626	keystroke_e	e	n/a
44.039	0.074	88078	keystroke_g	g	n/a
44.233	0.121	88466	keystroke_r	r	n/a
44.428	0.106	88856	keystroke_a	a	n/a
44.563	0.12	89126	keystroke_t	t	n/a
44.653	0.12	89306	keystroke_e	e	n/a
44.788	0.135	89576	keystroke_Key.enter	Key.enter	n/a
44.9295	6.971	89859	prompt	n/a	calvin scenario betting lingerie\n
45.748	0.1205	91496	keystroke_c	c	n/a
45.808	0.1055	91616	keystroke_a	a	n/a
45.8985	0.0905	91797	keystroke_l	l	n/a
46.019	0.0745	92038	keystroke_v	v	n/a
46.1385	0.1655	92277	keystroke_i	i	n/a
46.2285	0.1055	92457	keystroke_n	n	n/a
46.394	0.105	92788	keystroke_Key.space	Key.space	n/a
46.8735	0.105	93747	keystroke_s	s	n/a
46.9485	0.1045	93897	keystroke_c	c	n/a
47.189	0.045	94378	keystroke_e	e	n/a
47.534	0.075	95068	keystroke_n	n	n/a
47.699	0.1045	95398	keystroke_a	a	n/a
47.8785	0.0905	95757	keystroke_r	r	n/a
48.238	0.09	96476	keystroke_i	i	n/a
48.4485	0.09	96897	keystroke_o	o	n/a
48.5685	0.105	97137	keystroke_Key.space	Key.space	n/a
49.3335	0.06	98667	keystroke_b	b	n/a
49.3635	0.12	98727	keystroke_e	e	n/a
49.5735	0.045	99147	keystroke_t	t	n/a
49.6935	0.09	99387	keystroke_t	t	n/a
49.8135	0.105	99627	keystroke_i	i	n/a
49.8585	0.09	99717	keystroke_n	n	n/a
49.9335	0.06	99867	keystroke_g	g	n/a
50.0235	0.12	100047	keystroke_Key.space	Key.space	n/a
50.249	0.075	100498	keystroke_l	l	n/a
50.458	0.15	100916	keystroke_i	i	n/a
50.5345	0.1035	101069	keystroke_n	n	n/a
50.804	0.059	101608	keystroke_g	g	n/a
51.0135	0.12	102027	keystroke_e	e	n/a
51.0735	0.105	102147	keystroke_r	r	n/a
51.253	0.106	102506	keystroke_i	i	n/a
51.613	0.09	103226	keystroke_e	e	n/a
51.778	0.12	103556	keystroke_Key.enter	Key.enter	n/a
51.9085	14.6195	103817	prompt	n/a	reviewed porcelain religion mailto\n
52.633	0.12	105266	keystroke_r	r	n/a
52.708	0.09	105416	keystroke_e	e	n/a
52.903	0.09	105806	keystroke_v	v	n/a
52.963	0.09	105926	keystroke_i	i	n/a
53.1585	0.135	106317	keystroke_e	e	n/a
53.2335	0.12	106467	keystroke_w	w	n/a
53.3835	0.1205	106767	keystroke_e	e	n/a
53.5935	0.105	107187	keystroke_d	d	n/a
53.7435	0.105	107487	keystroke_Key.space	Key.space	n/a
54.464	0.1195	108928	keystroke_p	p	n/a
54.6435	0.0905	109287	keystroke_r	r	n/a
54.749	0.075	109498	keystroke_o	o	n/a
54.884	0.12	109768	keystroke_c	c	n/a
54.974	0.105	109948	keystroke_e	e	n/a
55.1235	0.12	110247	keystroke_l	l	n/a
55.4085	0.105	110817	keystroke_i	i	n/a
55.5435	0.09	111087	keystroke_a	a	n/a
56.4885	0.06	112977	keystroke_Key.backspace	Key.backspace	n/a
56.6385	0.045	113277	keystroke_Key.backspace	Key.backspace	n/a
56.7435	0.1055	113487	keystroke_a	a	n/a
56.939	0.105	113878	keystroke_i	i	n/a
57.014	0.09	114028	keystroke_n	n	n/a
57.119	0.09	114238	keystroke_Key.space	Key.space	n/a
57.718	0.09	115436	keystroke_Key.backspace	Key.backspace	n/a
57.913	0.075	115826	keystroke_Key.backspace	Key.backspace	n/a
58.123	0.03	116246	keystroke_Key.backspace	Key.backspace	n/a
58.273	0.06	116546	keystroke_Key.backspace	Key.backspace	n/a
58.408	0.075	116816	keystroke_Key.backspace	Key.backspace	n/a
58.573	0.075	117146	keystroke_Key.backspace	Key.backspace	n/a
58.738	0.09	117476	keystroke_Key.backspace	Key.backspace	n/a
58.903	0.075	117806	keystroke_Key.backspace	Key.backspace	n/a
59.053	0.0755	118106	keystroke_Key.backspace	Key.backspace	n/a
59.9235	0.03	119847	keystroke_o	o	n/a
59.9835	0.075	119967	keystroke_r	r	n/a
60.1935	0.09	120387	keystroke_c	c	n/a
60.2535	0.105	120507	keystroke_e	e	n/a
60.3735	0.09	120747	keystroke_l	l	n/a
60.5235	0.075	121047	keystroke_a	a	n/a
60.6885	0.135	121377	keystroke_i	i	n/a
60.7785	0.09	121557	keystroke_n	n	n/a
60.8835	0.0895	121767	keystroke_Key.space	Key.space	n/a
61.813	0.1505	123626	keystroke_r	r	n/a
61.8885	0.105	123777	keystroke_e	e	n/a
61.9785	0.075	123957	keystroke_l	l	n/a
62.1735	0.105	124347	keystroke_i	i	n/a
62.2635	0.075	124527	keystroke_g	g	n/a
62.4285	0.12	124857	keystroke_i	i	n/a
62.5185	0.1055	125037	keystroke_o	o	n/a
62.729	0.105	125458	keystroke_n	n	n/a
62.939	0.076	125878	keystroke_Key.space	Key.space	n/a
64.0355	0.09	128071	keystroke_m	m	n/a
64.1855	0.105	128371	keystroke_a	a	n/a
64.485	0.1055	128970	keystroke_i	i	n/a
65.8365	0.105	131673	keystroke_l	l	n/a
66.077	0.0745	132154	keystroke_t	t	n/a
66.1515	0.09	132303	keystroke_o	o	n/a
66.392	0.1345	132784	keystroke_Key.enter	Key.enter	n/a
66.54	10.537	133080	prompt	n/a	indicate horrible equipment what'll\n
67.6065	0.1205	135213	keystroke_i	i	n/a
67.667	0.105	135334	keystroke_n	n	n/a
67.742	0.0895	135484	keystroke_d	d	n/a
67.8465	0.09	135693	keystroke_i	i	n/a
67.952	0.105	135904	keystroke_c	c	n/a
68.042	0.09	136084	keystroke_a	a	n/a
68.222	0.12	136444	keystroke_t	t	n/a
68.327	0.075	136654	keystroke_e	e	n/a
68.432	0.09	136864	keystroke_Key.space	Key.space	n/a
69.1075	0.075	138215	keystroke_h	h	n/a
69.2125	0.09	138425	keystroke_o	o	n/a
69.3925	0.045	138785	keystroke_r	r	n/a
69.5125	0.075	139025	keystroke_r	r	n/a
69.6475	0.12	139295	keystroke_i	i	n/a
69.7525	0.075	139505	keystroke_b	b	n/a
69.888	0.1045	139776	keystroke_l	l	n/a
70.0225	0.105	140045	keystroke_e	e	n/a
70.1275	0.0905	140255	keystroke_Key.space	Key.space	n/a
70.5775	0.151	141155	keystroke_e	e	n/a
70.6375	0.135	141275	keystroke_q	q	n/a
70.8475	0.165	141695	keystroke_u	u	n/a
70.9535	0.074	141907	keystroke_i	i	n/a
71.1625	0.105	142325	keystroke_p	p	n/a
71.553	0.0895	143106	keystroke_m	m	n/a
71.688	0.0905	143376	keystroke_e	e	n/a
71.7935	0.09	143587	keystroke_n	n	n/a
71.8985	0.075	143797	keystroke_t	t	n/a
72.0485	0.105	144097	keystroke_Key.space	Key.space	n/a
72.6335	0.105	145267	keystroke_w	w	n/a
72.7985	0.075	145597	keystroke_h	h	n/a
72.918	0.1205	145836	keystroke_a	a	n/a
73.159	0.075	146318	keystroke_t	t	n/a
74.149	0.0745	148298	keystroke_'	'	n/a
74.314	0.075	148628	keystroke_s	s	n/a
74.479	0.075	148958	keystroke_s	s	n/a
75.5445	0.075	151089	keystroke_Key.backspace	Key.backspace	n/a
75.6945	0.045	151389	keystroke_Key.backspace	Key.backspace	n/a
76.5805	0.045	153161	keystroke_l	l	n/a
76.6855	0.075	153371	keystroke_l	l	n/a
76.9555	0.12	153911	keystroke_Key.enter	Key.enter	n/a
77.08	5.384	154160	prompt	n/a	gadgets tommy actor sublime\n
78.141	0.09	156282	keystroke_g	g	n/a
78.306	0.1055	156612	keystroke_a	a	n/a
78.501	0.105	157002	keystroke_d	d	n/a
78.8015	0.0745	157603	keystroke_g	g	n/a
78.9815	0.105	157963	keystroke_e	e	n/a
79.0715	0.075	158143	keystroke_t	t	n/a
79.266	0.075	158532	keystroke_s	s	n/a
79.3865	0.105	158773	keystroke_Key.space	Key.space	n/a
79.657	0.0895	159314	keystroke_t	t	n/a
79.7465	0.12	159493	keystroke_o	o	n/a
79.8365	0.0905	159673	keystroke_m	m	n/a
79.987	0.09	159974	keystroke_m	m	n/a
80.107	0.075	160214	keystroke_y	y	n/a
80.242	0.075	160484	keystroke_Key.space	Key.space	n/a
80.467	0.165	160934	keystroke_a	a	n/a
80.572	0.105	161144	keystroke_c	c	n/a
80.827	0.075	161654	keystroke_t	t	n/a
80.9475	0.0895	161895	keystroke_o	o	n/a
81.022	0.105	162044	keystroke_r	r	n/a
81.1425	0.1045	162285	keystroke_Key.space	Key.space	n/a
81.442	0.075	162884	keystroke_s	s	n/a
81.562	0.15	163124	keystroke_u	u	n/a
81.667	0.105	163334	keystroke_b	b	n/a
81.892	0.075	163784	keystroke_l	l	n/a
82.1175	0.09	164235	keystroke_i	i	n/a
82.1625	0.1045	164325	keystroke_m	m	n/a
82.252	0.0755	164504	keystroke_e	e	n/a
82.3725	0.09	164745	keystroke_Key.enter	Key.enter	n/a
82.468	5.9985	164936	prompt	n/a	checking dayton negative separated\n
83.1975	0.0755	166395	keystroke_c	c	n/a
83.288	0.105	166576	keystroke_h	h	n/a
83.378	0.09	166756	keystroke_e	e	n/a
83.438	0.09	166876	keystroke_c	c	n/a
83.513	0.105	167026	keystroke_k	k	n/a
83.7535	0.119	167507	keystroke_i	i	n/a
83.8125	0.09	167625	keystroke_n	n	n/a
83.8885	0.074	167777	keystroke_g	g	n/a
84.0075	0.09	168015	keystroke_Key.space	Key.space	n/a
84.5335	0.18	169067	keystroke_d	d	n/a
84.6535	0.105	169307	keystroke_a	a	n/a
84.9385	0.0905	169877	keystroke_y	y	n/a
85.134	0.0595	170268	keystroke_t	t	n/a
85.2535	0.135	170507	keystroke_o	o	n/a
85.3285	0.1205	170657	keystroke_n	n	n/a
85.419	0.105	170838	keystroke_Key.space	Key.space	n/a
85.5835	0.12	171167	keystroke_n	n	n/a
85.6885	0.1055	171377	keystroke_e	e	n/a
86.244	0.075	172488	keystroke_g	g	n/a
86.454	0.135	172908	keystroke_a	a	n/a
86.544	0.075	173088	keystroke_t	t	n/a
86.6945	0.1205	173389	keystroke_i	i	n/a
86.83	0.105	173660	keystroke_v	v	n/a
86.875	0.105	173750	keystroke_e	e	n/a
87.01	0.105	174020	keystroke_Key.space	Key.space	n/a
87.28	0.105	174560	keystroke_s	s	n/a
87.415	0.1195	174830	keystroke_p	p	n/a
87.58	0.1355	175160	keystroke_e	e	n/a
87.655	0.0905	175310	keystroke_r	r	n/a
87.7755	0.1045	175551	keystroke_a	a	n/a
87.895	0.135	175790	keystroke_t	t	n/a
88.015	0.09	176030	keystroke_e	e	n/a
88.195	0.0905	176390	keystroke_d	d	n/a
88.3595	0.1055	176719	keystroke_Key.enter	Key.enter	n/a
88.4705	6.494	176941	prompt	n/a	committees files williams start\n
89.2605	0.09	178521	keystroke_c	c	n/a
89.3805	0.1205	178761	keystroke_o	o	n/a
89.4555	0.075	178911	keystroke_m	m	n/a
89.6055	0.0755	179211	keystroke_m	m	n/a
89.846	0.09	179692	keystroke_i	i	n/a
89.981	0.09	179962	keystroke_t	t	n/a
90.191	0.015	180382	keystroke_t	t	n/a
90.9565	0.0595	181913	keystroke_e	e	n/a
91.076	0.0905	182152	keystroke_e	e	n/a
91.2865	0.105	182573	keystroke_s	s	n/a
91.407	0.12	182814	keystroke_Key.space	Key.space	n/a
92.1565	0.09	184313	keystroke_f	f	n/a
92.2165	0.0755	184433	keystroke_i	i	n/a
92.427	0.075	184854	keystroke_l	l	n/a
92.532	0.165	185064	keystroke_e	e	n/a
92.622	0.105	185244	keystroke_s	s	n/a
92.742	0.09	185484	keystroke_Key.space	Key.space	n/a
92.877	0.09	185754	keystroke_w	w	n/a
92.968	0.089	185936	keystroke_i	i	n/a
93.2225	0.06	186445	keystroke_l	l	n/a
93.3725	0.06	186745	keystroke_l	l	n/a
93.5525	0.075	187105	keystroke_i	i	n/a
93.6575	0.09	187315	keystroke_a	a	n/a
93.7775	0.0595	187555	keystroke_m	m	n/a
93.867	0.076	187734	keystroke_s	s	n/a
93.957	0.091	187914	keystroke_Key.space	Key.space	n/a
94.093	0.105	188186	keystroke_s	s	n/a
94.273	0.105	188546	keystroke_t	t	n/a
94.453	0.1055	188906	keystroke_a	a	n/a
94.5135	0.1195	189027	keystroke_r	r	n/a
94.708	0.075	189416	keystroke_t	t	n/a
94.858	0.105	189716	keystroke_Key.enter	Key.enter	n/a
94.968	10.7115	189936	prompt	n/a	activity independently over intervention\n
95.879	0.09	191758	keystroke_a	a	n/a
95.938	0.0755	191876	keystroke_c	c	n/a
96.149	0.075	192298	keystroke_t	t	n/a
96.254	0.09	192508	keystroke_i	i	n/a
96.359	0.06	192718	keystroke_v	v	n/a
96.449	0.09	192898	keystroke_i	i	n/a
96.554	0.09	193108	keystroke_t	t	n/a
96.764	0.105	193528	keystroke_y	y	n/a
96.929	0.105	193858	keystroke_Key.space	Key.space	n/a
97.199	0.1205	194398	keystroke_i	i	n/a
97.2595	0.105	194519	keystroke_n	n	n/a
97.4095	0.09	194819	keystroke_d	d	n/a
97.5745	0.075	195149	keystroke_e	e	n/a
97.7695	0.09	195539	keystroke_e	e	n/a
98.5045	0.105	197009	keystroke_Key.backspace	Key.backspace	n/a
99.15	0.075	198300	keystroke_p	p	n/a
99.226	0.089	198452	keystroke_e	e	n/a
99.405	0.0605	198810	keystroke_n	n	n/a
99.4955	0.09	198991	keystroke_d	d	n/a
99.6905	0.06	199381	keystroke_e	e	n/a
100.4705	0.09	200941	keystroke_n	n	n/a
102.167	0.075	204334	keystroke_t	t	n/a
102.287	0.09	204574	keystroke_l	l	n/a
102.407	0.09	204814	keystroke_y	y	n/a
102.527	0.075	205054	keystroke_Key.space	Key.space	n/a
102.992	0.105	205984	keystroke_o	o	n/a
103.172	0.0905	206344	keystroke_v	v	n/a
103.427	0.15	206854	keystroke_e	e	n/a
103.472	0.12	206944	keystroke_r	r	n/a
103.637	0.09	207274	keystroke_Key.space	Key.space	n/a
103.862	0.105	207724	keystroke_i	i	n/a
103.922	0.105	207844	keystroke_n	n	n/a
104.028	0.074	208056	keystroke_t	t	n/a
104.162	0.12	208324	keystroke_e	e	n/a
104.222	0.0905	208444	keystroke_r	r	n/a
104.432	0.0905	208864	keystroke_v	v	n/a
104.6275	0.075	209255	keystroke_e	e	n/a
104.7325	0.075	209465	keystroke_n	n	n/a
104.8085	0.089	209617	keystroke_t	t	n/a
105.0625	0.1355	210125	keystroke_i	i	n/a
105.183	0.105	210366	keystroke_o	o	n/a
105.348	0.105	210696	keystroke_n	n	n/a
105.588	0.09	211176	keystroke_Key.enter	Key.enter	n/a
105.683	5.396	211366	prompt	n/a	announced who bush carried\n
106.3685	0.075	212737	keystroke_a	a	n/a
106.4885	0.0445	212977	keystroke_n	n	n/a
106.593	0.1045	213186	keystroke_n	n	n/a
106.7735	0.1195	213547	keystroke_o	o	n/a
106.833	0.075	213666	keystroke_u	u	n/a
107.0125	0.1195	214025	keystroke_n	n	n/a
107.0875	0.15	214175	keystroke_c	c	n/a
107.1475	0.106	214295	keystroke_e	e	n/a
107.3575	0.1045	214715	keystroke_d	d	n/a
107.477	0.09	214954	keystroke_Key.space	Key.space	n/a
107.7025	0.03	215405	keystroke_w	w	n/a
107.852	0.0915	215704	keystroke_h	h	n/a
107.927	0.076	215854	keystroke_o	o	n/a
108.123	0.09	216246	keystroke_Key.space	Key.space	n/a
108.543	0.1345	217086	keystroke_b	b	n/a
108.6925	0.0905	217385	keystroke_u	u	n/a
108.813	0.105	217626	keystroke_s	s	n/a
108.903	0.09	217806	keystroke_h	h	n/a
109.068	0.075	218136	keystroke_Key.space	Key.space	n/a
110.042	0.105	220084	keystroke_c	c	n/a
110.132	0.105	220264	keystroke_a	a	n/a
110.3425	0.0295	220685	keystroke_r	r	n/a
110.432	0.1065	220864	keystroke_r	r	n/a
110.5825	0.105	221165	keystroke_i	i	n/a
110.7025	0.0605	221405	keystroke_e	e	n/a
110.853	0.075	221706	keystroke_d	d	n/a
110.988	0.09	221976	keystroke_Key.enter	Key.enter	n/a
111.0835	7.4655	222167	prompt	n/a	consequence brain residential minus\n
111.813	0.075	223626	keystroke_c	c	n/a
112.068	0.104	224136	keystroke_o	o	n/a
112.1125	0.1195	224225	keystroke_n	n	n/a
112.247	0.075	224494	keystroke_s	s	n/a
112.4875	0.0895	224975	keystroke_e	e	n/a
112.727	0.0905	225454	keystroke_q	q	n/a
112.8475	0.075	225695	keystroke_u	u	n/a
112.9975	0.09	225995	keystroke_e	e	n/a
113.1025	0.075	226205	keystroke_n	n	n/a
113.613	0.1345	227226	keystroke_c	c	n/a
113.6725	0.12	227345	keystroke_e	e	n/a
113.8375	0.09	227675	keystroke_Key.space	Key.space	n/a
114.2875	0.105	228575	keystroke_b	b	n/a
114.4375	0.075	228875	keystroke_r	r	n/a
114.6475	0.09	229295	keystroke_a	a	n/a
114.7675	0.135	229535	keystroke_i	i	n/a
114.8425	0.105	229685	keystroke_n	n	n/a
114.9325	0.09	229865	keystroke_Key.space	Key.space	n/a
115.233	0.12	230466	keystroke_r	r	n/a
115.278	0.105	230556	keystroke_e	e	n/a
115.458	0.09	230916	keystroke_s	s	n/a
115.578	0.12	231156	keystroke_i	i	n/a
115.683	0.165	231366	keystroke_d	d	n/a
116.073	0.105	232146	keystroke_e	e	n/a
116.283	0.105	232566	keystroke_n	n	n/a
116.838	0.075	233676	keystroke_t	t	n/a
116.943	0.09	233886	keystroke_i	i	n/a
117.123	0.105	234246	keystroke_a	a	n/a
117.258	0.12	234516	keystroke_l	l	n/a
117.408	0.075	234816	keystroke_Key.space	Key.space	n/a
117.647	0.076	235294	keystroke_m	m	n/a
117.858	0.105	235716	keystroke_i	i	n/a
117.918	0.09	235836	keystroke_n	n	n/a
118.0975	0.06	236195	keystroke_u	u	n/a
118.173	0.105	236346	keystroke_s	s	n/a
118.473	0.075	236946	keystroke_Key.enter	Key.enter	n/a
118.552	6.717	237104	prompt	n/a	elliott retained donation bachelor\n
119.5075	0.09	239015	keystroke_e	e	n/a
120.0475	0.075	240095	keystroke_l	l	n/a
120.167	0.0755	240334	keystroke_l	l	n/a
120.438	0.09	240876	keystroke_i	i	n/a
120.513	0.09	241026	keystroke_o	o	n/a
120.738	0.09	241476	keystroke_t	t	n/a
121.2325	0.06	242465	keystroke_t	t	n/a
121.4425	0.105	242885	keystroke_Key.space	Key.space	n/a
121.7125	0.105	243425	keystroke_r	r	n/a
121.7875	0.09	243575	keystroke_e	e	n/a
121.9375	0.075	243875	keystroke_t	t	n/a
122.1025	0.09	244205	keystroke_a	a	n/a
122.2225	0.105	244445	keystroke_i	i	n/a
122.2675	0.09	244535	keystroke_n	n	n/a
122.3575	0.09	244715	keystroke_e	e	n/a
122.5525	0.0755	245105	keystroke_d	d	n/a
122.658	0.1045	245316	keystroke_Key.space	Key.space	n/a
122.8825	0.075	245765	keystroke_d	d	n/a
122.9425	0.0905	245885	keystroke_o	o	n/a
123.003	0.09	246006	keystroke_n	n	n/a
123.197	0.09	246394	keystroke_a	a	n/a
123.347	0.06	246694	keystroke_t	t	n/a
123.512	0.075	247024	keystroke_i	i	n/a
123.542	0.105	247084	keystroke_o	o	n/a
123.767	0.091	247534	keystroke_n	n	n/a
123.842	0.075	247684	keystroke_Key.space	Key.space	n/a
124.0525	0.105	248105	keystroke_b	b	n/a
124.173	0.12	248346	keystroke_a	a	n/a
124.248	0.1045	248496	keystroke_c	c	n/a
124.397	0.09	248794	keystroke_h	h	n/a
124.517	0.09	249034	keystroke_e	e	n/a
124.7125	0.075	249425	keystroke_l	l	n/a
124.907	0.075	249814	keystroke_o	o	n/a
124.997	0.06	249994	keystroke_r	r	n/a
125.1325	0.135	250265	keystroke_Key.enter	Key.enter	n/a
125.2725	6.971	250545	prompt	n/a	theories listen effects opposed\n
126.1825	0.09	252365	keystroke_t	t	n/a
126.2275	0.09	252455	keystroke_h	h	n/a
126.4375	0.105	252875	keystroke_e	e	n/a
126.5275	0.105	253055	keystroke_o	o	n/a
126.6775	0.09	253355	keystroke_r	r	n/a
126.8125	0.09	253625	keystroke_i	i	n/a
127.082	0.15	254164	keystroke_e	e	n/a
127.202	0.12	254404	keystroke_s	s	n/a
127.367	0.091	254734	keystroke_Key.space	Key.space	n/a
127.532	0.09	255064	keystroke_l	l	n/a
127.742	0.075	255484	keystroke_i	i	n/a
127.802	0.075	255604	keystroke_s	s	n/a
127.982	0.075	255964	keystroke_t	t	n/a
128.042	0.105	256084	keystroke_e	e	n/a
128.132	0.06	256264	keystroke_n	n	n/a
128.297	0.075	256594	keystroke_Key.space	Key.space	n/a
128.627	0.06	257254	keystroke_e	e	n/a
128.792	0.06	257584	keystroke_d	d	n/a
129.2125	0.06	258425	keystroke_Key.backspace	Key.backspace	n/a
129.6175	0.06	259235	keystroke_f	f	n/a
129.7675	0.0895	259535	keystroke_f	f	n/a
129.977	0.135	259954	keystroke_e	e	n/a
130.037	0.105	260074	keystroke_c	c	n/a
130.292	0.045	260584	keystroke_t	t	n/a
130.457	0.105	260914	keystroke_s	s	n/a
130.592	0.06	261184	keystroke_Key.space	Key.space	n/a
131.042	0.075	262084	keystroke_o	o	n/a
131.192	0.045	262384	keystroke_p	p	n/a
131.342	0.105	262684	keystroke_p	p	n/a
131.582	0.0595	263164	keystroke_o	o	n/a
131.6865	0.09	263373	keystroke_s	s	n/a
131.882	0.06	263764	keystroke_e	e	n/a
132.017	0.0745	264034	keystroke_d	d	n/a
132.1365	0.105	264273	keystroke_Key.enter	Key.enter	n/a
132.249	7.66	264498	prompt	n/a	level noted either legislative\n
133.097	0.0605	266194	keystroke_e	e	n/a
133.4125	0.045	266825	keystroke_Key.backspace	Key.backspace	n/a
133.952	0.09	267904	keystroke_l	l	n/a
134.087	0.105	268174	keystroke_e	e	n/a
134.162	0.15	268324	keystroke_v	v	n/a
134.267	0.09	268534	keystroke_e	e	n/a
134.418	0.074	268836	keystroke_l	l	n/a
134.552	0.0895	269104	keystroke_l	l	n/a
134.717	0.075	269434	keystroke_e	e	n/a
135.6325	0.06	271265	keystroke_Key.backspace	Key.backspace	n/a
135.7825	0.075	271565	keystroke_Key.backspace	Key.backspace	n/a
136.4875	0.12	272975	keystroke_Key.space	Key.space	n/a
136.727	0.135	273454	keystroke_n	n	n/a
136.8015	0.0905	273603	keystroke_o	o	n/a
136.877	0.15	273754	keystroke_t	t	n/a
136.982	0.09	273964	keystroke_e	e	n/a
137.1775	0.09	274355	keystroke_d	d	n/a
137.2825	0.105	274565	keystroke_Key.space	Key.space	n/a
137.4025	0.075	274805	keystroke_e	e	n/a
137.4925	0.105	274985	keystroke_i	i	n/a
137.6725	0.105	275345	keystroke_t	t	n/a
137.7325	0.09	275465	keystroke_h	h	n/a
137.9275	0.1045	275855	keystroke_e	e	n/a
137.987	0.105	275974	keystroke_r	r	n/a
138.077	0.105	276154	keystroke_Key.space	Key.space	n/a
138.287	0.105	276574	keystroke_l	l	n/a
138.407	0.105	276814	keystroke_e	e	n/a
138.692	0.015	277384	keystroke_g	g	n/a
138.722	0.045	277444	keystroke_i	i	n/a
138.827	0.0895	277654	keystroke_s	s	n/a
138.9315	0.105	277863	keystroke_l	l	n/a
139.0515	0.0755	278103	keystroke_a	a	n/a
139.2175	0.06	278435	keystroke_t	t	n/a
139.3965	0.09	278793	keystroke_i	i	n/a
139.6215	0.105	279243	keystroke_v	v	n/a
139.6815	0.105	279363	keystroke_e	e	n/a
139.8165	0.09	279633	keystroke_Key.enter	Key.enter	n/a
139.914	5.4245	279828	prompt	n/a	repair vinyl spending python\n
140.6715	0.0905	281343	keystroke_r	r	n/a
140.7015	0.1055	281403	keystroke_e	e	n/a
140.852	0.075	281704	keystroke_p	p	n/a
140.9425	0.0895	281885	keystroke_a	a	n/a
141.2125	0.12	282425	keystroke_i	i	n/a
141.3475	0.0895	282695	keystroke_r	r	n/a
141.467	0.105	282934	keystroke_Key.space	Key.space	n/a
141.932	0.06	283864	keystroke_v	v	n/a
141.992	0.12	283984	keystroke_i	i	n/a
142.067	0.075	284134	keystroke_n	n	n/a
142.262	0.075	284524	keystroke_y	y	n/a
142.382	0.1045	284764	keystroke_l	l	n/a
142.6065	0.12	285213	keystroke_Key.space	Key.space	n/a
143.0865	0.06	286173	keystroke_s	s	n/a
143.1765	0.105	286353	keystroke_p	p	n/a
143.2965	0.09	286593	keystroke_e	e	n/a
143.4315	0.0905	286863	keystroke_n	n	n/a
143.567	0.105	287134	keystroke_d	d	n/a
143.732	0.12	287464	keystroke_i	i	n/a
143.792	0.09	287584	keystroke_n	n	n/a
143.897	0.06	287794	keystroke_g	g	n/a
143.972	0.105	287944	keystroke_Key.space	Key.space	n/a
144.197	0.105	288394	keystroke_p	p	n/a
144.512	0.03	289024	keystroke_y	y	n/a
144.692	0.09	289384	keystroke_t	t	n/a
144.752	0.06	289504	keystroke_h	h	n/a
144.827	0.1345	289654	keystroke_o	o	n/a
144.902	0.1195	289804	keystroke_n	n	n/a
145.2315	0.105	290463	keystroke_Key.enter	Key.enter	n/a
145.3445	11.438	290689	prompt	n/a	xerox rapidly bristol representative\n
146.1015	0.105	292203	keystroke_e	e	n/a
146.4915	0.06	292983	keystroke_x	x	n/a
146.7615	0.105	293523	keystroke_e	e	n/a
146.8215	0.12	293643	keystroke_r	r	n/a
147.0915	0.12	294183	keystroke_o	o	n/a
147.4515	0.105	294903	keystroke_Key.space	Key.space	n/a
147.8565	0.12	295713	keystroke_Key.backspace	Key.backspace	n/a
148.0965	0.105	296193	keystroke_x	x	n/a
148.2465	0.075	296493	keystroke_Key.space	Key.space	n/a
148.547	0.075	297094	keystroke_Key.backspace	Key.backspace	n/a
148.697	0.06	297394	keystroke_Key.backspace	Key.backspace	n/a
148.847	0.06	297694	keystroke_Key.backspace	Key.backspace	n/a
148.967	0.075	297934	keystroke_Key.backspace	Key.backspace	n/a
149.117	0.075	298234	keystroke_Key.backspace	Key.backspace	n/a
149.252	0.045	298504	keystroke_Key.backspace	Key.backspace	n/a
149.357	0.075	298714	keystroke_Key.backspace	Key.backspace	n/a
149.492	0.105	298984	keystroke_Key.backspace	Key.backspace	n/a
149.941	0.09	299882	keystroke_x	x	n/a
150.196	0.12	300392	keystroke_e	e	n/a
150.241	0.09	300482	keystroke_r	r	n/a
150.376	0.135	300752	keystroke_o	o	n/a
150.601	0.09	301202	keystroke_x	x	n/a
150.721	0.075	301442	keystroke_Key.space	Key.space	n/a
151.3215	0.12	302643	keystroke_r	r	n/a
151.5915	0.09	303183	keystroke_a	a	n/a
151.8015	0.195	303603	keystroke_p	p	n/a
151.9215	0.105	303843	keystroke_i	i	n/a
152.1165	0.09	304233	keystroke_d	d	n/a
152.2365	0.105	304473	keystroke_l	l	n/a
152.4765	0.09	304953	keystroke_y	y	n/a
152.6265	0.105	305253	keystroke_Key.space	Key.space	n/a
153.4815	0.0895	306963	keystroke_b	b	n/a
153.5265	0.1045	307053	keystroke_r	r	n/a
153.691	0.105	307382	keystroke_i	i	n/a
153.781	0.09	307562	keystroke_s	s	n/a
154.006	0.075	308012	keystroke_t	t	n/a
154.111	0.075	308222	keystroke_o	o	n/a
154.306	0.09	308612	keystroke_l	l	n/a
154.411	0.09	308822	keystroke_Key.space	Key.space	n/a
154.666	0.1055	309332	keystroke_p	p	n/a
154.786	0.1355	309572	keystroke_r	r	n/a
154.8615	0.105	309723	keystroke_e	e	n/a
155.026	0.1045	310052	keystroke_r	r	n/a
155.086	0.0895	310172	keystroke_e	e	n/a
155.3105	0.06	310621	keystroke_s	s	n/a
155.4755	0.09	310951	keystroke_e	e	n/a
155.5665	0.074	311133	keystroke_n	n	n/a
155.6855	0.0755	311371	keystroke_t	t	n/a
155.881	0.1055	311762	keystroke_a	a	n/a
155.9865	0.0745	311973	keystroke_t	t	n/a
156.2555	0.09	312511	keystroke_i	i	n/a
156.3905	0.15	312781	keystroke_v	v	n/a
156.4955	0.105	312991	keystroke_e	e	n/a
156.706	0.075	313412	keystroke_Key.enter	Key.enter	n/a
156.786	7.3315	313572	prompt	n/a	hall mentioned manchester grande\n
157.9955	0.075	315991	keystroke_h	h	n/a
158.1005	0.105	316201	keystroke_a	a	n/a
158.2355	0.045	316471	keystroke_l	l	n/a
158.3555	0.06	316711	keystroke_l	l	n/a
158.446	0.075	316892	keystroke_Key.space	Key.space	n/a
158.551	0.075	317102	keystroke_m	m	n/a
158.641	0.09	317282	keystroke_e	e	n/a
158.746	0.105	317492	keystroke_n	n	n/a
158.866	0.06	317732	keystroke_t	t	n/a
158.986	0.135	317972	keystroke_i	i	n/a
159.076	0.135	318152	keystroke_o	o	n/a
159.256	0.1195	318512	keystroke_n	n	n/a
159.3605	0.075	318721	keystroke_e	e	n/a
159.5255	0.09	319051	keystroke_d	d	n/a
159.6305	0.09	319261	keystroke_Key.space	Key.space	n/a
159.8555	0.075	319711	keystroke_m	m	n/a
159.9455	0.09	319891	keystroke_a	a	n/a
160.0805	0.075	320161	keystroke_n	n	n/a
160.1855	0.09	320371	keystroke_c	c	n/a
160.3205	0.06	320641	keystroke_h	h	n/a
160.4255	0.03	320851	keystroke_e	e	n/a
160.56	0.015	321120	keystroke_s	s	n/a
160.6655	0.06	321331	keystroke_t	t	n/a
160.8305	0.105	321661	keystroke_o	o	n/a
160.9505	0.075	321901	keystroke_r	r	n/a
161.0555	0.09	322111	keystroke_Key.space	Key.space	n/a
161.4455	0.06	322891	keystroke_Key.backspace	Key.backspace	n/a
161.6855	0.0755	323371	keystroke_Key.backspace	Key.backspace	n/a
162.076	0.06	324152	keystroke_Key.backspace	Key.backspace	n/a
162.226	0.09	324452	keystroke_e	e	n/a
162.271	0.075	324542	keystroke_r	r	n/a
162.361	0.09	324722	keystroke_Key.space	Key.space	n/a
163.1555	0.135	326311	keystroke_g	g	n/a
163.1855	0.135	326371	keystroke_r	r	n/a
163.5005	0.09	327001	keystroke_a	a	n/a
163.6055	0.09	327211	keystroke_n	n	n/a
163.7105	0.09	327421	keystroke_d	d	n/a
163.9205	0.09	327841	keystroke_e	e	n/a
164.0255	0.09	328051	keystroke_Key.enter	Key.enter	n/a
164.12	6.7615	328240	prompt	n/a	maximum hunt earned keywords\n
164.865	0.0755	329730	keystroke_m	m	n/a
165.4055	0.15	330811	keystroke_a	a	n/a
165.4955	0.0895	330991	keystroke_x	x	n/a
165.645	0.105	331290	keystroke_i	i	n/a
165.8555	0.06	331711	keystroke_m	m	n/a
166.05	0.045	332100	keystroke_u	u	n/a
166.29	0.06	332580	keystroke_m	m	n/a
166.44	0.105	332880	keystroke_Key.space	Key.space	n/a
166.98	0.12	333960	keystroke_h	h	n/a
167.07	0.1955	334140	keystroke_u	u	n/a
167.2055	0.12	334411	keystroke_n	n	n/a
167.3405	0.105	334681	keystroke_t	t	n/a
167.4305	0.105	334861	keystroke_Key.space	Key.space	n/a
168.0455	0.074	336091	keystroke_e	e	n/a
168.2095	0.12	336419	keystroke_a	a	n/a
168.3145	0.106	336629	keystroke_r	r	n/a
168.4495	0.106	336899	keystroke_n	n	n/a
168.5255	0.09	337051	keystroke_e	e	n/a
168.7195	0.12	337439	keystroke_d	d	n/a
168.8995	0.105	337799	keystroke_Key.space	Key.space	n/a
169.4095	0.1055	338819	keystroke_k	k	n/a
169.5	0.135	339000	keystroke_e	e	n/a
169.605	0.0755	339210	keystroke_y	y	n/a
169.8305	0.105	339661	keystroke_w	w	n/a
170.1605	0.06	340321	keystroke_o	o	n/a
170.2805	0.12	340561	keystroke_r	r	n/a
170.5505	0.135	341101	keystroke_d	d	n/a
170.5955	0.135	341191	keystroke_s	s	n/a
170.7905	0.09	341581	keystroke_Key.enter	Key.enter	n/a
170.884	4.3625	341768	prompt	n/a	rules clone lakes started\n
171.69	0.09	343380	keystroke_r	r	n/a
171.795	0.075	343590	keystroke_u	u	n/a
171.975	0.09	343950	keystroke_l	l	n/a
172.065	0.135	344130	keystroke_e	e	n/a
172.14	0.105	344280	keystroke_s	s	n/a
172.245	0.105	344490	keystroke_Key.space	Key.space	n/a
172.395	0.09	344790	keystroke_c	c	n/a
172.5	0.075	345000	keystroke_l	l	n/a
172.695	0.135	345390	keystroke_o	o	n/a
172.77	0.12	345540	keystroke_n	n	n/a
172.875	0.105	345750	keystroke_e	e	n/a
172.995	0.09	345990	keystroke_Key.space	Key.space	n/a
173.16	0.105	346320	keystroke_l	l	n/a
173.295	0.105	346590	keystroke_a	a	n/a
173.415	0.09	346830	keystroke_k	k	n/a
173.535	0.0745	347070	keystroke_e	e	n/a
173.7295	0.09	347459	keystroke_s	s	n/a
173.7895	0.12	347579	keystroke_Key.space	Key.space	n/a
173.9245	0.12	347849	keystroke_s	s	n/a
174.18	0.09	348360	keystroke_t	t	n/a
174.315	0.15	348630	keystroke_a	a	n/a
174.45	0.105	348900	keystroke_r	r	n/a
174.675	0.105	349350	keystroke_t	t	n/a
174.825	0.12	349650	keystroke_e	e	n/a
175.035	0.0905	350070	keystroke_d	d	n/a
175.1405	0.1045	350281	keystroke_Key.enter	Key.enter	n/a
175.25	10.9605	350500	prompt	n/a	saying zoloft newark thereafter\n
175.98	0.105	351960	keystroke_s	s	n/a
176.1895	0.075	352379	keystroke_a	a	n/a
176.4595	0.06	352919	keystroke_y	y	n/a
176.6245	0.1195	353249	keystroke_i	i	n/a
176.6845	0.1045	353369	keystroke_n	n	n/a
176.804	0.045	353608	keystroke_g	g	n/a
176.879	0.12	353758	keystroke_Key.space	Key.space	n/a
177.6745	0.09	355349	keystroke_z	z	n/a
177.7495	0.075	355499	keystroke_o	o	n/a
177.9295	0.09	355859	keystroke_l	l	n/a
178.1095	0.075	356219	keystroke_o	o	n/a
178.2295	0.09	356459	keystroke_f	f	n/a
178.4545	0.075	356909	keystroke_t	t	n/a
178.5595	0.09	357119	keystroke_Key.space	Key.space	n/a
179.1445	0.105	358289	keystroke_n	n	n/a
179.3695	0.18	358739	keystroke_e	e	n/a
179.4745	0.15	358949	keystroke_w	w	n/a
179.6845	0.12	359369	keystroke_a	a	n/a
179.8495	0.09	359699	keystroke_r	r	n/a
180.0445	0.075	360089	keystroke_k	k	n/a
180.1645	0.105	360329	keystroke_Key.space	Key.space	n/a
180.554	0.075	361108	keystroke_t	t	n/a
180.584	0.12	361168	keystroke_h	h	n/a
181.079	0.1805	362158	keystroke_e	e	n/a
181.1695	0.105	362339	keystroke_r	r	n/a
181.484	0.1505	362968	keystroke_a	a	n/a
181.6195	0.12	363239	keystroke_f	f	n/a
181.8445	0.075	363689	keystroke_t	t	n/a
181.9495	0.135	363899	keystroke_e	e	n/a
182.0245	0.105	364049	keystroke_r	r	n/a
183.659	0.06	367318	keystroke_Key.backspace	Key.backspace	n/a
183.839	0.075	367678	keystroke_Key.backspace	Key.backspace	n/a
183.989	0.06	367978	keystroke_Key.backspace	Key.backspace	n/a
184.139	0.075	368278	keystroke_Key.backspace	Key.backspace	n/a
184.304	0.075	368608	keystroke_Key.backspace	Key.backspace	n/a
185.2335	0.105	370467	keystroke_e	e	n/a
185.2935	0.09	370587	keystroke_a	a	n/a
185.5785	0.09	371157	keystroke_f	f	n/a
185.774	0.075	371548	keystroke_t	t	n/a
185.924	0.105	371848	keystroke_e	e	n/a
185.969	0.09	371938	keystroke_r	r	n/a
186.134	0.075	372268	keystroke_Key.enter	Key.enter	n/a
186.2255	8.8495	372451	prompt	n/a	attraction purpose hotels institutions\n
187.1535	0.105	374307	keystroke_a	a	n/a
187.364	0.03	374728	keystroke_t	t	n/a
187.469	0.075	374938	keystroke_t	t	n/a
187.634	0.075	375268	keystroke_r	r	n/a
187.784	0.135	375568	keystroke_a	a	n/a
187.874	0.105	375748	keystroke_c	c	n/a
188.114	0.045	376228	keystroke_t	t	n/a
188.219	0.12	376438	keystroke_i	i	n/a
188.279	0.165	376558	keystroke_o	o	n/a
188.459	0.12	376918	keystroke_n	n	n/a
188.534	0.075	377068	keystroke_Key.space	Key.space	n/a
188.684	0.15	377368	keystroke_p	p	n/a
188.909	0.075	377818	keystroke_u	u	n/a
189.5535	0.105	379107	keystroke_r	r	n/a
189.8235	0.165	379647	keystroke_p	p	n/a
189.9135	0.12	379827	keystroke_o	o	n/a
190.0635	0.165	380127	keystroke_s	s	n/a
190.1835	0.075	380367	keystroke_e	e	n/a
190.2735	0.105	380547	keystroke_Key.space	Key.space	n/a
190.7085	0.09	381417	keystroke_h	h	n/a
190.8285	0.105	381657	keystroke_o	o	n/a
190.9485	0.075	381897	keystroke_t	t	n/a
191.1435	0.075	382287	keystroke_e	e	n/a
191.2635	0.09	382527	keystroke_l	l	n/a
191.4435	0.105	382887	keystroke_s	s	n/a
191.5185	0.105	383037	keystroke_Key.space	Key.space	n/a
191.7435	0.1045	383487	keystroke_i	i	n/a
191.788	0.106	383576	keystroke_n	n	n/a
191.863	0.09	383726	keystroke_s	s	n/a
192.028	0.06	384056	keystroke_t	t	n/a
192.508	0.075	385016	keystroke_i	i	n/a
192.658	0.075	385316	keystroke_t	t	n/a
193.4835	0.075	386967	keystroke_u	u	n/a
194.098	0.075	388196	keystroke_t	t	n/a
194.308	0.1355	388616	keystroke_i	i	n/a
194.4135	0.09	388827	keystroke_o	o	n/a
194.5635	0.12	389127	keystroke_n	n	n/a
194.6985	0.12	389397	keystroke_s	s	n/a
194.9535	0.12	389907	keystroke_Key.enter	Key.enter	n/a
195.078	5.906	390156	prompt	n/a	tiffany cuts radical standards\n
195.8675	0.09	391735	keystroke_t	t	n/a
195.9725	0.075	391945	keystroke_i	i	n/a
196.1525	0.06	392305	keystroke_f	f	n/a
196.2875	0.06	392575	keystroke_f	f	n/a
196.5425	0.015	393085	keystroke_a	a	n/a
196.5725	0.12	393145	keystroke_n	n	n/a
196.7825	0.075	393565	keystroke_y	y	n/a
196.9475	0.105	393895	keystroke_Key.space	Key.space	n/a
197.203	0.09	394406	keystroke_c	c	n/a
197.473	0.075	394946	keystroke_u	u	n/a
197.578	0.105	395156	keystroke_t	t	n/a
197.773	0.12	395546	keystroke_s	s	n/a
197.908	0.1045	395816	keystroke_Key.space	Key.space	n/a
198.1025	0.075	396205	keystroke_r	r	n/a
198.3125	0.12	396625	keystroke_a	a	n/a
198.3725	0.09	396745	keystroke_d	d	n/a
198.5225	0.12	397045	keystroke_i	i	n/a
198.6725	0.12	397345	keystroke_c	c	n/a
198.7625	0.09	397525	keystroke_a	a	n/a
198.8975	0.105	397795	keystroke_l	l	n/a
198.9875	0.09	397975	keystroke_Key.space	Key.space	n/a
199.3325	0.09	398665	keystroke_s	s	n/a
199.5125	0.075	399025	keystroke_t	t	n/a
199.6325	0.105	399265	keystroke_a	a	n/a
199.7525	0.105	399505	keystroke_n	n	n/a
199.8725	0.075	399745	keystroke_d	d	n/a
200.0525	0.1355	400105	keystroke_a	a	n/a
200.398	0.075	400796	keystroke_r	r	n/a
200.6075	0.12	401215	keystroke_d	d	n/a
200.6975	0.105	401395	keystroke_s	s	n/a
200.908	0.074	401816	keystroke_Key.enter	Key.enter	n/a
200.987	7.0315	401974	prompt	n/a	isn't activated songs buy\n
201.822	0.06	403644	keystroke_i	i	n/a
201.897	0.09	403794	keystroke_s	s	n/a
202.092	0.09	404184	keystroke_n	n	n/a
202.242	0.075	404484	keystroke_t	t	n/a
203.127	0.045	406254	keystroke_Key.backspace	Key.backspace	n/a
203.697	0.03	407394	keystroke_'	'	n/a
204.012	0.06	408024	keystroke_t	t	n/a
204.312	0.075	408624	keystroke_Key.space	Key.space	n/a
204.8525	0.135	409705	keystroke_a	a	n/a
204.9275	0.09	409855	keystroke_c	c	n/a
205.1375	0.06	410275	keystroke_t	t	n/a
205.2125	0.09	410425	keystroke_i	i	n/a
205.3325	0.105	410665	keystroke_v	v	n/a
205.4075	0.09	410815	keystroke_a	a	n/a
205.5575	0.105	411115	keystroke_t	t	n/a
205.6775	0.045	411355	keystroke_e	e	n/a
205.8125	0.06	411625	keystroke_d	d	n/a
205.9175	0.09	411835	keystroke_Key.space	Key.space	n/a
206.4125	0.105	412825	keystroke_s	s	n/a
206.5625	0.1345	413125	keystroke_o	o	n/a
206.622	0.12	413244	keystroke_n	n	n/a
206.682	0.09	413364	keystroke_g	g	n/a
206.862	0.09	413724	keystroke_s	s	n/a
206.967	0.105	413934	keystroke_Key.space	Key.space	n/a
207.492	0.075	414984	keystroke_b	b	n/a
207.597	0.12	415194	keystroke_u	u	n/a
207.657	0.075	415314	keystroke_y	y	n/a
207.912	0.105	415824	keystroke_Key.enter	Key.enter	n/a
208.021	7.002	416042	prompt	n/a	tobacco spies terror consistency\n
208.782	0.075	417564	keystroke_t	t	n/a
208.9015	0.09	417803	keystroke_o	o	n/a
209.6665	0.09	419333	keystroke_b	b	n/a
210.0115	0.12	420023	keystroke_a	a	n/a
210.1465	0.06	420293	keystroke_c	c	n/a
210.2815	0.105	420563	keystroke_c	c	n/a
210.5215	0.105	421043	keystroke_o	o	n/a
210.6415	0.09	421283	keystroke_Key.space	Key.space	n/a
211.062	0.0895	422124	keystroke_s	s	n/a
211.2115	0.12	422423	keystroke_p	p	n/a
211.4965	0.0905	422993	keystroke_i	i	n/a
211.5715	0.1505	423143	keystroke_e	e	n/a
211.662	0.12	423324	keystroke_s	s	n/a
211.827	0.105	423654	keystroke_Key.space	Key.space	n/a
212.217	0.075	424434	keystroke_t	t	n/a
212.397	0.09	424794	keystroke_e	e	n/a
212.442	0.075	424884	keystroke_r	r	n/a
212.607	0.06	425214	keystroke_r	r	n/a
212.712	0.135	425424	keystroke_o	o	n/a
212.802	0.09	425604	keystroke_r	r	n/a
212.952	0.105	425904	keystroke_Key.space	Key.space	n/a
213.2815	0.09	426563	keystroke_c	c	n/a
213.3265	0.12	426653	keystroke_o	o	n/a
213.3865	0.135	426773	keystroke_n	n	n/a
213.5065	0.06	427013	keystroke_s	s	n/a
213.5965	0.0905	427193	keystroke_i	i	n/a
213.6565	0.0755	427313	keystroke_s	s	n/a
213.837	0.105	427674	keystroke_t	t	n/a
213.942	0.06	427884	keystroke_e	e	n/a
214.032	0.105	428064	keystroke_n	n	n/a
214.227	0.03	428454	keystroke_c	c	n/a
214.377	0.075	428754	keystroke_y	y	n/a
214.9465	0.075	429893	keystroke_Key.enter	Key.enter	n/a
215.026	6.5815	430052	prompt	n/a	buck kilometers weather anywhere\n
216.0265	0.105	432053	keystroke_b	b	n/a
216.0715	0.12	432143	keystroke_u	u	n/a
216.2065	0.06	432413	keystroke_c	c	n/a
216.3115	0.105	432623	keystroke_k	k	n/a
216.4315	0.12	432863	keystroke_Key.space	Key.space	n/a
217.122	0.059	434244	keystroke_k	k	n/a
217.257	0.09	434514	keystroke_i	i	n/a
217.482	0.045	434964	keystroke_l	l	n/a
217.617	0.075	435234	keystroke_o	o	n/a
217.7965	0.0595	435593	keystroke_m	m	n/a
217.8865	0.075	435773	keystroke_e	e	n/a
218.0065	0.09	436013	keystroke_t	t	n/a
218.1415	0.12	436283	keystroke_e	e	n/a
218.2315	0.09	436463	keystroke_r	r	n/a
218.3665	0.1345	436733	keystroke_s	s	n/a
218.516	0.135	437032	keystroke_Key.space	Key.space	n/a
219.146	0.15	438292	keystroke_w	w	n/a
219.266	0.12	438532	keystroke_e	e	n/a
219.401	0.135	438802	keystroke_a	a	n/a
219.8215	0.12	439643	keystroke_t	t	n/a
219.9265	0.06	439853	keystroke_h	h	n/a
220.1065	0.12	440213	keystroke_e	e	n/a
220.1815	0.104	440363	keystroke_r	r	n/a
220.2565	0.12	440513	keystroke_Key.space	Key.space	n/a
220.4365	0.074	440873	keystroke_a	a	n/a
220.5405	0.091	441081	keystroke_n	n	n/a
220.6615	0.075	441323	keystroke_y	y	n/a
220.9015	0.06	441803	keystroke_w	w	n/a
220.9765	0.06	441953	keystroke_h	h	n/a
221.0815	0.09	442163	keystroke_e	e	n/a
221.1555	0.15	442311	keystroke_r	r	n/a
221.2305	0.15	442461	keystroke_e	e	n/a
221.5165	0.089	443033	keystroke_Key.enter	Key.enter	n/a
221.6115	7.1205	443223	prompt	n/a	stop some casting matches\n
222.3555	0.075	444711	keystroke_s	s	n/a
222.521	0.06	445042	keystroke_t	t	n/a
222.626	0.1945	445252	keystroke_o	o	n/a
222.701	0.1045	445402	keystroke_p	p	n/a
222.8355	0.06	445671	keystroke_Key.space	Key.space	n/a
223.0605	0.06	446121	keystroke_c	c	n/a
223.4955	0.09	446991	keystroke_Key.backspace	Key.backspace	n/a
223.6305	0.09	447261	keystroke_s	s	n/a
223.7655	0.1355	447531	keystroke_o	o	n/a
223.856	0.09	447712	keystroke_m	m	n/a
223.931	0.09	447862	keystroke_e	e	n/a
224.066	0.09	448132	keystroke_Key.space	Key.space	n/a
224.336	0.09	448672	keystroke_c	c	n/a
224.486	0.15	448972	keystroke_a	a	n/a
224.561	0.105	449122	keystroke_s	s	n/a
224.801	0.06	449602	keystroke_t	t	n/a
224.906	0.105	449812	keystroke_i	i	n/a
224.966	0.075	449932	keystroke_n	n	n/a
225.042	0.059	450084	keystroke_g	g	n/a
225.1305	0.09	450261	keystroke_Key.space	Key.space	n/a
225.311	0.075	450622	keystroke_m	m	n/a
225.431	0.135	450862	keystroke_a	a	n/a
225.506	0.12	451012	keystroke_s	s	n/a
226.556	0.075	453112	keystroke_t	t	n/a
226.886	0.06	453772	keystroke_Key.backspace	Key.backspace	n/a
227.006	0.105	454012	keystroke_Key.backspace	Key.backspace	n/a
227.14	0.12	454280	keystroke_t	t	n/a
227.44	0.06	454880	keystroke_Key.backspace	Key.backspace	n/a
227.831	0.074	455662	keystroke_t	t	n/a
228.1005	0.075	456201	keystroke_c	c	n/a
228.2205	0.09	456441	keystroke_h	h	n/a
228.4005	0.15	456801	keystroke_e	e	n/a
228.5055	0.09	457011	keystroke_s	s	n/a
228.6255	0.105	457251	keystroke_Key.enter	Key.enter	n/a
228.7345	16.796	457469	prompt	n/a	stephen football seminar delight\n
229.6005	0.075	459201	keystroke_s	s	n/a
229.7955	0.075	459591	keystroke_t	t	n/a
229.8555	0.09	459711	keystroke_e	e	n/a
230.0055	0.105	460011	keystroke_p	p	n/a
230.5	0.075	461000	keystroke_h	h	n/a
230.815	0.091	461630	keystroke_e	e	n/a
230.966	0.075	461932	keystroke_n	n	n/a
231.1605	0.105	462321	keystroke_Key.space	Key.space	n/a
231.5505	0.06	463101	keystroke_f	f	n/a
231.6405	0.06	463281	keystroke_o	o	n/a
231.7755	0.0755	463551	keystroke_o	o	n/a
231.836	0.059	463672	keystroke_t	t	n/a
232	0.0455	464000	keystroke_n	n	n/a
232.015	0.015	464030	keystroke_b	b	n/a
232.0905	0.09	464181	keystroke_a	a	n/a
232.795	0.06	465590	keystroke_l	l	n/a
233.08	0.06	466160	keystroke_Key.backspace	Key.backspace	n/a
233.2	0.0595	466400	keystroke_Key.backspace	Key.backspace	n/a
233.3495	0.0755	466699	keystroke_Key.backspace	Key.backspace	n/a
233.965	0.075	467930	keystroke_Key.backspace	Key.backspace	n/a
234.43	0.0755	468860	keystroke_b	b	n/a
234.5655	0.09	469131	keystroke_a	a	n/a
234.73	0.0595	469460	keystroke_l	l	n/a
234.8795	0.045	469759	keystroke_l	l	n/a
234.9695	0.1055	469939	keystroke_Key.space	Key.space	n/a
236.485	0.105	472970	keystroke_s	s	n/a
236.605	0.3445	473210	keystroke_i	i	n/a
236.68	0.1345	473360	keystroke_m	m	n/a
237.52	0.075	475040	keystroke_i	i	n/a
237.55	0.075	475100	keystroke_n	n	n/a
237.7	0.105	475400	keystroke_a	a	n/a
237.955	0.105	475910	keystroke_r	r	n/a
238.135	0.12	476270	keystroke_Key.space	Key.space	n/a
238.72	0.09	477440	keystroke_Key.backspace	Key.backspace	n/a
238.885	0.06	477770	keystroke_Key.backspace	Key.backspace	n/a
239.035	0.0895	478070	keystroke_Key.backspace	Key.backspace	n/a
239.1695	0.12	478339	keystroke_Key.backspace	Key.backspace	n/a
239.3795	0.06	478759	keystroke_Key.backspace	Key.backspace	n/a
240.4295	0.045	480859	keystroke_Key.backspace	Key.backspace	n/a
240.5495	0.075	481099	keystroke_Key.backspace	Key.backspace	n/a
241.2245	0.09	482449	keystroke_e	e	n/a
241.3595	0.09	482719	keystroke_m	m	n/a
241.585	0.09	483170	keystroke_i	i	n/a
241.63	0.09	483260	keystroke_n	n	n/a
241.765	0.165	483530	keystroke_a	a	n/a
241.915	0.09	483830	keystroke_r	r	n/a
242.125	0.075	484250	keystroke_Key.space	Key.space	n/a
242.95	0.105	485900	keystroke_d	d	n/a
243.1595	0.09	486319	keystroke_e	e	n/a
243.2645	0.075	486529	keystroke_l	l	n/a
243.534	0.075	487068	keystroke_g	g	n/a
243.894	0.09	487788	keystroke_Key.backspace	Key.backspace	n/a
244.1645	0.105	488329	keystroke_i	i	n/a
244.869	0.075	489738	keystroke_g	g	n/a
244.989	0.09	489978	keystroke_h	h	n/a
245.094	0.0605	490188	keystroke_t	t	n/a
245.4545	0.075	490909	keystroke_Key.enter	Key.enter	n/a
245.5415	9.513	491083	prompt	n/a	cancellation herself highlights took\n
246.3545	0.045	492709	keystroke_c	c	n/a
246.3695	0.105	492739	keystroke_a	a	n/a
247.149	0.075	494298	keystroke_n	n	n/a
247.254	0.135	494508	keystroke_c	c	n/a
247.344	0.09	494688	keystroke_e	e	n/a
247.449	0.075	494898	keystroke_l	l	n/a
247.599	0.075	495198	keystroke_l	l	n/a
247.689	0.075	495378	keystroke_a	a	n/a
247.869	0.06	495738	keystroke_t	t	n/a
247.959	0.105	495918	keystroke_i	i	n/a
248.034	0.12	496068	keystroke_o	o	n/a
248.199	0.09	496398	keystroke_n	n	n/a
248.304	0.09	496608	keystroke_Key.space	Key.space	n/a
248.619	0.075	497238	keystroke_h	h	n/a
248.724	0.09	497448	keystroke_e	e	n/a
248.784	0.09	497568	keystroke_r	r	n/a
248.934	0.06	497868	keystroke_s	s	n/a
249.129	0.075	498258	keystroke_e	e	n/a
249.249	0.09	498498	keystroke_l	l	n/a
249.4885	0.06	498977	keystroke_Key.space	Key.space	n/a
249.849	0.075	499698	keystroke_Key.backspace	Key.backspace	n/a
250.029	0.06	500058	keystroke_f	f	n/a
250.644	0.09	501288	keystroke_Key.space	Key.space	n/a
251.394	0.12	502788	keystroke_h	h	n/a
251.469	0.09	502938	keystroke_i	i	n/a
251.649	0.06	503298	keystroke_g	g	n/a
251.769	0.105	503538	keystroke_h	h	n/a
252.0985	0.045	504197	keystroke_l	l	n/a
252.9385	0.09	505877	keystroke_i	i	n/a
253.0585	0.0745	506117	keystroke_g	g	n/a
253.148	0.06	506296	keystroke_h	h	n/a
253.268	0.06	506536	keystroke_t	t	n/a
253.463	0.0905	506926	keystroke_s	s	n/a
253.6135	0.0895	507227	keystroke_Key.space	Key.space	n/a
254.198	0.075	508396	keystroke_t	t	n/a
254.318	0.06	508636	keystroke_o	o	n/a
254.498	0.075	508996	keystroke_o	o	n/a
254.738	0.105	509476	keystroke_k	k	n/a
254.978	0.075	509956	keystroke_Key.enter	Key.enter	n/a
255.059	8.4405	510118	prompt	n/a	province gabriel compatibility smooth\n
255.8335	0.09	511667	keystroke_p	p	n/a
255.9385	0.06	511877	keystroke_r	r	n/a
256.0435	0.09	512087	keystroke_o	o	n/a
256.1785	0.075	512357	keystroke_v	v	n/a
256.2985	0.105	512597	keystroke_i	i	n/a
256.3585	0.105	512717	keystroke_n	n	n/a
256.4785	0.15	512957	keystroke_c	c	n/a
256.5835	0.105	513167	keystroke_e	e	n/a
256.7035	0.12	513407	keystroke_Key.space	Key.space	n/a
257.514	0.075	515028	keystroke_g	g	n/a
257.649	0.09	515298	keystroke_a	a	n/a
257.784	0.09	515568	keystroke_b	b	n/a
257.904	0.09	515808	keystroke_r	r	n/a
258.024	0.075	516048	keystroke_i	i	n/a
258.144	0.09	516288	keystroke_e	e	n/a
258.294	0.075	516588	keystroke_l	l	n/a
258.459	0.06	516918	keystroke_Key.space	Key.space	n/a
258.954	0.075	517908	keystroke_c	c	n/a
259.029	0.09	518058	keystroke_o	o	n/a
259.104	0.12	518208	keystroke_m	m	n/a
259.239	0.1045	518478	keystroke_p	p	n/a
259.3585	0.09	518717	keystroke_a	a	n/a
259.5835	0.09	519167	keystroke_b	b	n/a
259.7785	0.075	519557	keystroke_i	i	n/a
260.0035	0.0895	520007	keystroke_l	l	n/a
261.488	0.03	522976	keystroke_i	i	n/a
261.743	0.135	523486	keystroke_t	t	n/a
261.848	0.075	523696	keystroke_y	y	n/a
261.983	0.105	523966	keystroke_Key.space	Key.space	n/a
262.193	0.09	524386	keystroke_s	s	n/a
262.298	0.09	524596	keystroke_m	m	n/a
262.373	0.03	524746	keystroke_o	o	n/a
262.463	0.075	524926	keystroke_o	o	n/a
262.673	0.18	525346	keystroke_t	t	n/a
262.763	0.135	525526	keystroke_h	h	n/a
263.3785	0.1195	526757	keystroke_Key.enter	Key.enter	n/a
263.5025	4.7065	527005	prompt	n/a	chapel thin rebates readers\n
264.3975	0.0755	528795	keystroke_c	c	n/a
264.458	0.09	528916	keystroke_h	h	n/a
264.563	0.075	529126	keystroke_a	a	n/a
264.683	0.0895	529366	keystroke_p	p	n/a
264.7875	0.075	529575	keystroke_e	e	n/a
264.9675	0.09	529935	keystroke_l	l	n/a
265.0725	0.0905	530145	keystroke_Key.space	Key.space	n/a
265.328	0.105	530656	keystroke_t	t	n/a
265.388	0.075	530776	keystroke_h	h	n/a
265.6125	0.135	531225	keystroke_i	i	n/a
265.6875	0.105	531375	keystroke_n	n	n/a
265.7775	0.09	531555	keystroke_Key.space	Key.space	n/a
266.0475	0.121	532095	keystroke_r	r	n/a
266.1075	0.121	532215	keystroke_e	e	n/a
266.2725	0.091	532545	keystroke_b	b	n/a
266.3785	0.09	532757	keystroke_a	a	n/a
266.4985	0.12	532997	keystroke_t	t	n/a
266.6035	0.09	533207	keystroke_e	e	n/a
266.7985	0.09	533597	keystroke_s	s	n/a
266.9025	0.09	533805	keystroke_Key.space	Key.space	n/a
267.233	0.12	534466	keystroke_r	r	n/a
267.278	0.12	534556	keystroke_e	e	n/a
267.4725	0.12	534945	keystroke_a	a	n/a
267.5485	0.104	535097	keystroke_d	d	n/a
267.7585	0.089	535517	keystroke_e	e	n/a
267.8175	0.091	535635	keystroke_r	r	n/a
267.952	0.09	535904	keystroke_s	s	n/a
268.072	0.135	536144	keystroke_Key.enter	Key.enter	n/a
268.212	7.0465	536424	prompt	n/a	context canon benz candidates\n
268.792	0.0905	537584	keystroke_c	c	n/a
268.8675	0.105	537735	keystroke_o	o	n/a
268.9275	0.12	537855	keystroke_n	n	n/a
269.0325	0.0755	538065	keystroke_t	t	n/a
269.153	0.135	538306	keystroke_e	e	n/a
270.008	0.089	540016	keystroke_x	x	n/a
270.247	0.06	540494	keystroke_t	t	n/a
270.397	0.09	540794	keystroke_Key.space	Key.space	n/a
270.697	0.075	541394	keystroke_c	c	n/a
270.788	0.074	541576	keystroke_a	a	n/a
270.877	0.091	541754	keystroke_n	n	n/a
271.088	0.1045	542176	keystroke_o	o	n/a
271.1475	0.09	542295	keystroke_n	n	n/a
271.2825	0.105	542565	keystroke_Key.space	Key.space	n/a
271.853	0.12	543706	keystroke_b	b	n/a
271.958	0.075	543916	keystroke_e	e	n/a
272.093	0.12	544186	keystroke_n	n	n/a
273.0225	0.105	546045	keystroke_z	z	n/a
273.2325	0.09	546465	keystroke_Key.space	Key.space	n/a
273.6075	0.105	547215	keystroke_c	c	n/a
273.7425	0.105	547485	keystroke_a	a	n/a
273.9075	0.135	547815	keystroke_n	n	n/a
274.0575	0.09	548115	keystroke_d	d	n/a
274.178	0.1045	548356	keystroke_i	i	n/a
274.2675	0.1045	548535	keystroke_d	d	n/a
274.552	0.105	549104	keystroke_a	a	n/a
274.7925	0.105	549585	keystroke_t	t	n/a
274.8825	0.06	549765	keystroke_e	e	n/a
275.0475	0.09	550095	keystroke_s	s	n/a
275.1675	0.09	550335	keystroke_Key.enter	Key.enter	n/a
275.261	7.3775	550522	prompt	n/a	hollow raleigh prayers opponent\n
276.322	0.075	552644	keystroke_h	h	n/a
276.412	0.075	552824	keystroke_o	o	n/a
276.607	0.03	553214	keystroke_l	l	n/a
276.742	0.075	553484	keystroke_l	l	n/a
276.9525	0.075	553905	keystroke_o	o	n/a
277.0575	0.1045	554115	keystroke_w	w	n/a
277.177	0.075	554354	keystroke_Key.space	Key.space	n/a
277.432	0.106	554864	keystroke_r	r	n/a
277.627	0.12	555254	keystroke_a	a	n/a
277.822	0.105	555644	keystroke_l	l	n/a
278.047	0.105	556094	keystroke_e	e	n/a
278.167	0.075	556334	keystroke_i	i	n/a
278.317	0.105	556634	keystroke_g	g	n/a
278.437	0.06	556874	keystroke_h	h	n/a
278.647	0.09	557294	keystroke_Key.space	Key.space	n/a
279.1725	0.105	558345	keystroke_p	p	n/a
279.3075	0.12	558615	keystroke_r	r	n/a
279.4575	0.105	558915	keystroke_a	a	n/a
279.757	0.075	559514	keystroke_y	y	n/a
279.967	0.12	559934	keystroke_e	e	n/a
280.012	0.12	560024	keystroke_r	r	n/a
280.177	0.12	560354	keystroke_s	s	n/a
280.312	0.075	560624	keystroke_Key.space	Key.space	n/a
280.822	0.135	561644	keystroke_o	o	n/a
280.912	0.135	561824	keystroke_p	p	n/a
281.4215	0.06	562843	keystroke_p	p	n/a
281.6615	0.166	563323	keystroke_o	o	n/a
281.7815	0.105	563563	keystroke_n	n	n/a
281.9025	0.104	563805	keystroke_e	e	n/a
281.9915	0.105	563983	keystroke_n	n	n/a
282.1115	0.045	564223	keystroke_t	t	n/a
282.5315	0.105	565063	keystroke_Key.enter	Key.enter	n/a
282.643	8.155	565286	prompt	n/a	enlarge graphics meetings commentary\n
283.4015	0.09	566803	keystroke_e	e	n/a
283.5065	0.105	567013	keystroke_n	n	n/a
283.7465	0.09	567493	keystroke_l	l	n/a
283.8815	0.12	567763	keystroke_a	a	n/a
283.9565	0.09	567913	keystroke_r	r	n/a
284.1965	0.12	568393	keystroke_g	g	n/a
284.2265	0.135	568453	keystroke_e	e	n/a
284.3765	0.1045	568753	keystroke_Key.space	Key.space	n/a
284.586	0.091	569172	keystroke_p	p	n/a
284.857	0.03	569714	keystroke_h	h	n/a
285.141	0.0905	570282	keystroke_Key.backspace	Key.backspace	n/a
285.2615	0.09	570523	keystroke_Key.backspace	Key.backspace	n/a
285.5015	0.135	571003	keystroke_g	g	n/a
285.5315	0.135	571063	keystroke_r	r	n/a
286.1315	0.09	572263	keystroke_a	a	n/a
286.882	0.09	573764	keystroke_p	p	n/a
287.047	0.0595	574094	keystroke_h	h	n/a
287.5565	0.105	575113	keystroke_i	i	n/a
287.8115	0.1805	575623	keystroke_c	c	n/a
287.932	0.12	575864	keystroke_s	s	n/a
288.022	0.105	576044	keystroke_Key.space	Key.space	n/a
288.217	0.075	576434	keystroke_m	m	n/a
288.277	0.09	576554	keystroke_e	e	n/a
288.442	0.12	576884	keystroke_e	e	n/a
288.547	0.1045	577094	keystroke_t	t	n/a
288.6815	0.15	577363	keystroke_i	i	n/a
288.7415	0.1045	577483	keystroke_n	n	n/a
288.8165	0.075	577633	keystroke_g	g	n/a
288.981	0.1055	577962	keystroke_s	s	n/a
289.0715	0.105	578143	keystroke_Key.space	Key.space	n/a
289.2365	0.12	578473	keystroke_c	c	n/a
289.3115	0.105	578623	keystroke_o	o	n/a
289.3865	0.06	578773	keystroke_m	m	n/a
289.5215	0.0745	579043	keystroke_m	m	n/a
289.6265	0.12	579253	keystroke_e	e	n/a
289.7315	0.105	579463	keystroke_n	n	n/a
289.971	0.0905	579942	keystroke_t	t	n/a
290.1665	0.15	580333	keystroke_a	a	n/a
290.2565	0.105	580513	keystroke_r	r	n/a
290.5265	0.06	581053	keystroke_y	y	n/a
290.691	0.105	581382	keystroke_Key.enter	Key.enter	n/a
290.8005	7.482	581601	prompt	n/a	nations four clubs guinea\n
291.862	0.104	583724	keystroke_n	n	n/a
291.981	0.076	583962	keystroke_a	a	n/a
292.117	0.059	584234	keystroke_t	t	n/a
292.236	0.106	584472	keystroke_i	i	n/a
292.311	0.136	584622	keystroke_o	o	n/a
292.477	0.09	584954	keystroke_n	n	n/a
292.582	0.09	585164	keystroke_s	s	n/a
292.702	0.06	585404	keystroke_Key.space	Key.space	n/a
292.792	0.105	585584	keystroke_f	f	n/a
293.466	0.1055	586932	keystroke_o	o	n/a
293.5105	0.105	587021	keystroke_u	u	n/a
293.6605	0.09	587321	keystroke_r	r	n/a
293.8105	0.105	587621	keystroke_Key.space	Key.space	n/a
294.0055	0.075	588011	keystroke_c	c	n/a
294.1565	0.089	588313	keystroke_l	l	n/a
294.4105	0.18	588821	keystroke_i	i	n/a
294.5455	0.06	589091	keystroke_b	b	n/a
294.7265	0.1045	589453	keystroke_s	s	n/a
295.086	0.06	590172	keystroke_Key.backspace	Key.backspace	n/a
295.221	0.06	590442	keystroke_Key.backspace	Key.backspace	n/a
295.356	0.09	590712	keystroke_Key.backspace	Key.backspace	n/a
296.0765	0.0895	592153	keystroke_u	u	n/a
296.121	0.075	592242	keystroke_b	b	n/a
296.211	0.075	592422	keystroke_s	s	n/a
296.301	0.105	592602	keystroke_Key.space	Key.space	n/a
297.0815	0.0595	594163	keystroke_g	g	n/a
297.171	0.12	594342	keystroke_u	u	n/a
297.261	0.09	594522	keystroke_i	i	n/a
297.411	0.15	594822	keystroke_n	n	n/a
297.681	0.0895	595362	keystroke_e	e	n/a
297.8615	0.104	595723	keystroke_a	a	n/a
298.1605	0.12	596321	keystroke_Key.enter	Key.enter	n/a
298.285	8.757	596570	prompt	n/a	allocation enjoyed cheaper investor\n
299.091	0.09	598182	keystroke_a	a	n/a
299.301	0.09	598602	keystroke_l	l	n/a
299.451	0.075	598902	keystroke_l	l	n/a
299.616	0.09	599232	keystroke_o	o	n/a
299.721	0.075	599442	keystroke_a	a	n/a
299.766	0.1045	599532	keystroke_c	c	n/a
300.3815	0.06	600763	keystroke_Key.backspace	Key.backspace	n/a
300.5015	0.09	601003	keystroke_Key.backspace	Key.backspace	n/a
300.8615	0.12	601723	keystroke_c	c	n/a
300.9815	0.105	601963	keystroke_a	a	n/a
301.1765	0.075	602353	keystroke_t	t	n/a
301.3115	0.09	602623	keystroke_i	i	n/a
301.3865	0.105	602773	keystroke_o	o	n/a
301.5365	0.1045	603073	keystroke_n	n	n/a
301.611	0.09	603222	keystroke_Key.space	Key.space	n/a
301.791	0.09	603582	keystroke_e	e	n/a
301.866	0.09	603732	keystroke_n	n	n/a
302.076	0.135	604152	keystroke_j	j	n/a
302.212	0.104	604424	keystroke_o	o	n/a
302.361	0.06	604722	keystroke_y	y	n/a
302.481	0.09	604962	keystroke_e	e	n/a
302.631	0.12	605262	keystroke_d	d	n/a
302.736	0.09	605472	keystroke_Key.space	Key.space	n/a
303.606	0.045	607212	keystroke_c	c	n/a
303.681	0.075	607362	keystroke_h	h	n/a
303.816	0.09	607632	keystroke_e	e	n/a
303.981	0.0895	607962	keystroke_a	a	n/a
304.1305	0.09	608261	keystroke_p	p	n/a
304.2955	0.105	608591	keystroke_e	e	n/a
304.3705	0.075	608741	keystroke_r	r	n/a
304.4905	0.105	608981	keystroke_Key.space	Key.space	n/a
304.7605	0.075	609521	keystroke_i	i	n/a
304.8055	0.105	609611	keystroke_n	n	n/a
304.9255	0.09	609851	keystroke_c	c	n/a
305.3005	0.075	610601	keystroke_Key.backspace	Key.backspace	n/a
305.3605	0.135	610721	keystroke_v	v	n/a
305.4505	0.09	610901	keystroke_e	e	n/a
305.66	0.091	611320	keystroke_s	s	n/a
305.871	0.075	611742	keystroke_t	t	n/a
306.336	0.089	612672	keystroke_o	o	n/a
306.441	0.105	612882	keystroke_r	r	n/a
306.966	0.075	613932	keystroke_Key.enter	Key.enter	n/a
307.0465	13.645	614093	prompt	n/a	networking peru euro coating\n
308.0305	0.09	616061	keystroke_n	n	n/a
308.1655	0.06	616331	keystroke_e	e	n/a
308.2705	0.075	616541	keystroke_t	t	n/a
308.4505	0.09	616901	keystroke_o	o	n/a
308.4955	0.075	616991	keystroke_w	w	n/a
308.7355	0.075	617471	keystroke_r	r	n/a
308.7955	0.1045	617591	keystroke_k	k	n/a
309.035	0.105	618070	keystroke_i	i	n/a
309.095	0.09	618190	keystroke_n	n	n/a
309.17	0.045	618340	keystroke_g	g	n/a
309.26	0.09	618520	keystroke_Key.space	Key.space	n/a
309.8305	0.0905	619661	keystroke_Key.backspace	Key.backspace	n/a
310.0255	0.075	620051	keystroke_Key.backspace	Key.backspace	n/a
310.1905	0.0445	620381	keystroke_Key.backspace	Key.backspace	n/a
310.2955	0.0745	620591	keystroke_Key.backspace	Key.backspace	n/a
310.445	0.075	620890	keystroke_Key.backspace	Key.backspace	n/a
310.58	0.075	621160	keystroke_Key.backspace	Key.backspace	n/a
310.73	0.105	621460	keystroke_Key.backspace	Key.backspace	n/a
310.925	0.105	621850	keystroke_Key.backspace	Key.backspace	n/a
311.4205	0.105	622841	keystroke_w	w	n/a
311.5855	0.1045	623171	keystroke_o	o	n/a
311.705	0.09	623410	keystroke_r	r	n/a
311.84	0.076	623680	keystroke_k	k	n/a
312.035	0.12	624070	keystroke_i	i	n/a
312.081	0.089	624162	keystroke_n	n	n/a
312.171	0.089	624342	keystroke_g	g	n/a
312.23	0.105	624460	keystroke_Key.space	Key.space	n/a
312.44	0.0755	624880	keystroke_p	p	n/a
312.8905	0.105	625781	keystroke_e	e	n/a
313.0555	0.075	626111	keystroke_u	u	n/a
313.1155	0.075	626231	keystroke_r	r	n/a
313.4305	0.075	626861	keystroke_Key.space	Key.space	n/a
313.9255	0.075	627851	keystroke_Key.backspace	Key.backspace	n/a
314.0605	0.075	628121	keystroke_Key.backspace	Key.backspace	n/a
314.2105	0.075	628421	keystroke_Key.backspace	Key.backspace	n/a
314.5255	0.09	629051	keystroke_r	r	n/a
314.7655	0.09	629531	keystroke_u	u	n/a
315.0205	0.075	630041	keystroke_Key.space	Key.space	n/a
316.2955	0.105	632591	keystroke_e	e	n/a
316.4155	0.09	632831	keystroke_u	u	n/a
316.5055	0.09	633011	keystroke_r	r	n/a
316.7005	0.075	633401	keystroke_o	o	n/a
317.1805	0.0895	634361	keystroke_Key.space	Key.space	n/a
317.7645	0.105	635529	keystroke_c	c	n/a
317.9895	0.105	635979	keystroke_a	a	n/a
318.9495	0.09	637899	keystroke_Key.backspace	Key.backspace	n/a
319.205	0.105	638410	keystroke_o	o	n/a
319.37	0.105	638740	keystroke_a	a	n/a
319.535	0.09	639070	keystroke_t	t	n/a
319.655	0.12	639310	keystroke_i	i	n/a
319.745	0.06	639490	keystroke_n	n	n/a
319.806	0.074	639612	keystroke_g	g	n/a
320.6295	0.0605	641259	keystroke_Key.enter	Key.enter	n/a
320.7025	7.2335	641405	prompt	n/a	bring integrated hidden husband\n
321.635	0.165	643270	keystroke_b	b	n/a
321.74	0.15	643480	keystroke_r	r	n/a
321.86	0.135	643720	keystroke_i	i	n/a
321.92	0.09	643840	keystroke_n	n	n/a
322.025	0.075	644050	keystroke_g	g	n/a
322.13	0.12	644260	keystroke_Key.space	Key.space	n/a
322.5345	0.105	645069	keystroke_i	i	n/a
322.5795	0.09	645159	keystroke_n	n	n/a
322.6545	0.075	645309	keystroke_t	t	n/a
322.925	0.09	645850	keystroke_e	e	n/a
323.105	0.09	646210	keystroke_g	g	n/a
323.315	0.1355	646630	keystroke_r	r	n/a
323.3905	0.09	646781	keystroke_e	e	n/a
323.81	0.0745	647620	keystroke_Key.backspace	Key.backspace	n/a
324.214	0.12	648428	keystroke_a	a	n/a
324.379	0.09	648758	keystroke_t	t	n/a
324.635	0.0745	649270	keystroke_e	e	n/a
324.7995	0.09	649599	keystroke_d	d	n/a
324.9045	0.12	649809	keystroke_Key.space	Key.space	n/a
325.3845	0.105	650769	keystroke_h	h	n/a
325.5345	0.075	651069	keystroke_i	i	n/a
325.76	0.075	651520	keystroke_d	d	n/a
325.895	0.105	651790	keystroke_d	d	n/a
326.075	0.09	652150	keystroke_e	e	n/a
326.195	0.06	652390	keystroke_n	n	n/a
326.36	0.105	652720	keystroke_Key.space	Key.space	n/a
326.78	0.09	653560	keystroke_h	h	n/a
326.84	0.09	653680	keystroke_u	u	n/a
326.945	0.105	653890	keystroke_s	s	n/a
327.11	0.045	654220	keystroke_b	b	n/a
327.215	0.12	654430	keystroke_a	a	n/a
327.38	0.105	654760	keystroke_n	n	n/a
327.515	0.075	655030	keystroke_d	d	n/a
327.845	0.09	655690	keystroke_Key.enter	Key.enter	n/a
327.94	12.821	655880	prompt	n/a	guest accordance edgar infrastructure\n
328.9095	0.075	657819	keystroke_h	h	n/a
329.284	0.105	658568	keystroke_Key.backspace	Key.backspace	n/a
329.674	0.12	659348	keystroke_g	g	n/a
329.734	0.075	659468	keystroke_u	u	n/a
329.929	0.105	659858	keystroke_e	e	n/a
329.959	0.135	659918	keystroke_s	s	n/a
330.1695	0.1045	660339	keystroke_t	t	n/a
330.319	0.105	660638	keystroke_Key.space	Key.space	n/a
330.739	0.105	661478	keystroke_a	a	n/a
330.845	0.089	661690	keystroke_c	c	n/a
331.009	0.09	662018	keystroke_c	c	n/a
331.1445	0.09	662289	keystroke_o	o	n/a
331.2195	0.075	662439	keystroke_r	r	n/a
331.4145	0.165	662829	keystroke_d	d	n/a
331.5645	0.09	663129	keystroke_a	a	n/a
331.7295	0.075	663459	keystroke_n	n	n/a
331.8195	0.165	663639	keystroke_c	c	n/a
331.8945	0.105	663789	keystroke_e	e	n/a
332.0445	0.09	664089	keystroke_Key.space	Key.space	n/a
332.3295	0.105	664659	keystroke_e	e	n/a
332.555	0.09	665110	keystroke_d	d	n/a
332.825	0.09	665650	keystroke_g	g	n/a
333.035	0.12	666070	keystroke_a	a	n/a
333.14	0.135	666280	keystroke_r	r	n/a
333.29	0.12	666580	keystroke_Key.space	Key.space	n/a
333.515	0.105	667030	keystroke_i	i	n/a
333.575	0.105	667150	keystroke_n	n	n/a
333.755	0.09	667510	keystroke_f	f	n/a
333.875	0.12	667750	keystroke_a	a	n/a
334.085	0.105	668170	keystroke_s	s	n/a
334.31	0.075	668620	keystroke_t	t	n/a
334.535	0.045	669070	keystroke_t	t	n/a
334.565	0.105	669130	keystroke_r	r	n/a
334.85	0.09	669700	keystroke_c	c	n/a
334.97	0.075	669940	keystroke_u	u	n/a
335.36	0.075	670720	keystroke_t	t	n/a
335.465	0.09	670930	keystroke_u	u	n/a
335.57	0.12	671140	keystroke_r	r	n/a
335.63	0.089	671260	keystroke_e	e	n/a
335.704	0.105	671408	keystroke_Key.space	Key.space	n/a
336.5295	0.045	673059	keystroke_Key.backspace	Key.backspace	n/a
336.6945	0.06	673389	keystroke_Key.backspace	Key.backspace	n/a
336.8445	0.075	673689	keystroke_Key.backspace	Key.backspace	n/a
336.994	0.09	673988	keystroke_Key.backspace	Key.backspace	n/a
337.189	0.06	674378	keystroke_Key.backspace	Key.backspace	n/a
337.339	0.06	674678	keystroke_Key.backspace	Key.backspace	n/a
337.504	0.06	675008	keystroke_Key.backspace	Key.backspace	n/a
337.654	0.105	675308	keystroke_Key.backspace	Key.backspace	n/a
338.374	0.075	676748	keystroke_Key.backspace	Key.backspace	n/a
339.8145	0.075	679629	keystroke_r	r	n/a
339.9045	0.075	679809	keystroke_u	u	n/a
340.0395	0.09	680079	keystroke_c	c	n/a
340.2645	0.045	680529	keystroke_t	t	n/a
340.3395	0.06	680679	keystroke_u	u	n/a
340.4295	0.105	680859	keystroke_r	r	n/a
340.5045	0.105	681009	keystroke_e	e	n/a
340.6695	0.09	681339	keystroke_Key.enter	Key.enter	n/a
340.772	6.9185	681544	prompt	n/a	footwear static feof swift\n
341.7195	0.0445	683439	keystroke_g	g	n/a
342.019	0.1055	684038	keystroke_Key.backspace	Key.backspace	n/a
342.1995	0.075	684399	keystroke_f	f	n/a
342.3195	0.075	684639	keystroke_o	o	n/a
342.4695	0.09	684939	keystroke_o	o	n/a
342.5445	0.09	685089	keystroke_t	t	n/a
342.8745	0.09	685749	keystroke_w	w	n/a
343.2045	0.09	686409	keystroke_e	e	n/a
343.3695	0.1195	686739	keystroke_a	a	n/a
343.534	0.09	687068	keystroke_r	r	n/a
343.654	0.12	687308	keystroke_Key.space	Key.space	n/a
343.8345	0.075	687669	keystroke_s	s	n/a
343.9845	0.09	687969	keystroke_t	t	n/a
344.1045	0.12	688209	keystroke_a	a	n/a
344.1945	0.09	688389	keystroke_t	t	n/a
344.4345	0.06	688869	keystroke_i	i	n/a
344.5385	0.091	689077	keystroke_c	c	n/a
344.6745	0.104	689349	keystroke_Key.space	Key.space	n/a
345.4695	0.105	690939	keystroke_f	f	n/a
345.5145	0.105	691029	keystroke_e	e	n/a
345.6495	0.105	691299	keystroke_o	o	n/a
345.8145	0.09	691629	keystroke_f	f	n/a
346.0095	0.09	692019	keystroke_Key.space	Key.space	n/a
346.6995	0.0895	693399	keystroke_s	s	n/a
346.893	0.106	693786	keystroke_w	w	n/a
347.029	0.09	694058	keystroke_i	i	n/a
347.209	0.075	694418	keystroke_f	f	n/a
347.403	0.061	694806	keystroke_t	t	n/a
347.614	0.0745	695228	keystroke_Key.enter	Key.enter	n/a
347.6935	5.8765	695387	prompt	n/a	wrapped baseline reply showing\n
348.6935	0.105	697387	keystroke_w	w	n/a
348.7385	0.091	697477	keystroke_r	r	n/a
348.9195	0.044	697839	keystroke_a	a	n/a
349.0235	0.105	698047	keystroke_p	p	n/a
349.1585	0.105	698317	keystroke_p	p	n/a
349.2645	0.089	698529	keystroke_e	e	n/a
349.4135	0.1055	698827	keystroke_d	d	n/a
349.534	0.105	699068	keystroke_Key.space	Key.space	n/a
349.759	0.105	699518	keystroke_b	b	n/a
349.804	0.135	699608	keystroke_a	a	n/a
349.879	0.105	699758	keystroke_s	s	n/a
350.104	0.1195	700208	keystroke_e	e	n/a
350.2835	0.105	700567	keystroke_l	l	n/a
350.5535	0.0905	701107	keystroke_i	i	n/a
350.5985	0.0905	701197	keystroke_n	n	n/a
350.674	0.1345	701348	keystroke_e	e	n/a
350.7635	0.105	701527	keystroke_Key.space	Key.space	n/a
350.9435	0.09	701887	keystroke_r	r	n/a
351.0035	0.12	702007	keystroke_e	e	n/a
351.1835	0.1645	702367	keystroke_p	p	n/a
351.333	0.12	702666	keystroke_l	l	n/a
351.499	0.105	702998	keystroke_y	y	n/a
351.633	0.075	703266	keystroke_Key.space	Key.space	n/a
351.784	0.104	703568	keystroke_s	s	n/a
351.873	0.106	703746	keystroke_h	h	n/a
351.993	0.076	703986	keystroke_o	o	n/a
352.129	0.09	704258	keystroke_w	w	n/a
352.353	0.151	704706	keystroke_i	i	n/a
352.443	0.105	704886	keystroke_n	n	n/a
352.788	0.09	705576	keystroke_g	g	n/a
353.5535	0.015	707107	keystroke_Key.enter	Key.enter	n/a
353.5765	4.4635	707153	prompt	n/a	fatal boxing built me\n
354.4535	0.105	708907	keystroke_f	f	n/a
354.5735	0.09	709147	keystroke_a	a	n/a
354.7085	0.0895	709417	keystroke_t	t	n/a
354.843	0.09	709686	keystroke_a	a	n/a
354.994	0.1195	709988	keystroke_l	l	n/a
355.1285	0.075	710257	keystroke_Key.space	Key.space	n/a
355.5635	0.09	711127	keystroke_b	b	n/a
355.7585	0.135	711517	keystroke_o	o	n/a
355.9385	0.09	711877	keystroke_x	x	n/a
356.0435	0.12	712087	keystroke_i	i	n/a
356.1035	0.075	712207	keystroke_n	n	n/a
356.2385	0.06	712477	keystroke_g	g	n/a
356.3135	0.105	712627	keystroke_Key.space	Key.space	n/a
356.5385	0.09	713077	keystroke_b	b	n/a
356.7635	0.12	713527	keystroke_u	u	n/a
356.8985	0.075	713797	keystroke_i	i	n/a
357.094	0.075	714188	keystroke_l	l	n/a
357.199	0.059	714398	keystroke_t	t	n/a
357.289	0.104	714578	keystroke_Key.space	Key.space	n/a
357.588	0.075	715176	keystroke_m	m	n/a
357.739	0.09	715478	keystroke_e	e	n/a
357.949	0.089	715898	keystroke_Key.enter	Key.enter	n/a
358.0425	7.182	716085	prompt	n/a	updated sorts biography means\n
358.8335	0.075	717667	keystroke_u	u	n/a
358.9985	0.105	717997	keystroke_p	p	n/a
359.1335	0.12	718267	keystroke_d	d	n/a
359.2085	0.09	718417	keystroke_a	a	n/a
359.3885	0.075	718777	keystroke_t	t	n/a
359.4485	0.09	718897	keystroke_e	e	n/a
359.5985	0.09	719197	keystroke_d	d	n/a
359.7035	0.0895	719407	keystroke_Key.space	Key.space	n/a
359.823	0.09	719646	keystroke_s	s	n/a
359.958	0.18	719916	keystroke_p	p	n/a
360.033	0.136	720066	keystroke_o	o	n/a
360.648	0.045	721296	keystroke_Key.backspace	Key.backspace	n/a
360.7675	0.1055	721535	keystroke_Key.backspace	Key.backspace	n/a
360.888	0.0895	721776	keystroke_Key.backspace	Key.backspace	n/a
361.4875	0.091	722975	keystroke_s	s	n/a
361.7135	0.0745	723427	keystroke_o	o	n/a
361.893	0.09	723786	keystroke_r	r	n/a
361.938	0.09	723876	keystroke_t	t	n/a
362.1485	0.06	724297	keystroke_s	s	n/a
362.2385	0.105	724477	keystroke_Key.space	Key.space	n/a
362.7635	0.09	725527	keystroke_b	b	n/a
363.0485	0.1045	726097	keystroke_i	i	n/a
363.0785	0.0895	726157	keystroke_o	o	n/a
363.363	0.12	726726	keystroke_g	g	n/a
363.408	0.105	726816	keystroke_r	r	n/a
363.618	0.09	727236	keystroke_a	a	n/a
363.753	0.12	727506	keystroke_p	p	n/a
363.903	0.12	727806	keystroke_h	h	n/a
364.128	0.09	728256	keystroke_y	y	n/a
364.233	0.105	728466	keystroke_Key.space	Key.space	n/a
364.533	0.105	729066	keystroke_m	m	n/a
364.608	0.105	729216	keystroke_e	e	n/a
364.803	0.075	729606	keystroke_a	a	n/a
364.893	0.105	729786	keystroke_n	n	n/a
364.983	0.09	729966	keystroke_s	s	n/a
365.148	0.075	730296	keystroke_Key.enter	Key.enter	n/a
365.2275	4.437	730455	prompt	n/a	beer cases handles power\n
365.928	0.075	731856	keystroke_b	b	n/a
366.018	0.075	732036	keystroke_e	e	n/a
366.168	0.105	732336	keystroke_e	e	n/a
366.288	0.075	732576	keystroke_r	r	n/a
366.438	0.12	732876	keystroke_Key.space	Key.space	n/a
366.603	0.12	733206	keystroke_c	c	n/a
366.708	0.21	733416	keystroke_a	a	n/a
366.798	0.135	733596	keystroke_s	s	n/a
367.0385	0.06	734077	keystroke_e	e	n/a
367.2035	0.105	734407	keystroke_s	s	n/a
367.3235	0.09	734647	keystroke_Key.space	Key.space	n/a
367.8785	0.075	735757	keystroke_h	h	n/a
367.9685	0.075	735937	keystroke_a	a	n/a
368.0735	0.09	736147	keystroke_n	n	n/a
368.1635	0.075	736327	keystroke_d	d	n/a
368.2835	0.09	736567	keystroke_l	l	n/a
368.388	0.105	736776	keystroke_e	e	n/a
368.448	0.1205	736896	keystroke_s	s	n/a
368.5985	0.0895	737197	keystroke_Key.space	Key.space	n/a
368.913	0.1505	737826	keystroke_p	p	n/a
368.973	0.15	737946	keystroke_o	o	n/a
369.108	0.135	738216	keystroke_w	w	n/a
369.168	0.12	738336	keystroke_e	e	n/a
369.3785	0.09	738757	keystroke_r	r	n/a
369.558	0.1055	739116	keystroke_Key.enter	Key.enter	n/a
369.667	8.3825	739334	prompt	n/a	circular renewable international fits\n
370.608	0.09	741216	keystroke_i	i	n/a
371.1325	0.076	742265	keystroke_Key.backspace	Key.backspace	n/a
371.2985	0.06	742597	keystroke_c	c	n/a
371.4035	0.09	742807	keystroke_i	i	n/a
371.5835	0.06	743167	keystroke_c	c	n/a
371.958	0.045	743916	keystroke_u	u	n/a
372.168	0.075	744336	keystroke_l	l	n/a
372.318	0.1195	744636	keystroke_a	a	n/a
372.4825	0.03	744965	keystroke_r	r	n/a
372.6025	0.09	745205	keystroke_Key.space	Key.space	n/a
373.0675	0.1055	746135	keystroke_r	r	n/a
373.0975	0.1205	746195	keystroke_e	e	n/a
373.233	0.105	746466	keystroke_n	n	n/a
373.6975	0.151	747395	keystroke_e	e	n/a
373.788	0.105	747576	keystroke_w	w	n/a
374.3735	0.12	748747	keystroke_a	a	n/a
374.628	0.075	749256	keystroke_b	b	n/a
374.7785	0.105	749557	keystroke_l	l	n/a
374.8985	0.075	749797	keystroke_e	e	n/a
375.0185	0.105	750037	keystroke_Key.space	Key.space	n/a
375.303	0.135	750606	keystroke_i	i	n/a
375.393	0.105	750786	keystroke_n	n	n/a
375.468	0.105	750936	keystroke_t	t	n/a
375.618	0.15	751236	keystroke_e	e	n/a
375.723	0.09	751446	keystroke_r	r	n/a
375.918	0.105	751836	keystroke_n	n	n/a
376.038	0.106	752076	keystroke_a	a	n/a
376.248	0.09	752496	keystroke_t	t	n/a
376.368	0.105	752736	keystroke_i	i	n/a
376.443	0.0895	752886	keystroke_o	o	n/a
376.5775	0.12	753155	keystroke_n	n	n/a
376.7125	0.0905	753425	keystroke_a	a	n/a
376.8175	0.09	753635	keystroke_l	l	n/a
376.9525	0.075	753905	keystroke_Key.space	Key.space	n/a
377.3575	0.075	754715	keystroke_f	f	n/a
377.4475	0.09	754895	keystroke_i	i	n/a
377.5675	0.06	755135	keystroke_t	t	n/a
377.7475	0.09	755495	keystroke_s	s	n/a
377.9725	0.075	755945	keystroke_Key.enter	Key.enter	n/a
378.0605	5.6885	756121	prompt	n/a	suppliers manchester counting strict\n
378.768	0.09	757536	keystroke_s	s	n/a
378.873	0.09	757746	keystroke_u	u	n/a
379.128	0.029	758256	keystroke_p	p	n/a
379.248	0.105	758496	keystroke_p	p	n/a
379.428	0.12	758856	keystroke_l	l	n/a
379.683	0.045	759366	keystroke_i	i	n/a
379.773	0.105	759546	keystroke_e	e	n/a
379.833	0.09	759666	keystroke_r	r	n/a
380.013	0.105	760026	keystroke_s	s	n/a
380.148	0.105	760296	keystroke_Key.space	Key.space	n/a
380.448	0.09	760896	keystroke_m	m	n/a
380.553	0.075	761106	keystroke_a	a	n/a
380.658	0.09	761316	keystroke_n	n	n/a
380.808	0.12	761616	keystroke_c	c	n/a
380.943	0.06	761886	keystroke_h	h	n/a
381.048	0.06	762096	keystroke_e	e	n/a
381.183	0.075	762366	keystroke_s	s	n/a
381.303	0.09	762606	keystroke_t	t	n/a
381.468	0.12	762936	keystroke_e	e	n/a
381.543	0.09	763086	keystroke_r	r	n/a
381.663	0.105	763326	keystroke_Key.space	Key.space	n/a
381.813	0.09	763626	keystroke_c	c	n/a
381.918	0.1195	763836	keystroke_o	o	n/a
381.9775	0.09	763955	keystroke_u	u	n/a
382.1425	0.12	764285	keystroke_n	n	n/a
382.2475	0.06	764495	keystroke_t	t	n/a
382.3375	0.105	764675	keystroke_i	i	n/a
382.3975	0.075	764795	keystroke_n	n	n/a
382.4875	0.0755	764975	keystroke_g	g	n/a
382.5475	0.1055	765095	keystroke_Key.space	Key.space	n/a
382.6975	0.09	765395	keystroke_s	s	n/a
382.953	0.1345	765906	keystroke_t	t	n/a
383.043	0.0895	766086	keystroke_r	r	n/a
383.1475	0.12	766295	keystroke_i	i	n/a
383.2975	0.09	766595	keystroke_c	c	n/a
383.5075	0.06	767015	keystroke_t	t	n/a
383.6425	0.105	767285	keystroke_Key.enter	Key.enter	n/a
383.7545	6.9545	767509	prompt	n/a	persons chair fatty unusual\n
384.408	0.09	768816	keystroke_p	p	n/a
384.528	0.09	769056	keystroke_e	e	n/a
384.573	0.105	769146	keystroke_r	r	n/a
384.7225	0.09	769445	keystroke_s	s	n/a
384.7975	0.15	769595	keystroke_o	o	n/a
384.8875	0.09	769775	keystroke_n	n	n/a
384.9625	0.12	769925	keystroke_s	s	n/a
385.098	0.09	770196	keystroke_Key.space	Key.space	n/a
385.563	0.105	771126	keystroke_c	c	n/a
385.653	0.12	771306	keystroke_h	h	n/a
385.758	0.075	771516	keystroke_a	a	n/a
385.908	0.075	771816	keystroke_i	i	n/a
385.998	0.075	771996	keystroke_r	r	n/a
386.103	0.1045	772206	keystroke_Key.space	Key.space	n/a
386.7625	0.135	773525	keystroke_f	f	n/a
386.8825	0.105	773765	keystroke_a	a	n/a
387.0325	0.06	774065	keystroke_t	t	n/a
387.1525	0.075	774305	keystroke_t	t	n/a
387.3475	0.06	774695	keystroke_y	y	n/a
387.453	0.1345	774906	keystroke_Key.space	Key.space	n/a
387.9475	0.06	775895	keystroke_i	i	n/a
387.9925	0.12	775985	keystroke_n	n	n/a
388.323	0.06	776646	keystroke_Key.backspace	Key.backspace	n/a
388.458	0.06	776916	keystroke_Key.backspace	Key.backspace	n/a
388.758	0.12	777516	keystroke_u	u	n/a
388.803	0.105	777606	keystroke_n	n	n/a
389.268	0.06	778536	keystroke_u	u	n/a
389.388	0.09	778776	keystroke_s	s	n/a
389.823	0.09	779646	keystroke_u	u	n/a
389.958	0.105	779916	keystroke_a	a	n/a
390.093	0.075	780186	keystroke_l	l	n/a
390.273	0.045	780546	keystroke_Key.space	Key.space	n/a
390.6175	0.09	781235	keystroke_Key.enter	Key.enter	n/a
390.7125	6.7315	781425	prompt	n/a	spam eyed ridge provided\n
391.7425	0.09	783485	keystroke_s	s	n/a
391.862	0.09	783724	keystroke_p	p	n/a
391.982	0.1205	783964	keystroke_a	a	n/a
392.0875	0.075	784175	keystroke_m	m	n/a
392.2075	0.1045	784415	keystroke_Key.space	Key.space	n/a
392.417	0.075	784834	keystroke_e	e	n/a
392.5525	0.09	785105	keystroke_y	y	n/a
392.5975	0.09	785195	keystroke_e	e	n/a
392.8225	0.0745	785645	keystroke_d	d	n/a
392.957	0.09	785914	keystroke_Key.space	Key.space	n/a
393.333	0.09	786666	keystroke_r	r	n/a
393.453	0.105	786906	keystroke_i	i	n/a
393.993	0.075	787986	keystroke_s	s	n/a
394.608	0.03	789216	keystroke_Key.backspace	Key.backspace	n/a
395.567	0.09	791134	keystroke_d	d	n/a
395.672	0.06	791344	keystroke_h	h	n/a
395.777	0.09	791554	keystroke_e	e	n/a
395.972	0.075	791944	keystroke_Key.space	Key.space	n/a
396.347	0.105	792694	keystroke_p	p	n/a
396.467	0.075	792934	keystroke_r	r	n/a
396.587	0.075	793174	keystroke_o	o	n/a
396.708	0.074	793416	keystroke_v	v	n/a
396.827	0.06	793654	keystroke_i	i	n/a
396.932	0.0905	793864	keystroke_d	d	n/a
397.0975	0.075	794195	keystroke_e	e	n/a
397.2325	0.12	794465	keystroke_d	d	n/a
397.3675	0.075	794735	keystroke_Key.enter	Key.enter	n/a
397.4475	5.261	794895	prompt	n/a	firms babe budget trailer\n
398.5375	0.045	797075	keystroke_f	f	n/a
398.5975	0.075	797195	keystroke_i	i	n/a
398.7175	0.06	797435	keystroke_r	r	n/a
399.002	0.075	798004	keystroke_m	m	n/a
399.107	0.1055	798214	keystroke_s	s	n/a
399.1975	0.09	798395	keystroke_Key.space	Key.space	n/a
399.4075	0.075	798815	keystroke_b	b	n/a
399.4525	0.075	798905	keystroke_a	a	n/a
399.5725	0.075	799145	keystroke_b	b	n/a
399.6625	0.105	799325	keystroke_e	e	n/a
399.7825	0.09	799565	keystroke_Key.space	Key.space	n/a
399.9775	0.075	799955	keystroke_b	b	n/a
400.1575	0.09	800315	keystroke_u	u	n/a
400.8325	0.105	801665	keystroke_d	d	n/a
401.0125	0.045	802025	keystroke_g	g	n/a
401.177	0.12	802354	keystroke_e	e	n/a
401.237	0.105	802474	keystroke_t	t	n/a
401.357	0.105	802714	keystroke_Key.space	Key.space	n/a
401.777	0.105	803554	keystroke_t	t	n/a
401.822	0.105	803644	keystroke_r	r	n/a
402.0325	0.09	804065	keystroke_a	a	n/a
402.1375	0.06	804275	keystroke_i	i	n/a
402.3175	0.105	804635	keystroke_l	l	n/a
402.452	0.075	804904	keystroke_e	e	n/a
402.467	0.09	804934	keystroke_r	r	n/a
402.617	0.09	805234	keystroke_Key.enter	Key.enter	n/a
402.711	8.4125	805422	prompt	n/a	assumes terminology queue security\n
403.5025	0.12	807005	keystroke_a	a	n/a
403.5775	0.06	807155	keystroke_s	s	n/a
403.7125	0.0745	807425	keystroke_s	s	n/a
403.877	0.105	807754	keystroke_u	u	n/a
404.087	0.09	808174	keystroke_m	m	n/a
404.162	0.06	808324	keystroke_e	e	n/a
404.312	0.09	808624	keystroke_s	s	n/a
404.403	0.104	808806	keystroke_Key.space	Key.space	n/a
404.702	0.075	809404	keystroke_t	t	n/a
404.852	0.105	809704	keystroke_e	e	n/a
404.912	0.09	809824	keystroke_r	r	n/a
405.017	0.075	810034	keystroke_m	m	n/a
405.1525	0.15	810305	keystroke_i	i	n/a
405.2425	0.105	810485	keystroke_n	n	n/a
405.4825	0.06	810965	keystroke_o	o	n/a
405.6475	0.075	811295	keystroke_l	l	n/a
405.7975	0.09	811595	keystroke_o	o	n/a
405.9175	0.09	811835	keystroke_g	g	n/a
406.1415	0.091	812283	keystroke_y	y	n/a
406.2625	0.105	812525	keystroke_Key.space	Key.space	n/a
406.9525	0.105	813905	keystroke_q	q	n/a
407.252	0.0755	814504	keystroke_u	u	n/a
407.3875	0.09	814775	keystroke_e	e	n/a
407.5075	0.105	815015	keystroke_u	u	n/a
407.5975	0.075	815195	keystroke_e	e	n/a
407.7025	0.03	815405	keystroke_u	u	n/a
408.3325	0.074	816665	keystroke_Key.backspace	Key.backspace	n/a
408.5875	0.075	817175	keystroke_Key.space	Key.space	n/a
409.307	0.09	818614	keystroke_s	s	n/a
409.607	0.045	819214	keystroke_e	e	n/a
409.802	0.075	819604	keystroke_c	c	n/a
409.952	0.105	819904	keystroke_u	u	n/a
410.087	0.09	820174	keystroke_r	r	n/a
410.207	0.105	820414	keystroke_i	i	n/a
410.297	0.075	820594	keystroke_t	t	n/a
410.507	0.03	821014	keystroke_y	y	n/a
411.032	0.0895	822064	keystroke_Key.enter	Key.enter	n/a
411.134	5.869	822268	prompt	n/a	transit winter he's single\n
411.9325	0.105	823865	keystroke_t	t	n/a
411.9625	0.105	823925	keystroke_r	r	n/a
412.412	0.09	824824	keystroke_a	a	n/a
412.517	0.105	825034	keystroke_n	n	n/a
412.667	0.105	825334	keystroke_s	s	n/a
413.087	0.075	826174	keystroke_i	i	n/a
413.207	0.075	826414	keystroke_t	t	n/a
413.297	0.12	826594	keystroke_Key.space	Key.space	n/a
413.582	0.09	827164	keystroke_w	w	n/a
413.702	0.1045	827404	keystroke_i	i	n/a
413.747	0.1055	827494	keystroke_n	n	n/a
413.8665	0.06	827733	keystroke_t	t	n/a
413.9875	0.134	827975	keystroke_e	e	n/a
414.0465	0.105	828093	keystroke_r	r	n/a
414.1525	0.104	828305	keystroke_Key.space	Key.space	n/a
414.4065	0.076	828813	keystroke_h	h	n/a
414.5115	0.136	829023	keystroke_e	e	n/a
415.3065	0.06	830613	keystroke_'	'	n/a
415.4565	0.09	830913	keystroke_s	s	n/a
415.607	0.045	831214	keystroke_Key.space	Key.space	n/a
416.117	0.09	832234	keystroke_s	s	n/a
416.267	0.12	832534	keystroke_i	i	n/a
416.312	0.135	832624	keystroke_n	n	n/a
416.447	0.075	832894	keystroke_g	g	n/a
416.552	0.09	833104	keystroke_l	l	n/a
416.657	0.105	833314	keystroke_e	e	n/a
416.912	0.09	833824	keystroke_Key.enter	Key.enter	n/a
417.009	9.774	834018	prompt	n/a	oracle analyzes automobiles museums\n
417.887	0.075	835774	keystroke_o	o	n/a
417.947	0.09	835894	keystroke_r	r	n/a
418.112	0.1045	836224	keystroke_a	a	n/a
418.2015	0.045	836403	keystroke_c	c	n/a
418.9815	0.075	837963	keystroke_l	l	n/a
419.0715	0.0905	838143	keystroke_e	e	n/a
419.207	0.09	838414	keystroke_Key.space	Key.space	n/a
419.492	0.075	838984	keystroke_a	a	n/a
419.567	0.075	839134	keystroke_n	n	n/a
419.657	0.09	839314	keystroke_a	a	n/a
419.807	0.09	839614	keystroke_l	l	n/a
420.092	0.09	840184	keystroke_y	y	n/a
420.392	0.12	840784	keystroke_z	z	n/a
420.602	0.075	841204	keystroke_e	e	n/a
420.767	0.12	841534	keystroke_s	s	n/a
421.037	0.09	842074	keystroke_Key.space	Key.space	n/a
421.292	0.12	842584	keystroke_a	a	n/a
421.457	0.075	842914	keystroke_u	u	n/a
421.562	0.075	843124	keystroke_t	t	n/a
421.772	0.075	843544	keystroke_o	o	n/a
422.3415	0.0755	844683	keystroke_m	m	n/a
422.567	0.09	845134	keystroke_o	o	n/a
422.702	0.075	845404	keystroke_b	b	n/a
422.807	0.0745	845614	keystroke_i	i	n/a
423.0015	0.0905	846003	keystroke_l	l	n/a
423.107	0.06	846214	keystroke_e	e	n/a
423.242	0.105	846484	keystroke_s	s	n/a
423.347	0.135	846694	keystroke_Key.space	Key.space	n/a
424.337	0.09	848674	keystroke_m	m	n/a
424.592	0.09	849184	keystroke_u	u	n/a
424.712	0.0905	849424	keystroke_s	s	n/a
424.9215	0.09	849843	keystroke_u	u	n/a
425.4915	0.045	850983	keystroke_Key.backspace	Key.backspace	n/a
425.7015	0.09	851403	keystroke_e	e	n/a
425.8965	0.075	851793	keystroke_u	u	n/a
426.1665	0.09	852333	keystroke_m	m	n/a
426.2865	0.09	852573	keystroke_s	s	n/a
426.7065	0.075	853413	keystroke_Key.enter	Key.enter	n/a
426.786	6.702	853572	prompt	n/a	incentive crafts insights launched\n
427.5615	0.105	855123	keystroke_i	i	n/a
427.6215	0.105	855243	keystroke_n	n	n/a
427.6815	0.1195	855363	keystroke_c	c	n/a
427.7865	0.06	855573	keystroke_e	e	n/a
427.8615	0.075	855723	keystroke_n	n	n/a
427.9815	0.06	855963	keystroke_t	t	n/a
428.0715	0.105	856143	keystroke_i	i	n/a
428.2965	0.135	856593	keystroke_v	v	n/a
428.3865	0.12	856773	keystroke_e	e	n/a
428.5515	0.12	857103	keystroke_Key.space	Key.space	n/a
428.8815	0.12	857763	keystroke_c	c	n/a
429.152	0.09	858304	keystroke_r	r	n/a
429.332	0.105	858664	keystroke_a	a	n/a
429.392	0.105	858784	keystroke_f	f	n/a
429.602	0.06	859204	keystroke_t	t	n/a
429.7665	0.105	859533	keystroke_s	s	n/a
429.9015	0.12	859803	keystroke_Key.space	Key.space	n/a
430.2465	0.135	860493	keystroke_i	i	n/a
430.3065	0.12	860613	keystroke_n	n	n/a
430.4865	0.09	860973	keystroke_s	s	n/a
430.5615	0.09	861123	keystroke_i	i	n/a
430.7115	0.075	861423	keystroke_g	g	n/a
430.8015	0.09	861603	keystroke_h	h	n/a
430.9215	0.06	861843	keystroke_t	t	n/a
431.0865	0.09	862173	keystroke_s	s	n/a
431.192	0.09	862384	keystroke_Key.space	Key.space	n/a
431.552	0.1045	863104	keystroke_l	l	n/a
431.6865	0.09	863373	keystroke_a	a	n/a
431.8215	0.06	863643	keystroke_u	u	n/a
432.0165	0.09	864033	keystroke_n	n	n/a
432.3465	0.075	864693	keystroke_c	c	n/a
432.4665	0.06	864933	keystroke_h	h	n/a
432.6315	0.075	865263	keystroke_e	e	n/a
432.7815	0.09	865563	keystroke_d	d	n/a
433.4115	0.075	866823	keystroke_Key.enter	Key.enter	n/a
433.4935	14.634	866987	prompt	n/a	demographic cornell saturday roughly\n
434.1915	0.09	868383	keystroke_d	d	n/a
434.3715	0.075	868743	keystroke_e	e	n/a
434.4915	0.06	868983	keystroke_p	p	n/a
434.8365	0.09	869673	keystroke_Key.backspace	Key.backspace	n/a
435.137	0.09	870274	keystroke_m	m	n/a
435.602	0.06	871204	keystroke_o	o	n/a
436.247	0.12	872494	keystroke_g	g	n/a
436.262	0.135	872524	keystroke_r	r	n/a
436.6065	0.105	873213	keystroke_a	a	n/a
436.8765	0.12	873753	keystroke_p	p	n/a
437.4315	0.135	874863	keystroke_h	h	n/a
437.5215	0.075	875043	keystroke_i	i	n/a
437.6115	0.105	875223	keystroke_c	c	n/a
437.7315	0.105	875463	keystroke_Key.space	Key.space	n/a
438.092	0.09	876184	keystroke_c	c	n/a
438.302	0.105	876604	keystroke_o	o	n/a
438.467	0.105	876934	keystroke_r	r	n/a
438.617	0.12	877234	keystroke_n	n	n/a
438.856	0.091	877712	keystroke_e	e	n/a
438.977	0.09	877954	keystroke_l	l	n/a
439.1265	0.075	878253	keystroke_l	l	n/a
439.2915	0.09	878583	keystroke_Key.space	Key.space	n/a
440.821	0.075	881642	keystroke_s	s	n/a
441.046	0.12	882092	keystroke_a	a	n/a
441.256	0.075	882512	keystroke_t	t	n/a
441.361	0.09	882722	keystroke_u	u	n/a
441.466	0.075	882932	keystroke_r	r	n/a
441.661	0.12	883322	keystroke_d	d	n/a
441.736	0.075	883472	keystroke_a	a	n/a
441.916	0.09	883832	keystroke_y	y	n/a
442.051	0.075	884102	keystroke_Key.space	Key.space	n/a
442.801	0.075	885602	keystroke_r	r	n/a
442.891	0.09	885782	keystroke_o	o	n/a
443.011	0.09	886022	keystroke_g	g	n/a
443.627	0.089	887254	keystroke_Key.backspace	Key.backspace	n/a
444.661	0.1355	889322	keystroke_o	o	n/a
444.7365	0.09	889473	keystroke_u	u	n/a
444.9465	0.09	889893	keystroke_h	h	n/a
445.396	0.06	890792	keystroke_Key.backspace	Key.backspace	n/a
445.531	0.075	891062	keystroke_Key.backspace	Key.backspace	n/a
445.666	0.06	891332	keystroke_Key.backspace	Key.backspace	n/a
446.971	0.09	893942	keystroke_u	u	n/a
447.076	0.1205	894152	keystroke_g	g	n/a
447.1965	0.075	894393	keystroke_h	h	n/a
447.421	0.075	894842	keystroke_l	l	n/a
447.526	0.105	895052	keystroke_y	y	n/a
448.066	0.06	896132	keystroke_Key.enter	Key.enter	n/a
448.1385	6.4845	896277	prompt	n/a	societies forces who've shirts\n
449.191	0.105	898382	keystroke_s	s	n/a
449.311	0.09	898622	keystroke_o	o	n/a
449.446	0.075	898892	keystroke_c	c	n/a
449.551	0.075	899102	keystroke_i	i	n/a
449.641	0.105	899282	keystroke_e	e	n/a
449.866	0.09	899732	keystroke_t	t	n/a
449.971	0.12	899942	keystroke_i	i	n/a
450.2115	0.165	900423	keystroke_e	e	n/a
450.3305	0.121	900661	keystroke_s	s	n/a
450.4955	0.136	900991	keystroke_Key.space	Key.space	n/a
450.7205	0.076	901441	keystroke_f	f	n/a
450.8115	0.1195	901623	keystroke_o	o	n/a
450.916	0.06	901832	keystroke_r	r	n/a
451.096	0.105	902192	keystroke_c	c	n/a
451.141	0.09	902282	keystroke_e	e	n/a
451.336	0.09	902672	keystroke_s	s	n/a
451.456	0.1055	902912	keystroke_Key.space	Key.space	n/a
451.8465	0.09	903693	keystroke_w	w	n/a
451.9815	0.12	903963	keystroke_h	h	n/a
452.0565	0.09	904113	keystroke_o	o	n/a
452.701	0.075	905402	keystroke_'	'	n/a
452.9415	0.12	905883	keystroke_v	v	n/a
453.0315	0.075	906063	keystroke_e	e	n/a
453.2565	0.09	906513	keystroke_Key.space	Key.space	n/a
453.6465	0.09	907293	keystroke_s	s	n/a
453.9315	0.135	907863	keystroke_h	h	n/a
454.0065	0.105	908013	keystroke_i	i	n/a
454.0965	0.105	908193	keystroke_r	r	n/a
454.1715	0.09	908343	keystroke_t	t	n/a
454.4115	0.09	908823	keystroke_s	s	n/a
454.5315	0.09	909063	keystroke_Key.enter	Key.enter	n/a
454.626	8.9365	909252	prompt	n/a	quest legislation prerequisite studio\n
455.596	0.09	911192	keystroke_q	q	n/a
455.716	0.075	911432	keystroke_u	u	n/a
455.821	0.135	911642	keystroke_e	e	n/a
455.896	0.105	911792	keystroke_s	s	n/a
456.106	0.06	912212	keystroke_t	t	n/a
456.241	0.075	912482	keystroke_Key.space	Key.space	n/a
456.4355	0.06	912871	keystroke_l	l	n/a
456.5855	0.0755	913171	keystroke_e	e	n/a
456.796	0.075	913592	keystroke_g	g	n/a
456.901	0.075	913802	keystroke_i	i	n/a
456.9905	0.09	913981	keystroke_s	s	n/a
457.1855	0.12	914371	keystroke_t	t	n/a
457.2605	0.075	914521	keystroke_r	r	n/a
457.471	0.1055	914942	keystroke_a	a	n/a
457.5455	0.075	915091	keystroke_t	t	n/a
457.7105	0.135	915421	keystroke_i	i	n/a
457.7555	0.12	915511	keystroke_o	o	n/a
457.9355	0.105	915871	keystroke_n	n	n/a
458.0715	0.09	916143	keystroke_Key.space	Key.space	n/a
458.2665	0.0745	916533	keystroke_p	p	n/a
458.401	0.15	916802	keystroke_r	r	n/a
458.476	0.135	916952	keystroke_e	e	n/a
458.851	0.15	917702	keystroke_r	r	n/a
458.911	0.12	917822	keystroke_e	e	n/a
459.391	0.105	918782	keystroke_q	q	n/a
459.556	0.105	919112	keystroke_u	u	n/a
459.631	0.075	919262	keystroke_i	i	n/a
460.786	0.075	921572	keystroke_s	s	n/a
460.951	0.075	921902	keystroke_i	i	n/a
461.206	0.135	922412	keystroke_t	t	n/a
461.281	0.12	922562	keystroke_e	e	n/a
461.506	0.06	923012	keystroke_Key.space	Key.space	n/a
462.1965	0.0895	924393	keystroke_s	s	n/a
462.3915	0.0895	924783	keystroke_t	t	n/a
462.586	0.105	925172	keystroke_u	u	n/a
462.811	0.09	925622	keystroke_d	d	n/a
462.916	0.09	925832	keystroke_i	i	n/a
463.111	0.09	926222	keystroke_o	o	n/a
463.471	0.09	926942	keystroke_Key.enter	Key.enter	n/a
463.5745	8.0725	927149	prompt	n/a	household infringement creatures piece\n
464.3705	0.105	928741	keystroke_h	h	n/a
464.5505	0.135	929101	keystroke_o	o	n/a
464.6105	0.105	929221	keystroke_u	u	n/a
464.7005	0.135	929401	keystroke_s	s	n/a
464.7905	0.105	929581	keystroke_e	e	n/a
465.0605	0.1355	930121	keystroke_h	h	n/a
465.226	0.105	930452	keystroke_o	o	n/a
465.436	0.075	930872	keystroke_l	l	n/a
465.541	0.12	931082	keystroke_d	d	n/a
465.676	0.09	931352	keystroke_Key.space	Key.space	n/a
465.8555	0.075	931711	keystroke_o	o	n/a
465.9005	0.135	931801	keystroke_n	n	n/a
466.681	0.06	933362	keystroke_Key.backspace	Key.backspace	n/a
466.801	0.075	933602	keystroke_Key.backspace	Key.backspace	n/a
467.101	0.105	934202	keystroke_i	i	n/a
467.161	0.105	934322	keystroke_n	n	n/a
467.266	0.09	934532	keystroke_f	f	n/a
467.491	0.075	934982	keystroke_r	r	n/a
467.671	0.12	935342	keystroke_i	i	n/a
467.731	0.09	935462	keystroke_n	n	n/a
468.361	0.105	936722	keystroke_g	g	n/a
468.421	0.12	936842	keystroke_e	e	n/a
468.526	0.075	937052	keystroke_m	m	n/a
468.616	0.075	937232	keystroke_e	e	n/a
468.706	0.09	937412	keystroke_n	n	n/a
468.811	0.075	937622	keystroke_t	t	n/a
468.916	0.075	937832	keystroke_Key.space	Key.space	n/a
469.2455	0.09	938491	keystroke_c	c	n/a
469.4705	0.105	938941	keystroke_r	r	n/a
469.5005	0.105	939001	keystroke_e	e	n/a
469.6655	0.075	939331	keystroke_a	a	n/a
469.7555	0.09	939511	keystroke_t	t	n/a
469.9055	0.12	939811	keystroke_u	u	n/a
470.0265	0.119	940053	keystroke_r	r	n/a
470.0855	0.1055	940171	keystroke_e	e	n/a
470.281	0.09	940562	keystroke_s	s	n/a
470.356	0.09	940712	keystroke_Key.space	Key.space	n/a
470.6105	0.09	941221	keystroke_p	p	n/a
470.8205	0.075	941641	keystroke_i	i	n/a
471.0305	0.105	942061	keystroke_e	e	n/a
471.2855	0.135	942571	keystroke_c	c	n/a
471.3605	0.075	942721	keystroke_e	e	n/a
471.5405	0.105	943081	keystroke_Key.enter	Key.enter	n/a
471.652	13.27	943304	prompt	n/a	glow it'd latitude oracle\n
472.801	0.045	945602	keystroke_g	g	n/a
472.861	0.09	945722	keystroke_l	l	n/a
473.041	0.09	946082	keystroke_o	o	n/a
473.146	0.12	946292	keystroke_w	w	n/a
473.251	0.09	946502	keystroke_Key.space	Key.space	n/a
473.416	0.105	946832	keystroke_i	i	n/a
473.536	0.075	947072	keystroke_t	t	n/a
473.821	0.075	947642	keystroke_;	;	n/a
474.391	0.12	948782	keystroke_Key.backspace	Key.backspace	n/a
475.081	0.075	950162	keystroke_'	'	n/a
475.201	0.09	950402	keystroke_s	s	n/a
476.1305	0.06	952261	keystroke_Key.backspace	Key.backspace	n/a
476.2205	0.09	952441	keystroke_d	d	n/a
476.5055	0.105	953011	keystroke_Key.space	Key.space	n/a
477.316	0.045	954632	keystroke_l	l	n/a
477.346	0.1045	954692	keystroke_a	a	n/a
477.5405	0.045	955081	keystroke_t	t	n/a
477.6605	0.09	955321	keystroke_t	t	n/a
477.7955	0.09	955591	keystroke_i	i	n/a
477.8555	0.09	955711	keystroke_t	t	n/a
478.1555	0.075	956311	keystroke_u	u	n/a
478.2605	0.105	956521	keystroke_d	d	n/a
478.4405	0.105	956881	keystroke_e	e	n/a
478.5605	0.09	957121	keystroke_Key.space	Key.space	n/a
478.8455	0.105	957691	keystroke_o	o	n/a
478.9355	0.105	957871	keystroke_r	r	n/a
479.176	0.105	958352	keystroke_a	a	n/a
479.686	0.09	959372	keystroke_Key.backspace	Key.backspace	n/a
479.8655	0.06	959731	keystroke_Key.backspace	Key.backspace	n/a
480.0155	0.0605	960031	keystroke_Key.backspace	Key.backspace	n/a
480.1655	0.075	960331	keystroke_Key.backspace	Key.backspace	n/a
480.3455	0.0605	960691	keystroke_Key.backspace	Key.backspace	n/a
480.4955	0.075	960991	keystroke_Key.backspace	Key.backspace	n/a
480.6605	0.075	961321	keystroke_Key.backspace	Key.backspace	n/a
480.8405	0.06	961681	keystroke_Key.backspace	Key.backspace	n/a
481.0055	0.045	962011	keystroke_Key.backspace	Key.backspace	n/a
481.2	0.06	962400	keystroke_Key.backspace	Key.backspace	n/a
482.821	0.075	965642	keystroke_i	i	n/a
482.911	0.09	965822	keystroke_t	t	n/a
483.061	0.105	966122	keystroke_u	u	n/a
483.196	0.105	966392	keystroke_d	d	n/a
483.406	0.105	966812	keystroke_e	e	n/a
483.556	0.105	967112	keystroke_Key.space	Key.space	n/a
483.811	0.09	967622	keystroke_o	o	n/a
483.916	0.075	967832	keystroke_r	r	n/a
484.111	0.09	968222	keystroke_a	a	n/a
484.2755	0.121	968551	keystroke_c	c	n/a
484.5155	0.12	969031	keystroke_l	l	n/a
484.6505	0.09	969301	keystroke_e	e	n/a
484.8455	0.075	969691	keystroke_Key.enter	Key.enter	n/a
484.933	7.084	969866	prompt	n/a	progress anchor requests cant\n
485.656	0.09	971312	keystroke_p	p	n/a
485.881	0.105	971762	keystroke_r	r	n/a
486.511	0.075	973022	keystroke_o	o	n/a
486.691	0.09	973382	keystroke_g	g	n/a
486.736	0.09	973472	keystroke_r	r	n/a
487.081	0.12	974162	keystroke_e	e	n/a
487.396	0.09	974792	keystroke_s	s	n/a
487.576	0.105	975152	keystroke_s	s	n/a
487.696	0.09	975392	keystroke_Key.space	Key.space	n/a
487.921	0.105	975842	keystroke_a	a	n/a
488.011	0.105	976022	keystroke_n	n	n/a
488.206	0.105	976412	keystroke_c	c	n/a
488.341	0.09	976682	keystroke_h	h	n/a
488.521	0.0895	977042	keystroke_o	o	n/a
488.6255	0.09	977251	keystroke_r	r	n/a
488.7605	0.105	977521	keystroke_Key.space	Key.space	n/a
489.9005	0.105	979801	keystroke_r	r	n/a
489.9305	0.105	979861	keystroke_e	e	n/a
490.1705	0.105	980341	keystroke_q	q	n/a
490.3055	0.105	980611	keystroke_u	u	n/a
490.4255	0.15	980851	keystroke_e	e	n/a
490.5005	0.105	981001	keystroke_s	s	n/a
490.7105	0.075	981421	keystroke_t	t	n/a
490.8305	0.105	981661	keystroke_s	s	n/a
491.0105	0.12	982021	keystroke_Key.space	Key.space	n/a
491.4305	0.105	982861	keystroke_c	c	n/a
491.4455	0.12	982891	keystroke_a	a	n/a
491.6255	0.105	983251	keystroke_n	n	n/a
491.7455	0.075	983491	keystroke_t	t	n/a
491.9255	0.09	983851	keystroke_Key.enter	Key.enter	n/a
492.0315	5.866	984063	prompt	n/a	batch suitable calculate night\n
492.87	0.136	985740	keystroke_b	b	n/a
492.99	0.106	985980	keystroke_a	a	n/a
493.11	0.076	986220	keystroke_t	t	n/a
493.35	0.09	986700	keystroke_c	c	n/a
493.455	0.076	986910	keystroke_h	h	n/a
493.56	0.075	987120	keystroke_Key.space	Key.space	n/a
494.2805	0.075	988561	keystroke_s	s	n/a
494.3405	0.105	988681	keystroke_u	u	n/a
494.4155	0.09	988831	keystroke_i	i	n/a
494.5505	0.075	989101	keystroke_t	t	n/a
494.7005	0.075	989401	keystroke_a	a	n/a
494.7755	0.105	989551	keystroke_b	b	n/a
494.9705	0.09	989941	keystroke_l	l	n/a
495.0755	0.075	990151	keystroke_e	e	n/a
495.1805	0.105	990361	keystroke_Key.space	Key.space	n/a
495.4505	0.12	990901	keystroke_c	c	n/a
495.5255	0.105	991051	keystroke_a	a	n/a
495.6455	0.09	991291	keystroke_l	l	n/a
495.7505	0.045	991501	keystroke_c	c	n/a
495.8855	0.075	991771	keystroke_u	u	n/a
496.0805	0.075	992161	keystroke_l	l	n/a
496.1405	0.075	992281	keystroke_a	a	n/a
496.2605	0.12	992521	keystroke_t	t	n/a
496.3655	0.09	992731	keystroke_e	e	n/a
496.4705	0.1195	992941	keystroke_Key.space	Key.space	n/a
497.2805	0.1205	994561	keystroke_n	n	n/a
497.37	0.105	994740	keystroke_i	i	n/a
497.446	0.089	994892	keystroke_g	g	n/a
497.5805	0.0745	995161	keystroke_h	h	n/a
497.656	0.059	995312	keystroke_t	t	n/a
497.82	0.0755	995640	keystroke_Key.enter	Key.enter	n/a
497.9	6.837	995800	prompt	n/a	headphones poster fish persistent\n
498.8855	0.045	997771	keystroke_h	h	n/a
498.9305	0.12	997861	keystroke_e	e	n/a
499.1705	0.1205	998341	keystroke_a	a	n/a
499.2455	0.12	998491	keystroke_d	d	n/a
499.411	0.0895	998822	keystroke_p	p	n/a
499.6505	0.105	999301	keystroke_h	h	n/a
499.8005	0.165	999601	keystroke_o	o	n/a
499.9205	0.12	999841	keystroke_n	n	n/a
500.0105	0.135	1000021	keystroke_e	e	n/a
500.0855	0.15	1000171	keystroke_s	s	n/a
500.2055	0.06	1000411	keystroke_Key.space	Key.space	n/a
500.4155	0.15	1000831	keystroke_p	p	n/a
500.5055	0.09	1001011	keystroke_o	o	n/a
500.5805	0.09	1001161	keystroke_s	s	n/a
500.7755	0.075	1001551	keystroke_t	t	n/a
500.8655	0.135	1001731	keystroke_e	e	n/a
500.9705	0.09	1001941	keystroke_r	r	n/a
501.0755	0.1345	1002151	keystroke_Key.space	Key.space	n/a
501.285	0.0755	1002570	keystroke_f	f	n/a
501.5105	0.06	1003021	keystroke_i	i	n/a
501.6605	0.12	1003321	keystroke_s	s	n/a
501.8405	0.105	1003681	keystroke_h	h	n/a
501.9755	0.105	1003951	keystroke_Key.space	Key.space	n/a
502.3205	0.09	1004641	keystroke_p	p	n/a
502.4405	0.09	1004881	keystroke_e	e	n/a
502.5005	0.105	1005001	keystroke_r	r	n/a
502.6505	0.105	1005301	keystroke_s	s	n/a
502.7855	0.105	1005571	keystroke_i	i	n/a
502.8455	0.105	1005691	keystroke_s	s	n/a
503.0255	0.0745	1006051	keystroke_t	t	n/a
503.205	0.075	1006410	keystroke_a	a	n/a
503.31	0.106	1006620	keystroke_n	n	n/a
503.4	0.09	1006800	keystroke_t	t	n/a
503.805	0.06	1007610	keystroke_Key.backspace	Key.backspace	n/a
503.925	0.045	1007850	keystroke_Key.backspace	Key.backspace	n/a
504.045	0.075	1008090	keystroke_Key.backspace	Key.backspace	n/a
504.21	0.105	1008420	keystroke_e	e	n/a
504.33	0.075	1008660	keystroke_n	n	n/a
504.42	0.06	1008840	keystroke_t	t	n/a
504.6755	0.06	1009351	keystroke_Key.enter	Key.enter	n/a
504.7505	7.2465	1009501	prompt	n/a	wifi modified valentine trance\n
505.921	0.0895	1011842	keystroke_w	w	n/a
506.0405	0.15	1012081	keystroke_i	i	n/a
506.1455	0.075	1012291	keystroke_f	f	n/a
506.2505	0.09	1012501	keystroke_i	i	n/a
506.3855	0.075	1012771	keystroke_Key.space	Key.space	n/a
506.5505	0.075	1013101	keystroke_m	m	n/a
506.7305	0.06	1013461	keystroke_i	i	n/a
506.82	0.09	1013640	keystroke_d	d	n/a
507.1505	0.075	1014301	keystroke_Key.backspace	Key.backspace	n/a
