onset	duration	sample	value	key	prompt_text
9.664	17.951	19328	prompt	n/a	the quick brown fox jumps over a lazy dog\n
18.7475	0.0735	37495	keystroke_t	t	n/a
18.8955	0.045	37791	keystroke_h	h	n/a
18.9705	0.106	37941	keystroke_e	e	n/a
19.0915	0.044	38183	keystroke_h	h	n/a
19.376	0.0745	38752	keystroke_Key.backspace	Key.backspace	n/a
19.5555	0.046	39111	keystroke_Key.backspace	Key.backspace	n/a
20.3365	0.03	40673	keystroke_e	e	n/a
20.3955	0.0755	40791	keystroke_Key.space	Key.space	n/a
20.921	0.09	41842	keystroke_q	q	n/a
21.0265	0.12	42053	keystroke_u	u	n/a
21.1165	0.09	42233	keystroke_i	i	n/a
21.222	0.0895	42444	keystroke_c	c	n/a
21.3265	0.074	42653	keystroke_k	k	n/a
21.4605	0.06	42921	keystroke_Key.space	Key.space	n/a
21.626	0.0605	43252	keystroke_b	b	n/a
21.701	0.0745	43402	keystroke_r	r	n/a
21.8055	0.091	43611	keystroke_o	o	n/a
21.926	0.0905	43852	keystroke_w	w	n/a
22.0315	0.0595	44063	keystroke_n	n	n/a
22.1965	0.059	44393	keystroke_Key.space	Key.space	n/a
22.4665	0.09	44933	keystroke_f	f	n/a
22.5865	0.0755	45173	keystroke_o	o	n/a
22.826	0.091	45652	keystroke_x	x	n/a
22.961	0.0755	45922	keystroke_Key.space	Key.space	n/a
23.741	0.0455	47482	keystroke_j	j	n/a
23.922	0.0435	47844	keystroke_u	u	n/a
24.1615	0.075	48323	keystroke_m	m	n/a
24.3715	0.0745	48743	keystroke_p	p	n/a
24.506	0.075	49012	keystroke_s	s	n/a
24.671	0.0595	49342	keystroke_Key.space	Key.space	n/a
24.8815	0.06	49763	keystroke_o	o	n/a
25.0915	0.1045	50183	keystroke_v	v	n/a
25.2415	0.105	50483	keystroke_e	e	n/a
25.317	0.0895	50634	keystroke_r	r	n/a
25.4215	0.06	50843	keystroke_Key.space	Key.space	n/a
25.5415	0.0745	51083	keystroke_a	a	n/a
25.646	0.105	51292	keystroke_Key.space	Key.space	n/a
26.2015	0.06	52403	keystroke_l	l	n/a
26.2615	0.089	52523	keystroke_a	a	n/a
26.5015	0.0745	53003	keystroke_z	z	n/a
26.6065	0.0745	53213	keystroke_y	y	n/a
26.7565	0.0745	53513	keystroke_Key.space	Key.space	n/a
27.1165	0.105	54233	keystroke_d	d	n/a
27.2515	0.0905	54503	keystroke_o	o	n/a
27.357	0.074	54714	keystroke_g	g	n/a
27.536	0.0745	55072	keystroke_Key.enter	Key.enter	n/a
27.623	8.105	55246	prompt	n/a	utah exactly prefer testing\n
28.857	0.03	57714	keystroke_u	u	n/a
28.917	0.089	57834	keystroke_t	t	n/a
29.0215	0.1045	58043	keystroke_a	a	n/a
29.141	0.0905	58282	keystroke_h	h	n/a
29.3215	0.0895	58643	keystroke_Key.space	Key.space	n/a
29.667	0.075	59334	keystroke_e	e	n/a
29.922	0.135	59844	keystroke_x	x	n/a
30.087	0.1345	60174	keystroke_a	a	n/a
30.8215	0.1205	61643	keystroke_v	v	n/a
31.4365	0.09	62873	keystroke_Key.backspace	Key.backspace	n/a
31.542	0.09	63084	keystroke_c	c	n/a
31.7365	0.135	63473	keystroke_l	l	n/a
31.8865	0.105	63773	keystroke_t	t	n/a
32.1115	0.075	64223	keystroke_Key.backspace	Key.backspace	n/a
32.261	0.075	64522	keystroke_Key.backspace	Key.backspace	n/a
32.3515	0.059	64703	keystroke_t	t	n/a
32.4715	0.105	64943	keystroke_l	l	n/a
32.607	0.0595	65214	keystroke_y	y	n/a
32.7415	0.105	65483	keystroke_Key.space	Key.space	n/a
33.1615	0.105	66323	keystroke_p	p	n/a
33.2965	0.1195	66593	keystroke_r	r	n/a
33.3705	0.0915	66741	keystroke_e	e	n/a
33.821	0.121	67642	keystroke_f	f	n/a
33.957	0.105	67914	keystroke_e	e	n/a
34.032	0.105	68064	keystroke_r	r	n/a
34.5415	0.0745	69083	keystroke_Key.space	Key.space	n/a
34.646	0.1355	69292	keystroke_t	t	n/a
34.737	0.134	69474	keystroke_e	e	n/a
34.9015	0.1345	69803	keystroke_s	s	n/a
35.0665	0.1055	70133	keystroke_t	t	n/a
35.2465	0.165	70493	keystroke_i	i	n/a
35.352	0.1195	70704	keystroke_n	n	n/a
35.4865	0.0605	70973	keystroke_g	g	n/a
35.6665	0.059	71333	keystroke_Key.enter	Key.enter	n/a
35.7325	9.026	71465	prompt	n/a	montgomery frontier keyboard trauma\n
36.701	0.105	73402	keystroke_m	m	n/a
36.972	0.0895	73944	keystroke_o	o	n/a
37.181	0.03	74362	keystroke_n	n	n/a
37.301	0.045	74602	keystroke_t	t	n/a
38.352	0.045	76704	keystroke_g	g	n/a
38.4565	0.09	76913	keystroke_o	o	n/a
38.7865	0.105	77573	keystroke_m	m	n/a
38.9365	0.0755	77873	keystroke_e	e	n/a
38.967	0.1045	77934	keystroke_r	r	n/a
39.3715	0.061	78743	keystroke_y	y	n/a
39.6415	0.075	79283	keystroke_Key.space	Key.space	n/a
40.182	0.15	80364	keystroke_f	f	n/a
40.317	0.09	80634	keystroke_r	r	n/a
40.436	0.105	80872	keystroke_o	o	n/a
40.6025	0.075	81205	keystroke_n	n	n/a
40.7375	0.0585	81475	keystroke_t	t	n/a
40.9925	0.015	81985	keystroke_i	i	n/a
41.3075	0.1195	82615	keystroke_e	e	n/a
41.397	0.1195	82794	keystroke_r	r	n/a
41.6665	0.0905	83333	keystroke_Key.space	Key.space	n/a
42.2525	0.0895	84505	keystroke_k	k	n/a
42.3575	0.0595	84715	keystroke_e	e	n/a
42.491	0.0765	84982	keystroke_y	y	n/a
42.792	0.045	85584	keystroke_b	b	n/a
42.881	0.121	85762	keystroke_o	o	n/a
42.927	0.1645	85854	keystroke_a	a	n/a
43.0615	0.09	86123	keystroke_r	r	n/a
43.2415	0.135	86483	keystroke_d	d	n/a
43.3615	0.09	86723	keystroke_Key.space	Key.space	n/a
43.6615	0.1655	87323	keystroke_t	t	n/a
43.767	0.1355	87534	keystroke_r	r	n/a
43.8425	0.1195	87685	keystroke_a	a	n/a
44.217	0.045	88434	keystroke_u	u	n/a
44.4125	0.06	88825	keystroke_m	m	n/a
44.5175	0.0735	89035	keystroke_a	a	n/a
44.666	0.09	89332	keystroke_Key.enter	Key.enter	n/a
44.765	8.0635	89530	prompt	n/a	observer i'll regime doom\n
45.6275	0.104	91255	keystroke_o	o	n/a
45.7165	0.09	91433	keystroke_v	v	n/a
46.0615	0.06	92123	keystroke_Key.backspace	Key.backspace	n/a
46.1365	0.0905	92273	keystroke_b	b	n/a
46.3625	0.15	92725	keystroke_e	e	n/a
46.7665	0.0905	93533	keystroke_Key.backspace	Key.backspace	n/a
46.902	0.18	93804	keystroke_s	s	n/a
46.9625	0.225	93925	keystroke_e	e	n/a
47.097	0.1345	94194	keystroke_r	r	n/a
47.517	0.18	95034	keystroke_v	v	n/a
47.7115	0.256	95423	keystroke_e	e	n/a
47.862	0.1505	95724	keystroke_r	r	n/a
48.207	0.105	96414	keystroke_Key.space	Key.space	n/a
48.7325	0.075	97465	keystroke_i	i	n/a
49.0315	0.1205	98063	keystroke_'	'	n/a
49.4525	0.059	98905	keystroke_l	l	n/a
49.6015	0.06	99203	keystroke_l	l	n/a
49.767	0.09	99534	keystroke_Key.space	Key.space	n/a
50.337	0.1505	100674	keystroke_r	r	n/a
50.442	0.135	100884	keystroke_e	e	n/a
50.622	0.075	101244	keystroke_g	g	n/a
50.712	0.105	101424	keystroke_i	i	n/a
50.8475	0.0445	101695	keystroke_n	n	n/a
51.1915	0.0155	102383	keystroke_Key.backspace	Key.backspace	n/a
51.4175	0.105	102835	keystroke_m	m	n/a
51.6715	0.075	103343	keystroke_e	e	n/a
51.822	0.09	103644	keystroke_Key.space	Key.space	n/a
52.137	0.06	104274	keystroke_d	d	n/a
52.1975	0.0745	104395	keystroke_o	o	n/a
52.3765	0.045	104753	keystroke_o	o	n/a
52.572	0.0605	105144	keystroke_m	m	n/a
52.7675	0.059	105535	keystroke_Key.enter	Key.enter	n/a
52.832	13.3025	105664	prompt	n/a	enemy concentrations textbooks enhanced\n
53.517	0.09	107034	keystroke_c	c	n/a
53.668	0.074	107336	keystroke_e	e	n/a
53.8315	0.075	107663	keystroke_Key.backspace	Key.backspace	n/a
54.028	0.0595	108056	keystroke_=	=	n/a
54.2225	0.075	108445	keystroke_e	e	n/a
54.4315	0.045	108863	keystroke_Key.backspace	Key.backspace	n/a
54.566	0.061	109132	keystroke_Key.backspace	Key.backspace	n/a
54.7175	0.059	109435	keystroke_Key.backspace	Key.backspace	n/a
54.8675	0.06	109735	keystroke_Key.backspace	Key.backspace	n/a
55.0475	0.059	110095	keystroke_e	e	n/a
55.1675	0.044	110335	keystroke_n	n	n/a
55.2565	0.1205	110513	keystroke_e	e	n/a
55.407	0.045	110814	keystroke_m	m	n/a
55.6325	0.09	111265	keystroke_y	y	n/a
55.7665	0.105	111533	keystroke_Key.space	Key.space	n/a
56.247	0.09	112494	keystroke_c	c	n/a
56.517	0.0755	113034	keystroke_o	o	n/a
56.712	0.075	113424	keystroke_n	n	n/a
56.998	0.1345	113996	keystroke_c	c	n/a
57.117	0.1205	114234	keystroke_e	e	n/a
57.282	0.0605	114564	keystroke_n	n	n/a
57.417	0.0755	114834	keystroke_t	t	n/a
57.627	0.105	115254	keystroke_r	r	n/a
57.8075	0.1795	115615	keystroke_a	a	n/a
58.152	0.09	116304	keystroke_t	t	n/a
58.287	0.195	116574	keystroke_i	i	n/a
58.467	0.12	116934	keystroke_o	o	n/a
58.5575	0.1045	117115	keystroke_n	n	n/a
58.7225	0.06	117445	keystroke_s	s	n/a
58.858	0.105	117716	keystroke_Key.space	Key.space	n/a
59.247	0.135	118494	keystroke_t	t	n/a
59.351	0.076	118702	keystroke_e	e	n/a
59.622	0.0745	119244	keystroke_x	x	n/a
59.832	0.06	119664	keystroke_t	t	n/a
60.012	0.075	120024	keystroke_b	b	n/a
60.102	0.045	120204	keystroke_o	o	n/a
60.222	0.075	120444	keystroke_o	o	n/a
61.317	0.12	122634	keystroke_k	k	n/a
61.452	0.09	122904	keystroke_s	s	n/a
61.856	0.075	123712	keystroke_Key.space	Key.space	n/a
62.1865	0.0605	124373	keystroke_e	e	n/a
62.3215	0.0605	124643	keystroke_n	n	n/a
62.817	0.09	125634	keystroke_c	c	n/a
63.237	0.075	126474	keystroke_Key.backspace	Key.backspace	n/a
63.402	0.0745	126804	keystroke_Key.backspace	Key.backspace	n/a
64.137	0.045	128274	keystroke_n	n	n/a
64.302	0.0595	128604	keystroke_c	c	n/a
64.6165	0.0905	129233	keystroke_Key.backspace	Key.backspace	n/a
64.842	0.075	129684	keystroke_h	h	n/a
64.947	0.165	129894	keystroke_a	a	n/a
65.322	0.09	130644	keystroke_n	n	n/a
65.4425	0.1495	130885	keystroke_c	c	n/a
65.533	0.119	131066	keystroke_e	e	n/a
65.787	0.075	131574	keystroke_d	d	n/a
66.042	0.09	132084	keystroke_Key.enter	Key.enter	n/a
66.1395	8.8	132279	prompt	n/a	eyes silence sagem bumper\n
66.882	0.1055	133764	keystroke_e	e	n/a
67.167	0.075	134334	keystroke_y	y	n/a
67.257	0.121	134514	keystroke_e	e	n/a
67.3175	0.12	134635	keystroke_s	s	n/a
67.4665	0.0905	134933	keystroke_Key.space	Key.space	n/a
67.6775	0.1045	135355	keystroke_s	s	n/a
68.0215	0.076	136043	keystroke_i	i	n/a
68.1725	0.104	136345	keystroke_l	l	n/a
68.3075	0.089	136615	keystroke_e	e	n/a
68.457	0.0605	136914	keystroke_n	n	n/a
68.6075	0.119	137215	keystroke_c	c	n/a
68.6965	0.106	137393	keystroke_e	e	n/a
68.832	0.0895	137664	keystroke_Key.space	Key.space	n/a
69.252	0.0745	138504	keystroke_a	a	n/a
69.582	0.075	139164	keystroke_Key.backspace	Key.backspace	n/a
69.672	0.15	139344	keystroke_s	s	n/a
69.777	0.105	139554	keystroke_a	a	n/a
70.152	0.105	140304	keystroke_g	g	n/a
70.272	0.06	140544	keystroke_u	u	n/a
70.422	0.03	140844	keystroke_e	e	n/a
70.497	0.1055	140994	keystroke_m	m	n/a
70.737	0.06	141474	keystroke_Key.space	Key.space	n/a
71.127	0.075	142254	keystroke_Key.backspace	Key.backspace	n/a
71.261	0.0905	142522	keystroke_Key.backspace	Key.backspace	n/a
71.411	0.105	142822	keystroke_Key.backspace	Key.backspace	n/a
71.771	0.091	143542	keystroke_Key.backspace	Key.backspace	n/a
71.937	0.06	143874	keystroke_e	e	n/a
72.117	0.075	144234	keystroke_m	m	n/a
72.6715	0.076	145343	keystroke_Key.space	Key.space	n/a
72.9425	0.0445	145885	keystroke_b	b	n/a
73.122	0.09	146244	keystroke_u	u	n/a
73.3925	0.045	146785	keystroke_m	m	n/a
74.097	0.21	148194	keystroke_p	p	n/a
74.322	0.045	148644	keystroke_e	e	n/a
74.337	0.1045	148674	keystroke_r	r	n/a
74.862	0.075	149724	keystroke_Key.enter	Key.enter	n/a
74.9445	7.044	149889	prompt	n/a	prepared citations main slip\n
76.3165	0.166	152633	keystroke_p	p	n/a
76.5415	0.165	153083	keystroke_r	r	n/a
76.6625	0.09	153325	keystroke_e	e	n/a
77.1125	0.105	154225	keystroke_p	p	n/a
77.2615	0.136	154523	keystroke_a	a	n/a
77.3675	0.1945	154735	keystroke_r	r	n/a
77.517	0.105	155034	keystroke_e	e	n/a
77.7415	0.061	155483	keystroke_d	d	n/a
77.952	0.0595	155904	keystroke_Key.space	Key.space	n/a
78.7165	0.0905	157433	keystroke_c	c	n/a
79.032	0.075	158064	keystroke_i	i	n/a
79.1225	0.135	158245	keystroke_t	t	n/a
79.287	0.12	158574	keystroke_a	a	n/a
79.362	0.12	158724	keystroke_t	t	n/a
79.4975	0.255	158995	keystroke_i	i	n/a
79.617	0.151	159234	keystroke_o	o	n/a
79.768	0.104	159536	keystroke_n	n	n/a
79.902	0.0605	159804	keystroke_s	s	n/a
80.052	0.09	160104	keystroke_Key.space	Key.space	n/a
80.293	0.089	160586	keystroke_m	m	n/a
80.457	0.075	160914	keystroke_a	a	n/a
80.547	0.061	161094	keystroke_i	i	n/a
80.7125	0.06	161425	keystroke_n	n	n/a
80.877	0.075	161754	keystroke_Key.space	Key.space	n/a
81.012	0.09	162024	keystroke_s	s	n/a
81.117	0.06	162234	keystroke_l	l	n/a
81.4025	0.075	162805	keystroke_i	i	n/a
81.6115	0.091	163223	keystroke_p	p	n/a
81.747	0.0755	163494	keystroke_s	s	n/a
81.9265	0.06	163853	keystroke_Key.enter	Key.enter	n/a
81.996	11.0175	163992	prompt	n/a	breed wichita adaptor abuse\n
82.872	0.046	165744	keystroke_b	b	n/a
82.9475	0.1195	165895	keystroke_r	r	n/a
83.0525	0.1045	166105	keystroke_e	e	n/a
83.233	0.0745	166466	keystroke_e	e	n/a
83.427	0.075	166854	keystroke_d	d	n/a
83.517	0.1045	167034	keystroke_Key.space	Key.space	n/a
83.9075	0.104	167815	keystroke_w	w	n/a
84.0865	0.076	168173	keystroke_i	i	n/a
85.287	0.1355	170574	keystroke_v	v	n/a
85.4675	0.0895	170935	keystroke_h	h	n/a
85.662	0.0905	171324	keystroke_i	i	n/a
85.797	0.045	171594	keystroke_t	t	n/a
86.097	0.03	172194	keystroke_Key.backspace	Key.backspace	n/a
86.217	0.09	172434	keystroke_Key.backspace	Key.backspace	n/a
86.367	0.075	172734	keystroke_Key.backspace	Key.backspace	n/a
86.547	0.075	173094	keystroke_Key.backspace	Key.backspace	n/a
87.0415	0.105	174083	keystroke_c	c	n/a
87.1765	0.0905	174353	keystroke_h	h	n/a
87.297	0.1045	174594	keystroke_i	i	n/a
87.447	0.06	174894	keystroke_t	t	n/a
87.7475	0.0745	175495	keystroke_a	a	n/a
87.9565	0.1065	175913	keystroke_Key.space	Key.space	n/a
88.3475	0.0745	176695	keystroke_a	a	n/a
88.5725	0.12	177145	keystroke_d	d	n/a
88.7075	0.09	177415	keystroke_a	a	n/a
88.9615	0.0755	177923	keystroke_p	p	n/a
89.098	0.075	178196	keystroke_r	r	n/a
89.5165	0.076	179033	keystroke_t	t	n/a
89.637	0.0905	179274	keystroke_o	o	n/a
89.772	0.0595	179544	keystroke_r	r	n/a
90.1465	0.061	180293	keystroke_Key.backspace	Key.backspace	n/a
90.2975	0.0745	180595	keystroke_Key.backspace	Key.backspace	n/a
90.447	0.075	180894	keystroke_Key.backspace	Key.backspace	n/a
90.612	0.09	181224	keystroke_Key.backspace	Key.backspace	n/a
90.9125	0.0595	181825	keystroke_t	t	n/a
91.3325	0.1045	182665	keystroke_o	o	n/a
91.4815	0.0455	182963	keystroke_r	r	n/a
91.6915	0.135	183383	keystroke_Key.space	Key.space	n/a
92.217	0.075	184434	keystroke_a	a	n/a
92.502	0.0755	185004	keystroke_b	b	n/a
92.6525	0.044	185305	keystroke_u	u	n/a
92.7275	0.149	185455	keystroke_s	s	n/a
92.817	0.12	185634	keystroke_e	e	n/a
92.9515	0.06	185903	keystroke_Key.enter	Key.enter	n/a
93.018	5.4855	186036	prompt	n/a	webster fall began stood\n
93.762	0.195	187524	keystroke_w	w	n/a
93.8675	0.1335	187735	keystroke_e	e	n/a
94.077	0.044	188154	keystroke_b	b	n/a
94.152	0.1645	188304	keystroke_s	s	n/a
94.318	0.134	188636	keystroke_t	t	n/a
94.437	0.165	188874	keystroke_e	e	n/a
94.5425	0.09	189085	keystroke_r	r	n/a
94.767	0.09	189534	keystroke_Key.space	Key.space	n/a
95.187	0.09	190374	keystroke_g	g	n/a
95.471	0.091	190942	keystroke_Key.backspace	Key.backspace	n/a
95.5775	0.104	191155	keystroke_f	f	n/a
95.697	0.09	191394	keystroke_a	a	n/a
95.966	0.0765	191932	keystroke_l	l	n/a
96.1475	0.045	192295	keystroke_l	l	n/a
96.327	0.075	192654	keystroke_Key.space	Key.space	n/a
96.702	0.06	193404	keystroke_b	b	n/a
96.777	0.12	193554	keystroke_e	e	n/a
96.912	0.1505	193824	keystroke_g	g	n/a
97.047	0.09	194094	keystroke_a	a	n/a
97.197	0.0605	194394	keystroke_n	n	n/a
97.332	0.059	194664	keystroke_Key.space	Key.space	n/a
97.572	0.09	195144	keystroke_s	s	n/a
97.797	0.061	195594	keystroke_t	t	n/a
97.977	0.075	195954	keystroke_o	o	n/a
98.157	0.059	196314	keystroke_o	o	n/a
98.292	0.045	196584	keystroke_d	d	n/a
98.397	0.105	196794	keystroke_Key.enter	Key.enter	n/a
98.512	10.4615	197024	prompt	n/a	generated vegetarian centers enormous\n
99.2975	0.12	198595	keystroke_g	g	n/a
99.4325	0.0895	198865	keystroke_e	e	n/a
99.5665	0.076	199133	keystroke_n	n	n/a
99.716	0.136	199432	keystroke_e	e	n/a
99.8675	0.105	199735	keystroke_r	r	n/a
100.0025	0.195	200005	keystroke_a	a	n/a
100.1075	0.135	200215	keystroke_t	t	n/a
100.2125	0.119	200425	keystroke_e	e	n/a
100.4065	0.09	200813	keystroke_d	d	n/a
100.5415	0.075	201083	keystroke_Key.space	Key.space	n/a
100.8275	0.075	201655	keystroke_b	b	n/a
101.1575	0.09	202315	keystroke_Key.backspace	Key.backspace	n/a
101.2775	0.0895	202555	keystroke_v	v	n/a
101.457	0.12	202914	keystroke_e	e	n/a
101.562	0.1055	203124	keystroke_r	r	n/a
101.8925	0.0445	203785	keystroke_Key.backspace	Key.backspace	n/a
101.997	0.0905	203994	keystroke_g	g	n/a
102.1475	0.1195	204295	keystroke_e	e	n/a
102.822	0.12	205644	keystroke_t	t	n/a
102.9725	0.1795	205945	keystroke_a	a	n/a
103.092	0.1055	206184	keystroke_r	r	n/a
103.4365	0.061	206873	keystroke_i	i	n/a
103.542	0.0605	207084	keystroke_a	a	n/a
103.691	0.076	207382	keystroke_n	n	n/a
104.0365	0.1055	208073	keystroke_Key.space	Key.space	n/a
105.162	0.1355	210324	keystroke_c	c	n/a
105.2815	0.1055	210563	keystroke_e	e	n/a
105.372	0.06	210744	keystroke_n	n	n/a
105.4475	0.135	210895	keystroke_t	t	n/a
105.612	0.12	211224	keystroke_e	e	n/a
105.702	0.1495	211404	keystroke_r	r	n/a
105.8675	0.06	211735	keystroke_s	s	n/a
105.9715	0.105	211943	keystroke_Key.space	Key.space	n/a
106.1665	0.075	212333	keystroke_e	e	n/a
106.302	0.075	212604	keystroke_n	n	n/a
106.7215	0.09	213443	keystroke_o	o	n/a
107.877	0.06	215754	keystroke_r	r	n/a
108.192	0.06	216384	keystroke_m	m	n/a
108.447	0.1345	216894	keystroke_o	o	n/a
108.597	0.045	217194	keystroke_u	u	n/a
108.7015	0.076	217403	keystroke_s	s	n/a
108.912	0.0595	217824	keystroke_Key.enter	Key.enter	n/a
108.987	6.5265	217974	prompt	n/a	laos opposed tunisia origins\n
110.2915	0.09	220583	keystroke_l	l	n/a
110.4115	0.135	220823	keystroke_a	a	n/a
110.5165	0.0905	221033	keystroke_o	o	n/a
110.6825	0.09	221365	keystroke_s	s	n/a
110.8315	0.09	221663	keystroke_Key.space	Key.space	n/a
111.177	0.09	222354	keystroke_o	o	n/a
111.357	0.06	222714	keystroke_p	p	n/a
111.522	0.075	223044	keystroke_p	p	n/a
111.717	0.0595	223434	keystroke_o	o	n/a
111.8065	0.135	223613	keystroke_s	s	n/a
111.897	0.1055	223794	keystroke_e	e	n/a
112.1075	0.0745	224215	keystroke_d	d	n/a
112.227	0.105	224454	keystroke_Key.space	Key.space	n/a
112.452	0.1045	224904	keystroke_t	t	n/a
112.5725	0.1195	225145	keystroke_u	u	n/a
112.8415	0.09	225683	keystroke_n	n	n/a
113.007	0.105	226014	keystroke_i	i	n/a
113.322	0.0745	226644	keystroke_s	s	n/a
113.412	0.0755	226824	keystroke_i	i	n/a
113.5465	0.106	227093	keystroke_a	a	n/a
113.7415	0.0605	227483	keystroke_Key.space	Key.space	n/a
114.3865	0.0455	228773	keystroke_o	o	n/a
114.4615	0.091	228923	keystroke_r	r	n/a
114.6125	0.074	229225	keystroke_i	i	n/a
114.8065	0.0905	229613	keystroke_g	g	n/a
114.9115	0.091	229823	keystroke_i	i	n/a
115.0315	0.105	230063	keystroke_n	n	n/a
115.1975	0.0895	230395	keystroke_s	s	n/a
115.4065	0.1055	230813	keystroke_Key.enter	Key.enter	n/a
115.5185	4.5695	231037	prompt	n/a	bill want gross sudden\n
116.5925	0.0745	233185	keystroke_b	b	n/a
116.712	0.09	233424	keystroke_i	i	n/a
116.922	0.0605	233844	keystroke_l	l	n/a
117.0575	0.06	234115	keystroke_l	l	n/a
117.2075	0.0445	234415	keystroke_Key.space	Key.space	n/a
117.312	0.1045	234624	keystroke_w	w	n/a
117.3865	0.09	234773	keystroke_a	a	n/a
117.612	0.0595	235224	keystroke_n	n	n/a
117.7475	0.12	235495	keystroke_t	t	n/a
117.8815	0.06	235763	keystroke_Key.space	Key.space	n/a
118.1525	0.135	236305	keystroke_g	g	n/a
118.2575	0.0895	236515	keystroke_r	r	n/a
118.392	0.06	236784	keystroke_o	o	n/a
118.5275	0.0745	237055	keystroke_s	s	n/a
118.677	0.0905	237354	keystroke_s	s	n/a
118.827	0.089	237654	keystroke_Key.space	Key.space	n/a
119.0375	0.075	238075	keystroke_s	s	n/a
119.2475	0.075	238495	keystroke_u	u	n/a
119.382	0.06	238764	keystroke_d	d	n/a
119.517	0.075	239034	keystroke_d	d	n/a
119.7275	0.06	239455	keystroke_e	e	n/a
119.8165	0.0605	239633	keystroke_n	n	n/a
120.0115	0.075	240023	keystroke_Key.enter	Key.enter	n/a
120.094	8.485	240188	prompt	n/a	benefits lesbian remove afternoon\n
121.1065	0.046	242213	keystroke_b	b	n/a
121.1675	0.075	242335	keystroke_e	e	n/a
121.3025	0.0745	242605	keystroke_n	n	n/a
121.362	0.0605	242724	keystroke_e	e	n/a
121.7225	0.059	243445	keystroke_f	f	n/a
121.7965	0.06	243593	keystroke_i	i	n/a
121.9165	0.0755	243833	keystroke_t	t	n/a
122.007	0.0905	244014	keystroke_s	s	n/a
122.4565	0.06	244913	keystroke_Key.space	Key.space	n/a
122.7275	0.074	245455	keystroke_l	l	n/a
122.817	0.0455	245634	keystroke_e	e	n/a
123.1775	0.0745	246355	keystroke_s	s	n/a
123.387	0.0455	246774	keystroke_b	b	n/a
123.492	0.045	246984	keystroke_i	i	n/a
123.597	0.076	247194	keystroke_a	a	n/a
123.688	0.059	247376	keystroke_n	n	n/a
123.8075	0.0745	247615	keystroke_s	s	n/a
124.362	0.074	248724	keystroke_Key.backspace	Key.backspace	n/a
124.617	0.0895	249234	keystroke_Key.space	Key.space	n/a
125.083	0.1195	250166	keystroke_r	r	n/a
125.1725	0.1045	250345	keystroke_e	e	n/a
125.292	0.074	250584	keystroke_m	m	n/a
125.472	0.074	250944	keystroke_o	o	n/a
125.652	0.1355	251304	keystroke_v	v	n/a
125.7725	0.12	251545	keystroke_e	e	n/a
125.8765	0.1355	251753	keystroke_Key.space	Key.space	n/a
126.357	0.105	252714	keystroke_a	a	n/a
126.552	0.0155	253104	keystroke_r	r	n/a
126.851	0.075	253702	keystroke_Key.backspace	Key.backspace	n/a
126.972	0.0155	253944	keystroke_f	f	n/a
127.107	0.089	254214	keystroke_t	t	n/a
127.197	0.15	254394	keystroke_e	e	n/a
127.287	0.089	254574	keystroke_r	r	n/a
127.4665	0.0605	254933	keystroke_n	n	n/a
127.811	0.0765	255622	keystroke_o	o	n/a
127.977	0.1195	255954	keystroke_o	o	n/a
128.082	0.105	256164	keystroke_n	n	n/a
128.487	0.0895	256974	keystroke_Key.enter	Key.enter	n/a
128.595	7.018	257190	prompt	n/a	clan architect alarm that'd\n
129.7615	0.105	259523	keystroke_c	c	n/a
129.8515	0.1205	259703	keystroke_l	l	n/a
129.942	0.1045	259884	keystroke_a	a	n/a
130.0765	0.09	260153	keystroke_n	n	n/a
130.2715	0.09	260543	keystroke_Key.space	Key.space	n/a
130.4665	0.135	260933	keystroke_a	a	n/a
130.6465	0.09	261293	keystroke_r	r	n/a
130.992	0.075	261984	keystroke_c	c	n/a
131.082	0.105	262164	keystroke_h	h	n/a
131.2315	0.076	262463	keystroke_i	i	n/a
131.3515	0.105	262703	keystroke_t	t	n/a
131.5315	0.1045	263063	keystroke_e	e	n/a
131.7275	0.104	263455	keystroke_c	c	n/a
131.967	0.075	263934	keystroke_t	t	n/a
132.0865	0.0895	264173	keystroke_Key.space	Key.space	n/a
132.222	0.0605	264444	keystroke_a	a	n/a
132.327	0.045	264654	keystroke_l	l	n/a
132.462	0.1495	264924	keystroke_a	a	n/a
132.626	0.1215	265252	keystroke_r	r	n/a
133.212	0.06	266424	keystroke_m	m	n/a
133.422	0.075	266844	keystroke_Key.space	Key.space	n/a
133.662	0.075	267324	keystroke_t	t	n/a
133.752	0.09	267504	keystroke_h	h	n/a
133.827	0.12	267654	keystroke_a	a	n/a
133.902	0.105	267804	keystroke_t	t	n/a
134.157	0.075	268314	keystroke_;	;	n/a
134.337	0.0895	268674	keystroke_d	d	n/a
134.6065	0.0605	269213	keystroke_Key.backspace	Key.backspace	n/a
134.772	0.06	269544	keystroke_Key.backspace	Key.backspace	n/a
135.087	0.075	270174	keystroke_'	'	n/a
135.2825	0.0745	270565	keystroke_d	d	n/a
135.537	0.074	271074	keystroke_Key.enter	Key.enter	n/a
135.62	4.8985	271240	prompt	n/a	grant kate celtic twist\n
136.587	0.12	273174	keystroke_g	g	n/a
136.677	0.105	273354	keystroke_r	r	n/a
136.7515	0.1205	273503	keystroke_a	a	n/a
136.857	0.0595	273714	keystroke_n	n	n/a
136.932	0.1045	273864	keystroke_t	t	n/a
137.0515	0.0905	274103	keystroke_Key.space	Key.space	n/a
137.277	0.0895	274554	keystroke_k	k	n/a
137.3815	0.15	274763	keystroke_a	a	n/a
137.5465	0.0605	275093	keystroke_y	y	n/a
137.681	0.0905	275362	keystroke_Key.space	Key.space	n/a
137.936	0.1355	275872	keystroke_c	c	n/a
138.041	0.106	276082	keystroke_e	e	n/a
138.117	0.074	276234	keystroke_l	l	n/a
138.297	0.075	276594	keystroke_t	t	n/a
138.4615	0.06	276923	keystroke_i	i	n/a
138.6565	0.0755	277313	keystroke_c	c	n/a
138.7915	0.09	277583	keystroke_Key.space	Key.space	n/a
139.2115	0.1505	278423	keystroke_t	t	n/a
139.347	0.105	278694	keystroke_w	w	n/a
139.467	0.0895	278934	keystroke_i	i	n/a
139.5715	0.076	279143	keystroke_t	t	n/a
139.7375	0.105	279475	keystroke_s	s	n/a
139.9615	0.06	279923	keystroke_Key.backspace	Key.backspace	n/a
140.1115	0.075	280223	keystroke_Key.backspace	Key.backspace	n/a
140.1885	0.118	280377	keystroke_s	s	n/a
140.262	0.0905	280524	keystroke_t	t	n/a
140.4415	0.075	280883	keystroke_Key.enter	Key.enter	n/a
140.5225	7.9915	281045	prompt	n/a	proof offices endangered viewers\n
141.5675	0.105	283135	keystroke_p	p	n/a
141.7175	0.12	283435	keystroke_r	r	n/a
141.956	0.046	283912	keystroke_o	o	n/a
142.0765	0.0745	284153	keystroke_o	o	n/a
142.211	0.076	284422	keystroke_f	f	n/a
142.3915	0.0745	284783	keystroke_Key.space	Key.space	n/a
142.5715	0.0905	285143	keystroke_o	o	n/a
142.7365	0.15	285473	keystroke_f	f	n/a
143.0075	0.0595	286015	keystroke_f	f	n/a
143.112	0.075	286224	keystroke_i	i	n/a
143.217	0.1645	286434	keystroke_c	c	n/a
143.3375	0.119	286675	keystroke_e	e	n/a
143.4415	0.105	286883	keystroke_s	s	n/a
143.6065	0.105	287213	keystroke_Key.space	Key.space	n/a
144.5065	0.06	289013	keystroke_e	e	n/a
144.6265	0.075	289253	keystroke_n	n	n/a
144.7465	0.061	289493	keystroke_d	d	n/a
144.9875	0.104	289975	keystroke_a	a	n/a
145.1965	0.076	290393	keystroke_n	n	n/a
145.662	0.0755	291324	keystroke_g	g	n/a
145.8115	0.1355	291623	keystroke_e	e	n/a
145.872	0.1345	291744	keystroke_r	r	n/a
146.1125	0.074	292225	keystroke_e	e	n/a
146.2925	0.0745	292585	keystroke_d	d	n/a
146.397	0.12	292794	keystroke_Key.space	Key.space	n/a
146.832	0.09	293664	keystroke_v	v	n/a
146.967	0.06	293934	keystroke_i	i	n/a
147.0725	0.1495	294145	keystroke_e	e	n/a
147.207	0.135	294414	keystroke_w	w	n/a
147.8365	0.195	295673	keystroke_e	e	n/a
148.151	0.121	296302	keystroke_r	r	n/a
148.286	0.076	296572	keystroke_s	s	n/a
148.3765	0.135	296753	keystroke_Key.enter	Key.enter	n/a
148.528	14.4305	297056	prompt	n/a	cornell visibility groups offering\n
149.262	0.045	298524	keystroke_c	c	n/a
149.3375	0.0895	298675	keystroke_o	o	n/a
149.457	0.06	298914	keystroke_r	r	n/a
149.562	0.075	299124	keystroke_n	n	n/a
149.6665	0.075	299333	keystroke_e	e	n/a
149.846	0.046	299692	keystroke_;	;	n/a
150.327	0.06	300654	keystroke_Key.backspace	Key.backspace	n/a
150.762	0.0605	301524	keystroke_e	e	n/a
151.227	0.059	302454	keystroke_Key.backspace	Key.backspace	n/a
151.542	0.045	303084	keystroke_;	;	n/a
151.767	0.09	303534	keystroke_;	;	n/a
152.0965	0.0305	304193	keystroke_Key.backspace	Key.backspace	n/a
152.2165	0.061	304433	keystroke_Key.backspace	Key.backspace	n/a
152.6065	0.03	305213	keystroke_l	l	n/a
152.787	0.074	305574	keystroke_k	k	n/a
153.7465	0.015	307493	keystroke_Key.backspace	Key.backspace	n/a
154.302	0.0445	308604	keystroke_l	l	n/a
155.097	0.09	310194	keystroke_Key.space	Key.space	n/a
155.427	0.075	310854	keystroke_v	v	n/a
155.5465	0.075	311093	keystroke_i	i	n/a
155.7865	0.0905	311573	keystroke_s	s	n/a
155.892	0.075	311784	keystroke_i	i	n/a
156.402	0.0745	312804	keystroke_b	b	n/a
156.5225	0.0745	313045	keystroke_i	i	n/a
156.6565	0.136	313313	keystroke_l	l	n/a
156.8365	0.105	313673	keystroke_i	i	n/a
156.9715	0.105	313943	keystroke_t	t	n/a
157.1365	0.09	314273	keystroke_y	y	n/a
157.3165	0.09	314633	keystroke_Key.space	Key.space	n/a
157.8565	0.105	315713	keystroke_f	f	n/a
158.2615	0.06	316523	keystroke_Key.backspace	Key.backspace	n/a
158.4115	0.135	316823	keystroke_g	g	n/a
158.5015	0.105	317003	keystroke_r	r	n/a
158.682	0.1195	317364	keystroke_o	o	n/a
158.952	0.0595	317904	keystroke_i	i	n/a
159.6405	0.121	319281	keystroke_Key.backspace	Key.backspace	n/a
160.077	0.1045	320154	keystroke_u	u	n/a
160.2115	0.105	320423	keystroke_p	p	n/a
160.5415	0.045	321083	keystroke_s	s	n/a
160.9765	0.105	321953	keystroke_Key.space	Key.space	n/a
161.487	0.0605	322974	keystroke_o	o	n/a
161.577	0.075	323154	keystroke_f	f	n/a
161.8465	0.09	323693	keystroke_f	f	n/a
162.0715	0.1055	324143	keystroke_e	e	n/a
162.1315	0.12	324263	keystroke_r	r	n/a
162.2815	0.135	324563	keystroke_i	i	n/a
162.387	0.104	324774	keystroke_n	n	n/a
162.521	0.075	325042	keystroke_g	g	n/a
162.8815	0.075	325763	keystroke_Key.enter	Key.enter	n/a
162.967	6.2615	325934	prompt	n/a	clothes ports sensors pushed\n
163.571	0.105	327142	keystroke_c	c	n/a
163.7225	0.1045	327445	keystroke_l	l	n/a
163.9465	0.09	327893	keystroke_o	o	n/a
164.0515	0.075	328103	keystroke_t	t	n/a
164.1415	0.06	328283	keystroke_h	h	n/a
164.2465	0.1645	328493	keystroke_e	e	n/a
164.547	0.134	329094	keystroke_s	s	n/a
164.7115	0.135	329423	keystroke_Key.space	Key.space	n/a
165.0565	0.1355	330113	keystroke_p	p	n/a
165.3265	0.1345	330653	keystroke_o	o	n/a
165.5065	0.0605	331013	keystroke_r	r	n/a
165.687	0.0905	331374	keystroke_t	t	n/a
166.361	0.076	332722	keystroke_s	s	n/a
166.5715	0.1345	333143	keystroke_Key.space	Key.space	n/a
166.782	0.149	333564	keystroke_s	s	n/a
166.901	0.09	333802	keystroke_e	e	n/a
166.976	0.09	333952	keystroke_n	n	n/a
167.1415	0.1045	334283	keystroke_s	s	n/a
167.321	0.0605	334642	keystroke_o	o	n/a
167.4115	0.135	334823	keystroke_r	r	n/a
167.562	0.149	335124	keystroke_s	s	n/a
167.726	0.075	335452	keystroke_Key.space	Key.space	n/a
168.1465	0.1355	336293	keystroke_p	p	n/a
168.431	0.045	336862	keystroke_u	u	n/a
168.522	0.075	337044	keystroke_s	s	n/a
168.642	0.045	337284	keystroke_h	h	n/a
168.762	0.074	337524	keystroke_e	e	n/a
168.942	0.06	337884	keystroke_d	d	n/a
169.136	0.09	338272	keystroke_Key.enter	Key.enter	n/a
169.2345	7.284	338469	prompt	n/a	monitor router incorrect spider\n
170.0965	0.0605	340193	keystroke_m	m	n/a
170.3515	0.0905	340703	keystroke_o	o	n/a
170.607	0.0745	341214	keystroke_n	n	n/a
170.787	0.0445	341574	keystroke_i	i	n/a
170.922	0.09	341844	keystroke_t	t	n/a
171.027	0.0745	342054	keystroke_o	o	n/a
171.296	0.0605	342592	keystroke_r	r	n/a
171.4465	0.0595	342893	keystroke_Key.space	Key.space	n/a
171.971	0.061	343942	keystroke_r	r	n/a
172.196	0.12	344392	keystroke_o	o	n/a
172.3315	0.06	344663	keystroke_u	u	n/a
172.526	0.106	345052	keystroke_t	t	n/a
172.647	0.195	345294	keystroke_e	e	n/a
172.782	0.09	345564	keystroke_r	r	n/a
172.961	0.075	345922	keystroke_Key.space	Key.space	n/a
173.247	0.09	346494	keystroke_i	i	n/a
173.382	0.0885	346764	keystroke_n	n	n/a
173.5465	0.0905	347093	keystroke_c	c	n/a
173.6515	0.0605	347303	keystroke_o	o	n/a
174.1765	0.06	348353	keystroke_r	r	n/a
174.3265	0.1045	348653	keystroke_r	r	n/a
174.4615	0.12	348923	keystroke_e	e	n/a
174.656	0.1205	349312	keystroke_c	c	n/a
174.8965	0.0905	349793	keystroke_t	t	n/a
175.001	0.1205	350002	keystroke_Key.space	Key.space	n/a
175.2715	0.0745	350543	keystroke_s	s	n/a
175.3615	0.0745	350723	keystroke_p	p	n/a
175.6155	0.061	351231	keystroke_i	i	n/a
175.6605	0.076	351321	keystroke_d	d	n/a
176.171	0.166	352342	keystroke_e	e	n/a
176.3065	0.1205	352613	keystroke_r	r	n/a
176.411	0.105	352822	keystroke_Key.enter	Key.enter	n/a
176.523	11.9205	353046	prompt	n/a	cents ukraine jump hopes\n
177.446	0.15	354892	keystroke_c	c	n/a
177.5515	0.1505	355103	keystroke_e	e	n/a
177.7165	0.075	355433	keystroke_n	n	n/a
177.806	0.1205	355612	keystroke_t	t	n/a
177.9115	0.1045	355823	keystroke_s	s	n/a
178.061	0.12	356122	keystroke_Key.space	Key.space	n/a
178.707	0.045	357414	keystroke_i	i	n/a
178.886	0.061	357772	keystroke_k	k	n/a
179.021	0.105	358042	keystroke_r	r	n/a
179.1565	0.1195	358313	keystroke_a	a	n/a
179.261	0.135	358522	keystroke_i	i	n/a
179.366	0.075	358732	keystroke_n	n	n/a
179.546	0.0755	359092	keystroke_e	e	n/a
179.6665	0.09	359333	keystroke_Key.space	Key.space	n/a
180.3715	0.0455	360743	keystroke_j	j	n/a
180.5065	0.0595	361013	keystroke_u	u	n/a
180.7315	0.12	361463	keystroke_m	m	n/a
180.9115	0.105	361823	keystroke_p	p	n/a
181.0615	0.045	362123	keystroke_s	s	n/a
181.4365	0.075	362873	keystroke_Key.backspace	Key.backspace	n/a
181.6465	0.03	363293	keystroke_Key.backspace	Key.backspace	n/a
181.7815	0.06	363563	keystroke_Key.backspace	Key.backspace	n/a
181.9315	0.03	363863	keystroke_Key.backspace	Key.backspace	n/a
182.051	0.0605	364102	keystroke_Key.backspace	Key.backspace	n/a
182.2015	0.044	364403	keystroke_Key.backspace	Key.backspace	n/a
182.3215	0.044	364643	keystroke_Key.backspace	Key.backspace	n/a
182.4405	0.0765	364881	keystroke_Key.backspace	Key.backspace	n/a
182.5915	0.074	365183	keystroke_Key.backspace	Key.backspace	n/a
182.726	0.06	365452	keystroke_Key.backspace	Key.backspace	n/a
182.8615	0.074	365723	keystroke_Key.backspace	Key.backspace	n/a
183.0265	0.0595	366053	keystroke_Key.backspace	Key.backspace	n/a
183.2215	0.045	366443	keystroke_Key.backspace	Key.backspace	n/a
183.821	0.045	367642	keystroke_u	u	n/a
184.3155	0.0605	368631	keystroke_k	k	n/a
184.571	0.1505	369142	keystroke_r	r	n/a
184.7215	0.075	369443	keystroke_a	a	n/a
184.7815	0.255	369563	keystroke_i	i	n/a
184.9015	0.18	369803	keystroke_n	n	n/a
185.0965	0.015	370193	keystroke_e	e	n/a
185.276	0.0905	370552	keystroke_Key.space	Key.space	n/a
186.041	0.0455	372082	keystroke_j	j	n/a
186.1765	0.075	372353	keystroke_u	u	n/a
186.3855	0.061	372771	keystroke_m	m	n/a
186.5365	0.1045	373073	keystroke_p	p	n/a
186.7605	0.061	373521	keystroke_Key.space	Key.space	n/a
187.4365	0.09	374873	keystroke_h	h	n/a
187.7515	0.135	375503	keystroke_o	o	n/a
187.9765	0.06	375953	keystroke_p	p	n/a
188.1265	0.105	376253	keystroke_e	e	n/a
188.2165	0.1045	376433	keystroke_s	s	n/a
188.336	0.1055	376672	keystroke_Key.enter	Key.enter	n/a
188.46	7.588	376920	prompt	n/a	consulting photos kennedy costs\n
189.222	0.1045	378444	keystroke_c	c	n/a
189.3115	0.12	378623	keystroke_o	o	n/a
189.4765	0.06	378953	keystroke_n	n	n/a
189.5815	0.105	379163	keystroke_s	s	n/a
189.731	0.06	379462	keystroke_u	u	n/a
190.0165	0.075	380033	keystroke_t	t	n/a
190.4805	0.076	380961	keystroke_Key.backspace	Key.backspace	n/a
190.7965	0.105	381593	keystroke_l	l	n/a
190.9615	0.06	381923	keystroke_t	t	n/a
191.2305	0.151	382461	keystroke_i	i	n/a
191.4105	0.09	382821	keystroke_n	n	n/a
191.4865	0.074	382973	keystroke_g	g	n/a
191.6215	0.105	383243	keystroke_Key.space	Key.space	n/a
191.8155	0.106	383631	keystroke_p	p	n/a
191.952	0.1045	383904	keystroke_h	h	n/a
192.132	0.0895	384264	keystroke_o	o	n/a
192.2955	0.106	384591	keystroke_t	t	n/a
192.4455	0.09	384891	keystroke_o	o	n/a
192.5655	0.075	385131	keystroke_s	s	n/a
192.7615	0.059	385523	keystroke_Key.space	Key.space	n/a
193.2565	0.0755	386513	keystroke_k	k	n/a
193.3615	0.0755	386723	keystroke_e	e	n/a
193.496	0.06	386992	keystroke_n	n	n/a
193.662	0.06	387324	keystroke_n	n	n/a
193.737	0.09	387474	keystroke_e	e	n/a
193.9165	0.09	387833	keystroke_d	d	n/a
194.066	0.0745	388132	keystroke_y	y	n/a
194.2765	0.1345	388553	keystroke_Key.space	Key.space	n/a
195.0265	0.1045	390053	keystroke_c	c	n/a
195.1765	0.105	390353	keystroke_o	o	n/a
195.5665	0.15	391133	keystroke_s	s	n/a
195.7015	0.075	391403	keystroke_t	t	n/a
195.9415	0.104	391883	keystroke_Key.enter	Key.enter	n/a
196.052	9.567	392104	prompt	n/a	proposal registry answered characters\n
196.8715	0.1045	393743	keystroke_p	p	n/a
196.991	0.075	393982	keystroke_r	r	n/a
197.171	0.09	394342	keystroke_o	o	n/a
197.4105	0.046	394821	keystroke_p	p	n/a
197.9065	0.075	395813	keystroke_o	o	n/a
198.0415	0.075	396083	keystroke_s	s	n/a
198.2215	0.0745	396443	keystroke_a	a	n/a
198.3415	0.0895	396683	keystroke_l	l	n/a
198.581	0.06	397162	keystroke_Key.space	Key.space	n/a
199.302	0.1345	398604	keystroke_r	r	n/a
199.3915	0.165	398783	keystroke_e	e	n/a
199.7515	0.075	399503	keystroke_g	g	n/a
200.0065	0.045	400013	keystroke_i	i	n/a
200.2005	0.136	400401	keystroke_s	s	n/a
200.3365	0.1345	400673	keystroke_t	t	n/a
200.4565	0.105	400913	keystroke_r	r	n/a
200.696	0.045	401392	keystroke_y	y	n/a
200.8915	0.045	401783	keystroke_Key.space	Key.space	n/a
202.241	0.1205	404482	keystroke_a	a	n/a
202.4065	0.09	404813	keystroke_n	n	n/a
202.7065	0.075	405413	keystroke_s	s	n/a
202.917	0.1945	405834	keystroke_w	w	n/a
203.0815	0.1805	406163	keystroke_e	e	n/a
203.1715	0.18	406343	keystroke_r	r	n/a
203.3965	0.1045	406793	keystroke_e	e	n/a
203.591	0.09	407182	keystroke_d	d	n/a
203.771	0.09	407542	keystroke_Key.space	Key.space	n/a
203.9655	0.106	407931	keystroke_c	c	n/a
204.0865	0.06	408173	keystroke_h	h	n/a
204.1755	0.135	408351	keystroke_a	a	n/a
204.2665	0.1195	408533	keystroke_r	r	n/a
204.4915	0.15	408983	keystroke_a	a	n/a
204.7765	0.0895	409553	keystroke_c	c	n/a
204.9865	0.1205	409973	keystroke_t	t	n/a
205.0915	0.1795	410183	keystroke_e	e	n/a
205.196	0.105	410392	keystroke_r	r	n/a
205.286	0.1205	410572	keystroke_s	s	n/a
205.4965	0.12	410993	keystroke_Key.enter	Key.enter	n/a
205.627	9.2605	411254	prompt	n/a	all explanation voip productions\n
206.321	0.0755	412642	keystroke_a	a	n/a
206.457	0.075	412914	keystroke_l	l	n/a
206.621	0.06	413242	keystroke_l	l	n/a
206.726	0.075	413452	keystroke_Key.space	Key.space	n/a
206.9665	0.075	413933	keystroke_a	a	n/a
207.2505	0.0755	414501	keystroke_Key.backspace	Key.backspace	n/a
207.3715	0.075	414743	keystroke_e	e	n/a
207.5805	0.106	415161	keystroke_x	x	n/a
207.7015	0.075	415403	keystroke_p	p	n/a
207.8665	0.06	415733	keystroke_l	l	n/a
207.9555	0.106	415911	keystroke_a	a	n/a
208.1515	0.03	416303	keystroke_n	n	n/a
208.286	0.091	416572	keystroke_a	a	n/a
208.4665	0.1045	416933	keystroke_t	t	n/a
208.586	0.135	417172	keystroke_i	i	n/a
208.676	0.15	417352	keystroke_o	o	n/a
208.842	0.119	417684	keystroke_n	n	n/a
209.096	0.09	418192	keystroke_Key.space	Key.space	n/a
210.2365	0.106	420473	keystroke_c	c	n/a
210.3565	0.12	420713	keystroke_o	o	n/a
210.6565	0.075	421313	keystroke_Key.backspace	Key.backspace	n/a
210.821	0.0595	421642	keystroke_Key.backspace	Key.backspace	n/a
210.9565	0.09	421913	keystroke_v	v	n/a
211.0765	0.179	422153	keystroke_o	o	n/a
211.2415	0.135	422483	keystroke_i	i	n/a
211.406	0.1195	422812	keystroke_p	p	n/a
211.6765	0.0895	423353	keystroke_Key.space	Key.space	n/a
212.096	0.076	424192	keystroke_p	p	n/a
212.306	0.0905	424612	keystroke_r	r	n/a
212.486	0.09	424972	keystroke_o	o	n/a
212.726	0.0605	425452	keystroke_d	d	n/a
212.9805	0.0605	425961	keystroke_u	u	n/a
213.4765	0.12	426953	keystroke_c	c	n/a
213.7465	0.0595	427493	keystroke_t	t	n/a
213.881	0.195	427762	keystroke_i	i	n/a
214.001	0.15	428002	keystroke_o	o	n/a
214.1365	0.1045	428273	keystroke_n	n	n/a
214.2865	0.0605	428573	keystroke_s	s	n/a
214.7805	0.105	429561	keystroke_Key.enter	Key.enter	n/a
214.894	8.063	429788	prompt	n/a	accepted dice connecting interviews\n
215.5165	0.075	431033	keystroke_a	a	n/a
215.7105	0.076	431421	keystroke_c	c	n/a
215.9215	0.149	431843	keystroke_c	c	n/a
216.0565	0.12	432113	keystroke_e	e	n/a
216.1465	0.06	432293	keystroke_p	p	n/a
216.2665	0.1345	432533	keystroke_t	t	n/a
216.416	0.105	432832	keystroke_e	e	n/a
216.626	0.075	433252	keystroke_d	d	n/a
216.7605	0.075	433521	keystroke_Key.space	Key.space	n/a
216.866	0.0745	433732	keystroke_d	d	n/a
216.9415	0.0895	433883	keystroke_i	i	n/a
217.181	0.12	434362	keystroke_c	c	n/a
217.2715	0.0895	434543	keystroke_e	e	n/a
217.436	0.06	434872	keystroke_Key.space	Key.space	n/a
217.6315	0.1345	435263	keystroke_c	c	n/a
217.796	0.105	435592	keystroke_e	e	n/a
218.186	0.09	436372	keystroke_Key.backspace	Key.backspace	n/a
218.5765	0.105	437153	keystroke_o	o	n/a
218.771	0.06	437542	keystroke_n	n	n/a
218.921	0.061	437842	keystroke_n	n	n/a
219.0565	0.0745	438113	keystroke_e	e	n/a
219.236	0.076	438472	keystroke_c	c	n/a
219.4465	0.1495	438893	keystroke_t	t	n/a
219.5505	0.105	439101	keystroke_e	e	n/a
219.9855	0.06	439971	keystroke_Key.backspace	Key.backspace	n/a
220.2405	0.106	440481	keystroke_i	i	n/a
220.465	0.091	440930	keystroke_n	n	n/a
220.5415	0.0745	441083	keystroke_g	g	n/a
221.231	0.075	442462	keystroke_Key.space	Key.space	n/a
221.501	0.075	443002	keystroke_i	i	n/a
221.636	0.075	443272	keystroke_n	n	n/a
221.726	0.135	443452	keystroke_t	t	n/a
221.891	0.135	443782	keystroke_e	e	n/a
221.951	0.105	443902	keystroke_r	r	n/a
222.191	0.12	444382	keystroke_v	v	n/a
222.266	0.075	444532	keystroke_i	i	n/a
222.401	0.135	444802	keystroke_e	e	n/a
222.476	0.105	444952	keystroke_w	w	n/a
222.686	0.06	445372	keystroke_s	s	n/a
222.896	0.06	445792	keystroke_Key.enter	Key.enter	n/a
222.9635	9.4	445927	prompt	n/a	volumes holly circles genius\n
223.6465	0.0745	447293	keystroke_c	c	n/a
223.751	0.075	447502	keystroke_o	o	n/a
224.081	0.06	448162	keystroke_Key.backspace	Key.backspace	n/a
224.231	0.075	448462	keystroke_Key.backspace	Key.backspace	n/a
224.351	0.06	448702	keystroke_v	v	n/a
224.471	0.06	448942	keystroke_o	o	n/a
224.696	0.06	449392	keystroke_l	l	n/a
224.861	0.09	449722	keystroke_u	u	n/a
225.086	0.045	450172	keystroke_m	m	n/a
225.386	0.015	450772	keystroke_e	e	n/a
225.446	0.15	450892	keystroke_s	s	n/a
225.626	0.09	451252	keystroke_Key.space	Key.space	n/a
226.556	0.06	453112	keystroke_h	h	n/a
226.706	0.0605	453412	keystroke_o	o	n/a
226.871	0.06	453742	keystroke_o	o	n/a
227.036	0.09	454072	keystroke_l	l	n/a
227.291	0.09	454582	keystroke_y	y	n/a
227.501	0.03	455002	keystroke_Key.space	Key.space	n/a
227.876	0.075	455752	keystroke_Key.backspace	Key.backspace	n/a
228.0265	0.0595	456053	keystroke_Key.backspace	Key.backspace	n/a
228.161	0.075	456322	keystroke_Key.backspace	Key.backspace	n/a
228.311	0.105	456622	keystroke_Key.backspace	Key.backspace	n/a
229.106	0.045	458212	keystroke_l	l	n/a
229.286	0.075	458572	keystroke_l	l	n/a
229.391	0.06	458782	keystroke_y	y	n/a
229.541	0.03	459082	keystroke_Key.space	Key.space	n/a
229.946	0.105	459892	keystroke_c	c	n/a
230.321	0.06	460642	keystroke_i	i	n/a
230.396	0.06	460792	keystroke_r	r	n/a
230.561	0.105	461122	keystroke_c	c	n/a
230.666	0.09	461332	keystroke_l	l	n/a
230.786	0.195	461572	keystroke_e	e	n/a
230.891	0.105	461782	keystroke_s	s	n/a
231.026	0.09	462052	keystroke_Key.space	Key.space	n/a
231.4305	0.135	462861	keystroke_g	g	n/a
231.5505	0.0905	463101	keystroke_e	e	n/a
231.686	0.0745	463372	keystroke_n	n	n/a
231.866	0.1195	463732	keystroke_i	i	n/a
232.0005	0.09	464001	keystroke_u	u	n/a
232.1355	0.06	464271	keystroke_s	s	n/a
232.2105	0.15	464421	keystroke_Key.enter	Key.enter	n/a
232.3775	8.295	464755	prompt	n/a	floppy gimme corp telling\n
233.0205	0.075	466041	keystroke_f	f	n/a
233.2305	0.09	466461	keystroke_k	k	n/a
233.6805	0.06	467361	keystroke_Key.backspace	Key.backspace	n/a
233.996	0.029	467992	keystroke_l	l	n/a
234.235	0.1055	468470	keystroke_o	o	n/a
234.5205	0.06	469041	keystroke_p	p	n/a
234.7605	0.0155	469521	keystroke_p	p	n/a
234.851	0.0745	469702	keystroke_y	y	n/a
235.1505	0.09	470301	keystroke_Key.space	Key.space	n/a
236.1105	0.06	472221	keystroke_f	f	n/a
236.4105	0.06	472821	keystroke_Key.backspace	Key.backspace	n/a
236.5455	0.075	473091	keystroke_g	g	n/a
236.6655	0.09	473331	keystroke_i	i	n/a
236.8905	0.06	473781	keystroke_m	m	n/a
237.0405	0.0605	474081	keystroke_m	m	n/a
237.266	0.015	474532	keystroke_i	i	n/a
237.371	0.075	474742	keystroke_e	e	n/a
237.685	0.0455	475370	keystroke_Key.backspace	Key.backspace	n/a
237.851	0.075	475702	keystroke_Key.backspace	Key.backspace	n/a
237.941	0.075	475882	keystroke_e	e	n/a
238.1055	0.12	476211	keystroke_Key.space	Key.space	n/a
238.5855	0.121	477171	keystroke_c	c	n/a
238.721	0.09	477442	keystroke_o	o	n/a
238.856	0.075	477712	keystroke_r	r	n/a
239.156	0.0755	478312	keystroke_p	p	n/a
239.38	0.061	478760	keystroke_Key.space	Key.space	n/a
239.726	0.12	479452	keystroke_t	t	n/a
239.8165	0.1345	479633	keystroke_e	e	n/a
239.921	0.0605	479842	keystroke_l	l	n/a
240.086	0.0755	480172	keystroke_l	l	n/a
240.2815	0.1045	480563	keystroke_i	i	n/a
240.371	0.12	480742	keystroke_n	n	n/a
240.476	0.06	480952	keystroke_g	g	n/a
240.5805	0.09	481161	keystroke_Key.enter	Key.enter	n/a
240.6775	6.7	481355	prompt	n/a	proposed shaped credit dental\n
241.6005	0.09	483201	keystroke_p	p	n/a
241.7205	0.061	483441	keystroke_r	r	n/a
241.8105	0.1055	483621	keystroke_o	o	n/a
242.0665	0.06	484133	keystroke_p	p	n/a
242.487	0.074	484974	keystroke_o	o	n/a
242.5915	0.1345	485183	keystroke_s	s	n/a
242.6665	0.105	485333	keystroke_e	e	n/a
242.876	0.1205	485752	keystroke_d	d	n/a
243.0105	0.105	486021	keystroke_Key.space	Key.space	n/a
243.4465	0.074	486893	keystroke_s	s	n/a
243.5515	0.059	487103	keystroke_h	h	n/a
243.686	0.0745	487372	keystroke_a	a	n/a
243.7915	0.119	487583	keystroke_p	p	n/a
243.9255	0.1055	487851	keystroke_e	e	n/a
244.121	0.06	488242	keystroke_e	e	n/a
244.421	0.075	488842	keystroke_Key.backspace	Key.backspace	n/a
244.526	0.091	489052	keystroke_d	d	n/a
244.6605	0.1205	489321	keystroke_Key.space	Key.space	n/a
245.0055	0.1205	490011	keystroke_c	c	n/a
245.201	0.0905	490402	keystroke_r	r	n/a
245.411	0.09	490822	keystroke_e	e	n/a
245.666	0.106	491332	keystroke_d	d	n/a
245.756	0.061	491512	keystroke_i	i	n/a
245.861	0.105	491722	keystroke_t	t	n/a
246.0105	0.09	492021	keystroke_Key.space	Key.space	n/a
246.431	0.0445	492862	keystroke_d	d	n/a
246.5665	0.089	493133	keystroke_e	e	n/a
246.641	0.0745	493282	keystroke_n	n	n/a
246.746	0.1045	493492	keystroke_t	t	n/a
246.836	0.105	493672	keystroke_a	a	n/a
246.986	0.12	493972	keystroke_l	l	n/a
247.241	0.135	494482	keystroke_Key.enter	Key.enter	n/a
247.382	10.2115	494764	prompt	n/a	tales stuart live bowl\n
247.976	0.1355	495952	keystroke_t	t	n/a
248.065	0.121	496130	keystroke_a	a	n/a
248.5765	0.029	497153	keystroke_l	l	n/a
249.0855	0.151	498171	keystroke_e	e	n/a
249.1765	0.105	498353	keystroke_s	s	n/a
249.3405	0.075	498681	keystroke_Key.space	Key.space	n/a
250.0305	0.136	500061	keystroke_s	s	n/a
250.1515	0.105	500303	keystroke_t	t	n/a
250.3615	0.015	500723	keystroke_u	u	n/a
250.4505	0.121	500901	keystroke_a	a	n/a
250.5555	0.076	501111	keystroke_r	r	n/a
250.9455	0.076	501891	keystroke_Key.backspace	Key.backspace	n/a
252.041	0.075	504082	keystroke_t	t	n/a
252.28	0.121	504560	keystroke_Key.space	Key.space	n/a
253.136	0.075	506272	keystroke_Key.backspace	Key.backspace	n/a
253.286	0.105	506572	keystroke_Key.backspace	Key.backspace	n/a
253.3765	0.0895	506753	keystroke_r	r	n/a
253.5565	0.0895	507113	keystroke_t	t	n/a
253.721	0.105	507442	keystroke_;	;	n/a
254.246	0.045	508492	keystroke_Key.backspace	Key.backspace	n/a
254.3655	0.12	508731	keystroke_Key.space	Key.space	n/a
254.5165	0.1045	509033	keystroke_l	l	n/a
254.786	0.0605	509572	keystroke_i	i	n/a
255.0865	0.045	510173	keystroke_k	k	n/a
255.1765	0.0895	510353	keystroke_e	e	n/a
255.3265	0.09	510653	keystroke_Key.space	Key.space	n/a
255.6715	0.105	511343	keystroke_v	v	n/a
255.7905	0.091	511581	keystroke_o	o	n/a
255.8965	0.105	511793	keystroke_w	w	n/a
256.271	0.0595	512542	keystroke_Key.backspace	Key.backspace	n/a
256.4215	0.074	512843	keystroke_Key.backspace	Key.backspace	n/a
256.586	0.0745	513172	keystroke_Key.backspace	Key.backspace	n/a
256.7655	0.0905	513531	keystroke_b	b	n/a
257.0055	0.0905	514011	keystroke_o	o	n/a
257.141	0.09	514282	keystroke_w	w	n/a
257.3065	0.0745	514613	keystroke_l	l	n/a
257.516	0.075	515032	keystroke_Key.enter	Key.enter	n/a
257.613	7.6445	515226	prompt	n/a	outsourcing covered thousand kennedy\n
258.491	0.105	516982	keystroke_o	o	n/a
258.641	0.0605	517282	keystroke_u	u	n/a
258.7465	0.1045	517493	keystroke_t	t	n/a
258.8815	0.12	517763	keystroke_s	s	n/a
259.076	0.1505	518152	keystroke_o	o	n/a
259.271	0.045	518542	keystroke_u	u	n/a
259.436	0.06	518872	keystroke_r	r	n/a
259.6615	0.09	519323	keystroke_c	c	n/a
259.7665	0.134	519533	keystroke_i	i	n/a
259.8705	0.106	519741	keystroke_n	n	n/a
259.9775	0.089	519955	keystroke_g	g	n/a
260.1115	0.09	520223	keystroke_Key.space	Key.space	n/a
260.576	0.075	521152	keystroke_c	c	n/a
260.801	0.09	521602	keystroke_v	v	n/a
260.846	0.091	521692	keystroke_o	o	n/a
261.1755	0.075	522351	keystroke_Key.backspace	Key.backspace	n/a
261.3405	0.075	522681	keystroke_Key.backspace	Key.backspace	n/a
261.5515	0.105	523103	keystroke_o	o	n/a
261.671	0.135	523342	keystroke_v	v	n/a
261.851	0.18	523702	keystroke_e	e	n/a
261.9415	0.1345	523883	keystroke_r	r	n/a
262.1215	0.1045	524243	keystroke_e	e	n/a
262.316	0.1195	524632	keystroke_d	d	n/a
262.4655	0.12	524931	keystroke_Key.space	Key.space	n/a
262.7055	0.121	525411	keystroke_t	t	n/a
262.887	0.0885	525774	keystroke_h	h	n/a
262.992	0.1485	525984	keystroke_o	o	n/a
263.111	0.0745	526222	keystroke_u	u	n/a
263.2305	0.1955	526461	keystroke_s	s	n/a
263.456	0.12	526912	keystroke_a	a	n/a
263.501	0.09	527002	keystroke_n	n	n/a
263.6515	0.1045	527303	keystroke_d	d	n/a
263.786	0.075	527572	keystroke_Key.space	Key.space	n/a
263.966	0.09	527932	keystroke_k	k	n/a
264.0265	0.0745	528053	keystroke_e	e	n/a
264.2215	0.0445	528443	keystroke_n	n	n/a
264.3705	0.076	528741	keystroke_n	n	n/a
264.7015	0.059	529403	keystroke_e	e	n/a
264.8515	0.12	529703	keystroke_d	d	n/a
264.9565	0.075	529913	keystroke_y	y	n/a
265.1355	0.1205	530271	keystroke_Key.enter	Key.enter	n/a
265.261	7.946	530522	prompt	n/a	soundtrack friendly aging spanking\n
265.9305	0.076	531861	keystroke_s	s	n/a
266.0365	0.105	532073	keystroke_o	o	n/a
266.1565	0.0905	532313	keystroke_u	u	n/a
266.381	0.045	532762	keystroke_n	n	n/a
266.4405	0.1055	532881	keystroke_d	d	n/a
266.8915	0.15	533783	keystroke_t	t	n/a
266.982	0.1195	533964	keystroke_r	r	n/a
267.0565	0.12	534113	keystroke_a	a	n/a
267.2955	0.12	534591	keystroke_c	c	n/a
267.4015	0.12	534803	keystroke_k	k	n/a
267.581	0.0905	535162	keystroke_Key.space	Key.space	n/a
268.1365	0.149	536273	keystroke_f	f	n/a
268.2255	0.136	536451	keystroke_r	r	n/a
268.3165	0.075	536633	keystroke_i	i	n/a
268.4355	0.075	536871	keystroke_e	e	n/a
268.5405	0.06	537081	keystroke_n	n	n/a
268.6755	0.105	537351	keystroke_d	d	n/a
268.841	0.105	537682	keystroke_l	l	n/a
268.976	0.0745	537952	keystroke_y	y	n/a
269.1105	0.09	538221	keystroke_Key.space	Key.space	n/a
269.306	0.12	538612	keystroke_a	a	n/a
269.606	0.09	539212	keystroke_g	g	n/a
269.726	0.09	539452	keystroke_a	a	n/a
269.801	0.135	539602	keystroke_i	i	n/a
269.906	0.105	539812	keystroke_n	n	n/a
270.1755	0.0905	540351	keystroke_Key.backspace	Key.backspace	n/a
270.34	0.075	540680	keystroke_Key.backspace	Key.backspace	n/a
270.491	0.09	540982	keystroke_Key.backspace	Key.backspace	n/a
270.731	0.18	541462	keystroke_i	i	n/a
270.8515	0.1195	541703	keystroke_n	n	n/a
271.2115	0.0445	542423	keystroke_g	g	n/a
271.361	0.075	542722	keystroke_Key.space	Key.space	n/a
271.7505	0.0595	543501	keystroke_s	s	n/a
271.855	0.0905	543710	keystroke_p	p	n/a
272.0055	0.09	544011	keystroke_a	a	n/a
272.306	0.0595	544612	keystroke_n	n	n/a
272.5905	0.075	545181	keystroke_k	k	n/a
272.7855	0.105	545571	keystroke_i	i	n/a
272.8755	0.0905	545751	keystroke_n	n	n/a
272.9805	0.06	545961	keystroke_g	g	n/a
273.0855	0.12	546171	keystroke_Key.enter	Key.enter	n/a
273.2095	6.6575	546419	prompt	n/a	falling harvard target visual\n
274.061	0.09	548122	keystroke_f	f	n/a
274.1665	0.0895	548333	keystroke_a	a	n/a
274.226	0.0895	548452	keystroke_l	l	n/a
274.3905	0.076	548781	keystroke_l	l	n/a
275.231	0.075	550462	keystroke_i	i	n/a
275.351	0.105	550702	keystroke_n	n	n/a
275.486	0.06	550972	keystroke_g	g	n/a
275.5905	0.09	551181	keystroke_Key.space	Key.space	n/a
275.8605	0.06	551721	keystroke_h	h	n/a
275.966	0.1195	551932	keystroke_a	a	n/a
276.0715	0.0895	552143	keystroke_r	r	n/a
276.3405	0.12	552681	keystroke_v	v	n/a
276.446	0.165	552892	keystroke_a	a	n/a
276.581	0.1045	553162	keystroke_r	r	n/a
276.7755	0.09	553551	keystroke_d	d	n/a
276.9255	0.1195	553851	keystroke_Key.space	Key.space	n/a
277.2255	0.09	554451	keystroke_t	t	n/a
277.3315	0.2085	554663	keystroke_a	a	n/a
277.66	0.076	555320	keystroke_r	r	n/a
277.84	0.091	555680	keystroke_g	g	n/a
277.9465	0.1345	555893	keystroke_e	e	n/a
278.021	0.105	556042	keystroke_t	t	n/a
278.216	0.1045	556432	keystroke_Key.space	Key.space	n/a
278.756	0.075	557512	keystroke_v	v	n/a
278.9965	0.075	557993	keystroke_i	i	n/a
279.1005	0.076	558201	keystroke_s	s	n/a
279.2205	0.0745	558441	keystroke_u	u	n/a
279.461	0.105	558922	keystroke_a	a	n/a
279.581	0.06	559162	keystroke_l	l	n/a
279.776	0.09	559552	keystroke_Key.enter	Key.enter	n/a
279.875	8.9335	559750	prompt	n/a	biggest programmer janet eminem\n
280.766	0.0745	561532	keystroke_b	b	n/a
280.885	0.0755	561770	keystroke_i	i	n/a
280.9905	0.06	561981	keystroke_g	g	n/a
281.155	0.076	562310	keystroke_g	g	n/a
281.26	0.195	562520	keystroke_e	e	n/a
281.365	0.12	562730	keystroke_s	s	n/a
282.1	0.091	564200	keystroke_t	t	n/a
282.3255	0.09	564651	keystroke_Key.space	Key.space	n/a
282.7005	0.09	565401	keystroke_p	p	n/a
282.8505	0.0755	565701	keystroke_r	r	n/a
282.9855	0.075	565971	keystroke_o	o	n/a
283.2855	0.18	566571	keystroke_g	g	n/a
283.4355	0.15	566871	keystroke_r	r	n/a
283.5705	0.105	567141	keystroke_a	a	n/a
283.7055	0.045	567411	keystroke_m	m	n/a
283.8565	0.09	567713	keystroke_m	m	n/a
283.9465	0.12	567893	keystroke_e	e	n/a
284.0205	0.121	568041	keystroke_r	r	n/a
284.1705	0.0755	568341	keystroke_Key.space	Key.space	n/a
284.7105	0.045	569421	keystroke_j	j	n/a
284.786	0.1195	569572	keystroke_a	a	n/a
284.891	0.06	569782	keystroke_n	n	n/a
285.0255	0.0755	570051	keystroke_e	e	n/a
285.356	0.089	570712	keystroke_y	y	n/a
285.565	0.1055	571130	keystroke_Key.space	Key.space	n/a
285.791	0.06	571582	keystroke_e	e	n/a
286.331	0.044	572662	keystroke_m	m	n/a
286.585	0.09	573170	keystroke_n	n	n/a
286.7365	0.1185	573473	keystroke_i	i	n/a
287.051	0.059	574102	keystroke_Key.backspace	Key.backspace	n/a
287.186	0.074	574372	keystroke_Key.backspace	Key.backspace	n/a
287.4405	0.0745	574881	keystroke_i	i	n/a
287.635	0.0455	575270	keystroke_n	n	n/a
288.1755	0.09	576351	keystroke_e	e	n/a
288.3105	0.045	576621	keystroke_m	m	n/a
288.6855	0.12	577371	keystroke_Key.enter	Key.enter	n/a
288.8255	8.082	577651	prompt	n/a	hope minority exotic hitachi\n
290.021	0.1045	580042	keystroke_h	h	n/a
290.305	0.106	580610	keystroke_o	o	n/a
290.486	0.105	580972	keystroke_p	p	n/a
290.606	0.089	581212	keystroke_e	e	n/a
291.055	0.0605	582110	keystroke_Key.space	Key.space	n/a
291.761	0.0595	583522	keystroke_m	m	n/a
291.9705	0.06	583941	keystroke_i	i	n/a
292.196	0.03	584392	keystroke_n	n	n/a
292.5855	0.105	585171	keystroke_o	o	n/a
292.8555	0.06	585711	keystroke_r	r	n/a
292.9605	0.0295	585921	keystroke_i	i	n/a
293.0805	0.1045	586161	keystroke_t	t	n/a
293.29	0.0905	586580	keystroke_y	y	n/a
293.6205	0.2855	587241	keystroke_Key.space	Key.space	n/a
293.9655	0.0755	587931	keystroke_e	e	n/a
294.1755	0.1205	588351	keystroke_x	x	n/a
294.5205	0.105	589041	keystroke_o	o	n/a
294.6555	0.0745	589311	keystroke_t	t	n/a
294.835	0.075	589670	keystroke_i	i	n/a
295.001	0.09	590002	keystroke_c	c	n/a
295.166	0.0445	590332	keystroke_Key.space	Key.space	n/a
295.7355	0.06	591471	keystroke_h	h	n/a
295.8855	0.0595	591771	keystroke_i	i	n/a
296.006	0.104	592012	keystroke_t	t	n/a
296.185	0.105	592370	keystroke_a	a	n/a
296.35	0.1055	592700	keystroke_c	c	n/a
296.4705	0.076	592941	keystroke_h	h	n/a
296.5605	0.105	593121	keystroke_i	i	n/a
296.756	0.149	593512	keystroke_Key.enter	Key.enter	n/a
296.9185	8.464	593837	prompt	n/a	thread hitachi suppliers governor\n
297.656	0.059	595312	keystroke_t	t	n/a
297.7605	0.075	595521	keystroke_h	h	n/a
297.941	0.1345	595882	keystroke_r	r	n/a
298.0455	0.1495	596091	keystroke_e	e	n/a
298.3005	0.1355	596601	keystroke_a	a	n/a
298.4205	0.12	596841	keystroke_d	d	n/a
298.5555	0.12	597111	keystroke_Key.space	Key.space	n/a
299.186	0.135	598372	keystroke_h	h	n/a
299.3665	0.0295	598733	keystroke_i	i	n/a
299.411	0.089	598822	keystroke_t	t	n/a
299.546	0.09	599092	keystroke_a	a	n/a
299.711	0.089	599422	keystroke_c	c	n/a
299.816	0.059	599632	keystroke_h	h	n/a
299.906	0.12	599812	keystroke_i	i	n/a
300.116	0.0595	600232	keystroke_Key.space	Key.space	n/a
300.475	0.0915	600950	keystroke_s	s	n/a
300.851	0.0745	601702	keystroke_u	u	n/a
301.0905	0.0895	602181	keystroke_p	p	n/a
301.27	0.075	602540	keystroke_p	p	n/a
301.4655	0.1055	602931	keystroke_l	l	n/a
301.706	0.044	603412	keystroke_i	i	n/a
301.72	0.015	603440	keystroke_u	u	n/a
301.826	0.1795	603652	keystroke_e	e	n/a
301.9605	0.1355	603921	keystroke_r	r	n/a
302.575	0.045	605150	keystroke_Key.backspace	Key.backspace	n/a
302.71	0.06	605420	keystroke_Key.backspace	Key.backspace	n/a
302.845	0.09	605690	keystroke_Key.backspace	Key.backspace	n/a
303.206	0.135	606412	keystroke_e	e	n/a
303.296	0.105	606592	keystroke_r	r	n/a
303.64	0.09	607280	keystroke_Key.space	Key.space	n/a
304.016	0.09	608032	keystroke_g	g	n/a
304.136	0.105	608272	keystroke_o	o	n/a
304.301	0.105	608602	keystroke_v	v	n/a
304.481	0.135	608962	keystroke_e	e	n/a
304.57	0.0905	609140	keystroke_r	r	n/a
304.886	0.09	609772	keystroke_n	n	n/a
304.991	0.12	609982	keystroke_o	o	n/a
305.126	0.06	610252	keystroke_r	r	n/a
305.366	0.015	610732	keystroke_Key.enter	Key.enter	n/a
305.393	7.955	610786	prompt	n/a	openings specialized preview crafts\n
306.911	0.0905	613822	keystroke_o	o	n/a
307.0455	0.106	614091	keystroke_p	p	n/a
307.1355	0.075	614271	keystroke_e	e	n/a
307.316	0.0745	614632	keystroke_n	n	n/a
307.4955	0.1055	614991	keystroke_i	i	n/a
307.586	0.09	615172	keystroke_n	n	n/a
307.676	0.1195	615352	keystroke_g	g	n/a
307.8105	0.105	615621	keystroke_s	s	n/a
307.9755	0.1045	615951	keystroke_Key.space	Key.space	n/a
308.275	0.0755	616550	keystroke_s	s	n/a
308.411	0.105	616822	keystroke_p	p	n/a
308.9805	0.06	617961	keystroke_e	e	n/a
309.1305	0.1055	618261	keystroke_c	c	n/a
309.251	0.0595	618502	keystroke_i	i	n/a
309.3855	0.0755	618771	keystroke_a	a	n/a
309.4755	0.06	618951	keystroke_l	l	n/a
309.746	0.0745	619492	keystroke_i	i	n/a
310.2565	0.149	620513	keystroke_z	z	n/a
310.42	0.09	620840	keystroke_e	e	n/a
310.6155	0.105	621231	keystroke_d	d	n/a
310.7355	0.105	621471	keystroke_Key.space	Key.space	n/a
311.0805	0.09	622161	keystroke_p	p	n/a
311.1855	0.105	622371	keystroke_r	r	n/a
311.2755	0.09	622551	keystroke_e	e	n/a
311.6055	0.06	623211	keystroke_v	v	n/a
311.7255	0.105	623451	keystroke_i	i	n/a
311.846	0.1495	623692	keystroke_e	e	n/a
311.9355	0.1205	623871	keystroke_w	w	n/a
312.0855	0.105	624171	keystroke_Key.space	Key.space	n/a
312.4005	0.0755	624801	keystroke_c	c	n/a
312.731	0.105	625462	keystroke_r	r	n/a
312.851	0.1195	625702	keystroke_a	a	n/a
312.9405	0.0895	625881	keystroke_f	f	n/a
313.15	0.0605	626300	keystroke_t	t	n/a
313.225	0.121	626450	keystroke_Key.enter	Key.enter	n/a
313.3645	6.7775	626729	prompt	n/a	'twas road contact actual\n
314.921	0.044	629842	keystroke_'	'	n/a
315.071	0.119	630142	keystroke_t	t	n/a
315.176	0.0895	630352	keystroke_w	w	n/a
315.475	0.1205	630950	keystroke_a	a	n/a
315.5505	0.1195	631101	keystroke_s	s	n/a
315.7605	0.09	631521	keystroke_Key.space	Key.space	n/a
316.1805	0.0755	632361	keystroke_r	r	n/a
316.3	0.1055	632600	keystroke_o	o	n/a
316.4505	0.1655	632901	keystroke_a	a	n/a
316.631	0.06	633262	keystroke_d	d	n/a
316.7355	0.045	633471	keystroke_Key.space	Key.space	n/a
316.9155	0.0755	633831	keystroke_c	c	n/a
317.006	0.12	634012	keystroke_o	o	n/a
317.141	0.075	634282	keystroke_n	n	n/a
317.245	0.12	634490	keystroke_t	t	n/a
317.38	0.1355	634760	keystroke_a	a	n/a
317.53	0.09	635060	keystroke_c	c	n/a
317.756	0.0745	635512	keystroke_t	t	n/a
317.8905	0.1195	635781	keystroke_Key.space	Key.space	n/a
318.251	0.1045	636502	keystroke_a	a	n/a
318.4905	0.075	636981	keystroke_c	c	n/a
318.6855	0.075	637371	keystroke_t	t	n/a
318.8055	0.075	637611	keystroke_u	u	n/a
318.9255	0.06	637851	keystroke_a	a	n/a
319.0005	0.1055	638001	keystroke_;	;	n/a
319.6	0.045	639200	keystroke_Key.backspace	Key.backspace	n/a
319.811	0.0745	639622	keystroke_l	l	n/a
320.0505	0.09	640101	keystroke_Key.enter	Key.enter	n/a
320.1465	6.1605	640293	prompt	n/a	thought travels border pleasure\n
320.8005	0.075	641601	keystroke_t	t	n/a
320.9205	0.06	641841	keystroke_h	h	n/a
321.011	0.1345	642022	keystroke_o	o	n/a
321.131	0.0595	642262	keystroke_u	u	n/a
321.1605	0.075	642321	keystroke_g	g	n/a
321.3705	0.06	642741	keystroke_h	h	n/a
321.476	0.0745	642952	keystroke_t	t	n/a
321.6855	0.0895	643371	keystroke_Key.space	Key.space	n/a
321.925	0.151	643850	keystroke_t	t	n/a
322.121	0.1645	644242	keystroke_r	r	n/a
322.3005	0.105	644601	keystroke_a	a	n/a
322.631	0.074	645262	keystroke_v	v	n/a
322.751	0.044	645502	keystroke_e	e	n/a
322.81	0.121	645620	keystroke_l	l	n/a
322.976	0.059	645952	keystroke_s	s	n/a
323.1105	0.0745	646221	keystroke_Key.space	Key.space	n/a
323.56	0.106	647120	keystroke_b	b	n/a
323.696	0.075	647392	keystroke_o	o	n/a
323.845	0.076	647690	keystroke_r	r	n/a
324.04	0.045	648080	keystroke_d	d	n/a
324.175	0.121	648350	keystroke_e	e	n/a
324.266	0.0905	648532	keystroke_r	r	n/a
324.4005	0.105	648801	keystroke_Key.space	Key.space	n/a
324.8055	0.105	649611	keystroke_p	p	n/a
325.0455	0.105	650091	keystroke_l	l	n/a
325.2255	0.1205	650451	keystroke_e	e	n/a
325.3605	0.21	650721	keystroke_a	a	n/a
325.5555	0.2705	651111	keystroke_s	s	n/a
325.7955	0.045	651591	keystroke_u	u	n/a
325.96	0.196	651920	keystroke_r	r	n/a
326.08	0.166	652160	keystroke_e	e	n/a
326.2005	0.105	652401	keystroke_Key.enter	Key.enter	n/a
326.326	9.597	652652	prompt	n/a	thou methods sunglasses magnetic\n
327.2205	0.0905	654441	keystroke_t	t	n/a
327.34	0.076	654680	keystroke_h	h	n/a
327.4605	0.15	654921	keystroke_o	o	n/a
327.58	0.0905	655160	keystroke_u	u	n/a
327.91	0.1055	655820	keystroke_Key.space	Key.space	n/a
328.21	0.06	656420	keystroke_m	m	n/a
328.3	0.0755	656600	keystroke_e	e	n/a
328.48	0.0605	656960	keystroke_d	d	n/a
328.676	0.12	657352	keystroke_t	t	n/a
328.78	0.076	657560	keystroke_h	h	n/a
328.8855	0.1195	657771	keystroke_o	o	n/a
328.991	0.119	657982	keystroke_d	d	n/a
329.096	0.105	658192	keystroke_s	s	n/a
329.3055	0.0595	658611	keystroke_Key.space	Key.space	n/a
329.74	0.045	659480	keystroke_Key.backspace	Key.backspace	n/a
329.875	0.06	659750	keystroke_Key.backspace	Key.backspace	n/a
330.011	0.059	660022	keystroke_Key.backspace	Key.backspace	n/a
330.145	0.076	660290	keystroke_Key.backspace	Key.backspace	n/a
330.296	0.0595	660592	keystroke_Key.backspace	Key.backspace	n/a
330.4455	0.0295	660891	keystroke_Key.backspace	Key.backspace	n/a
330.5805	0.09	661161	keystroke_Key.backspace	Key.backspace	n/a
330.7005	0.09	661401	keystroke_t	t	n/a
330.836	0.18	661672	keystroke_h	h	n/a
330.9705	0.1195	661941	keystroke_o	o	n/a
331.076	0.135	662152	keystroke_d	d	n/a
331.165	0.105	662330	keystroke_s	s	n/a
331.375	0.061	662750	keystroke_Key.space	Key.space	n/a
331.915	0.091	663830	keystroke_s	s	n/a
332.0655	0.06	664131	keystroke_u	u	n/a
332.2605	0.0605	664521	keystroke_n	n	n/a
332.906	0.1045	665812	keystroke_g	g	n/a
333.0405	0.105	666081	keystroke_l	l	n/a
333.2205	0.1345	666441	keystroke_a	a	n/a
333.401	0.0895	666802	keystroke_s	s	n/a
333.73	0.06	667460	keystroke_s	s	n/a
333.971	0.1045	667942	keystroke_e	e	n/a
334.0905	0.105	668181	keystroke_s	s	n/a
334.285	0.1355	668570	keystroke_Key.space	Key.space	n/a
334.7055	0.06	669411	keystroke_m	m	n/a
334.8105	0.105	669621	keystroke_a	a	n/a
334.9605	0.106	669921	keystroke_g	g	n/a
335.1255	0.0755	670251	keystroke_n	n	n/a
335.321	0.149	670642	keystroke_e	e	n/a
335.485	0.075	670970	keystroke_t	t	n/a
335.5755	0.075	671151	keystroke_i	i	n/a
335.6805	0.12	671361	keystroke_c	c	n/a
335.8155	0.105	671631	keystroke_Key.enter	Key.enter	n/a
335.943	8.064	671886	prompt	n/a	ideas extract quickly humanitarian\n
336.671	0.044	673342	keystroke_i	i	n/a
336.6865	0.074	673373	keystroke_d	d	n/a
336.8655	0.1045	673731	keystroke_e	e	n/a
336.925	0.181	673850	keystroke_a	a	n/a
337.0905	0.1495	674181	keystroke_s	s	n/a
337.33	0.105	674660	keystroke_Key.space	Key.space	n/a
337.6305	0.075	675261	keystroke_e	e	n/a
337.9005	0.045	675801	keystroke_x	x	n/a
338.0655	0.15	676131	keystroke_t	t	n/a
338.1705	0.1195	676341	keystroke_r	r	n/a
338.2605	0.165	676521	keystroke_a	a	n/a
338.426	0.1045	676852	keystroke_c	c	n/a
338.6505	0.075	677301	keystroke_t	t	n/a
338.875	0.12	677750	keystroke_Key.space	Key.space	n/a
339.235	0.09	678470	keystroke_q	q	n/a
339.3855	0.1195	678771	keystroke_u	u	n/a
339.506	0.074	679012	keystroke_i	i	n/a
339.595	0.09	679190	keystroke_c	c	n/a
339.746	0.1045	679492	keystroke_k	k	n/a
340.0005	0.06	680001	keystroke_;	;	n/a
340.4205	0.09	680841	keystroke_Key.backspace	Key.backspace	n/a
340.7355	0.06	681471	keystroke_l	l	n/a
340.8405	0.045	681681	keystroke_y	y	n/a
340.9605	0.09	681921	keystroke_Key.space	Key.space	n/a
341.4555	0.09	682911	keystroke_h	h	n/a
341.5905	0.075	683181	keystroke_u	u	n/a
341.8005	0.045	683601	keystroke_m	m	n/a
341.906	0.0895	683812	keystroke_a	a	n/a
342.295	0.0455	684590	keystroke_n	n	n/a
342.715	0.031	685430	keystroke_i	i	n/a
342.985	0.09	685970	keystroke_t	t	n/a
343.121	0.1645	686242	keystroke_a	a	n/a
343.3305	0.0765	686661	keystroke_r	r	n/a
343.421	0.075	686842	keystroke_i	i	n/a
343.616	0.075	687232	keystroke_a	a	n/a
343.736	0.06	687472	keystroke_n	n	n/a
343.885	0.12	687770	keystroke_Key.enter	Key.enter	n/a
344.0115	10.511	688023	prompt	n/a	harper statewide marketplace festivals\n
344.83	0.046	689660	keystroke_h	h	n/a
344.89	0.1055	689780	keystroke_a	a	n/a
345.221	0.074	690442	keystroke_r	r	n/a
345.311	0.074	690622	keystroke_p	p	n/a
345.476	0.12	690952	keystroke_e	e	n/a
345.551	0.105	691102	keystroke_r	r	n/a
345.73	0.1055	691460	keystroke_Key.space	Key.space	n/a
345.985	0.135	691970	keystroke_s	s	n/a
346.106	0.104	692212	keystroke_t	t	n/a
346.226	0.149	692452	keystroke_a	a	n/a
346.33	0.181	692660	keystroke_t	t	n/a
346.465	0.106	692930	keystroke_e	e	n/a
347.35	0.1205	694700	keystroke_w	w	n/a
347.455	0.045	694910	keystroke_e	e	n/a
347.5755	0.0745	695151	keystroke_i	i	n/a
347.86	0.0755	695720	keystroke_Key.backspace	Key.backspace	n/a
348.025	0.09	696050	keystroke_Key.backspace	Key.backspace	n/a
348.416	0.134	696832	keystroke_i	i	n/a
348.58	0.0905	697160	keystroke_d	d	n/a
348.76	0.09	697520	keystroke_e	e	n/a
349.12	0.015	698240	keystroke_Key.space	Key.space	n/a
349.585	0.0455	699170	keystroke_m	m	n/a
349.646	0.1195	699292	keystroke_a	a	n/a
349.7205	0.1045	699441	keystroke_r	r	n/a
349.945	0.0605	699890	keystroke_e	e	n/a
350.2905	0.045	700581	keystroke_Key.backspace	Key.backspace	n/a
350.801	0.0595	701602	keystroke_k	k	n/a
350.951	0.105	701902	keystroke_e	e	n/a
350.995	0.1205	701990	keystroke_t	t	n/a
351.1305	0.09	702261	keystroke_p	p	n/a
351.31	0.15	702620	keystroke_l	l	n/a
351.4455	0.1495	702891	keystroke_a	a	n/a
351.7155	0.1645	703431	keystroke_c	c	n/a
351.806	0.164	703612	keystroke_e	e	n/a
352.4955	0.105	704991	keystroke_Key.space	Key.space	n/a
352.9155	0.15	705831	keystroke_f	f	n/a
353.021	0.195	706042	keystroke_e	e	n/a
353.1255	0.181	706251	keystroke_s	s	n/a
353.2905	0.12	706581	keystroke_t	t	n/a
353.4555	0.075	706911	keystroke_i	i	n/a
353.6655	0.12	707331	keystroke_v	v	n/a
353.7405	0.105	707481	keystroke_a	a	n/a
354.1	0.121	708200	keystroke_l	l	n/a
354.2505	0.1045	708501	keystroke_s	s	n/a
354.4305	0.09	708861	keystroke_Key.enter	Key.enter	n/a
354.535	10.728	709070	prompt	n/a	catherine save retrieval cross\n
355.256	0.104	710512	keystroke_c	c	n/a
355.645	0.135	711290	keystroke_a	a	n/a
355.75	0.12	711500	keystroke_t	t	n/a
355.8845	0.061	711769	keystroke_h	h	n/a
355.9755	0.105	711951	keystroke_e	e	n/a
356.0355	0.09	712071	keystroke_r	r	n/a
356.141	0.1195	712282	keystroke_i	i	n/a
356.3055	0.06	712611	keystroke_n	n	n/a
356.5905	0.0895	713181	keystroke_Key.space	Key.space	n/a
356.7555	0.135	713511	keystroke_s	s	n/a
356.8905	0.21	713781	keystroke_a	a	n/a
356.9655	0.2705	713931	keystroke_c	c	n/a
357.1755	0.075	714351	keystroke_e	e	n/a
357.7905	0.06	715581	keystroke_Key.backspace	Key.backspace	n/a
357.9405	0.075	715881	keystroke_Key.backspace	Key.backspace	n/a
358.1055	0.075	716211	keystroke_Key.backspace	Key.backspace	n/a
358.3905	0.09	716781	keystroke_Key.backspace	Key.backspace	n/a
358.5555	0.06	717111	keystroke_Key.backspace	Key.backspace	n/a
358.6905	0.12	717381	keystroke_e	e	n/a
358.8555	0.105	717711	keystroke_Key.space	Key.space	n/a
359.0355	0.165	718071	keystroke_s	s	n/a
359.2005	0.18	718401	keystroke_a	a	n/a
359.3205	0.21	718641	keystroke_v	v	n/a
359.4855	0.12	718971	keystroke_e	e	n/a
360.2205	0.075	720441	keystroke_Key.space	Key.space	n/a
360.5655	0.06	721131	keystroke_s	s	n/a
360.9405	0.045	721881	keystroke_Key.backspace	Key.backspace	n/a
361.1205	0.075	722241	keystroke_t	t	n/a
361.285	0.0905	722570	keystroke_r	r	n/a
361.45	0.0755	722900	keystroke_Key.backspace	Key.backspace	n/a
361.615	0.0755	723230	keystroke_Key.backspace	Key.backspace	n/a
361.6605	0.135	723321	keystroke_r	r	n/a
361.7655	0.18	723531	keystroke_e	e	n/a
361.9155	0.1045	723831	keystroke_t	t	n/a
362.2905	0.09	724581	keystroke_i	i	n/a
362.7095	0.076	725419	keystroke_Key.backspace	Key.backspace	n/a
362.8155	0.075	725631	keystroke_r	r	n/a
362.9355	0.0905	725871	keystroke_i	i	n/a
363.415	0.105	726830	keystroke_v	v	n/a
363.505	0.105	727010	keystroke_a	a	n/a
363.596	0.074	727192	keystroke_l	l	n/a
363.8055	0.045	727611	keystroke_Key.space	Key.space	n/a
364.3755	0.089	728751	keystroke_c	c	n/a
364.4805	0.075	728961	keystroke_r	r	n/a
364.7955	0.044	729591	keystroke_o	o	n/a
364.87	0.0605	729740	keystroke_s	s	n/a
365.0345	0.061	730069	keystroke_s	s	n/a
365.17	0.09	730340	keystroke_Key.enter	Key.enter	n/a
365.2815	5.9355	730563	prompt	n/a	quote picked intervals dryer\n
366.3705	0.1045	732741	keystroke_q	q	n/a
366.5505	0.09	733101	keystroke_u	u	n/a
366.73	0.075	733460	keystroke_o	o	n/a
366.851	0.134	733702	keystroke_t	t	n/a
366.941	0.119	733882	keystroke_e	e	n/a
367.09	0.1205	734180	keystroke_Key.space	Key.space	n/a
367.5105	0.105	735021	keystroke_p	p	n/a
367.735	0.09	735470	keystroke_i	i	n/a
367.825	0.0755	735650	keystroke_c	c	n/a
367.975	0.061	735950	keystroke_k	k	n/a
368.095	0.06	736190	keystroke_e	e	n/a
368.2755	0.075	736551	keystroke_d	d	n/a
368.4555	0.075	736911	keystroke_Key.space	Key.space	n/a
368.665	0.0755	737330	keystroke_i	i	n/a
368.8305	0.0745	737661	keystroke_n	n	n/a
368.935	0.105	737870	keystroke_t	t	n/a
369.0555	0.1355	738111	keystroke_e	e	n/a
369.1455	0.075	738291	keystroke_r	r	n/a
369.3705	0.09	738741	keystroke_v	v	n/a
369.4755	0.0905	738951	keystroke_a	a	n/a
369.5505	0.06	739101	keystroke_l	l	n/a
369.686	0.1045	739372	keystroke_s	s	n/a
369.8955	0.06	739791	keystroke_Key.space	Key.space	n/a
370.4205	0.09	740841	keystroke_d	d	n/a
370.5705	0.075	741141	keystroke_r	r	n/a
370.7655	0.06	741531	keystroke_y	y	n/a
370.8855	0.135	741771	keystroke_e	e	n/a
370.976	0.119	741952	keystroke_r	r	n/a
371.11	0.1055	742220	keystroke_Key.enter	Key.enter	n/a
371.221	8.382	742442	prompt	n/a	nutritional attacked webster same\n
372.206	0.105	744412	keystroke_n	n	n/a
372.5515	0.0445	745103	keystroke_u	u	n/a
372.656	0.104	745312	keystroke_t	t	n/a
372.9255	0.0905	745851	keystroke_r	r	n/a
373.06	0.075	746120	keystroke_i	i	n/a
373.3305	0.09	746661	keystroke_t	t	n/a
373.4505	0.15	746901	keystroke_i	i	n/a
373.556	0.1495	747112	keystroke_o	o	n/a
373.8405	0.03	747681	keystroke_n	n	n/a
373.916	0.1045	747832	keystroke_a	a	n/a
374.0655	0.06	748131	keystroke_l	l	n/a
374.2455	0.09	748491	keystroke_Key.space	Key.space	n/a
374.501	0.12	749002	keystroke_a	a	n/a
374.86	0.0755	749720	keystroke_t	t	n/a
375.0555	0.09	750111	keystroke_t	t	n/a
375.1305	0.165	750261	keystroke_a	a	n/a
375.4005	0.06	750801	keystroke_c	c	n/a
375.5055	0.09	751011	keystroke_k	k	n/a
375.6105	0.075	751221	keystroke_e	e	n/a
375.7905	0.074	751581	keystroke_d	d	n/a
375.8955	0.09	751791	keystroke_Key.space	Key.space	n/a
376.5705	0.03	753141	keystroke_b	b	n/a
376.8255	0.09	753651	keystroke_Key.backspace	Key.backspace	n/a
376.9305	0.12	753861	keystroke_w	w	n/a
376.9905	0.105	753981	keystroke_e	e	n/a
377.1405	0.06	754281	keystroke_b	b	n/a
377.2755	0.165	754551	keystroke_s	s	n/a
377.396	0.1345	754792	keystroke_t	t	n/a
377.5455	0.165	755091	keystroke_e	e	n/a
377.635	0.105	755270	keystroke_r	r	n/a
378.0705	0.09	756141	keystroke_Key.space	Key.space	n/a
379.1055	0.06	758211	keystroke_s	s	n/a
379.2255	0.105	758451	keystroke_a	a	n/a
379.2555	0.075	758511	keystroke_m	m	n/a
379.391	0.089	758782	keystroke_e	e	n/a
379.481	0.119	758962	keystroke_Key.enter	Key.enter	n/a
379.618	5.4735	759236	prompt	n/a	peers neil monitor fits\n
380.5	0.12	761000	keystroke_p	p	n/a
380.651	0.089	761302	keystroke_e	e	n/a
380.815	0.105	761630	keystroke_e	e	n/a
381.0405	0.09	762081	keystroke_r	r	n/a
381.145	0.105	762290	keystroke_s	s	n/a
381.31	0.09	762620	keystroke_Key.space	Key.space	n/a
381.626	0.0295	763252	keystroke_n	n	n/a
381.6705	0.06	763341	keystroke_e	e	n/a
381.7905	0.0595	763581	keystroke_i	i	n/a
381.956	0.09	763912	keystroke_l	l	n/a
382.195	0.075	764390	keystroke_Key.space	Key.space	n/a
382.5105	0.075	765021	keystroke_m	m	n/a
382.7055	0.0895	765411	keystroke_o	o	n/a
382.931	0.045	765862	keystroke_n	n	n/a
383.065	0.06	766130	keystroke_i	i	n/a
383.246	0.06	766492	keystroke_t	t	n/a
383.321	0.09	766642	keystroke_o	o	n/a
383.605	0.061	767210	keystroke_r	r	n/a
383.815	0.06	767630	keystroke_Key.space	Key.space	n/a
384.2205	0.0895	768441	keystroke_f	f	n/a
384.355	0.0905	768710	keystroke_i	i	n/a
384.475	0.121	768950	keystroke_t	t	n/a
384.626	0.0745	769252	keystroke_s	s	n/a
385.045	0.045	770090	keystroke_Key.enter	Key.enter	n/a
385.103	13.34	770206	prompt	n/a	wherever seattle synthetic dentists\n
385.7655	0.12	771531	keystroke_w	w	n/a
385.9005	0.045	771801	keystroke_h	h	n/a
386.2605	0.1345	772521	keystroke_e	e	n/a
386.365	0.1055	772730	keystroke_r	r	n/a
387.7305	0.15	775461	keystroke_e	e	n/a
387.8655	0.12	775731	keystroke_v	v	n/a
388.076	0.119	776152	keystroke_e	e	n/a
388.121	0.1045	776242	keystroke_r	r	n/a
388.271	0.1195	776542	keystroke_Key.space	Key.space	n/a
388.8855	0.075	777771	keystroke_s	s	n/a
389.0055	0.15	778011	keystroke_e	e	n/a
389.1255	0.15	778251	keystroke_a	a	n/a
389.2605	0.1055	778521	keystroke_t	t	n/a
389.605	0.09	779210	keystroke_t	t	n/a
389.726	0.1045	779452	keystroke_l	l	n/a
390.476	0.059	780952	keystroke_e	e	n/a
390.685	0.135	781370	keystroke_Key.space	Key.space	n/a
392.1105	0.075	784221	keystroke_Key.backspace	Key.backspace	n/a
392.3055	0.075	784611	keystroke_Key.backspace	Key.backspace	n/a
393.6105	0.0595	787221	keystroke_e	e	n/a
393.7905	0.0895	787581	keystroke_Key.space	Key.space	n/a
395.1855	0.12	790371	keystroke_s	s	n/a
395.396	0.059	790792	keystroke_y	y	n/a
395.575	0.076	791150	keystroke_n	n	n/a
395.6805	0.0605	791361	keystroke_t	t	n/a
395.8	0.061	791600	keystroke_h	h	n/a
395.906	0.09	791812	keystroke_e	e	n/a
396.221	0.0745	792442	keystroke_t	t	n/a
396.325	0.076	792650	keystroke_i	i	n/a
396.4755	0.1345	792951	keystroke_c	c	n/a
396.64	0.091	793280	keystroke_Key.space	Key.space	n/a
396.9255	0.059	793851	keystroke_e	e	n/a
397.27	0.06	794540	keystroke_Key.backspace	Key.backspace	n/a
397.39	0.0455	794780	keystroke_d	d	n/a
397.54	0.09	795080	keystroke_e	e	n/a
397.645	0.03	795290	keystroke_n	n	n/a
397.721	0.089	795442	keystroke_t	t	n/a
397.8555	0.0445	795711	keystroke_i	i	n/a
397.9755	0.1045	795951	keystroke_s	s	n/a
398.141	0.1045	796282	keystroke_t	t	n/a
398.26	0.075	796520	keystroke_s	s	n/a
398.365	0.075	796730	keystroke_Key.enter	Key.enter	n/a
398.4575	7.0945	796915	prompt	n/a	ratings grocery general static\n
399.085	0.121	798170	keystroke_t	t	n/a
399.296	0.0445	798592	keystroke_a	a	n/a
399.551	0.06	799102	keystroke_Key.backspace	Key.backspace	n/a
399.6855	0.09	799371	keystroke_Key.backspace	Key.backspace	n/a
399.791	0.059	799582	keystroke_r	r	n/a
399.866	0.119	799732	keystroke_a	a	n/a
399.955	0.091	799910	keystroke_t	t	n/a
400.076	0.179	800152	keystroke_i	i	n/a
400.241	0.075	800482	keystroke_n	n	n/a
400.301	0.134	800602	keystroke_g	g	n/a
400.5105	0.09	801021	keystroke_s	s	n/a
400.7655	0.074	801531	keystroke_Key.space	Key.space	n/a
401.2895	0.1515	802579	keystroke_g	g	n/a
401.3955	0.0895	802791	keystroke_r	r	n/a
401.5905	0.06	803181	keystroke_o	o	n/a
401.861	0.075	803722	keystroke_c	c	n/a
402.01	0.1955	804020	keystroke_e	e	n/a
402.2205	0.089	804441	keystroke_r	r	n/a
402.341	0.0735	804682	keystroke_y	y	n/a
402.4605	0.089	804921	keystroke_Key.space	Key.space	n/a
403.0755	0.119	806151	keystroke_g	g	n/a
403.1955	0.09	806391	keystroke_e	e	n/a
403.2995	0.045	806599	keystroke_n	n	n/a
403.4495	0.18	806899	keystroke_e	e	n/a
403.6005	0.119	807201	keystroke_r	r	n/a
403.7055	0.119	807411	keystroke_a	a	n/a
403.8095	0.075	807619	keystroke_l	l	n/a
404.0645	0.09	808129	keystroke_Key.space	Key.space	n/a
404.4105	0.119	808821	keystroke_s	s	n/a
404.5145	0.121	809029	keystroke_t	t	n/a
404.6805	0.12	809361	keystroke_a	a	n/a
404.771	0.1345	809542	keystroke_t	t	n/a
404.9655	0.074	809931	keystroke_i	i	n/a
405.2805	0.09	810561	keystroke_c	c	n/a
405.445	0.1055	810890	keystroke_Key.enter	Key.enter	n/a
405.56	7.282	811120	prompt	n/a	alabama divide picks gilbert\n
406.24	0.0605	812480	keystroke_a	a	n/a
406.345	0.075	812690	keystroke_l	l	n/a
406.48	0.0905	812960	keystroke_a	a	n/a
406.7955	0.0895	813591	keystroke_b	b	n/a
406.915	0.105	813830	keystroke_a	a	n/a
407.035	0.03	814070	keystroke_m	m	n/a
407.35	0.091	814700	keystroke_a	a	n/a
407.74	0.06	815480	keystroke_Key.space	Key.space	n/a
408.205	0.076	816410	keystroke_d	d	n/a
408.34	0.031	816680	keystroke_i	i	n/a
408.415	0.091	816830	keystroke_v	v	n/a
408.5655	0.06	817131	keystroke_i	i	n/a
408.655	0.076	817310	keystroke_d	d	n/a
408.866	0.074	817732	keystroke_e	e	n/a
409.045	0.0755	818090	keystroke_Key.space	Key.space	n/a
409.2695	0.091	818539	keystroke_p	p	n/a
409.8255	0.09	819651	keystroke_Key.backspace	Key.backspace	n/a
410.1405	0.105	820281	keystroke_p	p	n/a
410.5155	0.0755	821031	keystroke_i	i	n/a
410.621	0.0895	821242	keystroke_c	c	n/a
410.755	0.045	821510	keystroke_k	k	n/a
410.83	0.09	821660	keystroke_s	s	n/a
411.2505	0.075	822501	keystroke_Key.space	Key.space	n/a
411.5355	0.09	823071	keystroke_g	g	n/a
411.7905	0.09	823581	keystroke_i	i	n/a
411.9255	0.105	823851	keystroke_l	l	n/a
412.2105	0.045	824421	keystroke_b	b	n/a
412.3155	0.135	824631	keystroke_e	e	n/a
412.4055	0.105	824811	keystroke_r	r	n/a
412.6005	0.09	825201	keystroke_t	t	n/a
412.7355	0.105	825471	keystroke_Key.enter	Key.enter	n/a
412.8475	8.3955	825695	prompt	n/a	arthur executive barely comply\n
413.6805	0.12	827361	keystroke_a	a	n/a
413.8155	0.105	827631	keystroke_r	r	n/a
413.9955	0.09	827991	keystroke_t	t	n/a
414.1	0.0895	828200	keystroke_h	h	n/a
414.2655	0.045	828531	keystroke_u	u	n/a
414.3555	0.075	828711	keystroke_r	r	n/a
414.6245	0.1205	829249	keystroke_Key.space	Key.space	n/a
416.035	0.061	832070	keystroke_e	e	n/a
416.2755	0.09	832551	keystroke_x	x	n/a
416.5005	0.1055	833001	keystroke_e	e	n/a
417.1605	0.075	834321	keystroke_c	c	n/a
417.52	0.12	835040	keystroke_u	u	n/a
417.715	0.09	835430	keystroke_t	t	n/a
417.8495	0.0755	835699	keystroke_i	i	n/a
418.1795	0.1355	836359	keystroke_v	v	n/a
418.2995	0.0905	836599	keystroke_e	e	n/a
418.45	0.105	836900	keystroke_Key.space	Key.space	n/a
418.8405	0.0445	837681	keystroke_b	b	n/a
418.915	0.1055	837830	keystroke_a	a	n/a
418.9745	0.121	837949	keystroke_r	r	n/a
419.1405	0.134	838281	keystroke_e	e	n/a
419.32	0.1055	838640	keystroke_l	l	n/a
419.4555	0.06	838911	keystroke_y	y	n/a
419.6355	0.075	839271	keystroke_Key.space	Key.space	n/a
419.9505	0.075	839901	keystroke_c	c	n/a
420.0555	0.09	840111	keystroke_o	o	n/a
420.2505	0.09	840501	keystroke_m	m	n/a
420.5365	0.1035	841073	keystroke_p	p	n/a
420.8495	0.106	841699	keystroke_l	l	n/a
421.0295	0.0615	842059	keystroke_y	y	n/a
421.1345	0.105	842269	keystroke_Key.enter	Key.enter	n/a
421.262	11.051	842524	prompt	n/a	place germany heroes nuclear\n
422.23	0.075	844460	keystroke_p	p	n/a
422.485	0.105	844970	keystroke_l	l	n/a
422.68	0.075	845360	keystroke_l	l	n/a
423.1	0.105	846200	keystroke_Key.backspace	Key.backspace	n/a
423.25	0.18	846500	keystroke_a	a	n/a
423.4155	0.165	846831	keystroke_c	c	n/a
423.5205	0.135	847041	keystroke_e	e	n/a
423.82	0.075	847640	keystroke_Key.space	Key.space	n/a
424.4955	0.12	848991	keystroke_g	g	n/a
424.6305	0.104	849261	keystroke_e	e	n/a
424.6755	0.18	849351	keystroke_r	r	n/a
424.9905	0.074	849981	keystroke_m	m	n/a
425.245	0.1355	850490	keystroke_y	y	n/a
425.4855	0.105	850971	keystroke_e	e	n/a
425.6205	0.06	851241	keystroke_n	n	n/a
425.9055	0.09	851811	keystroke_Key.backspace	Key.backspace	n/a
426.0855	0.0595	852171	keystroke_Key.backspace	Key.backspace	n/a
426.2355	0.059	852471	keystroke_Key.backspace	Key.backspace	n/a
426.3855	0.0895	852771	keystroke_a	a	n/a
426.5055	0.0905	853011	keystroke_n	n	n/a
426.611	0.075	853222	keystroke_y	y	n/a
426.805	0.09	853610	keystroke_Key.space	Key.space	n/a
427.3455	0.0895	854691	keystroke_h	h	n/a
427.4955	0.1045	854991	keystroke_o	o	n/a
427.6305	0.09	855261	keystroke_r	r	n/a
428.23	0.06	856460	keystroke_Key.backspace	Key.backspace	n/a
428.3655	0.089	856731	keystroke_Key.backspace	Key.backspace	n/a
428.4855	0.119	856971	keystroke_e	e	n/a
428.77	0.1055	857540	keystroke_r	r	n/a
428.9495	0.0755	857899	keystroke_o	o	n/a
429.1305	0.075	858261	keystroke_s	s	n/a
429.325	0.1205	858650	keystroke_e	e	n/a
429.43	0.1205	858860	keystroke_s	s	n/a
429.6855	0.06	859371	keystroke_Key.backspace	Key.backspace	n/a
429.8355	0.0445	859671	keystroke_Key.backspace	Key.backspace	n/a
429.9855	0.09	859971	keystroke_Key.backspace	Key.backspace	n/a
430.0905	0.135	860181	keystroke_e	e	n/a
430.1505	0.105	860301	keystroke_s	s	n/a
430.3745	0.0905	860749	keystroke_Key.space	Key.space	n/a
431.065	0.075	862130	keystroke_n	n	n/a
431.3205	0.0145	862641	keystroke_u	u	n/a
431.5155	0.1045	863031	keystroke_c	c	n/a
431.621	0.089	863242	keystroke_l	l	n/a
431.74	0.1805	863480	keystroke_e	e	n/a
431.935	0.1505	863870	keystroke_a	a	n/a
432.0545	0.1205	864109	keystroke_r	r	n/a
432.1895	0.121	864379	keystroke_Key.enter	Key.enter	n/a
432.334	18.2935	864668	prompt	n/a	orders multi infrastructure wrapped\n
433.1355	0.105	866271	keystroke_o	o	n/a
433.2255	0.075	866451	keystroke_r	r	n/a
433.4205	0.0895	866841	keystroke_d	d	n/a
433.6155	0.1345	867231	keystroke_e	e	n/a
433.66	0.135	867320	keystroke_r	r	n/a
433.78	0.1055	867560	keystroke_s	s	n/a
433.975	0.075	867950	keystroke_Key.space	Key.space	n/a
434.23	0.075	868460	keystroke_m	m	n/a
434.665	0.015	869330	keystroke_u	u	n/a
434.77	0.1055	869540	keystroke_l	l	n/a
434.92	0.0905	869840	keystroke_t	t	n/a
435.1005	0.0445	870201	keystroke_i	i	n/a
435.325	0.075	870650	keystroke_Key.space	Key.space	n/a
435.775	0.135	871550	keystroke_i	i	n/a
435.895	0.075	871790	keystroke_n	n	n/a
436.21	0.15	872420	keystroke_f	f	n/a
436.315	0.12	872630	keystroke_r	r	n/a
436.4205	0.1195	872841	keystroke_a	a	n/a
437.035	0.09	874070	keystroke_Key.backspace	Key.backspace	n/a
437.155	0.1355	874310	keystroke_s	s	n/a
437.455	0.09	874910	keystroke_c	c	n/a
438.3555	0.1045	876711	keystroke_Key.backspace	Key.backspace	n/a
438.625	0.121	877250	keystroke_t	t	n/a
438.715	0.105	877430	keystroke_r	r	n/a
438.895	0.06	877790	keystroke_u	u	n/a
439.016	0.1195	878032	keystroke_c	c	n/a
439.2545	0.0765	878509	keystroke_t	t	n/a
439.376	0.0745	878752	keystroke_u	u	n/a
439.6295	0.181	879259	keystroke_r	r	n/a
439.8245	0.121	879649	keystroke_e	e	n/a
440.0055	0.119	880011	keystroke_Key.space	Key.space	n/a
440.35	0.1045	880700	keystroke_q	q	n/a
440.8605	0.119	881721	keystroke_r	r	n/a
441.0095	0.091	882019	keystroke_a	a	n/a
441.1305	0.0895	882261	keystroke_p	p	n/a
441.3405	0.06	882681	keystroke_p	p	n/a
441.4605	0.075	882921	keystroke_e	e	n/a
441.6555	0.06	883311	keystroke_d	d	n/a
442.7195	0.045	885439	keystroke_Key.backspace	Key.backspace	n/a
442.8695	0.09	885739	keystroke_Key.backspace	Key.backspace	n/a
443.0345	0.061	886069	keystroke_Key.backspace	Key.backspace	n/a
443.1845	0.061	886369	keystroke_Key.backspace	Key.backspace	n/a
443.3505	0.0745	886701	keystroke_Key.backspace	Key.backspace	n/a
443.53	0.0455	887060	keystroke_Key.backspace	Key.backspace	n/a
443.6805	0.0745	887361	keystroke_Key.backspace	Key.backspace	n/a
444.2345	0.015	888469	keystroke_Key.backspace	Key.backspace	n/a
444.3255	0.075	888651	keystroke_Key.backspace	Key.backspace	n/a
444.4745	0.075	888949	keystroke_Key.backspace	Key.backspace	n/a
444.6405	0.075	889281	keystroke_Key.backspace	Key.backspace	n/a
444.8055	0.089	889611	keystroke_Key.backspace	Key.backspace	n/a
444.9845	0.075	889969	keystroke_Key.backspace	Key.backspace	n/a
445.165	0.0745	890330	keystroke_Key.backspace	Key.backspace	n/a
445.3455	0.104	890691	keystroke_Key.backspace	Key.backspace	n/a
445.5545	0.076	891109	keystroke_Key.backspace	Key.backspace	n/a
445.7505	0.059	891501	keystroke_Key.backspace	Key.backspace	n/a
445.9305	0.18	891861	keystroke_a	a	n/a
446.0805	0.09	892161	keystroke_s	s	n/a
447.5805	0.12	895161	keystroke_t	t	n/a
447.6705	0.105	895341	keystroke_r	r	n/a
447.8795	0.046	895759	keystroke_u	u	n/a
448.0305	0.09	896061	keystroke_c	c	n/a
448.2555	0.09	896511	keystroke_t	t	n/a
448.3605	0.06	896721	keystroke_u	u	n/a
448.5105	0.09	897021	keystroke_r	r	n/a
448.556	0.1045	897112	keystroke_e	e	n/a
448.7055	0.12	897411	keystroke_Key.space	Key.space	n/a
448.9895	0.166	897979	keystroke_w	w	n/a
449.2305	0.135	898461	keystroke_a	a	n/a
449.6205	0.06	899241	keystroke_Key.backspace	Key.backspace	n/a
449.6955	0.105	899391	keystroke_r	r	n/a
449.8155	0.105	899631	keystroke_a	a	n/a
449.9355	0.09	899871	keystroke_p	p	n/a
450.1155	0.089	900231	keystroke_p	p	n/a
450.2505	0.029	900501	keystroke_e	e	n/a
450.4005	0.045	900801	keystroke_d	d	n/a
450.5355	0.0895	901071	keystroke_Key.enter	Key.enter	n/a
450.64	15.228	901280	prompt	n/a	variance narrative further views\n
455.2925	0.043	910585	keystroke_a	a	n/a
458.5935	0.001	917187	keystroke_Key.backspace	Key.backspace	n/a
458.9195	0.136	917839	keystroke_v	v	n/a
459.0105	0.1355	918021	keystroke_a	a	n/a
459.13	0.0905	918260	keystroke_r	r	n/a
459.235	0.076	918470	keystroke_i	i	n/a
459.4155	0.165	918831	keystroke_a	a	n/a
459.4905	0.06	918981	keystroke_n	n	n/a
459.6255	0.1345	919251	keystroke_c	c	n/a
459.685	0.12	919370	keystroke_e	e	n/a
459.806	0.12	919612	keystroke_Key.space	Key.space	n/a
460.54	0.045	921080	keystroke_n	n	n/a
460.6145	0.106	921229	keystroke_a	a	n/a
460.6905	0.15	921381	keystroke_r	r	n/a
460.9005	0.15	921801	keystroke_r	r	n/a
461.0655	0.135	922131	keystroke_a	a	n/a
461.2155	0.075	922431	keystroke_c	c	n/a
461.8	0.105	923600	keystroke_Key.backspace	Key.backspace	n/a
462.0545	0.076	924109	keystroke_t	t	n/a
462.4155	0.0605	924831	keystroke_i	i	n/a
462.5205	0.1205	925041	keystroke_v	v	n/a
462.5955	0.1055	925191	keystroke_e	e	n/a
462.715	0.1055	925430	keystroke_Key.space	Key.space	n/a
463.4805	0.06	926961	keystroke_f	f	n/a
463.7505	0.0445	927501	keystroke_u	u	n/a
463.871	0.09	927742	keystroke_r	r	n/a
464.021	0.105	928042	keystroke_t	t	n/a
464.081	0.105	928162	keystroke_h	h	n/a
464.23	0.105	928460	keystroke_e	e	n/a
464.305	0.075	928610	keystroke_r	r	n/a
464.47	0.06	928940	keystroke_Key.space	Key.space	n/a
464.8905	0.09	929781	keystroke_v	v	n/a
465.0255	0.06	930051	keystroke_i	i	n/a
465.1905	0.12	930381	keystroke_e	e	n/a
465.2655	0.09	930531	keystroke_w	w	n/a
465.4755	0.09	930951	keystroke_s	s	n/a
465.7905	0.075	931581	keystroke_Key.enter	Key.enter	n/a
465.883	9.405	931766	prompt	n/a	intended impressed fingers scholarship\n
466.6155	0.1045	933231	keystroke_i	i	n/a
466.796	0.074	933592	keystroke_n	n	n/a
466.84	0.105	933680	keystroke_t	t	n/a
466.975	0.195	933950	keystroke_e	e	n/a
467.185	0.0905	934370	keystroke_r	r	n/a
467.8	0.0605	935600	keystroke_Key.backspace	Key.backspace	n/a
468.146	0.0445	936292	keystroke_n	n	n/a
468.1605	0.015	936321	keystroke_b	b	n/a
468.2355	0.09	936471	keystroke_d	d	n/a
468.4605	0.044	936921	keystroke_e	e	n/a
468.925	0.0605	937850	keystroke_Key.backspace	Key.backspace	n/a
469.0755	0.0595	938151	keystroke_Key.backspace	Key.backspace	n/a
469.2255	0.075	938451	keystroke_Key.backspace	Key.backspace	n/a
469.6155	0.09	939231	keystroke_d	d	n/a
469.8255	0.045	939651	keystroke_e	e	n/a
469.976	0.104	939952	keystroke_d	d	n/a
470.11	0.105	940220	keystroke_Key.space	Key.space	n/a
470.4855	0.075	940971	keystroke_i	i	n/a
470.696	0.0745	941392	keystroke_m	m	n/a
470.8605	0.1055	941721	keystroke_p	p	n/a
470.966	0.165	941932	keystroke_r	r	n/a
471.041	0.209	942082	keystroke_e	e	n/a
471.175	0.1055	942350	keystroke_s	s	n/a
471.386	0.1645	942772	keystroke_s	s	n/a
471.5055	0.105	943011	keystroke_e	e	n/a
471.7155	0.075	943431	keystroke_d	d	n/a
471.8345	0.1055	943669	keystroke_Key.space	Key.space	n/a
472.09	0.0755	944180	keystroke_f	f	n/a
472.2105	0.119	944421	keystroke_i	i	n/a
472.3155	0.0895	944631	keystroke_n	n	n/a
472.51	0.0905	945020	keystroke_g	g	n/a
472.6155	0.15	945231	keystroke_e	e	n/a
472.7055	0.12	945411	keystroke_r	r	n/a
472.8555	0.105	945711	keystroke_s	s	n/a
473.0355	0.09	946071	keystroke_Key.space	Key.space	n/a
473.5315	0.104	947063	keystroke_s	s	n/a
473.621	0.1345	947242	keystroke_c	c	n/a
473.7405	0.1205	947481	keystroke_h	h	n/a
473.861	0.1195	947722	keystroke_o	o	n/a
474.086	0.089	948172	keystroke_l	l	n/a
474.205	0.1055	948410	keystroke_a	a	n/a
474.2655	0.09	948531	keystroke_r	r	n/a
474.49	0.105	948980	keystroke_s	s	n/a
474.611	0.1345	949222	keystroke_h	h	n/a
474.73	0.151	949460	keystroke_i	i	n/a
474.881	0.165	949762	keystroke_p	p	n/a
475.195	0.09	950390	keystroke_Key.enter	Key.enter	n/a
475.301	9.2275	950602	prompt	n/a	frequent distinct kong helicopter\n
475.9905	0.12	951981	keystroke_f	f	n/a
476.0655	0.12	952131	keystroke_r	r	n/a
476.29	0.136	952580	keystroke_e	e	n/a
476.695	0.105	953390	keystroke_q	q	n/a
476.77	0.06	953540	keystroke_u	u	n/a
477.01	0.1055	954020	keystroke_e	e	n/a
477.1305	0.0745	954261	keystroke_n	n	n/a
477.3255	0.09	954651	keystroke_t	t	n/a
477.4755	0.105	954951	keystroke_Key.space	Key.space	n/a
478.001	0.0895	956002	keystroke_d	d	n/a
478.105	0.075	956210	keystroke_i	i	n/a
478.331	0.1195	956662	keystroke_s	s	n/a
478.5255	0.12	957051	keystroke_t	t	n/a
478.6755	0.135	957351	keystroke_i	i	n/a
478.7805	0.105	957561	keystroke_n	n	n/a
478.9455	0.135	957891	keystroke_c	c	n/a
479.3205	0.075	958641	keystroke_t	t	n/a
479.5155	0.1045	959031	keystroke_Key.space	Key.space	n/a
479.995	0.06	959990	keystroke_k	k	n/a
480.19	0.09	960380	keystroke_o	o	n/a
480.4	0.046	960800	keystroke_n	n	n/a
480.4905	0.045	960981	keystroke_g	g	n/a
480.6255	0.09	961251	keystroke_Key.space	Key.space	n/a
481.331	0.1045	962662	keystroke_h	h	n/a
481.4805	0.0145	962961	keystroke_e	e	n/a
481.5255	0.1045	963051	keystroke_l	l	n/a
481.9305	0.06	963861	keystroke_i	i	n/a
482.2595	0.076	964519	keystroke_c	c	n/a
482.4855	0.1045	964971	keystroke_o	o	n/a
482.62	0.0905	965240	keystroke_p	p	n/a
482.7695	0.12	965539	keystroke_t	t	n/a
482.8755	0.165	965751	keystroke_e	e	n/a
483.5355	0.0895	967071	keystroke_r	r	n/a
484.4505	0.075	968901	keystroke_Key.enter	Key.enter	n/a
484.5415	8.415	969083	prompt	n/a	friendship calgary birds visa\n
485.3655	0.18	970731	keystroke_f	f	n/a
485.485	0.12	970970	keystroke_r	r	n/a
485.6355	0.0745	971271	keystroke_i	i	n/a
485.726	0.074	971452	keystroke_e	e	n/a
485.8455	0.06	971691	keystroke_n	n	n/a
485.9805	0.0905	971961	keystroke_d	d	n/a
486.131	0.09	972262	keystroke_s	s	n/a
486.2355	0.119	972471	keystroke_h	h	n/a
486.3845	0.1505	972769	keystroke_i	i	n/a
486.5645	0.1655	973129	keystroke_p	p	n/a
486.8955	0.09	973791	keystroke_Key.space	Key.space	n/a
487.2105	0.0895	974421	keystroke_c	c	n/a
487.33	0.076	974660	keystroke_a	a	n/a
487.3905	0.075	974781	keystroke_l	l	n/a
487.8555	0.1355	975711	keystroke_g	g	n/a
488.1255	0.105	976251	keystroke_a	a	n/a
488.201	0.1045	976402	keystroke_r	r	n/a
488.38	0.06	976760	keystroke_y	y	n/a
488.4555	0.0745	976911	keystroke_Key.space	Key.space	n/a
490.2705	0.045	980541	keystroke_b	b	n/a
490.8095	0.061	981619	keystroke_i	i	n/a
491.0355	0.075	982071	keystroke_r	r	n/a
491.2155	0.1355	982431	keystroke_d	d	n/a
491.3205	0.105	982641	keystroke_s	s	n/a
491.515	0.0905	983030	keystroke_Key.space	Key.space	n/a
491.935	0.0755	983870	keystroke_b	b	n/a
492.2655	0.06	984531	keystroke_Key.backspace	Key.backspace	n/a
492.386	0.0745	984772	keystroke_v	v	n/a
492.52	0.045	985040	keystroke_i	i	n/a
492.625	0.1205	985250	keystroke_s	s	n/a
492.761	0.06	985522	keystroke_a	a	n/a
492.8655	0.0895	985731	keystroke_Key.enter	Key.enter	n/a
492.96	7.002	985920	prompt	n/a	upgrades candy lite represents\n
494.3355	0.12	988671	keystroke_u	u	n/a
495.011	0.0745	990022	keystroke_p	p	n/a
495.415	0.1355	990830	keystroke_g	g	n/a
495.5055	0.105	991011	keystroke_r	r	n/a
495.5655	0.15	991131	keystroke_a	a	n/a
495.731	0.1045	991462	keystroke_d	d	n/a
495.926	0.1645	991852	keystroke_e	e	n/a
496.0155	0.12	992031	keystroke_s	s	n/a
496.2245	0.1065	992449	keystroke_Key.space	Key.space	n/a
496.511	0.105	993022	keystroke_c	c	n/a
496.646	0.075	993292	keystroke_a	a	n/a
496.706	0.06	993412	keystroke_n	n	n/a
496.87	0.0905	993740	keystroke_d	d	n/a
497.0505	0.1055	994101	keystroke_l	l	n/a
497.1855	0.075	994371	keystroke_y	y	n/a
497.3655	0.09	994731	keystroke_Key.space	Key.space	n/a
497.5305	0.151	995061	keystroke_l	l	n/a
497.6965	0.0895	995393	keystroke_i	i	n/a
497.8305	0.1345	995661	keystroke_f	f	n/a
497.92	0.1055	995840	keystroke_e	e	n/a
498.04	0.1205	996080	keystroke_Key.space	Key.space	n/a
498.4005	0.135	996801	keystroke_r	r	n/a
498.4905	0.12	996981	keystroke_e	e	n/a
498.6405	0.12	997281	keystroke_p	p	n/a
498.8055	0.165	997611	keystroke_r	r	n/a
498.9405	0.165	997881	keystroke_e	e	n/a
499.031	0.1195	998062	keystroke_s	s	n/a
499.2555	0.105	998511	keystroke_e	e	n/a
499.4655	0.045	998931	keystroke_n	n	n/a
499.5855	0.105	999171	keystroke_t	t	n/a
499.7205	0.0895	999441	keystroke_s	s	n/a
499.87	0.09	999740	keystroke_Key.enter	Key.enter	n/a
499.966	9.282	999932	prompt	n/a	o'clock plumbing open alternative\n
501.595	0.105	1003190	keystroke_o	o	n/a
501.94	0.1055	1003880	keystroke_'	'	n/a
502.21	0.09	1004420	keystroke_c	c	n/a
502.33	0.06	1004660	keystroke_l	l	n/a
502.496	0.075	1004992	keystroke_o	o	n/a
502.586	0.089	1005172	keystroke_c	c	n/a
502.765	0.045	1005530	keystroke_k	k	n/a
503.35	0.09	1006700	keystroke_Key.space	Key.space	n/a
503.786	0.075	1007572	keystroke_p	p	n/a
504.01	0.105	1008020	keystroke_l	l	n/a
504.325	0.075	1008650	keystroke_u	u	n/a
504.5505	0.0895	1009101	keystroke_m	m	n/a
504.775	0.045	1009550	keystroke_b	b	n/a
504.925	0.106	1009850	keystroke_i	i	n/a
505.0755	0.0595	1010151	keystroke_n	n	n/a
505.1805	0.059	1010361	keystroke_g	g	n/a
505.376	0.075	1010752	keystroke_Key.space	Key.space	n/a
505.7505	0.09	1011501	keystroke_o	o	n/a
505.8855	0.105	1011771	keystroke_p	p	n/a
506.0355	0.075	1012071	keystroke_e	e	n/a
506.17	0.03	1012340	keystroke_n	n	n/a
506.53	0.0755	1013060	keystroke_Key.space	Key.space	n/a
506.875	0.09	1013750	keystroke_a	a	n/a
507.16	0.12	1014320	keystroke_l	l	n/a
507.3255	0.105	1014651	keystroke_t	t	n/a
507.4605	0.165	1014921	keystroke_e	e	n/a
507.6555	0.105	1015311	keystroke_r	r	n/a
508.1055	0.0445	1016211	keystroke_n	n	n/a
508.195	0.1345	1016390	keystroke_a	a	n/a
508.3455	0.059	1016691	keystroke_t	t	n/a
508.4345	0.121	1016869	keystroke_i	i	n/a
508.8555	0.075	1017711	keystroke_c	c	n/a
509.0195	0.0765	1018039	keystroke_e	e	n/a
509.1705	0.0745	1018341	keystroke_Key.enter	Key.enter	n/a
509.281	11.8465	1018562	prompt	n/a	lighting eyed there dressing\n
509.9055	0.075	1019811	keystroke_l	l	n/a
510.0855	0.06	1020171	keystroke_i	i	n/a
510.1905	0.0445	1020381	keystroke_g	g	n/a
510.265	0.075	1020530	keystroke_h	h	n/a
510.37	0.076	1020740	keystroke_t	t	n/a
510.4755	0.1205	1020951	keystroke_i	i	n/a
510.5655	0.1205	1021131	keystroke_n	n	n/a
510.716	0.074	1021432	keystroke_g	g	n/a
511.1955	0.075	1022391	keystroke_Key.space	Key.space	n/a
512.2005	0.0445	1024401	keystroke_Key.backspace	Key.backspace	n/a
512.35	0.06	1024700	keystroke_Key.backspace	Key.backspace	n/a
512.5	0.0605	1025000	keystroke_Key.backspace	Key.backspace	n/a
512.6655	0.075	1025331	keystroke_Key.backspace	Key.backspace	n/a
513.835	0.1355	1027670	keystroke_i	i	n/a
513.925	0.105	1027850	keystroke_n	n	n/a
514.0455	0.0755	1028091	keystroke_g	g	n/a
514.18	0.105	1028360	keystroke_Key.space	Key.space	n/a
514.765	0.015	1029530	keystroke_e	e	n/a
515.095	0.06	1030190	keystroke_y	y	n/a
515.1705	0.09	1030341	keystroke_e	e	n/a
515.3805	0.075	1030761	keystroke_d	d	n/a
515.5155	0.12	1031031	keystroke_Key.space	Key.space	n/a
515.9655	0.09	1031931	keystroke_t	t	n/a
516.0705	0.06	1032141	keystroke_h	h	n/a
516.1605	0.1195	1032321	keystroke_e	e	n/a
516.235	0.12	1032470	keystroke_r	r	n/a
516.4005	0.09	1032801	keystroke_e	e	n/a
516.5205	0.104	1033041	keystroke_Key.space	Key.space	n/a
517.03	0.0895	1034060	keystroke_o	o	n/a
517.255	0.0745	1034510	keystroke_b	b	n/a
517.48	0.1355	1034960	keystroke_s	s	n/a
517.63	0.105	1035260	keystroke_e	e	n/a
517.8105	0.12	1035621	keystroke_s	s	n/a
518.02	0.105	1036040	keystroke_s	s	n/a
518.1705	0.105	1036341	keystroke_e	e	n/a
518.5	0.075	1037000	keystroke_Key.backspace	Key.backspace	n/a
518.6655	0.0745	1037331	keystroke_Key.backspace	Key.backspace	n/a
518.815	0.0745	1037630	keystroke_Key.backspace	Key.backspace	n/a
518.9655	0.0745	1037931	keystroke_Key.backspace	Key.backspace	n/a
519.1445	0.06	1038289	keystroke_Key.backspace	Key.backspace	n/a
519.2805	0.089	1038561	keystroke_Key.backspace	Key.backspace	n/a
519.4445	0.075	1038889	keystroke_Key.backspace	Key.backspace	n/a
519.595	0.1055	1039190	keystroke_d	d	n/a
519.9845	0.1655	1039969	keystroke_r	r	n/a
520.1045	0.1055	1040209	keystroke_e	e	n/a
520.255	0.12	1040510	keystroke_s	s	n/a
520.4955	0.0595	1040991	keystroke_s	s	n/a
520.675	0.12	1041350	keystroke_i	i	n/a
520.75	0.09	1041500	keystroke_n	n	n/a
520.8705	0.0595	1041741	keystroke_g	g	n/a
521.05	0.0755	1042100	keystroke_Key.enter	Key.enter	n/a
521.1445	7.2895	1042289	prompt	n/a	become scripts routing shapes\n
522.0705	0.045	1044141	keystroke_b	b	n/a
522.1455	0.074	1044291	keystroke_e	e	n/a
522.3245	0.0755	1044649	keystroke_c	c	n/a
522.415	0.0905	1044830	keystroke_o	o	n/a
522.595	0.075	1045190	keystroke_m	m	n/a
522.73	0.075	1045460	keystroke_e	e	n/a
522.8505	0.0745	1045701	keystroke_Key.space	Key.space	n/a
523.18	0.12	1046360	keystroke_s	s	n/a
523.285	0.105	1046570	keystroke_c	c	n/a
523.9	0.105	1047800	keystroke_r	r	n/a
524.0955	0.0745	1048191	keystroke_i	i	n/a
524.245	0.106	1048490	keystroke_p	p	n/a
524.366	0.119	1048732	keystroke_t	t	n/a
524.5	0.1205	1049000	keystroke_s	s	n/a
524.65	0.075	1049300	keystroke_Key.space	Key.space	n/a
525.8055	0.029	1051611	keystroke_t	t	n/a
526.1055	0.075	1052211	keystroke_Key.backspace	Key.backspace	n/a
526.2405	0.075	1052481	keystroke_r	r	n/a
526.375	0.135	1052750	keystroke_o	o	n/a
526.54	0.0755	1053080	keystroke_u	u	n/a
526.6755	0.1045	1053351	keystroke_t	t	n/a
526.7655	0.15	1053531	keystroke_i	i	n/a
526.8855	0.09	1053771	keystroke_n	n	n/a
527.0345	0.076	1054069	keystroke_g	g	n/a
527.2145	0.045	1054429	keystroke_Key.space	Key.space	n/a
527.6505	0.09	1055301	keystroke_s	s	n/a
527.7105	0.09	1055421	keystroke_h	h	n/a
527.8755	0.105	1055751	keystroke_a	a	n/a
528.0105	0.09	1056021	keystroke_p	p	n/a
528.1305	0.09	1056261	keystroke_e	e	n/a
528.2055	0.105	1056411	keystroke_s	s	n/a
528.355	0.075	1056710	keystroke_Key.enter	Key.enter	n/a
528.4545	8.8875	1056909	prompt	n/a	navigator choices converter chief\n
529.4505	0.09	1058901	keystroke_n	n	n/a
529.5705	0.1345	1059141	keystroke_a	a	n/a
529.72	0.1045	1059440	keystroke_v	v	n/a
529.841	0.0595	1059682	keystroke_i	i	n/a
529.9595	0.106	1059919	keystroke_g	g	n/a
530.2005	0.135	1060401	keystroke_a	a	n/a
530.3205	0.09	1060641	keystroke_t	t	n/a
530.4255	0.09	1060851	keystroke_o	o	n/a
530.5905	0.075	1061181	keystroke_r	r	n/a
530.95	0.0745	1061900	keystroke_Key.space	Key.space	n/a
531.415	0.09	1062830	keystroke_c	c	n/a
531.565	0.0755	1063130	keystroke_j	j	n/a
531.67	0.135	1063340	keystroke_o	o	n/a
532.2545	0.075	1064509	keystroke_Key.backspace	Key.backspace	n/a
532.4055	0.0745	1064811	keystroke_Key.backspace	Key.backspace	n/a
532.6755	0.12	1065351	keystroke_h	h	n/a
532.7805	0.194	1065561	keystroke_o	o	n/a
532.9305	0.105	1065861	keystroke_i	i	n/a
533.14	0.121	1066280	keystroke_c	c	n/a
533.336	0.104	1066672	keystroke_e	e	n/a
533.455	0.106	1066910	keystroke_s	s	n/a
533.62	0.0895	1067240	keystroke_Key.space	Key.space	n/a
534.2055	0.06	1068411	keystroke_v	v	n/a
534.6105	0.015	1069221	keystroke_Key.backspace	Key.backspace	n/a
534.7155	0.0595	1069431	keystroke_c	c	n/a
534.8055	0.135	1069611	keystroke_o	o	n/a
534.9855	0.0745	1069971	keystroke_n	n	n/a
535.105	0.135	1070210	keystroke_v	v	n/a
535.3	0.165	1070600	keystroke_e	e	n/a
535.375	0.105	1070750	keystroke_r	r	n/a
535.6005	0.1195	1071201	keystroke_t	t	n/a
535.75	0.1355	1071500	keystroke_e	e	n/a
535.855	0.09	1071710	keystroke_r	r	n/a
536.02	0.12	1072040	keystroke_Key.space	Key.space	n/a
536.35	0.075	1072700	keystroke_c	c	n/a
536.44	0.0905	1072880	keystroke_h	h	n/a
536.6045	0.075	1073209	keystroke_i	i	n/a
536.7555	0.104	1073511	keystroke_e	e	n/a
536.98	0.0595	1073960	keystroke_f	f	n/a
537.2495	0.09	1074499	keystroke_Key.enter	Key.enter	n/a
537.353	16.1295	1074706	prompt	n/a	irrigation electoral penn northern\n
538.4805	0.0295	1076961	keystroke_i	i	n/a
538.5855	0.0745	1077171	keystroke_r	r	n/a
539.0355	0.045	1078071	keystroke_i	i	n/a
539.1845	0.061	1078369	keystroke_i	i	n/a
539.5305	0.0595	1079061	keystroke_Key.backspace	Key.backspace	n/a
539.695	0.0745	1079390	keystroke_Key.backspace	Key.backspace	n/a
539.8755	0.075	1079751	keystroke_r	r	n/a
539.9655	0.075	1079931	keystroke_i	i	n/a
540.64	0.09	1081280	keystroke_g	g	n/a
540.745	0.135	1081490	keystroke_a	a	n/a
540.865	0.091	1081730	keystroke_t	t	n/a
540.925	0.24	1081850	keystroke_i	i	n/a
541.075	0.105	1082150	keystroke_o	o	n/a
541.105	0.1955	1082210	keystroke_n	n	n/a
541.315	0.09	1082630	keystroke_Key.space	Key.space	n/a
541.555	0.075	1083110	keystroke_e	e	n/a
541.691	0.0885	1083382	keystroke_l	l	n/a
541.855	0.06	1083710	keystroke_e	e	n/a
542.2155	0.044	1084431	keystroke_t	t	n/a
542.29	0.0745	1084580	keystroke_o	o	n/a
542.41	0.09	1084820	keystroke_r	r	n/a
542.666	0.089	1085332	keystroke_a	a	n/a
543.1	0.1045	1086200	keystroke_c	c	n/a
543.37	0.06	1086740	keystroke_l	l	n/a
543.94	0.045	1087880	keystroke_Key.backspace	Key.backspace	n/a
544	0.075	1088000	keystroke_Key.backspace	Key.backspace	n/a
544.165	0.09	1088330	keystroke_Key.backspace	Key.backspace	n/a
544.375	0.0445	1088750	keystroke_Key.backspace	Key.backspace	n/a
544.9755	0.1045	1089951	keystroke_c	c	n/a
